Timestamp,Acc_X,Acc_Y,Acc_Z,Gyro_X,Gyro_Y,Gyro_Z,Mag_X,Mag_Y,Mag_Z,Force,IR_A,Letter,Roll,Pitch,Lin_Acc_X,Lin_Acc_Y,Lin_Acc_Z
2025-02-19 14:03:01.823,25,270,957,0,-1,-1,0,0,0,0,17,noise,-15.75543959893119,1.440217653305925,50.13389301028112,541.446044511036,-5.125424433561307
2025-02-19 14:03:01.918,28,276,954,-1,-1,0,0,0,-1,0,16,noise,-16.135588661305526,1.6149641092720968,56.18270891732584,553.8009878993547,-6.225153826030464
2025-02-19 14:03:02.024,26,279,962,-1,-1,0,0,-1,-1,0,17,noise,-16.17325778326021,1.4869155683463733,51.94865946963577,557.4490766164762,1.899599623476547
2025-02-19 14:03:02.130,28,277,960,-1,-1,0,1,-1,0,0,17,noise,-16.095054594208328,1.6052037785619475,56.012426267185546,554.1229312860855,-0.4260434463618594
2025-02-19 14:03:02.240,27,275,955,0,-1,-1,-1,0,-2,0,16,noise,-16.064184492671636,1.5562452665477897,54.158264235151904,551.6119505432139,-5.597864613706179
2025-02-19 14:03:02.348,23,274,954,0,-1,-1,-1,-2,-2,0,16,noise,-16.02468699272516,1.3274321030786982,46.16598824000417,549.9774251200496,-6.884903520172543
2025-02-19 14:03:02.454,27,278,964,0,-1,0,-1,-1,-2,0,10,noise,-16.086595509822413,1.5415493670009046,53.90186611894089,554.98958448391,3.5037430126291156
2025-02-19 14:03:02.560,26,276,963,-1,-1,-1,1,-1,0,0,9,noise,-15.992533512264915,1.4867230261292643,51.94530010540831,551.4193395804882,2.025999941992268
2025-02-19 14:03:02.667,25,275,963,-1,-1,0,-1,0,-1,0,9,noise,-15.937537475582875,1.429958027000895,49.95488491675141,549.5037340842655,1.7378330067356274
2025-02-19 14:03:02.773,30,270,954,0,-2,0,1,-1,-1,0,10,noise,-15.802513953935529,1.7331298687753998,60.24420988440531,542.1978889596478,-7.765874324089054
2025-02-19 14:03:02.879,31,273,957,-1,-1,0,0,0,-1,0,11,noise,-15.921670941817924,1.7841995373823585,62.13512386712041,547.1899617975444,-4.171404543039898
2025-02-19 14:03:02.987,26,276,958,0,-1,-1,1,0,-2,0,11,noise,-16.071702181883236,1.493886034763252,52.07027590175517,552.7460057263241,-2.589396687748035
2025-02-19 14:03:03.094,35,279,959,0,-1,0,-2,0,-1,0,13,noise,-16.221195212488368,2.0070202414398084,70.02194812790823,558.1749579338971,-0.6013787046854304
2025-02-19 14:03:03.200,21,265,963,-3,-2,-4,1,0,0,0,14,noise,-15.385930757762498,1.204483984988391,42.02066295702434,530.2607468386404,-0.9475441721161815
2025-02-19 14:03:03.311,28,279,953,2,-1,0,-1,-1,-2,0,15,noise,-16.317904366060485,1.6151621673559036,56.18616430976324,559.8549943722837,-6.336235257298881
2025-02-19 14:03:03.414,25,286,959,-2,-2,0,-1,0,-1,0,16,noise,-16.606018028772272,1.4310401907079078,49.97376635011222,571.6998870452837,1.0063228096952344
2025-02-19 14:03:03.527,138,281,951,-21,-2,-8,1,-2,-1,0,17,noise,-16.461274142974027,7.922544970215509,275.8342849728824,561.6625657781155,1.1419926868757102
2025-02-19 14:03:03.634,-18,266,1056,27,25,31,-1,2,-1,0,16,noise,-14.13832938130384,-0.946963023048296,-34.5268702031776,510.2304152247357,86.42361474691404
2025-02-19 14:03:03.733,51,277,937,-31,-18,4,0,1,0,0,19,noise,-16.468961486142334,2.9878986807756864,103.12503666592929,560.1104932639689,-20.669791293641993
2025-02-19 14:03:03.843,21,155,975,-58,-11,-2,0,5,0,0,18,noise,-9.032969698971094,1.2185745248680209,42.266534293645776,311.9672769292903,-12.374806490696756
2025-02-19 14:03:03.953,131,47,942,-42,-24,-4,-1,8,0,0,0,noise,-2.8563380074641143,7.907396324042246,268.57240996330995,96.35804021584401,-47.261146453724905
2025-02-19 14:03:04.064,129,-29,951,-72,-43,-3,-3,11,4,0,21,noise,1.746648644477149,7.721288085144453,263.35437317212694,-59.20369629450916,-39.47293710614531
2025-02-19 14:03:04.174,184,-155,894,-59,-45,-24,-4,13,7,0,21,noise,9.836052740554486,11.463621298372868,382.7457125216133,-322.42166000461987,-71.64492931696884
2025-02-19 14:03:04.277,241,-210,892,-7,10,-16,-4,17,8,0,18,noise,13.247680097543467,14.734539264598734,495.3409905500147,-431.624929524909,-49.37827207723274
2025-02-19 14:03:04.378,218,-147,861,5,-9,2,-4,14,9,0,16,noise,9.688786560366802,14.013727903717403,460.15436871431626,-310.2875789036903,-95.39867643590048
2025-02-19 14:03:04.494,281,-173,915,-52,-11,-50,-6,15,9,0,16,noise,10.706587258316665,16.791587142475894,569.8912286322069,-350.85830090167894,-25.69563771697267
2025-02-19 14:03:04.599,282,-199,1015,15,-65,-13,-5,15,8,0,16,noise,11.092657142717618,15.2505635570032,545.0407040212297,-384.62092234122235,68.24001921436832
2025-02-19 14:03:04.704,426,46,704,-30,1,-19,-6,16,9,0,15,noise,-3.738444017083596,31.124671485452186,942.9019884214912,101.81570766992628,-150.22300433974146
2025-02-19 14:03:04.814,389,-177,1258,52,3,-14,-6,16,8,0,12,noise,8.008915869977425,17.02484839269192,681.7864134536098,-310.2215814429022,311.148308162876
2025-02-19 14:03:04.918,171,-217,940,4,5,16,-4,15,7,0,15,noise,12.99906833254255,10.051454086443393,345.5325074536351,-438.4827726166013,-19.41846202583031
2025-02-19 14:03:05.024,244,-166,952,2,1,3,-3,15,8,0,66,noise,9.891204006808023,14.170587912098085,488.80970066177866,-332.55086192563635,-3.1591599590708483
2025-02-19 14:03:05.133,127,-285,890,6,19,9,-6,14,9,0,103,noise,17.756350340654077,7.739020124774863,261.66104323813613,-587.1921049044788,-53.687625842056605
2025-02-19 14:03:05.244,217,-211,1011,6,-2,-2,-5,14,9,0,57,noise,11.788655533936161,11.865912773800556,422.6220003508089,-410.93659941945015,53.00994306604707
2025-02-19 14:03:05.346,242,-143,965,0,0,-1,-5,14,7,0,51,noise,8.429120814002781,13.932028237310845,482.7706336766502,-285.2735562634751,4.902225215010731
2025-02-19 14:03:05.455,238,-147,957,1,-1,-2,-5,14,9,0,60,noise,8.732665023814755,13.810119960047148,476.7049820252624,-294.4354300744268,-2.8347386477986447
2025-02-19 14:03:05.562,220,-151,958,1,-1,-2,-4,15,8,0,75,noise,8.957269933539896,12.780933947914257,441.2239894095238,-302.8401018219913,-5.329917519653463
2025-02-19 14:03:05.664,235,-126,959,3,-2,-3,-4,14,7,0,109,noise,7.485038950373336,13.65592222629709,471.09066110459366,-252.58477999650557,-4.4508255289588305
2025-02-19 14:03:05.776,244,-122,956,1,-4,-5,-4,13,9,0,144,noise,7.272495507141339,14.207429759042558,489.43309543761495,-244.7165477188075,-5.614914911311075
2025-02-19 14:03:11.698,631,-144,741,0,3,-2,-15,14,21,372,29,A,10.997331946321587,39.892726680068186,1272.3522398633936,-290.3624762921215,-12.15690925320871
2025-02-19 14:03:11.793,671,-127,720,3,4,0,-14,15,20,304,28,A,10.003440083558985,42.54497864899047,1347.1687809081286,-254.97829385295432,-5.546232867142635
2025-02-19 14:03:11.903,624,-144,739,-19,0,-2,-15,12,23,379,27,A,11.026366200920245,39.65181545920718,1262.1205429288261,-291.2585868297291,-16.72288657756792
2025-02-19 14:03:12.010,680,-124,725,-16,4,-5,-15,12,23,436,28,A,9.705642115583412,42.753578008257655,1358.8466011995843,-247.7896743363948,1.2297266622080087
2025-02-19 14:03:12.117,654,-194,780,-24,3,-8,-15,12,22,485,27,A,13.967087461059476,39.13428519819827,1285.1400725843741,-381.21892061371346,27.264133614966568
2025-02-19 14:03:12.226,628,-296,737,-20,-9,-9,-14,12,23,527,29,A,21.88178695924476,38.3338859250099,1248.2430565709456,-588.343861058917,9.103291890466721
2025-02-19 14:03:12.333,683,-190,696,-31,-7,-6,-14,13,25,675,31,A,15.269049113557196,43.43107835813839,1370.481518105312,-381.2466887847866,-4.566817864270888
2025-02-19 14:03:12.440,637,-208,751,30,-16,-4,-14,11,26,760,34,A,15.480818411598285,39.263577224258086,1269.8888165046258,-414.6575727362043,4.846936899569869
2025-02-19 14:03:12.543,750,-167,645,-18,-16,-11,-16,9,26,746,45,A,14.515956659041318,48.38344793468073,1497.6062589561352,-333.46699366089933,2.0586172977241404
2025-02-19 14:03:12.653,733,-136,612,-30,-24,-27,-16,10,28,739,57,A,12.528807709151511,49.4598944482326,1492.9511826510197,-277.0004922790432,-22.502215255694523
2025-02-19 14:03:12.764,752,-188,595,-23,-6,-21,-16,6,30,609,69,A,17.534785100018837,50.31479876209428,1521.5645148832168,-380.3911287208042,-13.897455259991943
2025-02-19 14:03:12.870,758,-198,590,10,-22,-26,-17,5,30,626,105,A,18.55140349896741,50.61312276968902,1530.878929072941,-399.8865804174701,-11.581224476299667
2025-02-19 14:03:12.976,768,-145,570,-3,7,-4,-19,5,32,669,125,A,14.272513384400337,52.55419105537541,1561.9287594264886,-294.89540379796983,-19.24400113684692
2025-02-19 14:03:13.083,796,-177,599,-3,0,-9,-18,4,30,691,131,A,16.46201417622644,51.87949482291598,1582.714145010774,-351.93518048606404,6.987722535862304
2025-02-19 14:03:13.185,775,128,558,12,-11,69,-16,6,31,0,127,A,-12.91960272177265,53.54670375504971,1579.3414539597416,260.84607239593146,-21.125846851013762
2025-02-19 14:03:13.297,788,-171,523,-53,45,-29,-16,7,31,356,98,A,18.105666359075343,55.07413621713755,1607.8935210011,-348.9210559532844,-21.167907974080094
2025-02-19 14:03:13.407,800,-194,658,-12,-35,25,-17,3,30,475,123,A,16.42724732399285,49.386790920240465,1559.1212564127627,-378.0869046800949,33.6227666005027
2025-02-19 14:03:13.509,725,-24,531,36,28,17,-16,8,33,0,133,A,2.587878507405314,53.752564648177724,1531.471071398841,-50.69697339803061,-59.670536431427195
2025-02-19 14:03:13.620,942,141,555,-24,-9,-26,-17,6,31,0,125,A,-14.254650718226664,58.705071864559265,1796.504814999044,268.90358695845566,51.54971090820641
2025-02-19 14:03:13.726,733,-85,625,39,-2,5,-16,5,29,489,130,A,7.744710546422914,49.287689771846566,1490.9942127412373,-172.8983739195159,-21.311572937617143
2025-02-19 14:03:13.834,671,-250,627,-27,58,33,-17,9,29,400,57,A,21.738360510960934,44.82960497628843,1376.0007541431587,-512.6679411859755,-31.771196494426817
2025-02-19 14:03:14.745,753,-64,643,0,-2,-1,-15,5,28,667,90,B,5.68412450086403,49.36588300882893,1511.8836667541104,-128.50007260592702,-5.024166962673121
2025-02-19 14:03:14.844,739,-58,637,1,-4,-7,-16,6,27,668,96,B,5.202538713698069,49.12245752589702,1495.1100418483052,-117.34287202598334,-14.748439319851514
2025-02-19 14:03:14.953,775,-65,609,-8,-3,-5,-17,5,28,594,111,B,6.092249062048787,51.68175286226718,1559.5789480786939,-130.80339564530982,-7.527199199902952
2025-02-19 14:03:15.066,679,-190,707,-35,-21,62,-18,4,29,0,110,B,15.042328359381314,42.84553474991585,1359.0242077297885,-380.28659715561093,-1.0664431000890318
2025-02-19 14:03:15.168,781,44,598,31,28,-41,-16,9,29,0,114,B,-4.208159847783696,52.484573119991296,1574.1894026128307,88.68672690776509,-9.333242973716551
2025-02-19 14:03:15.275,789,-173,526,-8,-1,-32,-16,5,28,385,109,B,18.205897812064126,54.938868505162155,1607.539603149599,-352.4769979022568,-19.693068766399392
2025-02-19 14:03:15.384,717,-49,681,-2,-18,35,-17,4,29,3,114,B,4.115511267251231,46.401227876429054,1441.1866401534912,-98.49113719319533,-6.8258046646128605
2025-02-19 14:03:15.492,762,-117,593,-4,-14,14,-19,6,28,58,114,B,11.16120917529961,51.577922838384964,1545.454059013212,-237.29412717131999,-16.69587532130538
2025-02-19 14:03:15.594,843,2,515,10,0,32,-17,6,27,0,119,B,-0.22250676302755734,58.57849052348484,1696.3551442893643,4.024567364862074,-6.326096451984085
2025-02-19 14:03:15.703,597,-173,582,-33,47,12,-16,9,28,0,54,B,16.55462670355924,44.51620491034418,1298.1109642036695,-376.1695088898405,-101.49511083171762
2025-02-19 14:03:15.815,819,-97,643,35,-35,-21,-15,8,27,166,65,B,8.578689982821887,51.55088281341845,1602.160686377407,-189.7552949677759,28.137580780619373
2025-02-19 14:03:16.529,766,-99,626,5,-4,-3,-15,6,28,542,86,C,8.986726142012266,50.396020464895095,1536.4689680028591,-198.57758202647918,-3.6521853391512877
2025-02-19 14:03:16.626,771,-75,619,0,-2,-1,-16,7,29,583,91,C,6.9084628125901455,51.036661883500244,1548.5484859361475,-150.637012250598,-5.257474441602199
2025-02-19 14:03:16.736,724,-69,625,6,-14,-14,-18,7,29,634,102,C,6.299941819609962,49.02553784783213,1479.0019235666614,-140.9546032128448,-26.762710261275288
2025-02-19 14:03:16.847,768,-135,621,-13,10,-24,-18,5,29,275,118,C,12.264773727892402,50.39292870141854,1538.434567669121,-270.4279513480877,-1.9685762012034047
2025-02-19 14:03:16.949,945,66,517,12,-24,61,-18,5,29,0,112,C,-7.275004957889255,61.12195153325079,1820.6496210455798,127.15648146985001,37.94089515284168
2025-02-19 14:03:17.054,898,-117,630,35,13,6,-17,7,32,437,113,C,10.520784313874362,54.49006286897544,1712.0147915153161,-223.05760646691758,58.92058056275141
2025-02-19 14:03:17.160,476,-295,756,-11,0,0,-16,10,27,0,41,C,21.316308070637437,30.393979614632357,981.9431322322996,-608.5571932952278,-47.55673942776991
2025-02-19 14:03:17.274,794,-118,631,8,-9,-13,-16,9,29,45,56,C,10.592241029676286,51.044920225162635,1571.6391134195828,-233.56853322860303,13.002165531792343
2025-02-19 14:03:18.192,764,-87,621,2,-4,-7,-16,6,29,427,84,D,7.975039729992884,50.62204277325366,1536.9777091746669,-175.0223307568011,-7.297326436476624
2025-02-19 14:03:18.285,773,-71,625,1,2,-8,-16,7,28,454,95,D,6.481016763100488,50.86342301884282,1548.643632617454,-142.24281748491492,-2.137477860166655
2025-02-19 14:03:18.394,748,-57,625,-3,-1,-16,-14,6,28,335,102,D,5.210959714983299,50.0023692323814,1514.0710223139395,-115.37706988221197,-15.099450462850427
2025-02-19 14:03:18.502,781,-123,603,-19,-1,-15,-17,3,27,0,111,D,11.529035725354278,51.762391000452396,1566.4508000975518,-246.70095827400627,-3.4364051969573666
2025-02-19 14:03:18.609,875,170,542,4,-18,53,-18,6,29,0,117,D,-17.41419661530868,57.009048118777194,1713.7565665918094,332.958418652123,22.45021817970212
2025-02-19 14:03:18.713,663,-252,506,8,-5,-72,-16,5,28,92,109,D,26.47439337375866,49.54884529423259,1423.9593509513397,-541.2334184611427,-74.76234024340556
2025-02-19 14:03:18.826,664,-116,763,-21,-14,-5,-17,3,29,492,107,D,8.644564099783226,40.707477888104385,1316.1973452454995,-229.93809043445475,13.562387918198624
2025-02-19 14:03:18.928,816,68,495,21,8,42,-17,5,30,0,117,D,-7.821976309402848,58.520247620548005,1668.8247556471051,139.0687296372588,-22.3385466241632
2025-02-19 14:03:19.036,629,-195,732,-31,27,22,-17,7,25,0,53,D,14.916800908170663,39.70393797695536,1267.8206973489157,-393.0445723100772,-11.42885605628976
2025-02-19 14:03:19.146,745,-103,646,15,-14,-11,-16,9,27,53,52,D,9.059141673578035,48.71470611129845,1496.433511424439,-206.8894653378755,-5.578588429782258
2025-02-19 14:03:19.963,772,-75,626,3,-5,-4,-16,7,29,353,82,E,6.831945863875471,50.76218155872195,1546.5271449882039,-150.24551279030482,-2.0492134230771626
2025-02-19 14:03:20.059,772,-58,610,5,-3,-5,-17,6,28,409,93,E,5.431466832327515,51.560296127242545,1555.2628365772548,-116.84617165994918,-8.899391596017267
2025-02-19 14:03:20.163,769,-42,622,0,3,-9,-16,6,29,455,97,E,3.862982871505047,50.968853261586,1545.8037398128913,-84.42621205740107,-6.311997611987522
2025-02-19 14:03:20.275,826,-22,574,-2,1,-9,-16,4,30,311,112,E,2.194931123204171,55.18426452929493,1646.992439806253,-43.866626726074536,3.4798299651461093
2025-02-19 14:03:20.382,710,72,666,-26,-30,68,-18,5,27,0,115,E,-6.1701750950296095,46.665380117760456,1437.358232166937,145.76027143101334,-16.28251073687329
2025-02-19 14:03:20.484,938,1,623,9,69,-42,-16,7,29,0,103,E,-0.09196746437614785,56.40868418580648,1771.00510739098,1.8880651464722598,69.73541374778199
2025-02-19 14:03:20.595,783,-77,577,33,9,-27,-16,2,30,0,114,E,7.601147600543649,53.371336486305836,1585.519099720345,-155.91950278220503,-14.383806562757172
2025-02-19 14:03:20.705,806,-84,663,18,-7,22,-17,4,30,630,115,E,7.220721904956838,50.33595676367755,1575.800271143825,-164.2273235435252,29.777196317176276
2025-02-19 14:03:20.808,1525,-55,485,6,8,-18,-16,4,29,0,114,E,6.469819985173174,72.25162743246435,2477.404458641359,-89.34901326247521,182.10415577635496
2025-02-19 14:03:20.919,734,-71,620,15,-16,13,-15,4,31,292,116,E,6.532832996772786,49.62857217137061,1495.8614162708975,-144.69504162838382,-23.53416633236577
2025-02-19 14:03:21.021,667,-102,441,0,11,4,-16,6,30,0,100,E,13.023079670604982,55.83824100790963,1494.4555421795626,-228.53742923885366,-106.08829700327908
2025-02-19 14:03:21.132,771,-93,586,16,-29,11,-15,5,30,0,121,E,9.017808592354529,52.41941683392861,1563.4963685365383,-188.59294717755907,-16.338355333866843
2025-02-19 14:03:21.234,628,-190,588,-22,57,8,-17,10,28,5,60,E,17.90716230271682,45.46282814540931,1340.79556930034,-405.6547104571092,-79.39457762515895
2025-02-19 14:03:22.158,783,-66,623,6,-4,-5,-16,8,30,186,83,F,6.047302069771771,51.33634435221217,1563.8268596052444,-131.81682341500147,1.7290759462740652
2025-02-19 14:03:22.254,777,-23,621,5,0,-6,-17,3,26,365,93,F,2.1210963966614536,51.34802610319955,1557.9542200261408,-46.11704898404277,-3.160322569154914
2025-02-19 14:03:22.363,883,-123,705,-18,-10,-17,-16,4,26,305,114,F,9.8966719676691,50.9761005024268,1659.8833886363566,-231.2181843740338,84.72504078297709
2025-02-19 14:03:22.471,812,146,552,-12,-16,48,-16,6,30,0,115,F,-14.815067605301316,54.885906056140854,1630.0082495899846,293.0803010346524,-4.084425829644715
2025-02-19 14:03:22.577,755,-103,669,-72,55,-25,-17,6,27,0,86,F,8.75259782127386,48.12271911878298,1499.576298962688,-204.57795866643295,9.236365554916233
2025-02-19 14:03:22.683,823,-141,612,32,13,-24,-16,3,29,0,112,F,12.974102729236659,52.65268819709568,1617.972816768517,-277.198259008944,20.84159919522199
2025-02-19 14:03:22.791,734,-11,694,14,-9,46,-15,4,32,640,113,F,0.9080703223040485,46.60091175615198,1460.5856046034235,-21.88888508261261,7.010341151531634
2025-02-19 14:03:22.897,820,113,674,-6,0,-11,-18,5,28,0,113,F,-9.517454045244644,50.19139513970397,1588.1873812425051,218.85996839073545,42.58744517384321
2025-02-19 14:03:23.244,768,-30,654,14,-6,20,-16,6,30,421,115,F,2.626405638290746,49.55380309630667,1529.0154887086308,-59.72716752768089,5.947747896556621
2025-02-19 14:03:23.244,623,-193,651,-6,16,0,-15,6,28,1,59,F,16.51335083508533,42.53690474124735,1299.0649545878027,-402.4390629782439,-55.44989636702985
2025-02-19 14:03:24.624,773,-62,623,-1,-2,-1,-17,8,28,0,79,G,5.683274745014908,50.99487853177564,1550.0897056159013,-124.32802296013698,-3.2961016800859397
2025-02-19 14:03:24.723,770,-65,621,0,-3,-2,-17,7,29,0,82,G,5.975384496302753,50.9614262528757,1546.722102405166,-130.5674502030335,-5.4213319397507576
2025-02-19 14:03:24.824,769,-61,615,-2,-2,-2,-16,3,28,0,84,G,5.664468707346686,51.21240489419625,1548.4736103043065,-122.83080653909326,-8.3761642875794
2025-02-19 14:03:24.940,780,-63,604,-1,-3,-1,-17,7,30,0,88,G,5.954683135067751,52.09710606191857,1569.0530570518824,-126.7312084541905,-7.010315973509023
2025-02-19 14:03:25.047,773,-50,617,10,-5,1,-16,4,28,345,95,G,4.63297002947556,51.312063061161226,1553.5620287135857,-100.48913510437166,-6.0359271879462995
2025-02-19 14:03:25.153,784,-42,602,3,-4,0,-16,7,28,482,100,G,3.9909130984297803,52.4136705226356,1576.4351987721798,-84.45188564850962,-6.477027628637757
2025-02-19 14:03:25.263,934,-18,594,7,-4,-4,-16,5,31,556,116,G,1.735704588928389,57.532779967989796,1777.69870674311,-34.25971811710491,57.42930213553791
2025-02-19 14:03:25.372,781,-151,634,-38,4,-31,-18,4,29,0,122,G,13.39657023789472,50.155462928512975,1548.7857224010334,-299.445126866269,10.727083223744899
2025-02-19 14:03:25.474,886,175,575,22,-26,59,-17,5,29,0,117,G,-16.927513064147043,55.84798955088401,1713.551071468882,338.45534707342466,37.93243104446185
2025-02-19 14:03:25.584,771,-267,605,-7,3,-21,-16,6,32,101,119,G,23.812937916735862,49.379858369148515,1530.042488704255,-529.8590719637305,9.383001730124079
2025-02-19 14:03:25.690,851,53,561,24,-14,35,-17,9,29,2,123,G,-5.3969517065263135,56.489074647038365,1684.7805616971723,104.92757904812001,11.351474603861902
2025-02-19 14:03:25.800,797,55,436,-21,-20,-33,-17,5,29,0,123,G,-7.189702496426293,61.1282343339886,1672.7025735970037,115.43116881786099,-43.054356447043574
2025-02-19 14:03:25.907,831,-15,657,32,0,35,-16,5,32,439,120,G,1.3078956016637844,51.66235649921864,1615.3690044846542,-29.158285279506394,36.86710475762004
2025-02-19 14:03:26.014,638,-226,628,4,-2,-11,-16,6,27,0,60,G,19.792414667452622,43.70861586782189,1328.9911196386397,-470.7711489629037,-52.160537826121754
2025-02-19 14:03:26.833,791,-47,608,-1,-2,-2,-18,6,29,95,91,H,4.4203236835557655,52.36991627517786,1582.9691713076122,-94.05758666429553,-0.7449508913124419
2025-02-19 14:03:26.927,766,-47,617,-1,1,-4,-16,4,29,127,95,H,4.356095710262918,51.06814645100361,1543.8939126468335,-94.72978315195977,-9.580344782109933
2025-02-19 14:03:27.039,709,-81,615,4,-16,-25,-18,7,30,144,112,H,7.503087391049606,48.81699451130679,1461.6102497924326,-166.9822711328449,-37.82835489752597
2025-02-19 14:03:27.144,733,-76,678,-10,-26,65,-17,4,29,0,115,H,6.395836706899725,47.053867040503796,1464.9945639834787,-151.8957528823252,0.9299940234673159
2025-02-19 14:03:27.251,844,-64,504,10,45,-35,-16,5,30,0,112,H,7.2369220259680045,58.95409025130044,1700.7543377874586,-128.96715357630018,-7.616334413363745
2025-02-19 14:03:27.356,811,141,553,30,-40,26,-18,5,30,0,117,H,-14.304092589645595,54.866333406530465,1628.8117071992183,283.1842795500491,-4.644727597001065
2025-02-19 14:03:27.468,513,-179,614,-35,22,-40,-18,5,28,465,91,H,16.25303780866667,38.73358594217169,1138.7000257003042,-397.3241805075136,-134.88852978554917
2025-02-19 14:03:27.574,811,-64,597,-15,-17,59,-18,5,29,0,119,H,6.118892244984619,53.485747623534685,1614.7088730477146,-127.4246213009294,5.367204427267893
2025-02-19 14:03:27.680,1050,51,530,-45,62,16,-17,8,33,0,94,H,-5.496444332745942,63.110732549217495,1941.8822632690544,94.31999564449694,79.81180996895347
2025-02-19 14:03:27.787,663,-147,665,5,-9,-21,-15,6,26,0,56,H,12.464932842064991,44.230437960321275,1360.5458579333695,-301.6594888630548,-34.65006866620001
2025-02-19 14:03:28.607,766,-61,604,5,-3,-4,-18,6,29,93,88,I,5.766940386516139,51.60237218664734,1549.7191737049084,-123.41105691383734,-13.971776655045346
2025-02-19 14:03:28.701,799,-29,600,11,1,-3,-16,5,30,321,95,I,2.767142566344499,53.06359456590342,1598.3029932625545,-58.01099725233303,-0.22752935861421975
2025-02-19 14:03:28.807,771,-22,629,13,5,-8,-17,5,28,556,95,I,2.003169348661895,50.77446571084364,1545.6627432103505,-44.10451407344709,-2.988152372646482
2025-02-19 14:03:28.918,742,-27,636,2,-1,-11,-17,3,29,362,98,I,2.4309083370404045,49.3732150470016,1500.9669967910054,-54.617397457354656,-14.543140106576175
2025-02-19 14:03:29.029,1034,49,637,10,-34,-25,-16,2,28,388,107,I,-4.398705354995532,58.28915433458114,1884.711626301764,89.31418731990951,112.91556484117632
2025-02-19 14:03:29.131,902,-27,603,3,29,23,-17,4,29,580,106,I,2.5637702114650045,56.210186053672814,1733.0833544733748,-51.877217927695256,47.40879961480596
2025-02-19 14:03:29.238,832,24,402,-55,-4,-6,-17,3,30,0,111,I,-3.4165881917713445,64.17146787860231,1732.101923630772,49.96447856627226,-32.90501598506029
2025-02-19 14:03:29.344,797,70,614,23,-12,47,-16,6,30,0,119,I,-6.504010540431717,52.21073884545981,1587.2698745688672,139.40889738998834,5.184814322102284
2025-02-19 14:03:29.455,895,-15,351,-24,-1,-16,-18,8,29,0,117,I,2.447048642323615,68.56816954908932,1825.8529662960127,-30.60088770328513,-14.060772256872099
2025-02-19 14:03:29.557,752,-64,605,18,-10,13,-16,5,30,0,124,I,6.038583058633821,51.026786301114605,1529.4400895582703,-130.16511400495915,-20.467093328129636
2025-02-19 14:03:29.667,617,-219,666,-30,34,0,-16,8,27,0,54,I,18.202355596505356,41.349950793313916,1277.656373496795,-453.4955361358153,-47.12341126234253
2025-02-19 14:03:30.483,770,-25,611,3,1,-2,-16,6,30,512,84,J,2.34303753867185,51.54443564659535,1553.090711636357,-50.42502310507652,-10.387564688070142
2025-02-19 14:03:30.577,791,9,612,3,6,-8,-17,5,29,464,94,J,-0.8425242607404146,52.26773188738913,1581.8790047676978,17.99862331594094,0.09361451601625959
2025-02-19 14:03:30.687,713,-31,633,13,5,-18,-17,3,29,131,97,J,2.8037144315998077,48.36732025859309,1460.4192858946471,-63.496490691071614,-30.55737443381713
2025-02-19 14:03:30.802,955,186,675,-11,-47,-12,-17,3,29,273,104,J,-15.405840060238937,53.75300966692384,1761.4756638212207,343.0727470897874,104.97793394835219
2025-02-19 14:03:30.905,748,6,627,13,14,38,-17,3,28,583,107,J,-0.5482682363041987,50.02778210850643,1514.3560338641303,12.147240913348638,-15.38667544493262
2025-02-19 14:03:31.011,866,-147,568,-32,7,5,-17,3,27,421,105,J,14.509947263116889,55.882417595292374,1693.8882518698465,-287.530684786221,24.997081914465753
2025-02-19 14:03:31.117,829,134,597,1,-20,26,-17,5,31,0,121,J,-12.650691828462001,53.57035936161498,1633.5866982105354,264.05382094114805,17.58111118010936
2025-02-19 14:03:31.224,922,109,562,-11,41,49,-18,5,27,0,83,J,-10.976250651616008,58.16372376354552,1771.5588859933891,209.43592036147447,44.15608033808576
2025-02-19 14:03:31.334,739,-74,655,12,-18,-14,-16,8,26,0,65,J,6.4457794257850045,48.267949356835175,1485.2659427775884,-148.72757749058394,-6.440044004493075
2025-02-19 14:03:32.244,769,-9,623,9,-3,-4,-16,4,29,315,91,K,0.8276503183599851,50.98465497913589,1545.977388284147,-18.09336345196011,-6.462825619016485
2025-02-19 14:03:32.344,751,10,608,5,-1,-20,-17,4,28,327,103,K,-0.9422798335170006,51.0030217760093,1528.179150696194,20.34859055520898,-21.194305756705717
2025-02-19 14:03:32.456,746,-212,656,-26,10,7,-18,5,29,0,106,K,17.9093142164644,47.25786014185493,1480.415624046763,-420.70792533232407,10.186797084884006
2025-02-19 14:03:32.555,801,51,644,34,3,21,-16,5,29,0,115,K,-4.527948850702804,51.113401026459826,1579.3900027949753,100.56041216297595,18.178324843989913
2025-02-19 14:03:32.669,579,-206,725,24,-39,-27,-17,5,30,80,90,K,15.86185919392158,37.531901469570954,1188.203062403988,-422.745821857032,-37.81903323469999
2025-02-19 14:03:32.773,687,-86,635,-14,0,-8,-15,4,31,0,116,K,7.71281537698615,46.992894830815445,1418.2691223367308,-177.54169508145395,-40.91832996189828
2025-02-19 14:03:32.883,838,41,528,14,13,16,-18,2,28,1,112,K,-4.44019396433582,57.70841001419197,1683.3402576564379,82.35912955120995,-4.6248878789964465
2025-02-19 14:03:32.993,813,-50,586,22,-16,32,-16,8,30,0,126,K,4.876906286643747,54.1177897528828,1623.2236640101414,-99.82925362915996,2.001147466245129
2025-02-19 14:03:33.099,595,-228,682,-14,17,-8,-15,9,29,0,64,K,18.48534087634302,39.605056775232555,1232.4919907440517,-472.2826451926786,-48.7051053570475
2025-02-19 14:03:33.913,794,-45,612,1,0,-5,-17,6,27,0,81,L,4.205357001708586,52.300937676211475,1585.2335408300623,-89.8432107523335,2.1323337682642887
2025-02-19 14:03:34.010,757,-45,610,1,-1,-6,-18,5,28,0,85,L,4.219095349248455,51.061716256694005,1534.8233841248996,-91.23784978285397,-16.77974150090961
2025-02-19 14:03:34.115,777,-11,613,3,2,-10,-17,5,30,0,96,L,1.028035789824012,51.72448377011703,1562.0411443376797,-22.113838594227126,-6.343914387384302
2025-02-19 14:03:34.230,700,-54,607,10,-11,-32,-18,2,28,0,107,L,5.083770133772319,48.95822926113429,1454.2310884464393,-112.18354110872534,-47.02610098141247
2025-02-19 14:03:34.336,729,-21,660,-10,-1,46,-17,4,30,0,108,L,1.8224326876328818,47.82946568908185,1470.1499462666309,-42.34999845212517,-10.999951352505263
2025-02-19 14:03:34.439,879,13,651,-3,-38,26,-17,5,28,2,112,L,-1.1440033019070976,53.470358578246206,1682.5490271972326,24.884115305533584,55.88007200751042
2025-02-19 14:03:34.550,1039,42,645,-33,67,30,-17,8,29,0,89,L,-3.725628193348981,58.1140939602307,1888.1016503804108,76.3236470798626,117.88684841639599
2025-02-19 14:03:34.656,688,-129,651,9,-13,-12,-16,8,27,5,57,L,11.208344318926505,46.03172586801613,1407.7243368685445,-263.94831316285206,-30.018231542764966
2025-02-19 14:03:35.474,766,-37,625,4,-4,-8,-15,5,27,1,79,M,3.387955983941897,50.73896765469517,1540.27080184192,-74.3995034832259,-6.748369649086044
2025-02-19 14:03:35.570,762,-22,638,5,-1,-9,-16,5,28,0,87,M,1.9749340108819768,50.04480300548725,1528.5468430383773,-44.131273683522714,-3.8069368221586046
2025-02-19 14:03:35.680,698,-52,635,5,-12,-27,-16,4,27,115,102,M,4.68149190673696,47.61056616113674,1436.5796790718082,-107.02312795377368,-36.91704328165952
2025-02-19 14:03:35.786,756,-17,717,-20,-9,54,-16,3,28,0,107,M,1.3582228640521814,46.50860301186712,1481.4777198821425,-33.31365243121219,28.94771804828565
2025-02-19 14:03:35.887,787,14,542,33,26,-46,-17,5,29,0,107,M,-1.479635770896809,55.43622989971217,1610.4952691725798,28.649216986551615,-25.13397190792682
2025-02-19 14:03:36.003,781,-53,617,-13,-4,-24,-18,2,28,77,105,M,4.90962767101078,51.58832391549151,1564.5668597586941,-106.17419150731214,-2.0278520756904754
2025-02-19 14:03:36.104,754,85,574,3,-18,32,-17,6,31,0,113,M,-8.423351406918421,52.419024999252194,1546.4921976905098,174.33930610569405,-29.303078878451743
2025-02-19 14:03:36.214,799,-68,602,6,-2,-44,-16,4,29,414,116,M,6.444631622057765,52.829386414354815,1595.839905894769,-135.81616220381014,1.6275051956808966
2025-02-19 14:03:36.327,755,-148,807,-41,-18,85,-17,3,29,114,113,M,10.392292265164572,42.620776278152206,1432.1428446236582,-280.73793510503504,83.21950250159966
2025-02-19 14:03:36.429,1085,-34,541,36,30,19,-17,7,31,0,110,M,3.5961142750791404,63.453229821051664,1979.5698350537302,-62.03260312610766,94.95181496399283
2025-02-19 14:03:36.536,529,-234,706,-6,-7,-15,-16,8,27,0,47,M,18.337507114972926,35.42205638983305,1108.5949182567465,-490.3803608167839,-67.52365272072393
2025-02-19 14:03:37.253,775,-60,628,1,1,-3,-17,7,29,0,72,N,5.457553485104592,50.85397798695803,1550.539575477413,-120.04177358534811,-0.43723019331025625
2025-02-19 14:03:37.351,761,-49,623,7,-7,-13,-18,5,28,1,79,N,4.497151614667772,50.60757391781168,1533.8174716472327,-98.76091473155637,-9.6744873012168
2025-02-19 14:03:37.454,795,16,620,5,2,-11,-16,4,29,0,95,N,-1.4782726566888706,52.04100102563633,1583.451120937397,31.868198660375285,5.107301910457636
2025-02-19 14:03:37.564,830,1,650,-12,0,-10,-18,3,29,0,108,N,-0.08814728355288569,51.93431598682523,1617.304440215686,1.948559566524923,33.43628175880008
2025-02-19 14:03:37.675,866,208,601,-15,-11,49,-17,5,26,0,112,N,-19.090217581726286,53.707074627287646,1672.0013752513103,401.5892448640561,41.638768445684036
2025-02-19 14:03:37.774,775,-49,616,-14,38,-52,-17,7,28,0,93,N,4.548042409125415,51.43291386094068,1556.8787343539962,-98.43491352689782,-5.467484338144004
2025-02-19 14:03:37.888,846,-119,611,-24,-21,35,-16,4,29,0,108,N,11.021109314845653,53.65464109304097,1651.4593552501997,-232.29747432006354,29.279354541522707
2025-02-19 14:03:37.994,935,58,528,10,-13,-41,-15,6,30,0,126,N,-6.2687209561442,60.398974865679264,1804.4860917733972,111.93603563941929,36.99608935149337
2025-02-19 14:03:38.101,820,36,627,-6,4,-8,-17,5,30,0,114,N,-3.2861019790753,52.55173218657403,1613.9026656954643,70.85426337199601,19.954912937736367
2025-02-19 14:03:38.208,573,-148,642,-4,-7,14,-17,7,28,0,64,N,12.981580209772174,41.013893397344994,1229.242015851846,-317.5005555777892,-93.26592351986938
2025-02-19 14:03:39.023,795,-39,602,0,-2,-3,-16,8,29,1,95,O,3.706673013706748,52.80804296907045,1591.6147815577458,-78.07921569905923,-1.2227654059911401
2025-02-19 14:03:39.120,806,-27,584,4,-7,-6,-17,5,28,0,105,O,2.6470637698719557,54.04513196604471,1615.4797426095674,-54.11656706012198,-2.521302337453335
2025-02-19 14:03:39.228,767,-32,593,6,-9,-5,-17,6,31,0,113,O,3.088850535231102,52.2505638654591,1557.6955987248589,-64.98860385814274,-18.320065246207605
2025-02-19 14:03:39.337,795,-48,588,-15,3,-21,-15,5,29,0,121,O,4.666858371438996,53.421520646900966,1598.0413642822996,-96.48551633402565,-5.947575091814201
2025-02-19 14:03:39.443,881,-60,514,7,30,29,-15,2,31,0,113,O,6.658090802848239,59.570473688182055,1743.2527796250233,-118.72323130249876,10.937651841927277
2025-02-19 14:03:39.554,694,-68,660,15,-14,-29,-18,6,31,0,124,O,5.88244559009534,46.28736010798916,1416.8147143159445,-138.82334376582742,-27.40304243303069
2025-02-19 14:03:39.657,904,36,589,11,31,22,-17,3,29,0,112,O,-3.4975981525021984,56.86492229341667,1741.3842242990163,69.34715937473959,43.40342022995526
2025-02-19 14:03:39.768,527,-131,658,6,-10,12,-15,6,29,0,58,O,11.25968772263822,38.14949732476565,1144.7154711165142,-284.5497660650159,-113.26523718152998
2025-02-19 14:03:40.579,772,-30,604,4,-5,-6,-17,5,29,0,88,P,2.8434801138311885,51.92670111188751,1559.2224889867389,-60.59154749948466,-11.909822989624558
2025-02-19 14:03:40.676,789,-8,595,-3,0,0,-17,5,29,0,96,P,0.7703170054232404,52.97686538527081,1587.392446971106,-16.095233936335674,-7.083024014965872
2025-02-19 14:03:40.789,778,-13,608,3,1,-9,-16,6,29,0,101,P,1.2248875943571655,51.98634065383055,1565.8639571717324,-26.164821906468532,-7.708593779451462
2025-02-19 14:03:40.893,804,-49,593,-7,3,-10,-16,4,30,1,112,P,4.72365859916126,53.495749702362815,1607.8127334471192,-97.98858698869259,0.13812072867960978
2025-02-19 14:03:40.993,791,152,561,0,-18,39,-17,5,30,0,118,P,-15.160014885972783,53.69153774216732,1596.8408365095952,306.85184216113583,-10.525549028928936
2025-02-19 14:03:41.108,763,-43,626,-8,34,-37,-14,5,28,0,105,P,3.9294801495205816,50.56684225419335,1535.366118059556,-86.52784151580721,-7.684390439425897
2025-02-19 14:03:41.220,816,-45,617,-13,-16,-17,-17,3,29,0,110,P,4.17139871906697,52.8329307590423,1612.877279887447,-88.94543822908713,14.45921361451633
2025-02-19 14:03:41.322,812,88,576,5,-6,40,-18,5,32,0,118,P,-8.686354581236651,54.33713928679759,1624.4616093284005,176.05002662672322,-0.3274470112792187
2025-02-19 14:03:41.430,727,-84,576,-27,41,36,-17,5,27,0,71,P,8.297144969836875,51.31651890275289,1507.6106381365025,-174.19435158661102,-42.47555373676107
2025-02-19 14:03:41.541,775,-51,626,26,-28,-14,-15,6,28,0,71,P,4.657580604256487,50.978064911010534,1551.9049757919092,-102.12535969727405,-1.5387288332069602
2025-02-19 14:03:42.354,795,-41,598,-3,0,-2,-17,6,29,0,88,Q,3.9221679533824814,52.98490717365366,1593.476952520111,-82.17931453248369,-2.6153680591525017
2025-02-19 14:03:42.451,741,-64,592,5,-10,-8,-17,5,28,0,92,Q,6.1701750950296095,51.21549581646984,1520.5074033188105,-131.3258755902886,-30.764349210169712
2025-02-19 14:03:42.562,783,-38,618,-8,8,-22,-18,3,29,0,119,Q,3.518611465337193,51.66436803446141,1567.3907812465463,-76.06749640787837,-1.0977047386533059
2025-02-19 14:03:42.668,952,-92,456,-1,23,32,-16,4,31,0,109,Q,11.406552583972406,63.95787655660799,1850.4715161234885,-178.82707928924467,25.63969395765679
2025-02-19 14:03:42.778,736,-133,664,34,-8,-30,-17,7,30,1,120,Q,11.326525517145402,47.38303318880864,1471.896613788134,-265.98131743725787,0.09327234331374257
2025-02-19 14:03:42.881,756,45,590,-56,46,43,-18,5,30,0,86,Q,-4.361572645020596,51.950069873457565,1543.4739392819783,91.87344876678443,-24.562994942284718
2025-02-19 14:03:42.991,807,-240,547,-24,12,-17,-16,4,29,0,113,Q,23.689793119945488,53.49145259822612,1610.768115828901,-479.0388448561787,2.1906327652925484
2025-02-19 14:03:43.094,979,-3,576,48,19,43,-18,8,31,0,114,Q,0.29841281999488256,59.52900042372512,1840.8859420632048,-5.6411213750660005,68.9046959873279
2025-02-19 14:03:43.204,680,-126,632,-4,-3,-22,-15,8,28,0,63,Q,11.275059818854002,46.53807001908693,1405.831586112076,-260.49232330900236,-42.59641532769433
2025-02-19 14:03:43.311,805,-42,613,-3,1,-5,-16,6,28,0,74,Q,3.919523264732508,52.646376615341715,1599.9059852106882,-83.47335575012286,7.68649821844474
2025-02-19 14:03:44.129,781,-7,602,6,-1,-17,-17,5,29,0,92,R,0.6661999701831416,52.37285230724756,1573.000457509621,-14.098595649894168,-8.47922589089842
2025-02-19 14:03:44.228,765,-2,612,6,-1,-11,-18,6,30,389,103,R,0.18724044296744788,51.340042502948464,1545.8671822465515,-4.041482829402749,-12.69374579724115
2025-02-19 14:03:44.337,881,-46,605,-12,-5,-12,-18,3,27,244,106,R,4.3480075479017275,55.44474751987058,1704.579598623049,-89.00188596669722,39.43171717713449
2025-02-19 14:03:44.441,770,280,594,3,-17,49,-18,6,30,0,111,R,-25.238274413173905,49.541179313573906,1530.8725369636413,556.6809225322331,7.041185770905372
2025-02-19 14:03:44.552,666,-136,501,7,-13,-65,-18,4,29,309,104,R,15.187358900792166,52.064440845008185,1454.702692548515,-297.0564056855826,-92.30337682703589
2025-02-19 14:03:44.653,672,69,755,-4,-18,55,-18,2,28,0,106,R,-5.221797321948038,41.55289158335554,1335.311150983303,137.107841395607,9.762025308937496
2025-02-19 14:03:44.766,1026,14,698,-41,-55,60,-16,3,30,0,113,R,-1.149044947326184,55.76672099709951,1852.7539609193152,25.281243131452648,135.54944958900398
2025-02-19 14:03:44.867,955,58,526,-27,66,40,-17,6,29,0,88,R,-6.292365563768127,61.00812789679483,1829.68847273357,111.1224412759655,44.23441187658875
2025-02-19 14:03:44.978,642,-186,654,15,-9,-18,-16,8,26,0,49,R,15.875946505222576,43.35624652581642,1328.532467452675,-384.90192982273766,-45.36485002188397
2025-02-19 14:03:45.894,744,-75,635,2,-6,-5,-17,6,28,0,68,S,6.736011214119352,49.3233420421179,1502.399935224283,-151.45160637341564,-12.290267294918976
2025-02-19 14:03:45.989,797,-28,606,7,-6,-4,-15,6,28,0,80,S,2.645448257000533,52.72296927895902,1592.7163513409948,-55.95490318387435,0.9760239490052527
2025-02-19 14:03:46.093,782,-29,606,2,-6,-5,-17,4,28,0,88,S,2.7397870688078454,52.194871466964074,1572.1001480304105,-58.30038912133237,-6.277096811290221
2025-02-19 14:03:46.204,705,-50,627,12,-22,-17,-16,3,28,0,111,S,4.559393011841242,48.261134202516594,1451.1867607549948,-102.92104686205637,-36.629927650186914
2025-02-19 14:03:46.309,856,-8,500,0,21,-8,-17,4,30,0,116,S,0.9166542563852879,59.70708664051012,1719.4579466074915,-16.069700435584032,-4.356277224001985
2025-02-19 14:03:46.418,756,118,764,7,-25,21,-17,6,30,0,117,S,-8.779971727265819,44.36080937024046,1455.174473617492,227.13040725775664,57.42685470401625
2025-02-19 14:03:46.530,1143,-45,469,-18,48,22,-15,5,27,0,102,S,5.48068522451359,67.59814474383275,2067.533693943628,-81.39896432848928,89.64190510974504
2025-02-19 14:03:46.636,634,-160,666,14,-9,1,-15,10,28,0,55,S,13.508747654112726,42.78782436467126,1313.2853677116354,-331.42848396508157,-47.57106450465187
2025-02-19 14:03:47.452,757,-78,628,-5,-1,-4,-16,9,29,0,62,T,7.080096107605182,50.10556129842548,1524.2274092065836,-157.05381495127278,-8.4845614025553
2025-02-19 14:03:47.546,775,-56,626,0,-4,-5,-17,6,27,0,66,T,5.111893990013121,50.959071376202935,1551.6962149618707,-112.12256521014805,-1.3701039562980668
2025-02-19 14:03:47.654,775,-49,626,-1,-3,-6,-16,7,30,0,69,T,4.475687545711374,50.98517122836759,1551.9830604610947,-98.12538059689503,-1.6018010950263033
2025-02-19 14:03:47.762,768,-42,621,7,-8,-19,-17,6,29,0,81,T,3.869184576365422,50.977274382708075,1544.8962886776958,-84.48651578706148,-7.193483422980421
2025-02-19 14:03:47.869,732,-12,657,0,8,-24,-17,5,27,0,98,T,1.0463819070981581,48.08597322683455,1476.1480295862048,-24.19914802600335,-10.903354423683595
2025-02-19 14:03:47.974,806,-156,331,15,14,-7,-19,4,29,0,107,T,25.23445936797571,65.58222307777659,1716.5554447886257,-332.2365377010243,-42.93778191691689
2025-02-19 14:03:48.082,762,33,643,3,-4,10,-17,3,30,96,111,T,-2.937952242884716,49.80410916448436,1525.8423178950443,66.07978542065152,-1.5546068326947307
2025-02-19 14:03:48.194,631,-185,609,27,-42,-17,-17,4,28,0,108,T,16.897558404995085,44.75230891693013,1335.0433430784603,-391.4152432163473,-70.49666550678648
2025-02-19 14:03:48.299,806,243,595,22,-11,61,-17,4,31,0,115,T,-22.215269519884227,51.43097092733867,1587.8575930077677,478.72133387206884,17.82224833793839
2025-02-19 14:03:48.403,668,-145,585,-22,46,15,-15,7,27,0,62,T,13.92096036492075,47.941678646781405,1410.4633327996498,-306.1634479879479,-65.2111522272379
2025-02-19 14:03:48.513,780,-66,649,12,-24,-18,-17,7,28,0,61,T,5.806726905531578,50.09282121757061,1547.084776395218,-130.90717338728768,10.746128358337955
2025-02-19 14:03:49.433,777,-42,627,-1,-1,-1,-17,6,29,0,83,U,3.832269746194795,51.03551574947414,1554.5359069234507,-84.02896794180815,-0.4324499884215811
2025-02-19 14:03:49.523,766,-43,627,1,-1,-3,-16,4,28,0,84,U,3.9232326225476606,50.63247398085054,1539.0932005818518,-86.39818227809351,-5.8060532177820505
2025-02-19 14:03:49.635,743,-45,632,1,0,-7,-17,6,29,0,85,U,4.072731189387424,49.543811023631505,1503.902341502083,-91.08426025248147,-15.227832879295306
2025-02-19 14:03:49.741,747,-30,637,2,1,-14,-16,5,27,0,88,U,2.6963959927764782,49.51296275063501,1507.5528790039311,-60.54429232947513,-11.557140462521943
2025-02-19 14:03:49.847,698,18,639,8,-5,-20,-16,5,27,0,97,U,-1.6135389328811822,47.515428410474186,1435.4592306858208,37.01757328416157,-36.12385158773577
2025-02-19 14:03:49.959,833,-184,629,-12,10,39,-17,4,28,0,108,U,16.305666437887055,51.80620895118353,1618.9239034017073,-357.6014384464755,35.54725661503733
2025-02-19 14:03:50.065,710,-103,596,39,-5,-36,-17,5,29,0,114,U,9.804940344685189,49.572991916718934,1471.2327121968506,-213.43235120602202,-43.006614745525326
2025-02-19 14:03:50.174,782,-137,597,-32,1,-20,-17,3,29,399,109,U,12.924504517180193,51.92943910285502,1569.251956826803,-274.920099853289,-4.00948622199644
2025-02-19 14:03:50.282,849,111,557,40,-13,45,-17,5,29,0,117,U,-11.270363571807355,56.21880784332361,1680.16703342646,219.66848140204596,11.699602333877465
2025-02-19 14:03:50.388,627,-169,670,-37,34,13,-17,8,29,0,61,U,14.15690832185355,42.22058817919099,1298.986740388339,-350.12561264055705,-48.07195543889463
2025-02-19 14:03:50.490,832,-59,624,7,-6,-2,-17,7,29,0,62,U,5.401331733321559,53.007639633287646,1630.7157470097136,-115.63969840573688,24.96318974271503
2025-02-19 14:03:50.598,765,-84,641,-2,1,0,-15,6,28,0,59,U,7.46579689772783,49.79976628189519,1528.79339570927,-167.86751011709634,1.0110239873960154
2025-02-19 14:03:50.703,747,-74,645,-6,1,-2,-18,8,25,0,56,U,6.544853465994758,49.00550992640701,1501.7726675399308,-148.7699831297923,-6.711339442108738
2025-02-19 14:03:50.815,753,-100,634,1,-1,0,-17,8,27,0,56,U,8.963344940020015,49.556573122080245,1514.0468515446503,-201.0686389833533,-6.775171154460054
2025-02-19 14:03:50.918,750,-91,645,-2,-1,-2,-16,8,27,0,56,U,8.030587422504285,49.02512992521774,1504.9972550698585,-182.60633361514283,-4.2976393600782785
2025-02-19 14:03:51.027,757,-82,640,-3,-1,-1,-17,8,28,0,56,U,7.301242719799246,49.557263242841664,1518.054664965653,-164.43921073604164,-3.4279862325201975
2025-02-19 14:03:51.134,754,-90,644,-2,0,0,-16,6,27,0,55,U,7.95564858417722,49.22513192286258,1511.2815958362598,-180.39170242077375,-2.8028484330920946
2025-02-19 14:03:51.240,747,-86,637,-3,0,-1,-15,5,28,1,56,U,7.688889451186789,49.28863856637143,1505.0050138155739,-173.26697615547437,-9.384462919036764
2025-02-19 14:03:51.351,756,-86,627,-3,-1,-1,-18,9,29,0,56,U,7.810017530374309,50.06628092348725,1522.787520165205,-173.22715176482495,-8.946792517967765
2025-02-19 14:03:52.469,747,-75,642,3,-2,-3,-17,5,27,0,61,V,6.663229622120632,49.13093870394472,1503.2069073721161,-150.92438829037312,-7.912763765593695
2025-02-19 14:03:52.564,756,-55,631,6,-5,-3,-17,7,28,0,66,V,4.98149531582334,50.04302782193017,1522.5269458771422,-110.76584923709366,-8.786379429201816
2025-02-19 14:03:52.669,774,-37,632,10,-7,-7,-17,6,29,0,78,V,3.350517120706243,50.71904504539514,1548.050701981524,-74.00242373813487,-0.04140006760098913
2025-02-19 14:03:52.777,740,-11,631,10,3,-9,-17,5,26,0,86,V,0.9987159147236339,49.54138510893019,1500.8748676869109,-22.310302087237858,-17.80005609519003
2025-02-19 14:03:52.887,1061,51,624,16,8,-24,-16,2,28,66,104,V,-4.67244275538945,59.45576343283672,1922.2370466272905,92.39782222242397,117.4854692785774
2025-02-19 14:03:52.998,882,-108,776,-32,-10,57,-16,3,28,0,103,V,7.923259283378656,48.385357393557996,1629.6283919731113,-199.54633371099328,118.22263926175208
2025-02-19 14:03:53.104,861,122,524,29,-24,-9,-16,6,28,1,115,V,-13.106366568462969,57.999887164322516,1709.0470525561134,242.16462301027383,7.8830946116107725
2025-02-19 14:03:53.211,792,-44,579,-6,7,-8,-16,3,27,161,111,V,4.345730801791636,53.752304746054506,1598.4683892863409,-88.8037994047967,-10.577269440393025
2025-02-19 14:03:53.316,512,-182,682,-30,21,34,-16,7,27,0,49,V,14.941874520513329,35.95522678192,1099.1528745932042,-390.7144983905531,-100.10597748547912
2025-02-19 14:03:53.423,850,26,610,5,-14,-12,-17,6,26,0,66,V,-2.4406379257614907,54.310364072950925,1662.1890687394757,50.84343033791338,27.134903610493893
2025-02-19 14:03:53.530,733,-64,644,-4,1,-1,-15,7,27,0,63,V,5.675355885169155,48.55842530235677,1482.631014152389,-129.45209400511993,-14.611695926519133
2025-02-19 14:03:55.947,741,28,647,-1,-1,-2,-18,3,25,0,88,W,-2.4780238230509126,48.847787054342774,1493.9640214372766,56.45208178170546,-10.446318312979656
2025-02-19 14:03:56.035,752,34,647,3,-2,0,-17,4,26,0,89,W,-3.008139513643274,49.25314483092244,1509.600811694339,68.25322818830787,-4.818783465740921
2025-02-19 14:03:56.147,756,34,638,1,-2,0,-16,4,29,0,93,W,-3.0504944941414087,49.798418028227225,1519.778206859076,68.34981353599018,-6.564148116521778
2025-02-19 14:03:56.253,756,35,639,-1,-1,0,-18,3,27,0,94,W,-3.135133759370603,49.75191745747812,1519.2540925055064,70.33583761599567,-6.131435332035153
2025-02-19 14:03:56.360,765,33,637,8,-6,6,-18,4,26,0,95,W,-2.9655760947026484,50.17877573758321,1533.0463529636618,66.1314113043148,-2.536636389349269
2025-02-19 14:03:56.470,729,19,649,-4,4,12,-16,5,28,0,80,W,-1.676901327745419,48.31039647640257,1475.7588778662928,38.462851412153036,-15.810029815122107
2025-02-19 14:03:56.577,761,14,636,1,-3,0,-17,6,28,0,83,W,-1.2610241992825593,50.10623496899024,1528.234950294861,28.114703421981677,-5.210812598596021
2025-02-19 14:03:56.684,778,54,633,1,-5,-12,-16,4,26,0,95,W,-4.875986212462188,50.76561622105454,1552.5650619849075,107.76158527915808,2.794750338757922
2025-02-19 14:03:56.794,668,11,620,10,-8,-26,-16,4,29,0,105,W,-1.0164313830751661,47.129763112402586,1400.8964101301294,23.068653460226685,-60.23319503095843
2025-02-19 14:03:56.905,933,-71,747,-29,-15,39,-17,2,26,0,103,W,5.429473016760691,51.19196986002551,1712.2501372609122,-130.29984967366,123.0987647010702
2025-02-19 14:03:57.008,809,85,653,38,-10,18,-16,5,29,0,114,W,-7.416403184422934,50.85513818663497,1584.552358683025,166.48572371824122,26.99791072927644
2025-02-19 14:03:57.118,721,-218,634,-18,6,-18,-17,6,28,0,110,W,18.97545901005268,47.08132135705898,1453.3209422614946,-439.42297560749773,-9.95489236308947
2025-02-19 14:03:57.224,868,178,576,13,-30,-3,-17,8,28,0,119,W,-17.172601836259066,55.217775227549865,1689.3262256492844,346.4286499603371,30.972458555313665
2025-02-19 14:03:57.327,784,0,598,3,8,0,-15,3,28,0,116,W,0.0,52.66523807589452,1579.105675231245,0.0,-8.470910444240417
2025-02-19 14:03:57.437,657,-84,647,-13,7,21,-17,6,27,0,71,W,7.397332642102183,45.19996216593253,1366.5702712459301,-174.7213132186577,-51.77011491037558
2025-02-19 14:03:58.358,754,-15,633,-1,-5,-1,-16,6,28,0,81,X,1.357465844530609,49.97786364598194,1519.7960435051796,-30.234669300500926,-9.903044481138977
2025-02-19 14:03:58.449,778,-18,627,0,-9,-3,-17,5,28,0,89,X,1.6444032646950881,51.122690225122575,1556.4917728809212,-36.01137777873597,-0.39632595930288517
2025-02-19 14:03:58.555,774,-1,605,0,-5,-7,-17,4,28,0,96,X,0.09470368154509652,51.98686721796818,1561.869616964871,-2.0179194017633995,-10.84123806685659
2025-02-19 14:03:58.665,802,50,571,-10,-6,-11,-14,4,31,0,116,X,-5.004378843447981,54.44681754953524,1615.5761540929418,100.7217053673904,-8.24187529559822
2025-02-19 14:03:58.774,671,-126,797,-23,31,24,-16,2,30,0,115,X,8.9837011163073,39.74620951830634,1310.388136784461,-246.06394222778252,37.54792098775647
2025-02-19 14:03:58.879,811,15,620,35,9,26,-18,5,28,0,116,X,-1.3859178508121923,52.5944225015235,1605.3554913376638,29.692148421781702,12.724531899689737
2025-02-19 14:03:58.990,576,-141,703,7,-10,-46,-18,3,28,0,82,X,11.341275895134903,38.776532345690384,1202.2845514630521,-294.3092391602263,-61.371596664107074
2025-02-19 14:03:59.097,833,21,750,-51,-51,72,-18,3,26,1,109,X,-1.6038627711549307,47.990224890088314,1576.0306557266463,39.73186527041965,81.00481177072675
2025-02-19 14:03:59.202,808,-26,550,37,-5,22,-18,7,31,0,125,X,2.7065128677028385,55.727400184019466,1634.3676913803356,-52.591039574119705,-12.50276022176297
2025-02-19 14:03:59.309,591,-161,673,-25,31,3,-16,8,27,0,59,X,13.453866887613612,40.49927253567266,1240.4383936711804,-337.9197654501862,-66.54659719239328
2025-02-19 14:04:00.223,751,-3,634,3,6,-10,-16,3,27,0,86,Y,0.27111365248380764,49.82836819907718,1515.1155130293848,-6.052392195856399,-11.07221739098543
2025-02-19 14:04:00.322,743,15,668,1,1,-6,-17,4,27,2,88,Y,-1.286365695845544,48.03544444686706,1486.5586223669216,30.01127770592708,-0.5022338372858712
2025-02-19 14:04:00.431,708,15,642,6,-5,-19,-18,2,25,0,97,Y,-1.3384429210237367,47.79111839304398,1448.7004617720768,30.692806393476204,-29.652113640781522
2025-02-19 14:04:00.542,696,43,660,-27,-31,46,-16,1,27,0,112,Y,-3.727638543361247,46.46017931316189,1420.8957879900613,87.7852282809952,-27.401178266437796
2025-02-19 14:04:00.644,1050,94,552,0,56,-13,-17,6,29,0,97,Y,-9.664185540189855,61.92978911107262,1932.3716343686406,172.9932701244307,88.12462650334317
2025-02-19 14:04:00.755,766,400,548,-24,-25,-2,-16,3,28,0,114,Y,-36.126715772789915,48.4682321840751,1514.588214023523,790.9076835631975,12.456473518419557
2025-02-19 14:04:00.861,906,132,469,-19,6,13,-16,4,30,0,117,Y,-15.719250778915313,61.729866630436355,1786.7243623274207,260.3174567629355,13.08418771350955
2025-02-19 14:04:00.969,767,18,631,-4,-17,60,-17,6,30,0,123,Y,-1.6339848242944548,50.54492114557768,1539.1230454326128,36.12022792410305,-4.214656672723208
2025-02-19 14:04:01.073,811,-21,551,-29,63,10,-16,7,27,0,82,Y,2.182630301867064,55.78816107962004,1637.9644143760297,-42.413381876567975,-10.846353047092862
2025-02-19 14:04:01.893,770,-24,617,0,-1,-2,-18,5,28,0,90,Z,2.227562087522824,51.273711025319365,1550.1434456326294,-48.31615934439364,-8.127929812119987
2025-02-19 14:04:01.988,784,-30,622,2,0,-5,-16,7,28,0,92,Z,2.7613221594313333,51.540249047857735,1567.04526680692,-59.963466842101525,0.7574541404284219
2025-02-19 14:04:02.094,773,0,618,4,4,-6,-16,3,29,44,94,Z,0.0,51.35827468029865,1554.0659285191598,0.0,-6.448568984270082
2025-02-19 14:04:02.203,600,-38,633,-5,-6,-35,-15,3,28,0,96,Z,3.4354341585559918,43.415450840184334,1287.2834197819056,-81.5279499195207,-92.08400786991047
2025-02-19 14:04:02.315,743,36,642,-22,-27,23,-16,2,27,443,106,Z,-3.209486317791986,49.12636662472848,1499.1546906413578,72.63737397454761,-11.366502546099127
2025-02-19 14:04:02.422,782,172,638,-24,16,30,-16,6,29,0,109,Z,-15.087810026850946,49.80268898847898,1545.826320221649,340.00272004875137,14.827119819166228
2025-02-19 14:04:02.524,744,-4,649,9,-35,6,-16,5,29,0,116,Z,0.353128222118469,48.90088514540165,1497.5735478057368,-8.051470687127619,-8.351118986456072
2025-02-19 14:04:02.633,715,113,636,-51,72,-6,-17,6,28,0,87,Z,-10.074776034624435,47.90403912526498,1457.0231015501258,230.27078388134854,-24.037332287944082
2025-02-19 14:04:02.733,817,-119,331,-37,9,-11,-18,5,29,0,109,Z,19.774354301875807,66.70676829867563,1735.493100367657,-252.7829607634653,-41.11899170342025
2025-02-19 14:04:02.848,788,58,717,22,4,41,-16,3,29,0,109,Z,-4.624735085734333,47.60796347422743,1526.5490540030223,112.36020955859809,44.99534045664086
2025-02-19 14:04:02.953,656,-103,675,10,-9,-8,-16,6,26,0,59,Z,8.675985972667117,43.85265297296728,1348.8061558841164,-211.77901532936585,-37.87218783807714
2025-02-19 14:04:04.064,783,-28,621,-1,-3,5,-17,6,27,0,82,a,2.581636060437913,51.553615095089576,1566.1903383811505,-56.00680648106285,-0.15095802642963463
2025-02-19 14:04:04.166,748,-76,622,7,-7,3,-16,6,28,0,85,a,6.966239852491983,50.045908477819346,1514.5592333633915,-153.88569750751034,-15.432945390413579
2025-02-19 14:04:04.277,705,-41,624,21,-28,-9,-16,5,29,0,115,a,3.759223025112451,48.42649653425439,1453.1050443725428,-84.50681818336773,-38.15254991271854
2025-02-19 14:04:04.388,696,-140,610,-22,16,-35,-17,5,29,0,118,a,12.925999124705953,48.03738388774538,1439.5812561978078,-289.5709423386395,-41.70196304692945
2025-02-19 14:04:04.495,845,145,588,14,-39,62,-18,6,29,0,116,a,-13.852677321432344,54.37069368900342,1657.802903676634,284.4750544770556,22.404606672353907
2025-02-19 14:04:04.601,732,-183,569,-2,9,-36,-18,6,29,0,116,a,17.82866690740466,50.76714375875566,1506.5819243617648,-376.6454810904412,-33.09988382765596
2025-02-19 14:04:04.707,837,105,530,16,-23,52,-15,7,31,0,121,a,-11.20594750740257,57.15691936147368,1677.1590560719349,210.39629735669433,-2.0003580861714454
2025-02-19 14:04:04.813,686,-169,651,-25,43,-1,-17,7,29,0,62,a,14.552779956092191,45.56600582885589,1400.05743649834,-344.9121089915735,-26.625934636179522
2025-02-19 14:04:05.626,744,-11,621,0,0,-8,-16,6,30,0,77,b,1.014794960117152,50.14458884762095,1511.6641097997772,-22.349872591125738,-19.751898099007462
2025-02-19 14:04:05.723,781,8,618,6,-7,-7,-16,3,27,0,88,b,-0.7416515137060664,51.64333467249842,1565.163027516685,16.032399769697154,-2.5028822091052234
2025-02-19 14:04:05.829,770,20,604,7,0,-9,-17,5,29,0,99,b,-1.8965183032092885,51.873563812909175,1556.65023877551,40.432473734428825,-13.06070677975049
2025-02-19 14:04:05.940,813,-16,587,-9,0,-11,-17,4,28,0,107,b,1.5613382323348535,54.15996875959929,1623.654924618946,-31.953848454985405,1.6931848077229006
2025-02-19 14:04:06.047,785,171,574,15,-11,40,-17,5,27,0,113,b,-16.58928925076818,52.65752732376317,1580.024050381551,344.18358294935695,-7.329687794917504
2025-02-19 14:04:06.157,879,-97,494,-8,3,-27,-17,5,28,0,107,b,11.109052106765848,60.19876474701232,1746.7547387904706,-192.75905536140579,6.319862386242789
2025-02-19 14:04:06.263,706,80,656,11,-13,47,-16,4,30,0,113,b,-6.952957468173915,46.89148059187311,1436.0606713953662,162.72642168786015,-22.35665784045318
2025-02-19 14:04:06.363,810,3,544,-32,47,27,-16,7,26,0,74,b,-0.3159661692883924,56.11409242784635,1640.1494425651404,6.074627565056076,-13.532465130168589
2025-02-19 14:04:06.477,733,-57,678,14,-28,-5,-15,9,28,0,65,b,4.805601243468985,47.13163615213182,1465.9186505444338,-113.99367405325064,0.0752454718607396
2025-02-19 14:04:07.297,775,-31,616,2,-3,-2,-16,6,29,0,83,c,2.880961060460356,51.48566239921052,1557.4523553212014,-62.298094212848056,-5.92342048756143
2025-02-19 14:04:07.389,791,-14,611,6,-12,-8,-16,6,27,0,94,c,1.3126032374634664,52.308793859304856,1582.3173819179876,-28.005617379079425,-0.2451584726807141
2025-02-19 14:04:07.501,755,-41,617,-2,-1,-1,-16,5,29,0,98,c,3.8017478595422807,50.68180903886903,1528.6390772627942,-83.01218830168816,-15.232199564428925
2025-02-19 14:04:07.608,760,-16,615,5,-9,-6,-16,6,28,1,108,c,1.4902857354869494,51.01037230025841,1537.2598750898565,-32.363365791365396,-13.966872605607591
2025-02-19 14:04:07.718,756,-84,622,-21,18,-19,-17,5,29,0,116,c,7.6911617519411255,50.299860709682775,1525.398002152372,-169.4886669058191,-11.023223993089118
2025-02-19 14:04:07.814,802,95,550,35,-16,35,-16,6,28,0,118,c,-9.79984866886764,55.164381506947905,1622.794260701301,192.226252826214,-12.888832151765087
2025-02-19 14:04:07.930,1022,47,603,-16,51,17,-16,6,27,0,95,c,-4.456829382242128,59.38256717208192,1882.5871060991153,86.57690213958749,95.236766166569
2025-02-19 14:04:08.037,685,-107,660,-3,-8,-12,-16,9,28,0,57,c,9.208740379317879,45.6934144598821,1400.6124535718038,-218.7817993170555,-29.495210740715947
2025-02-19 14:04:08.953,767,-44,614,-1,-2,-2,-17,6,27,0,81,d,4.098879691662309,51.25036588057181,1546.8884801120128,-88.7393652215496,-10.317505591624013
2025-02-19 14:04:09.049,774,-43,613,1,-3,-2,-16,5,28,0,84,d,4.012543941374129,51.55268112401365,1557.1802026887995,-86.51001126048885,-7.2706256437130605
2025-02-19 14:04:09.155,793,-23,602,2,-3,-4,-16,8,29,0,89,d,2.1879772295120485,52.77619555168936,1589.2786589104753,-46.09509351190533,-2.4889693116090257
2025-02-19 14:04:09.262,774,-21,605,1,-5,-4,-17,6,29,0,93,d,1.9879809831062194,51.97016678764572,1561.6900793920718,-42.37143626257559,-10.700901850392142
2025-02-19 14:04:09.368,786,-14,601,1,-2,-1,-17,6,28,0,99,d,1.3344357249871124,52.58985002311232,1580.3070111274744,-28.14796203026036,-6.351798584748167
2025-02-19 14:04:09.479,795,-22,594,0,-4,-4,-16,5,30,0,104,d,2.1210963966614536,53.215192809544334,1595.8901826187116,-44.16299876429139,-4.400966635867462
2025-02-19 14:04:09.586,771,-20,593,0,-5,-4,-16,6,29,0,110,d,1.931671828613407,52.419259511163816,1563.494693934153,-40.557579609186845,-16.532235412390037
2025-02-19 14:04:09.683,794,-11,597,-1,-3,-3,-18,6,29,0,117,d,1.0555816850534177,53.05621963466946,1593.2256370645782,-22.072395475705743,-3.9290999087570526
2025-02-19 14:04:09.803,778,-56,610,-18,2,-17,-17,5,30,0,118,d,5.245238039713046,51.784563908604746,1563.690258869583,-112.55354048418592,-6.029637417025128
2025-02-19 14:04:09.910,944,-65,554,-14,-2,34,-19,6,28,0,114,d,6.691834364011349,59.421584619821544,1804.933733369407,-124.28039477649517,48.74863528956416
2025-02-19 14:04:10.015,746,58,528,21,-3,-37,-17,6,29,0,120,d,-6.2687209561442,54.54790801036818,1560.6007899441136,121.33357348090964,-48.553910308970444
2025-02-19 14:04:10.124,804,-135,483,-38,4,-25,-17,3,31,0,114,d,15.615842874048715,58.045290041919806,1652.466711337912,-277.46642541121656,-26.713210915685863
2025-02-19 14:04:10.229,844,91,521,50,-7,33,-15,6,30,0,119,d,-9.907571090188064,57.92693282107844,1691.3716204016032,182.36352779211597,-2.0812964801365297
2025-02-19 14:04:10.340,558,-204,704,-38,39,12,-17,7,27,0,50,d,16.1601466925636,37.28185497985525,1163.7364511112069,-425.4520358901187,-60.22663366001723
2025-02-19 14:04:11.253,770,-52,625,3,-5,2,-16,7,26,0,66,e,4.756054855559571,50.837431487090136,1545.3572297458422,-104.36178694387503,-4.348400767728776
2025-02-19 14:04:11.347,765,-49,622,3,-4,0,-16,8,31,0,70,e,4.504352032155433,50.79962652578935,1539.940368896574,-98.63670336723153,-8.082234579959504
2025-02-19 14:04:11.453,799,-50,622,2,-3,-4,-16,7,27,0,80,e,4.595887691864774,52.01072432045473,1587.1259760554804,-99.3195229071014,8.465135035658705
2025-02-19 14:04:11.563,738,-56,624,-4,5,-9,-17,6,27,0,90,e,5.128191041852839,49.671189246647835,1500.342999895261,-113.84716530370545,-20.582699098432045
2025-02-19 14:04:11.674,828,-82,417,4,14,-10,-16,6,30,0,117,e,11.124852150259636,62.83002276675482,1717.6557687209543,-170.1060060810607,-31.051274826857536
2025-02-19 14:04:11.781,765,-7,632,-1,-16,-9,-16,5,28,1,123,e,0.6345792043323766,50.436671009113695,1535.9210553120572,-14.054179591090719,-4.891643081333427
2025-02-19 14:04:11.888,867,-26,544,-8,18,4,-16,5,28,0,118,e,2.736318990225982,57.86430892407492,1713.7907346353563,-51.39395513324021,12.680323366050857
2025-02-19 14:04:11.994,794,-39,584,30,-16,11,-18,7,30,0,126,e,3.8205864582551685,53.604044490747306,1598.9356845999002,-78.53714319823186,-8.043375070959087
2025-02-19 14:04:12.103,604,-166,670,-36,40,20,-16,8,27,1,54,e,13.91545142022227,41.18706837268066,1262.5196236937777,-346.9838700880249,-60.47706601793209
2025-02-19 14:04:13.116,775,-62,619,6,-5,0,-17,11,30,0,71,f,5.719757529538105,51.24577350773105,1554.8383089713425,-124.38706471770737,-3.8644041977560164
2025-02-19 14:04:13.215,783,-57,619,3,-3,2,-16,7,27,0,77,f,5.261187723446802,51.55415663646283,1566.196215230952,-114.01428386738729,-0.15511778794279962
2025-02-19 14:04:13.313,774,-66,620,9,-8,-1,-17,6,28,0,84,f,6.076344821149005,51.1464906561262,1552.7524309321748,-132.40524604848002,-3.8068568190549286
2025-02-19 14:04:13.432,1172,138,611,-4,6,-2,-17,8,29,0,125,f,-12.727233857897621,61.877152110799294,2053.9389700567126,241.84605620121704,151.21782363084344
2025-02-19 14:04:13.537,824,-202,578,-31,-3,-63,-16,3,29,0,120,f,19.263549020747966,53.38545672320109,1626.6661107246796,-398.77009025046766,14.964791263513348
2025-02-19 14:04:13.644,795,39,677,4,-11,37,-18,4,31,0,114,f,-3.2969992397891574,49.536346889633904,1555.8178048075586,76.32313759433306,29.108611503500356
2025-02-19 14:04:13.754,647,-128,530,16,-32,-34,-16,5,29,0,112,f,13.577479236904306,49.878608698806765,1411.680864933826,-279.2815312388404,-96.40009028582335
2025-02-19 14:04:13.861,696,-63,645,20,-31,21,-17,2,29,0,119,f,5.578636255393385,47.04234650877811,1427.8575572662853,-129.24572716634478,-33.23006384591076
2025-02-19 14:04:13.968,843,14,503,-48,63,31,-16,5,29,0,81,f,-1.5943019409581305,59.16661720459021,1701.6614146546076,28.260094668048048,-9.344829859154856
2025-02-19 14:04:14.075,735,-64,624,14,-19,-11,-15,7,29,0,68,f,5.856013585428958,49.521454824400685,1495.649102862639,-130.23339126967198,-21.775564879301555
2025-02-19 14:04:14.988,781,-39,619,1,-2,0,-16,5,29,0,79,g,3.605146491402629,51.545323717712904,1564.1003509623729,-78.1048830826281,-1.664682772994638
2025-02-19 14:04:15.087,791,-42,609,0,-2,-1,-16,7,29,0,81,g,3.945186229037563,52.341184696065966,1582.6628993863787,-84.03519819750682,-0.5103738638488267
2025-02-19 14:04:15.194,778,-51,583,6,-8,1,-16,6,30,0,88,g,4.999425460602788,53.04881652274477,1577.1479719596764,-103.38630664517159,-15.847387728137846
2025-02-19 14:04:15.303,910,33,684,-5,-5,-15,-15,6,29,0,122,g,-2.762128313378814,53.037711368916035,1709.031444187372,61.97586555844317,83.40933206135992
2025-02-19 14:04:15.413,866,-50,500,-30,17,-11,-16,4,28,0,118,g,5.710593137499642,59.87568428365138,1730.9385068706563,-99.93871286782078,0.6128713217920563
2025-02-19 14:04:15.518,726,-62,578,26,-2,-31,-16,7,29,0,122,g,6.122503661487362,51.31538155917632,1506.598231139008,-128.66265885760123,-43.46801322086321
2025-02-19 14:04:15.627,784,-106,656,-26,-10,28,-17,5,30,0,118,g,9.17882239641679,49.71579611968968,1546.8466169632043,-209.1399762730863,17.69976947976795
2025-02-19 14:04:15.734,762,-118,481,28,44,-1,-18,7,29,0,131,g,13.783717181614588,56.97811169151195,1600.4624420862726,-247.8406406380317,-48.26566226180728
2025-02-19 14:04:15.840,723,-110,666,-11,27,5,-16,7,26,0,61,g,9.378597309733307,46.965492316928135,1453.9428200164343,-221.20845117815736,-7.31662258775259
2025-02-19 14:04:16.753,774,-43,615,2,-3,-5,-16,6,29,0,78,h,3.9995374348609323,51.46220635486208,1556.1973613137302,-86.4554089618739,-6.513407245406029
2025-02-19 14:04:16.850,767,-31,615,4,-4,-5,-16,6,27,0,82,h,2.885637638881585,51.24099488819204,1546.7860977882538,-62.51677839822146,-10.252216609877564
2025-02-19 14:04:16.963,770,-5,617,10,-4,-17,-17,6,28,0,101,h,0.4642992329837188,51.293930451608624,1550.3641687518148,-10.067299797089706,-8.304794960869799
2025-02-19 14:04:17.068,813,5,575,-1,10,-20,-15,3,29,0,114,h,-0.4982116126136419,54.72884882308108,1629.4284419434591,10.02108512880356,-2.424789812409358
2025-02-19 14:04:17.176,868,121,713,-13,-8,76,-17,3,28,0,111,h,-9.631643182192647,50.19984541230637,1636.2817965336392,228.099190530611,81.9113814187964
2025-02-19 14:04:17.281,776,35,500,5,-2,-43,-17,5,27,0,113,h,-4.004172940709387,57.14131682008807,1616.0113371941256,72.88710928066288,-41.244418295184005
2025-02-19 14:04:17.394,734,-11,676,-13,-12,33,-17,3,29,0,114,h,0.9322454976748193,47.35174024031545,1469.5266990601367,-22.02287968618733,-1.406060714784985
2025-02-19 14:04:17.500,1037,14,500,26,35,10,-17,8,28,0,106,h,-1.6038627711549307,64.24970688541812,1937.6960167694372,26.159830506048323,65.72033906970273
2025-02-19 14:04:17.605,527,-167,729,18,-5,-6,-16,9,26,187,51,h,12.902741497621182,35.17063153330477,1103.0133912407473,-349.5317577556068,-67.80030780740935
2025-02-19 14:04:19.623,736,-26,645,0,-6,-4,-16,8,26,753,9,i,2.308347575200816,48.74695761414048,1487.804795386809,-52.558321576164445,-13.850669870233446
2025-02-19 14:04:19.713,769,-3,623,5,-3,0,-16,9,27,759,10,i,0.27590049754998014,50.98725405103648,1546.005944384743,-6.031232552866358,-6.485960145247191
2025-02-19 14:04:19.825,771,-5,626,2,-1,-1,-16,9,27,774,10,i,0.4576242903496748,50.92483606938427,1547.3197139384597,-10.034498793375224,-4.3192489305780555
2025-02-19 14:04:19.932,761,4,627,1,-4,-2,-16,9,26,777,10,i,-0.365518355574729,50.513775284086215,1532.7774895947728,8.05664909116832,-8.87974504063402
2025-02-19 14:04:20.038,777,13,626,-5,0,-4,-17,6,25,779,10,i,-1.1896774563543087,51.13686449122016,1555.6470230819475,26.027556370740434,-1.326945237193172
2025-02-19 14:04:20.143,750,-8,642,-8,-2,-2,-15,7,27,770,10,i,0.7139291488856034,49.43427706701579,1509.6604956039137,-16.103045286441745,-8.269384236950032
2025-02-19 14:04:20.255,768,-11,638,-7,-9,-2,-15,9,25,680,10,i,0.98776039963981,50.278413540616874,1537.1588416116974,-22.01659799183421,-0.9626835263841258
2025-02-19 14:04:20.366,814,-26,598,-3,-14,-6,-16,8,28,435,10,i,2.489552921999156,53.671550424121776,1619.6342254139374,-51.7327885267351,6.1458638850926945
2025-02-19 14:04:20.464,765,7,596,-9,5,-6,-16,7,29,0,10,i,-0.6729060676707775,52.076463875236776,1553.8316804280853,14.218067664047839,-18.56690396750173
2025-02-19 14:04:20.575,813,22,558,-3,4,-7,-17,7,27,0,104,i,-2.257803988672433,55.51560198296604,1637.2803938666389,44.30525051053634,-7.742262949058045
2025-02-19 14:04:20.685,815,-5,598,2,-3,-13,-16,8,26,16,106,i,0.47905053839083556,53.729971246945,1621.2378522534923,-9.946244492352713,6.429158714615369
2025-02-19 14:04:20.792,762,-51,570,-40,-2,-13,-16,5,30,1,119,i,5.112849779882466,53.092728034562064,1561.6084468675078,-104.51710077459698,-28.13230277490743
2025-02-19 14:04:20.893,884,105,567,29,-7,18,-17,8,28,0,124,i,-10.4914770123316,56.88326844144975,1721.559207780273,204.4838425530868,29.78725021333139
2025-02-19 14:04:21.010,920,351,487,-71,-29,-15,-16,3,29,0,122,i,-35.78177142546939,56.87519133054347,1757.482179791536,670.5176577248142,43.68062874078487
2025-02-19 14:04:21.109,924,49,595,-40,69,37,-15,2,29,75,88,i,-4.7078522443722255,57.13271724380413,1763.9298930752489,93.54173675399048,54.136053701544256
2025-02-19 14:04:21.222,695,-49,670,38,-27,1,-17,9,27,406,61,i,4.1828414689469255,45.97289422649663,1414.011087402428,-99.69286803268915,-23.147379222484346
2025-02-19 14:04:22.237,776,-8,609,2,-6,3,-16,8,28,627,88,j,0.752610629374574,51.87299566834094,1562.6441166134523,-16.109733160963426,-8.35343687834063
2025-02-19 14:04:22.332,808,4,597,0,-4,1,-16,6,29,590,98,j,-0.3838855755943687,53.54012133198815,1612.2731877638325,7.9815504344744195,2.7535976546928396
2025-02-19 14:04:22.442,748,-5,608,2,-5,-12,-17,6,30,582,102,j,0.4711717758805643,50.893659896199,1523.9766144511982,-10.187009454887686,-22.740349714342756
2025-02-19 14:04:22.554,798,-54,578,-22,5,-15,-16,5,29,555,115,j,5.337399988442696,53.96542471507102,1606.6621465763906,-108.72149864050763,-7.722707670618661
2025-02-19 14:04:22.655,835,117,549,8,-13,42,-16,7,29,0,130,j,-12.030596096537868,56.08903113960679,1664.9054936401333,233.2861589890965,3.349561666547288
2025-02-19 14:04:22.766,659,-128,588,-43,-4,-52,-17,4,29,0,99,j,12.280954405099381,47.59900299745568,1397.443606993714,-271.4306247271553,-70.8844323403697
2025-02-19 14:04:22.869,855,6,557,33,3,27,-17,3,28,127,115,j,-0.6171658550764354,56.91576520812273,1692.8689474764922,11.879782087554332,11.160229538706176
2025-02-19 14:04:22.975,535,-133,708,-21,17,21,-16,8,27,0,56,j,10.639198476390852,36.599778647499114,1131.2217734123717,-281.21961843709425,-81.01872070272748
2025-02-19 14:04:23.086,878,8,572,22,-19,-4,-16,6,30,0,82,j,-0.8012873301070143,56.91397255926275,1715.8518680455759,15.63418558583668,26.155730612677417
2025-02-19 14:04:23.188,768,-14,610,6,-5,1,-16,6,29,0,87,j,1.3147542913827017,51.53356115219348,1550.9726621437626,-28.27293915366235,-11.89234883814504
2025-02-19 14:04:24.211,767,39,625,-1,1,-5,-17,5,29,486,90,k,-3.570627055610602,50.7701495639127,1541.6151036172628,78.38720865850487,-6.205266963219174
2025-02-19 14:04:24.310,862,151,609,-6,-8,-8,-17,3,28,512,112,k,-13.925505725037594,53.94951643570089,1670.498780222872,292.6279765819648,37.79842557340021
2025-02-19 14:04:24.417,815,163,594,-18,-17,64,-17,5,29,0,117,k,-15.34485999015117,52.91883501843327,1612.7821801495406,322.55643602990807,12.548938639475978
2025-02-19 14:04:24.523,980,29,468,-5,26,-24,-17,8,29,0,109,k,-3.5458457363887903,64.43042453658279,1882.0618403843519,55.693666705251225,37.2194476531871
2025-02-19 14:04:24.626,795,32,536,-11,0,5,-16,4,29,0,120,k,-3.4165881917713445,55.9643453343584,1623.6894311726032,65.356052575501,-22.71388063964173
2025-02-19 14:04:24.736,882,-10,424,-5,8,-6,-16,7,29,0,121,k,1.3510650827196373,64.31899245638,1783.220721516771,-20.2179220126618,-9.239893336860177
2025-02-19 14:04:24.842,776,15,591,16,-18,21,-16,6,31,0,130,k,-1.4538954651088813,52.69828344296043,1571.4553253447066,30.376069433209537,-14.817135668455762
2025-02-19 14:04:24.949,697,-106,648,-16,48,2,-17,7,27,0,67,k,9.290177169137726,46.70901633049004,1424.8806722130876,-216.6963432633964,-28.70972108189494
2025-02-19 14:04:25.863,779,21,604,-2,1,-8,-17,6,27,0,98,l,-1.991269694853176,52.19492073083299,1569.1006750786578,42.29924798029757,-8.606941909511193
2025-02-19 14:04:25.965,763,18,600,5,-6,-13,-16,4,29,0,108,l,-1.7183580016554572,51.80704296364477,1548.9329037942935,36.54101214717862,-18.03373823928723
2025-02-19 14:04:26.071,781,22,625,-4,-1,-13,-17,4,28,0,112,l,-2.0159790875478034,51.31393953493401,1561.5825000138802,43.98823943701071,0.33410690310483915
2025-02-19 14:04:26.181,808,-140,685,-26,2,24,-18,2,29,0,113,l,11.55100726252528,49.130452703019756,1564.2013570890754,-271.0249876144437,43.913453457900346
2025-02-19 14:04:26.284,809,31,618,32,4,20,-16,5,30,0,123,l,-2.8716531930257205,52.58883592301675,1603.2962583331778,61.43656861350866,11.232277317795138
2025-02-19 14:04:26.395,602,-145,680,-22,29,7,-18,8,26,0,61,l,12.037202320365749,40.88695129634861,1256.5686565220938,-302.6618857071488,-59.379877799042674
2025-02-19 14:04:26.502,784,-52,613,14,-19,-11,-16,7,29,0,70,l,4.848719054580792,51.878868041686616,1570.707391883393,-104.17957191063321,-2.1168765618876932
2025-02-19 14:04:27.313,778,-1,616,1,-3,0,-16,6,28,353,92,m,0.09301254737281277,51.62870543516336,1562.0045567013394,-2.007717939204806,-4.754250550160464
2025-02-19 14:04:27.415,772,10,611,5,-1,-3,-18,6,30,435,95,m,-0.9376540830039112,51.63638547482989,1556.0877568956587,20.15657716186086,-9.566864589698753
2025-02-19 14:04:27.525,712,-40,620,15,-17,-10,-17,3,28,562,114,m,3.6913859864512752,48.892150523389475,1465.47332533991,-82.32996209774774,-36.11441251508995
2025-02-19 14:04:27.632,791,-40,649,-13,-3,32,-17,6,28,120,114,m,3.526865659774302,50.57852025236445,1563.495563607427,-79.06425100416824,15.182527457370384
2025-02-19 14:04:27.739,813,63,515,-1,-6,-33,-17,6,30,78,116,m,-6.9743464655986545,57.454857970703515,1655.9678580627478,128.3222325436078,-18.98332952314297
2025-02-19 14:04:27.849,774,7,675,-20,-11,10,-18,3,29,311,114,m,-0.5941571553596496,48.9070182233076,1527.643909268012,13.815900988211997,17.752404708129006
2025-02-19 14:04:27.951,808,-6,553,26,-2,14,-18,5,30,0,118,m,0.6216296351740533,55.61045796095876,1633.2166056166363,-12.127846081311656,-11.783147160890962
2025-02-19 14:04:28.062,735,-90,681,-39,-7,-11,-17,3,31,168,116,m,7.528501083960548,46.936571323693684,1465.5982546759446,-179.46101077664628,4.078351790043143
2025-02-19 14:04:28.163,899,30,550,41,-10,30,-16,6,30,0,123,m,-3.1221304621157078,58.50418568968549,1751.6783327237138,58.4542268984554,28.339173528317474
2025-02-19 14:04:28.275,538,-192,695,-13,23,11,-17,7,27,0,53,m,15.443292950075236,36.72851148354506,1136.0240519703843,-405.42122300801816,-77.54036453423248
2025-02-19 14:04:29.192,768,-32,619,2,3,-6,-16,5,29,220,77,n,2.959344496308915,51.09418474859972,1546.1794092289445,-64.42414205120602,-8.20449780301658
2025-02-19 14:04:29.288,761,-26,613,6,2,-7,-17,6,29,472,82,n,2.4287078692823236,51.12273687982911,1539.4922839663168,-52.59763388058377,-14.090368030686477
2025-02-19 14:04:29.397,711,-23,599,7,-5,-18,-17,6,29,529,89,n,2.1989246489470213,49.8658889579379,1475.5377863811686,-47.731883385044824,-45.104267288776214
2025-02-19 14:04:29.504,774,-68,670,-22,4,10,-17,3,28,275,112,n,5.795249960517452,48.97412274301573,1528.413198571065,-134.27919574009357,16.95498314907809
2025-02-19 14:04:29.611,792,-29,612,27,-1,13,-15,7,29,0,117,n,2.7129667399328667,52.27466728573233,1582.9530755186656,-57.96166564399154,0.8089870992131409
2025-02-19 14:04:29.721,695,-96,693,-34,-25,-7,-16,5,31,0,113,n,7.886883404779884,44.81028724358127,1399.7615993853854,-193.3483648071899,-9.733508451902253
2025-02-19 14:04:29.824,840,41,522,47,-8,43,-17,5,29,0,123,n,-4.4910230683746315,58.062960191995714,1688.6298925165518,82.42122094426026,-5.362861778142815
2025-02-19 14:04:29.934,760,-39,572,-35,59,18,-17,7,28,0,68,n,3.90049374238189,52.96986645647583,1558.3188873056572,-79.96636395384294,-28.84000465636325
2025-02-19 14:04:30.041,729,-88,621,10,-21,-12,-16,8,30,0,57,n,8.065507365161181,49.29253846359959,1487.049408052064,-179.5066500803589,-24.74579204435088
2025-02-19 14:04:30.858,784,-29,616,0,-2,-3,-17,6,27,0,77,o,2.69537613716737,51.811958238395945,1569.9859444659428,-58.073459680500434,-1.5603849375264645
2025-02-19 14:04:30.954,799,-60,568,2,-17,-9,-16,6,31,0,92,o,6.030008808281457,54.44115327035195,1612.5186669554873,-121.09026285022432,-10.32115498212363
2025-02-19 14:04:31.057,795,9,583,4,-5,3,-15,6,29,3,108,o,-0.8844272014924328,53.742906862075785,1601.3713947746628,18.128732771033917,-8.33902283475254
2025-02-19 14:04:31.171,794,35,563,-15,5,-21,-17,4,30,0,124,o,-3.5573265974640713,54.60860996805573,1609.214836433654,70.9351628150855,-15.042761854089804
2025-02-19 14:04:31.277,957,116,499,10,-1,41,-16,4,29,0,117,o,-13.086826452562459,61.83876443332842,1838.6229625860292,222.86338940436718,39.303178338110115
2025-02-19 14:04:31.389,723,-91,637,-11,-10,-53,-18,4,29,257,121,o,8.13010235415598,48.3310424853573,1469.9984902172716,-185.02055685998855,-21.143898019919675
2025-02-19 14:04:31.491,837,69,569,-51,60,58,-17,4,29,0,9,o,-6.914234297918318,55.59708612551024,1662.0847648516985,137.01774047164537,8.10008219759095
2025-02-19 14:04:31.597,669,-113,649,14,-14,2,-16,7,27,0,10,o,9.87698369946378,45.44169620372215,1381.5368394841316,-233.35375614604908,-42.235289723768574
2025-02-19 14:04:32.813,778,-36,614,0,-3,0,-17,6,29,0,9,p,3.355520090808698,51.67156874150572,1562.468727751129,-72.29932416329132,-5.105139896135256
2025-02-19 14:04:32.908,791,-27,603,0,-3,2,-17,7,30,0,9,p,2.5637702114650045,52.653110052910314,1585.9772833367474,-54.13576061958557,-3.031987170744401
2025-02-19 14:04:33.018,785,-31,604,0,-1,0,-16,6,26,0,10,p,2.9380993833963127,52.387923667547476,1577.1610243857167,-62.282792045805365,-5.509883731175364
2025-02-19 14:04:33.123,750,-42,603,6,-2,-13,-17,6,28,0,9,p,3.984316002372223,51.13299567550263,1528.6046528175257,-85.60186055778144,-22.998140865290452
2025-02-19 14:04:33.234,803,-51,533,-19,5,-11,-17,5,30,60,9,p,5.465695366893298,56.30494015665926,1635.0019588337705,-103.8419674975371,-19.250366199750374
2025-02-19 14:04:33.341,870,153,525,44,-3,38,-17,8,28,0,10,p,-16.24763157278565,57.848513490444205,1716.6440598159388,301.8925760365962,14.094101835209301
2025-02-19 14:04:33.452,865,-190,505,-9,-4,-37,-16,7,27,659,10,p,20.61818812310449,58.04537239026495,1713.4674719996733,-376.3685776646681,9.651938312329378
2025-02-19 14:04:33.551,695,34,728,2,-7,57,-17,4,30,0,9,p,-2.6739587755305814,43.64034863215753,1385.1293464542205,67.7617234236597,5.101921987521791
2025-02-19 14:04:33.661,1002,56,541,-46,57,24,-18,7,27,0,10,p,-5.909754393674462,61.50666880139883,1880.8726444299136,105.11863082642228,66.47894148045623
2025-02-19 14:04:33.772,661,-93,653,15,-36,-12,-16,7,27,0,67,p,8.105532981942787,45.06120681716009,1368.8617518070823,-192.59325706211592,-46.294589909265596
2025-02-19 14:04:34.783,805,-13,580,0,-2,-1,-17,6,29,0,96,q,1.284000758541924,54.220542663698176,1616.2734958934966,-26.10131111380802,-4.520034308357708
2025-02-19 14:04:34.877,809,-13,583,1,-3,-1,-17,7,29,0,100,q,1.277395745399762,54.215110773614406,1620.2180632782643,-26.035642549588914,-1.5984312623336336
2025-02-19 14:04:34.990,881,19,615,-12,-2,-18,-16,6,30,0,119,q,-1.769550669177577,55.069419456005555,1700.8463869783368,36.68113660906742,42.689525548607094
2025-02-19 14:04:35.099,893,66,567,-7,3,36,-16,4,29,1,116,q,-6.639470518893664,57.41225015921149,1735.5675699683125,128.27263115107348,32.021486929414095
2025-02-19 14:04:35.205,766,-72,604,1,0,-41,-17,6,30,0,118,q,6.797882500286341,51.5471102644861,1549.1197419777016,-145.6091663477735,-13.499117695210998
2025-02-19 14:04:35.316,897,95,517,-11,-17,48,-15,7,30,0,121,q,-10.41208704025863,59.62904208005965,1759.7700567478441,186.37475517396342,19.728963948009607
2025-02-19 14:04:35.422,843,-119,567,16,-1,-14,-16,7,29,2,122,q,11.853004167744002,55.50114300877167,1667.1374878469612,-235.33732034850345,12.68688539830714
2025-02-19 14:04:35.524,449,-225,677,-9,6,1,-16,10,29,0,46,q,18.38415470545481,32.1851417579627,981.6568189055436,-491.92156849386924,-126.13734164599748
2025-02-19 14:04:36.343,809,-21,604,4,-5,-1,-16,6,29,0,82,r,1.991269694853176,53.238361595103484,1610.1322593918303,-41.79576940324899,5.874060973219571
2025-02-19 14:04:36.436,796,-11,613,9,0,-9,-16,8,28,0,89,r,1.028035789824012,52.395655259260074,1588.2433737505976,-21.94808682318665,2.892979762416644
2025-02-19 14:04:36.549,888,-8,634,-8,-2,-17,-17,5,29,0,115,r,0.7229367684375153,54.472374043029184,1701.8354297269511,-15.33185071826082,52.95083057782995
2025-02-19 14:04:36.656,818,156,578,-10,-15,41,-16,5,30,0,118,r,-15.104031442471957,53.80016475967798,1624.962010485447,309.8949555449019,7.79945958363237
2025-02-19 14:04:36.766,877,-60,625,-14,-3,-47,-18,5,30,0,118,r,5.483590444464439,54.39986770778383,1690.0994169609075,-115.62823833255922,45.53918403584146
2025-02-19 14:04:36.873,1067,222,585,-39,75,50,-16,4,30,1,88,r,-20.781111658248754,59.61192106482614,1929.618936849302,401.47647983181355,112.05522206481572
2025-02-19 14:04:36.979,704,-72,614,9,-24,-13,-16,5,28,0,59,r,6.688178982474683,48.71249771445681,1455.408079329694,-148.84855356780963,-41.347387369931994
2025-02-19 14:04:37.793,790,-22,596,1,-6,-3,-18,8,29,0,86,s,2.113985092302651,52.949232590438065,1588.1019533265494,-44.22562401668873,-6.112359724839848
2025-02-19 14:04:37.892,798,-11,590,2,-3,-1,-15,4,28,0,91,s,1.0681026512271403,53.517931631653816,1602.0429805619847,-22.0832992308043,-4.467867834048889
2025-02-19 14:04:37.996,788,-14,602,0,-3,-3,-17,6,27,0,94,s,1.3322198538696388,52.61416910402194,1582.5647987794478,-28.116633480853135,-5.0152396766847005
2025-02-19 14:04:38.106,788,-22,572,-6,-4,-9,-18,6,31,0,100,s,2.2025981617658053,54.004406634768856,1597.0621987138115,-44.5880309285582,-15.288804142513186
2025-02-19 14:04:38.212,817,-18,574,7,-3,7,-16,3,29,0,103,s,1.7961431524957259,54.89601273490081,1635.1097003085802,-36.024448721608856,-0.7796425668600477
2025-02-19 14:04:38.319,765,-27,597,-1,2,3,-18,6,29,0,97,s,2.589501847240921,52.00340747550331,1553.04736662722,-54.81343646919599,-17.985984152222613
2025-02-19 14:04:38.424,850,3,556,-7,4,1,-17,7,30,0,100,s,-0.3091468893766929,56.810210770920676,1686.8618822735755,5.953630172730267,8.59387465399061
2025-02-19 14:04:38.533,797,-12,567,6,-8,1,-16,6,28,0,105,s,1.2124280899449287,54.56521528383048,1611.7759593968062,-24.26764305239859,-12.64613422583318
2025-02-19 14:04:38.639,811,14,548,-3,-3,-13,-17,6,30,0,126,s,-1.4634424632546126,55.94408018387457,1639.491413958554,28.301947959827075,-11.8191058560883
2025-02-19 14:04:38.752,922,-27,415,-23,10,-15,-18,5,30,0,126,s,3.722430991276863,65.72176527413217,1833.5595351748868,-53.694259706856776,4.699341542757054
2025-02-19 14:04:38.856,753,0,673,38,-22,39,-17,6,30,0,130,s,0.0,48.21098363990983,1498.60376071225,0.0,6.6104502531949265
2025-02-19 14:04:38.963,720,-29,510,-66,92,49,-18,8,29,0,63,s,3.254490665526584,54.64515434239419,1535.584069374487,-61.849913905361284,-67.7053824735948
2025-02-19 14:04:39.073,734,-92,650,26,-35,-23,-15,10,28,0,53,s,8.056044946652031,48.19103270916571,1479.3716723892935,-185.42533223408043,-10.070282088611634
2025-02-19 14:04:39.889,776,-40,612,3,-3,-3,-18,8,28,0,67,t,3.739503362931072,51.67918281685979,1560.5511354240612,-80.44078017649801,-6.74393670041934
2025-02-19 14:04:39.985,781,-34,604,4,-3,-1,-18,9,29,0,71,t,3.221858925465895,52.238930416161544,1571.5712781899872,-68.41667536294437,-7.40211527112956
2025-02-19 14:04:40.088,791,-29,606,0,-2,-2,-16,6,29,1,73,t,2.7397870688078454,52.51195359932194,1584.4803287178152,-58.090934934028624,-1.9002265524600261
2025-02-19 14:04:40.193,788,-21,610,4,-3,-3,-18,8,29,0,75,t,1.9716989716717572,52.239701657695,1578.5795210501356,-42.06874358128534,-1.9968373611455945
2025-02-19 14:04:40.308,791,-17,605,-3,-1,-6,-18,7,29,0,78,t,1.6095405300744126,52.578355132477014,1585.1851129294469,-34.06845375448874,-2.436148321511155
2025-02-19 14:04:40.413,786,-43,582,16,-11,-1,-17,6,29,66,80,t,4.225515853712409,53.406991100040635,1588.8902192109315,-86.92401962604333,-12.506498194353753
2025-02-19 14:04:40.522,791,-16,605,-2,-1,-4,-18,6,30,509,82,t,1.5149071722134173,52.57960069009883,1585.1983230578394,-32.06469427171356,-2.446252149169254
2025-02-19 14:04:40.628,785,-10,597,1,-3,-3,-17,5,28,422,85,t,0.9596385560808848,52.742791961896906,1580.9258478324386,-20.139182774935524,-8.309211663650672
2025-02-19 14:04:40.738,726,-46,593,1,-7,-7,-16,5,29,259,91,t,4.435646535894221,50.67366949066507,1499.5490552578767,-95.01275005766162,-38.8382779172465
2025-02-19 14:04:40.849,741,19,584,-4,-13,-20,-17,5,31,290,114,t,-1.8634177421462705,51.742766907473836,1526.2387694108043,39.13432742078986,-34.86564282848826
2025-02-19 14:04:40.952,685,-386,696,-40,29,2,-17,4,30,0,120,t,29.01264966709804,40.71829301991705,1337.3404227384485,-753.5962090175783,33.18403762633545
2025-02-19 14:04:41.056,798,13,580,58,-10,14,-16,7,29,0,124,t,-1.284000758541924,53.98286370611672,1606.8411605884519,26.17661038552616,-7.879540277320871
2025-02-19 14:04:41.169,1521,-124,672,-15,-2,-34,-16,4,30,0,119,t,10.45483507775349,65.80688851325492,2433.16939349368,-198.36489467009625,268.9902482394783
2025-02-19 14:04:41.275,750,-37,632,15,-9,16,-17,4,29,167,119,t,3.350517120706243,49.831969647942074,1514.1560593687996,-74.69836559552743,-11.92883936144176
2025-02-19 14:04:41.382,632,-108,647,-10,7,0,-16,6,29,0,73,t,9.476682052214446,43.93459600274896,1325.8367808065136,-226.56704482136624,-63.304425920592166
2025-02-19 14:04:41.484,855,7,585,0,-2,0,-16,5,30,0,88,t,-0.6855578057985653,55.617743783604915,1680.2884218968786,13.756747313775616,20.3289744916093
2025-02-19 14:04:41.591,782,-26,599,2,-2,1,-17,6,29,0,83,t,2.4854019563096075,52.522404966067974,1575.5913299572503,-52.3853894870697,-8.87878087518277
2025-02-19 14:04:41.701,800,-33,596,2,-3,-3,-17,6,30,0,86,t,3.169181336507043,53.27186728348295,1601.482108560394,-66.06113697811625,-1.104170877493516
2025-02-19 14:04:41.804,814,-6,585,3,-3,0,-16,6,30,0,94,t,0.5876284162399621,54.29478134056472,1626.0303729619,-11.985481864584031,1.4155182030569904
2025-02-19 14:04:41.914,818,-17,577,2,-1,-1,-18,6,30,0,99,t,1.6876023611590134,54.789952476470944,1635.043801235718,-33.98012789854182,0.6744825024336478
2025-02-19 14:04:42.021,795,-13,588,-2,0,-1,-18,5,30,0,96,t,1.266537089984432,53.50583876552266,1598.917472265302,-26.145820301193623,-6.595564392449887
2025-02-19 14:04:42.123,813,-4,584,-3,0,0,-15,6,29,0,95,t,0.39243070934087027,54.308648618244774,1625.1716013557666,-7.995924237912751,0.5950612647383196
2025-02-19 14:04:42.237,807,-15,581,0,-1,-2,-18,7,30,0,95,t,1.478908464040707,54.238931276979244,1618.461098163788,-30.082920040219108,-3.2117695578199346
2025-02-19 14:04:43.253,790,-16,590,0,-1,0,-16,5,31,0,83,u,1.5534031241682096,53.23622328637442,1591.1099229703273,-32.225011098133216,-8.297284243662261
2025-02-19 14:04:43.348,796,-15,592,0,-1,0,-17,5,28,1,84,u,1.4514406120476715,53.352327726082066,1598.3211155210802,-30.119116498512817,-4.7011311413058365
2025-02-19 14:04:43.455,800,-13,593,0,-1,0,-16,8,30,0,85,u,1.255861459775569,53.44572342590024,1603.2930214610856,-26.053511598742645,-2.4409521580298588
2025-02-19 14:04:43.564,801,-10,589,0,0,-1,-16,6,31,0,85,u,0.9726702087322052,53.667867857897896,1606.5961476271154,-20.057380120188704,-3.379689079114769
2025-02-19 14:04:43.671,916,76,559,-6,13,9,-16,5,28,0,83,u,-7.742295278975398,58.372067884928605,1767.4713859474127,146.64609752402117,39.37936163252846
2025-02-19 14:04:43.778,688,-78,647,3,3,8,-18,8,28,250,61,u,6.874198969575844,46.55275466531791,1414.0078608341405,-160.30903073410312,-35.742857499547654
2025-02-19 14:04:43.888,778,-33,610,-4,0,0,-15,8,29,128,63,u,3.0965892384309743,51.86070670346418,1564.5116753416733,-66.36103507233318,-6.6736786097952745
2025-02-19 14:04:43.993,780,-32,614,7,-7,-4,-16,6,28,0,73,u,2.9834000322281042,51.75313088016868,1565.3507595816761,-64.21951834181235,-4.21200818352429
2025-02-19 14:04:44.097,789,-60,595,2,3,1,-16,7,29,0,80,u,5.75826016436676,52.83992235811506,1585.950995145577,-120.60463841411232,-5.995997606613855
2025-02-19 14:04:44.204,785,-41,607,-2,-1,1,-17,6,27,3,87,u,3.864191401008724,52.22394620093279,1575.411101762928,-82.28261805385992,-4.184125821779844
2025-02-19 14:04:44.314,759,5,613,1,-6,-14,-17,7,29,0,95,u,-0.46732878409382633,51.07328196265973,1536.9502336192086,10.124836848611388,-15.304997639756152
2025-02-19 14:04:44.425,821,-109,459,-30,15,-13,-18,4,29,0,119,u,13.358741406804638,60.11737146947714,1688.0478452570364,-224.1135385298623,-25.74416683675952
2025-02-19 14:04:44.532,873,-1,504,35,-20,-15,-17,7,30,0,128,u,0.11368195302913568,60.00126962672792,1739.0364831551528,-1.9920234629497742,4.020174673313761
2025-02-19 14:04:44.637,749,58,735,-13,21,26,-18,4,30,0,122,u,-4.511949752497102,45.451604411231735,1461.6581631101687,113.18581236367126,35.66255021899349
2025-02-19 14:04:44.745,894,24,555,-44,66,21,-17,6,30,0,90,u,-2.4761126737087125,58.14377961887652,1743.3752186913684,46.80201929372801,27.70330383253986
2025-02-19 14:04:44.853,689,-94,634,10,-22,-20,-16,8,28,0,64,u,8.433519356368459,47.070015455245446,1421.1865574991657,-193.89192511599646,-39.73915450576351
2025-02-19 14:04:44.953,846,0,565,-5,1,2,-18,6,29,0,85,u,0.0,56.26307115989478,1677.596335555669,0.0,9.619468570977688
2025-02-19 14:04:45.064,800,-29,585,-4,1,1,-16,7,30,0,83,u,2.8379803919219766,53.79035310411445,1606.860860373382,-58.24870618853508,-5.017004148035426
2025-02-19 14:04:45.171,787,-47,594,-2,1,0,-17,7,30,1,79,u,4.524078851858655,52.869765157351154,1584.2655064114062,-94.61306073867357,-7.7480442291935105
2025-02-19 14:04:45.277,795,-34,610,5,-1,0,-17,9,30,0,79,u,3.190234292532353,52.45820674444458,1587.9090804745042,-67.91057702658256,1.6043533466068993
2025-02-19 14:04:45.387,810,-34,592,-3,0,-1,-16,6,30,1,79,u,3.287025092104689,53.793314005916336,1616.8913873325546,-67.86951502383563,2.271973702626724
2025-02-19 14:04:45.494,796,-34,600,-3,-1,-1,-16,8,30,0,77,u,3.243292282776195,52.947994968212406,1594.0889383048786,-68.08922600799733,-1.574576611717589
2025-02-19 14:04:45.600,795,-48,595,1,-2,-2,-16,7,29,0,79,u,4.612192431493878,53.09861228410746,1594.6701159477466,-96.2819692647696,-3.495244011206296
2025-02-19 14:04:46.613,795,-35,600,1,-2,-1,-15,7,27,0,79,v,3.3384705437643523,52.910721000097354,1592.696785180522,-70.11872639159529,-2.0353095702049586
2025-02-19 14:04:46.714,792,-26,601,3,-2,-1,-16,7,29,0,82,v,2.4771413878919546,52.781580100420506,1588.3355055679945,-52.14232720298971,-3.2899480383390483
2025-02-19 14:04:46.821,795,-31,595,-1,0,-2,-16,7,30,0,82,v,2.982461582784588,53.150540426476915,1595.2139760910363,-62.20331227524795,-3.902283992662319
2025-02-19 14:04:46.928,790,-15,596,1,-1,-1,-18,6,29,0,83,v,1.4417035250116128,52.959266648584965,1588.207459244014,-30.1558378337471,-6.191956594218141
2025-02-19 14:04:47.037,791,-20,600,0,-1,-2,-17,6,30,0,83,v,1.9091524329963763,52.80314531882157,1587.5631069994383,-40.140660101123586,-4.219803033707649
2025-02-19 14:04:47.137,800,6,599,9,3,-6,-15,6,30,0,88,v,-0.5738951257459131,53.174587498052546,1600.46560616436,12.0034920462327,-0.34862261556463636
2025-02-19 14:04:47.243,705,-145,617,14,-3,9,-16,7,27,0,69,v,13.224991201271719,48.043823771802934,1448.6564053788688,-297.9506081984907,-33.83120867909486
2025-02-19 14:04:47.357,767,6,630,0,2,5,-15,6,28,103,74,v,-0.5456575934157205,50.59965797039288,1539.729784432628,12.044822303253934,-4.706341841663061
2025-02-19 14:04:47.464,792,-4,614,5,-3,-5,-17,7,29,37,80,v,0.37325712687132734,52.21468870704209,1582.3121151220676,-7.99147532889933,1.3085370139529005
2025-02-19 14:04:47.569,782,-4,589,3,-1,-4,-17,8,29,0,88,v,0.3890994819025273,53.01241798283818,1580.765925479414,-8.08575920961337,-12.6280436155688
2025-02-19 14:04:47.681,829,30,586,-1,5,-13,-17,5,29,0,92,v,-2.9306725055668843,54.709083987865654,1645.2291965468066,59.5378478846854,9.027371319145232
2025-02-19 14:04:47.784,798,12,610,-4,-4,6,-16,4,29,7,94,v,-1.126984725477923,52.59995686026523,1592.4141632234528,23.94607764245794,2.7410531750547307
2025-02-19 14:04:47.894,792,65,586,4,-2,-5,-17,7,29,0,97,v,-6.329460189655355,53.33464714889402,1594.1368856338922,130.83194137146845,-7.500271441238397
2025-02-19 14:04:48.000,814,1,573,-8,2,-8,-17,5,29,0,119,v,-0.09999253288676586,54.8570490349858,1631.7184430871941,2.00456811190073,-2.6175281191182194
2025-02-19 14:04:48.111,813,289,542,28,-4,19,-15,4,28,0,128,v,-28.06699988554287,52.92833406574636,1610.882131352938,572.6259974920038,10.078579098041246
2025-02-19 14:04:48.217,826,72,565,-20,9,-11,-15,6,30,18,120,v,-7.262266429286068,55.41175589100775,1649.2528608216257,143.76053992634027,1.8790964113576365
2025-02-19 14:04:48.324,621,-111,648,6,-7,3,-16,7,28,0,78,v,9.720215948060854,43.367390334418474,1307.6738724523775,-233.7388081195071,-68.52925821117651
2025-02-19 14:04:49.336,795,-7,601,1,-1,-1,-16,7,29,0,93,w,0.6673083558350854,52.909767239622035,1592.6867463971462,-14.023656886515752,-2.031112685138055
2025-02-19 14:04:49.434,790,-1,598,3,2,-2,-17,6,30,0,95,w,0.09581225101349548,52.875623176602915,1587.3272182918158,-2.009274959863058,-5.546425998108816
2025-02-19 14:04:49.543,777,27,614,5,3,-6,-15,5,29,173,98,w,-2.5178991248311062,51.65662174685061,1561.3069150868077,54.25390824625972,-5.774061600128221
2025-02-19 14:04:49.653,877,25,637,-4,-2,-16,-17,6,26,369,113,w,-2.2475035081913814,53.986635682779735,1685.8798706720045,48.05814910695567,49.4783607547696
2025-02-19 14:04:49.762,781,152,604,-9,-19,43,-17,6,28,0,118,w,-14.125489158231442,51.42832371760394,1562.8287868823863,304.1613003919625,-0.6409568206929634
2025-02-19 14:04:49.869,782,-106,612,-20,-5,-36,-17,6,29,111,119,w,9.826292618650346,51.54126288866096,1565.056272263003,-212.14317757017687,-0.8266478580022749
2025-02-19 14:04:49.973,817,22,566,-3,-21,56,-18,7,29,0,123,w,-2.2259238951140325,55.266368711461546,1638.809745592952,44.12951579320067,-3.332088134162632
2025-02-19 14:04:50.087,843,-136,553,-12,-3,-52,-16,6,31,0,127,w,13.816626989977072,55.959511541851136,1671.6422080664197,-269.6836776951757,9.41857525417538
2025-02-19 14:04:50.188,713,-18,587,-29,41,24,-17,9,30,0,80,w,1.75639005177671,50.52277870848868,1484.8774038605002,-37.48638607221459,-48.472701354998094
2025-02-19 14:04:50.297,818,-35,574,14,-21,-10,-16,7,30,0,85,w,3.4893249057963907,54.89221527082634,1636.071584395589,-70.00306290201175,-0.05023159299275903
2025-02-19 14:04:51.314,819,-10,563,2,0,0,-17,5,29,0,104,x,1.0175800225818186,55.4902275154363,1643.0295692364307,-20.061411101787925,-3.457445030659983
2025-02-19 14:04:51.408,814,-12,571,2,-2,-1,-16,6,29,0,107,x,1.2039372319466657,54.94538338565427,1632.604916347154,-24.067885744675483,-3.230230017475037
2025-02-19 14:04:51.515,814,0,566,0,-2,0,-18,6,31,0,109,x,0.0,55.18788663221926,1635.0285315754995,0.0,-4.887160776084329
2025-02-19 14:04:51.621,811,-6,568,0,-2,0,-15,6,29,0,110,x,0.605214597244812,54.99225578584226,1630.0745110483917,-12.059737443021394,-5.65514460602526
2025-02-19 14:04:51.732,817,-3,569,2,-2,-1,-16,7,30,0,113,x,0.30208391184797984,55.144327671145405,1637.5942789333676,-6.013198086658632,-2.503237102920707
2025-02-19 14:04:51.839,865,30,555,13,2,9,-18,6,31,0,112,x,-3.094058058917111,57.27701794116482,1706.2940170580564,59.17782718120427,15.210197147720919
2025-02-19 14:04:51.949,722,-37,626,-11,12,3,-17,8,28,58,79,x,3.3825564901942475,49.02407940985163,1476.9852322024733,-75.6903789355838,-28.599384153390815
2025-02-19 14:04:52.052,783,-48,603,2,-8,-2,-17,7,27,0,84,x,4.551261273139618,52.312083901742895,1574.3524887900944,-96.51202996414375,-6.432376424555628
2025-02-19 14:04:52.153,924,45,523,7,-5,-2,-15,7,30,3,116,x,-4.917735331496359,60.398719238270104,1793.4838879539661,87.34499454321262,30.857063419995484
2025-02-19 14:04:52.268,832,2,550,-14,-1,-14,-17,7,30,0,127,x,-0.20834737080620067,56.5328218528238,1666.2018619973605,4.005292937493656,-1.455557810755181
2025-02-19 14:04:52.375,936,154,379,19,13,41,-17,5,30,0,130,x,-22.113503246753616,66.3915421134631,1852.3036208675862,304.7593564247952,7.975350097419664
2025-02-19 14:04:52.486,812,-289,717,11,4,-31,-17,6,30,0,120,x,21.952803218723787,46.4075778504174,1536.2630631085408,-546.7734300965126,77.47214747681846
2025-02-19 14:04:52.592,821,52,592,31,-25,51,-16,7,30,0,134,x,-5.019853642019552,54.1011672928189,1631.0535865021207,103.30668270171773,7.89315078044433
2025-02-19 14:04:52.699,680,-185,612,-31,59,11,-14,8,28,0,61,x,16.819414981106952,46.764740376591874,1408.547221505321,-383.20769996835935,-43.69249935478865
2025-02-19 14:04:53.514,786,-54,605,0,-1,-2,-16,7,28,0,70,y,5.100487484290937,52.30386542109507,1577.2647874258948,-108.3617029529241,-4.05241271331613
2025-02-19 14:04:53.612,782,-45,607,2,-3,-2,-16,8,29,0,72,y,4.239871695681375,52.10477390986468,1571.1352646120367,-90.41059706846758,-5.538498234662939
2025-02-19 14:04:53.719,791,-40,595,2,-2,-1,-16,6,27,0,74,y,3.846030090047376,52.98698448347963,1589.4987789648499,-80.3792050045436,-5.640674442586146
2025-02-19 14:04:53.823,787,-40,602,-10,10,-6,-16,8,31,0,73,y,3.8014407045032668,52.525619097184006,1580.6254610964588,-80.33674516373361,-5.068014714190781
2025-02-19 14:04:53.923,796,-48,595,2,-4,-5,-16,8,29,0,73,y,4.612192431493878,53.13318921547845,1596.0323243751172,-96.24315523870055,-3.0141118130587756
2025-02-19 14:04:54.038,816,29,583,7,-10,4,-17,6,29,0,81,y,-2.847700175657032,54.42218633788659,1629.3261124425544,57.90497213337509,1.9103878014594784
2025-02-19 14:04:54.145,811,-9,592,-2,0,-1,-16,7,30,0,85,y,0.8709836049853299,53.86878573873799,1618.6687747636074,-17.96303202573671,2.431671195985473
2025-02-19 14:04:54.254,790,-20,596,-3,2,-3,-16,8,30,0,86,y,1.921955958931432,52.952486188541265,1588.1361668777936,-40.20597890829856,-6.138171467297298
2025-02-19 14:04:54.354,791,-40,591,6,-6,-4,-16,8,29,0,92,y,3.8719818348567214,53.17175043120725,1591.4359262534435,-80.47716441231069,-7.050104191890227
2025-02-19 14:04:54.468,733,-11,626,4,-1,-12,-16,6,29,0,97,y,1.0066912438023023,49.497491864854396,1493.377535142628,-22.410849777038074,-23.381087311439273
2025-02-19 14:04:54.578,840,-112,436,-42,7,-26,-17,5,29,0,126,y,14.40668515643687,61.81316765011926,1721.412029863298,-229.52160398177304,-21.494815500473635
2025-02-19 14:04:54.684,909,94,492,37,-15,-2,-19,7,30,0,128,y,-10.816402335353073,61.14329245149592,1784.8294432015725,184.56982140918348,17.953700709380087
2025-02-19 14:04:54.786,844,-55,594,-54,4,15,-17,3,30,51,120,y,5.29008120537127,54.747254952120926,1660.6139031270397,-108.21536098576684,19.274101353718265
2025-02-19 14:04:54.894,836,-18,422,57,27,8,-16,9,30,0,135,y,2.442415310657095,63.19510097020937,1728.5472632659246,-37.217524807161055,-28.544192701220425
2025-02-19 14:04:55.009,560,-140,736,-26,24,15,-15,8,26,0,51,y,10.769988232617095,36.77690320079873,1158.7007628721765,-289.6751907180441,-50.86385977486054
2025-02-19 14:04:56.023,787,-41,605,2,-5,0,-16,7,27,0,76,z,3.876926695337786,52.385558203832346,1579.1358268943695,-82.26755896146017,-3.9481261386193864
2025-02-19 14:04:56.118,776,-42,600,4,-8,-4,-17,7,27,0,83,z,4.004172940709387,52.22116968157129,1566.3814157296783,-84.7783755936166,-11.119651337380105
2025-02-19 14:04:56.225,796,-8,577,3,-11,-8,-17,9,29,0,99,z,0.7943446593165262,54.05998976032281,1605.631973050889,-16.13700475428029,-9.881467902465943
2025-02-19 14:04:56.334,727,18,600,-20,20,-27,-16,7,28,0,96,z,-1.7183580016554572,50.45416679504222,1498.115511935459,37.09226852109802,-36.40895070326724
2025-02-19 14:04:56.443,904,-15,436,11,6,-23,-16,4,28,0,118,z,1.9704079204013778,64.23868334276693,1804.6124131991196,-29.943790042020787,1.6338361119290994
2025-02-19 14:04:56.549,748,34,629,-12,2,35,-16,6,32,0,10,z,-3.094058058917111,49.898038740077624,1512.899351833019,68.7681523560463,-14.210818586856703
2025-02-19 14:04:56.656,833,91,631,6,-42,10,-16,6,29,0,10,z,-8.206361110607352,52.571732433115955,1627.1148676367957,177.7520443636836,29.455604467205035
2025-02-19 14:04:56.753,1022,42,598,-25,76,-7,-17,7,29,0,10,z,-4.017521043659287,59.60545287220078,1884.561824824692,77.44774622567229,93.29161326304705
2025-02-19 14:04:56.868,908,0,571,-33,-28,2,-19,8,30,0,119,z,0.0,57.83607565821844,1754.528518064727,0.0,38.65662575445049
2025-02-19 14:04:56.975,853,42,616,3,-1,23,-18,6,29,0,10,z,-3.90049374238189,54.10171299525558,1663.059171096931,81.88568017124396,31.01002415508856
2025-02-19 14:04:57.085,673,-68,631,11,-5,-1,-16,9,27,0,9,z,6.150768421649026,46.67970044659583,1400.5297306282976,-141.50969046467196,-51.12668651776471
2025-02-19 14:04:57.191,824,-18,577,-13,6,-1,-16,6,29,0,9,z,1.7868105227868565,54.985553426182406,1643.0073965292977,-35.89093827369825,3.4960342264506608
2025-02-19 14:04:57.294,788,-32,593,4,-4,2,-16,7,28,0,9,z,3.088850535231102,52.9971161096096,1586.6052176498522,-64.43066873704983,-7.980830033454595
2025-02-19 14:04:57.403,786,-48,599,0,-3,2,-17,7,29,0,72,z,4.581524707472588,52.60102354234098,1580.4254706823444,-96.51453256075386,-6.420937581074327
2025-02-19 14:04:57.503,797,-59,588,2,-3,2,-16,7,29,0,74,z,5.72988789329934,53.444126462527656,1600.2764208711892,-118.4646283957342,-4.630533842232353
2025-02-19 14:04:57.618,811,-31,592,2,-2,0,-16,8,29,1,77,z,2.997547914283012,53.83457303212231,1618.3165444932044,-61.85920207064037,2.688786263900056
2025-02-19 14:04:58.338,806,-43,588,2,-1,-1,-17,9,30,0,76,0,4.182552145274352,53.81540124027739,1613.119039180953,-86.05970060146522,-0.8163710153851298
2025-02-19 14:04:58.433,782,-36,595,1,-1,-1,-17,7,29,0,74,0,3.4624144946895763,52.683140686324734,1577.295134010152,-72.61205220507092,-10.115862833811093
2025-02-19 14:04:58.539,802,-39,596,-1,0,-1,-18,9,29,0,75,0,3.7438829132140046,53.323784503332014,1604.0236600469623,-78.00115055091214,-0.017582778041855818
2025-02-19 14:04:58.646,797,-37,589,0,-1,0,-17,9,29,0,76,0,3.594502362818759,53.480864897745064,1600.6581625057493,-74.30909913765711,-4.920524110271344
2025-02-19 14:04:58.757,800,-29,585,2,-2,-2,-15,6,29,0,76,0,2.8379803919219766,53.79035310411445,1606.860860373382,-58.24870618853508,-5.017004148035426
2025-02-19 14:04:58.863,793,-21,593,1,-2,-4,-17,8,30,0,77,0,2.0281766760193833,53.193888837141614,1593.6674745892542,-42.20304787689072,-5.733685285533284
2025-02-19 14:04:58.966,799,-9,597,-2,-1,-7,-18,7,31,0,80,0,0.863690044599587,53.23038195757694,1600.0488997225862,-18.023078970592337,-1.5309050492917322
2025-02-19 14:04:59.073,832,-10,549,-20,3,-8,-16,6,29,0,79,0,1.0435235731956107,56.576576737102734,1666.6227497910609,-20.031523434988713,-1.7306365808802866
2025-02-19 14:04:59.181,746,-55,644,10,-6,2,-17,6,31,0,77,0,4.881428043134416,49.093907293668835,1501.7838412058522,-110.72132877523038,-8.446104204515791
2025-02-19 14:04:59.284,829,8,567,3,5,-1,-17,7,29,0,88,0,-0.8083524224313525,55.626909925044735,1654.3787535048577,15.965054316090304,2.4767753470996468
2025-02-19 14:04:59.399,797,10,585,-3,-1,-5,-16,5,30,0,89,0,-0.9793196543394875,53.71724492878724,1603.1064303337703,20.114258849859098,-6.684142716757378
2025-02-19 14:04:59.502,758,-7,618,1,-3,1,-17,6,29,0,89,0,0.6489535691950408,50.80772103546889,1533.029652350398,-14.157265918803148,-13.884333974334822
2025-02-19 14:04:59.608,809,0,570,1,-1,-3,-18,6,30,1,95,0,0.0,54.83248831032836,1626.4716202070456,0.0,-5.968879503109861
2025-02-19 14:04:59.717,811,19,589,-6,-4,-6,-16,5,30,0,94,0,-1.8476102659945959,53.99628333093542,1619.9788641530508,37.95264909853017,1.467877945564851
2025-02-19 14:04:59.823,786,27,580,-1,-1,-6,-17,4,30,0,94,0,-2.665293147417968,53.54625057678248,1590.3367543960308,54.62988850978732,-13.530938358394224
2025-02-19 14:04:59.932,793,21,593,0,-7,-6,-17,4,29,67,96,0,-2.0281766760193833,53.193888837141614,1593.6674745892542,42.20304787689072,-5.733685285533284
2025-02-19 14:05:00.043,821,115,509,-13,-6,-19,-17,3,30,193,130,0,-12.731265451369705,57.55986726895343,1664.9523994425986,233.21501332021782,-14.229928521659872
2025-02-19 14:05:00.149,984,74,525,-23,21,65,-17,3,29,0,119,0,-8.023121828546989,61.68374397786513,1864.3428092400936,140.2046421582997,55.30490360665749
2025-02-19 14:05:00.255,665,3,747,19,-21,-47,-18,6,30,0,130,0,-0.2301022950972138,41.67612825800789,1329.9192172223632,5.999635566416676,0.09074396224775683
2025-02-19 14:05:00.367,905,-25,478,-20,16,-13,-16,2,30,0,121,0,2.99391330496057,62.125695056902394,1788.9753905799305,-49.41920968452846,11.104710831815737
2025-02-19 14:05:00.468,595,-53,621,-8,11,27,-15,5,28,0,59,0,4.8781567537921005,43.67125857082774,1285.5196602988954,-114.50847394259068,-99.69362864809057
2025-02-19 14:05:01.383,794,55,584,0,-3,0,-16,5,32,119,101,1,-5.380137683209161,53.54408581399455,1598.3143046096993,110.7144669439968,-7.586339914438781
2025-02-19 14:05:01.484,798,69,584,4,-2,-1,-16,4,30,223,107,1,-6.738296858820336,53.61275984471872,1603.0259325540242,138.60750544640058,-5.141785227506261
2025-02-19 14:05:01.591,789,59,597,4,0,-2,-17,1,29,143,111,1,-5.6440696217638795,52.752816760274655,1585.0317588789792,118.52582227358653,-5.320608429341519
2025-02-19 14:05:01.697,824,44,540,2,-1,-6,-18,3,30,0,119,1,-4.658254109675612,56.67461287900302,1659.5640134416503,88.61749586338908,-7.578358323411408
2025-02-19 14:05:01.808,790,68,630,-6,-14,-3,-17,3,29,532,121,1,-6.160456533590615,51.26689085572943,1570.0689720955324,135.1451773449319,7.91968048077797
2025-02-19 14:05:01.914,906,389,465,-13,-7,72,-16,4,29,0,123,1,-39.9144752938751,56.21128637957075,1737.0940347561698,745.8383879913356,38.44511461189961
2025-02-19 14:05:02.017,574,-43,651,-27,46,-6,-16,5,29,0,93,1,3.7790244025820945,41.341424256638895,1234.5446516244165,-92.48331013911135,-98.15430001305788
2025-02-19 14:05:02.132,1135,116,557,-11,-33,21,-17,6,31,1,123,1,-11.764181118756026,63.37638913054772,2028.969645040379,207.3660606384881,118.28538124450114
2025-02-19 14:05:02.233,835,38,555,2,2,3,-17,6,32,0,10,1,-3.9168412782793514,56.327383816460355,1667.2192082032814,75.87344899607746,1.8483107151845388
2025-02-19 14:05:02.344,614,-110,668,-18,19,-6,-17,7,28,0,61,1,9.35101437425338,42.20637326434587,1285.8029881567418,-230.35558419746187,-62.88663858095015
2025-02-19 14:05:03.163,771,57,602,-2,2,-8,-17,3,30,628,86,2,-5.4088903238612405,51.893039598987116,1557.8600574550899,115.17253343053194,-12.383598687372341
2025-02-19 14:05:03.257,775,78,618,-1,-1,-4,-18,3,29,623,86,2,-7.193470055295538,51.209570787174066,1554.442623054151,156.44712851383716,-3.542633609632958
2025-02-19 14:05:03.367,750,111,609,19,-17,-14,-15,1,29,557,103,2,-10.329682089019451,50.464501764670594,1521.2303460042049,225.14209120862233,-17.23904095541434
2025-02-19 14:05:03.479,953,137,590,-36,-14,-17,-17,0,29,687,106,2,-13.072608771297261,57.56123143784424,1796.9651709092948,258.32552824194477,67.5031995419896
2025-02-19 14:05:03.580,731,13,664,-14,18,49,-17,4,28,457,9,2,-1.1216114256054808,47.74426304397259,1471.1508005137418,26.16273653444411,-8.312081451606787
2025-02-19 14:05:03.684,1024,30,575,3,-8,-4,-17,3,27,0,9,2,-2.9866369904751666,60.65150996853052,1895.6547905683055,55.53676144243083,85.54540568674241
2025-02-19 14:05:03.790,791,39,621,1,-6,20,-18,6,30,0,10,2,-3.593566187865195,51.81038810452551,1576.969001798685,77.75194825556095,3.9497470076064474
2025-02-19 14:05:03.900,573,-138,748,-2,20,11,-17,7,27,89,8,2,10.453071343795417,36.99178985989886,1174.7005773155965,-282.912180924175,-37.4660241397313
2025-02-19 14:05:04.721,756,2,628,5,0,-6,-17,6,26,132,59,3,-0.18247001849905528,50.283857327701845,1525.2195562904444,4.034972371138741,-10.981324537564888
2025-02-19 14:05:04.814,749,20,627,8,-3,-9,-16,4,27,649,64,3,-1.8269970964778313,50.052414396424126,1515.632147042182,40.47081834558563,-14.760155134109596
2025-02-19 14:05:04.924,749,72,652,7,-6,-10,-17,4,28,734,73,3,-6.301608735234843,48.788591515876796,1501.2837386270294,144.315659787912,-2.85847474609227
2025-02-19 14:05:05.036,648,45,622,26,-19,-24,-17,2,28,724,91,3,-4.137983523773956,46.098101559869285,1368.528136087174,95.03667611716487,-69.61805655281205
2025-02-19 14:05:05.142,787,-10,521,-6,7,-13,-18,1,27,265,105,3,1.0995920358215663,56.49027997575298,1620.7921759308351,-20.594563861891174,-30.976777204530094
2025-02-19 14:05:05.248,733,130,657,-6,-5,-1,-16,-1,29,620,102,3,-11.19248887376238,47.58222895861462,1471.2461613337941,260.93042424746693,-4.702221004505759
2025-02-19 14:05:05.355,780,114,597,-4,0,-2,-17,1,28,508,104,3,-10.810756318470178,52.07377710208026,1568.8028586640794,229.28657165090397,-6.7375725928918655
2025-02-19 14:05:05.466,834,196,631,-6,-6,-7,-16,-2,29,617,102,3,-17.255738364779308,51.61183805705647,1617.8217778488647,380.20751613714333,37.9645781503192
2025-02-19 14:05:05.567,737,89,619,-9,-3,-3,-16,-1,30,729,7,3,-8.181930272641544,49.68444622510232,1499.4927210783444,181.07849684663864,-21.41111851763287
2025-02-19 14:05:05.673,825,120,555,-4,7,16,-19,0,27,371,8,3,-12.200468727380784,55.46143337644111,1648.7447456655882,239.8174175513583,0.8444438249680388
2025-02-19 14:05:05.784,775,92,620,-12,-18,10,-16,1,29,576,8,3,-8.440365275506634,51.035469583064916,1552.5354002328668,184.30097654377258,-2.0283201862932856
2025-02-19 14:05:05.883,777,113,640,10,2,50,-17,3,30,0,8,3,-10.013086832314086,50.090176668327686,1544.0551643339109,224.55371115795612,8.191370432814892
2025-02-19 14:05:05.998,998,157,537,-85,90,43,-16,7,29,0,8,3,-16.297071938200467,60.724952456283305,1870.2823170162874,294.22276931017745,67.6456871365267
2025-02-19 14:05:06.105,466,-205,711,27,-24,-6,-17,7,26,0,37,3,16.083662781891427,32.20111478929042,998.8927401333206,-439.4270637925552,-102.06167003174039
2025-02-19 14:05:06.923,757,27,630,4,-10,-5,-16,4,26,570,65,4,-2.454031674527075,50.20582243252638,1525.3485679697637,54.40477058808932,-9.44464705541759
2025-02-19 14:05:07.018,737,38,625,3,-2,-12,-17,5,29,657,72,4,-3.479300372158054,49.64881942820219,1499.0902679173482,77.29366374607766,-21.277364244698333
2025-02-19 14:05:07.124,785,76,612,-1,-6,-5,-16,1,27,668,80,4,-7.0789216046122325,51.84660114743842,1571.359611609697,152.13163118769043,-1.0599774587701631
2025-02-19 14:05:07.234,719,65,592,8,-23,-18,-17,0,27,699,100,4,-6.265823077013668,50.364573747975605,1489.118973243099,134.62132581474467,-42.089613574289956
2025-02-19 14:05:07.341,694,-69,687,-22,15,4,-18,2,30,294,109,4,5.735364333324646,45.14665290818055,1402.914356552422,-139.48283948431865,-14.76392356125939
2025-02-19 14:05:07.452,1256,113,445,3,-29,-8,-18,1,28,50,106,4,-14.248112790974803,69.92042558887093,2195.21670496108,197.49959208646655,112.2361196594901
2025-02-19 14:05:07.558,793,99,632,13,-1,14,-16,3,31,438,111,4,-8.902782139724632,51.107149904103025,1571.3215055792316,196.16750195755856,11.698371341646407
2025-02-19 14:05:07.669,617,-106,604,34,-48,-27,-17,3,30,501,105,4,9.953855710689002,45.17554367493743,1326.2699034468228,-227.8518796845433,-90.32580499494486
2025-02-19 14:05:07.771,753,190,560,17,-18,79,-16,2,30,0,118,4,-18.74134044519272,51.856347798670335,1539.464689632854,388.44394559129125,-24.887418584858324
2025-02-19 14:05:07.879,737,19,570,-85,88,27,-17,6,29,76,63,4,-1.9091524329963763,52.26603248783417,1527.8608532421104,39.38854302795128,-41.65629083853844
2025-02-19 14:05:07.985,714,-25,675,7,-17,-9,-14,6,26,0,45,4,2.1210963966614536,46.58870950025096,1440.4392618771585,-50.435548385054545,-11.759806396472982
2025-02-19 14:05:08.803,762,51,633,6,-1,-5,-16,5,28,256,75,5,-4.606297850641857,50.19215790260054,1530.1959043141333,102.41468650921364,-5.1469913790633655
2025-02-19 14:05:08.898,769,69,612,5,-4,-3,-15,3,27,383,81,5,-6.432653924138303,51.309428959198776,1549.533290692505,139.03484662910643,-9.178639666856839
2025-02-19 14:05:09.005,753,79,640,6,0,-6,-17,3,27,409,86,5,-7.036852110714478,49.4237706709542,1512.5412328956454,158.68626480578484,-5.559613616484853
2025-02-19 14:05:09.115,1550,24,425,-7,-3,-35,-16,2,29,0,107,5,-3.2320936519666525,74.64343867668923,2514.296457960484,38.931041929710716,160.59613249470607
2025-02-19 14:05:09.214,659,44,691,7,-21,12,-17,0,28,443,108,5,-3.6434375095123737,43.58423939538996,1348.420316476728,90.03109852044922,-31.897479037054723
2025-02-19 14:05:09.323,642,159,652,-25,24,-16,-17,0,27,0,93,5,-13.70493799089256,43.730147923504035,1333.2627266528057,330.2005818345734,-50.03005884365939
2025-02-19 14:05:09.434,796,88,719,-17,-2,39,-16,0,29,0,101,5,-6.97785285527895,47.69759933920568,1535.6028954852627,169.76514422450143,50.94160571117595
2025-02-19 14:05:09.545,854,36,558,-6,-17,18,-18,1,28,103,103,5,-3.6913859864512752,56.78505760406188,1690.6214837976588,71.26741617882402,11.3550492282277
2025-02-19 14:05:09.649,732,98,568,21,0,29,-17,2,28,0,111,5,-9.789162812876448,51.782359151642325,1517.666453620871,203.18485308038981,-41.64282193532051
2025-02-19 14:05:09.758,773,104,564,-75,59,23,-17,6,27,0,63,5,-10.447817549473921,53.427333717086135,1576.1018208660776,212.0499215654231,-21.963036181717484
2025-02-19 14:05:09.864,628,-90,694,25,-41,-28,-17,3,27,2,53,5,7.389050330160907,41.904315011104956,1295.8886085363777,-185.71652033164654,-44.08072344625202
2025-02-19 14:05:10.683,784,52,611,-4,0,-4,-18,4,28,0,79,6,-4.864514437760526,51.96911593369703,1571.67877997396,104.24400071255855,-2.867008372562964
2025-02-19 14:05:10.778,792,50,603,1,-3,-4,-17,2,29,0,81,6,-4.740050237414964,52.62102131033969,1586.637407839613,100.1665030201776,-2.0080264233417893
2025-02-19 14:05:10.889,662,16,625,24,-41,-28,-17,1,28,0,110,6,-1.4664516602477826,46.637375576326285,1389.0227219924986,33.57154615087609,-61.38852151859726
2025-02-19 14:05:10.995,666,-65,626,-19,30,-35,-17,2,31,0,114,6,5.927999004507587,46.619959569445825,1392.813980824967,-135.93529842886312,-57.16148948412808
2025-02-19 14:05:11.097,799,321,601,5,-29,62,-16,3,28,0,9,6,-28.10711271568248,49.54387234932916,1559.903036006304,626.6944612741222,28.65616440577128
2025-02-19 14:05:11.203,720,-94,583,-2,25,-36,-18,3,29,0,104,6,9.15925715846196,50.6420895849881,1493.1996391586708,-194.94550844571535,-43.07693004097928
2025-02-19 14:05:11.314,609,-21,651,-50,53,49,-17,5,26,3,44,6,1.8476102659945959,43.075983393938124,1291.9676523808123,-44.550608702786626,-79.06886978638545
2025-02-19 14:05:11.422,707,-79,680,11,-26,-9,-16,5,25,0,39,6,6.626714468759111,45.92329103732339,1425.4091306529047,-159.2748533544264,-10.973421278606907
2025-02-19 14:05:12.338,750,80,623,9,-1,-5,-18,4,29,0,77,7,-7.317359277962055,50.05425551693646,1516.6527792086226,161.77629644891974,-13.832908595962408
2025-02-19 14:05:12.436,786,85,635,1,0,-4,-18,4,28,236,81,7,-7.624192504451834,50.816737094774346,1561.129082401137,168.82439186271841,8.782484319692117
2025-02-19 14:05:12.543,738,69,645,1,8,-9,-17,2,28,220,81,7,-6.106093847284264,48.68548388056718,1489.0968952795836,139.22450646922934,-11.446473516709148
2025-02-19 14:05:12.649,1085,0,693,9,8,-37,-18,2,29,0,104,7,0.0,57.433235188095644,1927.764776503707,0.0,154.71798145892262
2025-02-19 14:05:12.760,650,-2,770,-12,-18,5,-17,1,30,408,104,7,0.1488198718569876,40.16948477602111,1295.0508052097812,-3.984771708337789,5.862892289951333
2025-02-19 14:05:12.867,795,318,534,-8,-6,52,-16,1,27,0,108,7,-30.774036101248203,51.98245186819093,1582.8221563622333,633.1288625448932,4.821344028386875
2025-02-19 14:05:12.973,730,7,679,-25,35,-45,-16,2,28,0,98,7,-0.590657214646671,47.07144808420643,1462.203587661,14.021130292639725,-2.0496383860534024
2025-02-19 14:05:13.084,905,246,557,-40,-45,11,-17,1,27,0,106,7,-23.828732186852008,56.06642945641843,1734.685350571493,471.5277306525826,46.35387815655082
2025-02-19 14:05:13.186,862,156,666,20,4,37,-16,2,30,0,110,7,-13.182965158540851,51.56680413216508,1645.3334469550628,297.76336162991856,60.77949457996317
2025-02-19 14:05:13.293,580,-90,696,-8,1,-2,-16,4,27,0,53,7,7.3680510716221805,39.57210960649678,1217.0488444263628,-188.85240689374598,-68.45861331163565
2025-02-19 14:05:14.111,778,24,612,-1,-3,0,-18,4,29,0,78,8,-2.2457425658950716,51.788868984153495,1563.7367383690025,48.238665450971794,-6.085968999780675
2025-02-19 14:05:14.206,835,58,585,2,-6,3,-17,4,28,0,92,8,-5.662103152873799,54.8531615294712,1652.6793856281074,114.79689145680265,12.134801685697312
2025-02-19 14:05:14.314,796,20,582,6,-9,-1,-18,4,29,0,100,8,-1.9681526427620166,53.81126921859266,1603.076459791605,40.27830300983932,-8.09861758632428
2025-02-19 14:05:14.423,805,33,589,3,7,-17,-17,3,31,0,117,8,-3.2067674848344216,53.76512532687762,1611.6006740804573,66.06561769522372,-1.1711764389929158
2025-02-19 14:05:14.529,966,68,487,-13,-2,49,-18,4,29,0,112,8,-7.948839348118677,63.02246850422179,1857.1844877652952,130.73348361080753,37.71755119906959
2025-02-19 14:05:14.636,718,2,633,4,-8,-44,-17,5,28,0,120,8,-0.18102871676682517,48.59995464025672,1468.110546084918,4.089444418063838,-28.30915831720472
2025-02-19 14:05:14.747,1060,-56,421,-16,12,-37,-18,2,30,0,106,8,7.576813657166637,68.1656010843008,1988.2626998398105,-105.04029357644282,52.32207864852808
2025-02-19 14:05:14.853,663,47,761,-35,-13,-6,-18,0,30,0,106,8,-3.5341465387520006,41.00908696257334,1319.1787157282192,93.51643987816936,7.8295585683638365
2025-02-19 14:05:14.960,1135,123,505,45,27,39,-16,0,28,1,104,8,-13.688676507021386,65.39499907711743,2044.1997715263574,221.53001929316468,100.46618095082789
2025-02-19 14:05:15.067,438,-212,727,7,-6,16,-18,7,26,0,39,8,16.257178309650445,30.044478749011546,938.6721453274788,-454.33446303521794,-104.02431427643114
2025-02-19 14:05:15.787,785,42,593,-2,-1,-6,-15,3,30,0,76,9,-4.051283263283148,52.86312154610992,1582.1955085493664,84.6524985465903,-9.212658050667756
2025-02-19 14:05:15.877,794,35,601,0,-4,-4,-17,3,28,0,79,9,-3.3329282172896666,52.83025332557361,1590.8490474808357,70.12558773530131,-2.156520826173846
2025-02-19 14:05:15.988,826,88,558,5,-12,-8,-17,3,31,0,104,9,-8.962080732535625,55.63200953619426,1651.4290006290366,175.93916713723394,0.385735652539438
2025-02-19 14:05:16.094,773,82,601,0,3,-19,-17,2,30,0,116,9,-7.769420234300578,51.878947061086706,1559.7082432670977,165.454173283185,-10.658026136514536
2025-02-19 14:05:16.207,810,80,548,-28,32,-2,-17,1,29,1,109,9,-8.305676205556,55.639023156081215,1635.4980960463863,161.53067615272954,-10.485131646196919
2025-02-19 14:05:16.311,776,81,615,22,-25,-3,-18,1,28,0,112,9,-7.503087391049606,51.36220432082963,1557.1087545906544,162.53325917763271,-4.048819682026306
2025-02-19 14:05:16.422,1253,-96,770,40,-16,-26,-18,0,31,2,108,9,7.106699284464095,58.230779570516724,2103.1756535463414,-161.13716100594473,247.54568776481824
2025-02-19 14:05:16.528,828,215,646,33,-13,70,-17,4,29,0,118,9,-18.408336758178432,50.57061023199961,1600.407887966736,415.56485013629015,43.37258982305377
2025-02-19 14:05:16.635,846,158,490,-94,108,54,-16,5,28,0,60,9,-17.871863467726676,58.67688439212773,1700.249164008667,317.54062401107495,-4.777884591308407
2025-02-19 14:05:16.742,642,-110,724,29,-22,-7,-15,7,26,0,36,9,8.63908970953691,41.24038053286992,1301.219578389917,-222.95039505123185,-19.418963791744318
