Timestamp,Acc_X,Acc_Y,Acc_Z,Gyro_X,Gyro_Y,Gyro_Z,Mag_X,Mag_Y,Mag_Z,Force,IR_A,Letter,Roll,Pitch,Lin_Acc_X,Lin_Acc_Y,Lin_Acc_Z
2025-02-19 13:23:22.659,622,-144,760,5,-4,-5,-6,1,11,0,25,noise,10.72885929801005,38.803261174361104,1248.6481688870372,-289.07610340793144,-5.679434652971622
2025-02-19 13:23:22.752,684,-75,741,-16,-11,0,-5,0,9,0,28,noise,5.779485825155907,42.5638930865685,1360.4119583175602,-149.16797788569738,8.220378489309951
2025-02-19 13:23:22.859,648,-147,729,2,-1,-2,-7,2,9,0,28,noise,11.400590277339544,41.06727685690818,1304.944758514829,-296.02913503345655,-10.062853329182644
2025-02-19 13:23:22.966,662,-141,734,1,-1,0,-6,2,11,0,29,noise,10.873945715787091,41.53173744793279,1325.0348103101765,-282.2204052171221,-1.1473576550897633
2025-02-19 13:23:23.071,641,-138,735,-4,2,-3,-5,3,9,0,27,noise,10.633774492112083,40.60093255868855,1291.7865752461717,-278.10693819652374,-11.221736046702404
2025-02-19 13:23:23.179,658,-121,768,-5,-7,-5,-5,3,9,0,28,noise,8.95347055425506,40.24227713205837,1304.021098071229,-239.79719280641137,13.981453922942592
2025-02-19 13:23:23.285,654,-171,746,-15,-5,-6,-5,1,12,0,28,noise,12.910449122297138,40.51434080203139,1303.638353197735,-340.8595694140866,4.975211795856126
2025-02-19 13:23:23.393,747,-155,682,-21,-30,-21,-8,2,13,0,35,noise,12.804266065286752,46.88521521607191,1476.9859381904716,-306.4696391158275,15.533587890359058
2025-02-19 13:23:23.507,699,-135,707,-18,-9,-13,-7,4,13,235,41,noise,10.810363405284244,44.16113946811314,1395.678702055141,-269.5516806544264,2.3478650171892923
2025-02-19 13:23:23.611,686,-141,576,25,-13,-6,-6,0,15,41,49,noise,13.755039445994909,49.15850964346257,1442.5216870435625,-296.4949823223648,-59.21354480625632
2025-02-19 13:23:23.715,708,-149,711,13,21,-2,-8,3,13,0,40,noise,11.83585088452227,44.26330444474966,1405.9567708990894,-295.88638257622074,10.085785156422958
2025-02-19 13:23:23.821,661,-121,704,5,0,-2,-7,-1,12,0,35,noise,9.752424941653784,42.77969250749618,1340.1812038016924,-245.32817800303292,-19.363944744918854
2025-02-19 13:23:23.932,707,-106,715,6,-5,-1,-6,-2,11,0,39,noise,8.43277730160808,44.366298956126535,1406.2429708357517,-210.83699421299812,7.844803185908972
2025-02-19 13:23:24.035,695,-101,707,-1,0,0,-7,1,13,0,41,noise,8.13010235415598,44.22029573582397,1392.4190085009318,-202.35153936488362,-2.460775554185261
2025-02-19 13:23:24.142,678,-118,708,1,-2,-1,-6,-1,12,0,42,noise,9.462322208025617,43.36805982759723,1364.682366897045,-237.51109040391052,-9.066542423463147
2025-02-19 13:23:24.251,686,-99,710,0,-1,0,-7,0,10,0,43,noise,7.93794914840024,43.7394605812915,1377.3801669971592,-198.7764380943422,-5.568394413969486
2025-02-19 13:23:24.358,685,-106,706,2,0,-1,-7,0,13,0,44,noise,8.538702412711203,43.81596209187327,1377.3442229542288,-213.1364782965668,-7.569374314869492
2025-02-19 13:23:24.469,691,-114,705,-1,-2,-1,-7,0,11,0,44,noise,9.185342006164586,44.05582862989616,1386.3589605389832,-228.71913386605513,-4.447275224288205
2025-02-19 13:23:24.571,693,-97,711,-2,-2,0,-6,0,11,0,47,noise,7.768762063077179,44.00144730200681,1387.6765408940153,-194.23466734014357,-1.7200874107429627
2025-02-19 13:23:24.682,688,-113,715,0,-2,0,-5,-1,12,0,47,noise,8.980856402187266,43.54448535115975,1376.9175603160916,-226.15070394726501,-0.9535692238449656
2025-02-19 13:23:24.784,706,-105,706,1,-1,-3,-7,-1,12,1,48,noise,8.459319576232186,44.68662543541919,1409.2287615933592,-209.5878469791823,2.7712384066409186
2025-02-19 13:23:24.895,699,-170,731,-2,-4,0,-7,-1,11,0,48,noise,13.091893064346847,42.96489324985133,1380.5501108985202,-335.756107085477,18.248739532449008
2025-02-19 13:23:25.001,709,-116,711,0,-2,-2,-7,-1,13,0,49,noise,9.266194107641859,44.543031220278344,1410.444743676669,-230.76387907827024,7.576568753015977
2025-02-19 13:23:25.111,690,-102,708,0,-2,-1,-9,-1,12,0,50,noise,8.198068846016293,43.96821068546729,1384.259153549026,-204.62961400289947,-4.370261902478546
2025-02-19 13:23:25.214,698,-96,694,0,-1,-1,-8,-1,11,0,51,noise,7.875661727763646,44.89314748424698,1403.7868489212317,-193.07097062526967,-7.742225145178622
2025-02-19 13:23:25.321,697,-91,699,-1,0,0,-7,-2,14,0,51,noise,7.417390655363339,44.67718764448653,1400.1116417475905,-182.79793314064665,-6.12917873969252
2025-02-19 13:23:25.428,695,-99,704,-1,0,0,-9,-1,14,0,52,noise,8.004728857292857,44.35095996738519,1394.0515599718537,-198.57712868663816,-4.104026216093644
2025-02-19 13:23:25.538,691,-93,697,-1,-1,-1,-6,1,11,0,52,noise,7.600027804203174,44.499577690522486,1391.904007132256,-187.3329560973948,-9.99000429982982
2025-02-19 13:23:25.642,696,-95,696,0,-1,-1,-5,-2,13,0,53,noise,7.7725130440327,44.73559439084301,1399.836143627204,-191.06958856980515,-7.83614362720391
2025-02-19 13:23:25.751,697,-94,696,-3,-1,0,-8,0,12,0,52,noise,7.69168166790918,44.78221142773719,1401.4138761797644,-188.99986278464542,-7.403239341629842
2025-02-19 13:23:25.858,695,-96,698,-1,-1,-1,-7,1,12,1,52,noise,7.831090563050661,44.6081960227976,1397.25489941606,-193.00211560279394,-7.2862155286474035
2025-02-19 13:23:25.965,704,-94,700,-2,-1,0,-7,-1,12,1,51,noise,7.648250931085982,44.907238995740336,1409.961059752759,-188.26184604653315,-1.9499173678001398
2025-02-19 13:23:28.191,791,-120,605,-8,4,-6,-10,-5,19,823,101,A,11.218842281268827,52.05450588970068,1579.596080166296,-239.63530925405252,1.8386491774854221
2025-02-19 13:23:28.281,746,-123,608,1,-2,-6,-9,-7,17,833,99,A,11.436732917210515,50.25566624167835,1514.905065361048,-249.77657243888598,-18.66793530766381
2025-02-19 13:23:28.391,765,-139,608,0,-1,-2,-9,-9,17,836,102,A,12.877560320753732,50.8104434988596,1540.0596779858274,-279.8278369150719,-7.995142765206651
2025-02-19 13:23:28.500,768,-108,605,-1,-1,-2,-10,-5,20,839,107,A,10.121393864811399,51.332728808373425,1548.7874345202215,-217.79823297940612,-10.073434745747136
2025-02-19 13:23:28.607,771,-110,617,-4,-8,-12,-8,-8,19,841,115,A,10.108600810000498,50.893103658012166,1546.9704908618176,-220.70914915019443,-3.9776820515450027
2025-02-19 13:23:28.716,793,-82,598,-3,-2,-12,-10,-10,20,833,125,A,7.807917674058769,52.7232427791793,1588.7192424825628,-164.28118270311492,-2.05057629832595
2025-02-19 13:23:28.819,692,-389,621,22,4,7,-9,-8,21,782,126,A,32.063400034282736,43.36065053345403,1378.5883534887132,-774.9579039120076,4.856405322990213
2025-02-19 13:23:28.925,869,61,489,10,9,34,-9,-7,19,356,128,A,-7.110595060630179,60.44341982210253,1738.8689982589572,122.0609998777864,-0.4889990202877925
2025-02-19 13:23:29.040,353,-327,610,-24,-4,-45,-10,-6,19,766,96,A,28.194226892699383,27.02284314490804,807.3456973381883,-747.8811417268771,-175.12995857307328
2025-02-19 13:23:29.142,818,-371,572,37,4,-26,-9,-7,21,739,124,A,32.96749836336994,50.189713064764845,1586.168585346347,-719.399199466375,34.845439097664325
2025-02-19 13:23:29.249,803,-90,672,8,-4,42,-11,-6,20,529,133,A,7.6281496685807095,49.824468611538,1567.0716067388469,-175.6369173181771,32.57768402427757
2025-02-19 13:23:29.358,863,55,549,-33,-8,-18,-9,-7,18,271,126,A,-5.720926010158241,57.407699757777145,1705.524792717702,108.6950910770262,13.025363612956653
2025-02-19 13:23:29.466,685,-89,607,25,-20,18,-9,-8,20,767,129,A,8.34142746139944,48.15218877270794,1429.919543290672,-185.7851669384961,-53.096587996259814
2025-02-19 13:23:29.573,753,-122,505,-36,69,25,-9,-4,18,736,71,A,13.581524606233337,55.39650652764428,1576.1017440977405,-255.35778589631383,-47.01378588228272
2025-02-19 13:23:30.491,785,-86,609,3,-4,-5,-9,-8,19,732,95,B,8.037881128531485,51.92153694386438,1572.1669043351435,-172.23739334117494,-1.6810761020409473
2025-02-19 13:23:30.581,787,-77,617,5,-1,-7,-9,-7,19,760,103,B,7.113586909693121,51.68874809883932,1571.6546415074272,-153.77053036349665,1.8387372171761172
2025-02-19 13:23:30.691,763,-50,610,5,-2,-9,-8,-6,20,773,111,B,4.685899839502703,51.26491494932983,1543.047393919161,-101.11712935250073,-13.628978100508789
2025-02-19 13:23:30.801,789,-104,609,-1,-3,-11,-9,-6,18,750,121,B,9.691016228401365,51.93773625879171,1576.3412446319999,-207.78135543945245,1.2803320901293773
2025-02-19 13:23:30.911,746,177,530,-28,-36,70,-10,-7,18,195,126,B,-18.467374274759152,53.16577807493814,1546.3734401686788,366.90093687648283,-38.62992398042877
2025-02-19 13:23:31.019,921,-100,610,-33,59,-44,-9,-6,19,671,105,B,9.309940174986037,56.131895611516406,1751.3226439351417,-190.1544673110903,60.05774940234926
2025-02-19 13:23:31.124,903,-13,515,19,-11,-24,-9,-9,16,743,119,B,1.4459941559274563,60.29511964887004,1771.5893090116344,-25.504607992415558,19.625144915845112
2025-02-19 13:23:31.232,736,70,610,13,4,25,-8,-10,18,700,123,B,-6.546290783294036,50.163664496951526,1503.8774280945472,143.03182060681831,-26.420151002273997
2025-02-19 13:23:31.341,768,-96,613,-11,-23,14,-8,-8,18,723,121,B,8.900616875459072,51.06505702797372,1545.8600280444875,-193.23250350556097,-7.870048426134076
2025-02-19 13:23:31.444,878,62,441,-1,8,29,-10,-6,20,485,127,B,-8.002738176329405,63.10507970385278,1769.8376378564708,124.97714527004692,-6.950339743398217
2025-02-19 13:23:31.556,551,-165,581,-62,54,22,-9,-3,17,478,56,B,15.854181409733059,42.37385906295905,1224.9654005463447,-366.822669855076,-129.66043142908575
2025-02-19 13:23:31.661,786,-128,628,26,-36,-30,-7,-6,19,683,65,B,11.520319947711036,50.80587123972892,1561.0092502356174,-254.21015779918454,8.781413297750873
2025-02-19 13:23:32.481,781,-96,604,-2,0,-3,-10,-7,20,689,91,C,9.03107179644063,51.93639297522427,1568.3267903360183,-192.77768485564374,-4.892933883425258
2025-02-19 13:23:32.574,788,-100,598,-4,-4,-6,-10,-6,20,699,95,C,9.493393668923886,52.424569854591766,1580.5512159139012,-200.5775654713073,-3.4538415184176756
2025-02-19 13:23:32.681,798,-87,577,-4,-2,-1,-8,-6,17,720,104,C,8.574462069200976,53.82458406010779,1605.2136506769407,-175.00449575049353,-6.6620005521238
2025-02-19 13:23:32.791,791,-62,571,11,-12,-9,-10,-6,20,772,114,C,6.196980136121052,54.016073924665285,1600.1818615208367,-125.42512694600741,-13.124959454358645
2025-02-19 13:23:32.891,747,-174,614,-9,1,-31,-10,-8,20,753,121,C,15.822073277087801,49.49200083063395,1507.3152875507412,-351.10155292346576,-10.944560316137881
2025-02-19 13:23:33.005,939,128,485,0,-21,74,-8,-7,17,172,120,C,-14.78425998402442,61.88921756046736,1821.0382111094032,248.23524070500918,29.421158266176292
2025-02-19 13:23:33.111,810,-65,651,18,-11,1,-9,-5,21,797,118,C,5.701878950568647,51.07219138440576,1587.9382738092381,-127.4271454291364,25.768128086649313
2025-02-19 13:23:33.211,525,-268,691,-32,21,5,-8,-3,17,583,45,C,21.19846939361641,35.312137377444536,1103.0304997175845,-563.0708074748811,-69.7982386759063
2025-02-19 13:23:33.323,808,-95,620,8,-15,-13,-9,-4,16,621,59,C,8.711437551950366,52.17844747179664,1597.9244037801786,-187.87477519692692,13.869888188476807
2025-02-19 13:23:34.241,767,-111,609,-2,-1,-3,-9,-6,18,699,75,D,10.329682089019451,51.0935698001595,1545.17266848738,-223.61690508748262,-8.871127912404745
2025-02-19 13:23:34.341,783,-103,606,2,-1,-6,-7,-7,17,710,80,D,9.64620746972862,51.86645739693626,1569.573656519146,-206.47009785628615,-2.7658184554311447
2025-02-19 13:23:34.443,779,-80,611,0,0,-4,-8,-7,20,746,86,D,7.45946858997369,51.654824105933365,1563.287450651185,-160.54299878317693,-4.147153206513735
2025-02-19 13:23:34.553,730,-30,631,-1,3,-25,-8,-7,16,728,96,D,2.7219968775441843,49.128400333389465,1486.1779177839621,-61.0758048404368,-22.62776181052061
2025-02-19 13:23:34.664,808,-160,591,-4,1,-20,-9,-9,18,622,118,D,15.148422775155508,52.84637332554825,1605.0189997795924,-317.82554451081035,8.03189496319419
2025-02-19 13:23:34.761,826,215,511,12,-2,42,-10,-6,19,108,121,D,-22.818614600124953,56.13159973764563,1656.3197661297481,431.12439433159295,-2.672397690437265
2025-02-19 13:23:34.872,559,-196,566,6,-6,-72,-9,-9,16,641,101,D,19.100445371751608,43.02281277569609,1241.28950035807,-435.2285189090908,-124.83337603339487
2025-02-19 13:23:34.984,710,-91,697,4,-23,13,-8,-10,18,778,113,D,7.438436403364079,45.287290178273054,1420.6434235793733,-182.082466965807,-0.6316425842579747
2025-02-19 13:23:35.090,878,99,356,-12,18,33,-9,-6,19,112,125,D,-15.540711251110304,67.17605104792776,1799.701094171458,202.92757212183864,-17.719350256308644
2025-02-19 13:23:35.201,596,-140,605,-47,52,26,-9,-4,16,321,51,D,13.029194807943744,43.82377124303574,1288.4425628369997,-302.6542932838589,-97.89891026239047
2025-02-19 13:23:35.307,791,-132,646,22,-37,-24,-8,-4,19,501,53,D,11.548521491490023,50.18667112577727,1559.1345923321005,-260.18428089486383,18.67389804483321
2025-02-19 13:23:36.223,784,-105,612,0,-5,-4,-9,-7,18,634,77,E,9.735373895504946,51.62014615961638,1567.9118148809598,-209.9881894929857,0.06883838374062634
2025-02-19 13:23:36.319,782,-78,606,0,-1,-7,-9,-7,20,655,84,E,7.334378801416705,51.99846125374426,1569.9942190019028,-156.59788885185216,-4.645136464389907
2025-02-19 13:23:36.426,782,-96,610,-3,1,-9,-8,-7,19,640,89,E,8.943684482564427,51.70354203713728,1566.814683903522,-192.34553664288762,-2.1955974183483704
2025-02-19 13:23:36.536,958,-75,612,11,-2,-13,-9,-10,18,537,118,E,6.986704536666928,57.23425880890544,1798.8903562727016,-140.8317084764641,74.81325883205307
2025-02-19 13:23:36.643,805,-52,548,-4,-2,-18,-11,-8,19,494,119,E,5.420595283762367,55.63555225787492,1630.4639036719566,-105.32189191421335,-13.930707095940647
2025-02-19 13:23:36.741,841,247,508,-9,-15,29,-10,-5,19,0,125,E,-25.929969575873482,56.112349240362946,1671.1324793539775,490.80823115390297,6.564447667276681
2025-02-19 13:23:36.856,313,-367,536,-44,13,-56,-9,-7,17,589,90,E,34.3995007844862,25.726265059281438,747.0721033138927,-875.9599422242766,-207.33114177714515
2025-02-19 13:23:36.966,872,116,624,32,-39,12,-9,-10,20,748,115,E,-10.530927852674838,53.950772924520535,1680.511685708046,223.5543068143731,45.43200472268279
2025-02-19 13:23:37.068,869,12,669,6,54,29,-8,-8,17,771,107,E,-1.0276167864416665,52.4046554337839,1661.339216649801,22.94139309527919,59.0173349381854
2025-02-19 13:23:37.173,767,6,650,55,9,-10,-9,-9,18,434,114,E,-0.5288690977894533,49.71893300543285,1529.8820153904392,11.967786300316341,3.489817465729743
2025-02-19 13:23:37.282,777,-24,694,-11,-3,9,-8,-7,21,808,4,E,1.9806209368695626,48.21243229432264,1522.6206093268463,-47.03075241164004,28.027409430075636
2025-02-19 13:23:37.391,1995,13,455,49,18,-21,-8,-7,17,486,115,E,-1.6365770416167182,77.14722633925402,2969.94487809548,19.353024268291342,232.64415060980298
2025-02-19 13:23:37.502,778,29,604,8,-23,29,-8,-6,19,799,116,E,-2.748845319619648,52.1440788426859,1567.556433741227,58.43076681040563,-8.97183287879318
2025-02-19 13:23:37.609,595,-231,661,-23,41,10,-7,-5,18,709,52,E,19.263014445458627,40.35640320645497,1242.5402532159155,-482.39798066029664,-58.36824769028601
2025-02-19 13:23:37.715,875,8,594,3,-18,-17,-10,-6,17,777,71,E,-0.7716136787360163,55.826683408191826,1702.3422542936519,15.564272039256245,32.35280108522363
2025-02-19 13:23:38.534,787,-73,611,1,-2,-5,-11,-6,18,718,81,F,6.813189948362716,51.97859393413805,1574.7806835923175,-146.07241410703836,-0.6060961561702243
2025-02-19 13:23:38.629,784,-59,611,1,-2,-2,-9,-8,17,728,86,F,5.515552333123477,51.94041519193261,1571.370069786814,-118.25361494569137,-2.6264191833460018
2025-02-19 13:23:38.735,777,-61,622,2,-1,-7,-10,-7,18,747,93,F,5.601128320174815,51.18835901625738,1556.2106395610122,-122.17355085356724,-1.7696496871936915
2025-02-19 13:23:38.846,735,-40,597,-2,-1,-27,-9,-7,18,691,105,F,3.83318404298029,50.852135212087255,1510.5192709307796,-82.20513039079073,-32.91157108255152
2025-02-19 13:23:38.956,813,-234,694,13,-31,84,-9,-10,18,700,114,F,18.632860918382278,47.986015519321086,1555.9814851354326,-447.84706952237536,59.769802356715786
2025-02-19 13:23:39.059,788,40,502,19,27,-50,-10,-6,20,714,119,F,-4.5557753287536125,57.41837083837337,1630.625100647616,82.77284774860995,-34.799239245054764
2025-02-19 13:23:39.170,787,285,499,26,-8,-37,-9,-9,20,625,113,F,-29.732514411851934,53.863767784534396,1594.6171314099752,577.4661784648576,-13.072361592856055
2025-02-19 13:23:39.272,790,-44,657,14,-9,25,-9,-10,20,834,111,F,3.8314389451375974,50.18850633164436,1558.1551006222433,-86.78332205997305,18.16721378631155
2025-02-19 13:23:39.383,1043,161,461,-13,-6,-6,-9,-8,18,323,116,F,-19.25128422098601,64.91223953489083,1948.659395906489,300.79977252247807,60.7037569387428
2025-02-19 13:23:39.488,743,14,627,-6,-12,28,-9,-9,19,816,115,F,-1.2791190539541974,49.832739488569864,1507.1647261054413,28.398796992565515,-17.860408167041214
2025-02-19 13:23:39.593,576,-213,637,-15,26,6,-9,-6,15,643,51,F,18.488899635143643,40.61528247210471,1226.9767141367292,-453.7257640818113,-82.91695643245907
2025-02-19 13:23:40.411,778,-44,607,0,-4,-3,-9,-9,19,747,79,G,4.145984589013049,51.96560742643167,1565.6410524598048,-88.5452523242049,-7.5220036543720425
2025-02-19 13:23:40.509,783,-46,598,-5,-6,-4,-8,-8,18,772,84,G,4.398705354995532,52.548409937740296,1576.8674073775524,-92.63844283444112,-8.29975684773467
2025-02-19 13:23:40.619,728,-60,603,0,-14,-17,-9,-9,19,780,92,G,5.6823686178550545,50.2264436613176,1496.5788709188973,-123.34441243837063,-33.61134500562491
2025-02-19 13:23:40.725,804,-83,604,-7,0,-12,-8,-11,20,771,116,G,7.824421438917323,52.82682455819462,1600.8128900340234,-165.25804710550238,5.399271665982496
2025-02-19 13:23:40.832,937,197,468,-1,-6,54,-7,-8,18,289,117,G,-22.82818075612362,61.54615530341568,1816.2012084458372,381.8480662367448,28.868553305601154
2025-02-19 13:23:40.943,755,-101,610,1,3,-42,-10,-5,21,783,119,G,9.401385480655167,50.68434337954173,1528.6671034478636,-204.49718867315795,-15.08203060026085
2025-02-19 13:23:41.043,857,222,494,-17,-15,42,-10,-7,19,483,121,G,-24.198803185622207,57.708725857052805,1702.3432025758007,440.98038619816555,6.719320802280436
2025-02-19 13:23:41.160,588,-258,525,-13,-14,-48,-10,-6,20,545,119,G,26.17082038355439,45.14804305269753,1296.9314686230982,-569.0617668448288,-107.97452555633765
2025-02-19 13:23:41.267,770,-28,600,18,-29,13,-10,-8,22,780,119,G,2.671864593272588,52.04331826180957,1558.4759969238335,-56.671854433593936,-14.396880719869955
2025-02-19 13:23:41.369,655,-110,562,-52,65,31,-9,-8,18,635,63,G,11.074471691970139,48.836924617487114,1407.8392490921015,-236.431018931498,-83.94756945001677
2025-02-19 13:23:42.291,782,-62,591,-3,-1,-3,-10,-7,18,711,76,H,5.988818948900407,52.76873224658301,1578.1998544296912,-125.12581966066602,-10.731603539574621
2025-02-19 13:23:42.374,792,-66,582,0,-1,-4,-9,-7,19,720,81,H,6.469819985173174,53.5149085665215,1596.0116084166937,-133.00096736805781,-8.826712245600675
2025-02-19 13:23:42.488,790,-44,587,5,3,-5,-8,-6,18,744,85,H,4.286726775393691,53.309377009981674,1591.8734406569133,-88.6613055555749,-8.822417298237838
2025-02-19 13:23:42.598,798,-31,604,1,1,-4,-10,-7,18,768,87,H,2.9380993833963127,52.84193093537768,1594.9721701941637,-61.96007177445999,0.7779563943926178
2025-02-19 13:23:42.704,667,-104,617,7,-22,-49,-8,-10,19,762,111,H,9.567700559145951,46.829734822099574,1396.323789025536,-217.71765226185266,-57.65184082272219
2025-02-19 13:23:42.815,732,67,665,1,-26,68,-10,-6,18,616,116,H,-5.753242958052365,47.60175800073059,1470.4760298316778,134.59275136437486,-5.88327846730283
2025-02-19 13:23:42.921,969,-55,647,-35,69,-11,-9,-8,18,550,99,H,4.858902522974225,56.173691034410524,1799.7289429306816,-102.1517975863648,92.32339930221781
2025-02-19 13:23:43.028,868,303,604,47,-38,14,-8,-9,20,546,116,H,-26.6408893584845,52.09914631321686,1657.0749321156027,578.448968238511,54.92020852785265
2025-02-19 13:23:43.138,622,-57,516,-41,46,-29,-9,-6,20,832,84,H,6.303627756289511,50.15067394796146,1389.7321672239093,-127.35487706071196,-120.89678181276076
2025-02-19 13:23:43.245,836,-96,594,-3,-19,56,-9,-10,18,768,113,H,9.18054195762615,54.25570229028865,1647.6321246576822,-189.201775080308,17.314016690594258
2025-02-19 13:23:43.347,949,-6,596,19,1,-12,-8,-7,20,699,118,H,0.576783664930211,57.868659102882376,1795.8311186589797,-11.354042899846025,64.16507194862811
2025-02-19 13:23:43.458,518,-229,701,-17,4,-5,-10,-4,17,687,47,H,18.090981723140555,35.084755997128994,1092.7875563831385,-483.1049235747852,-76.84956954552138
2025-02-19 13:23:43.564,888,-30,569,2,-6,-6,-9,-4,18,712,66,H,3.018072605128878,57.31350622943158,1729.6381084274744,-58.433719879306565,29.707112955818843
2025-02-19 13:23:44.486,790,-66,583,-1,-1,-4,-10,-6,20,737,78,I,6.458816378718656,53.39915030334534,1592.8086330853935,-133.07008833371643,-9.452446947828435
2025-02-19 13:23:44.576,814,-41,584,6,-2,-3,-8,-7,20,784,83,I,4.015888471313693,54.27591067255615,1625.8381121781526,-81.89110884435414,1.5510349974924793
2025-02-19 13:23:44.682,797,-42,588,1,-1,-4,-9,-8,21,812,87,I,4.085616779974877,53.51165633880495,1600.9778556157344,-84.36771635616165,-5.148028986263284
2025-02-19 13:23:44.793,766,-42,624,6,12,-4,-9,-6,19,825,89,I,3.850638823910754,50.769579823397265,1540.6088147618798,-84.47202378589941,-7.012924819076943
2025-02-19 13:23:44.903,735,-61,562,-5,-8,-41,-9,-10,18,397,108,I,6.194686074407904,52.43551277206902,1527.667668146067,-126.78602415906136,-44.09418979331929
2025-02-19 13:23:45.010,823,67,570,-37,-72,26,-9,-9,20,779,108,I,-6.704004582663775,55.10976686406469,1643.2493941946134,133.77607461851653,1.9050368275459277
2025-02-19 13:23:45.117,851,73,652,-8,60,-4,-10,-8,20,775,107,I,-6.388412387203833,52.3697644645215,1642.9675535647648,140.93611211542634,45.22814932523306
2025-02-19 13:23:45.222,863,-29,652,-12,-21,15,-9,-11,18,774,109,I,2.546753348433103,52.90156919550218,1660.6004489621473,-55.80233258389603,49.40962604482036
2025-02-19 13:23:45.321,822,94,569,12,7,29,-9,-7,21,564,116,I,-9.380657811340928,54.94663894531919,1640.617502409462,187.6131937061915,2.3414125657129716
2025-02-19 13:23:45.435,707,-138,564,40,-54,-35,-9,-6,18,92,114,I,13.749048983419309,50.60477972241515,1479.7865212297393,-288.84093342249514,-52.480336596284474
2025-02-19 13:23:45.541,727,-8,628,17,-52,16,-7,-8,19,638,118,I,0.7298430640241027,49.17646141589388,1483.726549738925,-16.327114715146354,-25.67850513898884
2025-02-19 13:23:45.650,800,3,445,-36,71,25,-9,-4,20,672,75,I,-0.3862578305290592,60.91444716831261,1673.8948250415183,6.277105593905695,-41.10399642934465
2025-02-19 13:23:46.670,816,-9,587,0,1,-1,-9,-8,18,698,108,J,0.8784013878691815,54.26697424226452,1627.7470340591497,-17.953092287417086,3.0594252540188336
2025-02-19 13:23:46.764,781,-20,607,1,6,-3,-9,-7,19,693,109,J,1.8871518604851332,52.13027543454189,1570.4085666531514,-40.21532821134831,-6.5352112144211105
2025-02-19 13:23:46.871,801,-14,583,1,3,-4,-10,-10,17,639,109,J,1.375620547667743,53.94350842693183,1609.437066167181,-28.12998617520666,-5.412995724677444
2025-02-19 13:23:46.976,770,8,620,1,0,-3,-9,-8,19,652,109,J,-0.7392593554078476,51.15683326770635,1548.8656594768686,16.092110747811624,-7.1385829554005795
2025-02-19 13:23:47.086,823,-4,568,0,2,-14,-10,-8,18,276,113,J,0.40348473505875015,55.387529467565884,1646.0127567965965,-8.000062001441536,-0.008804204698208196
2025-02-19 13:23:47.191,724,108,678,-34,-60,2,-7,-12,18,787,108,J,-9.050721677183725,46.52092958381184,1449.625771756082,216.24251843875254,-1.5224768655019716
2025-02-19 13:23:47.303,738,-3,579,11,38,20,-8,-11,17,803,108,J,0.2968666673246941,51.88356806788894,1524.7580290695887,-6.198203370201581,-38.25325044890508
2025-02-19 13:23:47.409,1028,60,753,19,3,-27,-9,-9,18,709,108,J,-4.5557753287536125,53.691110628357336,1833.8364224126685,107.03325422642035,162.73265945842468
2025-02-19 13:23:47.521,791,169,607,-16,-26,64,-8,-7,19,470,118,J,-15.558183752621435,51.46020557449431,1573.1756044760634,336.1146361017126,6.771691634677154
2025-02-19 13:23:47.623,948,-41,473,10,25,-9,-9,-6,16,148,117,J,4.95405900798922,63.39755533876134,1842.1351313148657,-79.67040124884969,26.875614860831774
2025-02-19 13:23:47.730,519,-164,723,0,6,22,-9,-3,16,476,50,J,12.780287204042242,34.99425636942183,1092.494317355783,-345.2197842896886,-75.91404903320063
2025-02-19 13:23:47.840,833,-55,603,-8,-3,-9,-8,-6,16,450,60,J,5.211562812580846,53.98680404230719,1641.8815983876507,-108.40754851299013,17.459059030308254
2025-02-19 13:23:48.753,782,-30,617,0,0,-2,-10,-6,17,692,81,K,2.7836641073960013,51.69356956465043,1566.7068063835422,-60.103841677118,-2.135677159393481
2025-02-19 13:23:48.853,790,-18,617,1,-2,-2,-9,-9,18,701,86,K,1.6710398669461144,51.997889673867355,1577.9880769429924,-35.9541587151568,1.5713373749031234
2025-02-19 13:23:48.952,777,4,613,0,1,-5,-11,-6,18,684,90,K,-0.3738660119292811,51.7283757355734,1562.0832198522974,8.041612457412082,-6.377109098401775
2025-02-19 13:23:49.071,821,-101,644,15,-12,-18,-10,-7,19,632,109,K,8.913224360586112,51.55051386048161,1604.1566821903953,-197.34448830844082,29.68464880558531
2025-02-19 13:23:49.180,808,233,615,-29,-33,75,-8,-9,18,413,118,K,-20.749783547003027,50.85671534475508,1583.5697354719237,456.648203421978,24.68392659005815
2025-02-19 13:23:49.286,1054,-61,586,-8,33,-30,-8,-4,20,762,103,K,5.942832822944865,60.795623076326294,1926.884806279816,-111.51800112245616,100.69592364329009
2025-02-19 13:23:49.391,800,129,461,-1,-14,-9,-10,-9,18,797,110,K,-15.633026022863946,59.104294842261254,1658.1033979226722,267.36917291503084,-33.482083052939856
2025-02-19 13:23:49.499,739,-49,657,6,19,-7,-7,-10,19,741,113,K,4.265304479602483,48.28272781856586,1485.4376103915038,-98.49315684598604,-6.6123275063840765
2025-02-19 13:23:49.603,832,-2,596,-6,5,20,-9,-8,19,126,115,K,0.1922669947985757,54.384074424833656,1644.9389263935575,-3.954180111522975,13.654326766153531
2025-02-19 13:23:49.711,730,-21,569,2,-28,27,-8,-6,19,167,128,K,2.1136476474167463,52.046384473353406,1518.5089113259623,-43.683133065541384,-45.60489115681173
2025-02-19 13:23:49.818,1145,10,584,-20,82,35,-8,-6,19,620,92,K,-0.9809962441298757,62.97303343551538,2035.7927524577603,17.779849366443322,129.65679699970997
2025-02-19 13:23:49.925,622,-167,673,2,0,-4,-9,-3,16,436,43,K,13.936041087549231,41.892602585253975,1289.7364524045697,-346.2797227517092,-49.48654737664856
2025-02-19 13:23:50.841,780,-40,635,-7,1,0,-8,-4,16,765,74,L,3.6044205391757043,50.79531909325805,1554.8928510718474,-79.73809492676139,4.15774303766284
2025-02-19 13:23:50.941,671,-153,625,0,-11,-7,-9,-6,16,733,67,L,13.755489916385988,46.2004949627752,1392.7662073095016,-317.57560315701005,-47.28596060870109
2025-02-19 13:23:51.047,810,-4,573,-7,1,-5,-9,-7,18,740,82,L,0.3999640407340008,54.723470680979716,1626.3742355764543,-8.03147770655039,-4.50918146334368
2025-02-19 13:23:51.153,750,-52,630,5,-3,-8,-8,-7,19,757,87,L,4.718479498676494,49.87391733049837,1514.628098261745,-105.01421481281432,-12.287602539865588
2025-02-19 13:23:51.268,724,-106,614,11,-15,-24,-9,-7,19,755,107,L,9.794906110909421,49.28433761788716,1481.9560501650576,-216.97146590814376,-28.796981769813897
2025-02-19 13:23:51.371,783,-88,613,13,3,-24,-9,-8,17,669,107,L,8.169354994404378,51.65909715294262,1567.3337169417418,-176.14989411350354,-1.0441487679281636
2025-02-19 13:23:51.477,817,74,555,8,3,10,-10,-8,16,268,110,L,-7.594643368591445,55.576133115717674,1641.8780864659198,148.7135598512583,-5.351698884437496
2025-02-19 13:23:51.584,768,-16,629,-2,-5,11,-9,-4,20,771,110,L,1.4571300868711217,50.67308260864532,1541.5425638401389,-32.11547008000289,-4.53941752011383
2025-02-19 13:23:51.691,811,6,561,-51,65,35,-8,-6,16,775,70,L,-0.6127657222640064,55.32536151805363,1633.395947503393,12.084310339112648,-7.883016707032539
2025-02-19 13:23:51.801,692,-122,631,6,-21,-15,-9,-3,18,654,56,L,10.942768940393153,47.11601303921659,1424.7331182195242,-251.18127228725714,-37.142482075895714
2025-02-19 13:23:52.718,767,-77,624,-6,1,-6,-10,-5,18,589,74,M,7.0345910469601804,50.65750125672103,1540.370191065406,-154.63951070669657,-5.182528324398163
2025-02-19 13:23:52.812,772,-75,626,3,-2,-1,-9,-4,17,583,75,M,6.831945863875471,50.76218155872195,1546.5271449882039,-150.24551279030482,-2.0492134230771626
2025-02-19 13:23:52.921,755,-67,620,-1,-1,-2,-10,-7,18,598,76,M,6.1677063006708694,50.44421136472046,1526.0048712850992,-135.42029983589623,-13.143073108293265
2025-02-19 13:23:53.026,765,-63,624,-6,1,-4,-9,-5,17,544,76,M,5.765134557972361,50.653970086966325,1538.3311186277092,-126.68609212228193,-6.795579115935425
2025-02-19 13:23:53.131,753,-79,624,-3,8,4,-9,-5,17,639,68,M,7.215405987206311,50.12799154298207,1520.4784369967697,-159.51898608598248,-11.998067312064109
2025-02-19 13:23:53.242,760,-89,641,5,-7,-5,-9,-6,18,737,69,M,7.90472676148154,49.58520649477974,1521.3709405944223,-178.1605443590837,-1.1562801592431242
2025-02-19 13:23:53.350,745,-64,629,6,-5,-3,-8,-7,18,753,76,M,5.80978308792703,49.6802498160446,1507.4453322409886,-129.49865941399096,-14.72901205312985
2025-02-19 13:23:53.456,811,-24,617,2,-2,-3,-9,-6,17,736,86,M,2.227562087522824,52.715642740420215,1606.638896537795,-47.54541740679048,11.686560833761405
2025-02-19 13:23:53.563,772,-31,640,-5,2,-5,-9,-7,18,752,80,M,2.7730969366397518,50.30775129137314,1541.4859640649693,-61.89904777981094,2.0841748684191543
2025-02-19 13:23:53.668,778,-16,629,-2,4,-2,-8,-8,15,744,79,M,1.4571300868711217,51.035979574797544,1555.5409975214566,-31.990560360338435,0.3710958341952164
2025-02-19 13:23:53.771,743,-59,597,4,-2,-17,-8,-6,19,615,81,M,5.6440696217638795,51.08212090107427,1521.0471553043008,-120.78301771595389,-28.16036570210963
2025-02-19 13:23:53.885,765,-115,653,1,-7,20,-7,-7,18,656,105,M,9.98795681448323,49.08352031553922,1520.665118239942,-228.59671712103707,7.968206260546026
2025-02-19 13:23:53.991,955,75,612,-7,-11,19,-7,-6,17,252,111,M,-6.986704536666928,57.15242318690518,1795.1164944050604,140.9777351627011,73.62168107235914
2025-02-19 13:23:54.101,1584,-315,775,8,-1,-13,-10,-8,19,689,106,M,22.119362823582303,62.1597693442608,2468.2532803496047,-490.84582279679637,342.3634518491518
2025-02-19 13:23:54.210,824,78,612,-14,-31,61,-8,-10,15,526,111,M,-7.263244740584562,53.1768324101355,1624.4890898706562,153.77445268193105,17.461986649463938
2025-02-19 13:23:54.318,833,-111,562,22,-3,-39,-9,-7,17,807,111,M,11.172626863331402,55.483566838254305,1656.9637021804447,-220.79588348382873,6.096517856650962
2025-02-19 13:23:54.421,733,-202,562,-3,-10,67,-8,-7,18,710,110,M,19.76999015605825,50.829119669206,1508.2656074523413,-415.6475480291582,-32.405554417756775
2025-02-19 13:23:54.528,922,-48,560,22,4,-14,-9,-6,17,702,113,M,4.899092453787765,58.63341631680889,1775.854517803405,-92.4522959377044,41.38988072678205
2025-02-19 13:23:54.635,518,-246,704,-15,6,-11,-9,-5,17,679,49,M,19.261039372147586,34.78421709725932,1088.4873493020104,-516.9264245719974,-71.33415812474016
2025-02-19 13:23:55.553,767,-53,629,-2,1,-3,-9,-7,17,715,77,N,4.816407161480952,50.5461558118849,1539.1367390572461,-106.35495067801048,-4.212527857898067
2025-02-19 13:23:55.651,755,-49,631,0,1,-2,-10,-4,16,697,78,N,4.440364906194936,50.02764604258788,1521.354508253351,-98.73691510518435,-9.489661864720802
2025-02-19 13:23:55.758,763,-43,626,-3,-1,-1,-8,-4,18,656,79,N,3.9294801495205816,50.56684225419335,1535.366118059556,-86.52784151580721,-7.684390439425897
2025-02-19 13:23:55.865,769,-42,640,3,2,-16,-9,-8,17,594,85,N,3.7546517281194958,50.170547131821145,1536.9543740134932,-83.94289168864333,0.8702218873397669
2025-02-19 13:23:55.974,785,-35,554,-3,-1,-6,-9,-8,19,482,104,N,3.6149650778837774,54.73436119430497,1601.4839937426038,-71.40374494393775,-22.21927711261469
2025-02-19 13:23:56.081,773,204,554,0,-15,58,-10,-6,18,0,109,N,-20.21527338817352,52.62981561150775,1567.7305795564268,413.7348489385654,-15.574050548849186
2025-02-19 13:23:56.191,782,-55,622,-25,33,-37,-7,-8,17,576,95,N,5.053204276854555,51.39263758681011,1563.4402984674398,-109.96063480269717,0.4451845949520248
2025-02-19 13:23:56.291,958,-70,588,2,-12,13,-10,-8,19,657,104,N,6.788974574438791,58.2792605948259,1808.6208482411284,-132.15392419298433,65.90703677893168
2025-02-19 13:23:56.402,739,169,598,20,-4,19,-8,-4,20,277,118,N,-15.78075330951539,49.93967248985941,1504.3672187466825,344.02985110715747,-21.33639622532621
2025-02-19 13:23:56.511,706,-266,674,14,4,-23,-6,-9,19,804,110,N,21.537104843649857,44.25546763205848,1403.8588120563638,-528.9326402365336,7.772182257805753
2025-02-19 13:23:56.618,667,-78,616,-24,24,14,-9,-5,19,765,77,N,7.216579642130546,47.04915086788505,1398.938480971888,-163.59400527107536,-59.97316983310816
2025-02-19 13:23:56.724,867,-3,565,2,-10,-4,-8,-5,19,712,94,N,0.3042225189567834,56.90845180745127,1704.799264026133,-5.898959391093886,19.02931467731821
2025-02-19 13:23:57.841,794,-36,602,0,-3,-2,-9,-5,19,715,93,O,3.4222501097837537,52.78184451132234,1590.3382968697867,-72.10601849787446,-1.772864881122814
2025-02-19 13:23:57.937,782,-43,596,3,-4,-2,-9,-7,21,764,99,O,4.126605765122372,52.61549261606012,1576.5788241938653,-86.69167447613327,-9.586929948265947
2025-02-19 13:23:58.047,792,-42,594,3,-3,-2,-8,-7,18,776,103,O,4.0444855741811025,53.06150183585153,1591.2810438082927,-84.38611595953067,-5.460782856219453
2025-02-19 13:23:58.153,791,-17,598,2,-4,-3,-8,-7,19,788,107,O,1.6283712203838916,52.899401512739566,1588.57762792851,-34.141364949158884,-4.972719976294684
2025-02-19 13:23:58.259,766,-25,613,-2,7,-17,-7,-9,19,713,108,O,2.335401522383966,51.30784334902531,1546.5159909089498,-50.47375949441742,-11.616582803115193
2025-02-19 13:23:58.367,849,10,588,22,14,19,-8,-9,16,399,106,O,-0.9743240911534933,55.29044210213307,1671.04906421073,19.682556704484455,18.6656657763142
2025-02-19 13:23:58.477,834,142,595,-2,-35,30,-10,-5,18,459,110,O,-13.4228703716249,53.741252870404935,1640.3543218660839,279.2929420923069,19.72323559913673
2025-02-19 13:23:58.583,779,-84,611,-9,-4,-37,-7,-8,19,787,111,O,7.827926084802492,51.63076134448772,1563.02683037011,-168.54204589356772,-3.942738582974812
2025-02-19 13:23:58.684,891,0,586,-18,9,2,-8,-10,17,720,103,O,0.0,56.66756078360067,1726.496386555086,0.0,36.50406002100965
2025-02-19 13:23:58.792,633,-88,654,-3,6,17,-7,-5,18,620,56,O,7.663494662723989,43.80834265982042,1325.248259789384,-184.23672489963002,-61.2138418677049
2025-02-19 13:23:58.903,784,-68,627,1,-2,1,-8,-5,15,698,57,O,6.189704140164212,51.18560204444846,1563.1804799707577,-135.58198040562692,3.854386553998779
2025-02-19 13:23:59.821,763,-42,623,0,-3,-1,-8,-6,17,691,78,P,3.8568009855898424,50.70423344216991,1536.8870065462393,-84.59928476401316,-8.889390666195482
2025-02-19 13:23:59.918,770,-27,624,1,-2,-2,-10,-9,16,711,83,P,2.477598868445697,50.95283702520247,1546.6276736548562,-54.23239894633912,-5.370997870948486
2025-02-19 13:24:00.026,730,-38,634,2,-8,-14,-8,-8,18,709,91,P,3.4300284400617875,48.97504322815955,1484.4237438627283,-77.27137296819683,-21.211854258862786
2025-02-19 13:24:00.133,770,-16,604,-1,2,-1,-10,-8,20,624,103,P,1.517414125012136,51.87905072899411,1556.7093602204995,-32.34720748510129,-13.107082562573737
2025-02-19 13:24:00.243,752,-133,684,1,-11,48,-7,-9,17,612,105,P,11.003540851749504,47.18150810211111,1485.5105403464277,-262.7299226942485,16.817540429579253
2025-02-19 13:24:00.345,796,8,610,7,-5,17,-9,-4,20,124,112,P,-0.7513769830242889,52.533532598612844,1589.7094846153113,15.976979744877502,1.755294453090528
2025-02-19 13:24:00.456,823,-6,584,-34,48,-18,-10,-3,18,555,85,P,0.5886345585415671,54.63909821318163,1638.5229030691703,-11.94548896526734,5.305740713978821
2025-02-19 13:24:00.562,1134,65,655,1,0,-24,-8,-8,16,644,105,P,-5.667285678239132,59.8674693700936,1998.8665400944642,114.57347892957686,155.45186617118696
2025-02-19 13:24:00.673,736,-12,665,11,-16,-3,-8,-9,19,789,101,P,1.0337966026018792,47.896518914502415,1477.935106896036,-24.096768047217985,-5.362562616663126
2025-02-19 13:24:00.775,772,81,608,-13,6,33,-9,-8,18,682,108,P,-7.588470584785003,51.53204726442374,1554.9562257009347,163.14955217846594,-8.628737339596114
2025-02-19 13:24:00.885,951,62,638,12,26,13,-10,-8,15,437,99,P,-5.550499789582952,56.018726582937894,1780.2202951758245,116.06062912818201,81.69868735838509
2025-02-19 13:24:00.991,557,-145,683,-15,0,5,-7,-5,18,501,50,P,11.985862558657338,38.58078281738968,1180.6174372259643,-307.34206175541254,-81.68709088928824
2025-02-19 13:24:01.099,811,-20,632,1,-8,-7,-7,-5,16,496,62,P,1.8125526855155918,52.0573505041247,1599.6266082542452,-39.448251744864244,17.435244862290006
2025-02-19 13:24:02.011,748,-58,641,-2,0,-1,-9,-6,17,497,66,Q,5.1702500740963515,49.28955960907841,1506.0154987644603,-116.77660284537262,-8.582800411790345
2025-02-19 13:24:02.101,760,-57,635,-3,0,0,-7,-8,16,565,66,Q,5.129338586956995,50.00719353354236,1526.12513960884,-114.459385470663,-5.117715331070258
2025-02-19 13:24:02.221,768,-60,641,-3,-4,-2,-9,-8,16,605,67,Q,5.347518096337944,50.02744003560534,1534.3521984347294,-119.87126550271324,1.3753135460134445
2025-02-19 13:24:02.321,760,-82,619,15,-16,-3,-9,-5,18,704,75,Q,7.546133883293198,50.59384767090712,1532.6654126961082,-165.36653136984324,-10.315645340645915
2025-02-19 13:24:02.435,830,66,582,1,-5,-13,-9,-8,17,796,106,Q,-6.469819985173174,54.789412684506615,1647.038369195908,130.96931610473484,9.088757985520033
2025-02-19 13:24:02.541,785,-11,585,-1,-2,-14,-9,-6,18,775,106,Q,1.0772295916494898,53.30082380614588,1586.7842368927195,-22.235193128433007,-12.507998193937397
2025-02-19 13:24:02.647,807,32,597,-2,2,2,-11,-7,19,794,103,Q,-3.0681943945730445,53.46751264899953,1610.51946020858,63.861986030575665,2.574823117072583
2025-02-19 13:24:02.751,635,-115,666,2,-8,-4,-8,-9,17,806,77,Q,9.796810917951905,43.21482666581856,1319.735721233019,-239.00725660125542,-52.16376431683557
2025-02-19 13:24:02.864,823,-20,592,1,3,-10,-8,-7,17,820,103,Q,1.9349323095527695,54.25630453877837,1634.6382649400362,-39.72389465224876,8.172718293436787
2025-02-19 13:24:02.974,784,-72,573,5,25,-12,-10,-9,19,623,104,Q,7.161933727499795,53.62409744677019,1589.1433061499936,-145.9417321974484,-15.452952071360187
2025-02-19 13:24:03.081,887,209,542,-5,-33,61,-9,-6,15,594,105,Q,-21.087080961959273,56.77903615815315,1723.5639106050949,406.115960897931,30.818895661824797
2025-02-19 13:24:03.187,703,-135,589,-15,0,-86,-7,-6,19,814,109,Q,12.90933412677182,49.31884980470629,1461.3488297727438,-280.6288648923477,-46.37334386365035
2025-02-19 13:24:03.294,735,129,539,-45,27,68,-7,-6,17,701,75,Q,-13.45954393789149,52.98211736140764,1533.4476381095328,269.13570791310156,-46.52826794699058
2025-02-19 13:24:03.401,1150,-12,556,23,10,-19,-10,-5,18,713,107,Q,1.2364076028561433,64.19201404772502,2050.258099641115,-21.39399756147251,120.7447796517738
2025-02-19 13:24:03.511,791,1,589,-49,-65,52,-7,-7,19,513,109,Q,-0.09727627243034083,53.32759360126527,1593.0633670410298,2.013986557573995,-8.238082411082814
2025-02-19 13:24:03.613,1125,89,598,-6,81,20,-8,-5,19,749,92,Q,-8.465161572765103,61.74595606811923,2005.8573291442171,158.68560203896476,129.7753930415626
2025-02-19 13:24:03.724,600,-187,674,9,-11,-7,-9,-3,16,480,44,Q,15.506571920386788,40.62312366485726,1251.0805940757136,-389.92011848693073,-57.38053401171817
2025-02-19 13:24:04.842,751,-98,645,-2,-2,-8,-9,-4,17,599,51,R,8.639329561259585,49.01877180377702,1505.9244841901236,-196.51211644558202,-3.370562320412432
2025-02-19 13:24:04.936,748,-99,640,3,-8,-10,-9,-5,15,674,55,R,8.79324730203697,49.114276416763325,1504.016587783479,-199.06101897134278,-6.859112542013918
2025-02-19 13:24:05.043,786,-61,633,-2,3,-3,-8,-4,17,722,61,R,5.504397355979246,51.02456881260221,1563.4157467830537,-121.33379205313776,6.913272628914683
2025-02-19 13:24:05.149,760,-49,642,6,-4,-7,-9,-6,17,739,65,R,4.364580415901888,49.72893872140167,1522.9949103779215,-98.19309290594495,-2.5299111350336716
2025-02-19 13:24:05.251,752,-30,617,11,-5,-19,-10,-7,16,674,76,R,2.7836641073960013,50.59867425267696,1524.7188864795985,-60.82655132232441,-16.999405529138812
2025-02-19 13:24:05.365,767,-10,543,-6,-6,-19,-9,-9,18,569,102,R,1.0550516282861868,54.69871619380333,1583.1246420245852,-20.640477731741655,-34.77794083357196
2025-02-19 13:24:05.471,789,86,561,-8,-19,61,-9,-8,18,259,108,R,-8.715461244990824,54.27129979612616,1600.7911216124376,174.48420336967,-16.20509407424254
2025-02-19 13:24:05.582,882,43,606,-8,-10,-8,-8,-5,18,494,108,R,-4.058739437270348,55.44083850774862,1705.5408993630492,83.14995314355002,40.16577662810903
2025-02-19 13:24:05.691,610,-118,653,11,-20,-51,-10,-8,18,559,82,R,10.243063740844685,42.5911407034791,1286.7621433938016,-248.9146441319157,-71.46832727238098
2025-02-19 13:24:05.791,787,40,642,2,-27,-2,-9,-8,18,734,100,R,-3.565221927597299,50.739570253598856,1561.27745774107,79.35336506943176,10.378490635620096
2025-02-19 13:24:05.903,763,85,605,-12,6,31,-7,-6,17,716,106,R,-7.997473471803832,51.315387870486205,1543.5982999883624,171.96049213500763,-13.954091078583701
2025-02-19 13:24:06.001,774,-28,594,15,7,-9,-7,-9,17,332,106,R,2.698813421463053,52.465142915889125,1566.9828407684954,-56.68671775389905,-14.568226636287022
2025-02-19 13:24:06.121,758,39,643,-1,-27,30,-8,-7,19,531,112,R,-3.470919580533853,49.64065729341079,1519.9980240043585,78.20570308201843,-3.391463634303932
2025-02-19 13:24:06.227,794,-96,532,13,6,-23,-9,-5,21,524,113,R,10.229008287359525,55.75113842184737,1620.6009314530486,-195.94167433185473,-21.843445255694974
2025-02-19 13:24:06.333,591,-170,670,-20,17,14,-6,-5,17,382,53,R,14.237280465761083,40.53033131764707,1240.8505020529944,-356.9282324010305,-66.71715122759122
2025-02-19 13:24:06.439,877,-33,592,1,-4,-5,-8,-4,17,412,65,R,3.190550632324605,55.938300170122794,1705.4349166132347,-64.1725795304866,32.782815695513136
2025-02-19 13:24:07.353,763,-89,632,-2,-1,-4,-8,-5,18,516,58,S,8.015841035293718,50.08812123270897,1530.0321476816612,-178.47032915290674,-3.339865445360374
2025-02-19 13:24:07.451,764,-73,622,0,-1,-5,-8,-6,17,610,62,S,6.693802541520736,50.657705406678986,1537.3724498974336,-146.89553513417883,-7.63045004738683
2025-02-19 13:24:07.558,768,-79,625,1,-1,-3,-9,-6,18,682,65,S,7.203982720755945,50.63874629362952,1541.1626335348706,-158.53105214746716,-4.201361926164395
2025-02-19 13:24:07.664,771,-73,627,3,-1,-4,-9,-6,17,717,71,S,6.6409016134702865,50.69203036023181,1544.7521012072177,-146.26057508187665,-2.2380900868034814
2025-02-19 13:24:07.771,771,-53,624,-2,-2,-4,-9,-6,16,731,74,S,4.854816438612605,50.91468040194044,1547.2079741976945,-106.35800600840184,-4.215014136655441
2025-02-19 13:24:07.882,786,-54,600,-2,-6,-6,-10,-5,16,758,80,S,5.142764557884242,52.53185105957296,1579.6916317338955,-108.52843271454245,-5.871474606027164
2025-02-19 13:24:07.992,1309,-6,637,4,-15,-20,-9,-6,18,789,110,S,0.5396617127273243,64.05000873169227,2208.176321694874,-10.121511023811493,199.4329129720133
2025-02-19 13:24:08.098,789,-24,556,11,17,-14,-8,-8,18,595,108,S,2.471664761633412,54.802935142089645,1606.1744266761903,-48.8570167810248,-19.854222093740987
2025-02-19 13:24:08.201,750,83,645,6,-16,36,-7,-7,17,733,109,S,-7.332648438421547,49.071729823978984,1505.5303230467075,166.61202241716896,-4.756077820168457
2025-02-19 13:24:08.315,755,-49,579,-6,25,11,-10,-6,18,391,114,S,4.837339236993724,52.41708506208758,1547.4715476724114,-100.43192825953399,-28.736458413677042
2025-02-19 13:24:08.415,673,-87,634,-20,48,26,-7,-4,15,351,59,S,7.813554306882971,46.44234763198526,1397.681365264369,-180.68094915007447,-48.68645702468052
2025-02-19 13:24:08.529,730,-101,682,5,-14,-10,-9,-5,16,368,45,S,8.423924288806683,46.63683704074525,1457.0162683306453,-201.58718233067833,2.787541093835557
2025-02-19 13:24:09.848,769,-109,609,5,-1,-5,-9,-7,16,442,69,T,10.14746363331657,51.18254800367937,1548.1470685210984,-219.43827109076688,-8.03584490162416
2025-02-19 13:24:09.941,794,-71,611,2,-3,-2,-9,-5,18,563,79,T,6.628211191719104,52.2350753176357,1584.5300735960077,-141.6897169084591,2.6701826610069475
2025-02-19 13:24:10.045,787,-85,625,7,1,-4,-8,-8,18,556,87,T,7.744710546422914,51.28902146865394,1567.3105893171837,-169.2775096467098,5.312429068310166
2025-02-19 13:24:10.151,748,-69,621,-3,2,-3,-10,-7,17,470,87,T,6.34019174590991,50.12721764231486,1515.4697778564196,-139.79600891991035,-16.164080279193172
2025-02-19 13:24:10.265,734,-53,598,11,-11,-13,-8,-9,17,266,106,T,5.064820217226936,50.720010935979055,1508.0613750509992,-108.89271509223835,-32.638558965255356
2025-02-19 13:24:10.371,1105,79,554,56,-33,-30,-10,-7,17,131,104,T,-8.115622753879673,63.141012078523914,1997.1211519814638,142.78060724573362,106.72839982105802
2025-02-19 13:24:10.479,798,14,645,-12,-6,3,-9,-8,21,797,113,T,-1.24343407611037,51.04581020644858,1575.6488791575562,27.64296279223783,16.449214214757035
2025-02-19 13:24:10.581,671,-22,540,-18,33,5,-7,-7,19,552,85,T,2.332982301969856,51.15075910990986,1449.7991640628347,-47.53439882173229,-86.75342562433798
2025-02-19 13:24:10.692,814,-22,627,3,-4,-2,-9,-8,18,608,107,T,2.009553813021139,52.37696702069848,1606.0443001782405,-43.40660270752002,16.91182283567946
2025-02-19 13:24:10.798,856,122,484,-6,-8,25,-9,-4,20,0,120,T,-14.147605387001688,59.75325598185482,1719.8641320775032,245.12082256244787,-4.446541969055488
2025-02-19 13:24:10.901,926,-64,625,-24,45,17,-8,-5,16,443,93,T,5.846708923984534,55.8440714946384,1753.5126799819027,-121.19310099226975,66.47362312236578
2025-02-19 13:24:11.014,671,-167,639,-1,-2,-11,-8,-3,18,378,61,T,14.646421503123777,45.45346593004718,1383.6809545838291,-344.3736503956774,-39.693189238549735
2025-02-19 13:24:12.031,771,-81,618,-1,2,-3,-7,-6,19,369,71,U,7.467076640260332,51.0475100159037,1548.6675305943502,-162.70047986788893,-5.3444019550044
2025-02-19 13:24:12.121,767,-80,613,3,0,-3,-10,-6,16,358,75,U,7.435403771397083,51.13135830302192,1545.586719670425,-161.20852356405996,-9.260311809609448
2025-02-19 13:24:12.232,765,-56,618,1,2,-7,-9,-6,17,357,79,U,5.177709976340909,50.95266050027325,1541.6257327817898,-112.85103403369965,-9.39176844332826
2025-02-19 13:24:12.341,772,-66,633,-2,3,-3,-8,-5,18,358,80,U,5.95245943796753,50.49806599393742,1543.6031122718528,-131.96606918386306,0.3254273729498891
2025-02-19 13:24:12.449,739,-46,631,-1,1,-17,-8,-9,17,211,81,U,4.16949567654647,49.43242610763733,1498.6394864059944,-93.28473122418907,-17.623160923115393
2025-02-19 13:24:12.554,794,-64,603,30,11,6,-10,-9,16,0,105,U,6.058462811428875,52.63061554665483,1588.7390535852398,-128.059571069843,-0.561271173677028
2025-02-19 13:24:12.664,770,76,636,-18,-27,20,-8,-6,18,425,112,U,-6.814352889409749,50.244610273748634,1538.7816776240043,151.8797499992524,1.0063026378352333
2025-02-19 13:24:12.771,755,-138,617,-2,5,-48,-9,-7,18,750,107,U,12.607443143756072,50.056863015742,1521.6819982929887,-278.13525266812246,-9.54674562486639
2025-02-19 13:24:12.881,747,-167,659,-19,-11,93,-7,-9,19,510,107,U,14.220210732839503,47.69525219236238,1486.575323341142,-332.34013252740385,6.550015954735727
2025-02-19 13:24:12.981,841,-37,565,25,2,-9,-7,-6,18,544,110,U,3.7467630942133514,56.049262581879006,1670.518056908468,-73.49484911487909,7.713790543062487
2025-02-19 13:24:13.096,590,-217,649,-24,10,-2,-10,-3,17,408,50,U,18.487902393346783,40.76703440190708,1242.9849525281384,-457.1656520315357,-69.28344778095232
2025-02-19 13:24:14.111,763,-69,631,2,0,-3,-9,-7,19,513,80,V,6.240512341407716,50.241967877189644,1531.752183490648,-138.52018435236528,-4.757048207862226
2025-02-19 13:24:14.206,753,-56,634,4,-1,-3,-8,-7,15,539,83,V,5.047725952189805,49.7940503098898,1516.728999104834,-112.79790697193984,-9.033446789461777
2025-02-19 13:24:14.317,756,-50,637,-2,2,-5,-8,-6,18,451,87,V,4.488111732274859,49.79603085292536,1519.7513129239917,-100.51265297116348,-6.531198852622651
2025-02-19 13:24:14.413,762,-37,639,4,1,-7,-7,-7,16,338,89,V,3.3138957428443088,49.970167974112925,1527.709660954886,-74.1801278941349,-3.110857414924226
2025-02-19 13:24:14.530,775,-22,628,-1,1,-2,-10,-8,16,319,93,V,2.0063565038998434,50.96418138507027,1551.752388240148,-44.049745214559046,-1.4199997610492119
2025-02-19 13:24:14.640,725,-46,634,7,-11,-10,-9,-7,17,267,99,V,4.149835290981962,48.75631528148079,1476.9124776262374,-93.70755030456127,-23.53449767590962
2025-02-19 13:24:14.741,767,-23,622,2,2,-2,-9,-6,18,105,102,V,2.1176893811744137,50.940463289009685,1543.4916078728884,-46.284624486409946,-7.697236110738572
2025-02-19 13:24:14.851,797,-18,635,-19,-28,60,-8,-7,19,457,106,V,1.6236975337832378,51.44312938692602,1578.9898762026496,-35.66100096819032,11.959132511063444
2025-02-19 13:24:14.959,860,76,605,-23,-26,-2,-8,-7,18,272,114,V,-7.159981222213811,54.66269998770898,1675.7612272114338,148.09052705589414,31.121462252421793
2025-02-19 13:24:15.070,779,-101,631,8,-1,-11,-11,-10,19,744,109,V,9.093818287992118,50.63716288963312,1552.145106518042,-201.240893142904,4.74253887948089
2025-02-19 13:24:15.171,789,-29,581,-25,23,27,-10,-8,17,654,89,V,2.857486711271646,53.598949319804106,1593.88291520663,-58.58378268820313,-11.69578420158689
2025-02-19 13:24:16.191,895,-2,587,14,-9,-23,-9,-5,18,592,70,W,0.19521484771613457,56.74034392350421,1731.1937399342664,-3.868589362981602,38.569021964899775
2025-02-19 13:24:16.290,714,-84,592,-35,39,-7,-8,-5,16,643,52,W,8.075896334838298,50.0559597612243,1480.6718767921861,-174.19669138731604,-43.67192025346549
2025-02-19 13:24:16.397,732,-77,647,-19,-7,-15,-7,-5,19,575,50,W,6.78689555199647,48.32716986493076,1478.9535529549075,-155.57298302940967,-13.217143117247474
2025-02-19 13:24:16.502,744,-41,634,5,4,-12,-8,-7,17,716,59,W,3.7000953164682686,49.50497438241285,1504.4623473924385,-82.90719925146504,-14.028398181190937
2025-02-19 13:24:16.609,778,-43,644,5,-2,-8,-8,-7,17,715,68,W,3.81997978938777,50.32067427912626,1547.6299942542187,-85.5373904279324,6.928385218872791
2025-02-19 13:24:16.719,700,-42,616,7,-17,-21,-10,-9,17,653,84,W,3.90049374238189,48.58631797774558,1449.9531293940736,-86.9971877636444,-43.95875386678472
2025-02-19 13:24:16.827,783,-5,610,13,10,-14,-10,-8,18,488,111,W,0.4696270196896474,52.0785179926715,1571.8537143479284,-10.03738004053594,-4.560364945384663
2025-02-19 13:24:16.933,766,234,585,12,-5,15,-8,-7,18,385,115,W,-21.80140948635181,50.561396824586026,1538.3057468632708,469.9262986501375,-4.815746625343763
2025-02-19 13:24:17.041,771,-135,611,-17,-2,-35,-9,-7,19,781,111,W,12.459286083261352,50.93753994438147,1547.4594564991503,-270.9559359628862,-4.326495357951785
2025-02-19 13:24:17.151,805,120,592,-38,-28,66,-8,-7,18,640,113,W,-11.458752345877201,53.11690670236053,1604.8617942421245,239.2340562845403,3.778655662934625
2025-02-19 13:24:17.251,829,-27,526,-13,-3,-64,-8,-7,21,733,110,W,2.9384591222023833,57.57078628991718,1673.0546108463973,-54.4903190504858,-9.55214150205677
2025-02-19 13:24:17.360,835,41,554,-4,2,7,-9,-9,20,795,110,W,-4.232585239256403,56.364673096776585,1667.5798773534248,81.88116763052744,1.6056861631170705
2025-02-19 13:24:17.471,739,-52,619,-36,44,42,-10,-6,18,707,53,W,4.801941002878162,49.950639215397786,1504.4903921050304,-105.86400593973151,-22.188839936419413
2025-02-19 13:24:18.486,786,-78,585,0,-2,-2,-9,-6,21,611,79,X,7.594643368591445,53.09852700208987,1585.669222221347,-157.356487701355,-10.173657760162541
2025-02-19 13:24:18.578,804,-64,585,-1,-1,2,-8,-7,18,625,82,X,6.24342658821688,53.7976150506908,1610.935727355085,-128.23368973970827,-2.1360702770206217
2025-02-19 13:24:18.689,800,-78,581,-1,-1,-1,-9,-5,21,671,83,X,7.646313542398929,53.767323912085985,1606.6233553761654,-156.64577714917613,-4.810211841940145
2025-02-19 13:24:18.796,797,-66,573,2,-6,-5,-10,-6,20,690,88,X,6.570558371640884,54.10675838903029,1607.1108010305363,-133.08571250692017,-9.42595858280697
2025-02-19 13:24:18.908,820,61,483,-13,-10,-10,-10,-9,18,738,117,X,-7.198004563577241,59.30225462764205,1679.8723611399625,124.96611467016795,-23.485793208051177
2025-02-19 13:24:19.010,779,24,597,12,15,33,-9,-8,21,0,118,X,-2.3021082924366265,52.512293197142455,1572.48393591269,48.446231658414064,-11.100012503049925
2025-02-19 13:24:19.116,1001,-60,570,0,-3,7,-9,-7,18,0,119,X,6.009005957494525,60.20555653880211,1868.8136457717499,-112.0168019443606,75.84038152857437
2025-02-19 13:24:19.231,623,-158,695,2,-37,-53,-10,-7,18,305,103,X,12.807829235649887,41.15669161739464,1281.1205412341144,-324.9069751444464,-39.17941598348261
2025-02-19 13:24:19.337,786,-43,647,-63,-78,94,-10,-9,19,332,114,X,3.8023194426799454,50.4783521074825,1557.3842007914013,-85.2004079313362,12.031071358731879
2025-02-19 13:24:19.444,852,-33,543,38,-5,-8,-10,-5,21,503,123,X,3.477786519798162,57.441776439002346,1694.8450104278745,-65.645405333474,5.834694058291348
2025-02-19 13:24:19.551,610,-183,650,-28,44,14,-8,-3,18,333,43,X,15.7239527784028,42.09285777588192,1280.334122509259,-384.1002367527777,-64.29045841150537
2025-02-19 13:24:19.657,812,-90,644,16,-14,-14,-8,-5,17,374,45,X,7.95564858417722,51.31187472858707,1592.5599740622024,-176.51526806108154,24.935192985150024
2025-02-19 13:24:20.671,772,-73,625,2,-4,-2,-9,-7,16,678,68,Y,6.66196178263318,50.81689971421851,1547.1308756092678,-146.2960542998401,-2.5347114712336634
2025-02-19 13:24:20.771,758,-58,625,6,-5,-4,-8,-4,18,715,74,Y,5.301863533542189,50.37248870736317,1528.2070867798275,-116.93405149502641,-10.065210075715527
2025-02-19 13:24:20.873,809,2,593,5,9,-8,-11,-8,17,709,87,Y,-0.1932396703826922,53.758290254136746,1615.5301537373316,3.993894075988459,1.8104064694218778
2025-02-19 13:24:20.984,753,-11,624,-2,4,-10,-8,-8,18,552,86,Y,1.0099171511023468,50.34758499753714,1522.9297958156596,-22.247314414305784,-14.029472229710109
2025-02-19 13:24:21.094,1017,17,631,2,-8,-22,-8,-7,18,392,107,Y,-1.5432530782475162,58.17305851477841,1866.6448151370814,31.202519033756523,103.83591115880199
2025-02-19 13:24:21.201,783,33,612,-15,-17,11,-9,-8,18,663,110,Y,-3.086489263781074,51.948126988242976,1570.4530386280612,66.1876759575045,-3.4805359391741604
2025-02-19 13:24:21.304,879,21,591,5,-9,9,-10,-7,20,643,116,Y,-2.0350344568598926,56.068151594794585,1708.7021289473685,40.82223516256512,33.145667567810165
2025-02-19 13:24:21.411,557,-155,689,11,-32,-23,-8,-6,19,796,87,Y,12.678404704754017,38.263078133448985,1176.2731868657224,-327.32916331092815,-77.03092594341615
2025-02-19 13:24:21.521,806,-64,609,-11,-6,-12,-9,-8,20,754,114,Y,5.999210970067409,52.77446501586699,1602.260387515216,-127.2266312667169,7.359086852647124
2025-02-19 13:24:21.631,852,12,565,-24,-3,18,-9,-8,22,177,120,Y,-1.2167185829129055,56.443878546706046,1685.344797564119,23.737250669917167,12.371114291399863
2025-02-19 13:24:21.737,768,-73,578,-19,-17,39,-7,-7,22,0,127,Y,7.198206574597042,52.816669913328035,1564.7057893220665,-148.72854507879015,-21.60409665124257
2025-02-19 13:24:21.844,1172,-16,513,10,54,25,-10,-5,20,212,104,Y,1.786423766751282,66.35013137348763,2088.0139300338606,-28.505309625035636,112.04851014729502
2025-02-19 13:24:22.861,749,-40,595,2,0,-3,-9,-7,18,759,80,Z,3.846030090047376,51.47370116226872,1531.3223393892663,-81.77956418634267,-26.471017271847245
2025-02-19 13:24:22.951,774,-22,615,8,5,-3,-8,-8,18,789,83,Z,2.048731524465979,51.51242631716652,1556.7431495123942,-44.248513293633934,-6.947076162948747
2025-02-19 13:24:23.061,735,-21,644,5,10,-8,-10,-8,17,755,84,Z,1.8676788394341726,48.76037435901191,1486.9591807394934,-42.48454802112839,-14.859472647937082
2025-02-19 13:24:23.171,811,62,511,-5,-2,-4,-9,-8,17,554,105,Z,-6.917924071774626,57.59641114116141,1655.2943610467391,126.54531490123038,-20.978321202076245
2025-02-19 13:24:23.281,665,61,606,-3,-33,18,-9,-9,16,790,103,Z,-5.748035236082943,47.51395203727957,1402.4418272371531,128.6450397916787,-66.0146576025785
2025-02-19 13:24:23.389,815,128,553,-31,12,28,-6,-6,18,362,112,Z,-13.03244577064863,55.144068088972226,1635.591689657194,256.8782040197801,-3.7941158042061716
2025-02-19 13:24:23.492,835,6,563,2,-40,8,-9,-6,18,338,109,Z,-0.6105890997160489,56.00861443179834,1664.1216379482482,11.957760272682023,3.963494413336889
2025-02-19 13:24:23.601,843,75,604,-16,-2,13,-8,-6,19,571,111,Z,-7.078311016256777,54.17104427712316,1653.7680937879582,147.1323926857614,23.093797570668244
2025-02-19 13:24:23.711,545,-182,591,38,-61,-51,-8,-8,17,381,90,Z,17.116352980093446,41.390444114664646,1206.1867513557545,-402.79997935183,-125.99333954357974
2025-02-19 13:24:23.811,738,64,630,0,-46,29,-9,-6,18,686,111,Z,-5.800624143716974,49.36868716823878,1496.9155380376974,129.8138135967651,-17.854727593156213
2025-02-19 13:24:23.921,1120,198,641,-52,88,22,-9,-6,19,671,86,Z,-17.165518839272814,59.07825029133503,1977.8699015774903,349.65914331459203,150.0226724007399
2025-02-19 13:24:27.235,750,-54,644,0,-1,-2,-6,-6,16,320,50,a,4.793092101657651,49.2491816916222,1507.5556614774487,-108.54400762637631,-6.48779465530265
2025-02-19 13:24:27.329,761,-40,645,2,0,1,-9,-4,18,388,51,a,3.5486819739044466,49.662175451683225,1523.241176914989,-80.06523925965777,-1.0519830619814456
2025-02-19 13:24:27.439,751,-42,645,8,1,1,-9,-4,16,476,51,a,3.725628193348981,49.28228519816019,1508.932683124713,-84.38771330391205,-5.954168595791998
2025-02-19 13:24:27.550,742,-28,644,1,1,-3,-7,-6,15,574,50,a,2.489552921999156,49.017701104158654,1496.912228751316,-56.48725391514401,-11.206840048312301
2025-02-19 13:24:27.656,764,-46,637,-7,1,-4,-8,-6,15,589,51,a,4.130359124359796,50.106374171821116,1531.2365085222546,-92.19486831416714,-2.6985025244449616
2025-02-19 13:24:27.767,758,-45,632,-11,0,-6,-8,-5,15,635,53,a,4.072731189387424,50.108290833669145,1525.2579630492842,-90.54961522060395,-7.719040431593157
2025-02-19 13:24:27.873,774,-9,624,-28,6,-7,-10,-5,16,728,53,a,0.8263241397292475,51.121274417865976,1552.4762629802112,-18.052049569537342,-3.6087701545889104
2025-02-19 13:24:27.980,695,-122,663,-9,-7,1,-9,-7,16,783,49,a,10.426477236328298,45.87325172211743,1412.801335748858,-248.00253663505137,-21.75149007409061
2025-02-19 13:24:28.090,764,-113,630,-1,-8,-8,-7,-6,18,807,58,a,10.168733218433077,50.044839564148056,1530.5472527987304,-226.3767533589745,-2.1004833287959173
2025-02-19 13:24:28.193,779,-75,636,0,-11,-5,-9,-7,18,805,66,a,6.725517097325259,50.5767711385641,1551.4761774823098,-149.3719041221736,5.3262530439677676
2025-02-19 13:24:28.303,802,-69,602,4,-13,-5,-8,-9,17,802,79,a,6.538590772654586,52.92756972498085,1599.874089591458,-137.6450276581179,3.097005069753891
2025-02-19 13:24:28.410,782,-80,606,6,-7,0,-10,-8,19,798,87,a,7.52031375038099,51.986700995291876,1569.8678303217807,-160.60028954698527,-4.5471933184131785
2025-02-19 13:24:28.516,789,-32,590,-5,1,4,-8,-7,19,740,91,a,3.104525909264347,53.17115500141601,1589.4296969289203,-64.46356185263048,-8.546921657874123
2025-02-19 13:24:28.622,788,-29,594,-2,2,1,-9,-8,17,725,85,a,2.7950493991182084,52.957964846585,1586.1937724638647,-58.37515152468538,-7.684138126314338
2025-02-19 13:24:28.729,806,-24,595,2,-2,3,-9,-5,17,724,84,a,2.3098381040393448,53.54250364873005,1610.2978959553843,-47.94931700115288,1.2565160130849335
2025-02-19 13:24:28.836,795,-69,583,-1,-1,1,-9,-7,19,692,83,a,6.749748280711527,53.55592818535442,1599.4371025041191,-138.8190692739424,-6.920541836353891
2025-02-19 13:24:28.942,769,-79,603,0,-5,8,-9,-7,17,612,81,a,7.463902383972838,51.66178098807138,1553.3627738570478,-159.5782303442221,-12.046492374252125
2025-02-19 13:24:29.053,772,-78,552,7,-21,-5,-10,-6,19,596,100,a,8.042894233505312,54.16585531963498,1582.7150770117632,-159.91162695196567,-27.682283044680275
2025-02-19 13:24:29.160,791,-144,587,-12,6,-26,-10,-6,20,499,120,a,13.78333436628139,52.616483168097986,1585.5893209141705,-288.65342883898927,-2.663630058935496
2025-02-19 13:24:29.270,813,120,565,-9,-30,41,-8,-6,20,50,120,a,-11.990834979039253,54.60778419533254,1628.2064892518704,240.3256810703868,-1.533415039737747
2025-02-19 13:24:29.376,874,-206,525,4,3,-24,-9,-6,19,639,119,a,21.424096669329007,57.166921991752055,1714.2537243658967,-404.04607233338066,20.27093216007347
2025-02-19 13:24:29.483,891,-1,584,13,-13,23,-8,-7,21,403,119,a,0.09810911560748706,56.75739160273963,1727.3568829943326,-1.938672147019453,35.81546614063927
2025-02-19 13:24:29.590,588,-234,664,-31,39,18,-9,-4,17,547,41,a,19.41294889597722,39.8685291861891,1229.028154547988,-489.1030410956278,-59.88213370725168
2025-02-19 13:24:30.708,777,-63,605,-5,-5,-4,-9,-4,17,709,75,b,5.944911230451411,51.94452731271189,1564.4143126029694,-126.84440372456508,-8.108956402569447
2025-02-19 13:24:30.796,772,-51,612,-5,-5,-6,-8,-6,18,740,82,b,4.763641690726178,51.497963803976546,1554.586033230847,-102.69933639219326,-8.39203670631889
2025-02-19 13:24:30.912,801,-51,597,-13,-3,-8,-9,-6,18,729,92,b,4.882759563833057,53.202299036503945,1601.7554065792297,-101.98442663613073,0.1822999652930548
2025-02-19 13:24:31.023,730,-69,572,-3,-11,-29,-8,-8,18,701,107,b,6.8783191456881605,51.71801428342446,1514.9711955729797,-143.19590752676112,-43.073320366773146
2025-02-19 13:24:31.129,801,-118,677,0,-15,58,-7,-10,20,467,115,b,9.88723527076936,49.3725215790208,1559.9591159249562,-229.8067112099186,35.53268229563639
2025-02-19 13:24:31.236,796,-41,490,26,21,-45,-10,-5,22,175,121,b,4.7829951031004425,58.2951704527713,1646.7668136076227,-84.82090371597052,-33.71323953233059
2025-02-19 13:24:31.339,737,0,653,7,-39,18,-9,-7,18,637,115,b,0.0,48.45827300035919,1485.4729535731926,0.0,-10.165317073670053
2025-02-19 13:24:31.449,901,-7,454,-8,26,15,-7,-6,19,179,122,b,0.8833451077889393,63.25443335021106,1794.0137678060742,-13.937953800935095,4.024139196495298
2025-02-19 13:24:31.556,579,-111,651,-28,37,21,-9,-4,17,451,51,b,9.676271099772261,41.24258565372529,1238.2485179341556,-237.38443089929407,-90.22760824721115
2025-02-19 13:24:31.666,834,-45,588,12,-34,-22,-8,-5,18,459,60,b,4.376350389484145,54.7359598046001,1650.5001025788802,-89.05576093051513,12.33805717460234
2025-02-19 13:24:32.376,805,-85,590,-3,-3,-1,-10,-6,17,563,86,c,8.198068846016293,53.48056073439059,1608.6550033622402,-169.8579817214788,0.9857739332649089
2025-02-19 13:24:32.477,786,-89,584,-3,-3,-3,-8,-6,20,560,90,c,8.665048600574412,53.07216813051894,1585.3929053681554,-179.51649946280645,-9.950962767179135
2025-02-19 13:24:32.584,808,-68,575,-1,-4,-4,-8,-6,20,557,102,c,6.7445229781818465,54.37489239897225,1620.845590701603,-136.40779723726362,-3.4482854621556953
2025-02-19 13:24:32.693,794,-70,569,1,-4,-3,-11,-6,19,567,108,c,7.013449632353279,54.16968967433649,1604.754254140041,-141.47707530201876,-12.00651209783814
2025-02-19 13:24:32.801,772,-111,555,-18,12,-18,-8,-7,19,347,121,c,11.309932474020213,53.753024246236485,1578.4758142732994,-226.95701474654948,-24.785073732747378
2025-02-19 13:24:32.907,861,69,535,26,-23,41,-9,-6,18,98,120,c,-7.348981235258832,57.93215464241364,1708.4200111761195,136.91170821272038,8.438204437602735
2025-02-19 13:24:33.008,768,-22,466,-22,86,47,-9,-3,19,540,60,c,2.7029440378147087,58.72355224661043,1622.6723136700834,-46.482800652007604,-52.59023199252465
2025-02-19 13:24:33.116,638,-200,676,12,-23,-20,-7,-3,15,451,39,c,16.48127221132924,42.14538344037625,1309.0141205675975,-410.34925409642557,-34.98047884591847
2025-02-19 13:24:33.228,816,-117,601,3,-6,-4,-9,-3,19,497,53,c,11.016298762808546,53.11740437340914,1615.8670074112076,-231.68681356263642,11.882265374833537
2025-02-19 13:24:34.246,802,-84,583,-4,-3,-2,-9,-7,20,436,94,d,8.19888476950906,53.70497445040945,1607.9796781137445,-168.41682414158916,-2.892958030315299
2025-02-19 13:24:34.341,818,-75,573,3,-6,1,-9,-5,18,466,106,d,7.4570551402353065,54.76017111035891,1634.7439967409482,-149.88484077698183,0.8798164638590151
2025-02-19 13:24:34.447,811,2,547,-9,2,-7,-10,-6,21,454,121,d,-0.209490033616178,56.001104723908846,1640.0483542381949,4.044508888380259,-12.17318097200075
2025-02-19 13:24:34.559,837,-127,506,16,20,-10,-9,-7,21,148,119,d,14.089517073692932,58.06509462946165,1685.6495982621032,-255.76762124168116,-7.042648411737559
2025-02-19 13:24:34.658,784,-59,573,5,-22,-12,-9,-6,19,122,122,d,5.878847663643436,53.694102139812436,1589.867337871387,-119.64562874287223,-15.982123214674402
2025-02-19 13:24:34.775,814,-153,504,-1,1,-28,-8,-10,21,701,115,d,16.886791123944043,57.094478558165,1653.567516359246,-310.80568796433,-15.830501529557637
2025-02-19 13:24:34.876,857,173,463,15,1,23,-9,-6,21,0,124,d,-20.488207482500858,60.02628494449301,1723.254692057242,347.8682167163394,-4.9999094778333415
2025-02-19 13:24:34.988,622,-169,626,-27,53,31,-10,-4,18,460,53,d,15.107868951398244,43.80902443780075,1314.2568469612738,-357.08907899751654,-70.70865948192534
2025-02-19 13:24:35.906,781,-66,590,1,3,-1,-9,-4,19,443,78,e,6.3828225263712,52.75958389648797,1577.1032392559232,-133.27633007796533,-11.409617363629422
2025-02-19 13:24:35.999,818,-63,586,9,2,-2,-9,-6,18,521,84,e,6.136216626603687,54.22689090504426,1629.3382706626703,-125.4869328260981,4.77233910962741
2025-02-19 13:24:36.106,787,-58,600,4,-3,-5,-8,-6,19,569,91,e,5.521436414647933,52.54995841439317,1580.8838413619396,-116.50732248918999,-5.2481636812757415
2025-02-19 13:24:36.216,759,-89,600,1,-7,-7,-9,-5,17,496,106,e,8.437351199341144,51.369436227825865,1540.18755987224,-180.60170333152752,-17.539573021533784
2025-02-19 13:24:36.323,761,61,578,14,-29,6,-9,-6,17,653,115,e,-6.02448572463763,52.629399117986964,1555.7261674148117,124.70341157989948,-25.615932675113186
2025-02-19 13:24:36.434,718,-33,633,-36,23,-25,-10,-6,18,554,116,e,2.9842821435933766,48.56152273346371,1467.6667932370822,-67.45543757217787,-27.917938884502973
2025-02-19 13:24:36.535,829,94,578,5,-28,38,-10,-6,18,143,116,e,-9.237129399836755,54.76316431285085,1645.7741388321724,186.61371417397368,8.524183057906498
2025-02-19 13:24:36.643,908,20,530,-45,63,40,-9,-3,20,556,78,e,-2.1610794882263713,59.710120754870466,1771.4846571458843,39.01948584021771,25.983625234230658
2025-02-19 13:24:36.753,672,-188,645,5,-11,-9,-8,-4,17,190,47,e,16.249970882596827,45.006821281235965,1379.1909599363153,-385.8450899821835,-33.77703743887412
2025-02-19 13:24:37.666,791,-87,583,-3,-5,-2,-7,-6,18,338,87,f,8.487509010867063,53.30640535036921,1592.8424504101345,-175.19253247241681,-7.991338292172486
2025-02-19 13:24:37.764,805,-84,579,0,-3,-2,-8,-4,21,410,96,f,8.254748523389596,53.990926362580026,1613.9238997082948,-168.40945040434377,-2.822283144226958
2025-02-19 13:24:37.875,772,-95,567,-1,-16,-5,-9,-5,18,436,112,f,9.511474995092291,53.32517992467639,1574.0382066811594,-193.69641144392506,-22.061739881110384
2025-02-19 13:24:37.983,810,-64,584,-2,0,-1,-8,-6,19,303,120,f,6.254032743916468,54.04646624526845,1619.493415633122,-127.95997358088864,0.365241074391065
2025-02-19 13:24:38.088,865,-132,540,1,7,-55,-8,-7,20,637,116,f,13.736268305622572,57.27284323730982,1706.2546270668913,-260.3764286391094,14.823701021825173
2025-02-19 13:24:38.196,826,43,614,-12,-12,21,-7,-9,19,754,112,f,-4.006030148193642,53.30791870954866,1627.8582328958532,84.7432251991788,17.94557506288902
2025-02-19 13:24:38.306,619,-87,561,-14,-24,-33,-9,-6,20,181,114,f,8.815221023223158,47.47500802841643,1355.9825795082656,-190.5823657790292,-106.9276689889125
2025-02-19 13:24:38.408,770,45,561,19,-41,13,-8,-8,19,589,116,f,-4.586098896170858,53.83649806226453,1577.3363709106357,92.18199570256961,-27.202213092034526
2025-02-19 13:24:38.516,886,88,515,-66,70,38,-10,-7,18,577,79,f,-9.696696336145518,59.47261965566964,1747.3865210761855,173.5553203777701,14.30693188009559
2025-02-19 13:24:38.629,666,-132,655,16,-19,-13,-8,-4,17,364,50,f,11.394017795974277,44.906878623136286,1371.9566050628496,-271.9193271295738,-39.29666113538485
2025-02-19 13:24:39.642,785,-55,594,-5,-3,0,-8,-7,18,427,76,g,5.29008120537127,52.767902160801164,1581.1910887811023,-110.78408902287975,-8.468161447101352
2025-02-19 13:24:39.738,779,-66,582,-1,-6,-3,-8,-4,19,461,82,g,6.469819985173174,53.06048417770071,1578.2703697858951,-133.71738691382427,-15.144230058268363
2025-02-19 13:24:39.846,790,-70,586,1,-4,-3,-9,-5,20,501,87,g,6.811927773881142,53.238589323041346,1591.1346381346918,-140.9866135056056,-8.259364489784161
2025-02-19 13:24:39.953,758,-60,588,1,-7,-7,-9,-6,18,520,93,g,5.826342029555775,52.05454443202921,1546.5964938113007,-122.42188605366496,-23.7344833259167
2025-02-19 13:24:40.063,872,-65,516,-11,21,-17,-9,-7,20,223,119,g,7.179674838891988,59.18732192634206,1730.8465740647935,-129.01952673648114,7.783449291934176
2025-02-19 13:24:40.169,812,37,593,16,-19,6,-9,-7,18,550,118,g,-3.5703190700836953,53.80647847138341,1619.0270871555326,73.773401754624,3.631696202917965
2025-02-19 13:24:40.275,799,-88,557,19,8,2,-8,-8,16,770,113,g,8.977908792397155,54.78677794790703,1616.0118542477883,-177.98378369687782,-12.556449081374353
2025-02-19 13:24:40.386,779,-46,444,-10,17,25,-8,-4,20,131,123,g,5.914946366431022,60.186763912805375,1646.6506226193073,-97.23482495569723,-50.52744087672977
2025-02-19 13:24:40.492,598,-154,695,-31,48,14,-8,-4,14,392,44,g,12.493887232285037,40.03213546660977,1241.2171596778544,-319.6445528267384,-52.55171567911168
2025-02-19 13:24:40.599,773,-76,651,15,-23,-16,-8,-3,16,573,43,g,6.658766512419261,49.705623973303716,1535.7318128696616,-150.99044990697837,8.647593559961479
2025-02-19 13:24:41.517,768,-76,617,-7,-3,-6,-9,-7,17,428,73,h,7.022130981510052,51.01131327644175,1545.2702080865574,-152.91736434189897,-7.4475499862059
2025-02-19 13:24:41.611,791,-61,596,5,-6,-5,-10,-7,19,533,84,h,5.843816766064256,52.85924654552513,1588.154676142668,-122.47463368483281,-4.637404527218905
2025-02-19 13:24:41.717,781,-53,605,2,0,-8,-10,-7,19,647,92,h,5.006518557423143,52.13084000736679,1570.4146154596604,-106.57103024246095,-6.518364088469411
2025-02-19 13:24:41.827,741,-34,615,-10,-4,-21,-8,-8,18,664,99,h,3.16435035272113,50.2657300395853,1510.017355308074,-69.28554666730703,-23.25327059981828
2025-02-19 13:24:41.935,811,-145,670,25,5,21,-9,-9,19,611,109,h,12.211508376475978,49.79329816994307,1574.7205248692471,-281.54682627132036,39.05949240148527
2025-02-19 13:24:42.040,813,56,562,5,-2,16,-9,-6,19,65,118,h,-5.69040435062796,55.21266961210071,1634.2753889198157,112.5700144889418,-5.720502549737262
2025-02-19 13:24:42.146,699,-88,732,-3,-26,9,-8,-9,16,648,114,h,6.855118980100533,43.473666808410684,1387.021120293195,-174.6178234417756,11.497195916139049
2025-02-19 13:24:42.256,1220,105,480,-12,60,20,-9,-5,19,538,102,h,-12.339087278326195,68.06308368522961,2147.595741105124,184.83405968527708,115.04429858159057
2025-02-19 13:24:42.360,512,-248,704,-18,13,9,-7,-3,16,430,36,h,19.405970754001178,34.448366756842944,1077.6633291569929,-521.9931750604184,-73.78707759086524
2025-02-19 13:24:44.884,803,-43,583,-1,0,-1,-9,-7,18,560,110,i,4.218294155346518,53.94539990508914,1611.4564963233565,-86.29219096127562,-3.9615658238064952
2025-02-19 13:24:44.976,800,-48,584,-1,0,-2,-8,-7,20,566,109,i,4.69868051729944,53.77865540368597,1606.7402357668834,-96.40441414601301,-4.920372109824825
2025-02-19 13:24:45.084,802,-48,581,-2,0,-2,-9,-5,19,569,109,i,4.722832737859832,53.98633434517802,1610.8767783098865,-96.41157775420766,-4.98180573322179
2025-02-19 13:24:45.190,799,-46,574,-2,0,-1,-9,-6,19,547,108,i,4.581855864408105,54.21966239228624,1610.2645131901318,-92.70609212358704,-8.810801716064475
2025-02-19 13:24:45.297,809,-48,585,-3,1,1,-8,-7,19,558,103,i,4.690684455734844,54.03742457880675,1618.400752583354,-96.02377765636712,-0.28979018697418724
2025-02-19 13:24:45.406,795,-54,585,0,-2,-1,-8,-4,18,599,100,i,5.2738959573517645,53.5364369969226,1599.2349729548055,-108.62728118183587,-6.795546136555231
2025-02-19 13:24:45.514,798,-54,581,-1,-2,-1,-9,-4,18,610,104,i,5.309998205411017,53.82542592057314,1605.2223234105768,-108.62406699770818,-6.714498623490044
2025-02-19 13:24:45.621,801,-51,580,0,-3,-4,-8,-6,19,616,109,i,5.025152489860642,53.98701696975515,1609.8837834519882,-102.50196374038876,-5.708607243636834
2025-02-19 13:24:45.731,779,-120,525,-9,8,-12,-9,-5,18,507,118,i,12.875001559612478,55.34304912430914,1601.5715365074434,-246.71191833234047,-29.36464270398949
2025-02-19 13:24:45.834,860,69,495,22,0,19,-10,-4,19,0,125,i,-7.935550370088819,59.83713893703809,1724.600676249998,138.36912402470915,-2.648063655522094
2025-02-19 13:24:45.949,189,-417,741,18,-84,-84,-8,-9,18,703,113,i,29.3687656086778,12.531998017751162,405.9848129339889,-895.7442698067374,-109.71823483643266
2025-02-19 13:24:46.051,1218,-63,660,-9,23,49,-10,-6,19,766,104,i,5.452621987812532,61.43900145737775,2096.308619380672,-108.42975617486235,184.06922102525164
2025-02-19 13:24:46.156,450,-260,733,-2,-3,8,-9,-4,16,524,34,i,19.529936127287147,30.05345919536591,950.8078176970693,-549.3556280027512,-82.7602897154485
2025-02-19 13:24:46.264,928,-15,577,22,-21,-9,-8,-6,16,584,59,i,1.4891562618065552,58.11932536869508,1777.1498769936484,-28.725482925543886,49.02642346407856
2025-02-19 13:24:47.176,787,-94,598,3,-3,-2,-8,-5,19,514,73,j,8.93326160596623,52.43331702518918,1579.6443037870768,-188.67416080811336,-4.288810247359493
2025-02-19 13:24:47.279,781,-92,599,3,-4,-1,-8,-6,19,559,75,j,8.731786204768051,52.19000576692655,1571.048089584643,-185.06584409959947,-6.939571909348501
2025-02-19 13:24:47.387,785,-86,597,1,-3,-2,-9,-4,18,567,79,j,8.197272053176698,52.462770219066996,1577.9576104600874,-172.8717891714236,-6.051838783021935
2025-02-19 13:24:47.490,756,-86,598,3,-10,-12,-8,-6,19,597,91,j,8.183750072104578,51.37013598435686,1537.1951843805284,-174.86611885810242,-19.92952415285174
2025-02-19 13:24:47.601,798,-165,487,7,14,-17,-8,-7,19,562,118,j,18.71684460251544,57.204227795205746,1638.6065732854008,-338.8096298146505,-26.001755877180585
2025-02-19 13:24:47.706,820,44,520,-56,-12,36,-9,-3,21,0,132,j,-4.836583445735302,57.5268166165606,1663.6428301972728,89.26863966912197,-14.993014271441325
2025-02-19 13:24:47.821,441,-470,669,-41,-42,-55,-8,-9,19,591,90,j,35.089618125376866,28.341850707848938,915.7312119226443,-975.9493641805959,-51.170477950678105
2025-02-19 13:24:47.922,935,-25,537,9,-16,25,-9,-10,20,691,111,j,2.665476708311533,60.10309588995531,1801.9236826939134,-48.179777612136725,39.09837689130319
2025-02-19 13:24:48.029,532,-214,686,-6,5,24,-9,-4,17,490,44,j,17.325486146418307,36.51343771099399,1127.011300789396,-453.34665106941867,-81.25141417580005
2025-02-19 13:24:48.135,915,-6,567,17,-20,-9,-9,-7,18,530,72,j,0.6062819155173511,58.21322230926817,1765.0142774357735,-11.573864114332942,40.26984119553697
2025-02-19 13:24:48.243,770,-80,604,-6,9,8,-9,-7,17,536,67,j,7.544929038756831,51.646622098115536,1554.1986314309163,-161.47518248632895,-11.137627771783514
2025-02-19 13:24:49.559,785,-92,609,0,-2,-1,-10,-6,19,442,62,k,8.590563688241984,51.88231910425338,1571.744573489991,-184.20445956825372,-1.3534334463749929
2025-02-19 13:24:49.656,781,-87,604,1,-3,-3,-9,-7,18,485,65,k,8.196493725962997,51.997745665197044,1568.986529448335,-174.77826896543553,-5.403154656586935
2025-02-19 13:24:49.766,777,-96,611,5,-11,-9,-10,-5,17,533,71,k,8.929282753649883,51.480040944057244,1559.3912556258974,-192.66610108119193,-4.2394558396695174
2025-02-19 13:24:49.876,761,-40,582,2,-10,-28,-10,-7,19,630,87,k,3.9316714800222363,52.52668378925408,1554.6367666039348,-81.71546736420157,-24.960050149132712
2025-02-19 13:24:49.983,808,-147,540,-2,6,-24,-10,-8,20,610,114,k,15.22818133808759,55.29208949064401,1630.0654359401592,-296.55893450891506,-9.400167583769644
2025-02-19 13:24:50.089,887,200,449,15,-2,34,-11,-5,20,0,124,k,-24.009831066273193,61.0070606656192,1761.6794444906475,397.2219717002587,6.236673532919326
2025-02-19 13:24:50.196,461,-267,635,14,-30,-24,-8,-6,18,616,97,k,22.805411770755477,33.79168677565164,1017.1750395022618,-589.123070601093,-131.0979394445469
2025-02-19 13:24:50.302,803,-76,628,-18,28,-5,-9,-7,21,88,119,k,6.900328169277295,51.76990192342485,1588.5319283164238,-150.34673294152952,13.661206746308608
2025-02-19 13:24:50.409,690,-43,599,4,-46,39,-9,-6,20,0,119,k,4.106009155260357,48.965322468712756,1444.3123707550053,-90.00787238038438,-55.83059432209882
2025-02-19 13:24:50.519,1083,130,567,-36,88,24,-9,-6,18,436,90,k,-12.913409067059696,61.758406658914296,1963.9601760199735,235.7477588943643,105.77708236073414
2025-02-19 13:24:50.626,579,-234,647,-7,2,-7,-9,-3,16,142,40,k,19.883498909199698,40.08232518014577,1222.8876332556617,-494.2240175851897,-72.50828793853736
2025-02-19 13:24:51.540,791,-82,597,-1,-1,-3,-8,-6,20,521,67,l,7.820834546025552,52.69886988786768,1586.461528077314,-164.46250986389344,-3.3672974237121025
2025-02-19 13:24:51.637,786,-93,598,5,-9,-10,-8,-6,20,612,73,l,8.839735688616333,52.405174962882185,1578.3447485206852,-186.75071451962307,-4.827175083167617
2025-02-19 13:24:51.744,818,-57,573,0,-2,-4,-9,-6,19,690,83,l,5.6808908179659525,54.85651053838695,1635.7130330792484,-113.98000352752709,0.20101717064881086
2025-02-19 13:24:51.855,813,-34,570,-1,-3,-11,-9,-8,19,714,89,l,3.413598274771862,54.91759172362631,1631.3262247330608,-68.22274494578606,-3.7342535028840302
2025-02-19 13:24:51.965,698,-120,586,8,-23,-37,-11,-6,18,748,112,l,11.572927647678242,49.40463037268038,1457.323897335708,-250.54279037290107,-51.48395965433349
2025-02-19 13:24:52.068,860,4,683,3,-14,42,-10,-8,18,222,117,l,-0.3355497772665525,51.54340896249314,1643.0795675389902,7.642230546692979,61.08913415217387
2025-02-19 13:24:52.174,908,-88,593,47,3,24,-9,-5,18,241,122,l,8.440975200878531,56.56578562759193,1742.5189929596977,-168.87849270975045,47.989247989977116
2025-02-19 13:24:52.285,575,-232,661,-32,37,15,-9,-3,19,444,45,l,19.340224401837798,39.37931488726339,1209.4514970008195,-487.9873866159828,-68.34337307398539
2025-02-19 13:24:52.391,825,-83,597,12,-16,-16,-8,-4,16,447,52,l,7.9150089319019346,53.84826861992412,1632.4575793135896,-164.235126161246,12.694333514893401
2025-02-19 13:24:53.407,791,-58,600,9,3,1,-9,-5,17,620,64,m,5.521436414647933,52.69008747472606,1586.3686291983786,-116.32032932175215,-3.3137516043326514
2025-02-19 13:24:53.504,800,-65,606,10,-4,-2,-8,-6,19,683,68,m,6.122180228786571,52.69821805375664,1595.4546337285465,-129.6306889904444,3.4431149506259544
2025-02-19 13:24:53.606,778,-49,596,9,-9,-9,-6,-4,18,723,80,m,4.699988580390238,52.45226520529716,1570.8458880101423,-98.93502379498327,-11.37294248591877
2025-02-19 13:24:53.718,804,-17,597,-2,2,-6,-10,-5,18,687,94,m,1.6310973381604834,53.393620835923294,1606.7510880780515,-33.97359265836676,0.9273637032379156
2025-02-19 13:24:53.826,823,-13,505,-8,-1,-13,-9,-6,19,704,113,m,1.474615183567517,58.4578970346163,1675.2559837565059,-26.462123680236424,-17.95172757841476
2025-02-19 13:24:53.931,852,107,537,3,-6,20,-7,-6,18,264,116,m,-11.268889659039566,57.27228765312076,1693.2493845723693,212.6498640249337,6.775916061781345
2025-02-19 13:24:54.042,801,-93,610,-5,-15,-36,-7,-6,19,691,111,m,8.668506620770334,52.39121930618626,1593.1961280741948,-184.97782760412002,6.704571628890335
2025-02-19 13:24:54.148,850,80,544,-10,-9,37,-7,-8,19,230,115,m,-8.36588612403259,57.101842446097436,1689.6373308256716,159.0246899600632,6.632108271570132
2025-02-19 13:24:54.254,833,-62,565,7,-3,-38,-9,-5,18,666,113,m,6.262268643265088,55.692606830282145,1659.0255729483097,-123.48089498534836,4.730553762551267
2025-02-19 13:24:54.361,864,84,501,4,-9,53,-7,-5,21,310,117,m,-9.51794916094876,59.54638824559939,1726.039795075863,167.80942452126442,1.1366466053159456
2025-02-19 13:24:54.472,672,-161,636,-41,66,24,-8,-4,18,639,52,m,14.205694447486792,45.68758210632937,1387.5413471643635,-332.431781091462,-41.20877499484379
2025-02-19 13:24:54.576,817,-55,599,14,-29,-12,-9,-2,19,572,53,m,5.246171018455001,53.637482978982796,1622.2818405536673,-109.21113981695434,8.591404538988286
2025-02-19 13:24:55.496,799,-62,588,-3,-5,-4,-8,-5,19,592,69,n,6.019150394271151,53.498574067214705,1602.842056881521,-124.37572906965497,-3.5633660154375093
2025-02-19 13:24:55.590,783,-68,593,0,-1,-3,-9,-6,17,642,73,n,6.541600687025234,52.681486371877625,1578.277630076232,-137.06625650725897,-9.298383953008397
2025-02-19 13:24:55.697,786,-60,595,2,-1,-2,-9,-4,18,655,78,n,5.75826016436676,52.734794787223265,1581.8413409666227,-120.75124740203228,-7.449870070153452
2025-02-19 13:24:55.804,806,-45,588,3,3,-2,-9,-7,19,649,80,n,4.376350389484145,53.808490626024074,1613.0478247705378,-90.05850138297046,-0.7644180708141448
2025-02-19 13:24:55.906,797,-48,613,-3,2,-9,-8,-5,18,561,80,n,4.477319946380838,52.35022338064306,1588.7592711185218,-95.68437266460356,4.030824095792127
2025-02-19 13:24:56.023,684,-140,608,21,-44,-31,-9,-5,17,603,113,n,12.967083983121263,47.63050903403257,1422.8142905413765,-291.21929923361506,-48.723813814556934
2025-02-19 13:24:56.131,819,42,576,-6,-11,33,-8,-6,18,119,116,n,-4.170436524842112,54.80989155965797,1636.2444015961473,83.90996931262293,1.2347065697425705
2025-02-19 13:24:56.237,870,-35,495,10,6,-53,-10,-5,18,417,114,n,4.0444855741811025,60.300169335224446,1738.6329787412897,-69.94500489189096,0.7777879575422162
2025-02-19 13:24:56.344,809,52,584,-8,-14,43,-9,-7,19,325,115,n,-5.088260197537607,54.067847054326535,1618.7124555448736,104.04579442315628,-0.5143065985242856
2025-02-19 13:24:56.451,1228,60,502,-25,82,40,-8,-6,19,576,88,n,-6.8157683339489274,67.62282180009201,2152.6977465238715,105.18067165426079,123.98838049268466
2025-02-19 13:24:56.555,481,-280,714,-6,4,6,-7,-1,16,486,31,n,21.412969474871765,32.094629959899386,1012.319180783166,-589.2918308093274,-74.69416856378473
2025-02-19 13:24:59.976,764,-110,616,-2,-2,-1,-7,-4,17,469,55,o,10.124671655397817,50.68125098086414,1537.6329057356397,-221.38693668968637,-7.766845462243737
2025-02-19 13:25:00.071,773,-102,604,0,-1,0,-9,-3,16,474,55,o,9.585340332491876,51.6054728769361,1556.7527856138831,-205.418866924471,-8.4019178664754
2025-02-19 13:25:00.177,773,-104,612,-1,-1,0,-7,-5,18,484,57,o,9.644405640108065,51.23307027515571,1552.69950153342,-208.9013559630992,-5.304133167468422
2025-02-19 13:25:00.285,780,-100,617,-1,-1,-1,-11,-4,17,487,56,o,9.206135527169145,51.293139197048234,1560.3555329363285,-200.04558114568323,-0.2812356688652926
2025-02-19 13:25:00.395,777,-98,613,-2,-1,-5,-9,-5,18,498,57,o,9.082985990084417,51.37689239520959,1558.2687958636843,-196.5384066855097,-3.367788757321023
2025-02-19 13:25:00.501,781,-105,620,-8,-1,-5,-10,-4,18,624,58,o,9.612114754365889,51.16044784484012,1559.905225055624,-209.71837212655635,1.6629455384291987
2025-02-19 13:25:00.605,751,-119,627,0,-3,7,-9,-4,17,732,56,o,10.74650105301914,49.64242855368842,1513.0180431178442,-239.74586835023098,-9.1988189545782
2025-02-19 13:25:00.706,791,-87,592,3,-2,0,-7,-4,18,772,58,o,8.360313417780349,52.89401087505564,1588.5208711673858,-174.71721339009176,-4.880348585451998
2025-02-19 13:25:00.825,754,-110,628,11,-9,-4,-7,-6,19,794,64,o,9.935097693450809,49.78308864032445,1517.6054827810847,-221.40133037920333,-8.00032252854271
2025-02-19 13:25:00.928,870,-31,557,4,-19,-12,-8,-3,18,670,93,o,3.185527224301368,57.331167715412796,1711.804536950309,-60.99533407524089,18.051578067445917
2025-02-19 13:25:01.033,688,-122,606,6,-5,2,-7,-4,20,687,83,o,11.382642815080823,48.06074081186829,1431.853771273299,-253.9043024641606,-49.196781092469905
2025-02-19 13:25:01.144,810,-66,553,9,-16,-12,-8,-8,19,749,112,o,6.806000828674903,55.489095097625636,1634.0183716071065,-133.14223768650496,-9.570567282382399
2025-02-19 13:25:01.252,787,-21,583,-10,4,-14,-10,-6,20,712,118,o,2.0629354933919353,53.45163466236989,1590.3544639100269,-42.436396114498805,-12.115187369181285
2025-02-19 13:25:01.356,891,-82,604,39,16,26,-8,-9,19,227,116,o,7.7312982644191495,55.62363113054947,1716.346443667749,-157.95780963047747,44.50589003892196
2025-02-19 13:25:01.467,762,-31,615,17,-19,-5,-8,-5,19,509,120,o,2.885637638881585,51.05793108229118,1539.7818624850963,-62.64204427432806,-12.737329958443752
2025-02-19 13:25:01.575,780,14,576,-23,32,-35,-8,-7,21,647,117,o,-1.3923316172772255,53.5474728291352,1584.349429321177,28.437041039098048,-17.981117037176773
2025-02-19 13:25:01.680,711,-118,647,-52,66,67,-7,-4,16,363,43,o,10.336015120397319,47.23128704780319,1445.1007721670132,-239.83388342574904,-21.02137776660709
2025-02-19 13:25:01.791,635,-178,681,19,-28,-14,-7,-2,15,428,33,o,14.648270211282565,42.05501765723322,1304.8438946014624,-365.767264943402,-37.368019249757026
2025-02-19 13:25:02.906,762,-122,608,-3,-1,-3,-8,-5,17,427,62,p,11.34617268393312,50.86113435759921,1537.6184200748028,-246.18037696735686,-10.866140952073692
2025-02-19 13:25:03.004,769,-128,610,0,-4,-4,-7,-4,17,509,66,p,11.850782798400209,50.97476801586346,1545.8687452388044,-257.30975213337706,-6.241787510624931
2025-02-19 13:25:03.111,796,-100,603,1,-2,-6,-9,-1,18,566,72,p,9.416091088812053,52.479919520476024,1589.1399386598819,-199.64069581154297,2.1666042563958854
2025-02-19 13:25:03.216,751,-107,603,0,-5,-3,-7,-4,18,584,74,p,10.062175566126596,50.803705096390274,1525.985357973609,-217.4173545981041,-19.25854974445599
2025-02-19 13:25:03.317,815,-49,572,1,-4,-8,-8,-5,17,612,92,p,4.896251387716156,54.838713665150955,1632.5341960929995,-98.15236270988584,-1.7786014296877966
2025-02-19 13:25:03.434,755,-212,566,1,14,-9,-8,-4,20,591,115,p,20.533854756125557,51.32166266407513,1535.6667463048818,-431.2070863796489,-19.24156080604382
2025-02-19 13:25:03.541,835,84,558,12,-2,30,-7,-5,20,146,123,p,-8.560889571164607,55.94944743118781,1663.5438691256707,167.35052096593574,4.314396440569681
2025-02-19 13:25:03.647,860,-236,580,-1,-8,-36,-7,-5,18,729,109,p,22.14123812013435,53.94121506008121,1668.4135064389632,-457.84370641813405,34.79089100628073
2025-02-19 13:25:03.749,727,-3,639,2,1,50,-8,-4,18,623,114,p,0.26899229369648114,48.685683124507264,1478.099191068082,-6.099446455576679,-21.182095037832596
2025-02-19 13:25:03.860,700,-85,521,-51,71,38,-9,-4,17,491,64,p,9.266043444650851,52.97910183892082,1498.4159498825857,-181.95050820002825,-73.2495855554672
2025-02-19 13:25:03.970,723,-133,652,28,-36,-20,-7,-2,17,569,59,p,11.52945545927986,47.374489506172516,1458.7956404818578,-268.35383151326016,-11.539083809365707
2025-02-19 13:25:04.887,764,-116,616,-1,-1,-2,-9,-4,19,406,67,q,10.664575517451752,50.63269365995925,1537.095632531886,-233.38101226923925,-7.333651360787712
2025-02-19 13:25:04.982,772,-122,616,-1,-2,-3,-8,-3,17,392,69,q,11.202570114644356,50.87419297043587,1547.7622608492393,-244.59455417565698,-3.002011247579503
2025-02-19 13:25:05.088,767,-105,610,0,-2,-2,-9,-3,18,430,70,q,9.766679395772696,51.096383417881874,1545.2035091527048,-211.53372680708475,-8.910222403063585
2025-02-19 13:25:05.195,761,-109,605,1,-7,0,-8,-6,18,470,74,q,10.21314662349973,51.06850388331532,1538.8978327965426,-220.420320334853,-13.433888097119848
2025-02-19 13:25:05.306,766,-83,597,10,-26,-17,-9,-3,18,533,105,q,7.9150089319019346,51.80187059324158,1551.877082560692,-168.15378309730738,-15.491668784247054
2025-02-19 13:25:05.416,774,-180,601,-18,4,-22,-9,-4,19,307,115,q,16.673001894066925,50.97303154738089,1550.849661640332,-360.6627120093795,-2.212721764650496
2025-02-19 13:25:05.519,813,63,569,-2,-22,28,-8,-5,20,197,115,q,-6.318086893799424,54.84856135975055,1630.6331632257486,126.35902740863733,-3.242644373248254
2025-02-19 13:25:05.626,783,-232,584,-9,2,-17,-8,-5,19,682,112,q,21.665958723290224,51.25129775972618,1562.8986601722154,-463.08108449547126,2.3131321320895495
2025-02-19 13:25:05.731,845,168,497,2,-14,28,-9,-4,19,0,119,q,-18.676701732190114,58.16551643393886,1694.5753898036814,336.90966329824664,-2.691087257313029
2025-02-19 13:25:05.842,907,-83,627,11,14,-3,-7,-4,18,778,110,q,7.540765836084071,55.11114291067899,1727.2631315667804,-158.06266804855875,59.960326910285175
2025-02-19 13:25:05.949,585,-220,674,-17,-1,5,-7,0,16,529,47,q,18.077174296824797,39.52637730875722,1221.433386352405,-459.3424700812463,-59.25829470345457
2025-02-19 13:25:06.054,844,-85,595,-3,0,-4,-7,-3,18,463,57,q,8.13010235415598,54.54405436794414,1658.5617765459167,-167.0352500075864,20.753249946895266
2025-02-19 13:25:06.162,734,-150,617,-4,-3,-4,-8,-2,16,447,55,q,13.664198180723183,49.13744183091596,1490.281169887333,-304.55337259277917,-18.72953926496507
2025-02-19 13:25:06.267,771,-130,616,0,-2,-2,-7,-3,19,412,58,q,11.916780965795425,50.76628397376656,1545.5724333259436,-260.60235581371296,-2.854239855747551
2025-02-19 13:25:06.375,777,-124,610,0,0,-4,-9,-3,18,465,60,q,11.490447880247018,51.3008389576139,1557.4395624156828,-248.54891343570745,-2.700299965980207
2025-02-19 13:25:06.486,761,-122,616,-2,-4,-4,-9,-2,16,507,62,q,11.202570114644356,50.4710989222325,1532.3036353186694,-245.6518311548984,-8.340393372273752
2025-02-19 13:25:06.586,791,-107,609,0,-5,-6,-8,-3,18,543,69,q,9.965037497686506,51.98509421765808,1578.8505595435404,-213.57396949577594,2.4247904399293247
2025-02-19 13:25:06.698,775,-117,605,-2,0,0,-8,-2,17,545,71,q,10.94522842758001,51.51147837592069,1557.7328528983464,-235.16741134078262,-6.036614198063944
2025-02-19 13:25:06.804,793,-103,600,-3,-2,-1,-9,-2,18,517,72,q,9.740830419865711,52.48698062793515,1586.214990397545,-206.02792435176184,-0.1626661267680447
2025-02-19 13:25:06.915,777,-117,598,-1,-1,-1,-7,-3,18,441,71,q,11.07020257793936,51.8957834536031,1563.8896105451486,-235.48916915544703,-7.611309016729365
2025-02-19 13:25:07.017,783,-108,609,-2,-1,-1,-8,-4,17,447,71,q,10.056276316706443,51.69431828455034,1567.714906508928,-216.2365388288176,-1.3338161736103302
2025-02-19 13:25:07.128,771,-113,602,-1,0,-1,-9,-3,19,442,71,q,10.631147760107535,51.53494618871309,1553.9876991558517,-227.756952016357,-9.360045255282444
2025-02-19 13:25:07.234,799,-103,601,-1,-3,-2,-7,-4,18,420,71,q,9.72493246173863,52.65069215470962,1593.9516822820042,-205.47812675224833,3.0451050669779534
2025-02-19 13:25:07.345,779,-113,607,-1,-2,-1,-10,-2,18,423,71,q,10.545548747618497,51.59996627692613,1562.693091731368,-226.6807694039083,-3.656876355507279
2025-02-19 13:25:08.156,781,-114,606,-2,-1,-2,-9,-3,19,412,72,r,10.653902599938489,51.70755001320599,1565.8580336070481,-228.56314447017093,-2.993557446697764
2025-02-19 13:25:08.258,773,-109,604,-3,-1,-2,-7,-5,17,446,74,r,10.229699030710904,51.55067639291629,1556.1584461328266,-219.43243289583194,-7.937518064977098
2025-02-19 13:25:08.364,781,-103,601,-3,-1,-2,-9,-4,19,473,76,r,9.72493246173863,52.01922129166225,1569.2172481864648,-206.95182658541086,-5.553861920698296
2025-02-19 13:25:08.472,786,-102,602,-3,-1,-2,-8,-4,19,490,79,r,9.616591570049946,52.15924585331855,1575.7188553908154,-204.4825995545333,-2.848283645382935
2025-02-19 13:25:08.578,789,-111,588,-5,2,1,-9,-3,17,573,80,r,10.690238276499098,52.82296388932696,1585.7721746327456,-223.0934238076486,-5.792190981057388
2025-02-19 13:25:08.686,751,-129,613,-4,3,4,-7,-3,18,674,71,r,11.883947377835328,50.16773759209775,1518.9229654892983,-260.9068742318502,-13.813286078481724
2025-02-19 13:25:08.791,779,-125,602,2,-7,-1,-7,-3,18,690,76,r,11.730276743931451,51.71705860360024,1563.960861814656,-250.9564925890013,-4.606468308630156
2025-02-19 13:25:08.899,770,-101,592,7,-11,-5,-8,-2,18,717,89,r,9.681905286588316,52.04790142272701,1558.5251942603986,-204.429928078312,-14.242746756046472
2025-02-19 13:25:09.012,700,-119,609,4,-12,-20,-10,-5,20,717,106,r,11.056412980248188,48.44450004864503,1448.3135180458644,-246.21329806779693,-42.03276069990193
2025-02-19 13:25:09.115,796,-284,567,7,7,-38,-9,-6,19,616,115,r,26.605457220811925,51.45673175366344,1578.1378272716709,-563.0541996798423,9.87418585045566
2025-02-19 13:25:09.225,1059,-67,622,-9,-20,-5,-8,-4,19,350,122,r,6.148026568703167,59.427775866588384,1919.988699114686,-121.47237284294991,116.30125509977842
2025-02-19 13:25:09.332,903,104,632,-8,-31,24,-9,-6,20,760,117,r,-9.344671902099691,54.65184170505806,1718.6516004890043,197.93994069862288,61.13420652375328
2025-02-19 13:25:09.439,635,-240,628,-14,34,9,-8,-4,19,741,65,r,20.91513662903316,43.36577920590136,1321.6534302734976,-499.5225563238417,-51.084022380719034
2025-02-19 13:25:10.355,791,-96,592,0,-2,-2,-8,-3,19,591,81,s,9.211026540816668,52.83073027708667,1587.8540768607468,-192.7104821474484,-4.381306575931717
2025-02-19 13:25:10.450,790,-98,590,-1,-3,-2,-7,-4,17,632,84,s,9.430823706793646,52.871807072821575,1587.287018117153,-196.90395920946958,-5.44220340394952
2025-02-19 13:25:10.561,786,-109,597,-1,-2,-2,-8,-6,18,662,87,s,10.347068848384001,52.328342034430705,1577.525935229955,-218.76631926216936,-4.197179812065087
2025-02-19 13:25:10.667,785,-113,585,-2,-2,-2,-7,-4,19,679,87,s,10.932743851175792,52.8015606837776,1581.5463864466096,-227.6620912974101,-8.604631937919294
2025-02-19 13:25:10.767,795,-94,592,-3,3,3,-8,-4,18,684,84,s,9.022319386055855,52.98433224470629,1593.4709115145902,-188.410397084744,-2.5846284486004834
2025-02-19 13:25:10.880,795,-112,604,-3,4,6,-9,-5,19,687,77,s,10.50506386991735,52.30674492317138,1586.2955171311612,-223.47811058954727,2.8144750349415517
2025-02-19 13:25:10.985,748,-163,610,4,-12,-5,-9,-3,20,682,73,s,14.960643751563175,49.83159020749624,1512.1517876411594,-329.5197077346377,-13.171912381159359
2025-02-19 13:25:11.093,813,-101,573,3,-8,-3,-9,-5,18,713,93,s,9.996570845098086,54.410136330109566,1626.2037330558928,-202.02531001063363,-0.143590456366951
2025-02-19 13:25:11.204,790,-113,588,2,-3,1,-9,-4,19,748,100,s,10.878298671487213,52.84065712136383,1586.9587413627505,-226.9953642708745,-5.179417621895482
2025-02-19 13:25:11.310,749,-98,534,-3,7,-4,-8,-5,20,749,118,s,10.39923811238722,54.063251489173446,1558.6653848841088,-203.93752699418252,-43.251422600953674
2025-02-19 13:25:11.417,857,-80,472,17,10,-9,-10,-6,19,541,118,s,9.619727799698852,60.81169059504988,1730.0216016783497,-161.4955987564387,-8.824032662988373
2025-02-19 13:25:11.516,799,60,684,1,-22,16,-8,-3,19,595,120,s,-5.013113755035808,49.325641570241885,1557.426093752491,116.9531484670206,34.734107475965175
2025-02-19 13:25:11.632,1252,-52,532,-2,49,4,-9,-4,19,433,103,s,5.582605756531074,66.88017652370651,2171.6856995405415,-90.1978086071151,141.2070350195146
2025-02-19 13:25:11.740,514,-236,717,14,-23,-12,-8,-1,17,588,46,s,18.218920514554764,34.252438860752,1076.8401119285404,-494.4246428310029,-68.12910555012331
2025-02-19 13:25:12.547,779,-90,606,-2,0,-2,-8,-2,18,636,77,t,8.447527247908466,51.81662099140353,1565.036254832095,-180.8129177598056,-5.473646249357671
2025-02-19 13:25:12.653,777,-84,610,-1,-2,-2,-7,-5,17,657,79,t,7.840599271450611,51.60390259526222,1560.7357638315416,-168.72819068449095,-5.288051399279539
2025-02-19 13:25:12.756,786,-80,604,-4,-1,-2,-9,-4,19,673,80,t,7.544929038756831,52.21862436101825,1576.3542000008038,-160.4431755726009,-3.3459755731367977
2025-02-19 13:25:12.867,790,-72,607,-5,1,-2,-9,-4,17,689,81,t,6.764597165271385,52.26941581943546,1580.8969903963666,-144.08175102346635,-0.6892065450565497
2025-02-19 13:25:12.973,791,-87,600,-8,3,-5,-9,-5,17,723,79,t,8.250387228905499,52.531058457563404,1584.6832164500538,-174.29511988767976,-2.0353095702050723
2025-02-19 13:25:13.080,738,-122,628,-4,1,-4,-7,-4,18,771,72,t,10.993772583237362,49.07938500524064,1493.6178448083947,-246.9124350496262,-14.991878780043066
2025-02-19 13:25:13.190,772,-104,607,5,-10,-6,-9,-6,18,787,81,t,9.7223386429144,51.419703818658924,1553.7349762178815,-209.31144757339337,-7.654314202401451
2025-02-19 13:25:13.296,896,31,541,-12,10,-3,-10,-5,18,772,103,t,-3.2795360537889438,58.83507664959066,1751.6812375512768,60.60504281706426,24.344252773168932
2025-02-19 13:25:13.403,844,77,521,-11,-9,-5,-8,-7,19,792,110,t,-8.407040055497202,58.03567637757345,1692.3778966960247,154.39940526729134,-2.7024694059584817
2025-02-19 13:25:13.509,825,-34,562,3,2,1,-8,-7,19,795,107,t,3.4620730561350914,55.68812037242325,1650.9814360293333,-68.04044706060283,-0.6685661193761234
2025-02-19 13:25:13.621,696,-66,626,-1,-13,-1,-8,-5,17,800,86,t,6.018534608581314,47.8734824316169,1437.665475425089,-136.33034680755156,-41.07268335647359
2025-02-19 13:25:13.725,828,-31,563,-10,1,-7,-9,-6,20,806,109,t,3.151647249774622,55.745854537809784,1654.5490269217048,-61.94567612871117,0.9865915979230522
2025-02-19 13:25:13.836,805,-50,559,-8,-1,-13,-10,-6,18,764,113,t,5.111244256451733,55.11647720632389,1625.316380526526,-100.95132798301404,-10.635846850096982
2025-02-19 13:25:13.944,941,138,514,-5,-11,45,-8,-4,18,220,115,t,-15.028505067927291,60.508728118555496,1811.4306988916474,265.6508357566922,38.54688710913206
2025-02-19 13:25:14.050,711,-97,686,14,13,-28,-7,-3,18,779,114,t,8.048234588562293,45.74179803069003,1427.2020464256284,-194.70970253626714,-5.019133400817168
2025-02-19 13:25:14.150,990,1,594,-25,0,-23,-9,-5,18,469,111,t,-0.09645745014202581,59.03620764742859,1847.4926040570247,1.8661541455121458,79.50443756578534
2025-02-19 13:25:14.263,664,-110,647,6,-28,14,-8,-6,22,759,117,t,9.648906000783581,45.33483366608788,1375.226979850023,-227.8237466619014,-46.017855365911146
2025-02-19 13:25:14.370,706,-181,430,-35,70,21,-8,-5,18,670,64,t,22.827697037211927,56.54232691080985,1540.293334598468,-394.8910673687291,-78.13899982626242
2025-02-19 13:25:15.289,775,-75,599,-1,-2,-2,-7,-4,19,617,105,u,7.136788647793685,52.08361473501537,1563.9083812405415,-151.34597237811693,-10.749832726560385
2025-02-19 13:25:15.385,790,-72,595,-2,-1,-1,-9,-6,19,607,107,u,6.899723675016606,52.81390676062013,1586.6766421081384,-144.60850409086834,-5.028610195370106
2025-02-19 13:25:15.491,768,-57,610,0,4,-3,-10,-6,17,566,109,u,5.338366576223783,51.41955404380115,1549.7333460564219,-115.0192717776251,-10.907996216689526
2025-02-19 13:25:15.598,791,-124,595,-8,-1,-8,-8,-7,18,485,113,u,11.772134286344608,52.462268284745,1583.9522729171272,-248.30604531191372,-1.4685238757149364
2025-02-19 13:25:15.709,822,101,574,18,-23,28,-9,-5,20,589,114,u,-9.9795056066316,54.6624243846301,1637.7584450470229,201.23309361283373,4.3584580815191885
2025-02-19 13:25:15.815,806,-150,526,-10,-2,-30,-8,-5,18,753,112,u,15.916618515340149,55.838297051602915,1633.4560914392428,-303.9930691264099,-14.002362403277402
2025-02-19 13:25:15.922,913,53,563,14,-7,11,-9,-4,20,536,115,u,-5.377892192057968,58.22697047173111,1763.14064931136,102.35099059529256,38.76211877076037
2025-02-19 13:25:16.029,618,-198,676,-16,15,-4,-7,-3,18,669,53,u,16.325276548037866,41.261831820546924,1277.5010591372002,-409.2964558400737,-45.39598054489818
2025-02-19 13:25:16.136,809,-101,607,1,-6,-3,-9,-3,18,615,62,u,9.44701475994924,52.74248258684101,1604.9225789266452,-200.3673429809532,9.81210703526142
2025-02-19 13:25:17.146,772,-94,611,1,-2,0,-7,-4,17,565,78,v,8.74616226255521,51.3135701794102,1552.5784706137538,-189.0445288053016,-6.789437234460479
2025-02-19 13:25:17.250,793,-86,601,0,-2,0,-8,-4,16,575,83,v,8.143448680379318,52.56228143189147,1587.0146048898318,-172.11003281276868,-0.7689502380695785
2025-02-19 13:25:17.356,777,-88,607,1,-1,-2,-8,-5,18,578,85,v,8.249000503894965,51.71325805404589,1561.9197643415037,-176.89696172722307,-6.186997368459174
2025-02-19 13:25:17.466,725,-82,616,9,-11,-27,-8,-6,16,528,107,v,7.582457962668596,49.398465973225186,1484.2538833522713,-167.87423232398106,-29.103989165516282
2025-02-19 13:25:17.566,874,-221,706,-4,-37,57,-9,-7,18,472,111,v,17.381746162771552,49.75434953656326,1637.2815172671662,-414.00367885130856,89.43621145238069
2025-02-19 13:25:17.681,785,-131,441,28,-7,-57,-8,-5,21,454,121,v,16.544165467641594,59.62776045867131,1647.7587470899384,-274.9763004697858,-43.683576390653
2025-02-19 13:25:17.786,973,-3,602,-13,9,23,-8,-4,18,763,110,v,0.2855247768566811,58.25439425793105,1823.3925800868863,-5.621970956074676,75.85782814768197
2025-02-19 13:25:17.892,610,-190,653,-8,8,8,-8,-3,16,442,50,v,16.223135334902633,41.89061661218468,1277.7106498601975,-397.9754483171107,-61.77877763722779
2025-02-19 13:25:17.998,829,-91,597,1,-1,-2,-8,-4,18,483,59,v,8.666815268757869,53.928053295502416,1637.2782707551578,-179.7253590334371,14.922644582835801
2025-02-19 13:25:19.316,776,-125,604,-1,-4,0,-7,-5,18,544,68,w,11.692505920181109,51.520775386947534,1558.833828525575,-251.10081000734132,-5.319113955473313
2025-02-19 13:25:19.416,768,-92,606,10,-9,-2,-9,-4,19,594,77,w,8.632452107676766,51.40649961927657,1549.5912401396758,-185.62811730839866,-10.724337922712834
2025-02-19 13:25:19.519,801,-72,599,7,10,5,-7,-4,18,546,83,w,6.854088489736115,53.01300945820621,1599.7721363022474,-143.79974258896607,1.6660304056852056
2025-02-19 13:25:19.630,679,-83,579,16,-15,-33,-8,-5,16,432,94,w,8.157808241509594,49.257024342969736,1436.6450056737428,-175.61345430179773,-67.06253061133566
2025-02-19 13:25:19.740,896,-202,610,0,-4,-10,-7,-5,18,380,109,w,18.32216200105969,54.35339278558495,1708.6269645351545,-385.2038469152915,56.760660305307965
2025-02-19 13:25:19.846,855,16,537,14,-26,-6,-10,-5,18,233,116,w,-1.7066319175994091,57.85684490758041,1701.7214325431687,31.845079439404323,5.199521314992467
2025-02-19 13:25:19.954,788,-114,570,14,0,-19,-8,-6,19,556,114,w,11.309932474020213,53.58471628218673,1592.7354735224078,-230.42112180400315,-12.105609020015777
2025-02-19 13:25:20.056,817,-46,414,9,-10,-52,-8,-4,21,78,122,w,6.34019174590991,62.98522438225665,1707.8894180488912,-96.16023651193267,-37.442128607393954
2025-02-19 13:25:20.166,979,20,571,-24,51,43,-8,-5,18,571,90,w,-2.006037332250209,59.731913123093264,1842.6764330369724,37.644053790336514,67.26226428589257
2025-02-19 13:25:20.276,674,-140,619,7,-17,-3,-8,-2,19,110,55,w,12.744241175059328,46.72301331748934,1402.048163483377,-291.22662149506345,-49.6377050388877
2025-02-19 13:25:21.489,812,-100,574,3,-5,-2,-8,-4,18,419,85,x,9.882656164628681,54.3388979632035,1624.4795044031503,-200.05905226639783,-0.3389600091235252
2025-02-19 13:25:21.587,808,-99,565,2,-5,-2,-9,-3,21,483,92,x,9.938544433074464,54.62864838825183,1623.4173394481068,-198.9088076799042,-5.1866296883422365
2025-02-19 13:25:21.690,814,-92,565,0,-2,-1,-9,-4,20,540,100,x,9.248410182488644,54.88339603762851,1631.9830501090046,-184.4501727395927,-2.764647802933382
2025-02-19 13:25:21.796,806,-93,553,6,-7,-3,-7,-6,19,559,108,x,9.546308925228658,55.17216266789228,1626.8718292709364,-187.71598030049267,-10.203624797553289
2025-02-19 13:25:21.906,804,-62,559,7,-4,-3,-7,-3,20,744,119,x,6.328941838433612,55.02578646197685,1623.4101043641176,-125.18834138131257,-10.714239228286033
2025-02-19 13:25:22.020,813,-144,594,-8,-18,-21,-8,-4,21,613,125,x,13.626994859891541,53.06451634196467,1612.3126609086755,-285.57567425688717,10.0003436903404
2025-02-19 13:25:22.123,842,38,479,18,28,36,-9,-4,19,80,119,x,-4.535885730171203,60.287852575216135,1710.5264514570426,77.19715576646985,-15.090463477343746
2025-02-19 13:25:22.229,415,12,817,7,3,-23,-8,-6,20,598,110,x,-0.8414931676741373,26.926067607595705,867.840399653114,25.094180230933414,-74.49543738938326
2025-02-19 13:25:22.335,806,-29,518,13,-16,34,-7,-4,22,1,125,x,3.2043338196482245,57.23117204466311,1646.8611980386836,-59.25431109568464,-22.40459129533258
2025-02-19 13:25:22.447,591,-227,647,-28,54,20,-7,-3,17,449,48,x,19.33342521665734,40.759220338554364,1243.8816553565212,-477.76841923169263,-67.74523014495651
2025-02-19 13:25:23.766,792,-79,588,-1,-1,-1,-8,-4,18,635,92,y,7.65207952841402,53.163302599958904,1592.3475378349965,-158.8326458193999,-6.197414453254851
2025-02-19 13:25:23.860,798,-76,594,-2,0,-1,-8,-4,18,636,93,y,7.291159402943134,53.114380238626644,1597.8353282745143,-152.17479316900136,-1.3661466103526436
2025-02-19 13:25:23.966,797,-72,590,-1,-1,-3,-10,-3,20,609,94,y,6.957625148775654,53.285607461811196,1598.6254971982144,-144.41786172932427,-3.4241447264070075
2025-02-19 13:25:24.073,804,-68,584,-1,-1,-2,-9,-4,20,614,96,y,6.641519138011537,53.822906543203274,1611.1963686031113,-136.27033963309896,-2.3217403783793316
2025-02-19 13:25:24.180,793,-66,596,-2,0,-1,-8,-5,16,625,97,y,6.319088328995686,52.904502847153786,1590.6313321814255,-132.38545765948814,-3.4807994705292913
2025-02-19 13:25:24.286,786,-74,597,-2,0,-1,-8,-4,18,630,99,y,7.06594855589677,52.5711939723978,1580.1091558541098,-148.76345742137931,-6.1592443319382255
2025-02-19 13:25:24.396,788,-78,599,-2,-1,-3,-8,-5,18,636,100,y,7.41913994348623,52.52731085995273,1581.6434250699283,-156.55861314143965,-4.289862457978529
2025-02-19 13:25:24.496,830,-56,579,-7,-4,-9,-9,-6,18,644,115,y,5.524377609322735,54.97547799137855,1648.906484413953,-111.25152183997753,7.738729547375215
2025-02-19 13:25:24.612,800,-82,553,-5,-1,-26,-8,-6,19,458,118,y,8.434478790034968,55.0538368196331,1619.6906320834003,-166.01828978854857,-13.611149427650616
2025-02-19 13:25:24.719,891,44,544,25,-14,30,-7,-5,19,321,119,y,-4.6241513284290745,58.51070643806084,1743.7377849052925,86.11050789655766,23.360993278923615
2025-02-19 13:25:24.828,505,-233,706,-5,0,-16,-8,-4,18,790,73,y,18.264353641551654,34.18674751184356,1066.8920594516135,-492.2492076281702,-79.5362256887903
2025-02-19 13:25:24.933,806,-176,641,-5,-5,32,-8,-7,19,632,118,y,15.353396101552638,50.48696102838425,1577.4798091881867,-344.462092328934,27.453402370189337
2025-02-19 13:25:25.044,711,-169,380,39,101,-49,-8,-2,20,399,121,y,23.976477201720446,59.67531975164516,1574.178144435118,-374.1717389726229,-81.33290419879711
2025-02-19 13:25:25.150,597,-212,733,-19,28,11,-9,0,16,145,42,y,16.13105214245792,38.03943934231715,1213.2037537745134,-430.819423450916,-23.578478252459604
2025-02-19 13:25:25.255,826,-79,614,13,-25,-16,-8,-3,15,204,51,y,7.331652205417125,53.14957905753281,1626.203913335219,-155.53281979840472,19.17529928834813
2025-02-19 13:25:26.366,796,-85,593,9,-5,-4,-8,-3,18,714,98,z,8.15715418383286,53.03527942505362,1595.0059214886521,-170.3209840785621,-2.239335983380329
2025-02-19 13:25:26.465,787,-84,586,3,1,-4,-6,-5,19,751,103,z,8.157477306450923,53.04912147852772,1586.1511714754597,-169.29694841669456,-9.047759192655008
2025-02-19 13:25:26.579,797,-90,575,-5,-1,-5,-10,-6,16,676,103,z,8.895856969663305,53.86160604618539,1604.594881506207,-181.19641070960932,-7.643735089170718
2025-02-19 13:25:26.682,676,-80,598,1,-3,-9,-7,-4,19,638,109,z,7.619745570496018,48.25120904606167,1422.0714262203621,-168.2924764757825,-61.9862616564742
2025-02-19 13:25:26.792,1006,94,653,29,-42,3,-8,-5,17,737,112,z,-8.19151259807133,56.743288615131256,1842.2219253646867,172.13604471598464,110.20385957938333
2025-02-19 13:25:26.899,741,-32,610,-7,4,24,-6,-4,18,615,116,z,3.0029276213839093,50.49974652914822,1512.6217694331444,-65.32239760035172,-25.208204256704562
2025-02-19 13:25:27.005,867,-4,554,-5,-50,17,-7,-4,19,32,119,z,0.41368075021936446,57.42135463778844,1709.653143069625,-7.8876730937468285,15.557276516064235
2025-02-19 13:25:27.112,847,14,577,5,2,-4,-8,-4,19,529,120,z,-1.389919511618165,55.728372999573395,1673.3772525679597,27.65912814161917,14.048790163267086
2025-02-19 13:25:27.223,816,193,728,-23,-11,-21,-9,-4,19,217,112,z,-14.848109996702904,47.2937206956699,1550.8402681427178,366.8041320484615,72.40721175502608
2025-02-19 13:25:27.328,751,-67,548,14,-4,5,-7,-4,19,621,124,z,6.970545962845375,53.67937796838113,1556.715151276828,-138.8813783429394,-39.92530346165336
2025-02-19 13:25:27.435,639,-141,609,-16,46,30,-6,-3,18,482,61,z,13.035836770066286,45.62955761362169,1353.8335252441661,-298.73321918533236,-72.27326584303148
2025-02-19 13:25:30.151,794,-119,586,0,0,-2,-9,-1,21,402,77,0,11.479056946949935,53.01662875656265,1592.8101391091575,-238.72091505540268,-3.550052289629889
2025-02-19 13:25:30.249,793,-110,590,0,0,-3,-8,-4,18,424,78,0,10.561010691196383,52.88045018452991,1590.3780626185016,-220.60729746284386,-3.2573227552533126
2025-02-19 13:25:30.357,780,-111,591,-1,0,-3,-8,-4,17,485,78,0,10.637214509290075,52.36991824902853,1571.969192341559,-223.70330814091415,-9.068964966488807
2025-02-19 13:25:30.461,791,-100,600,-4,1,-7,-6,-4,20,573,81,0,9.462322208025617,52.43984075582901,1583.7137176622186,-200.21665204326405,-1.2999122595842891
2025-02-19 13:25:30.569,806,-89,607,-7,12,-9,-6,-5,18,625,80,0,8.34142746139944,52.72328282433454,1601.7196657940929,-176.86482661994327,7.742137547128664
2025-02-19 13:25:30.678,753,-101,611,-15,9,-4,-8,-3,18,696,66,0,9.38627263825415,50.565016631731204,1525.3458789256724,-204.59486556639163,-15.697652089755366
2025-02-19 13:25:30.786,761,-122,624,-10,-4,0,-8,-3,17,776,64,0,11.062512385446372,50.12129054920605,1528.4034552311255,-245.02657232351814,-5.250664998977982
2025-02-19 13:25:30.892,777,-125,613,7,-12,-7,-9,-6,17,817,75,0,11.525464170276972,51.16012334585915,1555.9016731789563,-250.30593197859656,-1.5002904230376544
2025-02-19 13:25:30.995,799,-121,603,10,-8,-1,-7,-5,20,839,85,0,11.346473144776006,52.413169230230885,1591.4298621120388,-241.00502292309972,4.958439482403946
2025-02-19 13:25:31.110,794,-123,589,16,-13,-3,-9,-4,18,842,100,0,11.795478304028347,52.84456852360651,1590.9999749851877,-246.46473164128219,-2.2254222497172123
2025-02-19 13:25:31.211,802,-41,550,0,0,1,-9,-5,19,826,109,0,4.263254591933944,55.484149246738546,1625.969462028936,-83.12312711120495,-15.06633929665179
2025-02-19 13:25:31.315,733,-69,584,0,-13,-8,-7,-6,19,840,114,0,6.738296858820336,51.26106120301267,1513.0053058467374,-142.4247832243177,-37.45033917393539
2025-02-19 13:25:31.428,764,-81,578,-10,1,-18,-9,-7,19,800,121,0,7.977388013917675,52.622445027538475,1558.6524927614055,-165.24980616973016,-23.189974890173175
2025-02-19 13:25:31.540,857,-196,565,48,12,28,-9,-6,19,509,117,0,19.131795967955544,55.09193057287429,1677.0712878182612,-383.5542268522512,24.34623381876588
2025-02-19 13:25:31.645,846,-21,659,15,-28,-1,-6,-4,20,432,128,0,1.8251962702624445,52.06874533674637,1634.748876849836,-40.57887282960586,44.59632406141634
2025-02-19 13:25:31.748,885,-58,397,23,26,-24,-9,-7,20,718,0,0,8.31186487998293,65.61285521244099,1795.7763243824054,-117.68929583523108,-11.562938734254033
2025-02-19 13:25:31.860,466,-174,703,-16,16,36,-8,-2,18,534,49,0,13.901926749278088,32.759529740043064,1007.1143499848561,-376.0469890501395,-113.3162833462527
2025-02-19 13:25:31.965,974,2,529,11,-10,-11,-7,-5,19,554,77,0,-0.21661817211099343,61.49250748624514,1852.7547075577454,3.80442445083726,51.729732753544795
2025-02-19 13:25:32.879,801,-93,581,-2,-4,-2,-7,-6,18,697,82,1,9.094123049534614,53.69985460301433,1606.9267799200531,-186.5720231367852,-3.573606908303077
2025-02-19 13:25:32.978,790,-100,582,-3,-3,-1,-7,-4,18,716,86,1,9.749436739950376,53.221719241499535,1590.958386650822,-201.38713755073695,-8.07314054528888
2025-02-19 13:25:33.087,795,-100,579,-3,-1,0,-8,-5,18,717,91,1,9.79897512443238,53.532470204578686,1599.1938247133032,-201.1564559387803,-6.69587988553792
2025-02-19 13:25:33.195,791,-97,580,-3,1,-2,-8,-4,18,699,93,1,9.494357865583575,53.3716805644126,1593.5226826240844,-195.413021763004,-8.448996108683787
2025-02-19 13:25:33.295,882,111,539,-18,-13,-12,-7,-5,22,610,122,1,-11.636633306874307,58.03851027784325,1730.4040798138094,217.77194201738416,20.530840113783256
2025-02-19 13:25:33.411,672,-154,671,12,-7,-4,-9,-6,18,800,119,1,12.925999124705953,44.30743027721805,1370.508092596829,-314.0747712201067,-26.468646030464924
2025-02-19 13:25:33.516,913,236,507,10,-21,48,-8,-5,20,207,125,1,-24.961188405923057,58.511454292007876,1765.7446026725956,456.4246727609338,33.46055470426512
2025-02-19 13:25:33.624,814,-122,657,2,59,12,-8,-3,19,654,106,1,10.519580013817514,50.616643193796016,1586.9179164802745,-237.84273441104855,33.158389278205846
2025-02-19 13:25:33.727,873,-148,568,10,-7,-20,-9,-4,19,29,119,1,14.604447446790124,56.08492721078743,1702.865530482427,-288.68739806574933,28.064580396313204
2025-02-19 13:25:33.837,802,-52,537,27,2,12,-8,-4,22,196,130,1,5.530950005815873,56.07096277237978,1631.7295159572484,-105.79792372790139,-18.567020036212398
2025-02-19 13:25:33.949,651,-173,594,-35,49,18,-7,-3,20,366,56,1,16.237978377424632,46.4581603604911,1375.8715139754922,-365.6309860487867,-67.4035012310942
2025-02-19 13:25:34.865,789,-80,584,-1,-1,-2,-10,-4,19,658,91,2,7.800187884181699,53.23696033000578,1590.1176221329692,-161.22865623654945,-8.969190526811076
2025-02-19 13:25:34.960,801,-57,589,0,-1,-2,-8,-5,20,666,93,2,5.527540151656172,53.5442681251674,1605.3161953215808,-114.23598393674172,-2.4385006796644575
2025-02-19 13:25:35.066,813,-66,582,1,2,-3,-9,-7,18,663,96,2,6.469819985173174,54.22892885575032,1624.3590629376333,-131.86678739715103,1.1746929523953895
2025-02-19 13:25:35.166,763,-48,607,3,-6,-9,-8,-5,20,670,109,2,4.521394202834611,51.40917398922792,1544.6203557040117,-97.17139852397452,-14.813310501094406
2025-02-19 13:25:35.283,811,-137,498,48,19,-11,-9,-7,19,636,114,2,15.381599247085083,57.50820479116284,1654.468378802319,-279.48479395304264,-19.937426194272007
2025-02-19 13:25:35.389,707,-108,634,23,-8,43,-7,-6,18,776,115,2,9.667367578369026,47.708315650578406,1446.7287651839242,-220.9995850634566,-29.34941602066192
2025-02-19 13:25:35.495,923,-77,437,6,14,0,-8,-4,20,190,118,2,9.993020068226949,64.32409689782166,1824.259325716538,-152.18631427971115,10.293255321639094
2025-02-19 13:25:35.602,713,-60,583,8,-25,16,-7,-3,17,156,124,2,5.875962500325715,50.58011439436487,1485.5132314912714,-125.00812607219673,-48.66229166817823
2025-02-19 13:25:35.710,761,-103,511,-33,82,38,-7,-2,15,414,57,2,11.396156305864642,55.589252357635885,1586.0075062653386,-214.66330242487498,-42.98007319525357
2025-02-19 13:25:36.830,801,-46,596,2,-4,-3,-8,-6,17,726,90,3,4.413407889831428,53.26665243281454,1602.4276757779892,-92.02456065641385,-0.31822067875339144
2025-02-19 13:25:36.926,761,-38,608,-5,-1,-8,-9,-6,17,673,95,3,3.5763343749973515,51.322459687071785,1541.6754396718252,-76.98247924773898,-15.719667963823554
2025-02-19 13:25:37.035,816,-20,546,-18,2,-4,-10,-6,20,588,115,3,2.097808586192149,56.19506487587775,1646.9365501335174,-40.36609191503719,-9.99430928051504
2025-02-19 13:25:37.140,730,-1,655,23,-13,1,-8,-6,18,834,115,3,0.08747440457537949,48.0995989286013,1474.306871374049,-2.0195984539370535,-12.836987328769965
2025-02-19 13:25:37.246,895,44,401,-49,11,10,-7,-6,19,433,119,3,-6.261768882875441,65.73730120165199,1806.6709911650282,88.81957945392317,-7.469349114163492
2025-02-19 13:25:37.356,670,-110,692,14,-4,0,-7,-4,20,620,118,3,9.032141426047218,43.717423487534866,1361.1022314313466,-223.4645454588778,-21.7951405231222
2025-02-19 13:25:37.463,1028,-56,253,55,26,14,-7,-4,18,168,121,3,12.480841391756988,75.8524178953921,1997.6693672694055,-108.82245580455901,14.355690740117268
2025-02-19 13:25:37.572,390,-337,750,-27,26,-3,-7,-1,17,503,42,3,24.1959725826134,25.375801330687143,818.5535747006952,-707.3142427541904,-74.14148980902917
2025-02-19 13:25:37.679,909,-19,555,14,-16,-22,-7,-2,19,511,66,3,1.9607114023834662,58.57846033151681,1762.3548695747788,-36.8369004641593,33.9747495995573
2025-02-19 13:25:38.595,793,-45,586,-1,-1,-1,-8,-6,19,748,90,4,4.391228416565695,53.456317836499956,1596.4031355885904,-90.590341868205,-7.687562994847326
2025-02-19 13:25:38.691,802,-37,584,0,-6,-5,-11,-4,18,749,97,4,3.6251954905489567,53.88403102635286,1609.825636912744,-74.26876379772011,-4.242109672122638
2025-02-19 13:25:38.797,781,-33,582,-2,-2,-8,-8,-6,19,748,100,4,3.245254903890165,53.26250894819575,1582.3844212163615,-66.8613135725223,-15.190439369938872
2025-02-19 13:25:38.896,791,-28,601,-2,0,-1,-9,-6,19,770,112,4,2.667425321408986,52.74258780738258,1586.9236907061404,-56.17428993650055,-3.741008994172489
2025-02-19 13:25:39.009,791,-68,676,18,13,26,-11,-6,19,542,113,4,5.744158323767166,49.339817685959076,1549.5873286922424,-133.21357566507268,27.700336035453915
2025-02-19 13:25:39.123,873,90,565,-5,-47,3,-8,-7,18,538,115,4,-9.050721677183725,56.76104700562484,1709.3918548675929,176.22596441933945,23.69255670081327
2025-02-19 13:25:39.223,855,46,550,6,0,20,-7,-4,20,693,118,4,-4.780883874831956,57.15691609640201,1695.1590251660054,91.20153819606578,9.546825916604803
2025-02-19 13:25:39.338,559,-179,634,-6,-38,-35,-9,-7,20,768,96,4,15.766197842040741,40.315685131849364,1205.9985412138487,-386.1784237518407,-99.80514334450834
2025-02-19 13:25:39.444,740,-43,609,-12,-38,101,-9,-7,19,184,122,4,4.038811975753012,50.476623548956425,1511.3650017784892,-87.82256091415545,-25.812548760945788
2025-02-19 13:25:39.554,1287,-102,594,-49,110,46,-8,-3,19,742,82,4,9.74364128703716,64.90660468719092,2192.6176919625223,-173.77389633269408,176.02260370960505
2025-02-19 13:25:39.658,633,-153,670,9,-30,-22,-7,-2,15,669,45,4,12.863391002198028,42.64710755418977,1310.480946554856,-316.75131883553394,-47.08093869155368
2025-02-19 13:25:40.575,800,-50,592,2,-1,-3,-9,-6,19,732,96,5,4.827712985811889,53.401140118835954,1602.8293392081393,-100.17683370050871,-2.0937110140231425
2025-02-19 13:25:40.673,806,-25,592,3,-1,-4,-7,-6,18,742,103,5,2.4181484980228003,53.67868463385245,1611.707983774233,-49.99094242475908,0.21448338170500847
2025-02-19 13:25:40.776,802,-33,593,1,4,-4,-9,-7,18,741,104,5,3.185181364783118,53.47836791879155,1605.6322273673147,-66.06716147521371,-1.2068713576280743
2025-02-19 13:25:40.886,806,-16,592,12,7,-14,-9,-6,18,619,106,5,1.548157698977968,53.693060199097204,1611.8565702945955,-31.99715276019048,0.10534787295227943
2025-02-19 13:25:40.992,739,85,586,0,-50,11,-8,-9,19,799,110,5,-8.253260037803592,51.2961305660924,1519.38818019482,174.76048080725263,-32.81931474176531
2025-02-19 13:25:41.100,714,-18,544,9,35,14,-7,-7,19,831,110,5,1.8951248216930838,52.680939085763434,1509.2718392174029,-38.04886989623705,-61.921401308497366
2025-02-19 13:25:41.209,693,-42,628,10,-16,-14,-9,-6,19,687,97,5,3.8261855463300494,47.753351941730706,1433.2574613051497,-86.86408856394846,-42.82494328951498
2025-02-19 13:25:41.316,803,158,565,-5,-9,17,-6,-6,16,598,108,5,-15.623437522321035,53.84792970719679,1610.4540898049777,316.8763962505436,-3.13394861744996
2025-02-19 13:25:41.423,825,-6,565,0,-4,-2,-9,-7,17,655,108,5,0.6084278851414526,55.5932596403687,1650.0470290210196,-12.000342029243779,-0.03220775378906637
2025-02-19 13:25:41.533,733,-23,640,-3,-16,12,-8,-5,19,693,113,5,2.058181331458468,48.856684774079525,1486.0662057214636,-46.6296353773447,-17.520288760895824
2025-02-19 13:25:41.636,791,-3,520,-5,23,14,-7,-6,17,218,118,5,0.33054890681394017,56.67881495127674,1626.6043036826181,-6.1691692933601185,-29.322677515753867
2025-02-19 13:25:41.747,632,-111,624,-23,37,16,-10,-2,17,538,62,5,10.08653168465378,44.91871797046497,1338.102940700069,-235.01491521789183,-73.164928792473
2025-02-19 13:25:41.853,772,-83,632,2,-15,-19,-6,-3,18,539,55,5,7.481786391309124,50.45411015661138,1543.114882544552,-165.90483840828733,0.724603927257931
2025-02-19 13:25:42.871,769,-90,607,2,-7,-6,-10,-5,17,752,84,6,8.433810717013632,51.411321591782034,1550.6437351782301,-181.47976094413616,-9.980165478784897
2025-02-19 13:25:42.967,788,-46,581,2,-2,-6,-7,-5,19,781,96,6,4.526883618819068,53.51274303366907,1591.989134018062,-92.93337584369397,-11.788942721438957
2025-02-19 13:25:43.073,822,-17,580,0,-1,-4,-8,-6,19,800,102,6,1.6788783920395784,54.78176547971717,1638.9614059785833,-33.89579550077362,3.5552123265470073
2025-02-19 13:25:43.184,769,-57,594,7,-13,-11,-9,-5,18,819,112,6,5.481296594697345,52.189254163806524,1559.0400476252216,-115.55953538964582,-16.252000376308956
2025-02-19 13:25:43.290,724,-78,630,10,13,-14,-8,-5,19,721,112,6,7.057846649881076,48.75540209974187,1475.9019701795078,-159.00601336188066,-24.279338692113356
2025-02-19 13:25:43.397,931,75,513,6,-20,60,-8,-5,18,401,112,6,-8.3176492441064,60.88752590297378,1804.6663202758612,145.3812825141671,31.592027603096938
2025-02-19 13:25:43.503,729,-89,593,0,-1,-33,-9,-3,18,758,119,6,8.535490255728888,50.56087218360611,1501.299930020125,-183.28627403537877,-35.222028123366385
2025-02-19 13:25:43.609,1143,99,613,-18,31,36,-9,-4,18,737,100,6,-9.174101231527288,61.48666583208355,2021.7060420281487,175.10839734102072,141.7429538379222
2025-02-19 13:25:43.716,561,-181,704,3,-12,-6,-6,-3,16,730,45,6,14.418592009863364,37.660075127640546,1171.975551005342,-378.12401913006585,-62.714416947880295
2025-02-19 13:25:43.825,830,-71,616,-5,-4,-10,-8,-3,17,723,56,6,6.574883742093653,53.23724619626476,1631.1206082581193,-139.52959420039332,21.433379895178973
2025-02-19 13:25:44.744,796,-34,601,0,-3,-5,-6,-5,19,757,95,7,3.2379072815662395,52.90224875212474,1593.6076029956155,-68.0686664596117,-1.2137806537247116
2025-02-19 13:25:44.839,788,-31,597,-4,1,-3,-10,-5,17,740,95,7,2.972488035173487,52.8147760941082,1584.6858125029144,-62.34170074567301,-6.580495005380385
2025-02-19 13:25:44.945,773,-34,603,-2,2,-3,-8,-6,18,709,94,7,3.2271906909675856,51.998895810389286,1560.9988885898777,-68.65971825621713,-11.70029730879196
2025-02-19 13:25:45.057,683,-50,603,5,-6,-10,-8,-7,20,652,100,7,4.740050237414964,48.462280236213154,1431.5193331664389,-104.79643727426344,-57.84503352761715
2025-02-19 13:25:45.158,740,22,570,11,-24,18,-9,-6,17,824,109,7,-2.2103189243539045,52.37339060338289,1532.0061933390884,45.54613007224317,-40.05882459902773
2025-02-19 13:25:45.269,769,-156,635,28,-9,45,-6,-6,18,704,114,7,13.802471184052472,49.6254518950932,1530.8261398040645,-310.54470456363333,5.923798731364286
2025-02-19 13:25:45.375,921,19,588,3,-11,13,-7,-5,18,661,116,7,-1.8507502769254731,57.4307927116869,1763.7418291763986,36.38555347920909,49.962871275002726
