Timestamp,Acc_X,Acc_Y,Acc_Z,Gyro_X,Gyro_Y,Gyro_Z,Mag_X,Mag_Y,Mag_Z,Force,IR_A,Letter,Roll,Pitch,Lin_Acc_X,Lin_Acc_Y,Lin_Acc_Z
2025-02-19 17:13:49.276,714,-12,686,0,-1,-1,0,-4,2,189,44,noise,1.0021563238376476,46.141383944953276,1435.0517581821682,-24.11851694423812,-6.77521864561254
2025-02-19 17:13:49.369,716,-11,684,0,-3,-1,-1,-4,1,142,44,noise,0.9213439322078354,46.30568960285351,1439.035748559355,-22.1080911091521,-6.7213016963671635
2025-02-19 17:13:49.477,716,-10,685,-2,0,0,-1,-2,4,92,44,noise,0.8363753254224154,46.264530477954814,1438.5393097770846,-20.091331142138053,-6.25618323645665
2025-02-19 17:13:49.583,724,-11,688,-2,0,0,0,-3,1,91,44,noise,0.915988196778321,46.45682612251263,1448.8554718414443,-22.012997500353435,-0.8129345675604327
2025-02-19 17:13:49.689,711,-8,690,-2,0,0,-2,-3,1,55,43,noise,0.6642691290598892,45.856834424783955,1428.6018062498022,-16.074281926861346,-6.406816191790881
2025-02-19 17:13:49.797,705,-17,693,-4,2,0,-2,-3,2,0,42,noise,1.4052423398725307,45.4831812910807,1418.0446722281515,-34.19398500408309,-7.907741637034178
2025-02-19 17:13:49.903,723,-11,695,0,0,1,-1,-3,1,0,41,noise,0.9067639646127293,46.1276374253516,1443.885499967662,-21.967829183463742,2.032610681154665
2025-02-19 17:13:50.013,714,-21,693,-3,0,-1,0,-1,1,0,41,noise,1.735704588928389,45.84195589736467,1431.4209274736859,-42.10061551393194,-3.3203119597542354
2025-02-19 17:13:50.120,715,-16,697,-2,-1,-1,-1,-3,1,0,40,noise,1.3150236688516486,45.72281621944529,1430.9707985943505,-32.0217241643491,-0.9463589094576719
2025-02-19 17:13:50.226,716,-16,698,-1,-1,0,-1,-3,0,2,40,noise,1.3131403409175062,45.721804877396195,1431.9584756125869,-31.999072080728194,0.04048047823255274
2025-02-19 17:13:50.332,698,-32,698,-1,-1,0,0,-3,0,0,41,noise,2.6249026404811415,44.96992568984927,1404.7355264623502,-64.40048258853182,-8.735526462350208
2025-02-19 17:13:50.443,710,-17,698,-1,-1,-1,-1,-1,1,10,40,noise,1.3951801270173545,45.479811524156986,1423.003435736477,-34.071913250028324,-2.95267344233946
2025-02-19 17:13:50.546,713,-25,696,0,-1,0,0,-2,1,17,41,noise,2.057153639035443,45.672793115111205,1428.3610107251,-50.082784387275595,-2.304717341752621
2025-02-19 17:13:50.656,708,-22,696,-1,-1,-1,-1,-3,1,19,41,noise,1.8104706789570473,45.475393123419515,1420.9493631724363,-44.15379377089491,-4.865475661038886
2025-02-19 17:13:50.763,714,-23,698,-1,-1,0,0,-1,0,19,42,noise,1.8872869455254562,45.6336757486543,1428.8837852126283,-46.02846927155525,-0.8639805019813593
2025-02-19 17:13:50.869,712,-21,695,-1,0,-1,-1,-3,2,18,41,noise,1.7307127977306092,45.67917141888767,1427.438793382964,-42.101425085733474,-3.356687361179297
2025-02-19 17:13:51.992,729,-83,622,-3,-5,-15,-2,-5,7,432,56,A,7.600677043749541,49.27857526754409,1486.8904426598174,-169.28930965811364,-24.65000731742998
2025-02-19 17:13:52.086,773,-27,609,7,-7,-12,-2,-5,7,552,65,A,2.5385445983987927,51.74021137119111,1558.2111510564223,-54.426521446990165,-9.620428193222665
2025-02-19 17:13:52.192,767,-28,632,-3,-5,-13,0,-7,7,656,73,A,2.536761738159984,50.48426118218504,1538.4498272854323,-56.16244480311879,-3.6666112703954923
2025-02-19 17:13:52.303,738,-27,618,-1,-9,-17,-2,-5,5,684,82,A,2.501622814281763,50.030355925930586,1504.3848914419448,-55.03847163811993,-23.769461939189455
2025-02-19 17:13:52.410,785,-14,623,-6,-3,-15,-1,-9,7,701,104,A,1.2873289415250384,51.556366515023164,1568.220196282511,-27.968258277649877,1.4125066445805032
2025-02-19 17:13:52.512,878,301,454,7,9,45,-2,-6,7,0,98,A,-33.54420282197953,58.1842452887702,1727.7477629891569,592.314438109039,14.608787702645543
2025-02-19 17:13:52.626,728,-104,584,-17,5,-63,-2,-7,6,499,89,A,10.097504384075286,50.82620902335745,1503.2335191520838,-214.74764559315486,-37.890625253869416
2025-02-19 17:13:52.728,738,-82,644,-1,-28,68,-1,-6,5,619,97,A,7.256378242188807,48.66274693482615,1488.8348491477113,-165.4260943497457,-11.200058063856432
2025-02-19 17:13:52.839,954,148,678,14,68,-46,-2,-4,7,631,85,A,-12.313882379585595,53.966843422637886,1762.676712634387,273.45508749464284,103.28007215292007
2025-02-19 17:13:52.942,776,4,574,67,6,-21,-5,-8,7,0,97,A,-0.3992672618467371,53.50934566280249,1579.9538730065594,8.14409212889979,-20.677220497119947
2025-02-19 17:13:53.049,817,47,633,-14,6,15,-2,-7,7,786,98,A,-4.246396971697372,52.15570274915583,1606.6809176778656,92.42840040496901,21.166437099034283
2025-02-19 17:13:53.159,603,-163,742,-2,29,13,-1,-5,3,449,39,A,12.389740556240394,38.44050737583371,1224.701686146515,-331.05534799648746,-23.012688425728015
2025-02-19 17:13:53.876,770,16,617,0,-5,-6,-2,-6,5,350,78,B,-1.4854571554877447,51.28545053204778,1550.2716104832525,32.21343606198967,-8.230628140476597
2025-02-19 17:13:53.974,764,15,624,-10,-3,-1,-3,-5,5,113,83,B,-1.3770371937727444,50.75152550641183,1538.4094896564484,30.2043747969198,-8.501991551863625
2025-02-19 17:13:54.081,767,-42,578,-7,-5,-16,-4,-8,7,86,97,B,4.156056601276426,52.92631649868004,1564.8609038733812,-85.68990607911604,-23.25632651735907
2025-02-19 17:13:54.187,855,237,529,-13,-11,36,-2,-4,7,28,99,B,-24.133101231160406,55.86393694412584,1682.7072937493213,466.43465335507494,16.886364452174348
2025-02-19 17:13:54.297,604,-158,534,-34,8,-58,-2,-6,6,241,89,B,16.4824397735224,47.32413908977325,1339.2002430594782,-350.32059338310853,-115.9949168770886
2025-02-19 17:13:54.400,637,-30,777,8,-12,-2,-4,-6,6,616,99,B,2.2110939771710783,39.324657676581324,1270.713842011889,-59.845235887530094,4.008390512970664
2025-02-19 17:13:54.510,823,-86,439,35,25,-5,-2,-7,5,256,98,B,11.08386524925448,61.47356132422078,1701.596838042024,-177.8096331368336,-29.65615054732524
2025-02-19 17:13:54.617,752,47,616,-3,-1,25,-2,-4,8,144,100,B,-4.363140009151815,50.595875951387946,1524.6878847188448,95.29299279492778,-16.946458759053485
2025-02-19 17:13:54.723,753,28,474,-57,74,24,-2,-4,6,272,51,B,-3.3806322633171813,57.76531382352567,1598.8704141899484,59.453348734818796,-58.46026072514678
2025-02-19 17:13:55.543,772,-26,605,0,-5,-5,-2,-5,7,490,87,C,2.4607837933221925,51.889288315022405,1558.8196507788907,-52.499107409651764,-11.613845493819781
2025-02-19 17:13:55.637,770,6,596,2,-4,-3,-2,-7,7,572,98,C,-0.576783664930211,52.25779298991577,1560.7728361423915,12.161866255655,-16.078714728396562
2025-02-19 17:13:55.747,696,-109,632,13,13,-23,-4,-7,8,357,100,C,9.785442891472387,47.340917000287604,1431.3987061973262,-224.17019967745483,-35.775836661939934
2025-02-19 17:13:55.850,884,221,524,10,-12,59,-2,-6,5,0,92,C,-22.867863527024735,57.24588650122605,1725.0001720230248,431.2500430057562,25.48858581440618
2025-02-19 17:13:55.956,814,34,676,4,3,22,-3,-5,6,751,90,C,-2.8793141173172137,50.25591561589725,1582.9078481178926,66.11654402458026,37.44753645246283
2025-02-19 17:13:56.067,646,-99,680,-20,13,-1,-2,-4,4,561,41,C,8.283393845506515,43.23124366544952,1330.9445142466939,-203.96827695111875,-40.99422552283579
2025-02-19 17:13:56.173,774,-47,640,-2,-8,-7,-3,-4,4,513,48,C,4.200119129067428,50.3378701129311,1543.8215857545615,-93.74627200318395,3.455019531112157
2025-02-19 17:13:56.280,742,-49,645,-10,0,-3,-3,-4,5,469,49,C,4.3443579399331735,48.91882941195058,1495.779388273127,-98.77788413124424,-10.239495196990447
2025-02-19 17:13:56.386,740,-59,645,-5,-2,-7,-2,-5,4,439,51,C,5.226464565292765,48.80561995471455,1492.4795139605417,-118.9949882752324,-10.87741419533711
2025-02-19 17:13:56.497,772,-41,641,-2,-5,-6,-2,-4,5,444,58,C,3.659799081685396,50.239285185766036,1540.722237917879,-81.82592196195989,2.7215615215538946
2025-02-19 17:13:56.604,754,-37,631,-2,-3,-2,-3,-5,5,387,61,C,3.35581484796088,50.02664384675872,1520.3432712081467,-74.60570429005494,-10.329713703369407
2025-02-19 17:13:56.710,760,-28,626,-1,-2,-2,-3,-5,7,418,63,C,2.5610435289603726,50.494154761220436,1531.5596875232416,-56.42588322454047,-9.521532091511972
2025-02-19 17:13:56.816,767,-43,624,-1,-2,-1,-2,-6,6,446,63,C,3.942034992679884,50.80314578885476,1541.9791887087672,-86.44733391717989,-6.491543356285092
2025-02-19 17:13:58.434,761,-39,635,0,0,-4,-3,-5,5,463,63,D,3.514538774422308,50.10435405134156,1528.213894981583,-78.31845191101414,-5.185050345999116
2025-02-19 17:13:58.529,765,-35,632,2,-2,-2,-2,-5,7,480,65,D,3.1697879186677773,50.395315230103506,1535.4611214448196,-70.24985522950155,-4.511671572713567
2025-02-19 17:13:58.639,768,-20,636,0,-3,-3,-3,-6,5,489,69,D,1.801160515722367,50.35708441472893,1538.035584470701,-40.053010012257836,-1.685718389799149
2025-02-19 17:13:58.742,765,0,631,3,-3,-8,-1,-5,4,451,77,D,0.0,50.48293975534742,1536.4351521618432,0.0,-5.307949038069069
2025-02-19 17:13:58.852,803,8,551,-3,-8,-14,-4,-8,7,326,96,D,-0.831822199369744,55.54017125148042,1627.5231051139565,16.214426950076778,-14.768656186538124
2025-02-19 17:13:58.963,816,311,531,-4,-12,48,-2,-5,7,145,94,D,-30.356967729764705,52.978897589328874,1614.413803472266,615.2974177449446,11.443958769885512
2025-02-19 17:13:59.065,859,-64,523,13,6,-73,-3,-8,7,419,90,D,6.976651903050612,58.47549704111191,1711.4166360607112,-127.50950489858617,4.0082646568661175
2025-02-19 17:13:59.172,706,72,757,2,-17,33,-2,-8,6,677,93,D,-5.433188364249545,42.87482160987326,1386.3988903352865,141.38912196053911,27.450481609331632
2025-02-19 17:13:59.282,792,-65,448,32,34,-13,-2,-4,6,248,92,D,8.255397517312737,60.2486067473547,1660.1867478121676,-136.25270026236225,-43.09553411597375
2025-02-19 17:13:59.389,496,-105,721,-18,6,-1,-3,-2,2,360,38,D,8.285797023953748,34.245172748640684,1058.7352843292492,-224.12742914228056,-97.00834677699345
2025-02-19 17:14:00.307,762,-8,636,2,-3,-3,-3,-6,6,190,64,E,0.7206636225176557,50.14785266474167,1529.700614298532,-16.05984896901346,-4.757993036570156
2025-02-19 17:14:00.400,751,-3,627,2,-4,-10,-4,-7,6,183,72,E,0.2741403937332208,50.1416170093699,1518.6308688020379,-6.0664348953476885,-13.884893127666942
2025-02-19 17:14:00.510,795,-39,570,-4,-2,-11,-2,-8,7,86,94,E,3.9141372186124275,54.29680615923572,1607.0509972707287,-78.83646401705462,-12.22524332618275
2025-02-19 17:14:00.618,809,268,544,1,-9,43,-2,-6,6,113,93,E,-26.227026901140448,53.14451038859846,1609.1508552878777,533.0685157195936,5.950475554257764
2025-02-19 17:14:00.728,461,-124,588,-33,7,-64,-2,-7,5,367,79,E,11.908300061317567,37.49328966875438,1069.6685093739247,-287.71994612227047,-188.34942193463723
2025-02-19 17:14:00.830,763,112,641,3,-19,22,-2,-9,7,645,94,E,-9.911067242679199,49.54137923189143,1523.8748011269881,223.68804420212672,1.7853898788999913
2025-02-19 17:14:00.936,535,49,581,-6,12,-1,-2,-7,6,480,82,E,-4.820766078092657,42.53851889253969,1211.0857128208377,110.92186902471221,-153.216447007302
2025-02-19 17:14:01.047,765,100,611,11,-20,20,-2,-7,5,679,92,E,-9.294969105975786,51.01608702631072,1542.3226261003906,201.61080079743667,-9.841992872338096
2025-02-19 17:14:01.153,513,15,439,-31,6,-20,-3,-4,5,331,75,E,-1.9569532239269638,49.42821274312514,1272.5916599210695,37.21028245383245,-211.0209331488295
2025-02-19 17:14:01.260,825,91,590,19,-29,26,-3,-5,5,682,92,E,-8.768053160437969,54.11020245622725,1635.1460408486566,180.36156329360938,10.622831393082038
2025-02-19 17:14:01.371,609,-117,612,-30,51,-3,-1,-4,4,525,43,E,10.823011226207099,44.345102998914236,1307.9784593148806,-251.28650203586378,-90.42170295682592
2025-02-19 17:14:02.186,773,-14,634,-3,-2,-2,-2,-6,7,276,64,F,1.2650009030250364,50.635195024957575,1546.1233230058137,-28.002233534387308,-0.10114720011097234
2025-02-19 17:14:02.281,770,-1,632,-1,-5,-4,-2,-6,7,173,68,F,0.09065780331933092,50.621526594386175,1542.9719935215962,-2.0038597318462283,-2.43935052681627
2025-02-19 17:14:02.387,762,17,624,6,-2,-15,-2,-5,5,58,78,F,-1.5605566988954505,50.6756150832658,1535.5705745977111,34.25813617868909,-9.475116205999598
2025-02-19 17:14:02.492,811,-41,554,1,0,-16,-3,-6,6,0,96,F,4.232585239256403,55.589814666490696,1636.0130524102974,-82.70842805033563,-9.572418045998575
2025-02-19 17:14:02.600,804,162,536,-1,-7,38,-2,-6,7,0,96,F,-16.816854290184555,55.144687629827416,1624.5978694156884,327.3443468225641,-11.065246277125766
2025-02-19 17:14:02.715,443,-294,582,1,-24,-61,-2,-9,5,122,83,F,26.800834946954602,34.19230970544985,1004.9723612404586,-666.9568266471667,-156.30228948520733
2025-02-19 17:14:02.821,729,109,667,-3,-20,32,-2,-9,7,700,94,F,-9.281139369077671,47.16675128054255,1462.33546144894,218.6482377200747,-3.966739076053159
2025-02-19 17:14:02.924,577,67,526,-12,4,-21,-1,-7,6,69,79,F,-7.2590413196862045,47.417693591229565,1313.306079049351,152.49827954299224,-145.22529909871503
2025-02-19 17:14:03.034,735,154,609,2,-30,30,-3,-7,7,705,90,F,-14.191096549023975,49.48106257151587,1495.1912681891654,313.2781704777299,-20.87276507102274
2025-02-19 17:14:03.140,596,-94,535,-51,55,2,-3,-6,5,527,51,F,9.965208085317881,47.65391701808145,1335.089551998479,-210.56781524808224,-128.4444804013193
2025-02-19 17:14:03.247,821,53,629,17,-20,-21,-1,-5,4,490,58,F,-4.816407161480952,52.44498034362419,1613.7683967269531,104.17749698724543,21.629328207973913
2025-02-19 17:14:04.066,804,41,611,1,-8,-4,-3,-6,7,514,81,G,-3.838969805355949,52.70495157164758,1599.525848146229,81.56786041541716,6.4399338092711105
2025-02-19 17:14:04.160,775,83,579,8,-3,-1,-2,-6,5,582,92,G,-8.157808241509594,52.95690644353387,1573.1826444081248,168.4827864333863,-17.319678854586186
2025-02-19 17:14:04.271,756,-30,641,21,5,-23,-3,-7,6,469,93,G,2.679594409888934,49.67501326569012,1518.3861916517149,-60.25342030363947,-5.414747154430302
2025-02-19 17:14:04.377,859,195,528,-22,-14,57,-2,-7,5,462,88,G,-20.270104838593664,56.765265744883145,1695.432212045855,384.8769282292686,13.871702025365039
2025-02-19 17:14:04.484,756,-65,636,6,4,-39,-2,-6,6,722,91,G,5.835439774646369,49.7804022659254,1519.5752083934171,-130.6513075999631,-6.372794362716149
2025-02-19 17:14:04.590,791,167,559,-16,-14,47,0,-5,6,573,93,G,-16.633397857368905,53.58888551630999,1595.7786682444666,336.9090235105259,-9.737390074155428
2025-02-19 17:14:04.701,468,-108,596,-18,-10,-59,-1,-6,5,453,82,G,10.27100372047908,37.691533679078766,1079.4101182257562,-249.0946426674822,-182.63339842425353
2025-02-19 17:14:04.803,718,69,616,7,-28,29,-2,-7,7,725,95,G,-6.39123019625576,49.19581947354521,1474.9473774877779,141.74285382542712,-33.4144631371463
2025-02-19 17:14:04.914,692,-66,544,-51,62,3,-1,-5,6,603,59,G,6.917517828212522,51.624589789468004,1475.9599648686776,-140.77074809441137,-72.2922267175727
2025-02-19 17:14:05.020,784,33,636,6,-18,-18,-1,-7,6,553,60,G,-2.9702306071965188,50.91250019542942,1560.1839828644097,65.67100948281316,6.34054451305542
2025-02-19 17:14:05.737,770,30,624,21,-6,4,-3,-6,5,511,77,H,-2.7524854002686845,50.946694490307394,1546.5601327938152,60.25558958936943,-5.316263458884009
2025-02-19 17:14:05.832,768,40,627,1,-1,-3,-2,-6,5,560,78,H,-3.6502863924766933,50.71457130161499,1542.001264343247,80.31256585121076,-4.899469717728948
2025-02-19 17:14:05.938,766,60,621,2,1,-7,-3,-7,5,476,79,H,-5.51869411505623,50.83786679821962,1541.3620277896885,120.73331810363095,-7.589842372580279
2025-02-19 17:14:06.052,790,-12,593,-12,-13,-16,-1,-8,5,204,92,H,1.1592841937528144,53.10126963181252,1589.6979631558843,-24.1473108327476,-7.279610318277264
2025-02-19 17:14:06.159,791,231,601,-12,-13,62,-2,-8,8,397,91,H,-21.024733197909953,50.85480746543055,1566.548714793404,457.48767777152506,11.739851339019197
2025-02-19 17:14:06.266,616,-65,603,-30,12,-31,-3,-5,5,308,78,H,6.152405813928508,45.445555537815046,1328.584098638736,-140.19150391480167,-94.54579785577562
2025-02-19 17:14:06.372,770,174,603,5,-24,35,-1,-7,4,723,92,H,-16.095876919366574,50.81761500183231,1545.1387630271322,349.16122696976754,-4.024252084884097
2025-02-19 17:14:06.483,640,-255,667,26,-48,-39,-2,-7,7,717,92,H,20.92229746763556,41.86843744217767,1307.4224348480159,-520.9261263847563,-28.5793188181666
2025-02-19 17:14:06.586,800,212,536,-11,-7,63,-2,-5,5,548,94,H,-21.579906287620037,54.22712573738249,1611.3406666014773,427.0052766493916,-7.598246622989905
2025-02-19 17:14:06.692,645,-119,696,-22,32,-2,-2,-3,7,610,49,H,9.702442811822308,42.41071682572948,1319.4404993502508,-243.43165801965867,-31.768352787247295
2025-02-19 17:14:07.810,774,2,639,3,-3,-6,-1,-5,6,608,62,I,-0.17932892776297768,50.457415703844745,1545.1516139634746,3.992639829362983,2.351574518527059
2025-02-19 17:14:07.904,780,14,630,3,-4,-8,-2,-6,6,605,71,I,-1.2730300200567113,51.06554269749451,1557.8653549878313,27.96168585875595,1.7241363559822958
2025-02-19 17:14:08.010,741,22,639,5,6,-10,-1,-7,6,470,73,I,-1.9718457890602985,49.21043361543024,1498.1140316074388,44.47841929198874,-13.895905799127604
2025-02-19 17:14:08.121,679,37,641,14,-8,-17,-2,-9,5,140,82,I,-3.303578911270694,46.60139906806547,1405.5914482936978,76.59334843426629,-44.92800936120807
2025-02-19 17:14:08.228,935,383,643,12,-46,10,-2,-8,6,520,87,I,-30.779948520752345,51.32436448128091,1715.6962152170208,702.7932090140309,106.11479531064776
2025-02-19 17:14:08.337,791,163,646,-23,45,-2,-1,-6,7,747,75,I,-14.161388764757291,49.893088143944695,1555.843691726986,320.6100148565091,21.36153621285348
2025-02-19 17:14:08.440,828,86,664,-7,-7,30,-2,-7,4,536,88,I,-7.379756928294733,51.03993697940953,1605.5844289468696,166.7636001080082,40.42987823584372
2025-02-19 17:14:08.547,865,8,699,11,56,6,-1,-6,5,363,76,I,-0.6557170593083976,51.056748634091896,1642.768890870866,15.193238297071591,70.49080379336976
2025-02-19 17:14:08.653,1151,47,598,11,-29,8,-2,-5,6,0,86,I,-4.493941827019373,62.4737076875541,2037.7988491634428,83.211595057065,137.26523735904533
2025-02-19 17:14:08.760,760,62,626,-16,2,19,0,-5,7,698,0,I,-5.6562156345159735,50.3849594356684,1530.3458877351807,124.84400663102787,-8.521744371346017
2025-02-19 17:14:08.870,588,-73,685,-9,10,-13,0,-3,2,466,38,I,6.083014597416155,40.48277501745244,1237.219416117673,-153.60036968807847,-71.31853748402386
2025-02-19 17:14:09.587,761,20,625,1,-3,-4,-2,-7,5,524,65,J,-1.8328395059420592,50.58977508709253,1533.6202882039188,40.3053952221792,-9.543600693099961
2025-02-19 17:14:09.685,771,29,630,8,-7,-7,-1,-7,6,610,72,J,-2.6355643038327923,50.71731880981884,1545.031626568906,58.114030052526935,-2.477204589378289
2025-02-19 17:14:09.788,756,34,644,7,4,-5,-3,-7,5,589,76,J,-3.0221266694654356,49.534554193831305,1516.7974993131427,68.21576055112018,-4.0867586741585455
2025-02-19 17:14:09.898,676,1,599,15,-16,-27,-2,-7,5,381,85,J,-0.09565229763646367,48.455978540066916,1424.4463959299248,2.10716922474841,-64.19436562429723
2025-02-19 17:14:10.010,690,111,651,-2,-19,26,-2,-9,7,811,67,J,-9.676271099772261,46.25589194649489,1412.4350692009007,227.21781548014494,-30.60178268085008
2025-02-19 17:14:10.116,686,-78,516,-1,-9,-27,-2,-8,6,560,81,J,8.595911436920971,52.73859573989793,1481.8815079096505,-168.49381576815267,-82.65139662008698
2025-02-19 17:14:10.222,769,338,596,-18,-13,49,-2,-5,6,521,90,J,-29.558183183057057,48.29927297973705,1515.6297411856217,666.1675585445255,17.337677832730265
2025-02-19 17:14:10.329,1082,-59,498,33,11,17,-3,-6,5,428,83,J,6.756559823564096,65.13333195331242,1989.28879935562,-108.47323397595343,80.41236406737625
2025-02-19 17:14:10.439,544,-24,681,-11,-16,-17,-1,-3,2,530,38,J,2.018399166793103,38.601404253640844,1167.8987506896983,-51.524944883369045,-100.0203110655965
2025-02-19 17:14:10.542,781,31,646,1,-9,-15,-1,-6,5,420,55,J,-2.7473802654111914,50.37196275027978,1551.2012320017748,61.57136772350194,8.932143568314359
2025-02-19 17:14:11.263,715,20,632,10,-6,-7,-1,-6,5,322,72,K,-1.8125526855155918,48.511787457514586,1464.0920257237944,40.95362309716907,-30.134489870542666
2025-02-19 17:14:11.357,768,76,619,-3,-3,-10,-2,-9,6,22,87,K,-6.9996677870221236,50.9219565882251,1544.2880343543575,152.82017006631662,-6.680069355920864
2025-02-19 17:14:11.467,725,61,701,-19,-13,62,-2,-8,6,231,86,K,-4.973267707454146,45.85621284242158,1442.5942506198612,121.3768955693952,7.160593538589637
2025-02-19 17:14:11.574,900,95,501,32,30,-55,-3,-6,6,565,81,K,-10.736993776336726,60.46471411729105,1770.0522694768035,186.83885066699588,16.670903324579456
2025-02-19 17:14:11.681,799,165,583,-3,-9,-8,-2,-8,7,710,87,K,-15.802513953935529,52.8261549985099,1595.8058289803294,329.54688583448603,1.6010033848159537
2025-02-19 17:14:11.783,958,145,377,4,11,-3,0,-8,8,0,87,K,-21.037511025421818,67.1381650829007,1879.4443991190753,284.4670541464153,14.38565921932036
2025-02-19 17:14:11.893,746,37,592,4,-7,18,-2,-6,7,322,96,K,-3.5763343749973515,51.51129483642988,1528.7308592528786,75.82177183961998,-29.148349433919634
2025-02-19 17:14:12.000,589,-137,723,5,31,-4,-1,-4,5,370,41,K,10.72966456820315,38.674409983213806,1213.8940303153654,-282.3488661344737,-44.06007456368252
2025-02-19 17:14:12.820,768,40,627,3,-4,-8,-3,-7,7,439,72,L,-3.6502863924766933,50.71457130161499,1542.001264343247,80.31256585121076,-4.899469717728948
2025-02-19 17:14:12.914,747,66,620,2,0,-15,-1,-7,6,326,80,L,-6.076344821149005,50.14905648514777,1514.714077922999,133.8301594952047,-17.19240737919563
2025-02-19 17:14:13.020,772,42,609,13,1,-16,-2,-9,5,31,89,L,-3.945186229037563,51.66538338817835,1556.401773038826,84.67470785962524,-9.783263964566117
2025-02-19 17:14:13.127,801,184,524,3,2,20,-1,-7,4,0,85,L,-19.348471534947443,55.264824254820326,1622.7943868732286,372.77673805826976,-13.603319252898586
2025-02-19 17:14:13.233,736,73,635,6,-6,12,-2,-6,7,759,0,L,-6.557970094045604,49.02718104336831,1491.020728836916,147.88656685474848,-16.410547298154484
2025-02-19 17:14:13.348,604,-100,716,-43,50,3,-2,-4,4,611,38,L,7.950773426393001,39.87762147197544,1245.1499440549878,-206.1506529892364,-44.03867540293277
2025-02-19 17:14:14.163,751,24,642,2,-4,-4,-1,-4,5,468,56,M,-2.1409013663230994,49.4544241641681,1510.8891226781611,48.28407316148584,-7.598957069746234
2025-02-19 17:14:14.256,756,31,638,0,0,-3,-3,-6,4,485,59,M,-2.7817763972124108,49.80516639343357,1519.854226820854,62.322064856410684,-6.628302528710151
2025-02-19 17:14:14.363,756,41,636,2,-3,-6,-2,-8,5,469,63,M,-3.688491967890595,49.868572083164246,1520.5679707668291,82.46466508126984,-7.207975407014942
2025-02-19 17:14:14.474,728,53,631,10,-20,-34,-3,-8,5,75,84,M,-4.8012126883005015,48.98291705748028,1482.5139403238563,107.93027312797307,-22.98117629718854
2025-02-19 17:14:14.580,812,287,611,-14,-10,66,-2,-8,5,0,84,M,-25.160465920247272,50.26189462533181,1580.9745632815784,558.7927335736613,32.37505152088147
2025-02-19 17:14:14.687,723,-21,657,5,7,-59,-1,-6,3,454,81,M,1.8307486480254938,47.723586145056665,1462.9080818662505,-42.49110611229774,-15.364605513315041
2025-02-19 17:14:14.793,745,64,610,-38,-25,77,-2,-9,6,572,85,M,-5.9894477471215435,50.535846094000696,1517.0223834695428,130.32138596248421,-22.125709954927743
2025-02-19 17:14:14.904,786,-61,644,37,1,-42,-3,-8,6,728,86,M,5.410940969785187,50.545422985318936,1558.1286113562971,-120.92346729355486,11.365361687716018
2025-02-19 17:14:15.010,812,369,493,-14,-13,68,-2,-5,7,576,89,M,-36.81407196083398,52.824238806513534,1608.7856205694914,731.0860763425396,9.237301797094688
2025-02-19 17:14:15.117,614,-96,672,-38,57,11,-1,-5,3,674,36,M,8.13010235415598,42.12957621472845,1284.809539275133,-200.88227324171459,-62.17591269200216
2025-02-19 17:14:15.936,756,29,643,11,-7,-5,-3,-7,5,476,60,N,-2.5823520518342633,49.589136602936804,1517.4154089894757,58.207733942717994,-4.605962936816127
2025-02-19 17:14:16.026,789,54,624,1,1,-1,-2,-7,4,526,67,N,-4.945966547104157,51.556385537166896,1572.220402701018,107.60443820767424,4.570936266875606
2025-02-19 17:14:16.136,695,80,631,16,-8,-24,-2,-6,4,382,68,N,-7.2255743610233,47.53582875502985,1432.6996592814658,164.91506869426945,-38.767604326050446
2025-02-19 17:14:16.247,767,-11,589,-2,-2,-27,-2,-9,5,51,84,N,1.069915647117707,52.47354280162233,1560.07215086226,-22.373916114061096,-20.021508289271196
2025-02-19 17:14:16.349,820,182,639,13,2,28,-1,-8,7,337,85,N,-15.89801465928357,50.983530257043846,1596.9650304246352,354.4483360210775,33.535787266656484
2025-02-19 17:14:16.459,830,67,640,-19,-8,-14,-2,-8,5,309,84,N,-5.976382693036288,52.21364425157504,1620.3009458866277,130.79537755952293,30.61131883440794
2025-02-19 17:14:16.567,726,341,537,-4,-16,31,-2,-4,7,428,91,N,-32.41592750980727,48.77516349056749,1478.1293102547115,694.2728578469098,-19.327051799972423
2025-02-19 17:14:16.673,807,53,615,16,14,-9,-2,-9,6,743,0,N,-4.925515519389704,52.58739231597524,1601.2809509242657,105.1646721177027,9.6929556153367
2025-02-19 17:14:16.783,529,-36,697,-13,-1,11,-1,-6,4,601,44,N,2.956695562341937,37.16055053979052,1133.0505424525236,-77.1074093162398,-98.88511926164279
2025-02-19 17:14:17.501,778,41,624,-2,-4,-3,-2,-7,5,573,73,O,-3.759223025112451,51.208166561614526,1557.4272689793788,82.0752159744917,-1.1447504410442662
2025-02-19 17:14:17.595,785,38,613,7,-13,1,-3,-6,8,672,78,O,-3.5472384098399736,51.96070495198492,1572.588330457113,76.12529497754176,-2.0212058219236724
2025-02-19 17:14:17.702,776,77,614,-3,-3,-14,-2,-7,7,713,88,O,-7.1479851909317915,51.429925836825774,1557.8462208523472,154.58010181137985,-4.625746911522128
2025-02-19 17:14:17.812,768,-147,538,53,24,-18,-3,-7,5,438,89,O,15.282149262231702,54.01286386542095,1577.1489416509912,-301.8761646128851,-28.825690896137075
2025-02-19 17:14:17.918,816,227,645,-30,-26,12,-3,-6,5,566,88,O,-19.388906945694156,50.038180236027415,1582.4726079178452,440.22215931047896,39.148490064938414
2025-02-19 17:14:18.025,905,130,542,9,35,-13,-2,-8,7,690,84,O,-13.487736661236697,58.37186895210505,1756.4695652045964,252.31054527800833,32.05911122553448
2025-02-19 17:14:18.131,604,-32,698,-32,7,19,-2,-6,4,552,36,O,2.6249026404811415,40.84084284746383,1257.9600559222574,-66.64689037998716,-57.735296413469655
2025-02-19 17:14:18.950,767,49,636,0,-3,-2,-1,-7,3,486,62,P,-4.405594350936013,50.25098827733919,1535.852861446439,98.11837054872946,-1.53640140799871
2025-02-19 17:14:19.045,767,57,632,3,-4,-4,-2,-8,6,486,66,P,-5.153555908880539,50.397888018013894,1537.4897461415317,114.25934228170445,-2.875514421705361
2025-02-19 17:14:19.155,723,55,610,9,-12,-16,-2,-9,6,381,83,P,-5.152081702206227,49.731087082404734,1486.0191474069297,113.04433348185498,-33.76442588966415
2025-02-19 17:14:19.261,789,-143,585,11,6,-4,-2,-7,7,195,88,P,13.736268305622572,52.64640023934826,1583.9062353766112,-287.0704583762426,-4.379147902810473
2025-02-19 17:14:19.368,780,143,684,6,-1,-4,-1,-7,5,354,89,P,-11.808423731022557,48.14339927465252,1524.8171892647538,279.5498180318715,30.852618644754216
2025-02-19 17:14:19.474,825,-48,690,-6,-15,-20,0,-9,5,670,84,P,3.979382452678205,50.024039225112915,1591.3140659877276,-92.58554565746779,49.08278117390046
2025-02-19 17:14:19.580,844,159,499,-6,15,26,-2,-8,5,408,86,P,-17.67381778384009,58.17954606927828,1693.70452171007,319.07466700462226,-3.372697077399266
2025-02-19 17:14:19.693,594,-46,736,-15,26,14,-1,-7,4,470,44,P,3.5763343749973515,38.851218739237794,1221.3002388868058,-94.57880637843951,-41.26090205503215
2025-02-19 17:14:20.506,751,37,641,0,-5,-3,-2,-7,3,437,61,Q,-3.303578911270694,49.47123343520252,1511.079800567295,74.44734037415435,-7.749869725214694
2025-02-19 17:14:20.601,760,48,623,5,-7,0,-2,-8,6,466,68,Q,-4.405738100696445,50.5741098680598,1532.4466801800932,96.78610611663747,-10.203002305523682
2025-02-19 17:14:20.708,766,45,616,0,-3,-1,-2,-6,7,552,73,Q,-4.178146508414096,51.12005667380599,1544.4629224441092,90.73215601825707,-10.022402383252256
2025-02-19 17:14:20.818,758,75,583,-2,-2,-7,-2,-6,6,557,87,Q,-7.330550021342008,52.207583764215535,1548.2361308459901,153.18959078291454,-24.793752352522574
2025-02-19 17:14:20.925,745,74,636,-3,0,-12,-2,-9,6,340,88,Q,-6.636648808039369,49.32257511583978,1503.3912107006963,149.3301336803376,-11.431959739117701
2025-02-19 17:14:21.035,948,251,483,18,-5,73,-1,-10,5,346,84,Q,-27.459489449144737,60.136299737196275,1815.2123918080479,480.61003200824894,41.16077505982378
2025-02-19 17:14:21.142,750,-37,668,2,-3,-53,-3,-6,7,693,86,Q,3.1703291201149733,48.266020784798805,1496.2435366914542,-73.81468114344506,3.3457566534785883
2025-02-19 17:14:21.248,523,74,627,3,-16,-13,-2,-7,4,432,72,Q,-6.731043720645484,39.63771722764668,1160.9310726136619,164.26175788415105,-137.7854350454419
2025-02-19 17:14:21.359,731,142,647,-38,-45,71,-1,-5,6,558,87,Q,-12.378696300161668,47.81854020059289,1472.0219179145129,285.94680211198465,-8.870288496155467
2025-02-19 17:14:21.462,679,21,516,-20,91,0,-1,-4,6,649,51,Q,-2.3305188679789377,52.74446391066588,1474.9435135061005,45.61680969606496,-88.87018110331053
2025-02-19 17:14:22.382,808,74,616,5,-12,-10,-3,-7,6,480,74,R,-6.850108680740024,52.48087223968626,1601.1500657110432,146.63998126561535,11.321237032175077
2025-02-19 17:14:22.473,743,84,623,0,0,-12,-1,-7,5,434,76,R,-7.678963807368697,49.76610858178464,1506.4140959445544,170.30791932616762,-17.11706833574317
2025-02-19 17:14:22.579,842,3,572,-3,-4,-13,-3,-8,5,4,87,R,-0.3004995847972626,55.809997115722055,1669.178635444955,5.94719228780863,10.06867045782144
2025-02-19 17:14:22.689,795,273,539,4,-4,34,-3,-6,7,111,87,R,-26.861917844402686,52.765454850343374,1591.1652443788562,546.4001405225506,-0.7900210317025085
2025-02-19 17:14:22.800,838,-128,531,44,-5,-51,-2,-8,5,509,83,R,13.552853600345621,56.90363047120992,1675.7533179664413,-255.96232064403873,0.15631045324562365
2025-02-19 17:14:22.907,723,206,604,-19,3,33,-1,-8,7,498,84,R,-18.83243546544102,48.56645252583038,1472.723733797462,419.6142312064692,-22.325221595666903
2025-02-19 17:14:23.014,724,105,573,-56,-42,81,-2,-8,5,454,86,R,-10.384020687620144,51.17933577795766,1503.1119241267531,217.99275142722252,-43.61758635998558
2025-02-19 17:14:23.120,752,116,505,-36,88,-7,-1,-5,5,479,57,R,-12.936599965717262,55.43194298964207,1575.4528193559474,243.02197745384296,-47.98360874302307
2025-02-19 17:14:23.227,729,3,644,9,-16,-21,-2,-5,4,315,42,R,-0.2669038745425643,48.542250688709835,1478.4441421661331,6.0841322722886115,-18.060394451288744
2025-02-19 17:14:23.948,773,46,628,-1,-5,-3,-2,-8,6,634,68,S,-4.189342902480625,50.833888604071504,1548.318178061988,92.13795108777677,-1.8833322418220177
2025-02-19 17:14:24.042,783,43,612,-2,-8,-2,-1,-7,6,682,74,S,-4.019078917059806,51.92001927035897,1570.1505676026022,86.22793666272273,-3.2441218043327353
2025-02-19 17:14:24.149,753,39,638,-6,-11,-10,-1,-7,6,728,88,S,-3.4980538622542454,49.67343506089392,1515.368366462391,78.48521419924734,-7.937606644097627
2025-02-19 17:14:24.254,841,25,527,27,14,-15,-2,-9,7,393,91,S,-2.715979984369274,57.898321133850374,1688.106350114391,50.181520514696516,-3.826452449802673
2025-02-19 17:14:24.365,700,166,684,-3,-11,31,-4,-6,5,596,81,S,-13.641378737291392,44.842661588445786,1405.16235044405,333.2242145338747,-5.04435386247178
2025-02-19 17:14:24.468,930,69,483,11,23,5,-3,-6,6,109,88,S,-8.13010235415598,62.31725588522239,1815.5335830120655,134.7008787396049,23.093848822765835
2025-02-19 17:14:24.579,505,-164,743,-17,24,10,-1,-4,4,437,36,S,12.447131671086057,33.57228474249186,1057.988581773728,-343.5844107146364,-70.6049826888709
2025-02-19 17:14:25.397,744,-5,643,-1,-7,-7,-2,-5,5,609,53,T,0.44552585319829097,49.164015159783084,1500.5845229932215,-10.084573407212511,-10.876140167528888
2025-02-19 17:14:25.487,752,9,633,2,-7,-8,-2,-5,6,644,60,T,-0.8145770497597191,49.907972790232584,1517.0110242432115,18.155717045463966,-10.952098864298819
2025-02-19 17:14:25.598,746,24,651,15,7,-12,-2,-5,6,636,67,T,-2.1113306255760196,48.87101106024375,1499.230695251123,48.232622903521374,-6.309896258017375
2025-02-19 17:14:25.705,639,6,583,11,-40,-36,0,-8,5,124,87,T,-0.5896441520813456,47.622319409582374,1377.7179571865058,12.93631884682165,-90.97898128283703
2025-02-19 17:14:25.815,683,87,679,-10,-25,24,-1,-8,6,770,83,T,-7.301502156330025,44.93502054191589,1389.3043929374392,176.96849514722868,-23.167910401934137
2025-02-19 17:14:25.917,639,1,570,-8,16,-17,0,-7,6,611,75,T,-0.10051880829859956,48.266395236725565,1385.247887127699,2.167837069057432,-95.66712936273598
2025-02-19 17:14:26.032,770,133,614,-18,-16,72,-3,-6,6,293,89,T,-12.222151596399408,50.7891461610921,1544.8247461867563,266.83336525043967,-3.84726514112765
2025-02-19 17:14:26.135,1117,16,666,-30,81,25,-2,-4,5,548,62,T,-1.3762104625666218,59.18764401530447,1975.8494535751681,28.302230310834993,153.91966331149354
2025-02-19 17:14:26.245,639,-44,683,10,-22,-16,-1,-3,5,525,37,T,3.685996232503288,43.034545591759354,1321.4391943179103,-90.99111823159319,-46.43031254950347
2025-02-19 17:14:26.352,751,-17,656,-1,-9,-7,-1,-4,4,551,48,T,1.4844669167449749,48.853192970783766,1504.0261068907903,-34.04586393760778,-1.7698084159233076
2025-02-19 17:14:26.459,770,-32,636,0,-5,-2,-2,-4,5,539,56,T,2.8803775528476065,50.40861001722713,1540.6090217859141,-64.02530999629774,-0.5030361764174813
2025-02-19 17:14:26.562,753,2,638,-4,-2,-5,-2,-7,6,506,58,T,-0.17961000574707633,49.72600337825122,1515.9617931678526,4.026458945996953,-8.44040377302781
2025-02-19 17:14:26.672,740,-10,637,0,-2,-2,-1,-5,5,540,58,T,0.8993889080684764,49.27428425803957,1497.8415821937415,-20.241102462077592,-15.358226834342531
2025-02-19 17:14:26.778,771,11,643,-1,-3,-2,-2,-4,5,554,61,T,-0.980081029693423,50.16838394725481,1538.930191413489,21.95620247152837,2.5601646188415543
2025-02-19 17:14:28.497,765,75,642,3,-1,-4,-3,-8,5,381,80,U,-6.663229622120632,49.804768467439466,1528.8497445004673,149.88722985298702,0.9653124584311854
2025-02-19 17:14:28.592,760,55,646,2,-6,-4,-1,-9,6,179,86,U,-4.866387950921623,49.53332979112603,1520.7836303289862,110.05671008959769,-0.6660857796381379
2025-02-19 17:14:28.698,765,86,632,-3,-4,-8,-2,-8,6,116,88,U,-7.748983056134844,50.18009183091717,1533.061062720744,172.3441194692601,-2.5288779601440865
2025-02-19 17:14:28.805,887,31,542,43,3,55,-2,-8,5,94,82,U,-3.273498420212798,58.531403085100315,1739.926411064533,60.80915303607726,20.820614659552348
2025-02-19 17:14:28.916,697,69,635,12,-11,-30,-3,-6,5,698,85,U,-6.2015092862463534,47.49754294375515,1434.2483643099713,141.9844148312597,-36.66816547608562
2025-02-19 17:14:29.018,797,-72,652,31,7,12,-2,-9,4,715,0,U,6.301608735234843,50.54423039882718,1569.1153842372173,-141.75195441038852,20.3573017281484
2025-02-19 17:14:29.128,855,10,596,-7,-8,15,-3,-7,5,674,83,U,-0.9612483860247474,55.116788588086564,1675.319488637594,19.59437998406543,24.17495294970047
2025-02-19 17:14:29.235,537,-98,726,-19,11,-7,-1,-5,4,570,34,U,7.687672696116507,36.24220911353523,1128.1999852854929,-205.89124498692416,-73.27595776027488
2025-02-19 17:14:30.054,727,-7,667,2,-3,-5,-2,-6,3,519,43,V,0.6012829579513821,47.46300950517694,1463.841018147254,-14.094755332917167,-9.028829579392777
2025-02-19 17:14:30.149,742,10,665,4,-4,-5,-1,-6,3,613,48,V,-0.8615257345672586,48.12924582392227,1486.652334977884,20.035745754418926,-2.3770926688583813
2025-02-19 17:14:30.255,734,7,662,7,-7,-4,-2,-5,5,655,53,V,-0.6058240328054,47.95087413301541,1476.570834366963,14.081738202409728,-7.730098570748737
2025-02-19 17:14:30.362,738,38,661,13,-8,-5,0,-6,4,636,61,V,-3.290235724568873,48.103361263906876,1482.3507234287997,76.32700201936909,-5.688114073762108
2025-02-19 17:14:30.468,751,72,647,3,1,-8,-3,-7,7,465,68,V,-6.349911131654354,49.08007586050239,1506.6257426997513,144.44347999251943,-3.9851604883343725
2025-02-19 17:14:30.579,774,79,629,15,-5,-17,-4,-8,3,84,81,V,-7.158647207598524,50.68094484505865,1547.6295201685184,157.96218616707097,0.3010746950931207
2025-02-19 17:14:30.682,790,31,651,18,2,7,-1,-7,4,50,83,V,-2.726310993906266,50.47790051159386,1561.379185006252,61.26930979138458,15.344494380923834
2025-02-19 17:14:30.792,756,152,571,13,-4,21,-1,-6,4,574,85,V,-14.906432647065284,51.98903651727938,1543.8929330529768,310.4123357461011,-24.088445467261522
2025-02-19 17:14:30.902,752,-32,649,-4,-4,-40,-2,-8,7,779,0,V,2.8227755048247993,49.170348437737964,1508.6567977705972,-64.19816160725946,-4.0189650972308755
2025-02-19 17:14:31.009,609,-15,622,-41,46,35,-3,-6,5,708,48,V,1.381463253007444,44.38662320465814,1308.4965141370508,-32.22897818071553,-92.42829522700401
2025-02-19 17:14:31.926,734,39,679,0,0,-3,-1,-6,4,228,60,W,-3.2873092311174816,47.18203339105031,1467.5167716188253,77.974324377567,0.4470191700513624
2025-02-19 17:14:32.020,754,67,673,-1,-4,-3,-2,-6,3,369,64,W,-5.685304432574303,48.1083644314378,1498.4090330829158,133.14775227659865,8.56063757983759
2025-02-19 17:14:32.127,760,72,647,2,-2,-3,-2,-7,4,405,70,W,-6.349911131654354,49.417603292904786,1519.4712123867732,143.9499043313785,0.45016524441814454
2025-02-19 17:14:32.238,669,75,640,-3,-7,-19,-3,-6,4,118,78,W,-6.683864108034118,46.07393393920817,1389.2355818795108,155.74389931384644,-49.01460747815656
2025-02-19 17:14:32.347,1036,-184,713,-31,-11,39,-3,-8,5,91,84,W,14.470294100065889,54.59586956892308,1851.0860334498752,-328.76431482121336,152.03828006779827
2025-02-19 17:14:32.450,839,83,594,1,-16,-6,-3,-6,6,192,89,W,-7.954473304217321,54.44039338117233,1652.5109541859524,163.47843766082724,18.04587987311595
2025-02-19 17:14:32.561,826,-75,735,-19,-25,46,-1,-7,5,668,88,W,5.826342029555775,48.18892357438458,1571.347131632091,-142.67679766635212,71.76738286974933
2025-02-19 17:14:32.668,763,-42,575,56,-8,-68,-4,-5,7,700,92,W,4.177663800844281,52.92487197280434,1560.8457049389012,-85.91811219847165,-26.259869383837895
2025-02-19 17:14:32.775,1005,177,652,-26,61,30,-2,-6,5,746,71,W,-15.188175722274432,56.08954291289363,1834.9104768774446,323.16333771871416,113.59041699095133
2025-02-19 17:14:33.491,785,9,617,2,-6,-6,-2,-7,5,623,75,X,-0.835697645794393,51.83014315438152,1571.1821273877695,18.01355305285341,-0.9291370678392923
2025-02-19 17:14:33.585,791,21,609,1,-6,-5,-2,-5,6,664,84,X,-1.9749340108819768,52.39045473755138,1583.1879844599766,42.03153941044185,-0.9146429028138527
2025-02-19 17:14:33.696,808,-35,655,14,-3,-5,-1,-6,6,698,91,X,3.0586975740958238,50.930305939280444,1584.3798871586996,-68.6303168942506,25.632640979024586
2025-02-19 17:14:33.802,665,-180,764,57,15,-1,-2,-7,7,522,92,X,13.257238846581101,40.27201947849785,1311.4172516225053,-354.97008314594126,21.349202647227116
2025-02-19 17:14:33.904,913,23,601,-8,5,5,-2,-5,6,217,86,X,-2.191614243532463,56.625053819837575,1748.0884930610814,44.03727857656613,51.28676415146765
2025-02-19 17:14:34.015,1644,-52,953,18,-4,-35,-2,-7,4,0,88,X,3.123220336371594,59.862863628233534,2508.8261836999627,-79.35459948442704,451.67435944886586
2025-02-19 17:14:34.122,708,162,596,-9,-32,54,-2,-7,7,16,96,X,-15.206300953286394,48.900150912969984,1461.5651237782286,334.4259181526455,-38.357081598621676
2025-02-19 17:14:34.232,648,-93,536,-22,77,8,-2,-3,7,420,46,X,9.84324955074075,49.98590473965827,1413.8862885945111,-202.9188654927308,-97.51088068928709
2025-02-19 17:14:35.850,755,-18,641,1,-1,-2,-3,-5,6,461,64,Y,1.6085071389658172,49.65738104101309,1517.1870098893628,-36.171345931137125,-6.1018189921608155
2025-02-19 17:14:35.945,750,11,623,-3,-5,-4,-3,-6,5,471,67,Y,-1.0115378693689168,50.28032851924605,1519.180200202727,22.281309602973334,-15.932352968398732
2025-02-19 17:14:36.048,817,33,610,4,0,-6,-2,-7,7,496,83,Y,-3.0965892384309743,53.21358709797674,1617.8734006466007,65.34861960996062,12.040667815879601
2025-02-19 17:14:36.158,782,20,638,13,-4,4,-2,-7,6,584,82,Y,-1.79551794621144,50.77669782056126,1556.6873784595646,39.812976431190904,5.966051845010043
2025-02-19 17:14:36.264,748,5,637,-1,-1,-2,-4,-7,5,647,80,Y,-0.44972215749870675,49.58127107989977,1509.3264085653082,10.089080271158476,-11.348826545589759
2025-02-19 17:14:36.371,769,13,629,1,-3,-3,-2,-6,6,593,83,Y,-1.184004938137019,50.71271279972963,1542.9807253595227,26.08419951843146,-4.073961314875987
2025-02-19 17:14:36.477,763,41,628,3,0,-2,-2,-6,5,587,86,Y,-3.735346933972919,50.48353743164295,1534.4417897148396,82.45362172779608,-6.948157196486363
2025-02-19 17:14:36.587,780,-1,643,-11,-4,-9,-3,-7,6,392,90,Y,0.0891068947430828,50.49919541069172,1551.6156510353067,-1.9892508346606497,6.911713313202199
2025-02-19 17:14:36.690,956,3,640,38,-9,4,-3,-8,6,395,89,Y,-0.26857199939902543,56.19913867424628,1786.9761064049462,5.607665605873263,83.69800408037077
2025-02-19 17:14:36.800,826,72,591,15,-2,17,-2,-7,7,695,90,Y,-6.94596762076281,54.21644650238919,1637.2316951099547,142.71269013064978,10.566668510916315
2025-02-19 17:14:36.911,949,81,767,-10,-19,-17,-3,-5,6,782,88,Y,-6.028448026484685,50.89877049958357,1725.032873322667,147.23673628992202,139.79534895839242
2025-02-19 17:14:37.013,822,98,551,-33,5,18,-4,-6,7,525,94,Y,-10.085077895231937,55.751555848582505,1648.605031610387,196.5490183671751,-3.086827758300842
2025-02-19 17:14:37.120,782,62,588,-2,-4,30,-3,-5,6,0,94,Y,-6.019150394271151,52.90756457093744,1579.6635614151905,125.24186804059056,-11.777716255923337
2025-02-19 17:14:37.230,680,-81,625,-34,60,23,-2,-3,4,476,43,Y,7.384373547878369,47.17551278801711,1413.4394161963442,-168.3655775175057,-49.117110474580954
2025-02-19 17:14:38.050,745,-46,651,2,-3,-3,-1,-5,6,564,55,Z,4.041831804154141,48.78150233018949,1497.202214929426,-92.44470051913234,-6.29347908598163
2025-02-19 17:14:38.143,777,-9,639,6,-8,-6,-2,-6,6,604,64,Z,0.8069294551023743,50.56354437274427,1549.3295566629452,-17.945902200729094,3.840943748234281
2025-02-19 17:14:38.251,752,-17,645,0,0,-2,-1,-8,5,621,67,Z,1.5097717876199686,49.370055756506005,1510.931092365172,-34.15668692846798,-5.944886403638179
2025-02-19 17:14:38.357,677,-4,656,8,-4,-16,-2,-6,5,489,73,Z,0.3493601795027854,45.902027229275745,1395.1509199788522,-8.243136897954813,-39.87445126458931
2025-02-19 17:14:38.468,775,-151,544,98,18,-15,-2,-7,7,0,87,Z,15.513246148204656,53.92760493837623,1583.2736631837183,-308.48299760095665,-23.35596486702275
2025-02-19 17:14:38.574,742,-15,691,9,-9,25,-2,-8,5,781,79,Z,1.2435625693533545,47.03154654895748,1473.7290930043248,-29.79236710925185,9.56495516713153
2025-02-19 17:14:38.676,869,41,486,6,10,-1,-1,-4,3,15,83,Z,-4.822176435741925,60.696675603413865,1741.040876179024,82.14347056771001,-1.7006511196844372
2025-02-19 17:14:38.787,731,49,663,23,-24,11,0,-6,4,732,80,Z,-4.22684497201581,47.71503572330262,1470.8076833890373,98.59039190979868,-7.9883640040105774
2025-02-19 17:14:38.898,773,-19,479,-60,70,25,-1,-5,4,677,51,Z,2.271501896102297,58.19484057918909,1622.8452377615881,-39.888822144204624,-47.618200372316664
2025-02-19 17:14:40.711,753,-3,641,-1,-2,1,-1,-4,3,558,60,a,0.2681530164434638,49.593214354398825,1514.4615441523686,-6.033711331284336,-7.202987784419861
2025-02-19 17:14:40.806,777,2,665,-1,1,0,-3,-6,3,492,62,a,-0.17231761432785248,49.441113181287875,1536.7380816173868,3.9555677776509306,14.773713931065572
2025-02-19 17:14:40.913,781,8,629,-1,-9,-4,-2,-5,5,408,68,a,-0.7286828664012605,51.150541818428806,1559.7967851532812,15.977431858164213,1.77442015183874
2025-02-19 17:14:41.023,762,55,657,-17,-8,0,-2,-4,6,526,87,a,-4.785292695935617,49.1329648614349,1518.2300461400823,109.5835335140479,4.9748814776459085
2025-02-19 17:14:41.130,843,-27,518,28,15,-9,-2,-7,6,0,85,a,2.9837593480323434,58.395753487005784,1694.6880962564067,-54.27826642814114,-5.3385929547076785
2025-02-19 17:14:41.237,731,-6,629,10,-15,-7,-3,-3,5,68,90,a,0.5465250409866688,49.287864605455276,1488.9962030621937,-12.22158306206999,-23.229291007004008
2025-02-19 17:14:41.347,836,56,739,-14,-15,66,-2,-7,5,329,88,a,-4.333481997611501,48.44282940752057,1584.2941757830135,106.12496871273774,77.5294307372643
2025-02-19 17:14:41.453,886,-21,576,-38,81,17,-2,-4,4,461,57,a,2.0879838327233444,56.954194665291666,1724.234886179801,-40.867869762726656,31.052715079497375
2025-02-19 17:14:42.268,803,12,632,4,-3,-7,-2,-6,4,410,77,b,-1.0877638403840888,51.79051740203772,1588.7545342429923,23.742284446968753,13.57301912631226
2025-02-19 17:14:42.367,787,68,655,-1,-1,-15,-3,-7,4,165,90,b,-5.927031287155546,50.079175064164474,1553.9319574924966,134.26603952921192,16.70211924067928
2025-02-19 17:14:42.477,760,183,629,-18,-27,74,-2,-6,5,182,89,b,-16.221720646526204,49.24038540597198,1517.4554365052109,365.38729589533364,2.105961102924198
2025-02-19 17:14:42.583,858,-129,576,36,10,-39,-3,-7,7,506,88,b,12.623563597702624,55.47363362878359,1681.8654525542415,-252.86788272668662,22.915500383166773
2025-02-19 17:14:42.690,690,-9,708,-35,-7,50,-3,-5,5,273,92,b,0.7282969530764213,44.26001319152323,1387.915632376686,-18.103247378826346,-8.122127134338939
2025-02-19 17:14:42.797,1056,34,667,-8,55,14,-3,-3,5,185,72,b,-2.9180987283609308,57.68873949590803,1901.1567990965418,61.21148784969927,133.17463541913492
2025-02-19 17:14:42.903,684,-47,650,14,-23,-13,-1,-3,6,391,48,b,4.135727867679235,46.38539200447329,1407.9960141456338,-96.74826412989003,-38.00790817933023
2025-02-19 17:14:43.620,768,-25,629,0,-2,-2,-2,-5,4,358,70,c,2.276058733868694,50.659998242830895,1541.397818475073,-50.17571023681879,-4.420869558360778
2025-02-19 17:14:43.718,775,-22,651,4,-8,-5,-3,-4,7,379,76,c,1.9355263067278203,49.953636066138024,1540.5240465139827,-43.73100519136467,7.9598009282542534
2025-02-19 17:14:43.820,755,-40,624,1,-4,1,-4,-4,5,435,80,c,3.667788055531429,50.36890770473858,1525.1672229749197,-80.80356148211496,-12.535559120993412
2025-02-19 17:14:43.931,776,38,689,2,-3,-10,-4,-6,5,522,90,c,-3.156801270817707,48.35535421975409,1523.2805216914908,74.59363379417094,25.499639889900664
2025-02-19 17:14:44.038,856,-13,626,28,15,14,-2,-8,6,0,88,c,1.1896774563543087,53.81579566462402,1663.1231033999352,-25.257710682475647,35.74408559771098
2025-02-19 17:14:44.144,739,-39,673,25,-9,9,-2,-5,7,661,89,c,3.316551460449447,47.62836787101551,1477.78910581114,-77.98887026608182,0.19205925453684358
2025-02-19 17:14:44.255,551,-145,689,-39,22,5,-1,-4,4,500,33,c,11.88446699439274,38.045590345976606,1167.2883018116709,-307.1811320557028,-81.63999990606362
2025-02-19 17:14:45.074,768,-38,626,0,-3,-2,-2,-6,4,416,66,d,3.4737560052599066,50.76476802267824,1542.555698547397,-76.32437050104309,-5.343577201393941
2025-02-19 17:14:45.169,730,-45,609,9,-16,-6,-1,-5,5,470,76,d,4.225998177958452,50.086811759054605,1497.0174837546929,-92.28189968350847,-30.881709050147833
2025-02-19 17:14:45.274,771,-21,640,-6,4,-17,-3,-4,7,439,91,d,1.879343487393352,50.289095880318925,1540.2779754283924,-41.95309660699901,1.429436739077687
2025-02-19 17:14:45.382,821,-47,572,42,15,11,-4,-5,6,3,88,d,4.697317565220314,55.04416854629677,1640.5939632132395,-93.91950824728653,0.9796017564276553
2025-02-19 17:14:45.488,764,50,578,2,-16,-25,-2,-4,6,256,91,d,-4.9440744107978185,52.78805735687056,1560.4038790231111,102.12067271093659,-24.514976538426822
2025-02-19 17:14:45.598,770,-99,552,17,3,-36,-4,-6,5,640,91,d,10.167775487411376,53.93334887659893,1578.3326873972146,-202.9284883796419,-27.480056419821494
2025-02-19 17:14:45.701,877,86,623,-5,-8,26,-2,-4,6,91,90,d,-7.859537383156612,54.355214614545126,1689.6454948631026,165.68929596149013,45.715914139437814
2025-02-19 17:14:45.812,547,-125,703,-22,18,-3,-1,-4,4,486,39,d,10.08235364188567,37.45492726623186,1155.137135334522,-263.97100898869337,-78.57295455241137
2025-02-19 17:14:46.630,759,-23,629,6,-3,-1,-1,-6,5,385,64,e,2.094143191775357,50.331902400724104,1528.755102915512,-46.325912209560975,-8.912990426689248
2025-02-19 17:14:46.725,771,14,629,16,-1,-3,-1,-4,7,551,72,e,-1.275053247553772,50.784672333615944,1545.775381606485,28.068554270416072,-3.080045435121974
2025-02-19 17:14:46.831,761,12,560,25,-5,-20,-2,-4,5,400,84,e,-1.227578832134544,53.64534180589799,1566.3631554979731,24.699550415211135,-32.6456860431864
2025-02-19 17:14:46.938,715,75,684,-7,-15,1,-2,-6,5,547,87,e,-6.25743429814621,46.09834904848263,1435.5311313266477,150.5801886006973,-5.2913200383594585
2025-02-19 17:14:47.049,915,-46,464,12,15,-15,-1,-6,6,301,85,e,5.66168510028495,62.997076453668676,1805.9833579319904,-90.79260597253723,12.178931059624517
2025-02-19 17:14:47.155,753,25,637,18,-17,7,-2,-5,5,286,88,e,-2.2475035081913814,49.74872182227121,1516.218055594098,50.33924487364202,-8.643959380398769
2025-02-19 17:14:47.260,669,-83,680,-29,26,10,-1,-4,5,446,48,e,6.959032298988377,44.32102347399708,1367.6778467145396,-169.68200489881434,-30.165823267394444
2025-02-19 17:14:48.080,767,-25,624,-2,-7,1,-2,-5,6,283,68,f,2.29427697252236,50.84710573148251,1542.463849702527,-50.27587515327663,-6.885843825784718
2025-02-19 17:14:48.174,769,-31,616,-1,-4,2,-1,-4,5,291,76,f,2.880961060460356,51.26850354126465,1549.0865829774548,-62.446923371002725,-8.880799888312254
2025-02-19 17:14:48.281,756,60,559,-20,7,-3,-3,-4,7,28,90,f,-6.126360522859559,53.36310597229041,1558.433386311512,123.68518938980256,-34.33368114832706
2025-02-19 17:14:48.392,750,48,615,41,-15,-37,-2,-8,6,735,87,f,-4.462818472040525,50.56291620970596,1522.3225923511352,97.42864591047264,-18.304525727930695
2025-02-19 17:14:48.498,782,137,708,-5,49,18,-1,-7,6,683,72,f,-10.951546359714706,47.31882997359827,1517.1374292678174,265.7900611377122,42.42800521532672
2025-02-19 17:14:48.608,1002,44,546,47,-10,-19,-2,-9,5,440,84,f,-4.607286100801531,61.33560155416618,1879.4443881121883,82.5304920927508,67.8716208490469
2025-02-19 17:14:48.710,749,81,665,-22,0,20,-1,-7,6,712,84,f,-6.94467473899228,48.19015454410147,1494.3614546559436,161.60651245277893,3.2304841839753635
2025-02-19 17:14:48.814,604,-31,710,6,2,4,0,-4,3,649,43,f,2.5000588407457394,40.36102730489272,1251.6017514046803,-64.23783823434617,-51.25371439954131
2025-02-19 17:14:49.538,781,12,621,0,-5,-2,-1,-6,4,450,78,g,-1.1070270456807774,51.5053707167469,1563.6665058758886,24.02560572408536,-1.3250962214173114
2025-02-19 17:14:49.633,775,14,604,-1,-4,0,-3,-4,6,496,83,g,-1.3278101117469612,52.061297996468056,1563.6689690857597,28.246923312516955,-10.652977197159885
2025-02-19 17:14:49.739,768,24,646,-15,4,-19,-2,-6,6,342,89,g,-2.12765723248679,49.91180461116787,1533.0540930438028,47.90794040761885,2.477937361592808
2025-02-19 17:14:49.846,872,276,588,17,-14,64,-3,-5,4,0,87,g,-25.144785630678943,53.317536308215146,1673.958519614775,529.8309075844929,47.229805580862944
2025-02-19 17:14:49.957,797,-93,599,14,2,-26,-3,-5,7,675,84,g,8.825210697869222,52.74436769889158,1592.9424969587574,-185.87660253094663,0.7947858490641693
2025-02-19 17:14:50.063,794,178,577,-39,-16,51,-2,-5,5,0,94,g,-17.144586343449152,52.74724301651329,1589.9728758111062,356.4422819828424,-1.4336893488768965
2025-02-19 17:14:50.170,656,-22,542,8,62,10,-2,-4,4,102,41,g,2.3243829709481543,50.41265904599706,1426.6540577202513,-47.84510559427672,-94.72941964081735
2025-02-19 17:14:51.087,759,11,639,2,-6,-6,-2,-6,5,421,64,h,-0.986214914259636,49.901884951471196,1523.9425912761926,22.086124511249167,-5.00305115347453
2025-02-19 17:14:51.185,723,17,633,3,-6,-13,-2,-7,4,402,74,h,-1.5383794279724523,48.78701069676547,1475.265560637042,34.688125215532104,-25.622544790107213
2025-02-19 17:14:51.288,775,39,611,2,2,0,-3,-6,4,362,90,h,-3.6522227803063356,51.691564157733744,1559.6851099631413,78.48737972717743,-7.635615725779758
2025-02-19 17:14:51.398,745,-2,693,3,-17,69,-2,-7,5,441,88,h,0.1653553259493593,47.07087050574976,1477.1967218388263,-3.9656287834599366,11.909626531131948
2025-02-19 17:14:51.505,813,50,580,6,-6,-16,-3,-5,5,158,89,h,-4.927109947649014,54.39532462766899,1626.0532567325313,100.00327532180387,-0.037993732924860524
2025-02-19 17:14:51.610,698,76,642,-12,-17,31,-1,-6,7,472,0,h,-6.751257931582337,47.19435703822345,1431.6629439508458,155.88307126112363,-32.80173354791259
2025-02-19 17:14:51.722,760,14,504,-30,89,27,-3,-3,6,506,49,h,-1.5911402711945875,56.43915971760094,1593.2992704532423,29.350249718875524,-48.608989879518845
2025-02-19 17:14:52.537,779,-16,619,0,-2,0,-2,-3,6,501,70,i,1.4806597570432096,51.51972862576144,1561.82246059298,-32.0785101020381,-3.03735957259903
2025-02-19 17:14:52.631,731,-35,637,2,-4,-2,0,-4,6,523,70,i,3.1449574646980225,48.88803514149767,1484.426098713417,-71.07375301637428,-19.542304898011935
2025-02-19 17:14:52.741,739,-25,610,1,-4,-8,-2,-4,5,537,79,i,2.3468742924872865,50.43877356128746,1509.9444278940261,-51.08066400182768,-26.368201644595274
2025-02-19 17:14:52.848,776,19,613,-2,0,-6,-3,-4,7,548,87,i,-1.7753203922352139,51.679701535125304,1560.5567490442377,38.20950803072232,-6.759390675409463
2025-02-19 17:14:52.954,775,31,660,-9,-19,44,-2,-5,6,528,89,i,-2.6891889765235346,49.55069000373546,1535.9802394726578,61.439209578906315,11.939408965220423
2025-02-19 17:14:53.063,957,31,694,-8,70,-48,-2,-4,6,641,73,i,-2.557621408123895,54.02387832934634,1766.2618868280474,57.21433489202661,107.13714790108145
2025-02-19 17:14:53.163,806,104,517,17,10,5,-4,-5,7,555,92,i,-11.373854849335894,56.803733397981574,1642.7999909498708,211.9741923806285,-19.7563217383165
2025-02-19 17:14:53.278,561,16,659,-33,44,35,0,-4,3,636,38,i,-1.3908230713935201,40.39908042828973,1209.1076786294275,34.484354470714514,-102.324349762554
2025-02-19 17:14:54.097,770,-25,641,3,0,-3,-2,-5,5,574,56,j,2.233492773571056,50.20230504224475,1538.3092749540606,-49.94510632967729,1.4074737070743595
2025-02-19 17:14:54.192,733,-37,634,6,-7,0,-1,-5,4,602,57,j,3.3399716317927512,49.09400673030882,1488.7849776447633,-75.15012847592939,-19.707606857817154
2025-02-19 17:14:54.298,770,-7,630,4,-7,-1,-2,-4,5,620,65,j,0.6365935759634864,50.70885986323013,1543.9381425556885,-14.035801295960804,-3.2221166364723786
2025-02-19 17:14:54.404,895,99,662,-6,-9,-12,-2,-6,7,595,89,j,-8.50537042234625,53.207549431285365,1695.8102928041358,187.58125026548538,69.66881135604729
2025-02-19 17:14:54.515,719,143,700,-1,-23,63,-1,-4,7,337,90,j,-11.545845687270809,45.18157922077509,1428.3441576809323,284.07957517159014,9.40068097823007
2025-02-19 17:14:54.621,1028,21,484,20,34,-83,0,-4,6,166,87,j,-2.4844156692994748,64.76736961066793,1932.5844211459134,39.47886463430368,58.10616747604843
2025-02-19 17:14:54.732,303,-206,723,52,-112,-57,-1,-7,5,665,90,j,15.90352068125435,21.951719651538077,676.8251680680028,-460.15176442907114,-168.99866836028377
2025-02-19 17:14:54.838,1148,-24,671,-15,54,34,-3,-7,6,709,74,j,2.0484541926645568,59.67797826507469,2011.2015707474322,-42.04602586928429,166.4631934045932
2025-02-19 17:14:54.944,654,-63,703,12,-30,-3,-3,-4,5,610,42,j,5.120935131324615,42.81774033666282,1333.668454475189,-128.47264928430718,-27.591626140761264
2025-02-19 17:14:55.047,818,19,624,0,7,4,-3,-4,6,589,59,j,-1.744044181249256,52.649498431853246,1612.9390424502956,37.464354286742804,17.591732898552095
2025-02-19 17:14:55.970,761,-35,627,3,-5,-2,-3,-5,5,459,63,k,3.195013172113667,50.47059964199209,1532.2980890592798,-70.47363090285782,-8.484759316909958
2025-02-19 17:14:56.063,782,3,618,4,-8,-6,-1,-6,5,458,76,k,-0.27813266729636266,51.6810124980835,1566.5709361279082,6.0098629263218974,-2.0317628223108386
2025-02-19 17:14:56.165,777,1,610,1,3,-3,-1,-6,5,472,81,k,-0.09392742325681691,51.86553965882945,1563.5637656367498,2.012308578683076,-7.50823299667627
2025-02-19 17:14:56.276,798,33,609,0,5,-6,-1,-5,8,442,79,k,-3.1016640298684615,52.610134787168164,1592.5220440282994,65.85617475304997,2.654229557350618
2025-02-19 17:14:56.386,776,11,623,10,-7,-18,-2,-7,7,381,82,k,-1.0115378693689168,51.236922636531816,1555.7416000977664,22.05303814571576,-3.0038877073562844
2025-02-19 17:14:56.489,766,27,627,1,1,0,-2,-7,6,293,87,k,-2.465758994997765,50.6723595000409,1539.5345655281076,54.265578680494656,-6.167327135931259
2025-02-19 17:14:56.600,779,50,621,-1,-1,-4,-1,-7,6,382,87,k,-4.60325669644819,51.34873040963296,1559.961897697331,100.12592411407773,-1.5639774968456095
2025-02-19 17:14:56.705,776,51,618,-3,0,-5,-2,-8,6,466,87,k,-4.717602504561685,51.37168448591728,1557.2120563532753,102.34254494074361,-4.150838693716537
2025-02-19 17:14:56.813,781,45,602,-2,-2,-8,-2,-8,6,346,89,k,-4.274956563589073,52.297512905490684,1572.196987063646,90.58753446589509,-7.859905521529981
2025-02-19 17:14:56.923,804,147,611,-3,-6,53,-3,-8,5,145,86,k,-13.527648980633861,51.987570923916586,1591.877180669099,291.05217109248446,12.252540561170008
2025-02-19 17:14:57.030,878,50,520,26,-25,-15,-2,-7,7,277,87,k,-5.492324557127438,59.24791758764219,1737.3878280111521,98.9400813218196,11.0231542530762
2025-02-19 17:14:57.136,610,50,520,5,24,-10,-1,-4,6,707,84,k,-5.492324557127438,49.42355846281989,1369.5388237649222,112.25728063646903,-127.47571861927781
2025-02-19 17:14:57.243,824,-99,551,53,13,-12,-2,-8,6,355,85,k,10.185842784057009,55.807926821286145,1651.158330105638,-198.3794595636628,-2.1119416119008747
2025-02-19 17:14:57.350,794,64,618,-1,-1,22,-1,-4,6,445,87,k,-5.912467245964412,51.95681643854891,1581.5465086544395,127.47981933738555,5.0229945233706985
2025-02-19 17:14:57.460,583,-126,697,-12,15,0,-2,-4,4,449,43,k,10.246964655383737,39.45782169687835,1218.510016338692,-263.348648471141,-62.777841145914635
2025-02-19 17:14:58.178,764,-7,648,-1,-5,-2,-2,-6,6,501,56,l,0.6189118162553683,49.69482298225024,1526.6098852418168,-13.987263346456437,1.1790502137471321
2025-02-19 17:14:58.272,780,-5,629,2,-5,-6,-3,-6,5,557,64,l,0.45544175473380766,51.11605484015548,1558.4190793871999,-9.989865893507691,1.2748705967325122
2025-02-19 17:14:58.378,743,-30,626,3,-6,-6,-2,-5,4,577,73,l,2.743704976223483,49.852461542333565,1507.3867066361347,-60.86352785879414,-18.01894798683759
2025-02-19 17:14:58.484,763,8,614,5,2,-10,-2,-7,5,574,82,l,-0.7464825746891965,51.17335772282921,1542.046512761911,16.16824652961375,-12.912921147855286
2025-02-19 17:14:58.594,802,-18,641,-1,-2,-10,-4,-6,6,466,89,l,1.6085071389658172,51.355324764677796,1583.0337772871408,-35.52943639796575,16.757292716886468
2025-02-19 17:14:58.701,771,122,666,18,-10,52,0,-8,6,577,87,l,-10.380534376540258,48.71082612949112,1522.388828466063,240.89680554197105,16.94038941842018
2025-02-19 17:14:58.807,806,101,592,10,-1,19,-1,-6,6,545,86,l,-9.681905286588316,53.310053584229784,1607.880496077056,201.48378424786932,3.025739854072981
2025-02-19 17:14:58.918,589,-102,700,-23,25,6,-1,-4,5,546,41,l,8.290465972430153,39.78196555744021,1228.867842549501,-212.8090321562803,-60.45414224898229
2025-02-19 17:14:59.934,769,-12,637,2,-4,-2,-1,-5,5,521,58,m,1.0792276900658841,50.358405498114976,1539.0502948162189,-24.016389515987818,-0.870010140353088
2025-02-19 17:15:00.028,770,0,633,7,-9,-2,-2,-6,4,544,67,m,0.0,50.577131056307614,1542.4801666528842,0.0,-2.0388902484098708
2025-02-19 17:15:00.135,789,27,615,1,-1,-4,-3,-6,6,546,74,m,-2.5138102361777377,52.0379863082794,1577.418755422836,53.9801095011617,0.4530613624281159
2025-02-19 17:15:00.245,832,-16,676,1,-1,-17,-2,-6,6,484,86,m,1.3558599761066599,50.89828867716977,1608.0275695579157,-30.92360710688299,45.477599734193745
2025-02-19 17:15:00.352,801,207,546,-11,-6,29,-2,-4,7,42,89,m,-20.762763911963166,53.90827407584989,1609.0749612398354,415.82836076984506,-4.822632755243603
2025-02-19 17:15:00.459,776,-63,649,-2,-9,-29,-1,-7,5,555,86,m,5.544468193170635,49.96062465453256,1541.6025197005765,-125.1558746664128,8.695830817429965
2025-02-19 17:15:00.566,807,109,554,-4,-7,32,-2,-6,5,492,86,m,-11.130821554994856,55.02127097488751,1626.3649272526168,219.67010789409574,-8.488438287422127
2025-02-19 17:15:00.675,699,-170,701,32,-6,-19,-2,-6,6,709,83,m,13.63167340309864,44.09972663747706,1394.9093703491944,-339.2483447201188,3.0994726540983493
2025-02-19 17:15:00.777,995,13,587,0,18,12,-1,-4,7,763,79,m,-1.268694029485824,59.45538292480831,1856.2336715692372,24.25229922653275,78.91541184809819
2025-02-19 17:15:00.888,607,-71,709,1,-11,-5,-1,-4,3,668,0,m,5.718594223820078,40.426836027476874,1255.4765170152987,-146.85145421431002,-48.44621180205377
2025-02-19 17:15:01.605,750,-2,650,5,4,-5,-1,-5,6,276,53,n,0.1762941498431574,49.08548254601728,1505.687548400414,-4.015166795734437,-4.92920861369214
2025-02-19 17:15:01.699,779,36,638,11,-3,-8,-1,-7,5,36,58,n,-3.2295660270881137,50.63791970122749,1552.1534838912357,71.72981440318935,4.7882891879223735
2025-02-19 17:15:01.810,688,11,639,15,-28,-24,-2,-6,5,63,76,n,-0.986214914259636,47.11047602154026,1420.667350272871,22.714158216572066,-41.486100035413756
2025-02-19 17:15:01.916,760,180,619,-25,-16,42,-2,-6,4,0,82,n,-16.213986976113123,49.69503035395611,1522.6122264247915,360.61868520587166,-2.1275896801919316
2025-02-19 17:15:02.023,805,-57,557,3,-5,-59,-3,-7,6,0,81,n,5.842962749812772,55.17987955357339,1625.9487421428591,-115.12928981632666,-11.035340836736054
2025-02-19 17:15:02.133,786,160,585,-10,-10,58,-1,-5,7,443,88,n,-15.296547314430068,52.34584847918541,1577.7126277613575,321.16287588017457,-4.251764936888208
2025-02-19 17:15:02.236,821,22,547,-24,58,4,-2,-2,6,389,58,n,-2.303159311514242,56.304671281909755,1652.9993554152475,44.294745212101645,-7.328437773618134
2025-02-19 17:15:03.054,760,-35,633,2,-3,-3,-3,-5,6,401,57,o,3.1647905420716453,50.16625289077005,1527.9063669082957,-70.36410900235575,-6.585171385462331
2025-02-19 17:15:03.149,789,-15,620,2,-6,-3,-2,-4,6,454,66,o,1.3859178508121923,51.83142215361656,1575.195922535561,-29.946690542501162,2.203457576618689
2025-02-19 17:15:03.256,772,-10,624,4,-8,0,-2,-4,5,523,72,o,0.9181230023350578,51.04813560517446,1549.6743948024637,-20.073502523347972,-4.586557456913624
2025-02-19 17:15:03.366,783,93,604,-6,-5,-14,-1,-5,6,571,89,o,-8.753290376416553,52.02858372673426,1571.3177968188425,186.63161571411538,-4.102106358340734
2025-02-19 17:15:03.473,831,-99,540,50,23,15,-1,-7,7,138,87,o,10.388857815469612,56.549261823559355,1665.3600587371234,-198.4002958062277,-2.1834316703328795
2025-02-19 17:15:03.579,657,-65,637,2,-9,-68,-1,-5,6,499,90,o,5.826342029555775,45.737175406883,1373.145738084249,-135.8515570402986,-57.34525899492644
2025-02-19 17:15:03.690,993,163,625,-29,67,39,-1,-7,5,513,67,o,-14.617142093924953,56.95765758130058,1831.267842755945,300.6008644201602,97.38932354233089
2025-02-19 17:15:03.797,681,-73,656,11,-15,1,-2,-4,4,185,40,o,6.349777788904468,45.895039802522014,1399.0660486643897,-149.973306244494,-35.705327347781804
2025-02-19 17:15:04.514,775,-8,611,0,-3,-2,-1,-5,6,414,74,p,0.7501473741029738,51.7458222441524,1560.2717871895402,-16.106031351633966,-8.098144481044073
2025-02-19 17:15:04.608,779,10,610,2,-6,-5,-2,-4,6,431,80,p,-0.93919094573558,51.933358662867526,1566.2941382664142,20.10647160804126,-6.4947680905168
2025-02-19 17:15:04.718,804,-13,603,-4,2,-10,-3,-7,6,332,89,p,1.2350410750107363,53.12371237899232,1603.933079361474,-25.934241332959154,3.0501904788948195
2025-02-19 17:15:04.824,800,250,548,-10,-18,51,-2,-2,7,0,92,p,-24.522679352355457,53.023354686056514,1598.880753226735,499.6502353833547,0.7666840396865382
2025-02-19 17:15:04.931,918,-91,530,-3,4,-76,-1,-5,6,572,86,p,9.742580588007106,59.6386406609516,1780.8547456259112,-176.53353142914807,31.837674093972737
2025-02-19 17:15:05.038,681,40,672,-16,2,58,-1,-6,7,314,88,p,-3.406443754994719,45.33046196875534,1392.1733413859226,81.77229611664742,-29.774574759676852
2025-02-19 17:15:05.144,949,49,590,-34,66,38,-3,-5,5,616,58,p,-4.747567689320673,58.042127302772464,1797.4374954023037,92.80762621149935,62.520419086028255
2025-02-19 17:15:05.254,689,-42,653,14,-29,-18,0,-2,5,575,39,p,3.680111173882078,46.477574760039275,1414.1048974206801,-86.20087908805307,-34.21842963092024
2025-02-19 17:15:05.361,770,-10,632,-5,3,-3,-1,-4,4,478,50,p,0.9065031439480534,50.61804483759708,1542.9334383597466,-20.03809660207463,-2.407705251116454
2025-02-19 17:15:05.468,768,-7,627,-6,-3,-3,-4,-4,5,441,54,p,0.6396392257743791,50.769835859500915,1542.6116409246397,-14.060262352177702,-5.397784973631474
2025-02-19 17:15:05.574,765,-27,627,-4,-3,-1,-1,-4,6,437,55,p,2.465758994997765,50.63566223503371,1538.1284949259161,-54.28688805620881,-6.662178194182388
2025-02-19 17:15:05.681,783,-14,618,-1,-4,-3,0,-6,5,390,60,p,1.2977406767389963,51.70980701192994,1567.8824432964261,-28.03365798997441,-1.4857598431561883
2025-02-19 17:15:07.392,773,-6,618,3,-3,1,-2,-5,7,585,72,q,0.5562522270806725,51.35695768464804,1554.051574794005,-12.06249605273484,-6.437093431688368
2025-02-19 17:15:07.495,775,-10,604,3,-4,-2,-2,-7,6,619,75,q,0.9485189609860605,52.06495182573817,1563.7081752609415,-20.176879680786342,-10.683532719495133
2025-02-19 17:15:07.602,766,13,631,-5,3,-20,-1,-5,6,616,88,q,-1.18025321232378,50.513709441670926,1537.776758847416,26.098038988272073,-4.75866166151377
2025-02-19 17:15:07.708,928,153,517,8,-1,48,-1,-8,6,165,85,q,-16.4854929837303,59.84358911564591,1792.6572360945058,295.5566348302364,35.289018253384086
2025-02-19 17:15:07.815,742,-136,642,0,1,-37,1,-5,7,668,84,q,11.960603730287866,48.50949768040154,1491.0655502371023,-273.29503346663864,-6.11331974692655
2025-02-19 17:15:07.925,815,296,470,-4,-10,42,-2,-3,6,44,87,q,-32.20219999715201,55.72462585013592,1641.340422902196,596.118730281043,-6.539875784088508
2025-02-19 17:15:08.032,1104,30,660,-1,51,25,-1,-5,6,749,73,q,-2.6025622024998065,59.10186870010495,1962.0816543995697,53.317436260857875,147.0164022611268
2025-02-19 17:15:08.950,770,-11,634,1,-5,-3,-3,-4,6,576,59,r,0.9939910800396934,50.52852575419618,1541.9411709450028,-22.027731013500038,-1.5983147780931404
2025-02-19 17:15:09.043,808,-9,621,-5,-2,0,-2,-4,6,566,67,r,0.8303154862580109,52.45249702116802,1600.8483536954618,-17.831231662449447,11.645015290987885
2025-02-19 17:15:09.154,723,27,608,3,-14,-25,-1,-5,5,517,81,r,-2.542714360863374,49.91035651428095,1488.0378171645555,55.56987698954771,-35.35130406092617
2025-02-19 17:15:09.261,858,-223,678,20,-5,32,-3,-4,6,522,87,r,18.206477718589177,50.24444747297758,1626.7798605073658,-422.8110826260403,70.50262771096277
2025-02-19 17:15:09.367,813,-1,501,25,5,-67,-2,-6,5,561,90,r,0.11436268148414117,58.357071738477345,1664.3341041759459,-2.0471514196506098,-23.62286124495563
2025-02-19 17:15:09.473,787,56,641,-4,-2,38,-2,-7,7,752,84,r,-4.99288274483088,50.73098929583842,1561.1826702230646,111.08796636911259,10.439527810693335
2025-02-19 17:15:09.584,594,-121,686,-7,11,2,-1,-3,4,647,39,r,10.003215079663292,40.45508909051565,1242.851809801246,-253.17351681136486,-63.347376302448765
2025-02-19 17:15:09.687,771,-14,640,1,-2,1,-1,-5,4,568,43,r,1.2531453191430126,50.29751128795171,1540.3718086620363,-27.97043491733918,1.351546635923114
2025-02-19 17:15:09.791,751,-17,652,0,-2,0,-2,-3,3,560,43,r,1.493569963172687,49.02663806064953,1506.0145148327629,-34.090874503537904,-3.485304488630277
2025-02-19 17:15:09.903,766,-26,646,-2,-2,-2,-2,-3,4,557,45,r,2.3047781381739534,49.83480388966378,1530.1879661056414,-51.93849493308966,1.5281643547725707
2025-02-19 17:15:10.010,749,-37,650,-1,-1,-2,-1,-4,3,541,44,r,3.2579362717209537,49.00189720909096,1503.731303593296,-74.28312180634438,-4.973761462806692
2025-02-19 17:15:10.117,744,-35,651,0,-3,-2,0,-5,5,539,45,r,3.0774553994243767,48.773093049117605,1496.1054955642223,-70.38130691498358,-7.092308618694574
2025-02-19 17:15:10.223,750,-39,655,0,-2,-2,-2,-4,4,532,46,r,3.407481440035139,48.81796735691468,1502.6214300188956,-78.13631436098257,-2.289382216501963
2025-02-19 17:15:10.333,758,-27,642,-1,-1,-1,-2,-5,6,526,48,r,2.4082164411282183,49.711575883993966,1520.7989897830385,-54.17094026931669,-4.0645797370855234
2025-02-19 17:15:11.349,762,-34,641,0,-3,-2,-2,-4,5,582,51,s,3.036244384684446,49.88955279864016,1526.8039399494282,-68.12511018147055,-2.358694891841992
2025-02-19 17:15:11.447,744,-21,633,-1,-3,-1,-3,-5,5,587,54,s,1.9001109655768573,49.59309541444784,1505.4601985354552,-42.49282818446849,-14.855249560407515
2025-02-19 17:15:11.554,784,-24,632,2,-6,-1,-3,-4,7,592,60,s,2.1747441146100535,51.10676039495215,1562.3172371922708,-47.82603787323277,4.581002671536908
2025-02-19 17:15:11.660,762,-35,612,7,-11,-2,-2,-3,7,631,70,s,3.2731540832334365,51.18464625583534,1541.1700238050776,-70.78864938737233,-13.79009785919618
2025-02-19 17:15:11.767,807,-5,629,1,-1,0,-2,-4,5,668,85,s,0.45544175473380766,52.06520250752088,1595.7108649991733,-9.886684417590914,14.255100267063085
2025-02-19 17:15:11.874,793,-4,600,-1,1,-2,-1,-6,7,656,87,s,0.3819662047290255,52.88749370627938,1590.4522439977354,-8.022457725083157,-3.3686587624733875
2025-02-19 17:15:11.980,853,18,602,-6,8,2,-2,-5,6,673,82,s,-1.712652576688779,54.775620293677314,1669.8995488749665,35.23820853429003,25.4776923531889
2025-02-19 17:15:12.087,805,20,601,1,-7,-3,-2,-5,7,661,74,s,-1.9059781515861567,53.240374437593545,1606.1532841940775,39.90442942097087,2.871895899825404
2025-02-19 17:15:12.193,785,-3,604,1,-7,-2,-1,-7,7,678,81,s,0.28457934615061586,52.42401244540892,1577.545283308462,-6.028835477611957,-5.8055428258743405
2025-02-19 17:15:12.303,791,2,603,-1,-1,-1,-1,-6,10,687,86,s,-0.19003505609994742,52.680626139624295,1586.2685278877127,4.01079273802203,-3.254010513641788
2025-02-19 17:15:12.410,789,-5,607,0,-3,-2,-2,-5,6,675,87,s,0.4719479710722643,52.42695931195459,1581.576646485175,-10.0226656938224,-2.7516152300394197
2025-02-19 17:15:12.517,786,-42,587,3,5,-18,-2,-4,6,520,90,s,4.092553314990997,53.17675413943248,1586.4882711126302,-84.77418242586575,-10.820121047218663
2025-02-19 17:15:12.627,750,158,649,11,-17,43,-1,-4,5,629,84,s,-13.682570308680019,48.31149164416069,1496.7715905414912,315.3198817407408,2.7936503180962973
2025-02-19 17:15:12.729,873,57,471,4,35,-20,-2,-3,5,312,88,s,-6.900328169277295,61.477895422387185,1751.632960532306,114.3677878010784,-3.0390886720688854
2025-02-19 17:15:12.839,452,-142,790,-21,14,7,0,-3,3,480,30,s,10.18992306246332,29.38504458224956,942.6763315497778,-296.15052893820456,-67.5980131069125
2025-02-19 17:15:13.860,756,-28,647,0,-3,-1,-2,-5,5,507,53,t,2.4780238230509126,49.41594141645271,1515.4523429877454,-56.12786455510168,-2.9545845410997345
2025-02-19 17:15:13.954,756,-32,645,-1,-2,0,-3,-4,5,521,55,t,2.8402525132065293,49.49525387438202,1516.3521656252622,-64.18421865080475,-3.713157180283247
2025-02-19 17:15:14.061,762,-28,646,0,-2,-1,-2,-4,4,532,57,t,2.4818549804207155,49.68323002066249,1524.4789872532483,-56.0176005814842,-0.4060705585283131
2025-02-19 17:15:14.167,760,-28,630,0,-1,-1,-2,-4,4,536,57,t,2.5448043798130953,50.31527711853896,1529.5698462024866,-56.35257328114424,-7.932898825745497
2025-02-19 17:15:14.274,763,-18,643,-1,-2,0,-2,-3,3,545,58,t,1.603506622447154,49.86722838104819,1527.5528547147896,-36.03663353193474,-1.3086311685577812
2025-02-19 17:15:14.380,773,-10,631,-3,0,1,-2,-4,5,544,60,t,0.9079395171894591,50.77170940054137,1547.6323208651618,-20.021116699419945,-1.3324637333982992
2025-02-19 17:15:14.490,733,-13,633,-10,3,-6,-2,-5,4,633,54,t,1.1765251840718687,49.18097539980853,1489.7780508988671,-26.421711680334617,-20.534114896293204
2025-02-19 17:15:14.593,758,-19,638,4,-3,0,-3,-5,6,690,57,t,1.7057964829444119,49.90054914111992,1522.9275743706733,-38.17364632327545,-5.830860749986186
2025-02-19 17:15:14.703,728,-25,639,2,-3,-7,-3,-4,4,706,59,t,2.2404762483591423,48.70332138857773,1479.3023919877337,-50.80021950507327,-20.453610549673044
2025-02-19 17:15:14.811,767,-18,639,-1,-4,-7,-1,-6,5,697,67,t,1.6135389328811822,50.19060227800167,1535.1785217041297,-36.02765761496002,-0.9818453310808763
2025-02-19 17:15:14.917,744,15,625,-5,-6,-14,-2,-6,4,708,71,t,-1.3748347805694054,49.95981000677168,1509.5933728022962,30.435350258110812,-18.139594087950513
2025-02-19 17:15:15.027,740,-155,573,16,7,-26,-2,-6,6,612,89,t,15.136599233630475,51.26500930211987,1520.0484243337705,-318.38852131315457,-31.010469112500573
2025-02-19 17:15:15.134,798,108,638,-2,-8,28,-1,-5,7,668,84,t,-9.607890440327358,50.96234389049143,1574.732189750901,213.12164974072346,17.003587642763478
2025-02-19 17:15:15.240,697,13,497,-22,-26,-49,-2,-6,4,148,83,t,-1.4983407094551355,54.4997426920535,1511.1129104861288,28.184315403615024,-83.50805812282056
2025-02-19 17:15:15.346,662,41,647,-7,-24,18,-3,-6,6,700,85,t,-3.6259506442862515,45.59913959098124,1376.4621727286453,85.24916779739343,-51.2734528027695
2025-02-19 17:15:15.457,686,-116,565,-37,58,21,-3,-4,5,579,46,t,11.602155949233468,49.94306035225574,1451.405272695837,-245.42713065993743,-65.39938640400567
2025-02-19 17:15:16.473,766,-6,637,-1,-1,-1,-2,-5,6,548,62,u,0.5396617127273243,50.25208781477998,1534.8651322356034,-12.022442289051725,-2.3826230209914456
2025-02-19 17:15:16.567,765,-8,628,-1,-1,-1,-2,-5,5,557,63,u,0.7298430640241027,50.61463300454608,1537.8956547281107,-16.082568938333182,-6.481661659154838
2025-02-19 17:15:16.674,772,-3,631,-1,-1,-1,-1,-4,6,565,64,u,0.27240260451268994,50.738578034645,1546.266498317275,-6.00880763594796,-1.8525394277208989
2025-02-19 17:15:16.780,769,-11,631,-1,-1,0,-2,-6,5,567,64,u,0.9987159147236339,50.62527237626929,1542.0134691725752,-22.057409832117457,-3.293236733283152
2025-02-19 17:15:16.887,771,-16,626,1,0,3,-3,-5,5,574,63,u,1.4641101061676436,50.91657514871955,1547.2288233746622,-32.108509953300384,-4.245451922877351
2025-02-19 17:15:16.997,694,-52,656,-6,5,4,-2,-4,5,626,53,u,4.532261708701458,46.5227562921799,1419.6477091105166,-106.37129808897242,-29.914837430113607
2025-02-19 17:15:17.104,747,-30,640,-2,-1,2,-3,-4,4,626,55,u,2.683775159468985,49.38027127900342,1506.047180501012,-60.48382251008081,-10.321546881723748
2025-02-19 17:15:17.209,744,-26,637,2,-3,3,-2,-5,6,649,56,u,2.33730585912382,49.406870203244914,1503.3493346944242,-52.53640148125675,-13.14183629079048
2025-02-19 17:15:17.316,770,-11,641,-1,0,-1,-1,-4,5,688,57,u,0.9831384055510634,50.219569722870105,1538.5021121461878,-21.978601602088396,1.2469430055759858
2025-02-19 17:15:17.423,741,-19,641,1,3,-2,-2,-4,5,647,57,u,1.6978177196543252,49.12619774703872,1497.1527618334703,-38.38853235470436,-13.10785470344706
2025-02-19 17:15:17.530,813,18,613,1,2,-6,-2,-5,6,484,70,u,-1.6819376362342975,52.97192678689084,1611.3405428875237,35.67543637389351,11.05319460018211
2025-02-19 17:15:17.640,801,-77,597,-4,-1,-22,-4,-6,5,374,85,u,7.34933414174412,53.07542689705328,1600.4270757890313,-153.84879505088065,1.1723292808344468
2025-02-19 17:15:17.747,787,153,609,0,-15,32,-3,-3,7,538,86,u,-14.102634839733497,51.41461858406257,1568.6796251320247,304.9656704513339,4.117037223122111
2025-02-19 17:15:17.858,780,-85,609,12,-3,-30,-2,-5,6,706,86,u,7.945617961074972,51.74996260565773,1565.3165268261912,-170.57936510285418,-4.150980560449398
2025-02-19 17:15:17.964,878,49,580,-10,-5,11,-1,-3,7,690,82,u,-4.82903847158738,56.457791104742505,1711.4789925733382,95.51534241012936,29.410232696427897
2025-02-19 17:15:18.070,540,-149,714,-20,20,3,-1,-3,3,561,30,u,11.787514627685097,36.51452847440239,1135.0266013802513,-313.1832659364027,-72.7573951583322
2025-02-19 17:15:18.885,737,-48,654,1,-4,-2,0,-3,4,496,49,v,4.197668357160927,48.33833184202681,1484.0830654782558,-96.65669897280361,-8.94752350444935
2025-02-19 17:15:18.984,768,-27,641,0,-6,-2,-2,-4,5,510,56,v,2.411968975493547,50.12544430393715,1535.4499355236994,-53.980661795755054,0.4591032933707311
2025-02-19 17:15:19.091,763,-14,638,5,-12,-5,-4,-4,6,534,67,v,1.2570724158145117,50.09175581384874,1530.0728468459388,-28.074731134787868,-3.4056045710470926
2025-02-19 17:15:19.197,815,4,631,-12,0,-18,-1,-5,5,410,86,v,-0.363201344275157,52.25121946517792,1605.702603802943,7.880748975719966,18.81184908017542
2025-02-19 17:15:19.303,780,250,553,3,-18,39,-2,-6,6,239,89,v,-24.326753703913646,52.115040046456535,1569.2453064861381,502.96323925837754,-6.554685239531068
2025-02-19 17:15:19.409,772,-7,627,10,2,-14,-4,-6,6,755,87,v,0.6396392257743791,50.9155718388946,1548.2177833855849,-14.038244149869293,-3.4255831382923816
2025-02-19 17:15:19.520,714,-40,652,-33,45,32,-1,-5,5,684,46,v,3.510678430267298,47.54516262498326,1451.8096325775273,-81.33387297353093,-21.742129468554253
2025-02-19 17:15:20.438,754,-8,640,0,-2,-1,-3,-4,4,500,61,w,0.7161599454704085,49.67298262799529,1516.3632563078313,-16.088734814937197,-7.098785194976017
2025-02-19 17:15:20.532,766,-1,641,1,-1,-2,0,-4,5,492,65,w,0.08938491892526579,50.076880018878065,1532.9062517413347,-2.0011830962680612,-0.758364707827127
2025-02-19 17:15:20.643,729,22,648,12,-9,-15,-2,-5,4,315,74,w,-1.9444802136472092,48.350073003323566,1476.2192676826746,44.549827008256294,-16.19490460682175
2025-02-19 17:15:20.745,760,-51,601,6,4,-17,-2,-5,4,0,83,w,4.850417553696741,51.56337342408229,1543.2962258097496,-103.56329936354899,-18.422410146920356
2025-02-19 17:15:20.856,825,144,612,-3,-16,14,-1,-5,6,408,85,w,-13.240519915187205,52.689832651888395,1620.3659334465683,282.827508383401,21.983089370545713
2025-02-19 17:15:20.962,789,6,631,9,-6,-20,-1,-6,6,691,82,w,-0.5447928950334333,51.347785339631734,1569.9515954262752,11.938795402481182,6.436683505729093
2025-02-19 17:15:21.072,862,95,593,-11,-16,17,-2,-5,5,574,87,w,-9.101581579573313,55.134804656129965,1682.49927788804,185.42625452362395,28.54980071043167
2025-02-19 17:15:21.176,928,31,611,13,0,19,-1,-5,7,769,84,w,-2.9044966409229804,56.60504994127334,1762.8963783484164,58.88985746638029,61.29990606585943
2025-02-19 17:15:21.286,508,-150,701,-6,-4,-5,0,-4,5,669,33,w,12.078010454482436,35.322807324627284,1086.182452695672,-320.72316516604485,-96.84625854264971
2025-02-19 17:15:22.105,778,-35,615,2,-3,-2,-2,-4,7,603,62,x,3.2572219406669563,51.628962634897626,1562.007343251892,-70.27025323112625,-4.748735346932676
2025-02-19 17:15:22.195,799,3,592,4,3,1,-2,-3,5,655,69,x,-0.29034774863596025,53.46393363341873,1602.4822742096092,6.016829565242587,-3.3210342078705253
2025-02-19 17:15:22.310,823,-16,609,15,-23,-13,-3,-4,7,737,86,x,1.5049616340890075,53.49000625189269,1626.7530971334104,-31.62581962835305,14.242240395812019
2025-02-19 17:15:22.412,697,-78,695,31,18,5,-2,-6,6,562,86,x,6.403521967488581,44.9030295709726,1402.9090238609401,-156.9969926271927,-8.883459947422011
2025-02-19 17:15:22.519,825,86,656,40,30,-75,-2,-4,5,416,82,x,-7.468743935855988,51.27194319727664,1605.1241427153436,167.32203184669038,35.683105913617624
2025-02-19 17:15:22.629,778,56,671,-55,-45,49,-2,-6,5,645,80,x,-4.770708264384609,49.1249168023475,1534.1381315270792,110.42639507135787,18.855159055694116
2025-02-19 17:15:22.736,1076,98,512,0,47,-4,-1,-3,7,641,79,x,-10.835711869836835,64.15099590662507,1975.9461964890988,179.96535990328226,83.77281356652549
2025-02-19 17:15:22.841,581,-106,711,3,-6,-17,-2,-3,1,506,33,x,8.479531263054337,38.9460529818031,1209.5883880239728,-220.68221881332377,-58.236392228992486
2025-02-19 17:15:23.662,739,-9,631,1,-4,-2,-2,-6,6,502,60,y,0.8171585609098893,49.50454813697313,1499.457516367604,-18.261322932758368,-18.321641174503384
2025-02-19 17:15:23.751,756,-8,627,1,-2,1,-1,-7,5,516,64,y,0.7310069618353912,50.32658170483829,1525.6958210703096,-16.14492932349534,-11.35883572894727
2025-02-19 17:15:23.862,758,-17,636,2,-4,-5,-1,-5,4,531,69,y,1.5311263836448818,49.99158917889763,1523.9500758806225,-34.178299854842464,-6.6705122164590875
2025-02-19 17:15:23.969,751,10,636,2,-7,-8,-2,-6,6,491,80,y,-0.9008028087352907,49.7362176143585,1514.0770238660675,20.160812568123404,-10.227679332648563
2025-02-19 17:15:24.075,859,-100,604,26,5,8,-2,-7,5,137,84,y,9.400780041023838,54.52195810976334,1673.3380079278527,-194.80069940952882,31.40377556644603
2025-02-19 17:15:24.181,754,23,622,12,1,-24,0,-4,6,735,81,y,-2.1176893811744137,50.46041298986664,1525.18491774836,46.524208366329276,-14.17641755899183
2025-02-19 17:15:24.292,800,-41,610,16,-4,15,-2,-6,4,739,81,y,3.8452443337250757,52.61219972712993,1594.5439282735892,-81.72037632402143,4.160254691388332
2025-02-19 17:15:24.403,822,-10,549,-15,15,16,-1,-3,8,303,89,y,1.0435235731956107,56.25731435153124,1653.540529354676,-20.116064833998493,-6.371959386517233
2025-02-19 17:15:24.505,705,-15,671,-12,36,4,1,-4,3,118,49,y,1.280616352950224,46.408303055609665,1429.2717905033164,-30.410038095815246,-18.342370819468556
2025-02-19 17:15:24.611,713,-25,680,-13,-5,-3,0,-4,4,0,38,y,2.105514188856042,46.33774979488613,1436.4221825092973,-50.3654341693302,-9.939809405781602
2025-02-19 17:15:25.533,745,-47,645,7,-14,-5,-2,-4,6,590,56,z,4.167675238100056,49.039820384088955,1500.1653568494235,-94.64130439184281,-8.800879419970556
2025-02-19 17:15:25.627,768,-31,623,-1,-2,-4,-2,-4,4,641,64,z,2.8486443314488503,50.916442771123585,1544.2273667622562,-62.33209423128899,-6.674022777194864
2025-02-19 17:15:25.734,763,-28,632,-2,4,-7,0,-4,6,621,68,z,2.536761738159984,50.33713186714061,1532.8133618367347,-56.25003162703612,-5.643571010244045
2025-02-19 17:15:25.840,932,-8,630,30,9,-27,-2,-5,5,231,86,z,0.7275263513507163,55.940513733797154,1760.456554317647,-15.111215058520576,69.99181414150473
2025-02-19 17:15:25.951,633,-39,745,28,-10,-5,-2,-6,6,768,83,z,2.996641025954133,40.314691491667006,1279.9853177702812,-78.86165464935382,-16.459813173553925
2025-02-19 17:15:26.058,861,99,482,-29,11,-2,-2,-7,4,295,84,z,-11.606799141344908,60.25200916330074,1729.2162145387178,198.82973895392922,-4.039739149433274
2025-02-19 17:15:26.164,750,48,641,-2,-26,7,-1,-3,5,661,84,z,-4.282486894682981,49.40145629856992,1509.2878479512694,96.59442226888123,-7.938014049018079
2025-02-19 17:15:26.270,841,80,625,-11,5,29,-1,-4,5,739,82,z,-7.294196308540855,53.15848915430464,1641.2971676783038,156.12814912516563,30.248834959643432
2025-02-19 17:15:26.377,766,22,632,-1,-1,-14,-2,-3,5,639,59,z,-1.9936683250414955,50.45811187690792,1537.1593495488473,44.148179752055654,-4.256800149962714
2025-02-19 17:15:26.483,730,7,645,-10,5,1,-3,-4,3,567,53,z,-0.6217902503770318,48.535745273794326,1479.3689655806104,14.18572980693736,-17.11367506779959
2025-02-19 17:15:28.106,757,-21,635,-1,-1,0,-2,-5,6,430,54,0,1.8941307303587867,49.993394790734406,1522.9703357700528,-42.24884683113753,-7.524654179634695
2025-02-19 17:15:28.196,756,-14,633,0,0,0,-2,-5,4,430,54,0,1.266998673767215,50.05361226460143,1522.6455708137887,-28.19714020025534,-8.913553340116437
2025-02-19 17:15:28.306,755,-22,637,-1,-1,0,-2,-3,5,426,54,0,1.9780319173138365,49.82855313990061,1519.117595229777,-44.265678271596144,-7.692593591215768
2025-02-19 17:15:28.412,763,-21,636,-2,0,0,-4,-3,5,411,56,0,1.8911547016853658,50.17168980911798,1530.9671477511806,-42.1367104885646,-4.140374796527794
2025-02-19 17:15:28.519,763,-20,637,-1,-1,0,-1,-4,4,344,55,0,1.7983348063102058,50.12887740695721,1530.4883487177503,-40.11765003192005,-3.7471535166536114
2025-02-19 17:15:28.629,765,-26,634,-3,-3,-2,0,-4,7,429,57,0,2.348353313099598,50.3258286838064,1534.6874305646156,-52.159311365594775,-3.884746376426392
2025-02-19 17:15:28.732,775,0,625,-9,2,-10,-2,-4,4,578,57,0,0.0,51.115503566285405,1553.4130394753292,0.0,-2.752451189781709
2025-02-19 17:15:28.846,773,-38,639,-12,-2,-11,-1,-3,5,617,54,0,3.403252737685813,50.371510523252255,1543.196197910111,-75.86216755573636,2.317761365380534
2025-02-19 17:15:28.949,798,20,618,0,-8,-6,-2,-7,5,629,63,0,-1.8535854228728283,52.22998874878169,1588.4757011553297,39.811421081587206,5.82708857895534
2025-02-19 17:15:29.055,797,55,627,8,-7,1,-2,-6,4,740,80,0,-5.013113755035808,51.70110753276401,1581.788350772979,109.1572889492018,9.606905979099565
2025-02-19 17:15:29.162,749,5,655,-3,2,-29,0,-4,7,713,89,0,-0.4373638675207325,48.82949867416616,1501.7539347623504,10.02505964460848,-3.282813443710779
2025-02-19 17:15:29.273,885,310,537,-15,-24,92,-1,-7,5,544,83,0,-29.99703152931966,54.98384406404751,1703.9902779255185,596.877950459786,40.05335678417697
2025-02-19 17:15:29.379,780,-19,604,-3,-2,-72,-2,-5,7,720,91,0,1.8017565334430918,52.233551855672225,1570.5137893338274,-38.25610512479836,-8.141447125168838
2025-02-19 17:15:29.486,820,161,553,-37,87,50,-2,-7,4,652,48,0,-16.232350661156207,54.91616644492849,1638.3119270102115,321.6685612788343,1.13841995530845
2025-02-19 17:15:30.403,766,-43,644,-7,1,-4,-3,-4,5,66,57,1,3.81997978938777,49.88240802104087,1530.7235944641811,-85.9283479921146,1.0731137925163239
2025-02-19 17:15:30.501,743,-70,668,0,-8,-6,-1,-6,4,268,62,1,5.982215538851671,47.887027458458654,1484.8240282798974,-139.8892085862622,1.057266633954896
2025-02-19 17:15:30.608,770,-56,644,-1,-3,-3,-2,-7,4,305,70,1,4.969740728110304,49.98587790292756,1535.8859874313207,-111.70079908591426,3.4408105119861148
2025-02-19 17:15:30.714,759,-45,644,-2,-2,-4,-1,-7,6,304,73,1,3.997090096951838,49.61704924000395,1520.7311318587576,-90.16192481376034,-2.3173240013702525
2025-02-19 17:15:30.820,743,-48,642,0,-3,-3,-3,-7,4,321,77,1,4.275841112628942,49.09184606012947,1498.7602833203734,-96.82435208530003,-11.025709140887898
2025-02-19 17:15:30.927,780,14,572,-10,-5,-7,-4,-6,5,143,92,1,-1.402064329041399,53.73798036599927,1586.320540291221,28.472419953945,-19.30172954689567
2025-02-19 17:15:31.037,664,-103,712,16,-3,-8,-3,-6,6,695,92,1,8.231470838054163,42.70628446586192,1342.2402746173866,-208.20895826143195,-15.26969205960745
2025-02-19 17:15:31.144,795,107,575,3,-9,49,-3,-6,7,410,88,1,-10.541423507350089,53.65857699582007,1600.5000651927446,215.4132163215392,-7.594386774626628
2025-02-19 17:15:31.247,447,-146,509,0,11,-6,-2,-4,4,0,66,1,16.004846753271238,40.169463658885334,1092.0505235757041,-356.68764304709794,-225.52061856830733
2025-02-19 17:15:31.357,713,11,647,35,-41,21,-2,-4,7,349,92,1,-0.9740229670869543,47.7742303930218,1453.5024053015459,22.424300783053297,-24.956600603226093
2025-02-19 17:15:31.467,1021,96,637,-40,75,17,-1,-3,7,503,69,1,-8.570346661037144,57.75039057267373,1866.7314592166163,175.52029391262994,109.34971643390361
2025-02-19 17:15:31.574,744,-56,642,-3,-12,-18,-3,-4,5,384,47,1,4.985144889457956,49.10155213412806,1499.871205721358,-112.8935316134355,-10.243701711171525
2025-02-19 17:15:32.291,763,-41,629,-1,-2,-4,-1,-5,6,456,63,2,3.729425158313475,50.438971448809774,1533.9466276158716,-82.42701406585942,-6.551020668916522
2025-02-19 17:15:32.386,760,-25,636,-1,-1,-4,-3,-5,5,476,67,2,2.2510336863177343,50.05421763920165,1526.6523547469756,-50.21882745878209,-5.5669705514162615
2025-02-19 17:15:32.492,765,-11,639,0,0,-6,-1,-6,6,402,71,2,0.986214914259636,50.12401473894396,1532.43393922333,-22.034997818897555,-2.0330551159580637
2025-02-19 17:15:32.603,825,41,682,-9,-3,-22,-3,-8,5,140,90,2,-3.4403271195147394,50.36983427161413,1595.177537827548,79.27548975870238,45.319902062560345
2025-02-19 17:15:32.710,697,20,721,25,-13,7,-2,-6,6,695,87,2,-1.588934551319134,44.019336204126226,1391.9010939988748,39.939773142005016,2.1711782307191925
2025-02-19 17:15:32.812,957,7,376,-14,10,5,-2,-6,5,0,86,2,-1.0665535374729225,68.54703228485842,1887.7181036907427,13.807760424070219,10.326011507085468
2025-02-19 17:15:32.923,746,83,604,17,-11,21,0,-5,4,617,89,2,-7.824421438917323,50.74223646384167,1520.3069058649016,169.1494278643255,-22.918728072923045
2025-02-19 17:15:33.033,669,-89,645,-35,67,15,-1,-1,3,189,37,2,7.856319218743369,45.77635949134066,1385.6228930271218,-184.3354820320087,-45.9144484342205
2025-02-19 17:15:33.942,756,-23,653,0,-3,-2,-2,-6,5,349,57,3,2.017241013381953,49.163398831636115,1512.577489020297,-46.01756911040586,-0.49880996065337513
2025-02-19 17:15:34.044,752,-4,649,3,-4,-7,-1,-6,4,372,63,3,0.353128222118469,49.20422056016258,1509.0431863049657,-8.026825459068966,-4.352430733939627
2025-02-19 17:15:34.151,724,-2,653,0,0,-10,-2,-6,5,269,71,3,0.17548422773839317,47.95150110021301,1466.5781633488373,-4.051320893228833,-16.756271639213765
2025-02-19 17:15:34.257,799,-76,487,16,9,-9,-1,-8,5,0,88,3,8.869891965822434,58.33001024854533,1650.0862230091025,-156.9543841660723,-31.747172222068457
2025-02-19 17:15:34.368,625,-43,749,-19,-9,21,-1,-9,4,714,87,3,3.2857371702510365,39.796807497043844,1265.0668899731056,-87.03660203014968,-18.056160943769896
2025-02-19 17:15:34.470,865,61,649,6,-14,33,-1,-7,7,528,85,3,-5.369498800295247,52.99847230213727,1663.6194633541863,117.31882920763624,49.804587610558656
2025-02-19 17:15:34.581,865,188,478,-10,7,24,-2,-5,5,114,89,3,-21.469984234159504,59.29791952529701,1724.8337326379342,374.87715807622146,2.854885316840978
2025-02-19 17:15:34.687,500,-157,743,-32,31,8,-1,-2,3,337,32,3,11.931401576943923,33.361268220059955,1049.9162596287465,-329.6737055234263,-74.17556180831696
2025-02-19 17:15:35.605,758,15,627,1,-2,-4,-3,-6,7,503,74,4,-1.3704510177996057,50.39518671032458,1528.4596915000911,30.24656381596487,-10.306367507331515
2025-02-19 17:15:35.699,752,-10,630,1,-2,-5,-3,-5,5,560,75,4,0.9093804491991415,50.04131822782974,1518.5077831803978,-20.19292264867551,-12.154126866557021
2025-02-19 17:15:35.806,816,53,658,4,-4,-2,-2,-7,5,612,88,4,-4.60506779075512,51.027690883140295,1593.450019393416,103.49614096550377,31.08564612638736
2025-02-19 17:15:35.916,737,21,623,1,-3,-15,-3,-8,7,567,90,4,-1.9305874411669917,49.77549333873303,1500.5198823698354,42.75565472152855,-22.417756738680396
2025-02-19 17:15:36.019,834,125,538,21,8,4,-1,-6,5,0,82,4,-13.08014442205886,56.48481325808165,1667.7394971043743,249.96095580101536,0.16804623242990147
2025-02-19 17:15:36.129,707,17,667,18,-14,5,-2,-6,6,707,85,4,-1.4599961382717892,46.65824227468201,1434.2727332850613,34.487463176585635,-19.125761104859976
2025-02-19 17:15:36.236,412,-259,637,7,9,-41,0,-6,4,573,56,4,22.126334809373287,30.927930663749223,925.9594822576753,-582.0958881182959,-157.641238344998
2025-02-19 17:15:36.347,773,51,673,-22,-13,73,-1,-8,5,583,86,4,-4.333596542665235,48.87480820382077,1526.2742848635608,100.69856213200723,17.173876179591048
2025-02-19 17:15:36.453,1290,-70,711,-14,68,8,0,-4,6,543,70,4,5.62281415678242,61.021107964562866,2164.7982533344157,-117.46967266155742,228.84375339475258
2025-02-19 17:15:36.559,691,-58,669,9,-20,-14,-1,-2,4,503,41,4,4.954957582076204,45.819552157482704,1408.1484731627597,-118.19480671988431,-25.315960269010475
2025-02-19 17:15:37.379,763,-18,641,-2,0,-2,-1,-5,4,477,63,5,1.6085071389658172,49.95509689597995,1528.540450764241,-36.05993199705942,-2.134245006393712
2025-02-19 17:15:37.473,758,-18,642,0,0,-3,-1,-6,5,493,65,5,1.606002989282249,49.72544266108253,1520.9554668012279,-36.117675992641296,-4.197110404206228
2025-02-19 17:15:37.579,723,0,677,13,7,-11,-2,-6,5,273,67,5,0.0,46.881898579982156,1452.946373926363,0.0,-6.504419292043849
2025-02-19 17:15:37.685,762,-37,588,60,12,-14,-4,-8,6,1,84,5,3.6005993939862906,52.28953077680587,1553.1117800620943,-75.41356412374998,-22.464208236891636
2025-02-19 17:15:37.792,744,53,657,-2,-3,0,-2,-5,5,712,80,5,-4.612046810782411,48.46120206566278,1492.5068548220906,106.32105283006828,-3.97984357273333
2025-02-19 17:15:37.906,633,-159,635,34,-21,-19,-1,-7,3,273,76,5,14.057471988449379,44.03876905096756,1328.144950936831,-333.6098691926637,-62.34130149271357
2025-02-19 17:15:38.005,762,131,623,3,1,9,-4,-6,4,262,81,5,-11.874752422350703,50.12244315848721,1529.4163532714624,262.93115784588144,-4.428330824306272
2025-02-19 17:15:38.120,636,-20,751,-3,-15,15,-1,-7,5,714,83,5,1.5254924153526757,40.250273710284056,1282.1276257082668,-40.318478795857445,-11.958878784446824
2025-02-19 17:15:38.222,925,-15,447,36,23,4,-4,-5,5,124,86,5,1.921955958931432,64.19552484357325,1825.2847744025253,-29.599212557878783,11.943465775212132
2025-02-19 17:15:38.333,419,-187,789,-29,20,18,1,-2,2,273,27,5,13.333578440011248,27.32706588387301,878.0692761126274,-391.8829466182848,-75.45264642688062
2025-02-19 17:15:39.754,785,-83,637,-2,-10,-9,-2,-3,4,641,49,6,7.423717262559221,50.70570145276658,1558.9032330702057,-164.82671126729565,9.004637623285134
2025-02-19 17:15:39.843,779,-10,637,2,-7,-7,-1,-3,5,711,58,6,0.8993889080684764,50.7231582915715,1553.0961517340304,-19.937049444596024,4.0099503792333735
2025-02-19 17:15:39.954,744,-39,625,13,-17,-11,-1,-4,5,757,70,6,3.570627055610602,49.91309475807387,1509.068593233213,-79.10440206464423,-17.6987510359653
2025-02-19 17:15:40.057,779,-6,626,2,-6,-14,0,-4,6,763,87,6,0.5491440105656759,51.213552856771464,1558.4861612295686,-12.003744502410026,-0.3906764181128892
2025-02-19 17:15:40.164,790,27,605,6,4,-5,-1,-5,4,746,83,6,-2.5553061905230656,52.52676618403525,1583.6376415072773,54.12432445657784,-2.7857887492439204
2025-02-19 17:15:40.274,682,-38,611,-2,-6,-1,-1,-4,6,765,76,6,3.558819871921611,48.088044298972186,1426.1721758479198,-79.46413883023601,-55.699705928268486
2025-02-19 17:15:40.380,754,-37,632,-1,2,-13,-2,-5,5,686,77,6,3.350517120706243,49.98212224906702,1519.843839630919,-74.58119637446156,-9.92746239620817
2025-02-19 17:15:40.491,946,182,447,19,-15,77,-2,-3,5,410,83,6,-22.15413010635971,62.97018411742813,1836.770153564752,353.3743847238741,26.09697817817738
2025-02-19 17:15:40.597,666,-272,647,13,7,-56,-1,-4,7,587,83,6,22.801974988658,43.49869006909178,1354.3379915644484,-553.1230235818769,-21.700721534831928
2025-02-19 17:15:40.704,918,157,614,-46,65,37,-1,-4,4,590,55,6,-14.34322136223017,55.38017545228945,1740.9398432688188,297.7424350688502,63.58054055876403
2025-02-19 17:15:41.523,773,-27,634,-1,-2,-3,-1,-4,5,574,64,7,2.438567574811325,50.616587730999896,1545.9173022727487,-53.997111463601826,0.06782711394225771
2025-02-19 17:15:41.618,708,-30,640,7,-7,-8,-2,-4,6,322,72,7,2.683775159468985,47.85656252922292,1449.4673593531968,-61.41810844716936,-30.252980206279517
2025-02-19 17:15:41.724,970,-65,476,73,3,-13,-1,-6,7,0,81,7,7.7759086412511875,63.65189909679922,1866.114147766314,-125.04888619052619,36.25738728168511
2025-02-19 17:15:41.830,741,-73,675,26,-8,38,0,-4,6,695,0,7,6.17244270810133,47.502751774600924,1478.3097828867708,-145.63645634377093,3.3615338075976524
2025-02-19 17:15:41.938,829,64,618,-3,8,16,-1,-2,4,408,87,7,-5.912467245964412,53.14978773377059,1629.206097591786,125.77706905413065,21.465176946050974
2025-02-19 17:15:42.043,870,7,629,-18,0,-22,-2,-4,5,0,83,7,-0.6376055649333563,54.13181873290489,1680.3671525127427,13.520195479987587,43.11386329825825
2025-02-19 17:15:42.154,693,-39,680,13,-15,11,-1,-4,5,713,85,7,3.2824855315836947,45.49544686055185,1406.1947475531083,-79.13650094454721,-19.81591390492588
2025-02-19 17:15:42.260,641,-59,594,-24,33,0,1,-4,5,532,56,7,5.672389589560325,47.039192296914564,1372.8200409721924,-126.35941094751844,-84.16084920044011
2025-02-19 17:15:43.182,807,-32,687,-1,-5,-7,-3,-3,6,518,89,8,2.666871448683317,49.56156330740476,1568.1033470225684,-62.18005837016379,39.07187186554597
2025-02-19 17:15:43.276,743,-99,582,4,12,-21,-1,-4,6,96,90,8,9.653786088536545,51.530657439037334,1525.9411357355293,-203.32190099302477,-31.286327049903207
2025-02-19 17:15:43.383,787,91,653,5,-16,24,-2,-2,7,213,89,8,-7.933463814270696,50.045365607751236,1553.5531488174743,179.635751642173,16.965430523747386
2025-02-19 17:15:43.490,867,-150,525,3,14,-59,-2,-4,6,604,0,8,15.945395900922856,57.798618139698924,1713.1803139650083,-296.3979781946381,12.607076318766644
2025-02-19 17:15:43.596,751,97,712,-8,-15,10,-1,-6,6,676,75,8,-7.757983846164228,46.263898286548226,1473.5316817230314,190.32300016928636,26.989936901733245
2025-02-19 17:15:43.706,1278,-11,544,8,53,21,-2,-4,5,566,76,8,1.15839650365991,66.93801774605375,2198.081624160833,-18.919325403575247,152.35336185955134
2025-02-19 17:15:43.809,616,-85,683,7,-20,-5,0,-2,3,553,36,8,7.094040078980677,41.828514388572,1282.9033887067958,-177.0240065585676,-56.43995858237258
2025-02-19 17:15:45.230,763,-42,633,-1,-4,-7,-1,-4,4,536,54,9,3.796051626481842,50.25837124503856,1531.935249606459,-84.3267109875115,-4.924001311780557
2025-02-19 17:15:45.325,758,-50,631,2,-10,-9,-1,-4,6,612,62,9,4.5306110726124595,50.135986125611495,1525.567879833783,-100.63112663811233,-7.964818172977743
2025-02-19 17:15:45.432,794,-17,609,0,0,-4,-2,-5,5,646,71,9,1.5989743415408837,52.500926574531235,1587.3631849411647,-33.98636542065466,0.4884387541948172
2025-02-19 17:15:45.537,769,-21,611,3,-5,-2,0,-4,5,675,73,9,1.9684745092731453,51.515036801863694,1551.7715036996597,-42.37607487346275,-10.941987985035325
2025-02-19 17:15:45.648,795,27,590,-3,-4,-5,-1,-5,4,672,85,9,-2.6201821848806404,53.39078683532865,1597.7215918179375,54.26224274098656,-5.7304895252618735
2025-02-19 17:15:45.754,770,-9,601,-6,4,-17,-1,-4,8,483,86,9,0.85794255365405,52.02415270547256,1558.2702121293341,-18.21354793397923,-14.26025648016855
2025-02-19 17:15:45.861,794,156,549,15,-10,33,-2,-4,5,349,83,9,-15.862658370688086,54.29110861184035,1605.9929608553985,315.53514092373075,-12.440976712359884
2025-02-19 17:15:45.968,787,34,683,-10,38,-6,-2,-5,6,723,0,9,-2.849853208017004,49.01173406001821,1541.8439239599115,66.61079214058067,27.9067343524531
2025-02-19 17:15:46.074,841,-27,652,8,2,13,-2,-4,5,695,81,9,2.3713230981350564,52.19096908788204,1631.0583966714776,-52.364538299797736,39.49337142710658
2025-02-19 17:15:46.180,838,-48,470,-39,5,30,0,-2,6,3,93,9,5.831266462677562,60.58671794261928,1709.0999885480974,-97.89594206480749,-18.564432717906527
2025-02-19 17:15:46.292,509,-125,721,-11,57,21,1,-1,4,257,28,9,9.835621263291081,34.8219958897425,1080.0287653753553,-265.2329973908043,-87.86392895015922
2025-02-19 17:15:46.397,825,-53,674,8,-18,-6,0,0,2,145,33,9,4.496202333233841,50.66566737239136,1598.4605379860773,-102.68898001607528,42.10617866349571
2025-02-19 17:15:46.504,685,-71,686,-12,2,-5,1,-1,2,0,30,9,5.908990657683856,44.805588880664125,1389.7034212410417,-144.0422524206043,-19.732185359641676
