Timestamp,Acc_X,Acc_Y,Acc_Z,Gyro_X,Gyro_Y,Gyro_Z,Mag_X,Mag_Y,Mag_Z,Force,IR_A,Letter,Roll,Pitch,Lin_Acc_X,Lin_Acc_Y,Lin_Acc_Z
2025-02-19 16:54:24.815,726,-96,674,-1,0,0,0,-1,-2,704,78,noise,8.106298541851611,46.84015698998327,1455.4482280287439,-192.45596403685866,-3.2012475087786925
2025-02-19 16:54:24.914,723,-95,676,-1,0,0,2,0,0,701,79,noise,7.999534199267416,46.644564674445164,1450.1088680094063,-190.53989275365643,-3.841763173386994
2025-02-19 16:54:25.025,716,-95,675,-1,0,-1,2,-1,0,703,76,noise,8.011231612856024,46.40777223315463,1440.2654023956252,-191.09666651897263,-7.792104213752964
2025-02-19 16:54:25.125,721,-98,680,-1,0,-1,0,0,-2,701,77,noise,8.20086696969307,46.3822330770047,1444.9579816002065,-196.4020557514844,-2.7897746021365037
2025-02-19 16:54:25.237,729,-99,681,-1,0,0,0,-2,0,703,76,noise,8.271398687974441,46.65077035647248,1456.183220675184,-197.75327688181505,1.697155994787181
2025-02-19 16:54:25.348,721,-101,673,-1,-1,-1,0,-2,0,701,76,noise,8.534928639768104,46.65371421244708,1448.218489163945,-202.87110597164832,-5.804498207121924
2025-02-19 16:54:25.454,724,-97,677,-1,-1,-1,-1,-1,-2,701,77,noise,8.15379787783114,46.6308906421849,1450.945004060677,-194.3945654611681,-2.753822857843261
2025-02-19 16:54:25.557,715,-98,673,-1,-1,0,1,0,1,703,76,noise,8.284987635778903,46.433112764075325,1439.5702900656788,-197.31173206494617,-9.008119180701783
2025-02-19 16:54:25.666,720,-92,675,-1,-1,-1,1,-1,-1,701,77,noise,7.761378118158931,46.58443406610713,1446.3879784250666,-184.81624168764742,-5.988729773500154
2025-02-19 16:54:25.774,725,-89,674,-1,0,0,0,-1,0,702,77,noise,7.522243996775961,46.84074588785973,1454.4552586540008,-178.54692140718078,-4.141854252133044
2025-02-19 16:54:25.875,725,-100,679,-2,0,0,0,-1,0,702,77,noise,8.378032265526441,46.569732656621355,1451.2116054625947,-200.16711799484062,-1.1347311849677908
2025-02-19 16:54:25.986,720,-95,678,-2,0,-1,0,-1,0,703,76,noise,7.976240890980676,46.44274260665307,1444.6861155232104,-190.61830690931248,-4.412758784356583
2025-02-19 16:54:26.096,720,-100,678,-1,-1,-1,1,-2,-1,701,76,noise,8.390213474605794,46.41301410945206,1444.3284822896662,-200.60117809578696,-4.0759874894355335
2025-02-19 16:54:26.205,717,-96,679,0,-1,0,1,-2,-1,704,76,noise,8.047390418089677,46.276085489624826,1439.678717644268,-192.76033039588523,-5.377753529229949
2025-02-19 16:54:26.307,714,-97,675,0,-1,0,1,-1,0,703,76,noise,8.177630986566532,46.31590932883536,1437.158955472964,-195.24428386677522,-8.658676392508141
2025-02-19 16:54:26.416,718,-98,678,0,-1,0,0,-1,0,704,76,noise,8.224727832968401,46.345486161692754,1441.5153980251944,-196.75279805914906,-5.208133511255596
2025-02-19 16:54:26.516,721,-96,675,0,-1,-1,0,0,0,702,76,noise,8.094448482272004,46.600978162091415,1447.5864009255306,-192.74382037288618,-5.229986996855928
2025-02-19 16:54:26.626,709,-97,680,0,-1,-1,0,-1,-1,701,77,noise,8.118305817465945,45.90772163676925,1427.2200780069709,-195.26142110955732,-8.842952108237
2025-02-19 16:54:26.741,719,-103,678,-1,-1,0,1,-2,0,702,77,noise,8.638176996652321,46.35470519172962,1442.626460931133,-206.66276144076033,-4.362643270247759
2025-02-19 16:54:27.959,684,-118,635,-28,-6,-3,1,0,-1,643,39,A,10.527014282916559,46.64230090752934,1411.0817428230127,-243.43223048701094,-39.995477620779184
2025-02-19 16:54:28.046,767,-137,673,-9,1,-2,0,-1,2,638,44,A,11.506262189377527,48.15745194394942,1511.9808247206704,-270.0669791222058,19.320606209894095
2025-02-19 16:54:28.159,744,-131,609,-13,4,-10,-1,0,1,661,53,A,12.13972516471719,50.061513779651044,1510.7341098354136,-266.00291450059035,-18.608968937858776
2025-02-19 16:54:28.265,818,-139,693,-35,18,2,1,-1,1,755,61,A,11.34172813086346,49.17095280919012,1574.6636943180447,-267.57732702959436,51.963398334468366
2025-02-19 16:54:28.375,725,-141,660,6,-12,-9,0,-1,-1,803,65,A,12.059180689461865,47.0499247171162,1456.9476836459487,-283.35120468148796,-6.32478787079458
2025-02-19 16:54:28.480,756,-184,646,5,2,-10,0,0,2,828,94,A,15.89852819807305,48.37944447952917,1503.5598512074691,-365.945783891765,7.212084814781747
2025-02-19 16:54:28.585,854,16,643,10,-3,56,0,-1,0,225,95,A,-1.4254173165177433,53.01438606494507,1652.7865911148601,30.96555674219878,41.57168842288661
2025-02-19 16:54:28.698,772,-151,617,12,34,-67,0,-1,1,785,88,A,13.751845218040557,50.55214106529246,1544.2031161328277,-302.03972867364894,-0.1623350439826936
2025-02-19 16:54:28.805,702,-136,621,-39,-32,62,0,-4,1,746,95,A,12.352844428348288,47.836616762535044,1443.233730230005,-279.60083662575596,-34.70676135731219
2025-02-19 16:54:28.909,810,-43,688,50,51,-20,1,0,1,747,88,A,3.5763343749973515,49.60088584424987,1571.5483279619311,-83.42787420044819,41.15401279282912
2025-02-19 16:54:29.018,992,58,632,-4,-66,5,-1,-1,2,641,96,A,-5.243469505898692,57.389943882834814,1834.3578231029223,107.25075981851765,95.33654818442835
2025-02-19 16:54:29.125,756,-89,650,-5,9,19,-1,-1,4,856,96,A,7.796632084878459,49.04821014796645,1511.261337994521,-177.9130411131116,0.6350929941287404
2025-02-19 16:54:29.236,643,-178,704,13,27,14,1,1,-1,679,39,A,14.189338038819104,41.52446560467917,1305.939795900621,-361.5198812913071,-21.831440612810297
2025-02-19 16:54:29.340,697,-109,683,20,-10,-6,2,1,-3,510,36,A,9.067373006983706,45.22103132952566,1406.829335950924,-220.00630935244,-12.571644841436068
2025-02-19 16:54:30.358,729,-175,646,8,-9,-9,1,0,1,796,49,B,15.15751099592712,47.44542609848327,1465.6335066620604,-351.8324604469966,-6.7643968500563005
2025-02-19 16:54:30.456,725,-156,661,0,-6,-5,1,1,1,819,53,B,13.27916473152627,46.86984595394439,1454.8025771491675,-313.033382117614,-4.378625511172231
2025-02-19 16:54:30.562,782,-105,619,3,-16,-12,0,0,2,828,73,B,9.627352800254444,51.240153652067455,1561.7769058833182,-209.70150270811817,1.7597126064270014
2025-02-19 16:54:30.673,772,-140,576,-13,-6,-13,1,-2,3,826,99,B,13.661153706905505,52.4816306214314,1565.1581268704058,-283.8369660127679,-15.786374452530936
2025-02-19 16:54:30.779,854,154,545,-10,-24,54,-1,-2,4,315,105,B,-15.778636887400769,56.44919065553632,1687.3960418553274,304.2845321378459,13.14889600567517
2025-02-19 16:54:30.886,503,-281,467,13,-23,-58,0,-2,3,832,98,B,31.03587201257317,42.70382153515272,1181.208685965823,-659.8800015037699,-162.66889929630076
2025-02-19 16:54:30.991,640,-137,769,11,-2,-12,0,-2,4,856,98,B,10.101461411557034,39.329433191989715,1273.7783154809567,-272.66817065764235,7.4757428049125565
2025-02-19 16:54:31.096,851,-31,466,26,15,13,2,-1,2,758,100,B,3.8059142048749375,61.241958967986726,1727.6592439151655,-62.93470806271459,-14.050772813709557
2025-02-19 16:54:31.210,734,-53,636,-11,-4,29,-1,0,2,567,104,B,4.763641690726178,48.99341822720047,1488.6342113769952,-107.48993624384298,-17.879234926115714
2025-02-19 16:54:31.312,824,-48,527,-36,77,39,0,0,3,694,51,B,5.204231436212831,57.29099768302175,1665.4258889607631,-97.01510032781144,-11.144955682429668
2025-02-19 16:54:31.423,624,-211,673,25,-37,-31,1,1,0,759,40,B,17.407332036480344,41.500094460644185,1286.621282980128,-435.0594402384727,-41.65404398337512
2025-02-19 16:54:32.242,750,-125,628,-3,0,-3,0,-1,2,784,68,C,11.257287055898699,49.510650037194075,1510.5266707066844,-251.75444511778073,-8.81433227173045
2025-02-19 16:54:32.336,754,-130,643,-6,0,-2,3,0,1,791,68,C,11.429833780784039,48.975437405508934,1508.428259590477,-260.07383786042703,-0.3652134173430568
2025-02-19 16:54:32.441,734,-143,620,-5,-2,1,0,-1,3,785,67,C,12.987867377468625,49.07919285362435,1489.6156481021324,-290.21122299537456,-18.258449350575006
2025-02-19 16:54:32.553,704,-103,627,9,-25,-27,-1,-2,3,832,97,C,9.32890407514315,47.93178310397014,1446.3476257255563,-211.61051910473338,-34.15335416182347
2025-02-19 16:54:32.659,723,-306,585,41,25,-7,0,-3,2,522,99,C,27.613027823084472,47.59965534583275,1461.451284447657,-618.5395477745269,-12.502076627771999
2025-02-19 16:54:32.766,830,-17,610,34,-19,12,0,-1,2,764,0,C,1.5963544295742491,53.675740560926926,1635.6775474399778,-33.5018292849152,17.87553742363093
2025-02-19 16:54:32.866,719,-126,583,-43,53,20,0,1,-1,793,44,C,12.195393588591358,50.32193828782965,1488.6440798706985,-260.87504042240334,-41.064671160802845
2025-02-19 16:54:32.979,765,-109,649,-2,-12,-15,2,1,1,741,41,C,9.533888220661478,49.29630439131329,1523.0922739218204,-217.01576190520052,5.860280032338096
2025-02-19 16:54:33.795,745,-126,628,-2,-2,-3,0,-1,0,789,70,D,11.345018678766797,49.312630287540216,1503.2780664154984,-254.24568640047352,-11.192786186486956
2025-02-19 16:54:33.886,766,-93,633,0,3,-1,1,0,3,789,75,D,8.358068443700004,50.12995405598034,1533.5003948401904,-186.1821628200231,-1.2398824201573007
2025-02-19 16:54:34.003,795,-152,714,-7,4,-14,-1,-2,2,775,90,D,12.01801191498905,47.44063792576149,1531.5769867744705,-292.8298138235465,52.470479802551154
2025-02-19 16:54:34.113,747,-366,713,-10,-25,62,-1,-2,1,732,92,D,27.172517148311567,42.986005313234486,1428.8197041200474,-700.0642727013887,62.21358897243135
2025-02-19 16:54:34.215,686,-119,672,31,38,-69,0,-1,0,809,93,D,10.04202363552951,45.14841979032941,1394.936106026612,-241.97871226992243,-22.46802223015004
2025-02-19 16:54:34.322,651,-132,706,-7,-29,16,0,-2,0,850,87,D,10.590252723392442,42.18884438580184,1322.5763403087249,-268.17216116858935,-22.314740795636794
2025-02-19 16:54:34.426,931,63,443,-7,15,28,0,-1,1,520,95,D,-8.093885052081415,64.33012772310354,1832.304926813562,123.99055895730872,14.129879077972078
2025-02-19 16:54:34.535,486,-169,718,-27,35,9,3,1,0,756,38,D,13.24496765462192,33.37988016839448,1036.1875432237607,-360.32035968069044,-94.82851035938302
2025-02-19 16:54:35.347,733,-118,655,1,-4,1,0,-1,1,784,65,E,10.212446420639681,47.76140244945349,1473.3519207382249,-237.1835288500826,-6.569588108509379
2025-02-19 16:54:35.453,739,-102,640,-5,-4,-8,0,-1,1,797,73,E,9.055357508085182,48.75037034024421,1490.8440692482104,-205.77279440232408,-11.123415857719465
2025-02-19 16:54:35.557,791,-99,583,-5,4,-21,0,-2,1,785,94,E,9.637538112930946,53.21847391065298,1591.9244728410663,-199.24212744787044,-7.314750526348348
2025-02-19 16:54:35.665,916,209,659,-12,-23,51,0,-2,2,599,96,E,-17.596278192759126,52.95644113749242,1714.1777520915484,391.11697618682706,84.76513250182268
2025-02-19 16:54:35.775,586,-255,696,-4,26,-66,1,-2,1,821,87,E,20.121788981563537,38.32863038924578,1206.171102883036,-524.8696778757237,-40.5854737313872
2025-02-19 16:54:35.876,737,64,645,12,-27,31,0,-4,2,862,88,E,-5.666614193486234,48.66942760417547,1487.9118569628563,129.20808527221544,-12.175234384046462
2025-02-19 16:54:35.985,487,113,520,-35,23,4,1,0,0,781,78,E,-12.260199214567743,42.46409930910282,1162.1281079127648,269.65190183602135,-200.8760084489479
2025-02-19 16:54:36.096,731,-35,638,17,-19,12,1,-1,2,860,88,E,3.1400379363058493,48.843639620125316,1483.9163847596606,-71.0493481075077,-19.128116931140312
2025-02-19 16:54:36.202,642,-181,349,32,-26,-8,-1,0,1,536,88,E,27.412367256784663,58.51780462097697,1494.8024892251906,-421.43185443887774,-114.59512264733883
2025-02-19 16:54:36.309,724,-9,670,14,-15,18,2,1,2,847,89,E,0.7695985125947775,47.215806333077225,1457.9172757884858,-18.123281052619298,-9.177589472770023
2025-02-19 16:54:36.416,579,-181,711,-15,28,-13,1,2,0,784,38,E,14.282471748351094,38.27963942011348,1198.5001151989418,-374.6606577737625,-49.733302083674744
2025-02-19 16:54:37.136,744,-79,652,-2,-2,-2,-1,-2,0,816,60,F,6.908602724581982,48.56343293329925,1493.6888572689618,-158.6040587691505,-4.985396423875045
2025-02-19 16:54:37.230,742,-66,645,1,-4,-2,0,0,0,804,69,F,5.842489266191621,48.85267318817299,1495.0201376227037,-132.98022787479576,-9.579499685503947
2025-02-19 16:54:37.337,743,-60,646,-1,-3,-9,0,-2,-1,798,78,F,5.306365817118166,48.87285351307304,1496.2518462484554,-120.82787452881203,-8.913449093542795
2025-02-19 16:54:37.446,745,-162,608,0,1,-27,-2,-4,2,754,90,F,14.919685855714864,49.81622784682001,1508.978810562971,-328.12693598818964,-15.488747412464704
2025-02-19 16:54:37.550,859,70,594,-1,-10,40,2,0,1,642,91,F,-6.721029575638208,55.15101487674375,1679.6609765602589,136.87574896300129,26.5115016568177
2025-02-19 16:54:37.655,798,-142,582,5,4,-34,-1,-4,2,706,90,F,13.711493539432515,53.103798821173044,1597.7244657534275,-284.30685982078535,-1.2576930682890861
2025-02-19 16:54:37.766,682,-49,732,5,-8,23,2,-3,2,877,85,F,3.829659867774801,42.910949691494054,1362.8608514591529,-97.91815501685996,1.2226638297655654
2025-02-19 16:54:37.873,965,-42,686,-2,8,-19,1,-1,1,672,89,F,3.503531644784458,54.541076938421284,1779.5316312041969,-77.45111762754019,106.9650787501771
2025-02-19 16:54:37.975,704,-9,687,4,-6,22,1,1,1,858,87,F,0.7505567963642668,45.697743768981994,1419.6652304908093,-18.149129367070007,-11.38354168634396
2025-02-19 16:54:38.087,620,-140,675,1,11,0,1,-2,-1,797,45,F,11.717434703203377,41.96750313391649,1288.7090038722542,-290.99880732599286,-53.029963893180025
2025-02-19 16:54:38.807,749,-62,636,0,-3,-2,0,-2,1,844,71,G,5.567844682902952,49.53060299215846,1509.752742239553,-124.97285716802708,-9.979631594600278
2025-02-19 16:54:38.895,750,-29,615,2,-3,-2,2,-2,2,856,73,G,2.6997523835495914,50.617045774253626,1522.922374725445,-58.88633182271721,-18.796347274864843
2025-02-19 16:54:39.008,746,-62,661,-4,1,-10,0,-4,0,860,88,G,5.358510195140837,48.33257392707292,1493.0162598781692,-124.08446127673791,-0.9004661923188451
2025-02-19 16:54:39.114,909,68,530,6,-9,59,0,-2,0,707,88,G,-7.311213676989076,59.55138284588193,1771.0839742204698,132.49033030472157,27.354778507317008
2025-02-19 16:54:39.225,688,-102,681,3,6,-51,2,-1,2,852,86,G,8.518422702014751,44.975177100762934,1394.800366958475,-206.78726370605298,-18.60908415511824
2025-02-19 16:54:39.332,811,119,576,-5,-6,51,1,-2,1,766,89,G,-11.672921885871132,54.04913263295045,1620.520738120103,237.7829443110879,1.0506224942300832
2025-02-19 16:54:39.439,2261,-456,627,33,28,-31,0,-2,-1,730,89,G,36.02737338510361,71.07345497733789,3206.9351869898874,-646.7768444349352,364.6818389019641
2025-02-19 16:54:39.546,669,-28,667,13,-19,22,1,-1,2,876,86,G,2.403808765252978,45.06055216901025,1376.8536811598385,-57.62616303807994,-38.73752665711834
2025-02-19 16:54:39.656,665,-146,639,-23,43,7,0,-1,-1,800,47,G,12.870132160948884,45.41363445868908,1377.1931145200729,-302.36119506756484,-45.347970192972184
2025-02-19 16:54:40.372,746,-51,650,0,-3,-3,0,-3,-1,808,65,H,4.486323817888329,48.84681597483613,1498.9528681478205,-102.47533012806815,-6.058129083221729
2025-02-19 16:54:40.466,727,-48,647,3,0,-5,0,-2,0,809,71,H,4.242918656646712,48.25413363652161,1473.1054135306533,-97.26143032939663,-17.003029648325196
2025-02-19 16:54:40.572,771,-71,638,0,-3,-8,1,-4,0,788,82,H,6.350048236353379,50.21906483998899,1539.4964738664503,-141.76945479185207,2.071659757723637
2025-02-19 16:54:40.679,757,-14,636,1,0,-1,-1,-3,1,797,87,H,1.2610241992825593,49.95758075373196,1522.5683418670146,-28.15846338987874,-7.19876542591976
2025-02-19 16:54:40.788,750,-25,645,-1,0,-3,1,-3,1,801,88,H,2.2196555531978914,49.28320713175216,1507.9431795675682,-50.26477265225227,-6.8311344281084985
2025-02-19 16:54:40.896,743,51,666,-2,-17,51,1,-3,1,688,89,H,-4.378968607752393,48.044763369774465,1486.6673690794598,102.0458086447543,-0.5982070079678579
2025-02-19 16:54:41.003,723,-31,602,23,18,-39,1,-1,1,743,89,H,2.9478433229401695,50.18051123328546,1491.0657502263607,-63.93227974691173,-37.52362605293092
2025-02-19 16:54:41.108,843,108,670,15,-38,3,0,-2,1,796,87,H,-9.156969684919753,51.164547007634674,1621.950091213785,207.79431773557388,50.9056214552362
2025-02-19 16:54:41.220,552,-49,558,-11,24,-38,0,-1,1,871,70,H,5.018476687176373,44.58027352043059,1253.9078664999838,-111.30703887409275,-151.53729983150527
2025-02-19 16:54:41.326,712,6,632,-2,-19,81,1,-2,1,759,88,H,-0.5439309327914329,48.4051619112784,1459.8579021347175,12.302173332595935,-31.82892436677173
2025-02-19 16:54:41.431,1093,-34,612,-40,85,20,0,-1,0,807,62,H,3.179830119864234,60.71671770150524,1965.2120267987082,-61.13193861953896,123.62510484829869
2025-02-19 16:54:42.145,771,-42,639,12,-5,-3,1,-1,-1,846,69,I,3.7605107057569396,50.28758502551852,1540.261127381861,-83.90527542157997,1.441166800247629
2025-02-19 16:54:42.248,740,-23,646,5,-2,-4,1,-3,0,853,69,I,2.039081308799968,48.86193892308372,1493.126537535439,-46.40798697745283,-11.459112497153342
2025-02-19 16:54:42.354,630,-80,662,10,-5,-11,-1,-3,0,814,80,I,6.890548321938934,43.373822810658815,1316.7554830190938,-167.2070454627421,-59.63830120419084
2025-02-19 16:54:42.455,934,219,657,-8,-51,-9,1,-5,0,797,83,I,-18.43494882292201,53.443943605845334,1737.2745200183374,407.3480940942354,91.95571771729374
2025-02-19 16:54:42.566,737,34,672,0,36,-11,1,-4,0,855,77,I,-2.8964237938899275,47.60482944974967,1475.5121748153824,68.0697611176703,-1.3788079727775084
2025-02-19 16:54:42.675,769,58,659,-5,-16,57,1,-2,1,767,89,I,-5.029763784277952,49.295586011630576,1527.084097180176,115.17669393556594,9.354460283828416
2025-02-19 16:54:42.780,528,-150,514,-21,9,-20,1,-1,1,583,80,I,16.26876526099188,44.59915558485822,1230.1425592040182,-349.472317955687,-169.52514286148755
2025-02-19 16:54:42.891,715,93,669,16,-34,20,2,-2,-1,789,88,I,-7.914164509047649,46.629995141793906,1441.9342713095905,187.552289834674,-11.166472036525988
2025-02-19 16:54:42.997,659,-71,526,-31,70,14,0,1,0,721,46,I,7.687377990511994,51.151419762754486,1437.8063968287313,-154.90782120613034,-95.62695710457149
2025-02-19 16:54:43.816,744,-48,652,2,-4,-2,-1,-2,1,782,65,J,4.210498403302206,48.693719421889305,1495.1917817410927,-96.46398591878017,-6.302475396763953
2025-02-19 16:54:43.914,739,-33,656,3,-2,-2,-1,-3,0,797,68,J,2.8798296244229324,48.3690326790089,1486.4391413165022,-66.37684934160293,-7.491308123985618
2025-02-19 16:54:44.018,671,-63,673,20,4,-1,0,-2,0,795,74,J,5.347913082558449,44.78976682310254,1375.5074675261662,-129.14600663807522,-33.60734075277162
2025-02-19 16:54:44.126,738,149,659,-2,-40,9,1,-3,0,850,83,J,-12.740366055584943,47.52608676440962,1475.5848565557603,297.91618377616294,0.37070396985632215
2025-02-19 16:54:44.234,746,31,681,-6,27,-18,1,-3,2,847,82,J,-2.6063786135720997,47.57849626106541,1484.2022154886781,61.675963378215855,7.118352885000036
2025-02-19 16:54:44.338,719,187,703,-17,-20,65,2,-2,1,731,87,J,-14.895902221507297,44.66543716949704,1421.96579559997,369.82976881390044,15.677393175550606
2025-02-19 16:54:44.451,1069,-273,387,42,25,-19,1,-2,1,524,90,J,35.20015133113236,66.10512967180848,1983.290223759658,-506.4903939068163,56.00812292330431
2025-02-19 16:54:44.553,448,-134,779,-7,5,1,2,1,-2,772,39,J,9.760238509822598,29.543359314614598,941.0820718523,-281.4843697058219,-78.39047761817358
2025-02-19 16:54:45.373,743,-22,661,3,-1,-3,0,-4,0,742,70,K,1.9062662865393634,48.32678630648274,1489.9491020188575,-44.116931688310714,-3.5132657260629685
2025-02-19 16:54:45.472,687,-51,645,9,-16,-17,0,-4,-2,688,79,K,4.520957899581423,46.71691911773892,1414.9752441818887,-105.04183035411401,-38.47020741967708
2025-02-19 16:54:45.577,766,-176,734,0,-8,20,1,-5,1,599,89,K,13.483923370726421,45.42172447129918,1478.2922256483262,-339.65983252494175,51.46410753802695
2025-02-19 16:54:45.685,776,15,632,21,3,26,0,-2,2,520,88,K,-1.359612927935252,50.831592521256944,1551.2928677402151,29.986331206318592,0.5759118404432684
2025-02-19 16:54:45.796,497,-224,739,23,-59,-32,1,-2,0,850,84,K,16.862702352776424,32.76587540421903,1038.207484068721,-467.9244998619587,-65.73305981244391
2025-02-19 16:54:45.897,803,95,650,-5,17,21,0,-2,1,411,86,K,-8.315125756791886,50.714627023464494,1577.0018801332012,186.5693382473899,23.47294883364782
2025-02-19 16:54:46.005,630,91,776,-38,-55,62,-1,-1,2,394,91,K,-6.688416224220351,38.88028652662818,1257.6952542428626,181.66709227952458,2.8388614405375847
2025-02-19 16:54:46.105,876,-29,583,-20,91,5,1,1,2,704,61,K,2.847700175657032,56.3225757650948,1708.1726781390603,-56.5490955091698,29.16818338462099
2025-02-19 16:54:46.931,747,-46,663,1,-4,-2,1,-3,0,785,63,L,3.9689124162058746,48.34102562640979,1494.1143172364748,-92.007039615633,-0.10146228618862096
2025-02-19 16:54:47.028,730,-42,666,0,-1,-3,0,-4,0,788,64,L,3.6084688525663444,47.568283384026024,1468.0819610941267,-84.46498954240181,-7.373405600942988
2025-02-19 16:54:47.134,735,-22,668,-1,2,-9,0,-3,-2,773,66,L,1.886304949604425,47.71861413778049,1474.8497028960905,-44.145161175121075,-4.4076211354944235
2025-02-19 16:54:47.245,690,-84,644,1,-19,-20,-1,-3,0,778,88,L,7.431407971172507,46.73379400327162,1418.177138109596,-172.64765159595078,-35.631995568956086
2025-02-19 16:54:47.347,743,32,648,-9,-9,62,0,-2,0,455,88,L,-2.827124578161273,48.87244887943114,1496.2472012003068,64.44133302612357,-8.93699377900225
2025-02-19 16:54:47.456,770,29,649,13,-31,11,1,-1,1,725,88,L,-2.558510098602749,49.84573485389677,1534.3110049268726,57.7857391465965,4.795010133064579
2025-02-19 16:54:47.556,987,-46,660,-28,72,24,2,1,0,832,64,L,3.9868948798016057,56.16545279236899,1817.6488928302388,-84.71311962532013,104.55089233236322
2025-02-19 16:54:48.480,726,-52,671,-1,-2,-6,0,0,-1,761,65,M,4.43135251927604,47.16906286547938,1459.3628899274631,-104.52736952648496,-6.805095235988688
2025-02-19 16:54:48.580,713,-25,667,2,-5,-16,0,-3,-2,749,71,M,2.1465131764129155,46.88908780434826,1443.0321313315699,-50.59719955580539,-15.933284148887992
2025-02-19 16:54:48.682,750,-90,607,3,7,-18,0,-4,0,710,88,M,8.433810717013632,50.71061501650476,1523.9575410118755,-182.87490492142507,-19.389636525611195
2025-02-19 16:54:48.786,788,134,613,18,3,27,-1,-2,0,686,90,M,-12.330724558791378,51.47010397644353,1570.2832321265096,267.0278592702441,4.447181099555223
2025-02-19 16:54:48.904,723,-231,658,-1,-1,-26,1,-3,-1,795,85,M,19.34432927212115,46.033764443088444,1442.7490380758409,-460.9613109204968,2.9586901052513213
2025-02-19 16:54:49.005,869,237,613,-8,-20,-1,0,-2,0,831,85,M,-21.13765648518333,52.899984726577166,1666.583768027132,454.5228458255815,50.37761818109095
2025-02-19 16:54:49.113,770,98,635,21,-11,62,0,-4,1,810,84,M,-8.77328131366606,50.15707662570111,1537.8037671710467,195.72047945813318,1.8111790212798269
2025-02-19 16:54:49.224,1099,-146,735,-22,67,4,1,0,-1,847,68,M,11.234957667935241,55.711620733939,1925.2125718957777,-255.76072383692775,182.4374519168365
2025-02-19 16:54:50.038,722,-59,682,5,-4,-6,0,-1,-1,787,61,N,4.944362948411253,46.52527750421731,1447.6779857052259,-118.30055561857108,-3.4742191841605745
2025-02-19 16:54:50.136,732,-36,666,0,2,-3,-2,-2,1,788,67,N,3.094058058917111,47.661335806847205,1471.1767660032303,-72.35295570507688,-6.529680543922382
2025-02-19 16:54:50.243,781,-69,841,-7,1,-20,1,-2,0,727,88,N,4.69033741680964,42.78569400820234,1460.25808052513,-129.0112772807093,109.55820010034029
2025-02-19 16:54:50.346,787,221,604,-28,-13,59,0,-1,0,0,88,N,-20.097271712560428,50.743200776103436,1561.317556220085,438.4386021914088,9.733413015335259
2025-02-19 16:54:50.455,686,-128,595,0,3,-60,-1,-2,0,729,86,N,12.14078305478597,48.42088147429596,1434.0400090566638,-267.575978366258,-53.81021193690242
2025-02-19 16:54:50.567,722,-123,684,-3,-33,88,0,-3,1,763,85,N,10.194236993214131,46.092786550402785,1442.46380775748,-245.738294119349,1.4553400192297659
2025-02-19 16:54:50.670,744,-46,601,31,14,-84,2,0,0,815,86,N,4.376833955302146,50.98704871149108,1521.003688369614,-94.04055062500302,-26.660237513626498
2025-02-19 16:54:50.780,649,13,592,-41,57,42,0,-2,-2,843,48,N,-1.2579821662552613,47.62291046943528,1387.7249102424707,27.797263225195863,-81.84460225507326
2025-02-19 16:54:51.598,766,-39,640,6,-8,0,0,-1,0,846,80,O,3.4871494609179647,50.06868079750762,1532.81440596756,-78.04146453359643,-0.6804436282487814
2025-02-19 16:54:51.693,754,-17,645,1,-3,1,0,-3,0,869,84,O,1.5097717876199686,49.4452469764035,1513.7849925963028,-34.1304308675559,-4.948700563150396
2025-02-19 16:54:51.804,712,-139,623,20,14,-19,0,-2,1,785,87,O,12.577487204246468,48.12332274691242,1456.5833316266549,-284.3610717641925,-28.510415173323054
2025-02-19 16:54:51.910,816,233,623,-2,-16,31,2,-1,0,804,85,O,-20.505635431857538,50.81553204134094,1591.115794056268,454.3259559008706,31.214289586942527
2025-02-19 16:54:52.017,755,-46,559,17,22,-29,-1,-3,0,849,84,O,4.704259056289487,53.39134424032052,1557.7273934406883,-94.90789416989622,-35.337235673304235
2025-02-19 16:54:52.123,587,-61,720,-19,10,19,2,-2,-1,812,45,O,4.842661219313409,39.08928443498319,1217.5306587361363,-126.52362893169389,-53.39365296425592
2025-02-19 16:54:53.046,757,-37,653,-1,0,-1,0,-3,-1,820,71,P,3.243000744227113,49.173010526239516,1513.6871745166397,-73.98470998297975,0.2698481382224145
2025-02-19 16:54:53.138,736,-15,649,-1,-2,-5,0,-2,1,816,73,P,1.324011877489561,48.58677282913548,1485.9583807186173,-30.28447786790661,-12.308409084759091
2025-02-19 16:54:53.246,807,-16,607,1,1,-10,0,-3,0,772,88,P,1.5099180297860257,53.04110770597386,1606.0670855647072,-31.84271792941179,5.966888552940304
2025-02-19 16:54:53.351,813,261,542,8,-9,38,0,-2,1,599,91,P,-25.713132112172797,53.50089129208716,1616.8661135722318,519.0677191172848,6.089257618511965
2025-02-19 16:54:53.458,825,-103,596,1,1,-60,2,-3,0,843,82,P,9.804940344685189,53.753628822659664,1631.4820531894559,-203.68806239819872,13.377813695859913
2025-02-19 16:54:53.565,702,104,699,-8,-8,54,0,-2,2,791,83,P,-8.462613651345185,44.809064817672905,1406.7464629795043,208.406883404371,-2.7347259582244305
2025-02-19 16:54:53.675,1142,21,689,-23,63,27,0,-3,1,751,67,P,-1.7457750307814657,58.88449707783094,1998.1272912006725,36.74314633556403,172.4748654664944
2025-02-19 16:54:53.778,600,-61,680,14,-32,-13,1,0,-2,781,45,P,5.126047821567939,41.3097822142213,1260.1299230535692,-128.11320884377955,-68.14724612737814
2025-02-19 16:54:53.885,728,-37,660,-6,1,0,0,-1,-1,799,55,P,3.2086775351558483,47.76002057855864,1468.3357078010108,-74.62695218219424,-11.183471358059478
2025-02-19 16:54:53.995,744,-40,666,-5,0,-2,1,-1,0,808,55,P,3.437059194254513,48.11505964193306,1488.487053851943,-80.02618569096468,-0.43599175456188277
2025-02-19 16:54:54.101,754,-26,665,-5,4,3,-1,-2,-1,810,55,P,2.2389953372027254,48.56719418327918,1503.7322996801233,-51.852837920004255,3.763953199891148
2025-02-19 16:54:54.205,734,-49,672,1,-4,-3,0,-1,0,812,53,P,4.170436524842112,47.449250383760784,1470.6786450672,-98.1788196298267,-2.452383494766309
2025-02-19 16:54:54.305,737,-34,656,0,-4,-1,1,-2,0,817,56,P,2.9669435553226626,48.289710483701434,1483.5187042289535,-68.43912611096937,-8.472550846938248
2025-02-19 16:54:56.235,749,-23,646,0,-3,-1,0,-2,1,849,62,Q,2.039081308799968,49.20482857995889,1506.050119735629,-46.24719993847726,-6.9430939241873375
2025-02-19 16:54:56.329,758,-21,646,2,-4,-1,1,-4,0,850,66,Q,1.8619006282246078,49.546007027196815,1518.9272103659794,-42.08109685710497,-2.4946937947527204
2025-02-19 16:54:56.436,973,81,651,2,-2,-11,1,-2,0,862,83,Q,-7.0925173282730745,56.01121110546864,1802.1469743523085,150.0245682657112,96.24698838298798
2025-02-19 16:54:56.546,690,-222,587,42,15,-29,0,-5,1,766,84,Q,20.716327660982085,47.71247665752486,1429.7776318072142,-460.0154119727558,-42.347057783818514
2025-02-19 16:54:56.655,722,170,710,-25,-24,-7,-1,-3,0,701,86,Q,-13.46520809481171,44.681636461369905,1425.1668524621691,335.5656023802892,18.52013123526308
2025-02-19 16:54:56.756,845,-54,715,3,13,50,1,-3,0,835,82,Q,4.319034304230269,49.68327573800747,1607.4795035164334,-102.72650081643481,69.82503548609463
2025-02-19 16:54:56.866,805,24,458,-18,-1,4,1,-3,0,711,82,Q,-2.9996553064960194,60.328766336394864,1673.880158537002,49.90450162097893,-36.34423926701447
2025-02-19 16:54:56.970,760,95,622,5,-18,44,0,-1,2,794,91,Q,-8.683854165365622,50.37824013030701,1530.2711054578467,191.28388818223084,-8.406088940500808
2025-02-19 16:54:57.076,618,-181,698,-11,38,-3,2,0,-1,793,43,Q,14.537303774393145,40.597918520891916,1268.746633524403,-371.59084250471994,-36.985679935328676
2025-02-19 16:54:57.185,810,5,639,-7,0,-8,2,0,-1,752,49,Q,-0.44831463395223403,51.72963104736094,1595.0967900864266,9.846276482014979,19.64586559848567
2025-02-19 16:54:57.907,733,-48,644,-2,-3,-2,1,-2,1,822,68,R,4.262611122790051,48.619361390110775,1483.3344973076082,-97.13513761359508,-15.22976298240053
2025-02-19 16:54:58.005,744,-26,648,1,-1,-6,-2,-2,1,827,76,R,2.297672261204155,48.92236165637599,1497.8198982917909,-52.34316848869161,-8.552814641237092
2025-02-19 16:54:58.105,757,-37,623,-3,1,-12,0,-2,-2,811,87,R,3.3988067906933233,50.49661557592739,1528.587009318779,-74.71297139338813,-12.004896704886846
2025-02-19 16:54:58.217,741,138,653,-6,-16,61,0,-2,1,647,87,R,-11.932871148772604,47.99046780204959,1484.0334931126156,276.3787072193535,-1.7919986538970534
2025-02-19 16:54:58.318,760,-25,637,17,14,-61,1,0,0,821,85,R,2.2475035081913814,50.00996999147115,1526.1562824641214,-50.20250929158294,-5.159936749533472
2025-02-19 16:54:58.431,686,55,740,0,-19,25,1,-4,1,835,83,R,-4.250654574651198,42.75267537069049,1364.8350332681973,109.42554931450559,7.728972859379155
2025-02-19 16:54:58.541,799,-149,527,2,12,-12,1,-3,0,661,86,R,15.787319157629788,55.57208710680128,1623.838164331541,-302.8183810831034,-17.042193495271704
2025-02-19 16:54:58.646,755,33,649,16,-13,34,1,-1,1,684,91,R,-2.9108378261677537,49.28098822694338,1512.9179164531606,66.12753807013814,-2.5082487127167497
2025-02-19 16:54:58.754,544,-161,699,-9,9,-17,0,1,-2,728,41,R,12.970668714099771,37.176590990780156,1148.2736307332939,-339.83833556628736,-77.4471836076699
2025-02-19 16:54:59.568,739,-50,650,0,-3,-3,0,-1,0,801,60,S,4.398705354995532,48.582376132770676,1488.907618248791,-100.737998528335,-9.593980868354947
2025-02-19 16:54:59.668,741,-45,650,0,-8,-6,2,-1,1,808,67,S,3.9603118304583846,48.67507230497521,1491.9769152518634,-90.60588554161112,-8.75168004549414
2025-02-19 16:54:59.774,795,-39,632,-1,0,-3,0,-2,0,819,86,S,3.53117959800913,51.46335383635058,1577.2098387989006,-77.37255812975738,10.167775948547046
2025-02-19 16:54:59.881,743,-105,635,5,5,-22,0,-2,2,675,89,S,9.389147561331248,49.099305205090225,1498.8455294245618,-211.81531707884122,-10.978346143468116
2025-02-19 16:54:59.986,702,86,696,4,-14,38,1,-1,1,596,86,S,-7.043947029796928,45.028862735773394,1409.4628963310774,172.66924371007497,-5.416204909443877
2025-02-19 16:55:00.086,895,7,499,10,31,1,1,-1,0,528,89,S,-0.8036956939864333,60.85610427819127,1768.399373011182,13.831056548690807,12.043254600469595
2025-02-19 16:55:00.204,492,-160,752,-17,22,15,1,1,-3,714,32,S,12.011478386365443,32.616438625217384,1031.0124692744125,-335.2886078941179,-71.85645710235406
2025-02-19 16:55:01.118,743,-41,659,0,-1,-2,3,-2,1,824,60,T,3.5600956093916016,48.373795834744854,1490.4943663375475,-82.2480067561769,-3.986254934648514
2025-02-19 16:55:01.215,752,-36,667,6,-2,-4,1,-2,0,827,67,T,3.0894282840079454,48.38662588421727,1499.6430949076062,-71.79142475621518,3.8644357667910754
2025-02-19 16:55:01.318,721,-44,665,7,2,-6,1,-3,0,814,72,T,3.785481274675359,47.251349624339724,1455.338498647165,-88.81399991744141,-12.30249875223933
2025-02-19 16:55:01.431,635,-44,657,14,-11,-14,1,-2,0,756,85,T,3.8314389451375974,43.96040815414574,1329.1611350465832,-92.0993542394483,-61.210812166307505
2025-02-19 16:55:01.544,653,107,702,-16,-39,25,1,-4,0,848,84,T,-8.666414441069255,42.600981981110706,1329.8885854066357,217.91436238669218,-25.681143882784113
2025-02-19 16:55:01.646,770,40,664,-14,29,-13,1,-4,0,830,80,T,-3.4473868518651978,49.17623422372059,1526.7239575230255,79.31033545574161,11.448431434689496
2025-02-19 16:55:01.756,729,-45,686,-13,-15,55,0,-1,1,540,86,T,3.753092411779063,46.67921322166157,1456.5238964303912,-89.90888249570315,1.389035732169532
2025-02-19 16:55:01.859,1080,-104,698,0,60,13,0,-1,0,778,71,T,8.474561808385808,56.83816034173459,1917.128817876081,-184.61240468436336,156.96674548379212
2025-02-19 16:55:01.967,600,-120,729,2,-9,-10,1,0,-2,736,35,T,9.347577809664934,39.0806105581306,1230.4131497686938,-246.08262995373877,-36.951976968963095
2025-02-19 16:55:02.685,749,-57,673,6,-7,-10,1,-1,0,732,59,U,4.841135013035004,47.957491720552554,1491.6481866879033,-113.51661767851866,5.707303550121765
2025-02-19 16:55:02.783,702,-44,663,5,-7,-6,0,-2,-1,739,64,U,3.7968671725252863,46.57372720607543,1428.259532845037,-89.52054052020173,-22.911781020312674
2025-02-19 16:55:02.885,727,-11,652,4,1,-9,1,-3,-1,735,74,U,0.9665548883236121,48.10903956560659,1471.4169010315738,-22.26352945164692,-15.620109315799368
2025-02-19 16:55:02.998,745,-84,614,-1,3,-18,-2,-5,0,440,89,U,7.790149641629582,50.24503001264165,1513.7863625518482,-170.68195228772518,-19.603794103134078
2025-02-19 16:55:03.104,798,172,640,4,-21,25,1,-2,1,614,86,U,-15.042800746053848,50.291618282393415,1567.3061023844402,337.8153503886262,23.012649716739816
2025-02-19 16:55:03.214,776,-199,621,5,1,-25,-1,-1,0,812,84,U,17.76810274232241,49.958235439653784,1541.5756930598159,-395.32675633879296,8.34213222919368
2025-02-19 16:55:03.317,871,165,581,1,-4,35,-1,1,-2,570,87,U,-15.854181409733059,55.26150518989359,1692.761378689564,320.6723622087004,32.844591253000544
2025-02-19 16:55:03.427,488,-161,724,-16,25,10,0,0,-1,789,32,U,12.537186735051574,33.34335891901628,1037.6551628801371,-342.34115004856983,-91.47200394512129
2025-02-19 16:55:04.245,726,-31,673,1,-1,-2,1,-1,-2,771,55,V,2.6373173384687503,47.13929365361513,1459.0095673270184,-62.299306593853416,-6.497849602043402
2025-02-19 16:55:04.341,737,-25,677,2,-1,-4,0,-2,-2,773,58,V,2.1148359312675438,47.4103136711876,1473.2189179580869,-49.97350467971802,0.7174932732359594
2025-02-19 16:55:04.447,724,-3,676,2,0,-13,1,-2,-1,712,64,V,0.2542695416124967,46.96337609355252,1454.917613599308,-6.0286641447485145,-6.458987283331794
2025-02-19 16:55:04.555,784,42,567,-10,-4,-12,0,-6,-2,595,85,V,-4.236394799058841,54.05053923794923,1593.5351509016928,85.36795451259067,-18.467385919973935
2025-02-19 16:55:04.665,659,253,621,-14,-21,49,1,-2,0,598,84,V,-22.166345822082455,44.50187106825072,1359.932556047826,522.0985382095598,-39.514593787101376
2025-02-19 16:55:04.771,710,-232,683,1,-5,-54,1,-3,0,840,85,V,18.761488528868423,44.5465816726576,1411.4889077479006,-461.2189107007224,8.187430997442334
2025-02-19 16:55:04.877,647,-2,616,-47,67,36,1,-2,-1,822,45,V,0.18602460450752825,46.405876593419464,1371.2425890801837,-4.238771527295777,-73.5416304070992
2025-02-19 16:55:06.293,725,15,662,5,-3,-10,0,-5,-1,713,82,W,-1.2980206285598561,47.5933663657836,1463.3772657834106,30.276771016208492,-12.21482751533506
2025-02-19 16:55:06.385,765,-29,646,-1,-1,-14,1,-5,-1,462,87,W,2.5703758259891147,49.79233360057036,1528.7096570340618,-57.95108503789254,1.0896229490144833
2025-02-19 16:55:06.504,723,229,645,-10,-11,31,0,-2,-1,595,84,W,-19.54683452041678,46.569114027665506,1449.2041827162157,459.01487944953453,-2.8585032530555736
2025-02-19 16:55:06.605,802,37,590,4,-7,-18,1,-2,1,747,82,W,-3.588425918452557,53.605849004214534,1606.954371961834,74.1362989558452,-2.17341578239666
2025-02-19 16:55:06.716,750,-19,641,-10,-2,-25,1,-4,0,838,85,W,1.6978177196543252,49.468166035730256,1510.0450100497355,-38.25447358792664,-8.585135255840669
2025-02-19 16:55:06.815,791,-183,667,19,-5,42,1,-3,0,820,84,W,15.342304706542322,48.833618583779334,1543.801268671216,-357.1626196799399,32.21056105726825
2025-02-19 16:55:06.929,834,18,629,-7,-10,17,1,-2,1,628,87,W,-1.6391774945497617,52.96524966342604,1632.2703576806462,35.22885664058949,26.947176281622887
2025-02-19 16:55:07.032,779,1,706,8,-2,-9,0,-2,3,840,88,W,-0.08115544078765778,47.814266119032006,1519.9718255337943,1.9511833447160392,34.464558630476404
2025-02-19 16:55:07.143,573,-153,697,-37,65,27,0,-1,0,795,35,W,12.380756928807175,38.763640128743035,1199.1091177670728,-320.180968618433,-64.60219037286151
2025-02-19 16:55:08.255,717,-1,679,-2,-1,-1,1,0,-3,396,40,X,0.08438253032135766,46.55921117598811,1443.0853497958733,-2.0126713386274377,-8.6038389280302
2025-02-19 16:55:08.349,708,-9,680,-6,0,-2,1,-1,-3,498,40,X,0.7582822187639481,46.153158981779065,1429.1941391612247,-18.167722107981668,-12.672337047504016
2025-02-19 16:55:08.465,708,-37,681,-19,-3,-3,2,-2,-2,599,42,X,3.109928837530299,46.07141000711927,1428.205021751734,-74.63783305764711,-11.739576006964512
2025-02-19 16:55:08.567,742,-46,686,-8,-8,-1,1,-2,-1,703,46,X,3.836248122468664,47.1816721539064,1475.512486427575,-91.47381991329982,7.8469465103549965
2025-02-19 16:55:08.675,721,-89,653,-3,-9,1,0,-1,-1,807,51,X,7.761250500115767,47.570818764113476,1459.111816828783,-180.1122769733172,-15.497942287371984
2025-02-19 16:55:08.785,750,-65,654,2,-4,-2,1,-2,0,845,55,X,5.675894713573158,48.77203774020272,1502.093356782161,-130.18142425445393,-1.8254071140441965
2025-02-19 16:55:08.891,728,-81,652,4,-4,-3,0,-1,0,870,57,X,7.081749768858569,47.93408733409036,1470.3745707150988,-163.59936844494916,-12.873928717368585
2025-02-19 16:55:08.998,734,-52,655,1,-3,-4,1,-2,0,883,61,X,4.53915229790068,48.16578514647189,1479.077839026183,-104.7848060345525,-9.885537550613094
2025-02-19 16:55:09.099,728,-43,651,3,-8,-6,-1,-2,2,891,65,X,3.7790244025820945,48.13396022725449,1472.7072516942126,-86.98682942699332,-14.940138534247808
2025-02-19 16:55:09.211,822,-3,617,3,-7,-6,1,-2,1,894,83,X,0.2785834424783925,53.107478777209224,1621.7630240979029,-5.918843153641982,16.691258067632475
2025-02-19 16:55:09.321,830,-38,633,0,-6,-15,0,-2,0,897,89,X,3.4354341585559918,52.61931923650316,1624.619372960572,-74.38016406325511,26.983056525250504
2025-02-19 16:55:09.428,899,221,585,-14,5,40,1,-2,0,687,88,X,-20.695450734063282,55.17716885820269,1719.9217268051857,422.80611971517914,50.8073301657023
2025-02-19 16:55:09.535,689,-134,665,16,29,-70,0,-2,0,495,83,X,11.392753722367917,45.445562327268746,1401.5841817755777,-272.5867639447422,-22.762671815325348
2025-02-19 16:55:09.646,765,-68,636,-32,-50,85,1,-3,-1,756,86,X,6.102779653655784,50.10063447101757,1532.1722549302044,-136.19308932712931,-1.8059531184444495
2025-02-19 16:55:09.748,857,-16,598,23,21,-4,2,-2,2,820,86,X,1.5326317903579636,55.08370008680491,1676.9890745366542,-31.309014227055386,25.825593263804763
2025-02-19 16:55:09.856,580,-120,719,-3,-9,-21,1,1,-2,730,41,X,9.475244124701678,38.50822463760666,1202.626971281348,-248.81937336855478,-52.842745433257505
2025-02-19 16:55:10.671,741,-16,656,0,2,-3,1,-3,0,680,73,Y,1.3971810272963767,48.473394313951644,1489.647947913111,-32.16513787666637,-6.770652943321011
2025-02-19 16:55:10.775,715,-24,668,14,-19,-12,-1,-4,1,567,86,Y,2.057645946948279,46.92796034808369,1445.495627358748,-48.520132946307626,-14.477033672228913
2025-02-19 16:55:10.881,793,-107,713,-33,-23,23,1,-4,-1,713,87,Y,8.534695092111445,47.72334585532593,1532.9052606254143,-206.83589266950736,47.73839744524537
2025-02-19 16:55:10.985,828,85,524,30,-7,-30,0,-2,1,842,86,Y,-9.213906015108801,57.33515952642052,1669.842141684713,171.42099280579785,-8.760002708683032
2025-02-19 16:55:11.091,730,17,609,-3,0,-11,0,-2,0,844,85,Y,-1.5989743415408837,50.15258561948865,1497.7535460928416,34.879192169285346,-31.495766534986956
2025-02-19 16:55:11.197,878,0,489,-5,12,3,0,-3,1,341,89,Y,0.0,60.884484203116166,1751.640490530585,0.0,2.428018371917915
2025-02-19 16:55:11.298,792,102,601,17,0,20,0,1,2,161,94,Y,-9.63229300786674,52.414897086095465,1584.4482562692376,204.05772997406848,-0.34015406289381644
2025-02-19 16:55:11.414,538,-183,729,-14,25,-7,1,0,0,708,41,Y,14.091708871232624,35.594666594984,1120.0472797624784,-380.98262490061995,-59.68488280083045
2025-02-19 16:55:12.232,745,-35,648,1,0,-2,0,-2,1,837,69,Z,3.091675301723397,48.94196943590094,1499.0447206416807,-70.4249197616897,-7.867085873569067
2025-02-19 16:55:12.328,733,-16,657,-2,5,-5,0,-2,0,820,69,Z,1.3950552609814286,48.12116056198254,1477.5581403706678,-32.252292286399296,-10.359752010271109
2025-02-19 16:55:12.431,717,-25,655,13,3,-16,1,-3,1,712,72,Z,2.185800806775599,47.566640087955705,1455.0626094518018,-50.73440060850076,-19.24129594271983
2025-02-19 16:55:12.545,1010,-6,623,49,-9,-17,0,-4,-1,752,79,Z,0.5517882006375755,58.33121227686317,1861.0972375257975,-11.056023193222558,98.01625843705779
2025-02-19 16:55:12.648,599,10,771,-3,7,49,2,-5,-1,843,78,Z,-0.7430942538426535,37.84176734558507,1212.4828961337475,20.24178457652333,-18.641590849948784
2025-02-19 16:55:12.755,1000,48,692,45,-18,14,1,-1,-1,523,80,Z,-3.9679181379869037,55.252396022700914,1821.6707736248286,87.44019713399177,123.4038246516186
2025-02-19 16:55:12.864,757,76,661,-12,-2,23,1,-2,1,806,80,Z,-6.558913161265679,48.686587444598715,1508.1096109830712,151.40862673013658,5.143391202364683
2025-02-19 16:55:12.975,556,-88,709,-7,20,-3,3,-1,-2,748,35,Z,7.0752804416779185,37.89117893718366,1170.1637081246708,-185.20576675354505,-74.16918895753895
2025-02-19 16:55:13.891,749,-22,653,-7,2,-1,-1,0,0,823,61,a,1.9296026899594663,48.90103616041389,1502.5752804224078,-44.13438740893588,-3.988862637960324
2025-02-19 16:55:13.987,747,-30,651,-2,-2,-2,0,-2,-2,825,62,a,2.6384918254112053,48.898203657024595,1500.5427818372225,-60.26276232278002,-5.70194240432636
2025-02-19 16:55:14.090,751,-26,652,1,-4,0,0,-1,2,832,64,a,2.283591081567053,49.01374086050495,1505.8668967313163,-52.133873921457024,-3.357146030383774
2025-02-19 16:55:14.199,735,-24,638,1,-3,-1,2,-2,2,834,67,a,2.1543113375859386,49.02107517435177,1489.9508481299772,-48.65145626546865,-17.31787905704175
2025-02-19 16:55:14.305,819,20,674,0,-3,-7,1,-1,1,836,85,a,-1.699672749586064,50.5347909141583,1591.0106779844234,38.85251960889923,38.67008918009617
2025-02-19 16:55:14.416,676,-42,662,-7,11,-22,-1,-2,-1,719,88,a,3.630214159296703,45.54195658909122,1389.7635201458347,-86.34625421024417,-36.98143540908666
2025-02-19 16:55:14.524,802,71,615,6,-15,36,1,-2,0,681,85,a,-6.585480776849327,52.33450911089235,1593.591710705073,141.0785679053119,7.981418848354679
2025-02-19 16:55:14.630,737,-60,653,0,1,-26,1,-2,1,819,81,a,5.24980241756796,48.33869577090832,1484.0872876711628,-120.8212174494841,-8.937583241885136
2025-02-19 16:55:14.735,732,125,632,-17,-9,38,1,-2,0,741,81,a,-11.18784119562057,48.64856313624139,1482.6713192126635,253.1884083354958,-16.120592544266742
2025-02-19 16:55:14.841,983,38,672,-16,47,9,2,0,-2,825,67,a,-3.2364931435998496,55.6000238157793,1808.1137331145342,69.89656343677753,107.93445711803963
2025-02-19 16:55:14.947,672,-48,671,5,-15,-8,2,0,-1,818,43,a,4.091684962489054,44.96955011149973,1378.7308888741695,-98.48077777672637,-34.67920600382081
2025-02-19 16:55:15.765,764,7,643,0,-1,-7,1,-2,-1,816,73,b,-0.6237241265942401,49.913589452141295,1529.0741530845025,14.009841716742823,-0.9040319808050299
2025-02-19 16:55:15.863,757,-18,605,0,2,-11,0,-4,1,786,83,b,1.704165104817636,51.35553063826133,1538.0360211776265,-36.57153022615228,-19.209765934562597
2025-02-19 16:55:15.973,802,200,572,0,-6,39,1,-1,1,631,87,b,-19.27219706726986,52.92685670737474,1599.86658768181,398.96922386080047,2.9480197581108314
2025-02-19 16:55:16.080,825,-97,636,19,-8,-29,1,-1,1,816,80,b,8.671681853710947,52.052052661486066,1613.569750830885,-189.71668585526768,28.08441026855428
2025-02-19 16:55:16.186,770,32,554,-13,10,31,2,-2,1,645,86,b,-3.305830231549703,54.22047059250911,1581.272760452395,65.71523160321641,-29.694947130684227
2025-02-19 16:55:16.297,591,-48,675,-12,26,10,2,-1,-2,743,47,b,4.067519566580148,41.1323430868598,1248.800522562543,-101.42542315228775,-76.2950130790465
2025-02-19 16:55:17.116,750,-38,654,0,-3,-1,-1,-1,-1,773,61,c,3.3253737005815474,48.86373844698819,1503.1471994716308,-76.15945810656262,-2.7443579392619313
2025-02-19 16:55:17.206,739,-20,627,4,-13,-1,1,-1,1,794,69,c,1.8269970964778313,49.672892944346444,1501.362243340245,-40.63226639621774,-19.82155152142593
2025-02-19 16:55:17.316,754,-86,672,-3,2,-19,-2,-2,1,767,84,c,7.292854109808131,48.05981676358283,1497.8429923608019,-170.84150841250522,9.05239938135469
2025-02-19 16:55:17.416,873,162,549,19,-18,48,0,-1,0,609,83,c,-16.44037952168017,56.74821222354887,1709.2690472743602,317.1839469168915,23.09884655942301
2025-02-19 16:55:17.530,942,86,630,-29,70,24,1,1,-1,836,55,c,-7.773282717551243,55.98095304339552,1770.851633075405,161.6701066289648,75.67247469479287
2025-02-19 16:55:17.639,633,-58,668,1,-25,-9,1,-1,-2,776,36,c,4.962338172658846,43.35156484756389,1319.4730533804996,-120.8995846699352,-56.42969930201207
2025-02-19 16:55:18.455,764,-42,632,2,-4,0,2,-1,1,793,69,d,3.8020404342335357,50.33957802249933,1533.8406110527667,-84.32108071232486,-4.831500242602601
2025-02-19 16:55:18.549,760,-1,622,1,-7,-5,1,1,1,806,77,d,0.09211532178133783,50.70234710418881,1533.866155332094,-2.018244941226439,-11.34835344284511
2025-02-19 16:55:18.660,700,-87,656,-3,11,-23,0,-1,0,696,85,d,7.554592400819679,46.609213165774854,1426.6851453019524,-177.31658234467122,-25.007793311543878
2025-02-19 16:55:18.767,809,264,582,7,-15,43,0,-2,-2,557,85,d,-24.39943592417513,51.69268344477915,1593.6972196052309,520.0693028130789,17.48358243480311
2025-02-19 16:55:18.876,770,-292,685,5,-3,-33,-1,-2,0,850,82,d,23.087454420503832,45.959221094739384,1488.8452116521094,-564.6010413018389,45.50783119260393
2025-02-19 16:55:18.979,854,288,528,8,2,30,0,-1,0,664,84,d,-28.61045966596522,54.84448474986532,1671.592197135935,563.7219587531022,22.509742285979428
2025-02-19 16:55:19.088,526,-128,727,-28,27,0,1,0,-2,810,36,d,9.985498526791437,35.47219720866786,1106.3078375992156,-269.2155954614061,-75.06045234720477
2025-02-19 16:55:21.306,730,-18,653,-3,4,-4,1,-2,1,793,69,e,1.5789631525491712,48.17590092674388,1475.1955847436998,-36.374685651214506,-13.592762791282098
2025-02-19 16:55:21.405,676,-4,639,-2,-10,-7,-1,-2,0,749,74,e,0.35865434212854014,46.61113898243044,1402.7082352406414,-8.300048729234565,-47.93278449522177
2025-02-19 16:55:21.512,770,107,625,9,-21,17,0,-3,1,765,82,e,-9.714855768932498,50.52863064524412,1541.9423347049437,214.26990884860908,-1.5765703773894302
2025-02-19 16:55:21.618,678,-27,683,-3,9,-27,0,-2,1,815,82,e,2.2638081362725204,44.76714304417688,1382.2271822261337,-55.04444530989028,-26.420598024261494
2025-02-19 16:55:21.716,891,192,532,7,-21,54,2,-1,0,589,82,e,-19.844627566131656,57.59355377249144,1735.2676354139367,373.92972614980454,27.90305045991647
2025-02-19 16:55:21.829,896,101,617,-34,75,31,0,-1,0,820,54,e,-9.296597302155131,55.09338910934672,1716.0858551890528,193.44271358715883,52.27570016557422
2025-02-19 16:55:21.936,639,-60,670,4,-19,-8,2,1,-3,690,34,e,5.117314849972639,43.52908864616622,1327.7227542026699,-124.66880321151828,-52.13496919528768
2025-02-19 16:55:22.756,750,-86,657,-9,-7,1,0,0,0,822,61,f,7.457504036554647,48.54027356018855,1499.421295487584,-171.9336418825763,0.506945152876483
2025-02-19 16:55:22.854,762,-102,635,0,-8,0,-1,-1,3,830,70,f,9.125464399978354,49.835109295976594,1526.1914041336918,-204.29333756120283,-1.8261701114098514
2025-02-19 16:55:22.961,747,-107,645,2,-8,5,-1,0,1,828,77,f,9.419101864566597,48.80582381438109,1499.4818573250277,-214.7852191884578,-4.733330622011863
2025-02-19 16:55:23.062,770,-15,614,-6,3,2,1,0,2,767,93,f,1.3994556622355554,51.42271866690242,1551.7677889298557,-30.2292426414907,-9.383665458352539
2025-02-19 16:55:23.177,694,-300,693,21,-17,-52,0,-4,2,873,89,f,23.407807349337617,42.58377799615024,1370.6675333173193,-592.507579243798,17.307491946826644
2025-02-19 16:55:23.280,875,2,695,-13,39,39,0,-3,1,849,82,f,-0.16487948591554338,51.54027028787815,1658.0454973743429,3.789818279712784,73.0381477998078
2025-02-19 16:55:23.391,760,-62,622,23,10,-18,1,-4,0,646,88,f,5.692351883893384,50.56349494989295,1532.3290087255268,-125.00578755392456,-10.090320299049608
2025-02-19 16:55:23.495,729,49,707,-17,-1,18,0,-4,1,870,88,f,-3.964654722856123,45.80911194846037,1446.021471191801,97.19485883182202,11.617036855139645
2025-02-19 16:55:24.315,748,-54,633,4,-4,-1,0,-1,1,800,77,g,4.875986212462188,49.65774366376982,1510.1911069707312,-109.02449167970519,-12.009319134321913
2025-02-19 16:55:24.411,865,-32,661,5,-2,-6,0,-1,1,806,89,g,2.771610601706297,52.581958536067084,1659.2233288603115,-61.38167228153753,54.08483193449035
2025-02-19 16:55:24.517,728,-115,659,-8,6,-24,0,-2,0,661,89,g,9.898826214297227,47.420110046367135,1464.3346161167033,-231.31659457887486,-7.544659369378451
2025-02-19 16:55:24.624,750,91,642,19,-9,33,2,-2,1,738,89,g,-8.067620612824774,49.15473599678442,1506.4786133566552,182.7860717539408,-5.545693033296857
2025-02-19 16:55:24.734,754,-138,623,17,2,-20,1,-2,2,820,86,g,12.489850870338772,49.75916542445386,1517.3358184241977,-277.70867764262505,-7.713812835908584
2025-02-19 16:55:24.841,846,46,537,-53,-5,39,-1,2,1,265,95,g,-4.896066214974064,57.49975127246953,1689.3891133259003,91.85803689478891,1.657264945616589
2025-02-19 16:55:24.945,775,-11,566,-23,48,5,1,0,-2,493,52,g,1.1133820542180166,53.853347693318945,1582.5098710156199,-22.46143042731848,-23.74269289656877
2025-02-19 16:55:25.766,713,-29,665,3,-2,-4,0,-4,1,762,70,h,2.4970308362758145,46.967832941439156,1443.9706981226564,-58.73092601059893,-16.76088955338912
2025-02-19 16:55:25.861,1081,-7,714,10,5,-12,0,-4,1,729,85,h,0.561705332566547,56.55399027608008,1915.4055464498788,-12.403181151849353,162.87552251136606
2025-02-19 16:55:25.972,702,-194,643,24,8,-2,1,-5,-2,720,86,h,16.789126301540488,46.26662223106526,1424.564548350741,-393.6830803134527,-18.836188873969604
2025-02-19 16:55:26.074,789,58,582,5,-2,13,0,0,0,215,90,h,-5.691098146923932,53.45059123305293,1592.3436189405784,117.05441051781185,-10.580464161491477
2025-02-19 16:55:26.181,699,-104,794,-7,-14,-8,0,-1,1,752,87,h,7.4622552706110525,41.11759764911942,1356.606661921976,-201.84133453488624,47.01904210865689
2025-02-19 16:55:26.287,852,-88,626,26,-1,-3,1,-2,0,770,89,h,8.001924090332443,53.42584081702809,1655.086295326437,-170.94788026845825,35.938942635740204
2025-02-19 16:55:27.111,738,-46,651,3,-2,-2,0,-2,0,756,69,i,4.041831804154141,48.513244959460984,1487.108877427972,-92.69242325431804,-9.799294316544547
2025-02-19 16:55:27.196,662,-61,644,8,-19,-17,0,-2,0,786,82,i,5.410940969785187,45.661731696129394,1377.2260970150105,-126.90451951346775,-51.77886174874129
2025-02-19 16:55:27.315,746,-98,699,-9,-12,23,-1,-2,1,724,89,i,7.980865037138543,46.584626881312055,1472.3902913133848,-193.42392566851433,18.374244466413074
2025-02-19 16:55:27.421,953,115,643,34,37,-64,0,-1,0,767,84,i,-10.140091155405848,55.572578394599006,1777.843012107607,214.53509589965876,86.46898553495157
2025-02-19 16:55:27.523,784,151,614,6,-4,-3,0,-4,0,734,88,i,-13.816467869510083,51.11386687392038,1562.3951069879936,300.9204861673304,4.389546312974517
2025-02-19 16:55:27.628,737,29,593,-22,44,35,-1,-3,-1,804,51,i,-2.79975531133189,51.145954369096025,1515.7465590924646,59.64267328857731,-33.58983655608097
2025-02-19 16:55:28.445,741,-50,635,4,-1,-2,1,-2,1,781,74,j,4.502189492040974,49.317563235185744,1499.3341923954158,-101.16964860967715,-14.854537342900016
2025-02-19 16:55:28.547,821,-19,655,1,-3,-4,0,-3,1,780,87,j,1.6615490499348482,51.40512277334538,1602.5762499091388,-37.08763550337836,31.45256554143009
2025-02-19 16:55:28.654,675,-58,729,10,-17,50,1,-1,1,755,87,j,4.548929917714722,42.7072956917602,1353.2532438692642,-116.27953799172937,-3.5135033788052397
2025-02-19 16:55:28.760,754,17,492,6,45,-41,1,0,0,141,0,j,-1.9789449159865962,56.85910676302953,1591.328738507098,35.87876466130062,-54.373659609406104
2025-02-19 16:55:28.870,264,-216,1043,66,-9,-53,0,-3,1,798,86,j,11.700267779659853,13.920608657908792,504.5771829072215,-412.8358769240903,92.53787207487869
2025-02-19 16:55:28.977,1025,-23,682,-3,43,33,2,-2,2,826,71,j,1.931530317720185,56.34654220586066,1857.404555899459,-41.6783461323781,128.14643207470124
2025-02-19 16:55:29.084,636,-71,686,8,-26,-10,1,-1,0,800,44,j,5.908990657683856,42.68186703894721,1313.9270502317718,-146.68053548184875,-45.22320197955264
2025-02-19 16:55:29.805,761,-49,636,-1,3,-6,-1,-4,-1,633,86,k,4.405594350936013,50.02961629365441,1527.3765988613623,-98.34619361919414,-4.493451873621893
2025-02-19 16:55:29.899,850,225,645,-14,-11,54,1,-3,1,424,87,k,-19.230672375661285,51.21227179810989,1629.4721551155171,431.3308645894016,53.51818817704873
2025-02-19 16:55:30.006,969,13,527,1,12,-24,1,-2,1,770,81,k,-1.4130817982608956,61.45269977797195,1847.4228973960176,24.784827312846467,49.26123124076241
2025-02-19 16:55:30.108,817,0,607,9,-3,0,0,-2,0,780,83,k,0.0,53.3890518444834,1619.703533075095,0.0,10.62173246440318
2025-02-19 16:55:30.210,781,0,631,-4,1,0,0,-1,0,789,83,k,0.0,51.063919324171515,1558.8475492091734,0.0,2.546986490411882
2025-02-19 16:55:30.325,733,34,603,-3,21,-3,-1,-2,1,312,85,k,-3.2271906909675856,50.51307059424544,1504.7696685918452,69.79832023481956,-31.893738282241088
2025-02-19 16:55:30.428,825,35,637,8,-43,22,2,0,0,757,82,k,-3.1449574646980225,52.285726685129504,1616.071167039958,68.56059496533155,26.197171630965954
2025-02-19 16:55:30.535,783,0,599,-4,0,6,1,-1,2,826,86,k,0.0,52.58378057992397,1577.2426513678738,0.0,-8.600700088577923
2025-02-19 16:55:30.646,531,-131,707,-21,16,5,2,0,-1,727,42,k,10.497280879766478,36.4455241527476,1125.0582246551412,-277.5567371559765,-83.95887915477374
2025-02-19 16:55:31.665,751,-4,645,-2,-4,-7,1,-2,0,770,66,l,0.35531810860711366,49.34166228848539,1509.6083052406216,-8.040523596487997,-6.534429933689694
2025-02-19 16:55:31.763,765,-3,657,2,5,-13,0,-2,1,754,70,l,0.26162274569479377,49.34294472209971,1523.622888423543,-5.97499171930801,5.476813471545711
2025-02-19 16:55:31.869,775,-143,852,3,2,-23,0,-3,1,665,84,l,9.527740767053722,41.894539409844526,1442.7616156198383,-266.2127884304992,117.89303676373936
2025-02-19 16:55:31.975,685,28,730,-6,-16,80,1,-3,0,598,84,l,-2.1965695654588147,43.15747185798821,1369.0058359922814,55.95936263910055,1.0594740520213008
2025-02-19 16:55:32.086,1046,-128,670,13,28,-5,0,-1,1,760,80,l,10.815731565965937,56.89083406600172,1883.631342842877,-230.50173220257,133.4674955021726
2025-02-19 16:55:32.193,550,-118,727,-5,-4,-5,1,2,-3,711,30,l,9.21932817143385,36.75094121566027,1148.3377629364945,-246.37064732092063,-63.893733917875466
2025-02-19 16:55:33.310,739,-48,659,5,-4,2,1,-1,0,781,56,m,4.165932139669544,48.19984779632418,1484.474229066534,-96.42051826142574,-5.773365297491068
2025-02-19 16:55:33.406,746,-48,670,7,-8,-1,1,-3,0,801,64,m,4.097771166621807,47.99933045392196,1489.137006111217,-95.81578591600325,2.5713215891213395
2025-02-19 16:55:33.510,785,40,646,2,3,-3,1,-2,0,779,75,m,-3.543202663474493,50.4942144371846,1556.560350107029,79.3151770755174,11.05989023039399
2025-02-19 16:55:33.616,647,-37,619,4,-17,-19,0,-2,1,755,82,m,3.4207180141744953,46.21595967925557,1368.952995850082,-78.28633824799542,-71.70928041916682
2025-02-19 16:55:33.730,770,141,648,-11,-7,39,2,-3,-1,505,87,m,-12.275785793778928,49.26330810789904,1527.7165806511275,279.75069853481693,10.337215244245726
2025-02-19 16:55:33.836,814,-92,674,3,-6,-37,0,-2,-1,760,82,m,7.77275285359194,50.11490381592765,1581.3319801600737,-178.72548178713365,38.64157908121649
2025-02-19 16:55:33.942,790,110,616,-3,-7,34,0,-2,1,657,86,m,-10.124671655397817,51.617907849599334,1573.8875593649486,219.14890067106882,4.766156242014745
2025-02-19 16:55:34.048,776,-6,655,-7,0,-30,0,-1,1,760,83,m,0.524832155798528,49.832034770972825,1540.1567925182965,-11.90842880813116,9.996521779015211
2025-02-19 16:55:34.145,719,25,681,-8,-7,40,2,-1,1,676,84,m,-2.1024251678482044,46.53552641034652,1444.8010477482799,50.236475930051455,-6.441604334601607
2025-02-19 16:55:34.261,920,-3,613,25,9,-21,2,-1,0,788,81,m,0.2804012500397342,56.32399011673311,1752.1863661787067,-5.713651194061,58.51060601353572
2025-02-19 16:55:34.366,512,-111,736,-1,-1,2,2,1,-2,760,31,m,8.576440838042924,34.52304193334551,1078.7376197257572,-233.86694490148253,-78.68532835577628
2025-02-19 16:55:34.476,760,-37,653,5,-3,-1,1,1,-2,682,40,m,3.243000744227113,49.285085640823475,1517.964566252468,-73.9009065149228,1.748866101497697
2025-02-19 16:55:34.585,695,-52,690,4,-3,-10,0,0,-1,593,40,m,4.309795992399512,45.125722067861005,1403.6566566280953,-105.02179301390063,-13.558407299835267
2025-02-19 16:55:34.692,769,-6,659,-6,1,0,1,-1,-2,559,45,m,0.5216467047203078,49.40366843838113,1528.312972462176,-11.924418510758198,8.301366901724577
2025-02-19 16:55:35.610,749,-4,663,2,-6,-5,-1,-2,-2,682,66,n,0.3456717004706569,48.4848632303698,1497.7806394042755,-7.998828514842591,0.19417366484049126
2025-02-19 16:55:35.699,715,5,649,1,-4,-10,0,-2,2,567,77,n,-0.44140713385150776,47.76936960825119,1455.445387818949,10.177939774957682,-23.09658278950735
2025-02-19 16:55:35.815,729,-109,664,-12,2,-23,0,-4,-2,392,83,n,9.32233768442418,47.2921383636693,1463.8215369682616,-218.87043556864273,-5.302469886043696
2025-02-19 16:55:35.920,771,26,619,5,0,13,-1,-1,0,104,87,n,-2.405194056379013,51.215986761967315,1550.5127706110084,52.2870713824724,-6.834507144246686
2025-02-19 16:55:36.025,887,-28,598,6,-1,-50,1,-2,0,591,81,n,2.6807875810217454,55.98374937487508,1715.8789370540185,-54.16528775367814,39.18421154644534
2025-02-19 16:55:36.134,719,80,666,7,-6,49,-2,-3,0,694,83,n,-6.849557992766558,46.98682152970511,1450.1968174027827,161.3570867763875,-11.29774741342601
2025-02-19 16:55:36.242,944,-3,633,-30,67,22,1,-1,0,732,59,n,0.2715419456845224,56.155839794098654,1774.5554626629203,-5.639477105920298,76.07033065081737
2025-02-19 16:55:36.346,616,-66,680,8,-26,-15,2,-1,0,696,40,n,5.543696494731975,42.039254337664964,1285.6395907576484,-137.74709900974804,-59.21253525194936
2025-02-19 16:55:37.066,777,-8,645,-3,1,-1,-2,-2,1,769,73,o,0.710608889497128,50.301231797595044,1546.413287689688,-15.92188713194016,6.297849987324753
2025-02-19 16:55:37.161,774,-20,639,-2,0,-2,1,-3,1,774,70,o,1.7927098939343384,50.44378140450904,1545.0000923557718,-39.922483006609085,2.476667938839455
2025-02-19 16:55:37.265,736,-41,651,-6,5,3,1,-2,-1,786,60,o,3.603730270161665,48.450605451008634,1484.384199448036,-82.68988067577374,-10.953959022651361
2025-02-19 16:55:37.375,736,-49,665,1,-4,3,-1,-1,-1,822,58,o,4.214178522734045,47.82398591513009,1477.0857358993408,-98.33858839547243,-4.595128224268592
2025-02-19 16:55:37.485,755,-40,643,5,-9,-1,0,-2,-1,816,67,o,3.559691527039861,49.52580921645278,1515.6984360860533,-80.30190389859885,-4.853105169976402
2025-02-19 16:55:37.591,817,13,602,0,-1,2,1,-1,0,815,82,o,-1.2370920012401077,53.60926956682511,1621.9897927766783,25.808895111501613,8.849626375079197
2025-02-19 16:55:37.697,777,25,644,-2,-4,0,0,-1,2,814,84,o,-2.2230987677893093,50.32588506079731,1546.6880587475086,49.764738054939144,6.060347704767651
2025-02-19 16:55:37.805,749,-57,619,-9,7,-31,1,-2,1,680,86,o,5.261187723446802,50.30964350093058,1518.5070556980331,-115.56061705579157,-16.947753640964606
2025-02-19 16:55:37.915,812,208,660,-10,-17,28,1,0,2,571,89,o,-17.49232452511042,49.56180798745701,1573.1061169749162,402.96314326451056,41.36694925684151
2025-02-19 16:55:38.016,907,70,505,12,22,-9,1,-2,1,765,84,o,-7.891702428235705,60.65948145576852,1778.7229719338518,137.27740687471845,19.641564689531208
2025-02-19 16:55:38.125,648,-55,670,-33,38,29,1,1,-2,748,40,o,4.692862505589838,43.94756833255379,1341.9998080784308,-113.90430469801495,-47.561529957636935
2025-02-19 16:55:38.843,753,-23,638,0,-2,-2,1,0,0,763,66,p,2.0646277355012335,49.70779032470322,1515.75626459256,-46.29800011371697,-8.266264023975054
2025-02-19 16:55:38.942,757,-25,643,0,-4,-2,1,-2,1,779,70,p,2.2265526760836205,49.63388952425574,1518.9215267102352,-50.162533907207234,-4.180372093370238
2025-02-19 16:55:39.049,735,-21,640,2,0,-3,0,-1,1,784,74,p,1.879343487393352,48.9370687507948,1488.988537775353,-42.542529650724376,-16.534236974457144
2025-02-19 16:55:39.157,828,-46,653,-11,1,-15,-1,-2,-1,715,84,p,4.029493374370538,51.67004350888131,1612.4522183856238,-89.58067879920131,34.34384226351176
2025-02-19 16:55:39.265,795,247,587,4,-10,51,0,0,-1,217,88,p,-22.82056198997119,51.3028551136015,1575.4615629192376,489.48302646673176,10.734669894852232
2025-02-19 16:55:39.365,807,-53,559,4,12,-63,0,-2,0,763,81,p,5.416146393137203,55.169980505505,1627.8500773330684,-106.90960854851625,-9.593795823029836
2025-02-19 16:55:39.479,701,109,729,-4,-14,29,0,-1,0,751,83,p,-8.503860771475441,43.56188372125335,1390.1376325359179,216.15549493069193,12.336185280051495
2025-02-19 16:55:39.586,1234,2,631,-3,61,14,2,-1,1,668,71,p,-0.18160249650140664,62.91716898805001,2124.349271119544,3.4430296128355664,175.72415715037891
2025-02-19 16:55:39.696,552,-64,715,14,-40,-13,3,2,-2,751,40,p,5.114941813484814,37.55861509632165,1161.572731736725,-134.67509933179423,-74.57337534738826
2025-02-19 16:55:40.509,732,-54,652,2,-6,-2,1,1,0,744,61,q,4.734550157550545,48.210927118830256,1477.603103332634,-109.0035076228992,-12.11642537278317
2025-02-19 16:55:40.611,753,-23,641,-1,-2,-1,1,-1,0,758,64,q,2.054973195188633,49.57532966516605,1514.2591704110955,-46.252272137390705,-7.030714785541022
2025-02-19 16:55:40.712,729,-19,648,4,-7,-1,1,1,2,796,66,q,1.679487657485791,48.35423595167109,1476.2675520270695,-38.47610903774256,-16.237824024062093
2025-02-19 16:55:40.823,761,-4,614,-8,3,-17,1,-2,0,797,83,q,0.37325712687132734,51.10166726208256,1539.2614214271907,-8.090730204610727,-13.927086407746629
2025-02-19 16:55:40.926,821,44,648,6,1,38,2,-1,0,554,84,q,-3.884491570053073,51.65252138962207,1605.2625162493907,86.03112145550935,28.996211291589475
2025-02-19 16:55:41.035,674,-123,683,6,-2,-37,0,-1,0,793,84,q,10.208848990135815,44.162937182437666,1370.7012103547208,-250.14280248313156,-23.004342243730548
2025-02-19 16:55:41.140,838,212,560,-15,-8,42,2,0,0,194,86,q,-20.735233937996963,54.45263447563319,1651.6351821781604,417.836108140537,16.28197849669459
2025-02-19 16:55:41.246,924,39,716,2,-5,13,2,1,0,750,82,q,-3.1177785534084976,52.18709107914562,1714.016902418925,72.34486925794162,103.82240029009745
2025-02-19 16:55:41.358,479,-147,725,-11,1,-10,2,3,-2,592,27,q,11.46182973086286,32.92361093339377,1022.520401534139,-313.8006242703934,-97.65614010908303
2025-02-19 16:55:42.175,736,-28,660,1,-4,-2,0,-2,-2,720,57,r,2.4292733234999675,48.09057195856516,1480.2016440640575,-56.31201906765435,-7.354735166138312
2025-02-19 16:55:42.269,795,20,629,4,-1,0,2,-3,1,724,69,r,-1.821191803006024,51.63504511351307,1579.0732373705632,39.725112889825496,8.645199614988087
2025-02-19 16:55:42.376,745,16,631,4,1,-11,0,-1,0,726,73,r,-1.4525135896837489,49.72699102978457,1507.9729363009726,32.38599594740343,-15.22271517572301
2025-02-19 16:55:42.490,787,-59,625,-9,-1,-16,-1,-3,0,664,82,r,5.392740591777399,51.42113750219967,1568.7505802732207,-117.60646027461249,4.168853023172801
2025-02-19 16:55:42.591,778,156,629,-3,1,22,1,-2,0,562,85,r,-13.929028436793429,50.20647053096881,1546.3558076073941,310.0662030678065,7.79716839967773
2025-02-19 16:55:42.703,801,101,636,-14,-12,36,1,-3,2,812,82,r,-9.023506844893385,51.20220773332351,1580.3621087860076,199.2716267008574,17.18064770549188
2025-02-19 16:55:42.807,604,-129,688,-13,20,8,1,0,0,798,45,r,10.619655276155134,40.78993536447416,1257.2876193799352,-268.52666043048293,-56.142188962575574
2025-02-19 16:55:43.625,757,-26,634,-1,-4,0,2,-1,0,792,67,s,2.348353313099598,50.02957228863985,1523.3761054836145,-52.32203268503828,-7.852643165933614
2025-02-19 16:55:43.719,832,19,619,2,-6,-3,0,0,0,810,84,s,-1.7581229696734415,53.33818623882177,1634.1737687202735,37.31887212221779,22.190429281430966
2025-02-19 16:55:43.828,787,-25,637,-3,-3,-2,0,-2,1,816,84,s,2.2475035081913814,50.991631015653844,1564.0540306458452,-49.68405434071935,8.050295398471008
2025-02-19 16:55:43.937,733,-60,651,0,3,-20,0,-2,1,722,86,s,5.265840311779105,48.27038460574886,1479.2942342110296,-121.0882047103162,-11.807021106930847
2025-02-19 16:55:44.045,717,73,690,12,-10,30,1,-1,0,668,86,s,-6.03926172237926,45.94002117423416,1435.6122185012136,146.1641449799004,-1.551507344264337
2025-02-19 16:55:44.153,777,15,555,25,30,-4,1,-1,-2,626,88,s,-1.548157698977968,54.45242773547436,1590.6330843967128,30.707202401480945,-26.16648885479492
2025-02-19 16:55:44.259,489,-152,788,-13,18,5,1,1,-4,689,32,s,10.917885360431441,31.355039745640486,1009.3396863736492,-313.7415794044881,-50.50239849168838
2025-02-19 16:55:45.075,735,-44,660,0,-5,-2,1,-3,-1,729,53,t,3.8140748342903548,48.01429317612972,1478.3117256698192,-88.49757269315921,-7.463590397388316
2025-02-19 16:55:45.173,739,-27,658,3,-6,-5,0,-1,-1,746,59,t,2.349724438833723,48.294436338428575,1485.5735820954042,-54.27670732960205,-6.743460106598036
2025-02-19 16:55:45.276,756,-19,648,-4,0,-5,0,-1,-1,763,64,t,1.679487657485791,49.38654047498978,1515.118411045033,-38.0783727643593,-2.6729237528855947
2025-02-19 16:55:45.385,745,4,664,3,-6,-28,2,-2,-1,802,70,t,-0.345151123164125,48.28965802917619,1491.5180950847287,8.008150846092501,-1.353040451355355
2025-02-19 16:55:45.495,738,-16,656,-3,-1,-25,0,-2,0,816,83,t,1.3971810272963767,48.358000712655695,1485.3112145613063,-32.201869150380624,-8.276635165605398
2025-02-19 16:55:45.595,822,353,543,13,-11,50,1,-2,-2,777,81,t,-33.02757626053048,51.76534011352578,1607.4826561531477,690.31797764241,24.122770935329527
2025-02-19 16:55:45.707,532,-55,596,5,30,-31,1,-4,-2,810,66,t,5.272429466962705,41.63200055965853,1196.3437656248652,-123.68215622061572,-148.2648201361269
2025-02-19 16:55:45.816,882,158,611,-25,-36,8,0,-4,-1,762,79,t,-14.498651325918315,54.41510900515372,1695.2542396997528,303.68499985551125,47.623196761282315
2025-02-19 16:55:45.923,808,41,668,3,16,19,1,-1,0,854,77,t,-3.512251136349023,50.365440596809805,1578.1286241819396,80.07830890032119,31.30950377037675
2025-02-19 16:55:46.839,748,1,649,-1,0,0,0,-3,-2,739,72,u,-0.08828310349763627,49.05352056434689,1503.3220822108315,2.009788879961005,-6.352983094692036
2025-02-19 16:55:46.935,777,12,646,0,-1,-2,0,-4,1,719,79,u,-1.0641954923877,50.254909900828466,1545.8966252949463,23.874851355906504,6.737168673699671
2025-02-19 16:55:47.040,752,7,644,-6,1,-10,0,-2,-2,519,83,u,-0.6227556872063182,49.42214094792992,1511.5227309068646,14.070025420675602,-6.442338702155439
2025-02-19 16:55:47.155,769,218,602,12,-14,36,0,-2,-2,709,82,u,-19.90665103016569,50.21981561517922,1537.5048581270207,435.85963468360274,0.3876143140877275
2025-02-19 16:55:47.261,727,-229,700,-8,-5,-15,0,-3,1,799,82,u,18.115138862319938,44.62785077840619,1429.499077190434,-450.2823778220212,23.59098482351601
2025-02-19 16:55:47.365,875,123,632,-8,-8,22,0,0,0,763,85,u,-11.013246654309965,53.65296747744086,1680.44204350957,236.22213868763103,50.24071828794479
2025-02-19 16:55:48.185,730,-27,668,1,-2,-1,0,-2,-3,701,57,v,2.314587470340954,47.51605948255198,1467.4666695976143,-54.276164491966554,-6.832514097542912
2025-02-19 16:55:48.281,725,-44,678,5,-8,-5,0,0,-1,670,61,v,3.7131033281623247,46.85860157998508,1454.6683943009734,-88.28332324033494,-4.365753566979151
2025-02-19 16:55:48.389,678,8,636,13,-11,-19,0,-3,-1,533,83,v,-0.7206636225176557,46.828487090082135,1407.308889688993,16.605414627598737,-48.13046289409965
2025-02-19 16:55:48.494,745,-70,642,4,4,-24,0,-2,-1,360,82,v,6.222621911923488,49.07954520619051,1500.6196762433226,-140.9978219289028,-9.15145254793697
2025-02-19 16:55:48.605,896,194,654,-20,-17,1,0,-1,0,662,86,v,-16.522256991640475,52.71626795452084,1691.645506692765,366.2714601544603,73.24981989166486
2025-02-19 16:55:48.705,859,49,644,-5,-5,8,0,-2,-1,815,81,v,-4.351077951573885,53.06137453645473,1658.2797086029784,94.59337103788818,44.772837787755634
2025-02-19 16:55:48.816,557,-105,696,-1,-3,2,1,-1,-2,773,41,v,8.579065518012142,38.355727859041544,1177.542039184865,-221.97830182120435,-79.3990292148402
2025-02-19 16:55:49.736,724,-31,656,5,-4,-2,1,-1,-1,660,60,w,2.705562179171545,47.78918994879538,1464.6778489165977,-62.714106790627795,-15.111421117801001
2025-02-19 16:55:49.829,713,-9,679,2,-2,-1,1,-2,-1,667,66,w,0.759398851286512,46.39667432544144,1437.131831960859,-18.140514007921084,-10.601001264268234
2025-02-19 16:55:49.935,693,6,652,7,-4,-18,1,-3,-2,513,75,w,-0.5272468916673372,46.7448113873154,1421.3089178377136,12.305704916343842,-33.21993424269749
2025-02-19 16:55:50.045,741,-33,680,-4,2,-25,2,-2,-1,381,80,w,2.778350743005074,47.42448389997821,1477.386265702181,-65.79453005151413,4.233926211224002
2025-02-19 16:55:50.155,852,194,624,-9,-19,12,0,-2,-1,761,81,w,-17.27033540673258,52.5127443337204,1645.4887278248066,374.6770107957893,42.85332610014166
2025-02-19 16:55:50.260,805,-42,645,12,-5,9,0,-4,0,816,81,w,3.725628193348981,51.23765627637962,1584.7496169066949,-82.68258870817539,20.231673410163808
2025-02-19 16:55:50.370,770,26,568,-12,-18,-26,1,-1,1,779,85,w,-2.62086463903207,53.556551413721074,1574.4435640359357,53.16302943497965,-25.407719964170838
2025-02-19 16:55:50.477,967,86,636,-14,59,23,1,-2,0,817,65,w,-7.700833942146779,56.428172358814166,1800.193242868577,160.0999161186118,88.00527149491745
2025-02-19 16:55:51.289,770,-4,627,1,-3,-1,1,-2,0,759,75,x,0.365518355574729,50.84399500613489,1545.429568774686,-8.02820555207629,-4.42122028795859
2025-02-19 16:55:51.390,786,12,625,0,-1,-2,0,-1,-1,765,79,x,-1.099943818839033,51.50435068163796,1568.655424447808,23.948937777829126,2.6594907380662107
2025-02-19 16:55:51.495,774,-16,623,0,-1,-7,0,-2,1,771,82,x,1.4711573046659536,51.159852644480004,1552.8987101369394,-32.10126532582821,-3.9430186244356946
2025-02-19 16:55:51.603,685,-33,686,23,17,17,1,-2,1,362,84,x,2.754087877705039,44.92510028686132,1391.181814327038,-67.02043777049964,-21.21273668371964
2025-02-19 16:55:51.710,789,81,695,8,14,-58,0,-1,0,337,84,x,-6.647647207592962,48.432615010628446,1537.1759022288543,157.8089329284375,35.96039030538191
2025-02-19 16:55:51.820,773,47,670,-61,-39,37,1,-2,-1,630,81,x,-4.012682762493727,49.01318173064223,1527.8604962067748,92.89708062318036,15.72246771210996
2025-02-19 16:55:51.926,1040,97,664,10,65,-1,1,-1,0,769,72,x,-8.311226448958127,57.168348367647255,1880.2672219861156,175.37107743524348,127.52169673194157
2025-02-19 16:55:52.746,744,-11,665,0,-1,-2,1,-2,-2,763,62,y,0.9476633105466226,48.205213271566706,1489.5366435556264,-22.022719192354693,-1.3734784468973658
2025-02-19 16:55:52.840,696,-22,673,2,-6,-3,1,-3,-1,767,64,y,1.872300808666272,45.94722212517386,1414.699612292712,-44.71751648051675,-21.94948142671717
2025-02-19 16:55:52.947,739,-2,652,0,-3,-3,0,-2,1,768,69,y,0.17575337363989946,48.57876501805991,1488.865922482703,-4.029407097382146,-9.586713746579449
2025-02-19 16:55:53.054,778,3,631,-8,1,-9,0,-2,-1,690,83,y,-0.27240260451268994,50.955764933419665,1554.6598646231676,5.994832382865685,1.0869221372510083
2025-02-19 16:55:53.164,839,184,552,15,-7,39,1,-2,-1,698,84,y,-18.43494882292201,55.25811130166538,1660.7276235347429,364.2120175570831,11.36394732875101
2025-02-19 16:55:53.271,1297,-250,756,10,-3,-23,2,-1,1,825,82,y,18.29842220400369,58.45309793483139,2149.2121637708224,-414.2660300252163,259.2595252037458
2025-02-19 16:55:53.376,818,120,606,-9,-12,47,1,-2,1,406,92,y,-11.200797787884433,52.93930214858285,1615.9975128120059,237.0656498012723,14.818468503575104
2025-02-19 16:55:53.484,725,-21,548,-43,66,25,0,0,-2,452,47,y,2.194567356644511,52.895524375617896,1522.536807172996,-44.10106613880402,-54.82782114593374
2025-02-19 16:55:54.495,742,6,641,4,-3,-2,0,-2,0,807,70,z,-0.5362942862440349,49.17563380940914,1498.7171068621365,12.119006254949888,-12.713834903813108
2025-02-19 16:55:54.597,740,-21,669,4,2,-3,0,-2,-2,811,71,z,1.7979318569005232,47.87067839405186,1481.6326472650635,-42.0463318818464,-1.4760013788211381
2025-02-19 16:55:54.704,811,-6,529,-4,0,-12,2,-2,-1,504,83,z,0.6498297479105662,56.882661829632916,1648.553423358153,-12.196449494634916,-17.320297110311685
2025-02-19 16:55:54.810,641,3,755,29,-10,-8,0,-2,0,848,81,z,-0.22766415088382863,40.33125434547643,1288.2057121486137,6.029043894611297,-7.3093801438431
2025-02-19 16:55:54.917,949,71,471,-6,8,-9,2,-2,0,300,82,z,-8.57240065468984,63.347046757427066,1842.740032297656,137.8656926165791,27.426179966073732
2025-02-19 16:55:55.021,692,40,683,0,-15,13,1,-1,1,685,87,z,-3.351707652122573,45.32597993086027,1403.1183448018642,81.10510663594592,-18.86969580877644
2025-02-19 16:55:55.137,582,-235,548,17,-2,-26,0,-1,-2,671,58,z,23.211207950024953,44.306485080897964,1280.496287364833,-517.0388789187898,-109.69066232977389
2025-02-19 16:55:55.237,712,39,671,-1,-31,3,0,-1,-1,782,82,z,-3.3264146944042885,46.64985100029811,1439.1722060531306,78.83106184841586,-14.298525648385635
2025-02-19 16:55:55.346,978,53,639,-2,45,11,1,-2,0,800,77,z,-4.741379376273489,56.75043835603292,1814.290350681038,98.320438227091,92.58943345073294
2025-02-19 16:55:55.453,715,-4,689,3,-11,-6,0,0,-2,751,44,z,0.3326277841914513,46.06042925490989,1435.072048980404,-8.02837509919107,-4.887610835661917
2025-02-19 16:55:56.671,775,2,631,5,-10,-2,-1,-3,-1,779,73,0,-0.18160249650140664,50.84760040706174,1550.4693009335672,4.001211099183399,-0.38210179236250497
2025-02-19 16:55:56.766,768,34,644,0,-2,-3,0,-3,-1,800,81,0,-3.0221266694654356,49.9795010352235,1533.8144211263,67.90324260194558,1.832698951383918
2025-02-19 16:55:56.875,738,22,666,-3,0,-18,1,-3,-2,784,83,0,-1.8919654183594743,47.92013346362923,1480.2113798777714,44.125542489581264,-3.8005135482326295
2025-02-19 16:55:56.985,733,-131,616,34,24,2,-1,-3,0,549,82,0,12.005798413529009,49.331648716781515,1491.494422926443,-266.5563020509741,-21.42505391908435
2025-02-19 16:55:57.096,706,103,721,-17,-25,-11,1,-2,1,653,86,0,-8.13010235415598,44.10847110832263,1402.01896304806,204.54384305092094,10.193098643553526
2025-02-19 16:55:57.198,836,113,532,16,19,-20,0,-5,2,784,84,0,-11.99174692561575,56.953563613219444,1674.2288801265709,226.3012720745245,-1.418378262363035
2025-02-19 16:55:57.305,541,-44,725,-37,39,52,1,-1,-3,721,30,0,3.4730013223311813,36.68008426454251,1138.3464175471927,-92.58270309071438,-75.51044865381652
2025-02-19 16:55:58.025,743,-67,605,-3,-12,-13,2,1,0,675,38,1,6.319402276752205,50.674142488237095,1516.5542869570286,-136.7552317982785,-24.879331909828238
2025-02-19 16:55:58.120,836,-84,602,10,-22,-3,1,-1,2,694,41,1,7.943471810590412,53.980148522240675,1644.813293719438,-165.26832137850815,19.57703012069169
2025-02-19 16:55:58.225,800,-96,665,-16,42,3,0,0,1,705,35,1,8.214520406434072,49.97420915916337,1565.7550242619875,-187.8906029114385,28.466136082222874
2025-02-19 16:55:58.337,668,-110,615,2,43,-25,2,0,-2,737,29,1,10.140793146112793,46.91570667200733,1398.349557168714,-230.2671426475427,-57.4026611658071
2025-02-19 16:55:58.439,531,-6,542,-18,-2,-10,2,-2,-3,792,41,1,0.6342447144261198,44.41089050560982,1230.7991313968846,-13.907334818043896,-172.29591189663188
2025-02-19 16:55:58.554,645,-19,637,14,-26,-14,-1,-4,0,804,69,1,1.7084727566095737,45.344798381249326,1356.349226272961,-39.95447333207173,-65.52629013314163
2025-02-19 16:55:58.656,827,103,586,2,-17,-26,0,-3,1,815,85,1,-9.968930984919611,54.26696136910796,1638.746902844544,204.10027931437492,10.808119628896407
2025-02-19 16:55:58.755,764,140,641,7,-5,78,1,-2,0,748,86,1,-12.32042589537396,49.3445635975117,1522.6412969088015,279.0180387005657,4.495979949552861
2025-02-19 16:55:58.871,328,-24,605,1,18,3,0,-1,0,765,72,1,2.2716992969019945,28.445410023200665,804.321228980345,-58.85277285222038,-273.580315649722
2025-02-19 16:55:58.981,952,12,540,-25,-63,-16,1,-1,-1,450,83,1,-1.2730300200567113,60.43085689289673,1821.7608179525705,22.96337165486434,46.648275531104844
2025-02-19 16:55:59.086,776,54,632,21,-2,22,0,-3,0,762,87,1,-4.883664095975651,50.73741976258581,1550.2537044820315,107.87847943560527,1.4222406795827283
2025-02-19 16:55:59.187,614,-80,697,-3,3,1,1,-2,-1,737,42,1,6.547620861514497,41.191518070782635,1272.5780672103351,-165.80821722610227,-50.604092582416
2025-02-19 16:56:00.008,728,2,663,4,0,-4,0,-2,0,762,58,2,-0.17283742298708293,47.67529687923531,1467.3408563634111,4.031156198800579,-10.328279902392183
2025-02-19 16:56:00.106,675,-5,632,13,-14,-9,2,-3,0,671,71,2,0.4532799380897668,46.883443752977755,1404.9648066516213,-10.407146715937936,-51.46334489455501
2025-02-19 16:56:00.216,780,-11,625,9,-13,-21,-2,-4,0,735,82,2,1.008301617525644,51.29109974218506,1560.3332734768596,-22.004700010571103,-0.2670460551762517
2025-02-19 16:56:00.320,637,-95,723,24,3,64,0,-4,-1,794,82,2,7.485607580890215,41.13859475496485,1294.882701097462,-193.1143745749747,-23.702029660070593
2025-02-19 16:56:00.425,762,-42,561,14,17,-1,2,-2,-1,603,82,2,4.281536235070609,53.5622587651822,1566.5027325141455,-86.34267029605527,-31.2913818115951
2025-02-19 16:56:00.532,673,29,688,5,-8,14,0,-3,1,487,85,2,-2.413654942689473,44.34313050446507,1371.95383902357,59.118367506216245,-26.53230497506115
2025-02-19 16:56:00.647,625,-60,583,-28,53,12,2,-2,-2,616,43,2,5.875962500325715,46.84069026877164,1354.4545946423943,-130.02764108566987,-97.43524588242542
2025-02-19 16:56:01.555,745,24,661,-1,-1,-2,1,-4,0,767,72,3,-2.079417419419623,48.40027488570318,1492.8012757825488,48.09024244131702,-2.485427237939348
2025-02-19 16:56:01.655,734,46,653,0,0,-5,0,-2,1,724,77,3,-4.029493374370538,48.27181132543034,1480.3108084591458,92.77152205602277,-10.952258751801423
2025-02-19 16:56:01.765,764,-28,551,15,8,-9,1,-3,-1,593,81,3,2.909079909452658,54.165639649938534,1574.7128733207692,-57.71199012170358,-33.68951989495258
2025-02-19 16:56:01.872,709,-26,693,13,-9,4,0,-4,-1,821,80,3,2.148617449976282,45.63370325202855,1423.8841208664103,-52.21577876237893,-5.751333935715479
2025-02-19 16:56:01.976,812,13,549,16,12,10,1,-3,1,712,78,3,-1.35647716804822,55.92959329468779,1640.3497944387814,26.261757792739107,-11.05423293952083
2025-02-19 16:56:02.085,692,89,683,4,-3,44,1,-2,-1,692,82,3,-7.424235239673538,45.13385255995143,1400.756770255739,180.15513374676414,-16.538835382470552
2025-02-19 16:56:02.195,1089,71,714,-17,50,7,1,0,-3,696,68,3,-5.678810708634615,56.619871145734805,1924.0387290853687,125.44237811300383,166.50904263824305
2025-02-19 16:56:02.305,530,-95,745,-2,-28,-33,0,-1,-2,770,39,3,7.266954405811692,35.21042942256426,1106.5810496769373,-198.3494334326586,-65.47713586663849
2025-02-19 16:56:03.015,778,59,640,0,-4,-7,2,-3,0,776,75,4,-5.26706755252245,50.43953862861058,1548.9529323474717,117.46558227313733,5.797073647324055
2025-02-19 16:56:03.116,757,53,636,-1,-1,-3,0,-5,-2,776,80,4,-4.763641690726178,49.866743691658606,1521.5474020712204,106.52841784646589,-6.341014157590621
2025-02-19 16:56:03.220,756,57,650,1,-1,-5,-1,-3,0,719,80,4,-5.011579115167068,49.20292080126591,1513.028364481589,114.07753541726265,-0.8841758108899285
2025-02-19 16:56:03.330,747,9,664,-7,-7,-11,1,-4,-1,688,80,4,-0.7765518682338494,48.363847488768954,1494.3790172670006,18.00456647309639,-0.3369042373336697
2025-02-19 16:56:03.432,826,192,522,6,8,11,0,-4,-2,0,82,4,-20.194334245183978,56.04547866233699,1655.4811720514597,384.809182849734,-2.199965872714074
2025-02-19 16:56:03.537,699,21,694,8,-4,4,1,-2,-2,790,82,4,-1.7332051002280995,45.19254607596535,1408.4790607805348,42.31482156851392,-10.40410326422193
2025-02-19 16:56:03.651,588,-178,609,13,-23,-36,2,-4,-1,776,65,4,16.292713973239525,42.8225972611908,1267.7306319819188,-383.76879675643124,-95.00672598127335
2025-02-19 16:56:03.759,738,113,695,-16,-9,88,-1,-3,0,525,84,4,-9.234906112602806,46.34555263314736,1461.5161988828745,223.78229061485743,13.639894005965402
2025-02-19 16:56:03.866,1141,-1,746,-29,77,6,1,0,0,706,61,4,0.07680394798254801,56.822817737813324,1977.9823112240597,-1.733551543579369,198.77054848979094
2025-02-19 16:56:04.781,727,-7,663,-1,-1,-2,2,-2,-1,767,67,5,0.6049103390177509,47.63462731513597,1465.8627275761733,-14.114221586015422,-10.818415932603443
2025-02-19 16:56:04.878,720,5,677,6,4,-3,1,-4,-1,713,69,5,-0.4231516823920238,46.762241588891065,1448.5173467354066,10.059148241218102,-8.008671860931031
2025-02-19 16:56:04.988,803,39,549,-7,1,-15,0,-6,-2,169,82,5,-4.0633659929330435,55.57290609664204,1627.8462456696116,79.06102563028,-14.935976180095395
2025-02-19 16:56:05.085,629,17,733,1,-13,1,0,-4,0,831,81,5,-1.3285861793746954,40.62585209243869,1280.116737361102,34.59774965840816,-25.77355880077539
2025-02-19 16:56:05.198,642,8,514,0,18,-15,1,-3,0,634,73,5,-0.8916911075218863,51.31504562533512,1422.5945664616524,17.727035096095356,-110.96200492412663
2025-02-19 16:56:05.308,736,202,628,0,-4,23,1,-5,0,661,79,5,-17.830701259374102,48.129652128374175,1480.6570680990678,406.37598879892903,-7.386737454095851
2025-02-19 16:56:05.417,612,-41,756,-14,-14,10,0,-3,-1,801,77,5,3.1042697540241218,38.94985466824363,1240.6399910799453,-83.1147706442447,-20.555283098755922
2025-02-19 16:56:05.519,902,23,437,26,17,13,0,-1,0,578,83,5,-3.0127875041833403,64.11968086653275,1801.7077655155013,45.9415505619252,1.1105393234212215
2025-02-19 16:56:05.629,531,-73,796,-26,12,-4,1,1,-2,704,35,5,5.239855385541379,33.59599867924072,1084.3333798215126,-149.07031398676162,-33.479040184414316
2025-02-19 16:56:06.550,718,-11,659,-3,2,-1,1,-2,0,759,55,6,0.9562899095193499,47.4494625464824,1454.681149148022,-22.286201449342954,-17.146068647000675
2025-02-19 16:56:06.644,739,2,664,-1,-2,-1,-1,-1,1,777,57,6,-0.17257712723883567,48.059811773687386,1482.8429341537444,4.013106723014192,-4.351432040711757
2025-02-19 16:56:06.750,753,-3,658,-2,-6,-3,0,-3,0,799,62,6,0.2612251482518726,48.85150982024212,1506.006777091491,-6.000027000364506,-0.0059220799482773145
2025-02-19 16:56:06.860,786,63,655,1,-1,-13,0,-2,-1,796,80,6,-5.493991343440076,50.06463323791951,1552.7690603555034,124.45858880712049,16.025783037080828
2025-02-19 16:56:06.966,854,-60,592,35,14,41,1,-3,-2,490,80,6,5.787242964031514,55.13277111196266,1674.478988432439,-117.64489380087394,23.23704783137714
2025-02-19 16:56:07.067,551,31,796,7,-15,-42,0,-1,-1,797,83,6,-2.230241223987788,34.67109493239486,1119.86468870869,63.00509137925479,-25.808152835058422
2025-02-19 16:56:07.175,1067,64,720,-26,52,23,1,-3,0,804,66,6,-5.07960786001457,55.88433465348855,1894.9070183152185,113.65890269182192,161.33734471700325
2025-02-19 16:56:07.287,552,-47,735,2,-15,-11,1,0,-4,769,33,6,3.6588301468817948,36.85117800479516,1151.738592484111,-98.06469899774132,-63.564973688082205
2025-02-19 16:56:08.105,741,15,671,3,-1,-5,0,-3,-2,729,58,7,-1.280616352950224,47.83099743030014,1482.1678935439854,30.003398654736543,-0.1520331552147809
2025-02-19 16:56:08.199,740,23,670,3,0,-2,-1,-3,-2,759,61,7,-1.9660979785385557,47.82535043124067,1481.101725528611,46.034242820483854,-0.9975082488773523
2025-02-19 16:56:08.305,656,-7,673,13,-17,-12,0,-5,-1,741,73,7,0.5959227255538927,44.26558780556039,1353.9853100694013,-14.448013979399104,-43.07334401937089
2025-02-19 16:56:08.416,808,29,599,-9,-26,3,0,-3,-1,817,81,7,-2.7717549719348953,53.4170128195728,1610.9944766805554,57.82034631650508,3.7107778073605004
2025-02-19 16:56:08.523,723,35,678,27,0,55,1,-2,0,738,83,7,-2.9551235820506836,46.80165926137092,1451.9884513083525,70.28989736624112,-5.615726123185368
2025-02-19 16:56:08.634,837,21,745,-13,50,-35,1,-1,0,747,73,7,-1.6146212718785995,48.31694340004489,1583.8348703040933,39.737792444905566,80.25450612120733
2025-02-19 16:56:08.744,1131,155,625,-14,-35,-12,1,-4,-1,663,81,7,-13.928341939153688,60.34503928367265,2000.020718051615,274.0965617135281,144.77192857448335
2025-02-19 16:56:08.846,705,71,613,17,10,14,-1,-2,0,814,81,7,-6.606777200003637,48.803809716116824,1457.45870487114,146.77952914305098,-41.26551217873612
2025-02-19 16:56:09.765,758,-29,641,-1,-2,0,-1,-1,0,750,65,8,2.5903983545090856,49.75170390427827,1521.251684357933,-58.200921960923566,-4.441068170758854
2025-02-19 16:56:09.863,725,-42,682,-3,-10,-2,-1,0,3,761,67,8,3.524028583874214,46.696375625962936,1452.7293732111057,-84.15811541360887,-2.5674931447915696
2025-02-19 16:56:09.966,768,-1,638,3,-13,-6,1,-2,0,769,82,8,0.0898052234998959,50.28256420537386,1537.2051346970939,-2.001569185803507,-1.0011405426378133
2025-02-19 16:56:10.076,729,-39,684,-7,3,-24,0,-3,2,658,84,8,3.2633313182353874,46.777690050826926,1457.7020217971708,-77.98405877927252,0.27958448660501745
2025-02-19 16:56:10.183,784,141,584,-5,-21,54,1,-2,-1,270,84,8,-13.57363115910857,52.5370022959946,1577.7463201934027,283.7528458511094,-7.260014021616257
2025-02-19 16:56:10.285,684,9,635,11,9,-79,0,-1,-1,800,84,8,-0.8120117968208123,47.12465374117999,1416.8357376360896,18.64257549521171,-45.33727105104822
2025-02-19 16:56:10.394,702,92,730,-8,-15,17,0,-5,1,812,84,8,-7.182968904506107,43.65432575789457,1392.3058668577928,182.4674355426167,12.16056580315012
2025-02-19 16:56:10.501,1021,16,589,3,30,-1,0,-2,0,780,79,8,-1.5560391854035298,60.01083241746994,1887.1199189815857,29.57288805455962,89.348058491524
2025-02-19 16:56:11.420,757,-2,645,-1,-1,-2,0,-2,-1,677,61,9,0.17766076243366857,49.5672880601398,1518.1681516614067,-4.011012289726305,-3.551463436733343
2025-02-19 16:56:11.517,746,-5,643,1,-5,-2,0,-2,0,689,62,9,0.44552585319829097,49.240096428703154,1503.4521435922354,-10.076756994586027,-9.8709495037632
2025-02-19 16:56:11.624,750,14,629,2,-9,-2,-1,-2,0,741,71,9,-1.275053247553772,50.0075744216992,1516.1294120454004,28.301082358180807,-13.527200235409168
2025-02-19 16:56:11.733,748,19,647,-7,3,-20,-1,-2,-1,711,83,9,-1.6820819751850373,49.12885191736023,1504.18307522987,38.207858862790815,-7.078141275034454
2025-02-19 16:56:11.835,933,139,542,1,4,55,0,-5,0,176,82,9,-14.383937905165332,59.04798557767321,1790.5983476806837,266.76652768233123,43.80246040414738
2025-02-19 16:56:11.945,664,-110,687,10,1,-34,1,-3,0,826,81,9,9.096782260506327,43.66236574445488,1354.407387125466,-224.37471774668862,-27.322100836136997
2025-02-19 16:56:12.051,736,142,686,-18,-6,69,1,-3,0,615,84,9,-11.694892724975062,46.413911580958676,1460.3392817092026,281.7502418515038,10.86854992865085
2025-02-19 16:56:12.155,1167,6,682,-11,101,26,1,-1,-3,667,57,9,-0.5040554373180537,59.69682868071131,2030.3676236988072,10.438908090996438,177.44411365673812
2025-02-19 16:56:12.266,493,-135,765,-5,19,17,4,3,-5,391,17,9,10.007979801441337,32.40077589232216,1028.8382287136512,-281.7305494449147,-66.473113521183
