Timestamp,Acc_X,Acc_Y,Acc_Z,Gyro_X,Gyro_Y,Gyro_Z,Mag_X,Mag_Y,Mag_Z,Force,IR_A,Letter,Roll,Pitch,Lin_Acc_X,Lin_Acc_Y,Lin_Acc_Z
2025-02-19 16:13:48.416,634,-71,767,-1,-1,0,0,0,0,635,24,noise,5.288709606982307,39.45705184313695,1269.4996420722664,-142.1679409891655,-1.8142357561961262
2025-02-19 16:13:48.515,640,-65,766,-1,-1,-1,-1,0,-1,633,25,noise,4.850293986460833,39.77796334747369,1279.8141609754355,-129.98112572406762,0.22242608252599894
2025-02-19 16:13:48.621,633,-71,767,-1,-1,0,-1,-1,0,633,25,noise,5.288709606982307,39.41268081017777,1267.9015205097553,-142.21328271120478,-2.304054077381352
2025-02-19 16:13:48.727,637,-69,768,-1,-1,0,-1,0,-2,634,25,noise,5.133883900844793,39.56010153213317,1273.8872809260315,-137.98779024159523,0.13589991963556258
2025-02-19 16:13:48.833,627,-73,767,-1,-1,0,-1,-1,0,633,25,noise,5.436806787700222,39.13845892929057,1258.1965747804252,-146.48859642579112,-5.133609021668235
2025-02-19 16:13:48.944,625,-72,768,-1,-1,-1,0,0,-1,634,25,noise,5.355825042855191,39.01609328291014,1254.538651581512,-144.5228526621902,-5.5770950633619805
2025-02-19 16:13:49.051,631,-72,763,-2,-1,0,-1,-1,-2,635,25,noise,5.390716102714692,39.46602801151689,1266.6205944921107,-144.52723106724562,-5.587184782061058
2025-02-19 16:13:49.158,637,-67,762,-2,-1,-1,-1,0,-2,636,25,noise,5.024895198713984,39.785678146859134,1276.917636656739,-134.3068785808501,-3.490171322504125
2025-02-19 16:13:49.264,618,-80,760,2,-2,-2,0,-1,-1,637,26,noise,6.009005957494525,38.96212030949652,1246.8064626818712,-161.39889484554965,-13.289501032721773
2025-02-19 16:13:49.370,645,-69,764,-1,-2,0,-2,-1,0,638,26,noise,5.160618112938164,40.05774965343543,1288.5593957863982,-137.8458888515682,1.7063901072740464
2025-02-19 16:13:49.477,642,-68,762,-1,-1,-1,-1,0,0,637,27,noise,5.09950107587387,40.00286538404699,1284.8259190609633,-136.08748052359113,-0.9802964555358358
2025-02-19 16:13:49.587,639,-67,759,-2,0,1,-1,-1,-2,635,29,noise,5.044654159857453,39.98441197524697,1281.5791740443478,-134.37528115957952,-4.251319404789001
2025-02-19 16:13:49.690,636,-75,762,0,-1,0,-1,0,-2,635,30,noise,5.621243066439478,39.71410651990174,1274.9572283389841,-150.3487297569557,-3.5430943306695326
2025-02-19 16:13:49.797,634,-71,762,0,0,0,-2,0,0,634,30,noise,5.323213715190737,39.63945998960119,1271.9544962008304,-142.44285367548733,-4.752880291849692
2025-02-19 16:13:49.899,632,-75,758,0,0,1,0,0,0,633,32,noise,5.650715140212413,39.68322306793104,1270.542500171681,-150.77640429252546,-7.846859383123956
2025-02-19 16:13:50.007,634,-71,756,0,0,0,-2,-2,-1,631,34,noise,5.365215869161279,39.86020200822711,1274.9165993581166,-142.7745718524074,-8.247553808732164
2025-02-19 16:13:50.120,634,-73,765,0,0,0,-1,0,0,630,41,noise,5.4509351607678305,39.5229875672178,1270.3877515981726,-146.27493038906402,-2.8811198306026427
2025-02-19 16:13:50.227,630,-71,762,-1,0,-1,-1,-1,-1,632,49,noise,5.323213715190737,39.46141459145206,1265.558431349846,-142.62642639022073,-6.723055061242121
2025-02-19 16:13:50.337,633,-71,765,-1,0,-1,-1,0,-1,629,50,noise,5.30245758860894,39.485454522931434,1268.8823101766698,-142.32329229469752,-3.4833606400509325
2025-02-19 16:13:50.440,633,-70,762,-2,0,-1,-1,0,0,628,49,noise,5.24866058061943,39.59842193448182,1270.4027676928536,-140.48687794391748,-5.300014189501553
2025-02-19 16:13:50.549,630,-71,767,-1,0,0,-1,-2,-1,628,48,noise,5.288709606982307,39.27922820659926,1263.1002859317773,-142.3493973034225,-3.7744750947192642
2025-02-19 16:13:50.657,624,-72,764,-1,-1,0,0,-2,-2,628,41,noise,5.3837016768117545,39.1163183779373,1254.8968071790964,-144.79578544374192,-8.44416776415028
2025-02-19 16:13:50.763,631,-77,766,1,0,-1,1,0,0,628,40,noise,5.740214838111411,39.33904485375201,1264.9080676387093,-154.35486720789322,-3.530237418781894
2025-02-19 16:13:50.870,631,-70,767,-1,-1,0,0,-2,1,628,37,noise,5.214634306984107,39.327106850748436,1264.7469084702202,-140.3047283564428,-3.3389521341661066
2025-02-19 16:13:50.980,635,-69,771,0,-2,-1,-2,-1,-1,629,36,noise,5.1140138313951375,39.36295968426591,1269.2308273037759,-137.91642060466228,0.9339088957303829
2025-02-19 16:13:52.097,624,-188,729,1,0,-24,-3,-1,4,709,45,A,14.460785610834325,39.653603343383594,1262.1445680742784,-380.2615044839172,-16.524663663700267
2025-02-19 16:13:52.192,698,-119,633,8,-25,-13,-2,-2,5,767,46,A,10.646978011095495,47.30032624269294,1432.9184565854132,-244.2941208218685,-33.48049143061132
2025-02-19 16:13:52.301,717,-146,683,2,-13,-16,-3,-2,6,825,59,A,12.066109189642884,45.75164391938631,1433.3219639982672,-291.8619340916973,0.6458836669228276
2025-02-19 16:13:52.407,769,-93,642,3,-6,-9,-3,-4,7,842,76,A,8.242520351518872,49.85021336482575,1533.361406966471,-185.4390258099893,3.8725315052349742
2025-02-19 16:13:52.515,741,-116,661,-6,1,-3,-1,-4,7,850,75,A,9.953577264950981,47.833813915098325,1482.2008926665583,-232.03144878450848,-0.17920384965600533
2025-02-19 16:13:52.622,775,-101,631,-2,-2,-3,-3,-3,8,856,78,A,9.093818287992118,50.492456897593215,1546.5408357484066,-201.5491927878569,2.816429216458573
2025-02-19 16:13:52.728,749,-85,642,-2,-3,-9,-3,-3,5,860,80,A,7.542024810362029,49.152558045203214,1505.4537519829046,-170.84588640660462,-6.388930271060872
2025-02-19 16:13:52.839,680,-121,639,5,-28,-20,-4,-4,7,875,105,A,10.72248125537635,46.27652806695037,1402.6840566270212,-249.59525125274934,-40.110459095097895
2025-02-19 16:13:52.945,673,-362,732,13,-2,9,-3,-5,8,835,108,A,26.314030748039713,39.492919858441304,1308.9828643969763,-704.0888512803945,40.26232282527985
2025-02-19 16:13:53.053,801,-99,582,-3,14,37,-3,-2,8,486,107,A,9.653786088536545,53.608716458796884,1605.984065393745,-198.49241257675493,-2.894789087589629
2025-02-19 16:13:53.162,1223,-262,745,0,7,-27,-5,-4,6,853,106,A,19.37564400944573,57.148476750223715,2063.0791324011143,-441.9678926321275,233.25923659948467
2025-02-19 16:13:53.264,814,72,614,3,-18,68,-4,-4,8,676,107,A,-6.688178982474683,52.78448637718629,1610.3661852761743,142.4402522603004,13.301182113549203
2025-02-19 16:13:53.375,514,-393,410,-3,-31,-67,-4,-3,7,709,108,A,43.78719455450785,42.14619067874933,1185.0245666894148,-906.0596395115562,-125.25305903241235
2025-02-19 16:13:53.482,741,-26,653,30,-15,18,-5,-4,7,859,105,A,2.2800976986466948,48.589645802917985,1490.9915485209654,-52.31549293056018,-7.9237262944539
2025-02-19 16:13:53.587,694,-81,648,-31,62,6,-2,-1,8,823,60,A,7.125016348901798,46.741553699767216,1422.269955205007,-165.99980745188122,-31.998459615049683
2025-02-19 16:13:54.407,771,-91,656,4,-10,-8,-4,-4,6,824,83,B,7.897641573136565,49.33773520412005,1529.5636460704482,-180.5321553727766,10.581385444599391
2025-02-19 16:13:54.503,735,-115,665,-1,-2,-6,-4,-3,7,837,88,B,9.811256867996049,47.442131018920314,1471.5946118906259,-230.2494970985333,-1.442744091518648
2025-02-19 16:13:54.613,779,-139,711,-7,-3,-11,-2,-5,5,832,101,B,11.061766058355916,47.07757709847865,1511.2764402299977,-269.66293349418436,42.64499486068269
2025-02-19 16:13:54.719,653,-284,669,-33,-32,82,-4,-4,6,635,101,B,23.001912006893935,41.93896717802607,1321.3386113997585,-574.6710040390988,-15.714442613228925
2025-02-19 16:13:54.826,763,-119,639,30,41,-72,-4,-3,8,811,103,B,10.549260723760366,49.5729121162498,1524.2318090072017,-237.72422709286627,1.480830988726325
2025-02-19 16:13:54.937,798,-65,687,-2,-23,-11,-2,-5,6,844,100,B,5.40490838946434,49.14848707891924,1554.407278866327,-126.61212171216951,35.80726744214701
2025-02-19 16:13:55.037,808,25,605,-10,-7,25,-3,-6,8,711,104,B,-2.3662479914557863,53.15205992963982,1608.2298804404386,49.75958788491457,5.817973185067558
2025-02-19 16:13:55.146,631,-163,716,6,-16,6,-4,-5,7,795,99,B,12.825016633407001,40.67243759781126,1282.7336243308796,-331.35591246582146,-23.52658481919127
2025-02-19 16:13:55.247,901,-23,439,2,16,20,-2,-4,6,475,103,B,2.999086935455206,63.99203646408256,1799.7331084463844,-45.94213262404754,1.1045120888315978
2025-02-19 16:13:55.363,569,-149,750,-33,36,-3,-2,-3,3,720,45,B,11.236457546980587,36.65382271073056,1165.9787652893908,-305.32660110390026,-36.87886461694745
2025-02-19 16:13:56.579,745,-51,640,5,-5,-2,-3,-5,7,870,92,C,4.556129750252514,49.245774281717146,1502.5168395312894,-102.85685747126948,-10.752721208087678
2025-02-19 16:13:56.667,769,-54,629,-1,1,-3,-3,-4,7,875,98,C,4.906843156655185,50.61557526237126,1541.9060898392838,-108.2742897936558,-3.194968152027741
2025-02-19 16:13:56.780,751,-57,645,16,-4,1,-2,-4,6,884,97,C,5.050228424832808,49.232022201416,1508.3601295073968,-114.48272620761865,-5.462428138842711
2025-02-19 16:13:56.890,734,-86,679,-3,-1,-22,-2,-5,7,881,99,C,7.218467156867737,47.00173266492019,1465.3743253978082,-171.69235965151432,2.4289278676950516
2025-02-19 16:13:56.993,825,38,575,2,0,69,-2,-5,5,734,93,C,-3.7810055897151953,55.06608425815952,1644.8130553967942,75.76108618797355,3.615143208294967
2025-02-19 16:13:57.103,672,-59,745,60,-6,-10,-2,-3,4,896,90,C,4.528067527349357,41.96181622017623,1340.6352018074285,-117.70457873011648,3.7303194248002
2025-02-19 16:13:57.213,660,-95,692,-60,40,21,-1,-2,3,834,46,C,7.816886999488136,43.37705585248511,1346.7964982270714,-193.85707171450275,-28.09572238353553
2025-02-19 16:13:58.029,750,-26,661,-1,1,-1,-2,-4,4,873,78,D,2.252530562132967,48.58722730375324,1499.9636276460674,-51.998739091730336,0.032056167932637436
2025-02-19 16:13:58.117,753,-9,656,0,-1,-4,-2,-4,5,874,81,D,0.7860208319729258,48.935537844254554,1506.9709858908582,-18.011605409054084,-0.8459053710532771
2025-02-19 16:13:58.234,782,3,624,-3,-5,-12,-4,-6,6,869,93,D,-0.2754583561352399,51.41142153121826,1563.6448231235017,5.998637428862538,0.28341479659206925
2025-02-19 16:13:58.340,707,127,708,-16,-29,63,-4,-5,4,801,93,D,-10.169479919991227,44.50589584656877,1407.982655440052,252.9190908640546,6.025855655506689
2025-02-19 16:13:58.447,792,50,666,15,37,-63,-2,-5,7,848,90,D,-4.293430729297305,49.859883208778804,1556.4702173572566,98.262008671544,23.15004449503408
2025-02-19 16:13:58.547,705,19,699,15,-26,2,-2,-6,4,881,91,D,-1.5570126219448042,45.234273382571274,1414.992110028406,38.13453913551733,-4.94962398561097
2025-02-19 16:13:58.661,750,110,567,-30,14,37,-3,-2,6,699,96,D,-10.979196503501614,52.40029317929077,1542.2927654234068,226.2029389287663,-31.973330660095485
2025-02-19 16:13:58.767,798,47,646,-30,38,17,-2,-2,6,786,64,D,-4.16124640871063,50.935021475443705,1574.4317563869608,92.72968991251525,17.460006734364924
2025-02-19 16:13:59.588,751,-33,652,-8,-7,-9,-4,-4,5,841,77,E,2.8974672760534776,48.99998920378135,1505.709456601843,-66.16299875880267,-3.2204603254348285
2025-02-19 16:13:59.684,759,-20,642,-5,-2,-9,-2,-4,6,848,85,E,1.7843381729871286,49.760092561171646,1522.3462716607414,-40.11452626247013,-3.6762930252912156
2025-02-19 16:13:59.791,756,-61,618,-18,3,-15,-5,-5,6,840,95,E,5.637148820074019,50.59919359324187,1528.724639936015,-123.34947491547209,-13.671729471504023
2025-02-19 16:13:59.897,747,117,666,-8,-20,67,-2,-6,5,524,94,E,-9.96380418990718,47.847993043565666,1488.36699410329,233.11772196798518,5.02219802839204
2025-02-19 16:14:00.007,899,-184,627,-16,36,-55,-3,-5,7,805,89,E,16.354902592629518,53.98835694296951,1707.8975340187926,-349.55856091152145,62.841208198239315
2025-02-19 16:14:00.113,811,195,646,40,-26,20,-1,-5,6,852,93,E,-16.79683808626007,50.23797409860786,1579.7076022798615,379.8310511030493,33.68790249964172
2025-02-19 16:14:00.220,705,96,672,-6,42,18,-2,-5,5,847,84,E,-8.13010235415598,46.083723396960806,1425.3541007990011,194.09077117262996,-14.635398208409583
2025-02-19 16:14:00.327,793,34,618,6,-38,15,-3,-5,5,857,94,E,-3.1490204188475786,52.028048749308944,1581.3120519522963,67.79900348849695,3.6534071796730814
2025-02-19 16:14:00.429,400,16,580,-75,26,3,-3,-4,6,644,79,E,-1.5801724728000146,34.58210422129943,967.5866187310727,38.70346474924291,-243.00059716005535
2025-02-19 16:14:00.538,793,49,603,42,-35,11,-1,-2,6,824,96,E,-4.645668392421782,52.65962900714568,1588.0462999098106,98.12644223906773,-1.5560136766907817
2025-02-19 16:14:00.650,650,-88,466,-43,66,7,-3,-1,5,757,54,E,10.693872565620985,53.885726639164325,1457.8430799153189,-197.36952466545858,-113.16134652390565
2025-02-19 16:14:00.757,761,-101,675,13,-19,-25,-3,-4,2,835,53,E,8.51001078237188,48.112172665782495,1505.4534125267983,-199.80393517109943,14.676670886216812
2025-02-19 16:14:01.376,748,-40,642,-1,-4,-1,-4,-4,4,855,75,F,3.565221927597299,49.306014578131496,1506.2027855230942,-80.54560350390877,-8.756936237735772
2025-02-19 16:14:01.470,729,-54,658,-3,-2,0,-3,-6,4,856,76,F,4.6915715658267905,47.83472968710626,1470.211621851401,-108.90456458158528,-11.022286938575917
2025-02-19 16:14:01.576,729,-51,657,-2,-1,-1,-3,-5,5,851,77,F,4.4387163677047035,47.88812787872306,1470.8369075538835,-102.89805526097126,-11.569064832512254
2025-02-19 16:14:01.687,698,-47,646,1,-16,-18,-3,-5,7,849,88,F,4.16124640871063,47.140292604522074,1431.0214268101854,-96.35817630383772,-32.4123806867907
2025-02-19 16:14:01.793,714,-199,751,19,-8,40,-4,-5,5,796,94,F,14.841157754356328,42.583493547255664,1390.6638779523641,-387.59399399512677,39.2709070837177
2025-02-19 16:14:01.897,845,114,670,-2,-10,-1,-4,-3,6,795,95,F,-9.656356520239735,51.190452279204266,1624.2335373761393,219.12736480577502,52.146189299392404
2025-02-19 16:14:01.997,753,-230,507,52,1,-30,-2,-5,6,795,92,F,24.401368360792663,53.522626699256286,1557.0916996338447,-475.60569842733645,-34.400387402867636
2025-02-19 16:14:02.112,693,0,720,6,-8,14,-3,-5,6,891,87,F,0.0,43.90530940814697,1386.4685963587517,0.0,-0.4868533597422129
2025-02-19 16:14:02.217,909,166,746,8,-1,-15,-2,-6,4,743,91,F,-12.545071057994628,49.94439728722767,1674.4202889965954,305.7797227430526,117.83329417881157
2025-02-19 16:14:02.326,692,48,672,-3,-8,23,-1,-5,6,881,88,F,-4.085616779974877,45.76718701694788,1408.5112274225653,97.7002007460739,-23.802810445034652
2025-02-19 16:14:02.429,618,-105,673,-5,18,-6,-2,-5,5,846,54,F,8.867673388648157,42.21746465623633,1289.9463670254486,-219.16564488296459,-58.74741910700152
2025-02-19 16:14:02.542,804,44,649,-2,-6,-6,-3,-6,5,855,72,F,-3.878524502847706,51.02482326961427,1581.4185401779089,86.54529324356717,21.456924657384207
2025-02-19 16:14:02.649,736,-10,653,-5,1,0,-3,-5,4,832,68,F,0.8773553017699095,48.4163206503597,1483.9871789322572,-20.162869278970888,-10.635363916798838
2025-02-19 16:14:03.367,753,-6,660,-1,-3,-2,-3,-5,5,858,74,G,0.5208563745019587,48.76445504380006,1505.006128658276,-11.992080706440447,0.8711222915508188
2025-02-19 16:14:03.465,728,-18,668,-2,-8,-4,-3,-5,6,861,77,G,1.5435247419642857,47.45069609181055,1464.695708042829,-36.21500377028973,-7.979028808529847
2025-02-19 16:14:03.571,804,37,636,1,-3,-1,-3,-7,4,870,93,G,-3.3294922422909803,51.60731874211266,1587.7727939561996,73.06914599052163,16.000625676439086
2025-02-19 16:14:03.677,729,-27,672,-3,-1,-16,-2,-7,7,869,94,G,2.300825014809331,47.30677759831092,1463.994810468771,-54.2220300173619,-5.526080432118306
2025-02-19 16:14:03.784,885,88,529,6,-5,61,-3,-5,5,688,91,G,-9.444757591925613,58.78605369447167,1740.238142412075,173.04062885001423,17.78985611752813
2025-02-19 16:14:03.894,708,-100,693,-2,-4,-36,-2,-2,4,867,87,G,8.21111026959667,45.31826410427941,1419.0236580091869,-200.42707034028064,-2.9595974581449127
2025-02-19 16:14:03.997,785,196,564,-16,-8,50,0,-5,8,758,90,G,-19.163245775998433,52.742675802962374,1580.9246204814772,394.72767594187195,-7.849026689876382
2025-02-19 16:14:04.111,1261,-271,438,30,16,-27,-3,-4,4,814,89,G,31.74596799178924,67.78233131153586,2186.754023460141,-469.9526886262479,116.44547004318616
2025-02-19 16:14:04.217,740,110,684,17,-10,17,-1,-5,6,900,84,G,-9.136009004222517,46.88725503748309,1470.0102700742846,218.51504014617743,9.233750363769445
2025-02-19 16:14:04.317,654,-64,688,-29,36,11,-2,-6,5,843,51,G,5.31454566994475,43.425459140546785,1341.4102933866625,-131.26950883294555,-35.14721995416471
2025-02-19 16:14:05.138,772,13,640,-3,-3,-2,-1,-6,4,858,75,H,-1.1636604977663632,50.33493405571102,1541.7888778784381,25.962766078263854,1.8330546085488777
2025-02-19 16:14:05.229,768,8,640,-6,6,-2,-3,-5,6,862,73,H,-0.7161599454704085,50.19222763824619,1536.1966835296985,16.002048786767695,-0.1639029414156994
2025-02-19 16:14:05.344,768,30,629,-3,-6,-9,-4,-5,5,864,79,H,-2.7306387965653878,50.650254165655554,1541.289998739819,60.20664057577418,-4.332564072065338
2025-02-19 16:14:05.447,761,23,620,0,1,-6,-3,-5,6,855,91,H,-2.1245143874414523,50.81040040942295,1536.059202772601,46.42491677236508,-11.454278211580231
2025-02-19 16:14:05.557,780,195,620,-9,-9,55,-3,-5,6,736,90,H,-17.459202635627207,50.19693013802771,1548.2492259258029,387.06230648145066,9.340358879490168
2025-02-19 16:14:05.664,780,-6,632,7,21,-42,-2,-4,5,810,88,H,0.5439309327914329,50.98239467877087,1556.9525529793261,-11.976558099840972,2.469213483417775
2025-02-19 16:14:05.774,913,211,657,45,-43,8,-1,-5,5,855,87,H,-17.804773177061865,52.91779925952939,1710.771280325565,395.3699234925457,82.9192429639694
2025-02-19 16:14:05.880,764,54,643,-16,32,-30,-2,-5,6,894,76,H,-4.800511556623533,49.81604035165543,1527.9766990660123,107.99835307534644,0.019610602819398082
2025-02-19 16:14:05.987,754,-94,657,17,-10,40,-3,-7,5,860,85,H,8.142311128638383,48.644924470186915,1504.6293603543163,-187.57978763037897,2.937016242989671
2025-02-19 16:14:06.094,792,54,649,12,7,24,-2,-3,5,816,90,H,-4.756335419468524,50.57035659623141,1564.405076393016,106.66398248134199,16.05695128905643
2025-02-19 16:14:06.203,590,-105,713,-9,-4,-17,-2,-4,2,833,51,H,8.37745308384498,39.30581303863683,1223.4593806135376,-217.73429654986688,-52.5195565719531
2025-02-19 16:14:06.917,749,2,645,2,-3,-5,-2,-6,6,833,74,I,-0.17766076243366857,49.26653698006043,1506.753355447864,4.023373445788688,-7.537936266851943
2025-02-19 16:14:07.011,736,1,646,6,0,-4,-3,-7,6,839,78,I,-0.08869308629697394,48.72597819215646,1487.563304319871,2.0211457939128685,-13.660182867712933
2025-02-19 16:14:07.121,827,39,639,-5,7,-9,-3,-7,4,796,89,I,-3.492593160856053,52.25618496012405,1617.755656717768,76.29077462151506,28.005000432099564
2025-02-19 16:14:07.232,735,164,609,19,-35,16,-2,-7,5,844,85,I,-15.07186207183745,49.367459048478054,1493.901579799207,333.33314161506104,-19.804166119342653
2025-02-19 16:14:07.338,825,82,672,-12,45,-12,-3,-7,6,851,80,I,-6.957055585577204,50.628133834853905,1598.045150814295,158.83600286881477,42.31958624581068
2025-02-19 16:14:07.441,752,17,656,0,-9,43,-2,-6,5,791,89,I,-1.4844669167449749,48.89096624120094,1505.4597353463976,34.03299933628824,-1.2733861532403807
2025-02-19 16:14:07.552,878,-41,754,-1,57,2,-2,-3,6,750,76,I,3.112487722885431,49.3031973521096,1636.1707249262518,-76.40432770156758,102.90577836629382
2025-02-19 16:14:07.658,1191,40,618,43,-33,3,-3,-5,5,662,88,I,-3.7032990291142185,62.52658530660679,2078.224989564802,69.7976486839564,157.62632783287364
2025-02-19 16:14:07.765,771,46,629,-19,2,17,-2,-4,6,834,90,I,-4.182706236605102,50.71675404504095,1545.0253855988813,92.18050290213819,-2.4681809879330103
2025-02-19 16:14:07.875,593,-104,700,-12,2,-14,-1,-3,5,786,50,I,8.450698893602048,39.96116160238916,1235.2681927600047,-216.64062739804467,-58.15806902530062
2025-02-19 16:14:08.587,757,27,650,2,-2,-2,-3,-4,4,870,80,J,-2.378611109265085,49.324466066670546,1515.412721838471,54.05038770097586,-1.2130372457150997
2025-02-19 16:14:08.687,751,36,647,0,4,-5,-1,-5,6,864,82,J,-3.1847347405946858,49.210714560722884,1508.1172349182525,72.29323629435034,-5.270107845685175
2025-02-19 16:14:08.792,936,-48,657,0,5,-15,-4,-6,5,815,88,J,4.1785689688894685,54.862350754488666,1753.7717029741418,-89.93701040893036,82.98717002776561
2025-02-19 16:14:08.904,705,160,679,18,-30,19,-1,-6,5,876,83,J,-13.259331629035778,45.30242502293311,1415.8292441601188,321.32294902924684,-5.614264942866271
2025-02-19 16:14:09.010,715,69,672,-24,30,-2,-3,-7,6,862,83,J,-5.862503818694478,46.625763919647646,1441.8835568651725,139.14680478838727,-11.16888141733682
2025-02-19 16:14:09.112,822,-30,658,11,1,9,-2,-6,6,853,84,J,2.6104617997905866,51.29416917548338,1602.3667741740314,-58.4805392034318,33.32684013806238
2025-02-19 16:14:09.227,871,276,577,-36,-9,25,-3,-4,6,681,93,J,-25.56347874142222,53.70854380855886,1677.0165528663333,531.4082302997797,43.04873593125774
2025-02-19 16:14:09.333,1020,51,693,-22,53,24,-2,-3,5,762,70,J,-4.208984924170216,55.7353871678557,1846.4461833319033,92.32230916659516,131.5027401480304
2025-02-19 16:14:09.440,660,-44,675,11,-21,-10,-2,-4,3,790,49,J,3.729559535896595,44.295536060412886,1358.3595233731342,-90.55730155820896,-39.23133072252358
2025-02-19 16:14:10.259,744,-4,656,-2,-1,-3,-3,-5,5,810,68,K,0.3493601795027854,48.59618871079738,1494.0670778063238,-8.032618697883464,-5.349466452888009
2025-02-19 16:14:10.353,746,-12,660,-4,1,-4,-4,-5,5,820,70,K,1.0416266760099742,48.49551829188992,1494.9038879848445,-24.046711334876857,-2.5691234182270364
2025-02-19 16:14:10.460,740,-3,646,-1,-3,-6,-3,-7,4,815,76,K,0.26607755865643345,48.879613325335576,1493.3294408967104,-6.054038273905583,-11.63624164766884
2025-02-19 16:14:10.567,762,-87,637,16,7,4,-3,-8,5,806,89,K,7.777207162804227,49.845046619546,1526.3032589886652,-174.2629705144539,-1.9254277897372276
2025-02-19 16:14:10.673,831,112,557,9,2,23,-3,-4,4,590,92,K,-11.369265327695356,55.6398634632099,1656.5063735910835,223.25958344428562,3.6822501922581523
2025-02-19 16:14:10.777,507,-209,774,38,-57,-26,-4,-6,5,882,84,K,15.110955028642067,32.30882488129371,1041.4825330127476,-429.3290915180754,-41.95558294253783
2025-02-19 16:14:10.890,696,12,662,-5,21,21,-2,-5,6,784,88,K,-1.0384804578201168,46.429504458901015,1420.5268849570343,24.491842844086804,-27.13333023212192
2025-02-19 16:14:10.997,750,-21,666,-2,-30,35,-2,-4,5,746,87,K,1.8060252976012394,48.38078863246347,1497.575432933405,-41.93211212213534,2.1530155551365624
2025-02-19 16:14:11.103,1083,66,594,-7,59,-2,-3,-3,6,810,79,K,-6.34019174590991,61.10781423234582,1958.5304308823693,119.3564251507261,113.7921736434651
2025-02-19 16:14:11.210,642,-89,692,7,-14,-14,-2,-3,4,765,44,K,7.328733817598582,42.61922329067111,1319.1228993052741,-182.86906236474988,-37.85832760007747
2025-02-19 16:14:12.127,733,-8,666,2,-5,-4,-2,-5,3,795,60,L,0.6882044930396946,47.73982014706476,1473.0986550815842,-16.077475089567088,-6.449801206459938
2025-02-19 16:14:12.221,741,3,659,1,-6,-5,-3,-5,5,805,66,L,-0.2608287574529295,48.3517711293419,1488.2389640319302,6.025258963692027,-5.548552357681615
2025-02-19 16:14:12.327,759,41,635,-6,-2,-8,-3,-4,4,802,72,L,-3.6942845436154483,50.02456678664815,1525.3199815816756,82.3954140248336,-6.1240952626666285
2025-02-19 16:14:12.437,1170,-5,697,11,0,-14,-2,-5,5,795,90,L,0.4110100195068361,59.21597429393576,2029.1026231562423,-8.671378731436933,185.20980483769148
2025-02-19 16:14:12.543,754,40,649,4,-1,-3,-2,-6,6,772,88,L,-3.526865659774302,49.22630475218657,1511.2949642249337,80.17479916312645,-2.8361164217267287
2025-02-19 16:14:12.651,760,50,644,2,0,0,-3,-6,5,779,88,L,-4.439523998894662,49.63817371563444,1521.969952919445,100.12960216575297,-1.6692758948981918
2025-02-19 16:14:12.760,742,12,649,-4,-1,-4,-3,-7,3,802,88,L,-1.059277376284607,48.820157482746225,1494.6465987918812,24.172182190704277,-9.312186813923063
2025-02-19 16:14:12.868,740,87,654,-11,-11,57,-3,-6,5,645,89,L,-7.577427089207823,48.28078223274352,1486.4150131728966,174.75419749465135,-5.669484614965427
2025-02-19 16:14:12.975,757,36,646,27,-17,7,-2,-3,5,801,87,L,-3.189654498971155,49.47973287634542,1517.1761900487732,72.1510473471015,-2.7104607285434668
2025-02-19 16:14:13.085,1045,70,642,-12,45,13,-2,-4,6,841,77,L,-6.222621911923488,58.28413615941334,1895.6655861937647,126.98238376417562,119.39013747713227
2025-02-19 16:14:13.997,754,-11,654,-2,-2,-2,-3,-5,5,815,73,M,0.963599621159668,49.058469980357785,1509.3786912133255,-22.020113532289898,-1.1958409197809488
2025-02-19 16:14:14.097,707,-26,657,4,-9,-5,-3,-5,5,800,81,M,2.26623034338704,47.07698971355087,1439.26945863817,-52.929287022054346,-23.48236821114267
2025-02-19 16:14:14.200,780,7,638,-1,6,-6,-4,-7,5,784,90,M,-0.6286118559861316,50.716904237787155,1554.0270453209628,13.94639656057274,4.885570622084515
2025-02-19 16:14:14.309,780,-65,665,-9,-4,-15,-2,-8,5,736,89,M,5.582605756531074,49.415744714783706,1539.4501095409964,-128.28750912841636,17.520098916970937
2025-02-19 16:14:14.417,834,187,544,-6,-3,38,-1,-5,6,384,92,M,-18.970407808486545,55.40440532650372,1657.180026160096,371.57393871935005,7.057632816436239
2025-02-19 16:14:14.527,741,-146,715,-1,2,-41,-3,-5,5,816,89,M,11.540900503408643,45.438096271654224,1453.4927539012208,-286.38318767824325,27.50699184969926
2025-02-19 16:14:14.633,778,181,620,5,-5,43,-3,-5,6,810,87,M,-16.27439824973539,50.301221785680305,1547.4131760737184,360.0022941765335,6.842970224029045
2025-02-19 16:14:14.742,692,-221,719,28,-3,-25,-2,-5,6,878,84,M,17.085928330442965,42.613137512046684,1369.0447336798973,-437.2238239064412,15.538781046465033
2025-02-19 16:14:14.847,796,127,558,10,6,27,-2,-4,5,798,88,M,-12.822017061392371,54.28642537699612,1607.9452504284145,256.54402864875453,-11.177700677205053
2025-02-19 16:14:14.957,652,-80,694,-39,45,-9,-2,-4,2,837,45,M,6.575677341758129,43.024071615007784,1334.3055627183458,-163.71847395317127,-32.257761543760694
2025-02-19 16:14:15.767,737,-8,656,-1,-2,-4,-1,-4,5,813,68,N,0.6986943829834713,48.325765134122825,1483.937251841946,-16.107867048487883,-8.845097976006173
2025-02-19 16:14:15.867,744,1,660,-2,-4,-5,-2,-4,5,822,76,N,-0.08681172071031178,48.42383859628585,1492.0742602298685,2.0054761562229415,-3.614263107141369
2025-02-19 16:14:15.977,712,4,666,-1,-2,-18,-3,-5,7,802,79,N,-0.3441146582671129,46.91140574573746,1442.2982799707988,8.102799325678646,-17.116087725494708
2025-02-19 16:14:16.081,686,-230,758,-1,-9,38,-3,-6,5,736,89,N,16.879375474538136,40.89333439789009,1340.652875785941,-449.4900312401843,34.63720139104464
2025-02-19 16:14:16.190,798,182,581,48,4,-61,-2,-4,6,744,89,N,-17.393322146912038,52.65795408725162,1593.028568411377,363.322305076279,2.1634107180324236
2025-02-19 16:14:16.297,750,-90,625,-3,0,-20,-3,-6,5,818,86,N,8.194263334630211,49.905001793446225,1514.9776285563744,-181.79731542676495,-12.481357130312063
2025-02-19 16:14:16.397,727,183,640,13,-1,24,-2,-4,5,718,90,N,-15.957219214728017,47.52243294550817,1464.5417932892685,368.65357382659715,-9.280258191377811
2025-02-19 16:14:16.508,730,-45,655,-1,9,-13,-3,-6,6,872,86,N,3.9301755457254806,48.03256805145766,1473.525052439364,-90.83373610927586,-12.135492257237502
2025-02-19 16:14:16.620,537,-121,723,-8,10,11,-2,-4,4,837,49,N,9.500870607353724,36.224659905557836,1127.9529258374287,-254.15699073804257,-72.64053143475007
2025-02-19 16:14:17.337,761,9,627,-1,-1,-2,-1,-6,4,850,87,O,-0.822370979998181,50.51145095987155,1532.7516926309615,18.127155366200597,-8.858490511974878
2025-02-19 16:14:17.431,773,12,631,1,-1,-1,-2,-5,6,851,87,O,-1.0894872981666643,50.77015897266895,1547.615207471455,24.025074372131254,-1.3184940679018382
2025-02-19 16:14:17.537,761,14,635,1,-1,0,-3,-5,7,858,87,O,-1.2630094214123186,50.150572359853236,1528.7310311058375,28.123829744391227,-5.616563406316459
2025-02-19 16:14:17.644,729,8,662,-2,2,-14,-2,-6,5,849,88,O,-0.6923624247634949,47.75554029598521,1469.2831394802522,16.123820460688638,-10.246143121984687
2025-02-19 16:14:17.755,901,164,582,5,-19,76,-2,-6,3,762,86,O,-15.737143189605709,56.13425852820486,1731.3456259554666,315.1394924047686,45.639118417223585
2025-02-19 16:14:17.865,693,-74,712,-6,-3,-63,-3,-5,6,876,88,O,5.933594767401653,44.07139975988896,1388.5542439832097,-148.27274755376263,-2.624273760527103
2025-02-19 16:14:17.967,880,117,609,-46,65,32,-3,-6,5,823,59,O,-10.875058247994115,54.82759987414988,1697.4224759663448,225.68003373643447,43.30649106420003
2025-02-19 16:14:19.188,764,0,654,3,-6,-1,-2,-6,5,848,60,P,0.0,49.43578199747755,1523.6775766380515,0.0,3.700084919783194
2025-02-19 16:14:19.277,751,-7,657,2,-5,-2,-2,-5,4,854,64,P,0.6104342182117956,48.81786501721893,1503.620253911371,-14.01510223352809,-1.4174524897078982
2025-02-19 16:14:19.389,751,1,650,0,-4,-3,-2,-5,7,855,72,P,-0.08814728355288569,49.123363852953624,1507.120394012864,2.0068181012155315,-4.431765790095483
2025-02-19 16:14:19.495,759,9,640,-3,-3,-5,-2,-6,5,851,80,P,-0.8056687941526541,49.85912742127792,1523.461713605936,18.064763402441926,-4.60539750698149
2025-02-19 16:14:19.606,781,-14,637,-5,-2,-8,-3,-5,6,840,88,P,1.2590452071752678,50.79181650653396,1555.8542087465999,-27.889832167032516,5.012636400020597
2025-02-19 16:14:19.713,746,62,622,1,-14,51,-3,-6,6,641,89,P,-5.692351883893384,50.0399526189131,1512.4924756944224,125.70312800677505,-17.086219680872205
2025-02-19 16:14:19.817,770,-15,616,-2,0,2,-2,-4,6,628,92,P,1.394913773151975,51.3319076472068,1550.7784798741877,-30.2099703871595,-8.622783899350111
2025-02-19 16:14:19.927,418,-232,644,18,-21,-53,-3,-5,5,811,72,P,19.811477141546998,31.410402891719396,939.1645979568723,-521.2588199186469,-158.9425863258989
2025-02-19 16:14:20.027,709,41,698,6,-12,15,-3,-5,5,876,85,P,-3.3616487226068923,45.39860083906356,1421.008899225642,82.17399840373952,-2.962216727077589
2025-02-19 16:14:20.141,819,131,522,-24,20,12,-2,-4,5,733,91,P,-14.087884535072282,56.6900155586803,1654.711675207091,264.6730518341012,-10.651397384739198
2025-02-19 16:14:20.247,532,-104,788,-22,30,7,-1,-3,3,799,42,P,7.518426879442183,33.795294398576395,1088.2273663338879,-212.73617687730138,-35.8856478780142
2025-02-19 16:14:21.158,752,-9,642,-2,-3,1,-3,-5,5,848,68,Q,0.8031592518102518,49.50905869959147,1512.5086365168431,-18.10183208597286,-7.264022132730588
2025-02-19 16:14:21.261,762,3,639,2,-6,-3,-3,-5,5,855,75,Q,-0.26899229369648114,50.01707484580994,1528.2359676996875,6.016677038187746,-3.552209133989777
2025-02-19 16:14:21.367,746,30,604,-2,-1,-9,-3,-5,8,862,85,Q,-2.8434801138311885,50.970061769322484,1522.8170224509695,61.23929044708993,-24.951047668077422
2025-02-19 16:14:21.478,754,-55,614,17,11,-15,-2,-7,6,787,86,Q,5.118696536562346,50.73111227973111,1528.184028858173,-111.47230979734682,-16.436331192199077
2025-02-19 16:14:21.587,769,219,683,-28,-23,23,-3,-4,5,789,88,Q,-17.778147670254135,46.99411847444029,1500.283689279851,427.2589440211799,33.49836179695933
2025-02-19 16:14:21.691,852,-49,612,11,21,27,-3,-6,5,843,86,Q,4.577642248304064,54.223156905843126,1663.3001717206557,-95.65928217642266,29.235087918965746
2025-02-19 16:14:21.797,1171,32,807,-1,3,-15,-2,-4,5,717,85,Q,-2.2707619483866197,55.40612000242074,1994.1970176097116,54.49556324808776,239.69001433728693
2025-02-19 16:14:21.907,736,20,640,15,-14,32,-1,-2,6,814,91,Q,-1.7899106082460694,48.97706667765138,1490.4469242857294,40.501275116460036,-16.040803726721037
2025-02-19 16:14:22.007,645,-147,684,-16,41,-4,-1,-4,4,748,50,Q,12.129076198102792,42.673950593304134,1322.8254724017652,-301.48115417528606,-34.810268407453464
2025-02-19 16:14:22.121,810,13,635,1,-8,-9,-1,-4,4,742,60,Q,-1.1728206295929908,51.899477470116274,1596.9293946435514,25.629731025143414,18.086215310302464
2025-02-19 16:14:22.940,690,-13,676,5,-3,-7,-2,-4,5,793,64,R,1.101706115206375,45.58190302945043,1404.2516541277255,-26.45691522269628,-23.759591580206347
2025-02-19 16:14:23.039,642,-90,631,11,-25,-24,-3,-6,6,785,83,R,8.11738973410431,45.20662853590338,1351.652250761831,-189.48396038717254,-66.49310004784331
2025-02-19 16:14:23.140,744,140,657,0,-12,62,-2,-7,4,487,86,R,-12.029228557585146,47.92141272316213,1486.2263426806308,279.6662472786133,1.566253842507649
2025-02-19 16:14:23.247,727,-55,638,12,12,-65,-1,-6,4,807,83,R,4.927109947649014,48.62530460232643,1477.4030639420787,-111.77052065586565,-20.53803960804146
2025-02-19 16:14:23.357,685,89,729,-10,-19,29,-2,-5,5,827,84,R,-6.960512789487424,43.00622059794798,1367.077759052524,177.62032197908704,3.1099469353432596
2025-02-19 16:14:23.457,937,-170,473,4,11,-9,-3,-5,5,678,87,R,19.76884487419077,61.790163457015275,1818.2223115329457,-329.8802486239069,28.156720005247337
2025-02-19 16:14:23.567,753,3,644,5,-15,38,0,-3,4,660,91,R,-0.2669038745425643,49.461119417079,1512.9650788837648,6.0277493182620105,-5.956853653578264
2025-02-19 16:14:23.677,645,-154,736,-12,29,-5,0,-1,3,616,47,R,11.818019443141427,40.6224163879215,1296.071224587664,-309.44956370000034,-6.927784955845823
2025-02-19 16:14:24.500,753,-20,656,-1,-2,-3,-1,-4,4,810,68,S,1.7462816202856397,48.92502541655686,1506.8504460875342,-40.02258820949626,-0.7408932714777166
2025-02-19 16:14:24.590,754,-7,650,-3,0,-2,-2,-5,5,833,68,S,0.6170076196569482,49.23475177958102,1511.3912375275524,-14.031483637523694,-2.923480627200206
2025-02-19 16:14:24.702,727,-26,653,1,-11,-6,-2,-4,4,859,75,S,2.2800976986466948,48.046881555408895,1470.6920843986484,-52.59696587945648,-14.993027664810711
2025-02-19 16:14:24.806,737,-30,664,-1,1,-15,-3,-2,6,855,87,S,2.586905479426447,47.953682782845675,1479.6036656048038,-60.2281003638319,-5.048621386146124
2025-02-19 16:14:24.907,816,-15,594,23,8,27,-1,-5,4,766,85,S,1.4465556865739135,53.938894774381275,1624.3896688556629,-29.860104206905568,5.539873406539527
2025-02-19 16:14:25.020,688,35,696,-1,-11,23,-2,-4,6,779,88,S,-2.8788282366295386,44.63263997327587,1390.5585624772648,70.74062454462829,-14.727848087465418
2025-02-19 16:14:25.127,1104,-45,613,4,30,-3,-3,-2,4,762,82,S,4.198521264845236,60.89322580597092,1977.7147165286308,-80.6133715976344,127.86673801444692
2025-02-19 16:14:25.236,495,-134,734,-11,-10,-6,-1,-2,2,758,33,S,10.346056564402284,33.561173096249654,1047.8269870560528,-283.65417427375974,-85.74749191746002
2025-02-19 16:14:26.057,740,-33,666,-6,-1,-1,-3,-4,6,790,66,T,2.8366601011254517,47.977854877158784,1482.8861474456614,-66.1287065752795,-2.597532701095247
2025-02-19 16:14:26.146,738,-26,659,0,-4,-4,-3,-4,4,792,71,T,2.2593596963271594,48.21447663068522,1483.6443852256305,-52.2693143846428,-6.826083826138756
2025-02-19 16:14:26.256,718,-25,658,14,-5,-15,-3,-4,4,760,86,T,2.1758447500578515,47.47619637933571,1454.9965981892165,-50.66144144112871,-17.40913873050772
2025-02-19 16:14:26.364,749,-64,664,2,-3,-11,-1,-6,3,723,86,T,5.505477857978346,48.31098067860621,1495.7656593022812,-127.80908170273162,1.9807773341594839
2025-02-19 16:14:26.471,637,-30,738,6,-18,8,-2,-5,5,888,87,T,2.3278150890411546,40.77551458728257,1290.0970416857044,-60.75810243417759,-18.64931988076887
2025-02-19 16:14:26.581,735,72,622,-27,33,-6,-4,-4,6,828,76,T,-6.602921873979456,49.5720138814612,1496.2216425946406,146.56865070314845,-22.190288018865772
2025-02-19 16:14:26.690,772,-156,725,-10,-11,31,-2,-4,5,812,86,T,12.143321956662176,46.15085499252965,1493.1662822612252,-301.7279015968279,47.73891886089609
2025-02-19 16:14:26.790,778,20,616,10,10,27,-3,-3,6,714,89,T,-1.8595993387455583,51.614051990030646,1561.8457724174827,40.15027692589929,-4.628529317698394
2025-02-19 16:14:26.905,570,-140,728,-20,26,-4,-2,-2,4,774,40,T,10.885527054658738,37.55591577531969,1179.5353839266452,-289.71044517496546,-50.49431490982056
2025-02-19 16:14:27.717,728,-49,663,-1,1,-3,-3,-3,4,766,61,U,4.22684497201581,47.59773000289405,1466.428624911613,-98.70192667674321,-9.497497687362056
2025-02-19 16:14:27.814,733,-35,662,1,0,-5,-2,-5,5,756,62,U,3.0264152957712165,47.87383590053688,1474.6696135225598,-70.4139651750199,-7.8298555960905105
2025-02-19 16:14:27.920,745,-5,659,7,-1,-8,-2,-3,4,725,67,U,0.4347092573105217,48.50437270179259,1494.006288473484,-10.02688784210392,-3.543817589296509
2025-02-19 16:14:28.031,664,-8,654,8,-12,-24,-2,-5,4,695,81,U,0.7008308502624081,45.43256634266594,1376.4250276604057,-16.583434068197654,-47.69573507515861
2025-02-19 16:14:28.138,791,-127,700,15,4,35,-3,-7,3,432,86,U,10.28323629396234,48.031704627188155,1534.5149751941003,-246.37598211081004,42.02214584592889
2025-02-19 16:14:28.245,674,55,638,7,-16,-40,-4,-4,7,812,85,U,-4.927109947649014,46.465838342367924,1398.9638221118294,114.1587688666923,-48.24171885363057
2025-02-19 16:14:28.351,786,-179,724,10,3,34,-1,-6,4,807,85,U,13.887181613629027,46.50332092051783,1511.414267511483,-344.2024858582131,55.8067052438754
2025-02-19 16:14:28.457,824,30,579,9,3,-24,-2,-4,5,795,85,U,-2.9660408899871182,54.86930288114209,1641.8415318709176,59.77578392733922,4.327370202353109
2025-02-19 16:14:28.568,531,-132,728,-11,2,-5,-1,-3,4,775,39,U,10.27714058141242,35.666753969981926,1114.0698994968157,-276.9439298184175,-71.38773415005983
2025-02-19 16:14:29.387,745,-17,661,-6,-2,-2,-2,-4,3,736,67,V,1.4732429363891024,48.40960822746205,1492.9094172253394,-34.066389386350025,-2.581375551609881
2025-02-19 16:14:29.477,750,-17,666,-7,-2,-1,-3,-4,4,760,71,V,1.4621873736995905,48.38565903611296,1497.631888311709,-33.946322801732066,2.1028831792023084
2025-02-19 16:14:29.587,749,-26,658,-6,0,-4,-3,-4,5,770,74,V,2.2627898071394603,48.678381148449276,1500.0150481087053,-52.06994826545572,-1.7702291796102827
2025-02-19 16:14:29.689,724,-16,671,-6,1,-10,-2,-6,5,742,75,V,1.3659594409400724,47.16766374746807,1457.3462886128882,-32.20654781464947,-8.662098976862012
2025-02-19 16:14:29.797,794,-7,621,0,3,-27,-3,-5,5,393,89,V,0.6458187939745008,51.968706851889905,1581.6743812069565,-13.944232579910196,4.9473668393954995
2025-02-19 16:14:29.911,701,191,686,-8,-27,64,-2,-6,6,690,89,V,-15.558566847378149,44.55021265290142,1402.5340707191076,382.1455171288867,-0.5226426723363602
2025-02-19 16:14:30.018,729,-55,613,23,-1,-78,-4,-5,6,830,90,V,5.127002308071954,49.82707836891972,1493.1009909473905,-112.64822291098284,-29.51564808059061
2025-02-19 16:14:30.125,1047,82,601,-24,34,40,-2,-6,4,853,78,V,-7.769420234300578,59.91460260860533,1912.279209301851,149.76780817836845,104.31155225366541
2025-02-19 16:14:30.232,635,-46,678,6,-17,-5,-1,-4,3,778,45,V,3.881376032209462,43.05862814569249,1317.7463636188536,-95.45879169522404,-50.97958194264993
2025-02-19 16:14:31.047,738,-27,657,1,0,-3,-3,-4,4,766,63,W,2.3532968661083045,48.29911080449646,1484.6278582266755,-54.315653349756424,-7.68089817740622
2025-02-19 16:14:31.144,735,-31,655,3,-1,-4,-1,-5,4,767,66,W,2.7096866567801277,48.26212535236132,1481.1982771076637,-62.47230828617356,-9.979417014312276
2025-02-19 16:14:31.247,743,-17,665,0,-1,-4,-2,-5,5,771,70,W,1.4643851950116218,48.16151423053961,1488.0281194212648,-34.04640380910027,-1.8152078265692353
2025-02-19 16:14:31.357,718,9,664,-1,1,-6,-3,-7,5,769,74,W,-0.7765518682338494,47.2350025723434,1452.1448051372356,18.202372209241112,-14.930571881788978
2025-02-19 16:14:31.467,794,35,714,-10,-2,-15,-4,-4,5,649,87,W,-2.80637025178825,48.00253000885526,1537.1743715427779,67.75957557178492,45.704658335587624
2025-02-19 16:14:31.578,703,191,652,-11,-23,45,-1,-5,6,702,88,W,-16.32767100567122,45.97802489742176,1422.0733196291922,386.36700433737656,-14.907260879421528
2025-02-19 16:14:31.681,731,-63,664,11,0,-37,-2,-5,7,854,90,W,5.419971058332721,47.62192216372965,1469.7132840578186,-126.6647563551882,-7.006320949920109
2025-02-19 16:14:31.788,766,17,650,8,-11,55,-2,-5,5,820,89,W,-1.4981634718448553,49.67359996828696,1528.3702290522265,33.919443725702166,3.0800928407996935
2025-02-19 16:14:31.899,741,55,600,19,-9,-50,-2,-4,7,869,90,W,-5.237476066812514,50.88504603309139,1516.8817767996588,112.58906575436063,-28.24435368393415
2025-02-19 16:14:31.999,831,62,627,-6,2,3,-2,-4,7,888,85,W,-5.647252914314846,52.83087003478146,1627.855550573554,121.45252001872485,25.76241852031478
2025-02-19 16:14:32.111,595,-51,684,-9,10,9,-1,-4,3,831,46,W,4.264163349152725,40.94082304772758,1250.2791905037384,-107.1667877574633,-69.2957416883313
2025-02-19 16:14:32.927,784,3,618,0,-2,-1,-2,-3,5,835,75,X,-0.27813266729636266,51.75218524866078,1569.3405424191287,6.005129626603811,-1.0567030803848638
2025-02-19 16:14:33.020,777,1,616,0,-3,-3,-3,-5,6,839,77,X,-0.09301254737281277,51.592835954222075,1560.6157852501378,2.0085145241314515,-5.2449468649741675
2025-02-19 16:14:33.131,774,10,603,1,-5,-5,-2,-6,7,858,84,X,-0.9500916728236801,52.07510234070683,1562.817075084732,20.19143507861411,-11.543535240430742
2025-02-19 16:14:33.237,779,0,650,8,-5,-7,-3,-5,6,870,88,X,0.0,50.158275593809456,1546.817173941251,0.0,9.330984516286321
2025-02-19 16:14:33.347,964,202,502,-24,8,27,-2,-6,5,530,90,X,-21.919382784656207,60.69341046726098,1836.0129832576056,384.7247122593738,47.90195270195227
2025-02-19 16:14:33.454,767,-35,667,-22,28,-65,-4,-5,5,750,81,X,3.0037702270287867,48.95005450179955,1521.1373981089655,-69.41304945738435,11.1856003407039
2025-02-19 16:14:33.561,919,31,701,-14,-30,62,-3,-7,6,782,83,X,-2.53211508788301,52.637139073818865,1713.8081541007782,57.81072119382386,94.73175622998315
2025-02-19 16:14:33.667,773,12,598,10,2,17,-1,-3,6,794,89,X,-1.1495937942748424,52.26854799700303,1563.887721501941,24.27768778528239,-13.83810796657258
2025-02-19 16:14:33.777,583,-81,709,-16,10,-14,-2,-2,4,787,51,X,6.517522592602017,39.247813514255,1215.6757762135028,-168.90178022863418,-60.4118787913784
2025-02-19 16:14:34.689,760,43,662,-3,-3,-5,-2,-7,5,766,85,Y,-3.716408404096564,48.88267498307224,1513.3645816556163,85.62457501472566,5.779798610502667
2025-02-19 16:14:34.794,766,-32,682,-12,-17,27,-3,-6,5,785,85,Y,2.686394754360771,48.288776240050765,1512.5078549450263,-63.18570673399587,17.354625231713044
2025-02-19 16:14:34.900,885,126,596,12,-12,12,-3,-6,5,855,83,Y,-11.937098829162673,55.45914623235281,1708.7221129560348,243.27569065814734,41.267367997969814
2025-02-19 16:14:35.007,1231,-61,886,10,-9,-33,-3,-6,7,889,82,Y,3.938528058222351,54.191666579484476,2041.9787308756381,-101.18659836183096,302.30612871176686
2025-02-19 16:14:35.107,775,71,614,-12,13,25,-2,-5,7,798,87,Y,-6.596111874896228,51.426332724200364,1556.8071204024368,142.62362006267483,-5.3929960349628345
2025-02-19 16:14:35.220,720,21,685,-24,-21,75,-4,-4,5,476,90,Y,-1.7559629738397156,46.41356239778583,1444.3350799528293,42.12643983195753,-4.124346899567172
2025-02-19 16:14:35.326,1067,3,642,-12,71,1,-2,-4,6,789,70,Y,-0.2677353387022093,58.96494911894366,1923.8520640960023,5.409143572903474,126.44327539865651
2025-02-19 16:14:36.042,760,17,652,7,-2,-3,-2,-6,8,857,77,Z,-1.493569963172687,49.3642588940301,1518.8652066928794,33.97461646549861,0.9735332055824983
2025-02-19 16:14:36.138,727,21,654,0,7,-10,-2,-5,5,837,74,Z,-1.8391408234083775,48.01117347756725,1470.2753011631326,42.47012561819227,-14.641054966559295
2025-02-19 16:14:36.248,800,-1,543,21,0,-9,-3,-6,5,722,84,Z,0.10551697005352625,55.83325528984295,1627.4066761736024,-2.0342583452170033,-18.6022814528327
2025-02-19 16:14:36.354,670,1,773,22,-10,32,-2,-6,4,876,79,Z,-0.07412127755561845,40.9171812482915,1324.9674415664879,1.9775633456216237,17.343533834484674
2025-02-19 16:14:36.460,799,17,512,21,11,-8,-3,-6,5,292,86,Z,-1.9017002928923255,57.33386982950146,1640.8299925808687,34.91127643789082,-27.44550212941772
2025-02-19 16:14:36.568,736,90,668,-5,-3,12,-2,-3,6,840,84,Z,-7.673284585205997,47.51625942953032,1473.469026501381,180.17963639283192,-1.3333012267970616
2025-02-19 16:14:36.677,622,-113,564,38,-63,-32,-1,-6,3,774,76,Z,11.329467345241815,47.23819179577889,1356.1825984098607,-246.38043990404222,-101.72184164495422
2025-02-19 16:14:36.785,686,64,700,11,-21,17,-3,-4,7,892,82,Z,-5.223947596268426,44.30206531129272,1384.4410831825985,129.16068414531532,-12.694982839386284
2025-02-19 16:14:36.887,640,-82,588,-23,57,0,-2,-5,4,803,49,Z,7.939026141797885,47.149740318496946,1373.1335784645253,-175.93273974076732,-85.56647521428272
2025-02-19 16:14:38.707,759,16,649,-1,-1,-1,-3,-5,5,802,61,a,-1.4122447060701095,49.45856120882137,1518.936057785755,32.019732443441484,-0.8003972370947849
2025-02-19 16:14:38.803,746,-9,660,2,-9,4,-3,-5,6,803,65,a,0.7812576616086434,48.497573994594845,1494.9276636040122,-18.03532033838621,-2.5901581483219616
2025-02-19 16:14:38.910,775,10,625,-6,-3,11,-3,-6,6,818,73,a,-0.9166542563852879,51.111920280684586,1553.3737782320452,20.043532622348977,-2.720788896810859
2025-02-19 16:14:39.017,764,18,604,0,1,-11,-4,-3,4,832,87,a,-1.7069849023547188,51.65857951267752,1548.3281124392483,36.47893458626501,-16.07091611689259
2025-02-19 16:14:39.122,867,-6,585,2,12,20,-3,-6,4,611,88,a,0.5876284162399621,55.9894690028964,1695.934778576015,-11.73657286211775,25.684145943519297
2025-02-19 16:14:39.230,684,-21,694,13,-8,-48,-3,-4,5,843,85,a,1.7332051002280995,44.571109900012374,1385.7939407331394,-42.54630519794726,-18.0540860654952
2025-02-19 16:14:39.341,806,231,549,1,-5,51,-1,-4,6,796,86,a,-22.819655697982764,53.536288332055435,1610.2334308972627,461.4937004184463,1.2032834210951933
2025-02-19 16:14:39.447,714,-70,636,-21,49,-13,0,-4,4,857,50,a,6.280858892234766,48.13536038899402,1458.7235608009378,-143.0121138040135,-27.367205419322545
2025-02-19 16:14:40.167,748,-11,647,-1,-1,-2,-2,-5,6,852,68,b,0.9740229670869543,49.13697423932384,1504.2758305461334,-22.12170339038432,-7.158372143514043
2025-02-19 16:14:40.257,686,-6,664,10,-12,-21,-3,-5,6,835,76,b,0.5177188568032037,45.93245744837892,1404.52040969663,-12.284435070232917,-31.47748110577595
2025-02-19 16:14:40.372,754,-209,716,21,-4,41,-3,-5,6,804,82,b,16.2724953242039,45.31018227854681,1464.9244659353535,-406.0599646956086,40.90461855475712
2025-02-19 16:14:40.475,734,32,532,15,5,-41,-3,-4,5,803,84,b,-3.442215285897377,54.01638709249835,1543.1850729904725,67.27782334563368,-54.49381312115986
2025-02-19 16:14:40.586,708,166,737,4,-14,12,-2,-5,4,870,83,b,-12.693332108393832,43.142419212005926,1391.8141656022533,326.3293100140876,25.17649710612909
2025-02-19 16:14:40.687,1034,-27,462,2,28,-31,-2,-5,4,774,84,b,3.344650318265879,65.88810070545532,1946.749354714616,-50.83388063568147,54.17582023389491
2025-02-19 16:14:40.797,479,-63,747,5,-20,-8,-1,-4,3,825,39,b,4.820766078092657,32.57708117854197,1017.4337534597531,-133.81696548635583,-92.68687648107618
2025-02-19 16:14:41.619,756,-8,641,-2,-2,-4,-3,-5,6,806,70,c,0.715042807358066,49.703734249800284,1518.7104825700335,-16.07101039756649,-5.689708105014802
2025-02-19 16:14:41.712,770,1,631,-2,-2,-1,-3,-5,3,805,76,c,-0.09080147630133652,50.66601383594691,1543.4643707848631,2.0044991828374847,-2.8389843704529767
2025-02-19 16:14:41.818,737,-9,634,3,-8,-1,-2,-4,6,836,81,c,0.8132924006277212,49.29357199988955,1495.061172659165,-18.257192067751,-18.117752328237202
2025-02-19 16:14:41.927,746,-13,652,-4,4,-12,-2,-6,5,824,86,c,1.1422491608414478,48.841073622862346,1498.886910204743,-26.1200131805116,-6.019122591812447
2025-02-19 16:14:42.031,948,48,487,18,3,36,-2,-4,5,520,84,c,-5.6290416560542615,62.69711274457661,1836.5941192062978,92.9921073015847,30.51757800267194
2025-02-19 16:14:42.139,772,-1,649,14,-9,-2,-1,-2,5,854,86,c,0.08828310349763627,49.94708749639016,1537.4505038553266,-1.9915161967037907,5.505988339239821
2025-02-19 16:14:42.248,551,-113,712,-18,8,-3,-1,0,2,762,39,c,9.018076491758666,37.39105819932528,1158.2518529128183,-237.53622391859977,-72.68841973489396
2025-02-19 16:14:43.067,752,-21,643,0,-3,-1,-2,-2,6,800,66,d,1.8705814102035576,49.452711317689,1511.8696891360396,-42.21976525512876,-6.72900281179966
2025-02-19 16:14:43.161,767,-21,630,2,-8,-4,-2,-4,7,808,75,d,1.9091524329963763,50.585327931195685,1539.5710089702184,-42.15253088445186,-4.575926533556071
2025-02-19 16:14:43.268,782,-7,617,0,-1,-4,-2,-3,5,809,87,d,0.6500052676296924,51.72467676114043,1567.0432308230115,-14.027241196625422,-2.4011169025548043
2025-02-19 16:14:43.378,689,-59,653,10,16,-10,-3,-5,6,678,87,d,5.162782526245367,46.42032304014069,1413.4164266626717,-121.03275641959017,-33.56593122020979
2025-02-19 16:14:43.485,788,146,640,-4,-13,26,-2,-3,6,714,88,d,-12.850690724550237,50.20407418942731,1556.329038584351,288.3553802453239,15.976415362963849
2025-02-19 16:14:43.587,744,-190,711,4,2,-27,-2,-5,5,874,84,d,14.961506862642976,45.3116871286687,1454.9429367451676,-371.5580080397605,31.590822545948754
2025-02-19 16:14:43.698,828,226,525,2,-2,53,-2,-4,5,629,87,d,-23.290726996735064,55.38224829064501,1650.9603964009834,450.6244560224906,3.195400832709879
2025-02-19 16:14:43.808,662,-117,661,-30,36,-3,-1,-3,4,813,49,d,10.037646236232268,44.601429218215,1364.1708139556854,-241.09967557827068,-40.11013296783699
2025-02-19 16:14:44.517,748,-18,642,2,2,-1,-2,-5,5,813,70,e,1.606002989282249,49.349752309123446,1506.7002944777553,-36.257493717379134,-9.183942586522335
2025-02-19 16:14:44.619,725,-12,655,0,3,1,-2,-4,5,739,72,e,1.049576252715225,47.899036546896276,1466.9645673596076,-24.28079283905557,-15.326609131783357
2025-02-19 16:14:44.729,794,157,618,-3,-24,27,-3,-2,4,808,84,e,-14.254179957810328,51.233396055960256,1573.7030617990436,311.1730235547227,11.127843587142479
2025-02-19 16:14:44.835,711,-58,678,-2,8,-33,-3,-5,4,822,84,e,4.8895048067030435,46.25664988097407,1433.444215802374,-116.93356472086879,-10.913049668086728
2025-02-19 16:14:44.943,803,160,590,16,-19,49,-2,-4,6,763,84,e,-15.172915345525261,52.7186065563269,1598.670231015496,318.5395229918796,5.385508967443911
2025-02-19 16:14:45.049,1006,9,670,-29,60,-1,-1,-2,6,841,68,e,-0.7695985125947775,56.333842278148246,1838.2817009406533,16.445860147580397,115.69707790234816
2025-02-19 16:14:45.152,653,-53,664,5,-25,-7,-2,-3,4,728,45,e,4.563632301640859,44.430503890627065,1353.0436218245063,-109.81824189387262,-47.836087123234506
2025-02-19 16:14:45.969,777,-21,616,-1,-1,-1,0,-3,6,762,78,f,1.9525090493996085,51.576672790631896,1560.440500379417,-42.174067577822086,-5.105982282781156
2025-02-19 16:14:46.069,781,-21,623,0,-2,0,-2,-3,5,776,81,f,1.9305874411669917,51.40494159202293,1562.5742772875126,-42.01544151477307,-0.45809827160110217
2025-02-19 16:14:46.177,783,-24,622,-5,-2,4,-3,-3,6,769,85,f,2.2096734617438054,51.51629368553064,1565.7851549583997,-47.99341471136857,0.1706687303644685
2025-02-19 16:14:46.283,762,-1,632,-7,-1,3,-3,-2,6,753,88,f,0.09065780331933092,50.32777728702465,1531.7091425222418,-2.0101169849373255,-6.3939344803894755
2025-02-19 16:14:46.397,852,-107,621,-6,-6,-40,-3,-5,5,866,85,f,9.776227590555031,53.512867460352744,1655.9904253779387,-207.9706285392482,34.992894178756046
2025-02-19 16:14:46.496,698,42,654,2,8,40,-2,-4,5,872,84,f,-3.674499520829663,46.80516472432683,1427.030330524648,85.86715455878971,-29.07426384401117
2025-02-19 16:14:46.607,939,189,515,-7,-11,-11,-2,-5,3,801,83,f,-20.152646567605533,59.705542461316625,1802.4443516424626,362.7923135893775,41.43893387021478
2025-02-19 16:14:46.713,705,4,682,9,-10,14,-2,-4,6,871,85,f,-0.3360417744630067,45.94953072933507,1423.7276280878314,8.077887251562162,-13.279776391348605
2025-02-19 16:14:46.823,673,-76,668,-18,32,4,-1,-3,4,824,51,f,6.490771634475678,45.0294099252633,1380.4696459484662,-155.8925603151314,-34.213556454049694
2025-02-19 16:14:47.540,760,-7,633,0,-3,-1,-2,-5,5,805,73,g,0.6335767913244145,50.207540075608804,1528.3677548298856,-14.077071426064734,-6.969458956996618
2025-02-19 16:14:47.634,748,-9,636,2,-7,-2,-3,-4,6,814,76,g,0.8107352192623757,49.6237399358871,1509.80678418875,-18.16612440868817,-11.739458213964099
2025-02-19 16:14:47.737,754,-8,636,-6,2,-14,-2,-2,8,808,86,g,0.7206636225176557,49.85009045361117,1518.3600237619003,-16.109920676518833,-8.738693783247186
2025-02-19 16:14:47.847,875,68,572,8,7,33,-1,-5,4,666,84,g,-6.779567945149955,56.642392112195644,1710.2549254728283,132.9112399224598,25.981923005191106
2025-02-19 16:14:47.957,667,-138,683,6,1,-38,-2,-3,7,864,85,g,11.422814527965388,43.74816431235972,1358.4899117576479,-281.0668782946858,-25.077375907756277
2025-02-19 16:14:48.065,708,65,709,5,-10,57,-2,-2,6,758,88,g,-5.23814388870785,44.839677596348594,1413.1254220330495,129.73609100585907,2.8786381053218975
2025-02-19 16:14:48.168,1144,-193,513,-3,67,-25,-2,-4,4,726,73,g,20.617219421741655,64.400364830117,2045.8352776871127,-345.145287232179,108.59309663156574
2025-02-19 16:14:48.281,514,-49,721,5,-25,-17,-2,-2,2,817,43,g,3.8879095608330716,35.42264800773323,1093.6033326716165,-104.25401420410353,-92.02335186038044
2025-02-19 16:14:49.100,676,37,641,3,-11,-16,-3,-7,5,822,78,h,-3.303578911270694,46.474727622500254,1401.070676756689,76.68582106508504,-46.530035208635354
2025-02-19 16:14:49.187,726,-230,695,33,8,16,-3,-6,5,735,82,h,18.31120003151555,44.7615165889312,1430.1574591949313,-453.08018679729224,20.90987032992109
2025-02-19 16:14:49.300,801,37,652,0,-1,16,-3,-2,4,670,84,h,-3.2479640309386877,50.80990964372064,1576.0537903164718,72.80148594470593,21.11976119058727
2025-02-19 16:14:49.411,656,75,701,-11,-15,39,-1,-5,6,797,84,h,-6.1068455631004515,42.938045389314524,1337.2071400159907,152.88191387377944,-26.93628834025833
2025-02-19 16:14:49.514,968,-31,609,-27,66,7,-2,-3,5,832,61,h,2.9140188043741833,57.791255013603994,1814.1118240020342,-58.096556347172566,76.68378014748077
2025-02-19 16:14:50.333,761,-5,639,2,-4,-3,-3,-2,6,808,68,i,0.44831463395223403,49.97947290874655,1526.8141054474868,-10.031630127775866,-4.042330329755828
2025-02-19 16:14:50.432,712,-37,636,4,-17,-10,-3,-4,5,812,78,i,3.3294922422909803,48.17881484397537,1457.2294978651498,-75.72681379355411,-29.68252899190327
2025-02-19 16:14:50.537,738,-24,699,-10,-12,25,-4,-4,6,541,87,i,1.9664645682957587,46.537767022426685,1463.827948433375,-47.604160924662594,11.528813069201874
2025-02-19 16:14:50.645,989,105,655,-1,53,-50,-2,-3,6,807,78,i,-9.107334312254409,56.14863058822125,1819.4853799717334,193.17084418304552,104.98187676290661
2025-02-19 16:14:50.750,813,62,543,-4,-5,-1,-3,-6,6,793,88,i,-6.513849870983117,56.089572205524235,1642.910762103556,125.2896276142933,-11.294641847762364
2025-02-19 16:14:50.857,690,36,584,-30,57,36,0,-5,3,827,48,i,-3.527468050374119,49.70260912458366,1452.6977822979597,75.79292777206746,-61.529717191316536
2025-02-19 16:14:50.968,831,-2,661,16,-31,-12,-2,-3,4,821,53,i,0.17336037720706837,51.5001782505249,1613.610093528111,-3.8835381312349244,38.49064762685748
2025-02-19 16:14:51.070,694,-45,663,0,-3,1,-2,-3,5,823,57,i,3.882898560363682,46.24289586248578,1416.2782153954097,-91.83360186281476,-27.015067445470777
2025-02-19 16:14:51.181,735,-40,647,0,-4,-3,-2,-3,6,822,59,i,3.5377402260431254,48.58922795077266,1484.9867246340284,-80.81560406171582,-13.19239569825345
2025-02-19 16:14:51.288,734,-31,649,-2,-2,-1,-3,-3,4,820,59,i,2.7346998341849873,48.48460820856749,1482.7776892142424,-62.624125838748654,-13.066376430576838
2025-02-19 16:14:51.394,731,-44,658,-1,0,0,-2,-5,6,816,58,i,3.8256333936479954,47.94489530113729,1473.5009398794346,-88.69225903515064,-10.352419207480125
2025-02-19 16:14:51.500,735,-38,657,-2,0,-1,-3,-3,5,816,58,i,3.3102231893289176,48.1596424508981,1480.0063279090725,-76.51733395992483,-8.944431886068969
2025-02-19 16:14:53.117,825,-12,654,0,-4,-8,-2,-4,6,856,88,j,1.0511807495437469,51.590483413944646,1608.590276503353,-23.39767674913968,32.826617171887506
2025-02-19 16:14:53.217,685,-36,728,8,-16,70,-2,-4,5,639,91,j,2.8310016778652676,43.22201129583718,1369.8271029819905,-71.99091344138928,0.18375040746127524
2025-02-19 16:14:53.327,985,194,606,10,38,-102,-3,-3,6,753,90,j,-17.75153257335525,57.13813386397717,1824.9811945360352,359.43792054821404,89.21969148341395
2025-02-19 16:14:53.433,111,-267,808,40,-114,-32,-3,-4,5,859,81,j,18.28590774080709,7.4316515070317815,240.34339886671665,-578.1233107875075,-133.5267232820454
2025-02-19 16:14:53.540,931,-62,617,14,22,19,-3,-4,7,862,82,j,5.738174543992251,56.33377371646424,1763.2810375863046,-117.42580486611267,65.42384512271747
2025-02-19 16:14:53.647,633,-44,697,5,-20,-3,-2,-3,5,817,47,j,3.6121570263310017,42.18833466051482,1304.5697486361987,-90.68099358608649,-42.46937567050645
2025-02-19 16:14:54.557,780,-7,633,2,-4,-4,-2,-4,4,793,76,k,0.6335767913244145,50.93762755852562,1556.460420121763,-13.968234539554285,2.8725052088768734
2025-02-19 16:14:54.658,739,1,649,0,-3,-2,-2,-5,5,797,74,k,-0.08828310349763627,48.70991690201669,1490.3783570491873,2.0167501448568164,-10.870844012073803
2025-02-19 16:14:54.767,702,-20,628,-1,-6,-15,-2,-5,6,808,78,k,1.8240898323761097,48.1701706504065,1447.12888829219,-41.22874325618776,-38.58253824429573
2025-02-19 16:14:54.872,698,-171,702,14,5,6,-3,-6,6,787,86,k,13.690049617465514,44.010829354360574,1392.7943189476707,-341.2146540688419,3.224051717385805
2025-02-19 16:14:54.983,964,178,609,22,-18,23,-2,-4,5,662,88,k,-16.292713973239525,56.64811173552106,1799.3098120672944,332.23770388794435,81.29909175416776
2025-02-19 16:14:55.087,783,38,610,1,-3,-10,-1,-4,6,855,88,k,-3.564638972115678,52.02564475558979,1571.2862357659305,76.25654784049215,-4.1182679657950985
2025-02-19 16:14:55.195,826,-21,518,1,4,-12,-3,-4,4,669,86,k,2.3215305898327188,57.88622970961563,1672.9941822271703,-42.53375039560603,-13.165843091615443
2025-02-19 16:14:55.301,780,25,630,10,-4,22,-1,-4,6,749,90,k,-2.2724497327829347,51.050420790707186,1557.6994679565655,49.92626499860786,1.858122035081692
2025-02-19 16:14:55.410,569,-186,699,-19,37,3,-1,-2,3,682,37,k,14.900802284170009,38.19023792246671,1187.2744917744567,-388.10730311080664,-60.53228427125714
2025-02-19 16:14:56.517,750,-46,644,4,-9,-4,-3,-3,5,785,60,l,4.085616779974877,49.27634161980695,1507.8650092989228,-92.4823872370006,-6.753421318008236
2025-02-19 16:14:56.618,763,-24,636,-2,0,-6,-2,-3,6,810,66,l,2.1610794882263713,50.1669927337008,1530.9146382274366,-48.154588882645456,-4.096605390104514
2025-02-19 16:14:56.731,745,-14,637,-2,-1,-19,-2,-4,6,822,70,l,1.2590452071752678,49.461613353941125,1504.9706820803149,-28.28132825385827,-12.800435550551356
2025-02-19 16:14:56.832,768,-7,593,-6,-4,-8,-2,-7,6,824,88,l,0.6763099988129995,52.32506737852147,1559.4910053831884,-14.214110726148855,-18.13823722946711
2025-02-19 16:14:56.944,753,5,690,17,-13,61,-2,-5,7,558,88,l,-0.41517954114486444,47.49914211876625,1490.2672212152083,9.895532677391822,14.41649051992863
2025-02-19 16:14:57.050,841,-22,610,20,-6,3,-3,-3,6,679,90,l,2.0655099193031954,54.02790894605186,1650.3032103455412,-43.17083308870619,22.990537085873825
2025-02-19 16:14:57.161,626,-82,685,-15,19,4,-2,-2,3,741,45,l,6.8262816223106455,42.220295013984135,1297.9829511413272,-170.0233258683528,-50.31680755880063
2025-02-19 16:14:58.266,750,-31,643,3,-10,-3,-1,-4,5,772,65,m,2.76017874791245,49.359546639925505,1508.8116426810998,-62.36421456415212,-7.554514991929523
2025-02-19 16:14:58.367,786,-18,640,2,5,-6,-3,-5,6,768,75,m,1.6110191079416032,50.83472680184893,1561.3274174252215,-35.75558971202797,8.690143572338684
2025-02-19 16:14:58.480,751,-5,653,6,5,-8,-2,-4,3,765,77,m,0.43870336767275575,48.991970356461074,1505.6176302604936,-10.024085421175059,-3.145556005462595
2025-02-19 16:14:58.591,749,-27,641,-17,1,-17,-2,-5,4,733,87,m,2.411968975493547,49.41774383973402,1508.4728081645471,-54.37752445987019,-8.962710325066382
2025-02-19 16:14:58.693,797,80,583,8,1,15,-2,-4,4,573,90,m,-7.81340215999461,53.55977291616763,1601.476962539397,160.7505106689482,-5.469346499960125
2025-02-19 16:14:58.804,694,-132,741,-10,-12,-15,-1,-4,3,802,84,m,10.100584305564178,42.67781017460965,1371.874997240214,-260.9329965932395,17.217041851587055
2025-02-19 16:14:58.910,793,66,569,8,-1,23,-2,-4,5,688,92,m,-6.6163404631870995,54.15794283189269,1603.6342204981058,133.46766526213742,-12.653053547821173
2025-02-19 16:14:59.015,763,14,746,-5,-15,7,-2,-2,7,814,88,m,-1.075129710597001,45.64040937869823,1477.965958153889,27.118641434016315,46.96382073027371
2025-02-19 16:14:59.123,1005,37,619,5,50,6,-2,-2,6,821,78,m,-3.4207180141744953,58.32459539184682,1856.0366005406831,68.33169574129877,94.82919827394755
2025-02-19 16:14:59.233,642,-84,703,-3,-9,-10,-1,-2,3,790,42,m,6.813847515294999,42.20107304707586,1313.7344631451638,-171.89049050497465,-32.55970029758544
2025-02-19 16:15:00.149,712,-48,659,7,-3,-3,-1,-3,3,780,54,n,4.165932139669544,47.13825925987774,1444.9972868339503,-97.4155474270079,-19.43428654996262
2025-02-19 16:15:00.245,779,-12,648,6,-3,-3,-2,-3,3,788,64,n,1.0609116902642277,50.24027816189205,1547.7333222213495,-23.841848352575344,8.540188960931346
2025-02-19 16:15:00.348,752,-6,651,4,0,-5,-3,-5,5,795,67,n,0.5280567489001813,49.11633550322418,1508.0401104956413,-12.032234924167351,-3.4974892721576225
2025-02-19 16:15:00.458,717,6,624,6,-9,-14,-2,-5,5,803,76,n,-0.5509039792185729,48.965869174254294,1471.3186350697556,12.312289833219715,-32.47814265485033
2025-02-19 16:15:00.564,741,13,707,-6,0,33,-1,-4,4,719,85,n,-1.0534104754249034,46.34025890289273,1464.4524162073485,25.6921476527605,16.742431499871373
2025-02-19 16:15:00.676,794,-26,530,13,-8,-58,-3,-4,5,787,86,n,2.808484877345993,56.244836213032826,1625.419538111626,-53.225324925569616,-24.97777732891916
2025-02-19 16:15:00.783,715,31,654,-12,-12,43,-2,-4,7,808,88,n,-2.713823719237343,47.51928047935539,1452.5046364677219,62.97572549720192,-20.58466048935668
2025-02-19 16:15:00.893,1017,-58,645,-13,57,8,-3,-4,6,837,71,n,5.13835868145779,57.51194170955412,1860.5034126332853,-106.10540603021687,110.03470880189866
2025-02-19 16:15:00.997,641,-64,712,7,-13,-6,-2,-2,4,820,38,n,5.13637849242773,41.88149129707387,1308.5920798607979,-130.65505945568032,-29.537536444443163
2025-02-19 16:15:01.814,763,-23,637,0,-3,-2,-2,-3,4,799,66,o,2.067866097714849,50.12440145738213,1530.4382665059047,-46.133787850112455,-3.705341761810132
2025-02-19 16:15:01.913,774,-24,640,2,-5,-3,-1,-4,5,803,74,o,2.147585428298503,50.39378821615974,1544.4441312370568,-47.889740503474634,2.9402532406764976
2025-02-19 16:15:02.019,760,-35,634,1,-4,1,-3,-4,5,809,77,o,3.1598088820967734,50.12189375166698,1527.4102052846315,-70.34125945389751,-6.181671250600402
2025-02-19 16:15:02.121,748,7,610,2,-2,-7,-2,-3,6,836,87,o,-0.6574636934272293,50.80063257156968,1522.9514665490644,14.252219606742583,-21.979137158996537
2025-02-19 16:15:02.233,728,-187,616,36,20,-6,-2,-5,6,750,86,o,16.886791123944043,48.51419633798708,1477.1198770485325,-379.4250233627412,-17.87066519491202
2025-02-19 16:15:02.342,665,17,656,-16,-15,-43,-3,-2,5,843,90,o,-1.4844669167449749,45.38073587001668,1376.7899260978807,35.19613344911875,-46.156678977758816
2025-02-19 16:15:02.445,926,37,588,-8,18,-5,-3,-7,5,812,83,o,-3.6005993939862906,57.533641882769764,1769.706782120411,70.71182606744622,52.255304657881425
2025-02-19 16:15:02.553,531,-77,708,-27,19,17,-3,-2,3,734,33,o,6.206925325868252,36.708337880472996,1128.7418178185512,-163.67819203771836,-88.98909042473497
2025-02-19 16:15:03.573,710,-70,691,5,-7,-3,-1,-4,2,792,47,p,5.784470176159683,45.63078132842071,1424.8484605133708,-140.4780172337126,-4.718712978505778
2025-02-19 16:15:03.670,712,-55,676,-1,-1,1,-2,-4,5,794,49,p,4.651393460117764,46.391337369872545,1436.067588604572,-110.9321873219824,-11.457429630183583
2025-02-19 16:15:03.776,678,-41,651,5,-18,-10,-2,-5,5,803,59,p,3.603730270161665,46.1072037296431,1398.6382865652308,-84.57842145895938,-40.940301702013585
2025-02-19 16:15:03.882,817,-79,641,-4,3,-15,-2,-4,6,766,86,p,7.0259839882136985,51.673140585362646,1601.485741062531,-154.85602636957157,25.509963254489094
2025-02-19 16:15:03.989,866,195,507,8,-4,42,-3,-4,5,231,90,p,-21.037511025421818,57.901596875581724,1713.1367315229863,385.7524972828895,11.043507064487187
2025-02-19 16:15:04.097,826,-122,610,-3,-1,-55,-3,-4,5,811,83,p,11.309932474020213,53.01572105487402,1624.8006084971992,-239.9826564608454,20.086717695773018
2025-02-19 16:15:04.206,747,151,649,-10,4,47,-3,-3,5,676,88,p,-13.097736193759886,48.26657903099497,1493.2500224642463,301.8483981152626,0.651586908573222
2025-02-19 16:15:04.312,870,20,581,-33,67,22,-2,-2,4,751,54,p,-1.971537497784225,56.24869253159116,1701.4569341796796,39.113952509877684,25.739679588053036
2025-02-19 16:15:04.418,643,-36,697,11,-32,-4,-1,-3,4,745,41,p,2.956695562341937,42.65427873476858,1320.573001998995,-73.93565796572912,-37.47648894758868
2025-02-19 16:15:05.238,748,-17,645,-2,-1,-1,-2,-3,4,753,67,q,1.5097717876199686,49.218980365311786,1505.2114726687644,-34.20935165156283,-7.943047956354349
2025-02-19 16:15:05.333,750,-21,644,-2,-2,0,-2,-4,5,759,67,q,1.8676788394341726,49.33336430478287,1508.5139356045288,-42.238390196926815,-7.3106327057556655
2025-02-19 16:15:05.439,746,-22,645,0,-4,-1,-1,-4,5,764,70,q,1.9535173163813975,49.13645678917937,1502.26992182071,-44.3028663271523,-8.879490046056162
2025-02-19 16:15:05.547,813,9,756,-4,-1,-13,-3,-4,5,799,86,q,-0.6820603931726519,47.07855150224257,1545.2880217148734,17.106509465478304,75.0532048998225
2025-02-19 16:15:05.656,784,-85,625,24,16,10,-3,-4,6,602,84,q,7.744710546422914,51.18219034767155,1563.143155591034,-169.47342885872177,3.87184662704567
2025-02-19 16:15:05.763,709,26,631,2,-11,-45,-1,-3,5,808,88,q,-2.359505636972483,48.30723258612283,1455.722149988147,53.38332284864855,-33.57218144220121
2025-02-19 16:15:05.869,757,-84,707,5,0,71,-2,-5,5,646,87,q,6.775656169399013,46.75569765707161,1485.4391028477348,-164.83075910067333,26.674444235999545
2025-02-19 16:15:05.980,762,-19,577,15,-19,-10,1,-2,6,663,92,q,1.8860079679506772,52.85140180288103,1559.0720018386824,-38.87449873351045,-26.557145749238316
2025-02-19 16:15:06.086,654,-13,613,-43,77,29,-1,-2,5,757,43,q,1.2148996745275555,46.84701199017083,1383.5300624670942,-27.501362097969764,-70.79499738888182
2025-02-19 16:15:06.193,703,-96,664,5,-17,-12,-2,-1,3,637,34,q,8.226722464108173,46.338258461785585,1426.4283118439962,-194.78964144669084,-19.295020006278037
2025-02-19 16:15:07.103,717,-43,667,2,-6,-3,-2,-2,5,792,58,r,3.6886264729190894,47.009776600545784,1448.470062990538,-86.86780015145487,-13.460993046985891
2025-02-19 16:15:07.204,782,-6,638,1,-5,-3,-3,-4,5,791,72,r,0.5388158978827622,50.78924022733145,1556.8257840706697,-11.944954864992349,5.8531326891468325
2025-02-19 16:15:07.303,729,0,644,5,-1,-11,-2,-4,4,793,78,r,0.0,48.54255914952269,1478.4477064998887,0.0,-18.063543190573682
2025-02-19 16:15:07.413,729,-184,647,-3,9,-6,-3,-4,5,761,85,r,15.875194858437188,47.301980399948405,1463.9380349605945,-369.498763282235,-5.270107845685175
2025-02-19 16:15:07.530,892,71,576,-23,-12,-18,-2,-4,6,562,91,r,-7.02705400877408,56.950881284815765,1730.203349867002,137.7179796418802,34.7386440320704
2025-02-19 16:15:07.634,762,62,637,-1,-10,34,-2,-5,5,833,89,r,-5.559158749492195,49.97281992974498,1527.7394302459884,124.30425810400432,-3.126006649205465
2025-02-19 16:15:07.741,582,-135,698,-14,24,0,0,-2,4,813,43,r,10.94640550968861,39.3051249218867,1215.4500875938659,-281.9342986686802,-61.70474422769462
2025-02-19 16:15:07.847,773,-30,647,3,-3,0,-2,-3,5,795,48,r,2.6547807195666615,50.04042623013806,1539.497784582236,-59.747650113152744,5.442345893005609
2025-02-19 16:15:08.663,751,-40,655,0,-2,-1,-2,-3,5,784,57,s,3.4946389272533374,48.853192970783766,1504.0261068907903,-80.10791514731241,-1.767110537240569
2025-02-19 16:15:08.762,748,-42,650,0,-2,0,-3,-3,5,788,57,s,3.6970493035735936,48.950777733417574,1502.14568763433,-84.34507871743565,-5.340503960313413
2025-02-19 16:15:08.872,659,-97,645,1,-13,-2,-2,-4,4,796,60,s,8.552483363253065,45.29480973824044,1369.7357524304607,-201.6151259267901,-50.63666209051155
2025-02-19 16:15:08.978,750,-59,611,12,-21,0,-2,-5,6,819,83,s,5.515552333123477,50.70118431515507,1523.853301669768,-119.87645973135508,-19.43248976030418
2025-02-19 16:15:09.086,728,-108,678,-2,6,-29,-3,-4,5,802,90,s,9.050721677183725,46.678523370444424,1455.5156358261347,-215.92814377640462,0.4510974036822972
2025-02-19 16:15:09.190,819,45,617,11,-16,61,-3,-5,4,676,87,s,-4.17139871906697,52.93410511686149,1616.942844997005,88.8430134613739,15.863570985162255
2025-02-19 16:15:09.296,700,-78,612,7,13,8,-1,-3,6,641,94,s,7.263244740584562,48.60840377217424,1450.2080584834284,-161.59461223101061,-43.8961882740831
2025-02-19 16:15:09.408,690,-31,570,-44,72,25,-1,-2,3,639,44,s,3.1130194073451483,50.398781495237266,1460.4996865565108,-65.61665258442295,-66.49974106842194
2025-02-19 16:15:10.523,767,-29,660,3,-5,-1,-1,-2,4,793,68,t,2.5159235202154435,49.26083398236509,1524.6884003092243,-57.64793169356909,8.012589042910236
2025-02-19 16:15:10.613,738,-37,654,-1,-4,-3,-3,-4,4,810,71,t,3.2380525872620156,48.40787031463249,1485.8892822755886,-74.49580412492789,-8.763672910887522
2025-02-19 16:15:10.730,752,-24,655,-1,-3,-6,-3,-4,5,823,75,t,2.098448565857734,48.92475148097164,1505.8473046905942,-48.05895653267853,-1.6090220376850084
2025-02-19 16:15:10.833,758,-22,653,-3,0,-6,-3,-6,4,838,79,t,1.9296026899594663,49.2397678757067,1515.448399688109,-43.98399049226701,0.47519129771114876
2025-02-19 16:15:10.946,941,-106,718,10,-11,-23,-4,-6,5,845,86,t,8.398046368958509,52.357416461859536,1732.8359506870943,-195.1972484302147,113.81486440665901
2025-02-19 16:15:11.050,728,-210,767,43,5,34,-3,-6,5,788,86,t,15.311991080499203,42.47284607861475,1403.2407173508363,-404.7809761588951,55.5856727910832
2025-02-19 16:15:11.156,751,55,663,-12,-10,-1,-2,-4,4,860,87,t,-4.742185276982058,48.46369956737323,1499.5357595724795,109.81952966243193,2.175487887411464
2025-02-19 16:15:11.263,897,8,507,-6,6,-14,-3,-6,3,650,86,t,-0.9040003954248742,60.52105584816045,1767.536599807624,15.763983052910804,14.957574021777646
2025-02-19 16:15:11.374,647,118,689,26,-17,15,-2,-6,5,875,83,t,-9.71834585929877,42.78630714679719,1326.2659341554822,241.8846680530864,-34.36047702183498
2025-02-19 16:15:11.480,691,-12,561,-19,52,7,-3,-5,6,820,55,t,1.2253913023741119,50.9215862406981,1467.2839597087018,-25.48105284588194,-69.23922054498087
2025-02-19 16:15:11.583,731,40,665,2,-12,-3,-2,-4,3,823,49,t,-3.442215285897377,47.655305605809,1470.10587693962,80.44355003773569,-7.374019377355694
2025-02-19 16:15:12.303,750,-21,653,-5,2,2,-3,-5,5,794,67,u,1.8419553331751088,48.94033083434615,1504.0259358551166,-42.11272620394326,-3.505248151188198
2025-02-19 16:15:12.402,748,-19,647,-4,0,-2,-2,-4,4,785,69,u,1.6820819751850373,49.12885191736023,1504.18307522987,-38.207858862790815,-7.078141275034454
2025-02-19 16:15:12.504,742,-1,650,-3,3,-8,-2,-5,4,766,71,u,0.08814728355288569,48.78125707232792,1494.1993943249645,-2.01374581445413,-8.93477939518425
2025-02-19 16:15:12.613,769,-16,641,-8,-2,-11,-2,-5,4,713,86,u,1.4298629529717846,50.17832497067324,1537.0413147234444,-31.98005336225632,0.7991121746063072
2025-02-19 16:15:12.721,795,182,617,7,-14,30,-3,-5,5,781,87,u,-16.43477780297653,51.021566480998345,1572.3827864327377,359.9668768940355,13.672730529561022
2025-02-19 16:15:12.830,752,-106,663,-6,-5,-21,-1,-5,4,812,85,u,9.0835358443768,48.24005788341263,1497.941818266375,-211.14605417052624,5.341189480576304
2025-02-19 16:15:12.934,800,94,615,5,2,24,-4,-4,5,801,89,u,-8.690147831408522,52.12858450524103,1589.3904496581442,186.75337783483195,8.156091825301587
2025-02-19 16:15:13.045,636,-113,708,-25,29,3,-2,-5,3,819,48,u,9.068181810822864,41.57551411385177,1299.606573539967,-230.90494152518283,-30.731846016189706
2025-02-19 16:15:13.962,742,-25,660,2,1,-2,-4,-4,5,796,59,v,2.16925758972851,48.326896867802525,1488.9503850115373,-50.166791947828074,-4.403307422661101
2025-02-19 16:15:14.056,730,-22,663,5,-8,-3,-2,-4,4,800,64,v,1.9005200837979697,47.73797837873031,1470.0770372937463,-44.30369153488003,-9.15215852843005
2025-02-19 16:15:14.163,736,-14,665,0,0,3,-2,-5,4,810,69,v,1.2060487792199577,47.894843842691266,1477.915504991377,-28.11252319277075,-5.3448516566107855
2025-02-19 16:15:14.273,698,-16,659,17,-2,-26,-3,-4,3,790,77,v,1.3908230713935201,46.63779262404082,1425.0277197331416,-32.665391856347085,-27.40582708329555
2025-02-19 16:15:14.383,730,-107,657,-15,-19,42,-3,-5,4,764,86,v,9.250064178626856,47.639638249848524,1468.9216583805119,-215.307695132486,-8.029492542460616
2025-02-19 16:15:14.491,720,-56,569,18,-12,-47,-1,-2,6,830,85,v,5.620850430586289,51.5470538112077,1503.119129250629,-116.90926560838224,-49.881645199455306
2025-02-19 16:15:14.593,935,6,663,-13,26,21,-3,-6,5,852,79,v,-0.5184996872906731,54.65878606956385,1750.7217151296772,11.234577851099536,84.57914745350138
2025-02-19 16:15:14.704,676,-41,682,5,-10,-1,-2,-3,3,810,49,v,3.4403271195147394,44.69518162683143,1379.334924592128,-83.65788743827994,-27.57754226602242
2025-02-19 16:15:15.613,755,-5,658,4,1,0,-2,-5,4,774,75,w,0.4353698842664391,48.92627542448515,1508.8647805200692,-9.992481990199131,0.9893700897941926
2025-02-19 16:15:15.711,723,-9,667,8,3,-8,-2,-4,5,766,77,w,0.7730595560292991,47.3044722573546,1457.9675270817722,-18.14897336616314,-11.040581692312571
2025-02-19 16:15:15.813,750,9,676,-7,0,-13,-3,-5,3,648,84,w,-0.7627685672325123,47.96808353914937,1492.7719727811414,17.913263673373695,6.514861866598039
2025-02-19 16:15:15.932,719,224,630,-4,-14,28,-2,-6,4,439,84,w,-19.573125830410195,47.07856693861422,1451.2882051854745,452.13985808281825,-11.64335085792618
2025-02-19 16:15:16.039,683,-164,740,15,0,-20,-1,-4,5,793,81,w,12.496011044437504,42.02229026615181,1352.419667689343,-324.7391295769433,14.713683616231492
2025-02-19 16:15:16.145,760,285,560,20,-6,19,-1,-3,3,546,83,w,-26.972843433643742,50.41681792470522,1530.7003114703678,574.0126168013878,-7.884440030797236
2025-02-19 16:15:16.252,769,-3,627,16,10,-5,-2,-4,5,850,82,w,0.2741403937332208,50.807782741164345,1544.0303329125265,-6.023525355965644,-4.916799396819329
2025-02-19 16:15:16.358,561,-76,686,-16,25,16,0,-2,3,673,38,w,6.321857097091546,39.10460190195657,1191.7381361569146,-161.44759063801337,-85.2769365483839
2025-02-19 16:15:17.178,753,-21,655,0,-4,-3,-2,-5,5,747,66,x,1.8363348987263781,48.96692052134716,1507.330681524515,-42.03711064012592,-1.157498537260949
2025-02-19 16:15:17.263,765,7,629,2,-5,-5,-2,-4,5,714,74,x,-0.6376055649333563,50.57045733801043,1537.4061931258807,14.06776908742636,-6.089536570168548
2025-02-19 16:15:17.378,780,4,629,0,-1,-2,-3,-4,5,757,77,x,-0.36435616643114144,51.1163732654342,1558.4225681114533,7.9919106056997595,1.2720572537127737
2025-02-19 16:15:17.489,786,-27,642,17,-4,-7,-3,-4,5,815,83,x,2.4082164411282183,50.73345501831995,1560.2099090206634,-53.594996874755616,9.63007431136657
2025-02-19 16:15:17.596,644,-68,694,11,11,-22,-2,-4,7,802,83,x,5.5961325430212,42.72344179539032,1322.4602934943791,-139.6386645304624,-37.1357821197189
2025-02-19 16:15:17.702,759,212,529,-6,13,26,-2,-5,4,684,86,x,-21.838747884137547,53.09875481612456,1558.6716096306213,435.36018608918545,-28.34687943952406
2025-02-19 16:15:17.808,743,-42,645,19,3,-29,-2,-6,3,799,78,x,3.725628193348981,48.97866248819738,1497.4652050586017,-84.64810042054006,-9.952970744008212
2025-02-19 16:15:17.914,747,69,650,4,-3,16,-1,-2,5,839,85,x,-6.059474680399852,48.812899848237215,1499.5631903475046,138.51386898792214,-4.840794813758976
2025-02-19 16:15:18.026,673,-72,666,-25,38,-2,-3,-4,2,788,46,x,6.1701750950296095,45.13309367616111,1381.7474264548134,-147.8243903488062,-35.375610726457126
2025-02-19 16:15:18.743,735,-5,665,1,-3,-1,-2,-4,4,757,66,y,0.4307872170086284,47.86159952081477,1476.526344526244,-10.044396901539073,-5.9047879046966045
2025-02-19 16:15:18.837,744,10,665,1,-2,-2,-2,-5,4,756,67,y,-0.8615257345672586,48.20588905208181,1489.5445041842574,20.020759464842172,-1.380504412004484
2025-02-19 16:15:18.943,757,17,659,0,-2,-4,-2,-4,5,762,71,y,-1.477712103926392,48.949634429229164,1511.1325832722837,33.93560622936437,2.496205579346338
2025-02-19 16:15:19.053,793,40,673,-8,-2,-12,-3,-3,5,752,85,y,-3.4013940670439387,49.62968966753428,1554.8740496399355,78.42996467288451,26.415844378718134
2025-02-19 16:15:19.160,770,209,593,9,-13,36,-3,-4,3,769,83,y,-19.41476099677042,50.76623093249038,1544.5718478056451,419.2409301186752,-3.520916556815223
2025-02-19 16:15:19.267,472,-192,621,3,-1,-23,-2,-5,4,841,70,y,17.180497200240477,35.98526032328874,1059.5771084584412,-431.01441700004386,-152.0622549845168
2025-02-19 16:15:19.373,734,168,689,-7,-8,60,-3,-2,6,684,89,y,-13.703132224005111,45.98503482177793,1453.1583368494064,332.60299807997313,13.931751922014882
2025-02-19 16:15:19.484,1048,-181,557,6,28,-13,-2,-4,4,662,85,y,18.001835629398883,60.801535044474306,1920.9351474877255,-331.7645626863342,93.0449645508939
2025-02-19 16:15:19.589,531,-69,736,7,-18,-11,-2,-1,2,760,43,y,5.355825042855191,35.69035343728809,1114.4044772271056,-144.80962133459568,-72.63596090235353
2025-02-19 16:15:20.607,750,-29,661,2,-6,-5,-1,-4,5,819,72,z,2.512122161711479,48.58186956175059,1499.901769301911,-57.996201746340546,0.08657398858269971
2025-02-19 16:15:20.704,756,-18,648,-9,7,-12,-3,-3,5,800,80,z,1.5911402711945875,49.38778684692993,1515.1325712279233,-36.07458502923627,-2.6850610525056027
2025-02-19 16:15:20.810,774,-107,520,41,8,-17,-2,-6,4,663,84,z,11.627415996955724,55.55337467445611,1598.6534745028487,-221.00248290930858,-34.0307580639294
2025-02-19 16:15:20.917,686,3,683,24,-8,38,-2,-3,6,848,86,z,-0.2516635917147345,45.12528030956815,1394.6512166930827,6.099057798949341,-22.5521588941333
2025-02-19 16:15:21.024,767,-20,649,6,9,-5,-3,-4,4,540,86,z,1.765104855725414,49.75023220319508,1530.2350883295605,-39.90182759659871,3.185694490371816
2025-02-19 16:15:21.127,759,3,641,-2,-3,-4,-2,-3,5,635,85,z,-0.2681530164434638,49.817519161444956,1522.9933526192794,6.019736571617703,-4.217047468982628
2025-02-19 16:15:21.237,568,-135,605,-16,32,-13,-1,-4,2,704,48,z,12.578935237493056,42.499272943913255,1243.5808518638687,-295.5693926084899,-114.58875946767682
2025-02-19 16:15:21.343,726,-51,670,4,-26,6,-2,-3,2,728,65,z,4.352926291961103,47.21466709455784,1459.9037700225313,-102.55522351397946,-7.29411283071056
2025-02-19 16:15:21.454,880,100,581,16,-54,9,-2,-4,5,720,85,z,-9.765894328502556,56.18047430376016,1710.7948423275657,194.4085048099507,32.48658705418654
2025-02-19 16:15:21.556,792,55,575,2,1,7,-1,-3,6,768,91,z,-5.46384281323664,53.89583877348822,1599.9470901422596,111.10743681543471,-11.577748524999265
2025-02-19 16:15:21.666,663,-53,649,-9,9,-3,0,-3,5,783,65,z,4.668648137455753,45.51617354633279,1376.4482745478895,-110.03281832735769,-49.38300178217253
2025-02-19 16:15:21.773,804,15,615,-6,4,1,-2,-4,6,784,72,z,-1.3971810272963767,52.5784868656552,1598.186510082235,29.816912501534233,7.5065874370965275
2025-02-19 16:15:21.880,765,-13,642,-6,2,1,-3,-4,5,735,63,z,1.1600363793149049,49.99031506646046,1530.9357792288588,-26.015902130686488,-0.78532060774819
2025-02-19 16:15:21.991,729,-27,648,-8,3,-2,-1,-5,4,676,54,z,2.3859440303888126,48.34178436834231,1476.1231194318552,-54.67122664562427,-16.109439494982553
2025-02-19 16:15:24.810,694,-64,654,-24,21,-16,-2,-2,3,712,51,0,5.589130431328421,46.56337435099035,1420.1353099922303,-130.96348680043624,-30.283130741957734
2025-02-19 16:15:24.902,762,-53,682,-10,-10,-5,0,-3,4,739,49,0,4.443673442700621,48.085307703908924,1506.1402701663528,-104.75778781996942,15.984692580770798
2025-02-19 16:15:25.013,693,-33,626,-32,26,-27,-3,-3,4,771,45,0,3.0175913760185735,47.868352062779906,1434.6054104846248,-68.31454335641071,-43.90618609433625
2025-02-19 16:15:25.119,677,-15,594,5,-14,-3,-1,-3,3,828,50,0,1.4465556865739135,48.727222179051324,1428.5776264822216,-31.65238463402263,-65.43443150729604
2025-02-19 16:15:25.225,722,-27,676,7,0,-28,-1,-4,5,829,84,0,2.2872251676195403,46.86180535580899,1451.706628884796,-54.28819803308794,-7.21562482842387
2025-02-19 16:15:25.332,1011,82,549,0,-7,101,-3,-4,4,744,82,0,-8.495038689886623,61.23098944829334,1887.5671169555858,153.0964427204332,73.0006456888068
2025-02-19 16:15:25.439,532,-368,815,8,-7,-77,-2,-5,4,845,88,0,24.300781913506796,30.74945521776749,1043.2849146083736,-721.6707679997771,31.73457630484154
2025-02-19 16:15:25.549,1083,83,714,-15,63,40,-1,-4,5,815,67,0,-6.630673313615393,56.427001280367115,1916.1819402001722,146.85420224987467,164.6999951034876
2025-02-19 16:15:26.365,743,-22,681,-8,3,-2,-3,-4,3,804,57,1,1.8503214655152658,47.4781600190953,1480.019762065492,-43.82292700597688,5.481214042261172
2025-02-19 16:15:26.459,746,-54,666,1,-4,-4,-3,-2,5,826,62,1,4.635463426902642,48.14947708390909,1490.887967445356,-107.9195043459105,0.992779733770476
2025-02-19 16:15:26.570,628,-84,635,13,-38,-13,-3,-4,5,814,86,1,7.535532918590878,44.43399410493806,1328.0871204543982,-177.64222630281762,-72.89063931296664
2025-02-19 16:15:26.674,669,-111,698,-7,-10,-11,-1,-5,5,855,86,1,9.035843705293193,43.42737948781772,1356.434634920155,-225.05866139930828,-19.233744655109717
2025-02-19 16:15:26.779,849,228,541,20,-13,48,-1,-4,5,795,88,1,-22.852590235895562,55.3362209558501,1671.5037609711496,448.8844022396021,16.88394029989172
2025-02-19 16:15:26.893,646,-88,740,24,37,-14,-2,-3,4,805,82,1,6.781703536468549,40.920872471702594,1301.016122661635,-177.22820246783886,-10.32806620682652
2025-02-19 16:15:26.999,809,20,565,-10,-40,13,-1,-4,6,673,86,1,-2.0273227005001964,55.052976076882516,1628.682026836521,40.26407977346159,-7.460253600289661
2025-02-19 16:15:27.102,975,28,618,5,56,3,0,-3,7,793,76,1,-2.5941511955853165,57.60502055907044,1819.3748742366936,52.248714337053755,82.79623356074205
2025-02-19 16:15:27.212,652,-85,694,1,-15,-11,-2,-3,3,676,45,1,6.982717384217008,42.99993638864951,1333.9975480930807,-173.9107232943433,-31.92990548557964
2025-02-19 16:15:28.029,747,-12,659,-6,-5,-6,-4,-4,2,730,61,2,1.0432069440823064,48.57669661895063,1496.8420383534517,-24.045655234593596,-2.507233299765062
2025-02-19 16:15:28.125,736,-11,666,-3,-1,-5,-2,-4,4,742,66,2,0.9462406515731109,47.854441117537014,1477.4425150643856,-22.081341937103595,-4.924884555544736
2025-02-19 16:15:28.232,821,15,613,8,7,-19,-3,-6,2,717,85,2,-1.4017377140621061,53.244905274470796,1622.2006066585775,29.638257125308964,14.783225479040311
2025-02-19 16:15:28.338,636,26,733,20,-13,5,-2,-6,4,829,80,2,-2.031467910205364,40.92927168875339,1291.1268842280465,52.78191665083209,-22.044034809996788
2025-02-19 16:15:28.449,779,145,570,-35,17,17,-3,-5,4,635,84,2,-14.272513384400337,52.946778927770225,1577.0761498777997,293.550759604982,-13.95815844717049
2025-02-19 16:15:28.556,735,33,677,40,-36,7,-3,-3,4,782,81,2,-2.790643070184821,47.31830625408278,1470.1312326385846,66.00589207765074,-0.1208768657438668
2025-02-19 16:15:28.663,761,85,659,-28,13,-5,-1,-3,5,750,83,2,-7.3496206435618285,48.87450425484818,1514.2707957789087,169.13668546807787,6.693226782784677
2025-02-19 16:15:28.763,674,-36,665,3,-7,-6,-3,-2,3,706,53,2,3.0987017173348796,45.3431905251849,1385.3295026638311,-73.99386067640641,-36.83103749472957
2025-02-19 16:15:28.875,760,0,634,-9,2,-5,-3,-3,3,726,62,2,0.0,50.16478038281938,1527.88990413683,0.0,-6.581841082566143
2025-02-19 16:15:28.982,757,1,673,-7,-1,-8,-3,-5,4,735,61,2,-0.08513482518020717,48.361731725325406,1504.3544825097788,1.9872582331701172,8.575209076511214
2025-02-19 16:15:29.093,733,-66,661,-3,-1,-6,-1,-5,5,740,63,2,5.702010785929156,47.815316960604264,1473.984141814897,-132.71889953585696,-7.199887775779985
2025-02-19 16:15:29.196,745,-6,660,-8,-3,-5,-2,-5,4,759,66,2,0.5208563745019587,48.460897938545585,1493.5033349201917,-12.028214777880741,-3.103625566881419
2025-02-19 16:15:29.301,762,4,645,-1,-4,-3,-3,-6,6,771,71,2,-0.35531810860711366,49.75298795368931,1525.2661638710038,8.006646529506579,-1.071752882936039
2025-02-19 16:15:29.412,751,0,661,-4,-2,-2,-1,-7,5,783,73,2,0.0,48.64706363218152,1501.6540282211122,0.0,0.3045104471971172
2025-02-19 16:15:30.423,745,-19,654,-3,-4,-11,-2,-5,4,800,70,3,1.6640882174082425,48.70966176254989,1496.375418617711,-38.16259456877383,-5.596676209372845
2025-02-19 16:15:30.526,791,30,640,-3,-3,-6,-3,-5,5,808,80,3,-2.683775159468985,50.99284502329364,1568.0673671878167,59.47158156211694,11.2729266748388
2025-02-19 16:15:30.633,753,-3,642,-5,1,-3,-3,-5,3,806,77,3,0.2677353387022093,49.54912495418248,1513.962517724425,-6.031723178184961,-6.7887601315816255
2025-02-19 16:15:30.739,754,6,643,-4,2,-2,-2,-6,5,789,74,3,-0.5346262827943352,49.541716406007545,1514.87861975196,12.054737027203924,-5.8659847486873105
2025-02-19 16:15:30.845,764,10,646,0,-2,-2,-3,-6,4,790,75,3,-0.8868607374716475,49.78043434677059,1527.575569941885,19.994444632747186,0.35887672453179675
2025-02-19 16:15:30.951,753,17,641,0,-3,-3,-2,-6,4,801,78,3,-1.5191887390230623,49.58358155040108,1514.3525536239845,34.18857026773935,-7.110208330642536
2025-02-19 16:15:32.971,752,11,636,-2,-1,0,-2,-6,5,841,78,4,-0.9908659461021517,49.773081504628074,1515.4926977600671,22.168111270426508,-9.719887999205412
2025-02-19 16:15:33.070,761,15,638,-1,-1,-2,-4,-6,5,843,79,4,-1.3468313314424873,50.01672750764438,1527.2320723661426,30.103128890265623,-4.386415465964319
2025-02-19 16:15:33.175,750,18,635,-2,-1,-3,-2,-5,5,845,82,4,-1.6236975337832378,49.73517534381427,1513.0652667250224,36.313566401400536,-11.061925827185632
2025-02-19 16:15:33.283,706,-44,665,7,1,-11,-3,-5,7,823,83,4,3.785481274675359,46.65046641363269,1433.179579217658,-89.31997377560475,-19.949603654026532
2025-02-19 16:15:33.389,827,116,556,3,5,7,-4,-7,4,422,84,4,-11.784748506262801,55.519274480346766,1651.3166828251385,231.62362177474733,1.80401976931455
2025-02-19 16:15:33.495,698,27,658,9,-16,7,-3,-5,5,825,83,4,-2.349724438833723,46.66559476213766,1425.360803056512,55.13573306952124,-27.67823554610993
2025-02-19 16:15:33.606,543,-148,583,-18,12,-39,-2,-6,5,839,66,4,14.244170787241337,42.074292970440034,1213.0936474771302,-330.640625831704,-136.4559787829961
2025-02-19 16:15:33.712,715,-30,719,-4,-8,80,-2,-8,5,734,83,4,2.3892586074713744,44.81526450270537,1419.8232258321566,-59.57300248246811,10.233707170180992
2025-02-19 16:15:33.819,842,12,625,17,15,-28,-1,-3,6,771,82,4,-1.099943818839033,53.40917593685895,1644.9129504939674,23.442939912028038,29.01354624853957
2025-02-19 16:15:33.929,644,-72,702,-4,-7,-15,-1,-3,4,731,47,4,5.856013585428958,42.383312310671485,1318.087280085072,-147.36379528901426,-32.79700406788902
2025-02-19 16:15:34.844,758,-6,639,-3,-2,-4,-4,-5,4,754,79,5,0.5379727301122598,49.867601528192786,1522.557052496617,-12.051902790210686,-5.527647157438196
2025-02-19 16:15:34.937,770,4,632,-1,0,-8,-2,-4,5,778,83,5,-0.36262667396251363,50.62099900541727,1542.9661514595414,8.015408579010604,-2.4345554836753536
2025-02-19 16:15:35.048,769,-1,635,11,-4,0,-3,-4,6,818,81,5,0.09022949944653072,50.45185182331053,1540.089786347513,-2.0027175375130204,-1.7256363207679897
2025-02-19 16:15:35.150,758,7,638,1,-1,-1,-3,-5,5,833,80,5,-0.6286118559861316,49.91136242640159,1523.0491231616961,14.065097443445744,-5.933166988340645
2025-02-19 16:15:35.261,764,7,634,-1,-1,0,-3,-5,5,832,82,5,-0.6325775401165522,50.310939670230326,1533.5215030464476,14.05058968759834,-4.581980276763829
2025-02-19 16:15:35.363,761,4,635,0,-1,0,-3,-5,5,826,82,5,-0.3609135225035065,50.1568617373343,1528.8013642701417,8.035749615086157,-5.6752513949276135
2025-02-19 16:15:35.473,760,14,637,-4,0,-1,-2,-5,5,812,82,5,-1.2590452071752678,50.024867264685554,1526.3233508393268,28.11648277861918,-5.299966427172535
2025-02-19 16:15:35.580,757,10,635,-4,2,-7,-2,-5,5,794,83,5,-0.9022211615301559,50.005316307901744,1523.104082204678,20.12026528671965,-7.6368457066979545
2025-02-19 16:15:35.687,743,4,644,3,8,-12,-2,-5,5,739,83,5,-0.3558698306218785,49.08213410608771,1498.6492720133792,8.068098368847265,-10.963837384409544
2025-02-19 16:15:35.798,818,182,619,-2,-49,17,-2,-5,5,786,83,5,-16.38452889527269,51.73521581640584,1603.157158267485,356.69266846538176,24.852957252355395
2025-02-19 16:15:35.904,674,103,584,-7,11,13,-1,-5,6,852,84,5,-10.002382870765278,48.65732587112364,1424.7723532552857,217.73227356868608,-66.52085207876371
2025-02-19 16:15:36.010,799,-76,693,5,4,10,-2,-7,3,775,81,5,6.258509238976452,48.89418528806433,1552.4966741234944,-147.67177375893064,39.4665892771194
2025-02-19 16:15:36.121,945,25,557,13,-11,20,-3,-3,5,747,82,5,-2.569899085540476,59.458911268500444,1806.264966074307,47.78478746228325,49.35493534032912
2025-02-19 16:15:36.227,697,21,662,-18,-1,40,-3,-4,5,629,87,5,-1.816930544707124,46.460894762507905,1421.9043896735093,42.8407348395175,-26.503164940980128
2025-02-19 16:15:36.337,1005,-10,667,-16,52,12,-1,-4,5,595,67,5,0.8589428366184348,56.42553597335691,1838.167797293359,-18.29022683873989,114.04186985604929
2025-02-19 16:15:36.443,616,-122,709,7,-20,-15,-1,-3,3,727,45,5,9.763462700317225,40.571639799620804,1266.3983143039143,-250.81265315759342,-39.59156630109601
2025-02-19 16:15:40.736,761,-20,644,-1,0,-4,-2,-5,5,803,69,7,1.778800315673848,49.74664809062605,1524.1946690252391,-40.05767855519683,-1.8572494773377457
2025-02-19 16:15:40.831,753,-22,646,0,0,-3,-2,-3,4,793,70,7,1.9504956333863428,49.35723902224273,1511.7854102071337,-44.1690292490796,-4.963313404791961
2025-02-19 16:15:40.938,680,-42,636,16,-22,-16,-2,-5,5,774,86,7,3.778197707161587,46.8527550830038,1409.598615006031,-87.06344386801953,-46.38929285858171
2025-02-19 16:15:41.048,839,136,626,20,-29,23,-1,-7,5,832,82,7,-12.257173810240586,52.63712969303975,1633.808054742195,264.83658575082063,32.97277441166375
2025-02-19 16:15:41.151,734,26,632,27,3,49,0,-5,5,761,87,7,-2.3557764514927038,49.24642877912574,1491.5242966826802,52.833285713555426,-20.255252729501194
2025-02-19 16:15:41.265,794,51,672,-13,33,-43,-2,-2,6,719,80,7,-4.34002072596443,49.676019871034526,1556.3975605526755,99.97012038814415,26.74664900327707
2025-02-19 16:15:41.371,1078,79,547,13,-51,-10,-1,-5,4,748,84,7,-8.21806919319527,62.856429127684855,1967.8661257586532,144.2128236873225,95.46310687385579
2025-02-19 16:15:41.474,777,34,628,8,-3,9,-2,-4,8,813,87,7,-3.0989753074042734,51.012582865265976,1554.284149294344,68.01243381725573,-0.22965991872331415
2025-02-19 16:15:41.584,573,-103,683,-4,0,-4,-2,-4,5,682,45,7,8.575883617276691,39.677938813832085,1211.47152030949,-217.76887712369543,-78.0402240338251
2025-02-19 16:15:42.403,759,-32,638,-1,-2,2,-2,-4,4,693,69,8,2.871363290377887,49.91481490347522,1524.0879256484227,-64.25667143708765,-5.11738677693495
2025-02-19 16:15:42.498,761,-36,629,1,-3,5,-3,-4,6,668,70,8,3.2756761134635024,50.378755992012664,1531.2768470983603,-72.43885216234031,-7.6677225031126
2025-02-19 16:15:42.604,717,-4,626,6,-16,-10,-1,-3,6,730,83,8,0.36610223483133486,48.87578566223183,1470.2855051398874,-8.202429596317362,-31.680231823667327
2025-02-19 16:15:42.715,730,-141,636,7,13,-19,-2,-5,6,607,88,8,12.500188441045632,48.25470380636444,1476.112039373624,-285.1120514406588,-14.03733841318433
2025-02-19 16:15:42.821,758,103,667,7,-16,17,-1,-2,5,700,91,8,-8.778434298971776,48.31885998762671,1504.8571149629402,204.48586126805122,9.805150817571075
2025-02-19 16:15:42.928,803,-93,602,-3,-3,-35,-1,-5,6,868,84,8,8.781918485767283,52.81670725386708,1599.7061831973722,-185.27107725698085,4.718403132231515
2025-02-19 16:15:43.035,776,93,600,-3,6,44,-1,-4,6,730,88,8,-8.81073298598491,51.95935143406146,1563.5737734908057,187.38706306010943,-8.948793936189759
2025-02-19 16:15:43.141,748,75,590,-27,47,15,-2,-4,4,778,55,8,-7.244506852441184,51.511177772475904,1530.7295876748099,153.4822447534903,-27.393658727457023
2025-02-19 16:15:44.063,748,-12,645,0,-2,-2,-3,-4,5,750,65,9,1.0658450275615834,49.223916113493495,1505.2677372084768,-24.148680276071815,-7.991564838860086
2025-02-19 16:15:44.153,770,-7,638,0,-2,-1,-2,-4,6,763,68,9,0.6286118559861316,50.35413086354231,1540.002695014149,-14.000024500128625,-0.002233011723319578
2025-02-19 16:15:44.257,762,1,634,0,-6,-4,-3,-5,6,772,73,9,-0.09037181703314583,50.23879771656364,1530.7167963565641,2.008814693381318,-5.588515603755354
2025-02-19 16:15:44.370,747,-18,642,-5,5,-31,-1,-5,6,750,87,9,1.606002989282249,49.3118644662569,1505.2693525674117,-36.27155066427498,-9.685307025807674
2025-02-19 16:15:44.477,805,303,488,8,-15,66,-2,-6,5,563,86,9,-31.836213654975555,54.48988559390805,1619.0129943601187,609.392468684616,-5.463777947500375
2025-02-19 16:15:44.587,823,-209,598,13,-2,-25,-2,-4,5,853,85,9,19.264435353198817,52.41419341398998,1615.4407653058452,-410.239513911205,22.20464440717444
2025-02-19 16:15:44.694,803,112,510,-19,-3,41,-1,-2,5,397,93,9,-12.385985122926536,56.965939458700305,1641.346648974803,228.93004319449307,-22.449303832066562
2025-02-19 16:15:44.800,428,-88,647,-25,55,22,-1,-2,1,686,34,9,7.745406128357215,33.244019416329394,976.2059342514068,-200.71523881804632,-181.71317630995406
2025-02-19 16:15:44.906,780,-53,702,27,-21,-6,-1,-2,3,655,38,9,4.317558755621128,47.93181017054403,1522.3479422410824,-103.44159094715047,33.88685198302596
