Timestamp,Acc_X,Acc_Y,Acc_Z,Gyro_X,Gyro_Y,Gyro_Z,Mag_X,Mag_Y,Mag_Z,Force,IR_A,Letter,Roll,Pitch,Lin_Acc_X,Lin_Acc_Y,Lin_Acc_Z
2025-02-19 16:04:08.568,473,-153,881,-40,17,15,-7,1,6,0,10,noise,9.852083403343675,27.877598325703833,940.5842411889545,-304.24817949663856,10.087280153342704
2025-02-19 16:04:08.659,304,-325,893,-40,30,15,-7,2,6,0,10,noise,19.99855984693561,17.739385057187814,608.6878475206465,-650.7353633033226,-2.020552091898935
2025-02-19 16:04:08.768,322,-284,935,40,-15,38,-4,5,5,0,9,noise,16.89580808574303,18.23806435932818,634.9659619504464,-560.0320906643688,26.232377566250648
2025-02-19 16:04:08.872,310,-251,916,9,-18,31,-3,4,2,0,8,noise,15.32390111841086,18.076470662832605,620.2860604678656,-502.2316167014009,-0.8452625437578263
2025-02-19 16:04:08.979,386,-223,909,13,-18,2,-4,3,6,0,7,noise,13.783840785637329,22.411907279649178,767.2625084181061,-443.2630553814447,11.15642447653272
2025-02-19 16:04:09.084,377,-220,877,1,3,2,-2,4,3,0,7,noise,14.082350576680742,22.63396716229448,761.842569951293,-444.5765660193222,-18.24385635884323
2025-02-19 16:04:09.194,354,-206,895,-1,-6,1,-4,4,3,0,8,noise,12.961884366146569,21.079276877182632,713.659347672423,-415.29329271333086,-14.308237759374492
2025-02-19 16:04:09.301,391,-221,895,1,7,-3,-4,4,5,0,7,noise,13.870431361855617,22.983377984858855,781.4640654068317,-441.69708044733966,1.226755654438989
2025-02-19 16:04:09.406,351,-216,901,-1,3,-3,-4,4,5,0,8,noise,13.48130170068547,20.74834286060138,705.2639913652708,-434.0086100709359,-8.378507749598157
2025-02-19 16:04:09.518,385,-184,930,-2,-3,-16,-3,4,4,0,7,noise,11.191405999502106,22.10238558760692,761.2628400913289,-363.82431838131043,21.10534731185487
2025-02-19 16:04:09.621,320,-238,908,-16,-34,7,-5,3,6,0,8,noise,14.687640284483857,18.82458203000222,642.671813457585,-477.98716125907885,-7.581270685897266
2025-02-19 16:04:09.730,407,-245,866,-30,-1,-14,-5,3,7,0,8,noise,15.7967350239415,24.333792221709015,819.0518194668421,-493.04102154637917,-10.74908024148715
2025-02-19 16:04:09.834,388,-275,853,0,-11,-5,-6,3,6,0,9,noise,17.86888332229069,23.40889745496785,785.2904038551878,-556.5846934540634,-20.42452187751337
2025-02-19 16:04:09.945,446,-223,861,11,-16,-3,-7,4,8,0,10,noise,14.52059766880296,26.631753554485208,894.2545629722739,-447.127281486137,-4.352418652753158
2025-02-19 16:04:10.049,480,-229,857,1,0,-3,-7,0,7,0,10,noise,14.960541455390347,28.418189629018254,955.9034461762953,-456.0456024466076,7.314055472739369
2025-02-19 16:04:10.156,447,-229,865,-2,1,-3,-7,2,8,0,9,noise,14.828300560088875,26.544572169279217,893.8938753054263,-457.9456318678806,0.20536434184850805
2025-02-19 16:04:10.259,443,-230,860,2,3,-1,-7,1,7,0,9,noise,14.97287576678692,26.456185798908177,888.5133245579275,-461.3048863393303,-4.879140225321976
2025-02-19 16:04:10.374,440,-230,863,0,2,-2,-6,1,7,0,10,noise,14.923152370475716,26.227310634099407,881.9334902297486,-461.0106880746413,-3.7922774278930547
2025-02-19 16:04:10.481,434,-224,871,-1,1,-2,-7,2,7,0,9,noise,14.422536020329513,25.760783170041577,868.6147627582443,-448.3172969074809,-1.2337750286421851
2025-02-19 16:04:10.582,436,-226,868,-3,-1,-3,-8,1,7,0,10,noise,14.593999797585052,25.924274727904667,873.182868330168,-452.61313817114205,-2.354884657306684
2025-02-19 16:04:10.693,441,-220,868,0,2,-2,-8,2,7,0,9,noise,14.22246961446552,26.21987125606555,882.8170123439172,-440.40757985410835,-1.6080877880275466
2025-02-19 16:04:10.800,435,-224,861,1,1,-3,-7,1,7,0,10,noise,14.582942329484078,26.056330057046683,874.2545796273264,-450.19086399200256,-8.421133469259644
2025-02-19 16:04:10.907,436,-216,870,0,-1,0,-7,1,8,0,10,noise,13.943230920553667,25.937502144952266,873.3904876247805,-432.6888654287903,-2.7745968659608025
2025-02-19 16:04:11.017,430,-220,872,-1,-1,-1,-8,1,8,0,10,noise,14.159858765905556,25.554180016598426,861.3644066066759,-440.69806849643874,-2.7668896767937667
2025-02-19 16:04:15.039,691,-65,673,42,11,-16,-12,-4,16,0,42,A,5.516656728952406,45.62310053836069,1405.7547121376347,-132.2345242965937,-23.13592079396244
2025-02-19 16:04:15.133,646,-114,678,-14,0,15,-13,-6,13,111,37,A,9.544525565558134,43.21674874043918,1330.7601692727349,-234.84002987165906,-40.680177657761874
2025-02-19 16:04:15.244,652,-63,728,-36,-12,1,-13,-4,16,700,45,A,4.945966547104157,41.74156189107323,1317.7717848337752,-127.3307092707482,-15.377084906423534
2025-02-19 16:04:15.350,729,-104,647,-13,-3,11,-13,-5,18,819,49,A,9.131718017456782,48.04731541240947,1472.6971465841461,-210.0967122698919,-13.043969602116022
2025-02-19 16:04:15.455,731,-161,695,-6,1,-1,-13,-5,20,850,48,A,13.0427746116439,45.69793277196006,1446.66753445933,-318.62308214494135,14.577378318420983
2025-02-19 16:04:15.559,707,-158,630,-13,-2,-20,-14,-7,18,862,51,A,14.079033437202702,47.42676389914559,1443.413187858297,-322.57324424556003,-26.209771358878584
2025-02-19 16:04:15.670,670,-162,681,-18,-8,5,-15,-6,20,867,53,A,13.381122772857646,43.745402355483904,1361.4550881571731,-329.1876481812867,-21.807335873186503
2025-02-19 16:04:15.780,734,-189,627,-8,-14,-13,-14,-5,20,864,62,A,16.774666453939204,48.26102245312338,1480.1854623041975,-381.13767353609444,-10.409107445138602
2025-02-19 16:04:15.886,783,-141,612,-11,1,-2,-15,-5,22,864,71,A,12.974102729236659,51.2674194011531,1563.0747439962765,-281.4732297617817,2.2864069914159018
2025-02-19 16:04:15.993,696,-174,625,0,-12,-5,-14,-7,20,859,76,A,15.557202614905757,47.01152383252813,1427.4908563510376,-356.8727140877594,-31.87038106235434
2025-02-19 16:04:16.104,840,-118,579,-2,-4,-1,-13,-7,23,859,107,A,11.519109631178233,54.87535417302525,1657.9023027566068,-232.89579967295188,15.231627028481853
2025-02-19 16:04:16.210,1091,-321,647,9,-15,-26,-14,-8,24,861,113,A,26.38766542954572,56.49502389990164,1924.8378835645872,-566.3363525428344,152.50585640120272
2025-02-19 16:04:16.309,906,60,617,-10,-9,55,-15,-6,23,139,114,A,-5.5542487018331546,55.61897725602569,1731.300578901224,114.65566747690224,54.95755277918852
2025-02-19 16:04:16.421,954,-173,657,-11,55,-38,-16,-6,22,768,96,A,14.752147759917593,54.54326301973107,1768.5537646608007,-320.7125799646945,96.03372811095801
2025-02-19 16:04:16.534,924,-186,551,48,-20,-4,-14,-9,22,804,111,A,18.65303937191474,57.81451155775447,1770.3281029376935,-356.3647479939512,46.317332555553094
2025-02-19 16:04:16.639,842,-75,605,31,-10,29,-14,-6,23,728,115,A,7.066729716401078,54.09443315701862,1651.9846648373655,-147.14827774679623,23.00389284251048
2025-02-19 16:04:16.740,803,-240,434,16,-2,-24,-14,-6,23,452,111,A,28.942391591717506,58.300175384908265,1653.8127179119665,-494.29022702225654,-25.841493865247116
2025-02-19 16:04:16.853,735,-118,663,13,-5,14,-14,-6,23,837,107,A,10.091767118206864,47.50358180317559,1472.3195693903724,-236.37239345314828,-2.0923462664178487
2025-02-19 16:04:16.960,651,-197,646,-14,48,6,-12,-5,20,725,51,A,16.95927151477263,43.94738559385287,1344.997511791806,-407.01153582639904,-42.66726976575512
2025-02-19 16:04:17.779,775,-90,631,-1,-2,-6,-14,-6,20,770,77,B,8.11738973410431,50.564971354068874,1547.3453769605173,-179.6917211954149,2.1613769521464974
2025-02-19 16:04:17.873,743,-84,633,-2,-5,-6,-13,-7,20,765,84,B,7.559066981041208,49.32357402083991,1501.402574178458,-169.74134082232905,-13.122246911122488
2025-02-19 16:04:17.984,716,-48,617,0,-11,-21,-13,-8,20,751,101,B,4.448410443107835,49.16197689656292,1472.5612605571089,-98.71919065187325,-34.952929837620445
2025-02-19 16:04:18.090,730,-381,742,37,-3,3,-14,-7,22,650,103,B,27.179459577118262,41.192201935695145,1388.5870489215708,-724.7283090946828,72.58686260300601
2025-02-19 16:04:18.189,870,-79,631,-6,-4,31,-14,-7,22,559,107,B,7.136191651961388,53.83508073812189,1677.3217735860844,-152.30852886586283,45.45972513469064
2025-02-19 16:04:18.303,801,-177,646,-10,-3,-31,-14,-9,22,642,104,B,15.322640213716536,50.09706506744125,1568.1322930412093,-346.51612467951816,27.31403083068517
2025-02-19 16:04:18.409,634,-98,760,2,-16,38,-14,-7,23,729,107,B,7.347595143177269,39.60301032790319,1271.4644717374977,-196.5355177133671,-4.152994511826705
2025-02-19 16:04:18.519,1010,-49,594,-11,-17,24,-14,-8,22,634,106,B,4.715742206681284,59.45444603227998,1871.2253612891864,-90.78222049818825,87.49716375665662
2025-02-19 16:04:18.623,870,57,445,-1,1,23,-14,-7,22,477,111,B,-7.299263413212461,62.72105369496765,1758.7857063256363,115.23078765581755,-9.608780821733546
2025-02-19 16:04:18.733,547,-109,583,-53,44,6,-14,-5,20,526,56,B,10.589983720281952,42.68440670398123,1224.959634546656,-244.09616118022942,-139.57855016581414
2025-02-19 16:04:18.844,806,-142,643,23,-32,-24,-13,-6,21,652,69,B,12.453306808015517,50.751562196489054,1580.4098948039475,-278.43449759573264,25.201535534816117
2025-02-19 16:04:19.553,766,-84,604,2,-5,0,-14,-9,22,693,96,C,7.917503034828343,51.47668109592712,1548.354733781316,-169.7934695008232,-12.8958997440144
2025-02-19 16:04:19.655,795,-61,597,-3,-2,0,-14,-8,22,703,103,C,5.8340957042514,52.952551732956785,1593.1368560905062,-122.24068958681872,-2.3556013660783037
2025-02-19 16:04:19.759,746,-85,628,-8,0,-17,-14,-8,22,666,106,C,7.7081593629996705,49.65213115508378,1508.127690804285,-171.83760552059547,-13.576661963928814
2025-02-19 16:04:19.867,833,-137,622,36,22,20,-15,-9,22,0,103,C,12.421475822671932,52.59859569229361,1627.3997336405864,-267.6515768412489,28.82276791783329
2025-02-19 16:04:19.979,706,-165,641,35,-20,-3,-13,-7,22,677,103,C,14.435144978257997,46.84671349918022,1435.5264993232145,-335.4984028163319,-21.36046185011378
2025-02-19 16:04:20.085,700,-95,571,-44,57,16,-12,-6,20,730,53,C,9.446049621268289,50.41173771835159,1470.6438104525246,-199.58737427569977,-57.625165383416515
2025-02-19 16:04:20.189,740,-136,624,-6,-12,-14,-13,-6,20,591,49,C,12.295266422998148,49.20453889012212,1497.0468163268515,-275.132928406016,-14.374612686426417
2025-02-19 16:04:21.009,767,-104,618,-5,-3,-2,-15,-7,23,689,79,D,9.552504367833961,50.748905584731254,1541.3805585416412,-209.00075370056152,-5.946786412951951
2025-02-19 16:04:21.105,760,-99,614,2,-2,-4,-15,-7,21,707,84,D,9.15941316383001,50.705541193012955,1533.9014616780414,-199.81084829753433,-11.2309177241018
2025-02-19 16:04:21.215,770,-87,612,-2,-1,-13,-13,-8,22,721,94,D,8.090777871989607,51.24264376072598,1549.8041139776592,-175.1077375533199,-7.79236071990556
2025-02-19 16:04:21.322,750,-233,538,19,12,-22,-14,-9,22,570,104,D,23.416736884350502,51.984668790135565,1537.8459866450023,-477.757486517714,-27.14818775334834
2025-02-19 16:04:21.429,829,-11,571,19,-4,37,-13,-7,21,363,106,D,1.1036350711869638,55.436675940465136,1652.499685690019,-21.927016336055743,3.7885156465612226
2025-02-19 16:04:21.539,1315,-325,597,25,19,-44,-14,-7,20,647,102,D,28.563369098126255,62.66530552852439,2203.339342426955,-544.551548508563,193.70069397042437
2025-02-19 16:04:21.645,689,-81,713,6,-24,32,-12,-9,21,760,100,D,6.4812706347264175,43.835730825322095,1381.5931437608645,-162.42241602994199,-3.718304066032374
2025-02-19 16:04:21.752,994,-187,351,2,42,-2,-14,-6,22,310,106,D,28.047063577287897,68.19332735523541,1922.4425712271932,-361.666761387812,23.14955482822444
2025-02-19 16:04:21.858,617,-135,724,-21,16,5,-12,-5,19,576,49,D,10.562306946473488,39.95527285091863,1259.1894120097438,-275.5114596779829,-29.55775412488606
2025-02-19 16:04:22.670,750,-125,622,-5,-2,-3,-16,-7,21,605,74,E,11.363066102850327,49.77163007927894,1513.476337594881,-252.2460562658135,-11.176375978687929
2025-02-19 16:04:22.772,764,-110,619,1,-6,-5,-15,-8,21,628,82,E,10.076610113561424,50.548934575174336,1536.1675568756837,-221.17595714178688,-6.617431552418907
2025-02-19 16:04:22.877,775,-98,626,10,-4,-2,-14,-7,23,699,93,E,8.897410669245675,50.73125432020278,1549.1855980118362,-195.89701755504512,0.6578266381815183
2025-02-19 16:04:22.989,636,-190,633,5,-7,-26,-15,-8,22,732,104,E,16.7075479700968,43.90007115305944,1329.4027230953943,-397.1486122454795,-57.131955533623795
2025-02-19 16:04:23.093,802,114,606,-3,-23,61,-13,-9,20,433,105,E,-10.653902599938489,52.44458476543786,1594.76418847494,226.68717891040296,6.978680528910786
2025-02-19 16:04:23.206,870,-171,619,-31,44,-48,-14,-7,22,663,91,E,15.442921732789067,53.567331156131615,1674.555311616095,-329.13673366247383,46.563519666249704
2025-02-19 16:04:23.312,851,72,577,20,-44,15,-13,-11,20,738,100,E,-7.112794553115947,55.655821928463894,1676.6635406308499,141.85637476547728,17.178774448883473
2025-02-19 16:04:23.419,842,-108,674,17,47,21,-13,-7,23,781,90,E,9.103538297628235,50.96878695562175,1618.803011037903,-207.63744084571675,52.188563610989945
2025-02-19 16:04:23.526,1020,64,651,27,-25,8,-14,-9,20,691,97,E,-5.61472258890645,57.327455085969454,1861.769558569949,116.81691347889877,113.75295820682663
2025-02-19 16:04:23.632,773,-195,679,5,33,33,-14,-7,21,797,91,E,16.023379608666993,47.5757560796685,1511.1699527538613,-381.2136362056958,30.59456931452587
2025-02-19 16:04:23.739,936,-8,680,31,-21,9,-14,-6,20,604,96,E,0.6740368979845054,53.99986975053162,1745.0156581711808,-14.914663745052827,92.25358167050979
2025-02-19 16:04:23.849,1076,-23,691,-8,27,21,-13,-5,21,756,89,E,1.9063915897703974,57.27726996375535,1917.2963948484771,-40.98310137687265,150.72508472091295
2025-02-19 16:04:23.956,598,-122,666,-30,-1,-30,-12,-5,19,660,43,E,10.380534376540258,41.450999170114166,1259.9792797012256,-257.0526289691463,-71.25451552009417
2025-02-19 16:04:24.669,776,-64,635,-6,-1,-3,-13,-8,20,766,81,F,5.7552577523320885,50.56459496582726,1548.341204160562,-127.69824364210822,2.9939888634575027
2025-02-19 16:04:24.770,732,-64,637,-10,-2,-7,-14,-8,20,738,83,F,5.737308606272187,48.8270666589632,1484.7259913549744,-129.81210853376825,-18.036142750161844
2025-02-19 16:04:24.877,823,-82,609,-1,0,-4,-14,-9,21,708,101,F,7.6685813159514735,53.25301798096271,1624.2853275527414,-161.83644818873,16.068329915407617
2025-02-19 16:04:24.984,853,229,529,5,-24,53,-12,-10,21,471,103,F,-23.40741247563406,55.95001765759775,1681.5494416336494,451.43589933658353,15.163359174442462
2025-02-19 16:04:25.094,854,-42,679,-32,59,-48,-14,-7,22,714,86,F,3.5395591685499532,51.45911829646036,1636.163780823467,-80.46707118803937,57.115682460030484
2025-02-19 16:04:25.196,831,-41,550,74,-2,-26,-14,-9,20,616,98,F,4.263254591933944,56.4281836956763,1664.193352284647,-82.10821593702829,-1.4516772040382193
2025-02-19 16:04:25.302,675,-123,691,19,3,33,-14,-8,22,838,96,F,10.093100573353157,43.882332927611614,1368.179614401602,-249.312729735403,-18.610538594824902
2025-02-19 16:04:25.410,820,-23,396,34,4,-9,-14,-8,21,639,97,F,3.3240507677604785,64.1850565451804,1720.2052270762392,-48.24965880823598,-38.733256002671624
2025-02-19 16:04:25.519,762,-37,677,-2,-1,22,-14,-7,22,856,94,F,3.128267213499416,48.33803726297532,1509.0796478390466,-73.27552095806394,13.256008415965425
2025-02-19 16:04:25.627,552,-183,685,-3,0,-10,-13,-6,18,775,44,F,14.957444149870136,37.90203485331632,1166.31322394614,-386.6581883734485,-77.32709855635107
2025-02-19 16:04:25.733,765,-41,644,-6,-3,-9,-13,-6,20,764,58,F,3.642796341723181,49.85121753071354,1529.372707405212,-81.96638039688064,0.5280737660698378
2025-02-19 16:04:26.551,756,-79,636,-5,-5,-1,-14,-7,20,780,73,G,7.08066119653692,49.710888476528545,1518.7912317013388,-158.70966574656845,-5.713258415411701
2025-02-19 16:04:26.646,792,-61,608,2,-8,2,-15,-9,20,804,81,G,5.729253218101285,52.348708538233986,1583.7431210290788,-121.98021512976493,0.19720001808082088
2025-02-19 16:04:26.751,829,-70,662,0,-5,-7,-15,-8,22,829,97,G,6.036036516668448,51.235383603176246,1608.7247819803597,-135.8392457643247,39.34884720024354
2025-02-19 16:04:26.863,693,-189,621,12,8,-22,-14,-8,22,715,100,G,16.927513064147043,46.87241502673096,1422.8332308033357,-388.04542658272794,-33.006401628963204
2025-02-19 16:04:26.970,828,150,536,2,-8,37,-14,-6,20,562,100,G,-15.634316245562056,56.09045244993713,1657.9193330554072,300.3477052636607,-1.2424668088141289
2025-02-19 16:04:27.080,718,-151,678,-3,0,-25,-14,-8,22,773,95,G,12.55564832844657,45.948559179653095,1436.7158381027762,-302.1505453391632,-0.6759585427330421
2025-02-19 16:04:27.187,842,115,533,-6,-14,42,-12,-6,22,589,101,G,-12.175486314564603,57.07358349287538,1681.369341993307,229.6407058541928,1.665250258393712
2025-02-19 16:04:27.293,1797,-312,998,-22,8,-15,-14,-8,22,786,101,G,17.36056226511395,59.805862841621725,2661.3262693925194,-462.0666644688181,517.9790668593575
2025-02-19 16:04:27.400,751,-59,647,9,-16,20,-14,-6,23,854,100,G,5.210397630708483,49.1371600282306,1507.2779520410468,-118.41464603251899,-4.547050559996364
2025-02-19 16:04:27.507,634,-180,631,-30,45,6,-13,-4,20,802,51,G,15.921407717474938,44.01547450050265,1328.8526251221608,-377.2767705394147,-60.56467894650382
2025-02-19 16:04:28.319,754,-71,625,-3,-2,-1,-15,-8,20,749,78,H,6.481016763100488,50.163654139213385,1521.877312289602,-143.30674956573176,-11.503077163131593
2025-02-19 16:04:28.420,798,-39,634,-4,4,4,-14,-7,20,752,77,H,3.5200682833791856,51.480632666459144,1580.3976874217997,-77.2374809642233,12.39582227390838
2025-02-19 16:04:28.529,751,-58,636,-2,-4,-8,-14,-9,20,736,77,H,5.210673812179884,49.622657631066694,1512.7945471702424,-116.8336667588203,-9.141587217408983
2025-02-19 16:04:28.633,805,2,511,2,-2,-6,-15,-7,21,681,98,H,-0.22424848122371066,57.59313139628907,1649.2636846530831,4.097549527088406,-24.923904171087543
2025-02-19 16:04:28.744,782,139,613,12,-16,73,-13,-8,19,630,97,H,-12.77598382679745,51.208113055325306,1561.42668392197,277.5425947124729,2.0171902248498554
2025-02-19 16:04:28.854,615,-147,659,-36,5,-34,-14,-6,19,735,93,H,12.574828405690958,42.328706651672604,1288.3830031271737,-307.95496172308054,-62.55999847285784
2025-02-19 16:04:28.951,811,93,617,1,-25,28,-14,-9,22,843,93,H,-8.57162953959264,52.425931411941455,1603.565706896436,183.8860798290611,14.024610166336629
2025-02-19 16:04:29.068,1749,-63,785,11,-7,-19,-13,-8,21,852,93,H,4.588425785820849,65.75934389820169,2660.8290122174226,-95.84461278999292,375.74569777548516
2025-02-19 16:04:29.174,849,139,534,-1,-10,64,-12,-7,21,733,96,H,-14.590295274197993,56.97877287033442,1687.4687307241097,276.2757992587176,6.6239078837753596
2025-02-19 16:04:29.280,813,-41,534,-45,75,5,-13,-7,19,787,58,H,4.3905003171720445,56.62471723294695,1648.0852613651819,-83.11377086835479,-14.506186431743004
2025-02-19 16:04:29.391,622,-174,710,8,-23,-18,-13,-6,18,751,41,H,13.770107056420697,40.39370406159968,1270.0362156241915,-355.28344295596355,-29.719795969736197
2025-02-19 16:04:30.100,767,-69,628,2,-9,-10,-13,-7,20,722,70,I,6.270086824315154,50.521657200941966,1538.864959123703,-138.43765603590032,-3.9833042108026575
2025-02-19 16:04:30.201,754,-50,642,5,0,-6,-13,-7,20,707,79,I,4.453298744393908,49.50143856273269,1514.422271478657,-100.42588007152895,-5.4683001184317845
2025-02-19 16:04:30.307,767,-12,652,1,10,-8,-14,-9,19,620,84,I,1.0544045035218386,49.62850706783619,1528.860680262143,-23.919593433045257,4.368756804541022
2025-02-19 16:04:30.414,854,-93,454,21,0,-13,-13,-9,21,0,95,I,11.576648099150031,61.51330376462607,1732.9278826082489,-188.71462890230336,-13.252059372534802
2025-02-19 16:04:30.521,682,-20,698,8,-4,7,-13,-9,20,821,91,I,1.6412638129365784,44.32397879121083,1380.714748006806,-40.49016856324945,-17.10688285740548
2025-02-19 16:04:30.633,637,-282,506,13,-45,-21,-15,-11,20,642,93,I,29.13145955870013,47.717226287078184,1376.833406411471,-609.5243651617502,-81.68556302072909
2025-02-19 16:04:30.733,797,112,566,5,-5,52,-14,-8,19,600,95,I,-11.193081964005804,54.09796762479303,1607.0208403476317,225.82977932112266,-9.246920497816063
2025-02-19 16:04:30.848,493,-191,573,6,-30,-37,-12,-6,20,277,90,I,18.43494882292201,39.222419477817425,1125.3324851716297,-435.98073969123993,-161.9422190737198
2025-02-19 16:04:30.954,748,10,653,11,-29,20,-16,-7,21,717,94,I,-0.8773553017699095,48.87588639989068,1501.28666149823,20.07067729275709,-4.615227217037841
2025-02-19 16:04:31.062,646,-98,598,-48,72,6,-13,-5,18,557,42,I,9.306880973776222,46.83100358519231,1375.3389391423216,-208.64274928165253,-77.1465721472265
2025-02-19 16:04:31.168,811,-27,653,5,-20,-16,-12,-6,18,513,45,I,2.3676958051592503,51.13581321479523,1589.635510126988,-52.92251390065189,26.05920084719685
2025-02-19 16:04:31.983,749,-67,637,-1,-3,-4,-13,-9,20,749,74,J,6.004323782174959,49.46430547091161,1509.0012203358797,-134.9840878004058,-9.356178042664055
2025-02-19 16:04:32.081,776,-42,628,3,0,-6,-15,-9,22,745,84,J,3.8261855463300494,50.95496833089073,1552.651106555345,-84.0352403032532,-0.5269264391192792
2025-02-19 16:04:32.187,748,-43,651,-2,3,-6,-14,-9,21,715,84,J,3.7790244025820945,48.90449843629597,1501.6150021691487,-86.32278755785212,-4.886853492133355
2025-02-19 16:04:32.299,893,-31,681,24,9,-21,-14,-10,19,522,98,J,2.6063786135720997,52.64233115536679,1687.8631439039846,-58.5932334389961,74.83896864656947
2025-02-19 16:04:32.405,660,14,699,-2,-24,14,-14,-11,20,822,93,J,-1.1474015459744817,43.3504660646012,1346.4591083215219,28.56125381288077,-28.02260108597568
2025-02-19 16:04:32.509,522,-87,574,-17,25,-21,-14,-9,19,743,72,J,8.618605080456739,41.959927594686015,1190.610690665968,-198.43511511099467,-161.21558705414884
2025-02-19 16:04:32.622,686,-41,732,-6,-22,69,-14,-7,21,647,95,J,3.2058401564431422,43.09720280655917,1369.2381261723567,-81.83493173916418,2.9470723641908307
2025-02-19 16:04:32.729,815,-276,546,-28,32,-42,-16,-8,22,267,100,J,26.81634684428694,53.1056302682747,1614.7436559516414,-546.8334344081633,10.220814540372658
2025-02-19 16:04:32.836,553,-116,736,-12,10,21,-14,-6,20,629,53,J,8.95663560791191,36.5826926842772,1148.9823409787514,-241.01618725774898,-57.20615363537274
2025-02-19 16:04:32.942,753,-63,651,-19,-2,-20,-14,-8,20,628,56,J,5.527540151656172,49.02304883988615,1507.973437358242,-126.16510830487282,-1.706119150352606
2025-02-19 16:04:33.759,775,-33,634,2,-2,-6,-14,-10,22,643,85,K,2.979583562491734,50.676627981637125,1548.5817774658426,-65.93961116951328,1.1601975311690467
2025-02-19 16:04:33.855,768,-5,598,-1,0,-6,-15,-9,20,580,97,K,0.47905053839083556,52.093069271429094,1557.0097726465228,-10.136782374000799,-16.359171930495677
2025-02-19 16:04:33.964,762,-41,608,11,1,-15,-15,-10,22,424,97,K,3.8578550306155357,51.35024158951281,1542.9783707283818,-83.0211459315796,-15.142846985375513
2025-02-19 16:04:34.069,815,155,546,-11,-7,33,-14,-8,20,178,101,K,-15.848331507673295,55.14623660942144,1635.6133196634437,311.0675638623727,-3.7605797990677274
2025-02-19 16:04:34.179,597,-35,526,-33,33,-30,-15,-7,20,725,65,K,3.8068450829706078,48.55484022001845,1346.5895993693994,-78.94578890775372,-134.4424275850988
2025-02-19 16:04:34.285,776,12,600,-3,-9,-14,-14,-10,22,762,96,K,-1.1457628381751033,52.28340817118799,1567.0464125459994,24.23267648267009,-11.633824133504618
2025-02-19 16:04:34.392,932,116,461,5,14,12,-14,-10,22,0,99,K,-14.12394102114504,62.97596049382794,1822.815965640476,226.8740901440936,20.371072789421135
2025-02-19 16:04:34.502,700,-1,619,-9,-23,35,-14,-7,23,432,100,K,0.09256176036887707,48.51409276861971,1449.1186796132529,-2.070169542304647,-43.43494668657638
2025-02-19 16:04:34.609,604,-120,607,-33,64,-14,-13,-6,21,622,55,K,11.18281050936534,44.308971936879914,1302.527347077671,-258.7802676313254,-94.99685376845423
2025-02-19 16:04:35.319,754,-54,644,1,2,-7,-13,-9,20,584,73,L,4.793092101657651,49.39983138033007,1513.2693921236203,-108.37738352078978,-4.500647914603974
2025-02-19 16:04:35.420,758,-41,631,2,-4,-4,-14,-9,21,589,79,L,3.717637678124333,50.16482358178418,1525.8903871123673,-82.53496816834706,-8.233290590902357
2025-02-19 16:04:35.530,744,-23,639,5,1,-11,-15,-10,20,565,86,L,2.061399495871712,49.3233420421179,1502.399935224283,-46.44515928784745,-12.367686301501067
2025-02-19 16:04:35.632,740,-132,619,17,7,-8,-16,-9,21,441,96,L,12.037853319996602,49.459814889874664,1499.9502801169042,-267.55869861544784,-16.688139719410515
2025-02-19 16:04:35.739,794,35,602,6,0,24,-13,-8,19,0,96,L,-3.3274042417265695,52.78453846883734,1590.3667351557824,70.10432711643878,-1.794426402746808
2025-02-19 16:04:35.848,811,17,603,7,-22,5,-15,-9,20,675,95,L,-1.6148761508778373,53.3573203652597,1613.3731245013728,33.819165371792025,6.414310635847528
2025-02-19 16:04:35.960,1006,60,653,-27,62,23,-14,-8,20,761,73,L,-5.24980241756796,56.902095801942664,1843.738691729423,109.96453429797751,109.21931839034482
2025-02-19 16:04:36.067,711,-88,644,-10,-4,-15,-12,-6,20,525,47,L,7.781046222983525,47.566953861786345,1449.0663045351862,-179.34997862038875,-24.515752631026658
2025-02-19 16:04:36.173,734,-57,664,-4,2,-2,-14,-8,20,530,49,L,4.906434615062311,47.76183312438221,1474.3569735864812,-114.49366143655237,-5.750722699487255
2025-02-19 16:04:37.089,739,-50,645,-1,-5,-4,-13,-8,20,540,66,M,4.432668468689861,48.80046146501084,1491.4202140114448,-100.90799824164037,-11.713177317160785
2025-02-19 16:04:37.185,755,-38,652,0,0,0,-15,-9,19,554,70,M,3.3355512367323548,49.13883055201636,1511.29702713768,-76.06528083606867,-1.1200817135991201
2025-02-19 16:04:37.296,702,-27,654,8,-10,-20,-14,-9,20,491,80,M,2.3640795859194834,47.00299004665755,1433.389291498102,-55.130357365311625,-27.379767293103555
2025-02-19 16:04:37.407,755,-155,597,13,7,-29,-15,-10,20,399,96,M,14.55443733252458,50.75307442997593,1529.426593255539,-313.98824099948155,-15.361160494777323
2025-02-19 16:04:37.509,858,98,649,13,-4,23,-14,-8,21,524,98,M,-8.586878680276044,52.58454333813407,1652.2507400681914,188.71861599846477,48.22059405098332
2025-02-19 16:04:37.620,774,-126,639,-19,-2,-19,-15,-11,20,689,95,M,11.154659738928299,49.92012225663605,1539.1475697218666,-250.55890669890852,7.308401741249895
2025-02-19 16:04:37.726,820,133,625,0,-13,25,-14,-9,19,781,96,M,-12.01334439449092,52.07208198850676,1608.7846738162402,260.937026362878,23.792169347378035
2025-02-19 16:04:37.832,779,-131,644,31,-1,-6,-13,-11,22,820,92,M,11.498011050832366,49.8479765007972,1543.3362334440958,-259.5340777678774,12.122548988449807
2025-02-19 16:04:37.939,875,68,611,-3,-5,20,-13,-6,22,785,93,M,-6.35048378451182,54.908240347467924,1693.2324069055935,131.58834705094895,39.639999292208586
2025-02-19 16:04:38.049,540,-174,685,-22,15,-16,-13,-7,17,667,43,M,14.25252712647975,37.38187820281464,1147.1245478977708,-369.6290209892817,-85.14873205550555
2025-02-19 16:04:38.864,752,-37,646,1,0,-4,-15,-10,20,604,68,N,3.2780653935387547,49.28963653151431,1510.0163744237966,-74.29601842244743,-5.168321645974174
2025-02-19 16:04:38.959,754,-29,633,3,-4,-5,-13,-9,20,593,74,N,2.623090965330799,49.95620167470396,1519.5528564417264,-58.44434063237408,-9.69888345837228
2025-02-19 16:04:39.065,773,1,638,2,0,-3,-14,-9,20,583,82,N,-0.0898052234998959,50.465207853093226,1544.238190588711,1.99772081576806,1.4541195399775688
2025-02-19 16:04:39.180,1112,-115,675,11,4,-14,-15,-11,20,424,96,N,9.668668661083634,58.376858982595465,1963.515233612673,-203.06137757685013,158.11800117935775
2025-02-19 16:04:39.282,798,246,585,-19,-14,51,-14,-6,20,0,99,N,-22.80737773879982,51.50611652434709,1580.6746080020534,487.27563103822706,11.234779848118478
2025-02-19 16:04:39.393,622,-94,639,-15,6,-52,-14,-9,20,634,90,N,8.368467480109105,43.92112143302677,1315.6674040714227,-198.83076524552044,-73.6261594881654
2025-02-19 16:04:39.499,750,81,678,-19,-46,98,-14,-8,21,648,98,N,-6.812780859352442,47.68437949736754,1489.4475846293924,160.86033913997443,9.539383495029256
2025-02-19 16:04:39.607,798,-221,536,10,14,-75,-13,-8,20,787,99,N,22.40701176427338,54.00036212268035,1607.0207092985777,-445.0521011967238,-7.402381183004422
2025-02-19 16:04:39.713,762,40,598,-26,48,41,-14,-8,19,794,62,N,-3.8267930981243246,51.81386712539227,1548.0065416835016,81.26018591514443,-18.83977943140917
2025-02-19 16:04:40.531,778,-50,615,-3,-3,0,-14,-9,22,745,87,O,4.647970691387034,51.58218471349686,1561.500282607226,-100.3534885994361,-4.347909773064089
2025-02-19 16:04:40.619,771,-51,613,-2,-1,0,-14,-9,22,750,89,O,4.755906335094347,51.41649532266861,1552.700053523964,-102.70778564166301,-8.507305849792488
2025-02-19 16:04:40.730,779,-62,607,2,-5,1,-13,-9,21,757,93,O,5.832061503084818,51.92988429158195,1566.2567480350742,-124.65714811062207,-6.433691986251574
2025-02-19 16:04:40.843,759,-35,631,1,4,-13,-15,-10,22,755,98,O,3.174801086302754,50.21805168751394,1527.4851593058377,-70.43739206285153,-7.885554047409187
2025-02-19 16:04:40.949,828,-205,589,62,25,24,-14,-9,20,524,97,O,19.190326083116542,53.01268669968872,1626.768747167488,-402.76279368277176,20.793729369987545
2025-02-19 16:04:41.059,625,-103,706,7,-14,-41,-13,-7,22,787,98,O,8.300456003351236,41.21821745139911,1283.9286605318694,-211.59144325565205,-38.32581493679959
2025-02-19 16:04:41.167,954,-25,585,-2,18,-12,-14,-9,22,781,93,O,2.447048642323615,58.4597610917809,1806.2730026193403,-47.334198181848535,62.37976254474427
2025-02-19 16:04:41.273,513,-138,700,-10,-1,14,-13,-8,17,621,40,O,11.15244034864768,35.716811211070926,1096.7794604612347,-295.0400887790456,-96.5801604734196
2025-02-19 16:04:42.489,753,-62,647,-1,-3,-2,-13,-8,20,720,68,P,5.47376257466309,49.200362746564,1509.9991925220756,-124.32928278402215,-3.4362251816505704
2025-02-19 16:04:42.582,754,-53,641,4,-6,-4,-15,-8,20,723,78,P,4.7266528130287275,49.5347054556913,1514.7992126537029,-106.47792874091014,-5.780232507988671
2025-02-19 16:04:42.694,700,-56,643,11,-4,-20,-15,-10,20,719,89,P,4.977430920603295,47.322441158394135,1435.1801549959823,-114.8144123996786,-32.31548523202389
2025-02-19 16:04:42.799,789,-323,723,11,-4,34,-14,-9,20,706,96,P,24.072687158058567,44.89598435841017,1494.821924120688,-611.9486457426897,76.22021401868517
2025-02-19 16:04:42.903,842,7,659,6,-8,15,-14,-7,21,700,98,P,-0.6085817501210645,51.949553958716685,1629.4683893998665,13.546649318051145,42.679728486327804
2025-02-19 16:04:43.014,888,-94,583,-15,-14,-30,-16,-10,19,813,92,P,9.15925715846196,56.375672266996375,1720.6861961150234,-182.14470994911284,36.315256379438324
2025-02-19 16:04:43.120,747,34,641,14,15,34,-13,-9,20,754,95,P,-3.036244384684446,49.32735654238678,1505.4456018063256,68.52095108623168,-9.821460184544321
2025-02-19 16:04:43.230,683,-9,597,-42,48,21,-14,-8,17,749,56,P,0.863690044599587,48.84055755478537,1435.8809821606583,-18.920832854240004,-61.08191266458698
2025-02-19 16:04:43.331,777,-55,658,12,-32,-13,-12,-9,20,784,55,P,4.7780539101462915,49.64211537773201,1539.0145035978658,-108.93925057642548,12.690420376582438
2025-02-19 16:04:44.053,774,-37,624,1,-6,-3,-13,-7,20,779,80,Q,3.3933727232229036,51.0750483230226,1551.9696037855415,-74.18976142127266,-3.2003007263280097
2025-02-19 16:04:44.148,759,-56,615,5,-9,-1,-15,-7,22,796,90,Q,5.202828816707477,50.8672019331123,1534.6852595021676,-113.23105998961975,-13.519676671716866
2025-02-19 16:04:44.259,748,-4,659,3,7,-19,-15,-8,21,786,96,Q,0.3477698081251475,48.61890754045963,1498.3292609280206,-8.012455940791556,-2.0521162454086834
2025-02-19 16:04:44.365,958,132,506,20,1,66,-14,-11,20,475,93,Q,-14.620873988631656,61.371632443495095,1835.7458640121454,252.9420188409219,42.38892777646606
2025-02-19 16:04:44.476,678,-206,709,-2,-11,-32,-13,-6,22,816,96,Q,16.20122651857028,42.56127463252691,1354.3782980127978,-411.5072704876642,1.6958506031361367
2025-02-19 16:04:44.582,436,-60,674,-12,1,-19,-13,-8,17,565,60,Q,5.087104854347065,32.79515007124898,977.6370567115385,-134.53720963920256,-163.30132161370864
2025-02-19 16:04:44.689,715,37,653,-21,-32,47,-15,-9,21,740,97,Q,-3.243000744227113,47.54923389799442,1452.8575948988055,75.18284057518294,-20.875537718769124
2025-02-19 16:04:44.795,688,-70,554,-28,88,8,-13,-5,21,716,51,Q,7.20137673840454,50.93600732770156,1464.4425997480762,-148.99852032320535,-71.21686084365399
2025-02-19 16:04:44.902,791,-64,656,6,-17,-23,-12,-5,18,574,45,Q,5.572197803963795,50.196656555052655,1559.2461692455247,-126.15898208813346,18.870433596631983
2025-02-19 16:04:45.720,756,-68,650,4,-3,0,-14,-8,21,669,71,R,5.972295547965294,49.15722548774504,1512.5070296217093,-136.04560583898973,-0.4359381668136848
2025-02-19 16:04:45.815,735,-47,642,3,-3,-8,-14,-8,20,683,76,R,4.187081253013432,48.78789930485671,1487.2757788968552,-95.10470967095537,-15.089864016028514
2025-02-19 16:04:45.926,988,-33,672,4,3,-16,-14,-10,20,618,97,R,2.8113735945265317,55.745858655789554,1814.5490673760887,-60.60740812086125,109.8127800842799
2025-02-19 16:04:46.032,790,155,645,-3,-23,66,-13,-9,20,254,97,R,-13.51253063578602,49.97983510046018,1555.8181705088,305.255463834005,19.74339243268878
2025-02-19 16:04:46.139,730,-148,559,8,14,-58,-14,-9,21,726,93,R,14.829297149009756,51.61593760298246,1513.8662077363037,-306.9208201985931,-41.248233047388794
2025-02-19 16:04:46.246,683,37,746,-7,-14,42,-13,-8,22,770,94,R,-2.8394210274998417,42.44059411529701,1357.825414623251,73.55716008940013,8.928610089391896
2025-02-19 16:04:46.349,1006,-107,582,18,2,-8,-14,-8,21,640,95,R,10.41742872013629,59.5349008046335,1867.9381594202232,-198.6773191431052,83.3439276515212
2025-02-19 16:04:46.462,1104,42,597,0,44,19,-14,-5,22,661,89,R,-4.024228468272707,61.5379926287185,1983.1333217182362,75.44528941319376,121.5991004838886
2025-02-19 16:04:46.569,617,-158,696,4,2,-26,-14,-6,18,473,41,R,12.790032857403384,40.8433637450786,1270.9933410280023,-325.473173229213,-41.72992764260903
2025-02-19 16:04:47.389,755,-63,644,0,-8,-4,-13,-7,20,756,67,S,5.5872439642043465,49.40170975199232,1514.2907266211644,-126.35803414189847,-3.659904561628764
2025-02-19 16:04:47.482,762,-55,611,-2,-5,-4,-14,-6,21,789,75,S,5.1436947596783495,51.163176856159396,1540.935095074948,-111.22234938205006,-13.579190407864985
2025-02-19 16:04:47.593,699,-56,633,6,-22,-19,-13,-7,21,841,96,S,5.055658948031721,47.725515762234686,1438.9307370225072,-115.27914345244693,-37.06603223926629
2025-02-19 16:04:47.701,756,-143,589,19,11,-21,-13,-8,20,759,99,S,13.64648227260842,51.279679447490686,1536.2086093575358,-290.5791417171,-18.86094035924407
2025-02-19 16:04:47.799,746,67,660,8,-14,39,-13,-9,21,764,94,S,-5.796532445352653,48.354409818774684,1493.2695685550566,134.1140229131217,-1.123210785974834
2025-02-19 16:04:47.913,722,-17,590,2,19,-1,-13,-6,21,526,99,S,1.6504386999113967,50.73353223932092,1496.2107620566953,-35.229339272803074,-42.66530417375361
2025-02-19 16:04:48.019,618,-78,678,-20,43,26,-13,-6,17,430,47,S,6.562698508937467,42.161837839728314,1289.2270234998628,-162.7179738397885,-58.39469568431548
2025-02-19 16:04:50.539,750,-81,645,-1,0,-2,-13,-9,20,712,77,T,7.157813013615806,49.082731010018385,1505.6560954772349,-162.6108583115414,-4.864242110422083
2025-02-19 16:04:50.629,748,-83,643,-2,0,0,-15,-8,19,713,74,T,7.35520668678437,49.082637001234104,1503.6550208280983,-166.84942076033713,-6.580452396346573
2025-02-19 16:04:50.739,748,-82,640,0,0,-3,-14,-8,22,708,74,T,7.301242719799246,49.21864002760471,1505.2075928179474,-165.0093885174755,-7.878154282735522
2025-02-19 16:04:50.845,747,-76,644,2,0,-4,-14,-8,21,692,77,T,6.730483934615653,49.03882768036265,1502.153998981679,-152.82959025784152,-7.029685869078094
2025-02-19 16:04:50.948,721,-52,649,13,3,-14,-16,-9,20,570,92,T,4.580938931433297,47.91722511048266,1463.1773610763416,-105.52735475169176,-19.062562189383698
2025-02-19 16:04:51.062,781,-49,567,-12,0,-9,-14,-9,19,1,98,T,4.939215542126199,53.919241439831566,1589.1877060694678,-99.70575876748262,-19.738065738013233
2025-02-19 16:04:51.169,686,-57,722,-3,-25,10,-15,-9,22,828,98,T,4.513988458001262,43.446494081644246,1373.676881560308,-114.13933272439876,-1.764881175717619
2025-02-19 16:04:51.279,675,-36,584,-12,40,-11,-15,-9,20,755,77,T,3.527468050374119,49.080356023877044,1430.6289455099313,-76.30021042719633,-69.75896915229612
2025-02-19 16:04:51.379,794,-15,551,-1,1,1,-14,-10,21,709,95,T,1.5593910640949067,55.231163969318395,1615.459506679808,-30.51875642342207,-19.05565262037078
2025-02-19 16:04:51.492,772,-8,637,-2,-1,0,-13,-9,20,694,95,T,0.719532401488709,50.47073496807332,1543.299592336151,-15.99274188949379,0.5779270490569388
2025-02-19 16:04:51.599,766,-38,631,-5,0,-7,-14,-9,21,691,97,T,3.4462968117322874,50.468772036113045,1537.2777865820838,-76.26182231086055,-4.347628372447502
2025-02-19 16:04:51.705,759,-117,660,3,-3,12,-14,-9,21,655,96,T,10.052544827076881,48.55154159658236,1508.5514911601904,-232.5435104950492,8.216094643312545
2025-02-19 16:04:51.812,783,101,590,1,-11,41,-13,-6,21,3,101,T,-9.714100997191895,52.60305776414686,1577.4470338695633,203.47656503298327,-8.62547890554572
2025-02-19 16:04:51.919,1056,27,603,24,35,-16,-13,-6,21,530,92,T,-2.5637702114650045,60.247936734288274,1924.1809447828637,49.197808247289124,107.24894914387625
2025-02-19 16:04:52.028,549,-166,714,-3,-6,-8,-13,-6,19,427,38,T,13.088352134896246,36.83074781734603,1148.4532252484723,-347.2554378711227,-65.61676289145555
2025-02-19 16:04:52.135,772,-74,663,-7,1,-2,-14,-6,19,445,45,T,6.3686452013658075,49.1683557654954,1528.6340585775656,-146.52709887919667,13.196397879629899
2025-02-19 16:04:52.245,710,-110,674,-1,-4,-2,-14,-6,19,450,45,T,9.269222093401172,46.113871274340276,1430.718962734782,-221.6606843673606,-10.175466032736836
2025-02-19 16:04:52.353,722,-103,665,-2,-2,-1,-14,-4,19,444,45,T,8.804422553809825,47.01471013661134,1453.5287739887924,-207.3593680344122,-8.776502358098128
2025-02-19 16:04:52.460,727,-104,665,-2,-1,-1,-13,-5,19,433,48,T,8.888543890770439,47.20535400177872,1460.793351664287,-208.97181371813735,-6.214001178474291
2025-02-19 16:04:52.562,731,-91,664,-4,0,-3,-14,-6,20,436,49,T,7.803668653253988,47.48429966356009,1468.092182170692,-182.75839750688502,-5.533801588699475
2025-02-19 16:04:52.669,737,-101,666,-4,0,-2,-14,-6,20,492,50,T,8.623293397770798,47.572820480382966,1475.13538730702,-202.15559581819406,-1.0260080684873856
2025-02-19 16:04:52.779,719,-126,674,-2,-1,-1,-14,-7,20,526,49,T,10.588856616061282,46.35899552522102,1442.6781407731028,-252.81981326482747,-4.3853503213787235
2025-02-19 16:04:52.889,720,-115,671,-1,-1,-1,-14,-5,19,536,49,T,9.725208508817099,46.60364588198299,1446.6183906954366,-231.05710406941,-6.167972439774985
2025-02-19 16:04:54.199,726,-127,666,0,-4,-2,-16,-7,18,717,53,U,10.796157073860694,46.958036341607155,1456.854007178652,-254.84911695824894,-4.452849560581171
2025-02-19 16:04:54.299,723,-121,655,9,-15,-8,-14,-8,19,753,61,U,10.466415984071697,47.346372278679276,1458.463222201805,-244.08582280279165,-11.291024263045642
2025-02-19 16:04:54.409,775,-61,637,10,-7,-2,-14,-8,21,763,79,U,5.4700431518768395,50.453663928750494,1546.1099238398972,-121.69381336030159,3.1973916309488004
2025-02-19 16:04:54.515,795,-20,634,4,3,-10,-14,-9,20,724,86,U,1.806838649760532,51.414299351187,1576.676150183026,-39.664808809635886,10.625560734542546
2025-02-19 16:04:54.625,811,-76,596,-5,-1,-22,-15,-11,20,548,100,U,7.266954405811692,53.46725101087121,1614.5167418926676,-151.2987329023955,5.499410397003999
2025-02-19 16:04:54.729,778,254,589,12,-7,24,-14,-8,20,525,98,U,-23.327608427547926,50.49562232506723,1549.575981680126,505.9026983891414,4.863427751164409
2025-02-19 16:04:54.838,751,-113,612,-12,3,-45,-15,-8,20,840,98,U,10.461301930820557,50.35186179284942,1520.9774262437354,-228.8554582763543,-15.464959868396818
2025-02-19 16:04:54.944,772,10,621,21,-11,73,-14,-9,20,753,96,U,-0.9225576144184218,51.18302913919983,1551.1523323289834,20.092646791826205,-5.753365772407392
2025-02-19 16:04:55.049,831,2,578,-24,78,11,-14,-6,20,803,62,U,-0.19825450119919605,55.179390518865276,1651.9438684600123,3.9757975173526168,6.994517485093866
2025-02-19 16:04:55.162,643,-157,694,-2,-12,-11,-12,-5,19,737,39,U,12.747159470342103,42.10340984173556,1313.4707749539625,-320.7074831536114,-29.649638908320412
2025-02-19 16:04:55.977,709,-98,654,3,-4,-3,-15,-8,20,682,60,V,8.522197376198173,46.993579630602326,1440.2772746203143,-199.07922836782902,-20.549136250614197
2025-02-19 16:04:56.075,778,-62,645,5,-2,-2,-14,-7,20,706,69,V,5.490631919623851,50.21009379178175,1546.3962797329132,-123.23466496586198,7.961953177726173
2025-02-19 16:04:56.177,730,-51,666,8,0,-8,-14,-7,20,699,74,V,4.378968607752393,47.541493015512756,1467.7663989294929,-102.54258403480023,-7.085509160332208
2025-02-19 16:04:56.289,755,14,653,19,8,-25,-13,-9,19,569,85,V,-1.2282052756795223,49.136936488909875,1511.2753994789982,28.02364979166354,-1.10309385402104
2025-02-19 16:04:56.399,1040,-315,639,1,-13,28,-14,-10,19,622,92,V,26.241349652157766,55.588008157164914,1864.9952342284955,-564.8783642134384,132.1038897384534
2025-02-19 16:04:56.505,874,92,550,9,-15,-28,-13,-6,23,739,99,V,-9.496105092974537,57.46075179006821,1717.023192098084,180.7392833787457,19.493414583585604
2025-02-19 16:04:56.612,773,-53,610,2,8,-6,-14,-11,21,865,94,V,4.965687546204708,51.61703528239631,1556.8781034392673,-106.74584667824215,-8.584273089201929
2025-02-19 16:04:56.723,573,-126,676,-10,21,19,-13,-8,18,754,46,V,10.55823406025535,39.80383567254801,1213.1611308793765,-266.76841621431316,-79.23372508631508
2025-02-19 16:04:57.739,758,-57,649,-3,-4,0,-14,-8,19,449,82,W,5.019261700665207,49.32105966348506,1516.373970573974,-114.02812179777904,-0.320193802782228
2025-02-19 16:04:57.832,739,-53,642,-3,-2,-3,-13,-8,19,480,87,W,4.719323705871333,48.92143967121509,1492.8093246576937,-107.06210312159374,-12.865475548361701
2025-02-19 16:04:57.938,799,-31,625,-7,3,-14,-16,-8,19,304,95,W,2.8395436123249755,51.93232936624595,1586.2830615601122,-61.54540038593676,9.165314799661928
2025-02-19 16:04:58.049,773,-109,668,-37,-23,43,-14,-9,19,448,97,W,9.267486691553279,48.79478875912958,1525.3549957961106,-215.08886745378533,17.8407022098296
2025-02-19 16:04:58.160,761,-57,578,17,-11,-27,-13,-7,20,709,101,W,5.632065477897392,52.64871949375871,1555.9307944147833,-116.54146554749362,-25.77135239388258
2025-02-19 16:04:58.263,758,-176,632,-8,-21,51,-13,-9,21,756,99,W,15.561510325328486,49.12382134282761,1514.1256194392722,-351.56478762706064,1.5628080664641857
2025-02-19 16:04:58.373,773,-55,588,31,-7,-36,-13,-6,21,799,104,W,5.343750699319041,52.62042158442824,1567.6310533279284,-111.53907882669606,-16.45415181995054
2025-02-19 16:04:58.479,833,-24,569,-29,68,33,-12,-7,20,822,63,W,2.415262043662726,55.640341921319084,1658.5110866199093,-47.784232987848526,5.115476246424578
2025-02-19 16:04:58.586,706,-109,645,5,-18,-10,-14,-5,18,755,43,W,9.591917869305197,47.18331130063878,1439.5319306425913,-222.25068050997513,-25.15310943976101
2025-02-19 16:04:59.999,753,-59,627,0,-3,-3,-14,-8,21,845,83,X,5.37563979709669,50.092653240707534,1520.082895540608,-119.10344068644868,-11.726395091581708
2025-02-19 16:05:00.094,767,-38,610,1,-3,-2,-13,-8,20,847,87,X,3.564638972115678,51.450478847139635,1549.069820742875,-76.74661432624411,-11.985124710760829
2025-02-19 16:05:00.208,737,-58,619,3,-10,-6,-15,-8,20,858,97,X,5.352957673249282,49.850013590975244,1501.3591587719202,-118.1530952629191,-22.978723581843383
2025-02-19 16:05:00.314,786,-34,613,0,-1,-2,-13,-8,22,850,100,X,3.174653414103738,52.00671447239153,1574.0828973488015,-68.0900998853171,-1.6244479323349879
2025-02-19 16:05:00.425,774,-105,633,-7,-7,-13,-15,-10,22,821,102,X,9.418282416919153,50.341117641576275,1543.8577610888833,-209.43806836477103,3.387645000952034
2025-02-19 16:05:00.526,932,166,459,-34,5,34,-14,-8,22,0,103,X,-19.88281644488717,62.358617227758046,1817.8687253061307,323.7834854086027,22.71915781597221
2025-02-19 16:05:00.637,622,-180,577,15,14,-65,-14,-9,20,410,90,X,17.325749974367305,45.82103048485889,1339.1664546417219,-387.540131568344,-88.28142174963614
2025-02-19 16:05:00.748,678,100,645,-10,-59,100,-14,-8,21,629,102,X,-8.8129016377444,46.08894858891057,1398.417352498624,206.25624668121299,-40.35279109382361
2025-02-19 16:05:00.851,1076,-40,633,-9,80,-4,-14,-7,22,761,84,X,3.6157787488398214,59.48220876769973,1937.4715203349758,-72.02496358122586,126.20495132710073
2025-02-19 16:05:00.957,655,-119,686,5,-3,-22,-12,-5,18,697,41,X,9.841131759634388,43.25166647614679,1340.2041750672242,-243.48747608091554,-31.63368564292489
2025-02-19 16:05:02.075,748,-43,636,0,-1,-3,-13,-9,21,746,78,Y,3.8678849004500635,49.56208172563058,1509.1092158694294,-86.75360465559552,-11.146338626947795
2025-02-19 16:05:02.174,750,-39,612,1,-4,-15,-14,-11,19,663,94,Y,3.646271208756838,50.728672275956775,1524.1570728340573,-79.25616778737098,-19.71217143259082
2025-02-19 16:05:02.280,773,-61,598,0,0,-12,-14,-11,21,384,95,Y,5.824406818980866,52.1305157880276,1562.4111417983843,-123.29505776158013,-12.695812154506712
2025-02-19 16:05:02.383,794,95,582,13,-10,39,-14,-10,21,721,99,Y,-9.270644820458353,53.39878951533771,1596.8048786030577,191.05348043739355,-6.453953837505651
2025-02-19 16:05:02.497,417,-156,661,12,-21,-28,-13,-7,20,849,61,Y,13.27916473152627,31.549701386740008,940.2379931730757,-351.7437096762585,-168.40123138465924
2025-02-19 16:05:02.600,790,31,637,-9,-10,-7,-15,-9,21,856,93,Y,-2.786136517598885,51.08663876329354,1568.0966879057182,61.53290800642692,9.59798709374354
2025-02-19 16:05:02.708,905,-2,499,-24,15,4,-13,-9,22,493,101,Y,0.2296411731966412,61.12828870688747,1780.703031815417,-3.935255318929098,16.153797927189885
2025-02-19 16:05:02.817,838,44,541,17,0,22,-14,-7,21,424,107,Y,-4.649681447235415,57.06820844223539,1677.3183455281164,88.06922100624955,-0.8511037359319289
2025-02-19 16:05:02.923,591,-214,710,-41,59,5,-12,-5,20,565,39,Y,16.773250624654302,38.55413032794275,1214.253729684538,-439.67901548644863,-38.74813549242299
2025-02-19 16:05:03.742,714,-84,646,0,-4,-6,-14,-8,20,736,69,Z,7.408656504659613,47.62334059312173,1452.7299700428252,-170.90940824033243,-22.37473480065171
2025-02-19 16:05:03.837,788,-39,621,-1,-3,-6,-14,-8,20,745,83,Z,3.593566187865195,51.70454408329443,1572.825522253397,-77.8428875226935,2.5017140617266023
2025-02-19 16:05:03.941,766,-45,631,-1,2,-5,-14,-8,20,756,84,Z,4.0791638258954945,50.44833769887727,1537.0507325287977,-90.29671405195285,-4.160590372939055
2025-02-19 16:05:04.054,682,-84,651,-6,4,-11,-14,-9,20,682,86,Z,7.3523793598923595,46.09591242684127,1402.5016414438737,-172.74213765584364,-36.75156683278817
2025-02-19 16:05:04.160,942,208,657,50,-39,14,-13,-11,20,784,91,Z,-17.567295683739165,53.81190225204241,1749.0829833059654,386.2094060802981,94.09817406367381
2025-02-19 16:05:04.267,685,-8,630,-5,18,35,-14,-9,20,783,92,Z,0.7275263513507163,47.392704029972506,1421.010888646571,-16.595747604631487,-46.91512386472948
2025-02-19 16:05:04.374,823,25,593,43,-30,22,-14,-8,20,640,92,Z,-2.414075504356909,54.20181233645139,1634.082321519147,49.637980605077374,8.587100047564945
2025-02-19 16:05:04.480,790,18,607,-11,0,10,-14,-6,21,855,92,Z,-1.6985533579800525,52.450799951692346,1582.8303026928033,36.064487909456275,-2.1746756133310328
2025-02-19 16:05:04.590,707,-55,662,-13,25,0,-13,-7,19,788,56,Z,4.749315955429486,46.78434474357506,1435.781557456654,-111.69446345136629,-20.395178269172447
2025-02-19 16:05:04.697,773,-3,633,-17,14,-1,-12,-6,18,697,49,Z,0.2715419456845224,50.686068240515134,1546.6861770789037,-6.0026630417033795,-0.5619017994129081
2025-02-19 16:05:06.709,764,-73,630,0,-2,0,-14,-6,22,725,70,a,6.609558740400889,50.30309701245933,1533.4340812808587,-146.51922504385166,-4.480983255158208
2025-02-19 16:05:06.809,768,-71,632,0,-1,-1,-15,-8,21,723,71,a,6.409834089906468,50.37207326308916,1538.202462198732,-142.20361304180986,-1.8124428510399184
2025-02-19 16:05:06.917,755,-76,633,0,0,-1,-14,-7,20,726,70,a,6.846342575992242,49.82118598398354,1519.034644189072,-152.90944762697941,-7.574741419446809
2025-02-19 16:05:07.023,768,-71,636,-1,-2,-1,-13,-7,21,727,71,a,6.369853061386001,50.196596088049354,1536.2454936591032,-142.02269537733895,-0.20329943644469495
2025-02-19 16:05:07.130,775,-63,626,-3,1,-3,-13,-7,20,730,74,a,5.746839078900806,50.929544139296304,1551.3715071351683,-126.11149025743947,-1.1078238278906838
2025-02-19 16:05:07.241,765,-73,626,-9,2,-9,-13,-8,20,724,72,a,6.651415102508375,50.51674084773873,1536.810401635003,-146.64988146320945,-5.57295610916583
2025-02-19 16:05:07.341,750,-184,610,16,-10,8,-14,-8,20,789,73,a,16.78537733133518,49.6511333530236,1512.1164157965713,-370.9725606754255,-9.854684847877934
2025-02-19 16:05:07.449,754,-81,640,4,-1,3,-12,-8,20,842,70,a,7.213146684339993,49.45044881990121,1513.844018342092,-162.6278056839648,-4.960439972067547
2025-02-19 16:05:07.558,777,-35,618,-6,-1,2,-14,-6,20,818,72,a,3.2414439821393004,51.45772444816134,1559.1486229471075,-70.23191995257243,-4.095043733993066
2025-02-19 16:05:07.669,780,-40,596,12,-20,0,-15,-7,20,822,87,a,3.839596337953471,52.55433098752861,1573.9302443547772,-80.71437150537321,-10.644135430060828
2025-02-19 16:05:07.777,754,-75,670,-8,8,-37,-13,-7,20,803,98,a,6.387117025764512,48.19869569024147,1499.4608262114484,-149.15061268681512,7.587859997784676
2025-02-19 16:05:07.884,901,221,527,4,-22,69,-15,-8,19,689,97,a,-22.750976342787634,57.614915058272544,1745.4673816493523,428.1335087064449,33.06624846924666
2025-02-19 16:05:07.990,812,-313,585,3,0,-33,-13,-7,21,835,97,a,28.148684842229105,50.74833505725415,1586.3742581401693,-611.4964812781687,27.107215502464214
2025-02-19 16:05:08.097,898,68,570,-4,-10,12,-13,-7,21,846,96,a,-6.803133333503073,57.411464854397536,1740.5601878824145,131.8018850512296,35.19008118822239
2025-02-19 16:05:08.208,521,-180,713,-30,30,-22,-12,-4,19,795,32,a,14.168522407243152,35.31707236615299,1099.1007824291773,-379.72771753791164,-78.14368113628325
2025-02-19 16:05:08.924,770,-48,631,-3,1,-5,-11,-8,20,666,73,b,4.350096657823328,50.584989391809884,1542.567257401862,-96.16003682505112,-2.1038174293178145
2025-02-19 16:05:09.019,768,-50,635,0,-4,-8,-14,-8,21,690,78,b,4.502189492040974,50.32829500306707,1537.7149109295738,-100.11164784697745,-1.4179276566136423
2025-02-19 16:05:09.130,803,-43,669,-6,-3,-11,-14,-9,19,638,94,b,3.6776294970366,50.14335347999475,1570.6502920534451,-84.10705175379594,29.45075294675621
2025-02-19 16:05:09.234,682,-212,716,-6,-26,68,-14,-8,20,675,95,b,16.493462432007636,42.40607863241416,1356.3807281032605,-421.6315459793126,7.999118296283882
2025-02-19 16:05:09.342,705,-75,534,14,16,-41,-14,-6,20,594,99,b,7.994864730763286,52.58831126140252,1499.2906950978672,-159.4990101167944,-67.63295203157622
2025-02-19 16:05:09.449,650,3,780,3,-14,-6,-12,-6,20,789,91,b,-0.2203672961231626,39.805362674920445,1290.1816052024217,5.9546843317034845,11.782073757094167
2025-02-19 16:05:09.559,928,-40,416,33,33,-21,-15,-5,20,371,95,b,5.492324557127438,65.75589590204535,1839.8043029119644,-79.30190960827434,7.260140073946843
2025-02-19 16:05:09.666,510,-169,736,-1,-19,-15,-12,-6,18,714,49,b,12.93206063070436,34.033488978906426,1069.6773745364014,-354.4617182287291,-71.69126991919893
2025-02-19 16:05:10.484,753,-84,634,-2,-2,-1,-15,-7,22,704,75,c,7.547281710014798,49.65797945151483,1515.1937709944837,-169.02559995157588,-7.740837729751206
2025-02-19 16:05:10.575,753,-84,627,-1,1,0,-15,-6,21,701,75,c,7.630554225382767,49.96609298934368,1518.6639143803918,-169.41270758028276,-10.54485300996771
2025-02-19 16:05:10.682,766,-82,626,1,-3,0,-14,-7,22,730,78,c,7.462708585110368,50.50418243580845,1537.6710133089941,-164.60707975370434,-4.6345356807185
2025-02-19 16:05:10.791,770,-52,602,0,5,-7,-15,-8,20,718,95,c,4.936882937009502,51.87767882121575,1556.694578609574,-105.12742608791928,-13.052125094757798
2025-02-19 16:05:10.891,951,88,565,23,6,29,-14,-9,20,0,93,c,-8.852815631350422,58.982580700916095,1808.0106770915231,167.30277558785912,55.84013400976812
2025-02-19 16:05:11.006,729,-83,684,12,-4,0,-14,-6,21,820,91,c,6.918731805435626,46.61509053048112,1455.7556104938312,-165.7444659409986,2.105846944059863
2025-02-19 16:05:11.114,590,-183,714,-32,24,8,-12,-4,20,720,42,c,14.375602458122762,38.67578015060381,1214.912699972732,-376.828854398322,-42.2502843737808
2025-02-19 16:05:12.033,764,-83,632,0,-2,-1,-13,-6,20,725,78,d,7.481786391309124,50.160800008901255,1531.8454006596037,-166.41775949574227,-3.181012063965113
2025-02-19 16:05:12.131,780,-68,617,5,-13,-8,-15,-7,19,723,95,d,6.289225935198863,51.48669265477832,1562.4635523704765,-136.21477123229795,-1.9487330930563758
2025-02-19 16:05:12.237,728,-113,684,-1,4,-20,-13,-7,20,528,97,d,9.380801115993325,46.399744088141794,1452.1687812414343,-225.40531906632157,3.599661580850011
2025-02-19 16:05:12.344,773,121,553,5,-21,54,-14,-8,20,303,97,d,-12.342177165585944,53.78395189858491,1579.7948564465532,247.2900098706765,-24.17665668168695
2025-02-19 16:05:12.453,669,-129,593,-13,4,-67,-14,-9,20,774,92,d,12.272796099656425,47.787929878500734,1409.6630729325077,-271.8184400721875,-63.52197645587
2025-02-19 16:05:12.559,695,175,709,-20,-25,68,-15,-7,19,612,93,d,-13.8649845905029,43.582122562136185,1384.3935539551637,348.5883049527391,5.719381648616945
2025-02-19 16:05:12.669,841,-142,608,-29,69,3,-12,-8,20,740,67,d,13.145937826555848,53.40964579083438,1643.9178387539735,-277.5699561273059,27.53145545491566
2025-02-19 16:05:13.480,761,-91,632,2,-1,-2,-13,-7,20,696,76,e,8.193552803869153,50.00163496880113,1527.06278512997,-182.60540531777565,-4.204573195980288
2025-02-19 16:05:13.577,747,-79,638,0,1,-2,-12,-6,19,656,79,e,7.058689024280255,49.28452539015964,1504.958187925937,-159.15889805374698,-9.359202003678206
2025-02-19 16:05:13.682,754,-83,635,1,-2,-1,-14,-7,20,669,82,e,7.4468370214291735,49.65746502150799,1516.187958742957,-166.90132702342893,-6.895694697317936
2025-02-19 16:05:13.794,859,44,658,15,-10,17,-13,-8,20,741,93,e,-3.8256333936479954,52.48591346502757,1652.203648412662,84.6297561468651,50.40046489460815
2025-02-19 16:05:13.905,731,-144,638,-7,3,-24,-14,-6,20,794,93,e,12.718842765251459,48.17999134818783,1476.2431898596083,-290.80577201064784,-12.431128769398242
2025-02-19 16:05:14.008,915,3,539,5,-13,55,-14,-9,19,489,93,e,-0.3188971495661537,59.4985050241166,1776.6159173296633,5.824970220752994,31.447017004712052
2025-02-19 16:05:14.109,800,-72,673,8,4,-9,-12,-5,20,834,90,e,6.106485342931799,49.76709030553558,1563.4251630450808,-140.70826467405732,30.76858158832556
2025-02-19 16:05:14.229,588,-155,694,-11,-6,-3,-13,-5,18,684,46,e,12.589983777513352,39.58699601325238,1225.2490958097524,-322.98232967774084,-58.127334170014024
2025-02-19 16:05:15.239,766,-104,620,-3,-6,2,-14,-4,22,726,84,f,9.522255009925217,50.6240114544674,1538.9995078228665,-208.95032482190356,-5.665397976732606
2025-02-19 16:05:15.339,797,-76,610,-3,-2,3,-14,-4,21,716,99,f,7.101894566656919,52.35744438874097,1588.8362483684664,-151.50759708406954,3.9521812989156615
2025-02-19 16:05:15.449,784,-143,598,-14,-1,-54,-14,-7,21,785,93,f,13.448615051686518,51.89431515274678,1570.8737962190926,-286.52417456547226,-2.192002728338366
2025-02-19 16:05:15.555,773,-55,638,1,-13,39,-13,-8,20,852,93,f,4.927109947649014,50.3610735159486,1543.0800021121547,-109.79223818391785,2.4100370665529454
2025-02-19 16:05:15.662,583,-7,636,8,-22,-39,-12,-9,20,717,90,f,0.6305884634541897,42.50871855526047,1258.7023894392926,-15.113064710248794,-101.12987938831907
2025-02-19 16:05:15.769,719,89,644,-7,-43,28,-14,-9,20,812,93,f,-7.868365786791929,47.88007128357991,1460.742607160339,180.8151488696386,-20.37029069716027
2025-02-19 16:05:15.872,960,125,634,-44,72,16,-13,-7,19,796,68,f,-11.153434527665267,56.05430878155725,1789.5672405787984,233.01656778369767,86.13996820108525
2025-02-19 16:05:15.985,729,-72,633,14,-25,-8,-13,-6,19,742,54,f,6.489166395927557,48.84941007533099,1481.9826620880842,-146.36865798400834,-20.8244514427397
2025-02-19 16:05:16.088,749,-61,625,1,-4,4,-14,-7,20,762,66,f,5.574412647192546,50.02316562943503,1515.3042701396032,-123.40929302872601,-14.43947775334027
2025-02-19 16:05:16.198,770,-59,627,-2,-5,1,-13,-8,20,716,70,f,5.37563979709669,50.720855239962816,1544.0707044110595,-118.31191111721104,-3.3147164490054593
2025-02-19 16:05:16.305,778,-60,637,-6,-4,1,-14,-6,20,712,72,f,5.380900999998434,50.56645902021781,1550.3618695332661,-119.5651827403547,4.616309906567608
2025-02-19 16:05:16.411,771,-81,620,-2,0,0,-15,-6,20,716,72,f,7.443259818106773,50.95849705901493,1547.68990122474,-162.59777172399993,-4.575536652838878
2025-02-19 16:05:16.518,761,-84,625,-2,1,-1,-14,-7,20,716,72,f,7.654682935333034,50.35240208509266,1530.9834431427462,-168.9916021340219,-7.377992068615299
2025-02-19 16:05:18.038,775,-98,601,4,-5,2,-13,-6,21,793,82,g,9.2612309349893,51.84236073881168,1561.3138889318686,-197.43065950364272,-8.773738384584362
2025-02-19 16:05:18.128,821,-57,642,0,-6,-10,-13,-8,20,803,95,g,5.073704730062958,51.86634162085826,1607.5724087586414,-111.60977746558167,26.921453808711817
2025-02-19 16:05:18.240,717,-122,634,-6,9,-36,-14,-8,22,667,96,g,10.892230667534793,47.99815649387148,1460.1232956470333,-248.44496801804473,-23.099260028199637
2025-02-19 16:05:18.348,787,127,540,3,-19,58,-14,-7,20,610,94,g,-13.234605817405455,54.82111101291952,1604.357233202089,258.8988165396001,-20.82961363294521
2025-02-19 16:05:18.455,598,-179,583,1,5,-30,-12,-6,20,829,85,g,17.068192638386975,44.43739969594913,1298.1295619178331,-388.5705544871106,-99.56778360885755
2025-02-19 16:05:18.562,706,54,703,-8,-19,57,-13,-6,21,492,98,g,-4.3924728107458755,45.037724854956586,1413.5722031980458,108.12025350240009,-1.565522447912258
2025-02-19 16:05:18.672,1254,-89,616,21,62,11,-14,-6,20,383,85,g,8.22123394206263,63.60347632209387,2149.7387360594057,-152.57316388300407,175.98798930415165
2025-02-19 16:05:18.779,613,-147,712,7,-18,-9,-13,-4,17,373,40,g,11.66541831684273,40.13665090107125,1257.6128020222657,-301.580884008602,-36.718295334181335
2025-02-19 16:05:19.588,719,-81,647,-7,-3,-9,-15,-6,19,611,54,h,7.135915298649183,47.795573617109824,1459.7527003319583,-164.45058237397578,-19.574404888423942
2025-02-19 16:05:19.692,742,-81,642,-8,-4,-6,-14,-8,19,733,59,h,7.190911408420399,48.9086927597056,1495.663118811326,-163.27319760608816,-10.091269914920986
2025-02-19 16:05:19.799,757,-100,643,-5,-1,-4,-14,-7,21,802,64,h,8.839881178059352,49.31710673160841,1515.3289986353811,-200.1755612464176,-1.1288588144650475
2025-02-19 16:05:19.905,776,-88,630,-3,-3,-5,-15,-6,20,816,69,h,7.951770134743134,50.6572398448197,1549.3672986401143,-175.70144623753873,2.1373735267113716
2025-02-19 16:05:20.016,743,-117,647,-3,2,-3,-14,-7,20,824,69,h,10.250286499324632,48.493821272841195,1491.8842600630542,-234.9265927690139,-5.123978816683916
2025-02-19 16:05:20.122,742,-87,640,-1,1,-1,-15,-8,21,826,66,h,7.741194561970406,48.961517985331206,1496.268775950678,-175.43852224758623,-10.582232625921733
2025-02-19 16:05:20.229,710,-128,650,4,-3,-1,-14,-5,19,828,65,h,11.14031846531021,46.982847363013505,1441.1494990065999,-259.81286742654186,-19.362217400407985
2025-02-19 16:05:20.336,749,-78,647,-7,4,-10,-13,-7,22,818,66,h,6.874198969575844,48.97434766404109,1503.415775336564,-156.56399262516953,-4.678246519034474
2025-02-19 16:05:20.439,678,-94,641,3,-14,-39,-15,-9,20,800,82,h,8.342724877736792,46.302437382187335,1400.9965356310263,-194.23845774235474,-42.54097247712093
2025-02-19 16:05:20.552,767,-283,790,18,-16,68,-14,-9,20,796,90,h,19.708938217740247,42.427610797038426,1441.6581703989505,-531.9286339281655,95.11088055388427
2025-02-19 16:05:20.659,915,54,535,1,-13,-40,-13,-7,21,779,93,h,-5.763605501640424,59.558510851953756,1777.1470128070675,104.88080731320397,30.90311273029397
2025-02-19 16:05:20.765,787,133,589,-12,-14,40,-14,-8,19,802,96,h,-12.724355685422369,52.50260710437869,1580.3810396705328,267.07837138015356,-4.775644683537166
2025-02-19 16:05:20.871,699,-36,556,-19,77,11,-13,-4,19,821,53,h,3.704627442077118,51.44208450109147,1480.9785093004239,-76.27357129444243,-66.0029344363885
2025-02-19 16:05:21.689,765,-70,644,-1,-1,-1,-13,-7,19,777,71,i,6.203447901691836,49.7424585951769,1528.1474188185198,-139.83048276770768,1.5595585370892877
2025-02-19 16:05:21.785,738,-96,640,4,-2,0,-14,-5,20,775,72,i,8.530765609948133,48.75213641190665,1489.8643922619292,-193.80349818041356,-12.02332120275696
2025-02-19 16:05:21.896,746,-66,625,-1,-7,-10,-14,-7,19,777,80,i,6.028093415608455,49.88720359535469,1510.7775236615068,-133.66128225423518,-15.731839528742398
2025-02-19 16:05:22.002,759,-157,587,-4,2,-21,-14,-8,21,764,94,i,14.97393497554788,51.320261285760935,1539.6514606883793,-318.4786288907452,-16.744937317626636
2025-02-19 16:05:22.104,839,99,556,5,2,19,-14,-7,21,731,98,i,-10.096136126654336,56.054836826639104,1668.572386890915,196.88756412657995,6.247619652743083
2025-02-19 16:05:22.219,286,-394,775,28,-97,-77,-13,-11,20,759,95,i,26.94819625475517,18.209214736483077,598.4876960941108,-824.4900428709079,-71.77609955571984
2025-02-19 16:05:22.326,779,-109,655,-13,-9,43,-12,-9,21,820,89,i,9.448136573377845,49.556240515723104,1540.0430857968954,-215.48741508583004,15.098560722764432
2025-02-19 16:05:22.429,499,-173,763,-19,14,21,-12,-4,16,753,31,i,12.775051744798972,32.53006268546955,1036.7420558223694,-359.431614543627,-59.23885489472491
2025-02-19 16:05:23.149,741,-113,641,-3,-1,0,-13,-6,20,721,66,j,9.997781193590152,48.70438145604527,1492.3146021848497,-227.57294203358703,-8.922618084329883
2025-02-19 16:05:23.247,782,-80,616,-2,-3,-2,-13,-7,20,762,75,j,7.399594659887112,51.5385145032662,1565.0264373904174,-160.1050063826514,-0.8085491464155439
2025-02-19 16:05:23.354,764,-82,620,0,-5,-9,-13,-5,20,770,83,j,7.534102626632529,50.6967524194274,1537.804307838861,-165.05229482040136,-7.956375471327078
2025-02-19 16:05:23.459,804,-289,643,1,-15,23,-14,-7,20,802,95,j,24.201804536039212,48.755159977549305,1555.8991841893974,-559.2722191924574,41.66769224653933
2025-02-19 16:05:23.571,831,-41,498,-27,-3,31,-12,-5,23,322,107,j,4.706507809533955,58.9812738786526,1687.9989237559912,-83.28273871720293,-15.580582467489307
2025-02-19 16:05:23.671,181,-370,739,-37,-12,-62,-12,-6,20,740,52,j,26.596055383745032,12.353236989314647,394.9381265817369,-807.3320819626667,-134.48218532543422
2025-02-19 16:05:23.785,974,-114,575,10,9,10,-13,-9,20,789,96,j,11.214088168114678,58.95879772220646,1830.7967072871136,-214.28216081183876,69.19085555432207
2025-02-19 16:05:23.890,604,-124,694,-3,2,3,-12,-5,21,813,51,j,10.130386375059006,40.58827643927829,1254.6188455468127,-257.57075637053765,-53.56536226736398
2025-02-19 16:05:23.989,784,-69,626,4,-12,-7,-13,-8,21,806,68,j,6.289958741497496,51.224907664310315,1563.6102889619997,-137.6136606356862,3.505049884934124
2025-02-19 16:05:24.104,733,-89,642,-3,-1,-1,-13,-8,19,791,67,j,7.892569390157818,48.51596274949404,1482.1402993459412,-179.95973620980732,-14.13652412018314
2025-02-19 16:05:24.209,763,-71,634,0,-2,0,-14,-6,20,768,67,j,6.389781295162534,50.10017055028044,1530.1670611918844,-142.38776060894338,-3.4625383953534765
2025-02-19 16:05:25.229,741,-84,629,6,-6,-6,-14,-7,21,782,68,k,7.606576260122147,49.42361997198558,1500.5395220597773,-170.10164622539986,-15.737327092577516
2025-02-19 16:05:25.324,746,-41,639,4,8,-14,-15,-8,19,724,71,k,3.671222573850876,49.35952641520078,1504.811412776367,-82.70411249843303,-10.973850890212361
2025-02-19 16:05:25.430,799,-52,591,-2,3,-9,-13,-9,21,674,95,k,5.028303963405799,53.40492390356358,1601.8687107960918,-104.25178092790586,-2.8615870844685105
2025-02-19 16:05:25.539,910,323,488,9,-6,23,-13,-9,19,110,94,k,-33.499987438206404,57.25533314750433,1751.0893637567233,621.5405104323314,36.95427526013094
2025-02-19 16:05:25.639,657,-168,753,9,-5,-8,-12,-8,21,836,95,k,12.577138173869987,40.416818000958386,1305.343407090334,-333.78644199570186,9.921483197836324
2025-02-19 16:05:25.754,528,-43,524,-9,9,-27,-13,-8,19,712,81,k,4.691241439242945,45.121720965028246,1236.6073843931135,-100.70855592595434,-179.23914663255994
2025-02-19 16:05:25.859,730,41,635,-8,-23,41,-15,-8,21,703,98,k,-3.6942845436154483,48.92217389895729,1483.817745042763,83.33770896815517,-20.718175482403353
2025-02-19 16:05:25.971,692,-117,617,-29,62,-3,-13,-7,19,686,50,k,10.737351615525268,47.776020346950226,1432.5234002942375,-242.20410091680026,-43.264361245006285
2025-02-19 16:05:26.789,761,-73,642,3,-10,-7,-14,-7,20,709,68,l,6.487078570359914,49.66664369237716,1523.2916540826636,-146.12390374248943,-1.0896740092906612
2025-02-19 16:05:26.884,753,-54,638,-3,-1,-3,-13,-6,20,721,74,l,4.83795524115997,49.62525242526363,1514.8238846093468,-108.63278853772208,-7.476279390123864
2025-02-19 16:05:26.991,746,-45,635,-5,-7,-21,-13,-8,19,728,90,l,4.0535542318314075,49.52450961369438,1506.6837126551745,-90.88574674193413,-12.498870691737011
2025-02-19 16:05:27.102,721,-273,719,29,0,37,-14,-10,19,747,95,l,20.791470168711367,43.15175022434469,1404.9329860733462,-531.9649170568981,36.96419280619148
2025-02-19 16:05:27.204,804,20,586,24,9,20,-14,-8,20,647,97,l,-1.954728611632676,53.897473186140544,1611.963898833279,40.09860444858903,-2.8891103436587855
2025-02-19 16:05:27.315,584,-179,708,-25,28,1,-12,-4,17,699,48,l,14.1884736763408,38.64919215448531,1208.550352858338,-370.42896089322346,-49.160359287163146
2025-02-19 16:05:27.421,819,-64,645,6,-11,-14,-13,-6,20,669,58,l,5.666614193486234,51.641442893453664,1603.1425377493993,-125.27609574598479,27.451847559996963
2025-02-19 16:05:28.339,746,-82,648,1,-2,-1,-13,-6,18,672,64,m,7.212058863805513,48.79591156446138,1498.367905099425,-164.6999573969877,-5.531370649366181
2025-02-19 16:05:28.433,737,-73,641,4,-7,-5,-12,-7,17,664,71,m,6.497112351883042,48.80225932143163,1489.4408821473257,-147.5294225193416,-13.429586779424199
2025-02-19 16:05:28.544,1106,-51,712,-3,-2,-16,-13,-8,20,632,94,m,4.097054204618461,57.161370078258415,1946.2011823310295,-89.74345415812161,171.11099292975325
2025-02-19 16:05:28.650,785,96,603,8,-12,36,-13,-6,20,122,98,m,-9.045801261590764,52.12326926374616,1574.3334964937976,192.52995625911407,-3.3287877525604017
2025-02-19 16:05:28.759,756,-150,670,-5,-1,-37,-14,-8,19,741,93,m,12.619322293430773,47.75482965309736,1496.2748009064735,-296.8799208147764,13.936353693998512
2025-02-19 16:05:28.863,797,72,590,-8,-8,38,-13,-6,20,567,98,m,-6.957625148775654,53.285607461811196,1598.6254971982144,144.41786172932427,-3.4241447264070075
2025-02-19 16:05:28.974,806,-135,627,-5,-5,-25,-14,-7,21,792,95,m,12.150911040914206,51.48922577069722,1588.4910817683867,-266.06240203316645,18.287955001515684
2025-02-19 16:05:29.077,851,90,539,9,1,29,-14,-6,21,742,99,m,-9.479559204952375,57.29380387971682,1692.4523539779589,178.99026070272188,6.047216458143453
2025-02-19 16:05:29.189,574,-163,695,-16,20,-1,-14,-5,19,755,46,m,13.199157765027662,38.802096443360654,1200.6323267958392,-340.94611370683236,-63.727294639561364
2025-02-19 16:05:30.003,756,-70,637,3,0,-2,-14,-7,20,666,71,n,6.2710774495011465,49.7132280798768,1518.817636019187,-140.63126259436916,-5.744489608759295
2025-02-19 16:05:30.100,743,-65,639,1,-2,-3,-13,-7,19,654,74,n,5.808231087083648,49.15773560960439,1499.5128522253167,-131.18214723370875,-11.621416651382788
2025-02-19 16:05:30.210,776,-33,561,-6,-4,-9,-15,-8,22,593,95,n,3.3664606634298013,54.08840173417269,1585.9229257098823,-67.44259864487901,-24.52417696294333
2025-02-19 16:05:30.317,823,111,594,-5,-11,34,-13,-9,19,170,97,n,-10.58470817496096,53.71227346383127,1629.0550802936714,219.71459770667985,12.22999065074032
2025-02-19 16:05:30.424,802,-120,630,0,-5,-36,-13,-8,20,752,93,n,10.784297867562598,51.35209695686904,1582.9985949265038,-236.85764512616015,16.497363087659096
2025-02-19 16:05:30.530,802,54,569,-4,-6,55,-14,-7,22,650,99,n,-5.421323727974559,54.52389018117542,1616.3575788311102,108.83205643002486,-8.767409420076774
2025-02-19 16:05:30.639,723,-71,593,-24,51,11,-13,-6,21,766,58,n,6.827533147127067,50.441536599753825,1493.9751410552776,-146.71125174955012,-39.34890545751
2025-02-19 16:05:30.747,735,-96,651,8,-22,-14,-13,-6,18,733,50,n,8.388688900560066,48.16214097901587,1480.0354159342492,-193.310748203657,-8.888511256049128
2025-02-19 16:05:30.851,731,-75,641,-2,0,2,-14,-8,19,705,59,n,6.673530986908531,48.55991109102365,1480.6481770863074,-151.91328766275382,-16.352231891002702
2025-02-19 16:05:30.953,739,-79,630,-4,1,0,-13,-6,19,659,58,n,7.147401883810073,49.33149494698815,1497.492673953236,-160.0837905849873,-16.617570487873536
2025-02-19 16:05:31.067,762,-75,635,-4,0,-1,-14,-6,19,646,58,n,6.736011214119352,49.99912304195194,1528.0346046472196,-150.3971067566161,-3.362170539349563
2025-02-19 16:05:31.169,746,-85,638,-2,-1,-1,-11,-6,19,694,59,n,7.588760845048142,49.21288065146092,1503.141931862257,-171.26952306741532,-9.528890788364606
2025-02-19 16:05:31.279,770,-84,640,0,-3,-1,-13,-7,20,696,62,n,7.4773303066608,50.026985285265035,1536.3470995879998,-167.60150177323635,3.036176965818413
2025-02-19 16:05:33.098,785,-50,620,-1,0,-1,-14,-6,20,780,84,o,4.61064931866061,51.60764264103828,1568.7763047899289,-99.9220576299318,0.9664853888458538
2025-02-19 16:05:33.189,793,-40,608,0,-1,-1,-13,-7,20,779,85,o,3.7640348649057183,52.46254347627738,1585.955199296824,-79.99774019151698,0.03434908894223554
2025-02-19 16:05:33.303,783,-39,607,-1,0,-1,-14,-8,20,778,83,o,3.676224362165559,52.15915463589749,1572.7178787200796,-78.3346069860576,-5.207857449665653
2025-02-19 16:05:33.410,770,-54,622,-1,-1,0,-13,-7,21,780,81,o,4.961790710190867,50.963799005477846,1546.7481850336621,-108.47324934002307,-5.451131286932423
2025-02-19 16:05:33.516,770,-42,620,0,-2,-1,-13,-7,20,778,83,o,3.875406195486407,51.09507550890696,1548.1891731162523,-84.44668216997741,-6.593879652047349
2025-02-19 16:05:33.618,772,-50,616,0,-4,-2,-12,-6,20,782,89,o,4.640458264263634,51.32092353158762,1552.6586842319402,-100.56079561087697,-6.909001926004294
2025-02-19 16:05:33.733,763,-90,616,-2,-3,-3,-15,-8,21,777,94,o,8.312323664630624,50.78862214258735,1537.8189643677365,-181.3941111311877,-9.541916186796016
2025-02-19 16:05:33.840,790,-24,608,-2,-5,-6,-12,-7,20,751,97,o,2.260501911141272,52.395830073375365,1582.245235533072,-48.06820968708066,-1.7279787393767947
2025-02-19 16:05:33.946,790,-31,600,0,-1,0,-14,-9,20,750,97,o,2.957652049708396,52.74676771465264,1585.967854199824,-62.23418162049941,-4.5325474935368675
2025-02-19 16:05:34.051,790,-30,604,1,1,1,-13,-8,21,771,95,o,2.8434801138311885,52.565963401015466,1584.0536683297075,-60.153936772014205,-3.0992603432194983
2025-02-19 16:05:34.159,823,-35,596,-5,8,7,-12,-7,22,784,88,o,3.3608251977734307,54.04183784552022,1632.4459842366439,-69.423583776771,9.815544829842452
2025-02-19 16:05:34.270,710,-32,598,7,-23,-8,-14,-7,20,815,92,o,3.063073413259924,49.85375604642985,1474.4012736912568,-66.45188839171861,-45.8196643202416
2025-02-19 16:05:34.376,802,-85,642,-5,-4,-22,-13,-7,22,777,98,o,7.542024810362029,51.07966578299942,1580.0202360348135,-167.45850381915102,19.19577115417701
2025-02-19 16:05:34.484,920,134,507,-18,-26,81,-14,-8,19,522,97,o,-14.804734663625311,60.31642777447994,1788.773536023969,260.5387541600129,28.23023612592135
2025-02-19 16:05:34.593,751,-146,646,9,0,-58,-14,-8,21,785,101,o,12.735244278889361,48.59152623510368,1501.013256644454,-291.80816973380865,0.8487832325998852
2025-02-19 16:05:34.699,931,108,601,-32,63,41,-13,-6,19,752,64,o,-10.187351260215651,56.739827124481295,1767.1887931093863,205.0014926485647,61.20465665011682
2025-02-19 16:05:35.709,781,-67,626,5,-9,5,-14,-6,20,756,62,p,6.109040056863552,51.12721665792358,1559.5413559068554,-133.78907918791205,1.9706929607024222
2025-02-19 16:05:35.810,775,-67,634,-3,-4,1,-14,-5,19,773,65,p,6.032526391113012,50.558607203439365,1547.2748168002545,-133.76440351692523,2.2293756756629364
2025-02-19 16:05:35.916,750,-91,622,2,-6,0,-13,-6,22,776,67,p,8.323450707442925,50.03153975626919,1516.3981639994101,-183.98964389859512,-13.59954401017751
2025-02-19 16:05:36.019,797,-78,612,2,-6,-2,-13,-6,21,782,77,p,7.263244740584562,52.256866751417235,1587.7629407273644,-155.3895977123393,4.789310257030138
2025-02-19 16:05:36.132,802,-2,592,-8,5,-12,-14,-6,21,788,77,p,0.19356608626323946,53.56678349150419,1606.5496349688647,-4.006358191942306,-1.882024814922488
2025-02-19 16:05:36.244,738,-74,612,-6,-6,-21,-13,-6,21,823,86,p,6.89445107631267,50.127707980923766,1505.475264249689,-150.9555143014593,-24.44290206071753
2025-02-19 16:05:36.350,778,-194,584,7,1,-30,-13,-9,22,798,98,p,18.37606315042473,51.65683857424226,1562.3092627909398,-389.57326090159677,-4.7360018893429014
2025-02-19 16:05:36.454,826,98,587,16,7,35,-13,-5,20,519,101,p,-9.478149771024421,54.227644728215125,1637.3459616938512,194.26138528571113,10.41394731926107
2025-02-19 16:05:36.567,777,-111,656,-19,-18,-26,-13,-9,22,855,96,p,9.603897851474423,49.427422480027445,1536.5826890775702,-219.51181272536718,14.70496263206428
2025-02-19 16:05:36.670,833,45,517,10,14,42,-13,-9,23,724,101,p,-4.974522948240512,58.0773059343187,1681.7623139250795,90.85150555417596,-9.782852700199328
2025-02-19 16:05:36.779,619,-108,734,-34,54,11,-13,-6,19,762,41,p,8.370380615670145,39.83962478576163,1259.6408781709074,-219.7757913448433,-25.66139673254611
2025-02-19 16:05:37.589,803,-28,613,-9,1,-7,-12,-8,21,779,68,q,2.615281407451389,52.61354354941465,1597.558169555351,-55.705639785242624,6.4443861302241885
2025-02-19 16:05:37.689,753,-66,618,1,-6,-6,-13,-6,21,825,71,q,6.0958615445958175,50.464274104311386,1524.227816691302,-133.59765723987508,-14.959881427921005
2025-02-19 16:05:37.801,747,-44,621,7,-11,-6,-15,-6,21,842,84,q,4.052831375271473,50.19185676112304,1515.192539391707,-89.24828879951153,-17.617894193105826
2025-02-19 16:05:37.901,758,-122,671,2,-1,-23,-12,-8,21,822,98,q,10.304846468766033,48.021110251413184,1501.3913117816865,-241.64873355853,12.93196542808505
2025-02-19 16:05:38.018,867,191,559,-5,-11,40,-14,-8,18,800,96,q,-18.86435240697452,55.73145678198293,1693.4075595365912,373.0574900478534,26.17205792277457
2025-02-19 16:05:38.125,786,-185,552,5,-4,-26,-12,-10,20,856,98,q,18.528315029545873,53.473316075653855,1589.579751191582,-374.13772769776415,-12.346084806301747
2025-02-19 16:05:38.230,821,214,498,14,4,25,-14,-6,19,561,99,q,-23.254109662466547,56.56676953368295,1655.528454471873,431.5262962935211,-8.206053991465012
2025-02-19 16:05:38.336,975,85,609,-15,69,34,-13,-6,21,839,67,q,-7.945617961074972,57.76159984058164,1820.835837516866,158.73953455275245,80.67792302792668
2025-02-19 16:05:38.442,700,-67,645,-4,-17,-22,-11,-5,19,752,44,q,5.9303855974660165,47.188395329225266,1433.592235606968,-137.21525683666692,-30.952845666420444
2025-02-19 16:05:39.259,767,-52,639,0,-8,-3,-12,-7,18,782,68,r,4.652315834357816,50.10876016166569,1534.263216432599,-104.01784518187111,-0.21928983107000022
2025-02-19 16:05:39.349,777,-25,621,2,-5,-4,-13,-6,21,786,74,r,2.305348506496879,51.34455268807484,1557.9163544698938,-50.12600883107766,-3.130059363969167
2025-02-19 16:05:39.466,734,-31,618,2,-8,-13,-12,-6,20,793,83,r,2.8716531930257205,49.86842592453247,1498.566326567516,-63.290948397265666,-25.735680951941276
2025-02-19 16:05:39.569,776,-34,615,0,1,-8,-14,-9,20,747,96,r,3.16435035272113,51.55970405361689,1559.256412211147,-68.31793558657088,-5.750893698267305
2025-02-19 16:05:39.679,817,167,546,-1,-3,22,-13,-7,21,692,96,r,-17.006818019020468,55.05184713168208,1636.6707399641816,334.54591624726845,-1.7848519222070536
2025-02-19 16:05:39.782,717,-239,651,-6,0,-21,-13,-9,20,823,99,r,20.1595744236569,45.95510562560365,1435.7952767766583,-478.59842559221954,-1.6300211737863037
2025-02-19 16:05:39.893,739,-2,565,-19,58,28,-14,-7,21,833,63,r,0.2028160715146305,52.60022622095981,1533.4170186316096,-4.149978399544274,-42.36889787125756
2025-02-19 16:05:40.000,725,-71,645,8,-12,-6,-14,-5,18,802,47,r,6.281686885869139,48.170536389413506,1470.1331454638353,-143.97165976266524,-17.911556998860192
2025-02-19 16:05:40.719,757,-57,636,0,-8,-3,-13,-6,20,785,66,s,5.1213165107786125,49.85150022578393,1521.3758886881405,-114.5553839567028,-6.196915727420446
2025-02-19 16:05:40.815,762,-73,625,3,-8,-4,-12,-8,20,810,79,s,6.66196178263318,50.45059055401759,1533.0757697096342,-146.8694635023665,-7.444036835329712
2025-02-19 16:05:40.922,761,-48,604,-2,-4,-3,-13,-8,23,830,88,s,4.543757651467153,51.47337706448847,1543.3188160454656,-97.34468222100176,-16.920584614272116
2025-02-19 16:05:41.032,792,-15,619,-4,-4,-2,-14,-9,22,839,98,s,1.3881559380565225,51.98187825731615,1579.815990274526,-29.920757391562987,3.270078308167399
2025-02-19 16:05:41.138,844,-64,496,25,15,-10,-13,-7,21,743,99,s,7.3523793598923595,59.35114888153435,1704.307698941303,-129.23660276332154,-9.583671415742003
2025-02-19 16:05:41.242,663,-55,637,-2,-2,29,-13,-7,19,719,99,s,4.934806648324498,46.039451607740034,1382.8179440561357,-114.71340410722092,-54.58978938726784
2025-02-19 16:05:41.349,923,38,612,-31,72,33,-12,-6,20,722,63,s,-3.5530197152412164,56.40263267691256,1755.9466675528536,72.29249552221933,59.71033527373095
2025-02-19 16:05:41.462,678,-77,666,2,-28,-16,-12,-5,18,779,45,s,6.59500575474389,45.32137694538754,1389.0618596083134,-157.75481296436595,-32.47669395152877
2025-02-19 16:05:42.379,770,-39,645,1,-9,-10,-14,-9,21,763,72,t,3.460183228986457,49.99688774021559,1536.0095262927207,-77.79788509794301,3.342669534019592
2025-02-19 16:05:42.469,758,-22,627,-2,-4,-9,-12,-9,20,786,80,t,2.009553813021139,50.38592477620497,1528.356630589029,-44.35863571630426,-10.221117914671595
2025-02-19 16:05:42.584,737,-26,627,-4,-3,-13,-13,-9,20,817,89,t,2.3745411289512472,49.58635627678338,1498.3839505206838,-52.86022077820595,-20.74455492058189
2025-02-19 16:05:42.689,715,-114,615,21,4,-18,-12,-11,20,803,99,t,10.501485008651315,48.820809921484155,1467.654096359658,-234.0035901888126,-32.387789176489036
2025-02-19 16:05:42.793,847,174,574,10,-1,43,-14,-7,20,794,91,t,-16.86393940977817,54.69622125542884,1663.099477708281,341.6520768845819,20.94084981752883
2025-02-19 16:05:42.903,562,-48,632,23,14,-45,-13,-8,19,763,76,t,4.343239951689387,41.56298220154173,1225.4429348833878,-104.66416525694414,-114.07817588309774
2025-02-19 16:05:43.008,888,162,579,-56,-43,14,-14,-9,19,744,92,t,-15.631234391322202,55.899335159462844,1716.0538291045048,313.06387422852447,39.08652359064388
2025-02-19 16:05:43.116,980,53,606,3,43,17,-14,-8,19,852,83,t,-4.998298861361382,58.17097583402745,1829.6256453997676,98.9491420471303,80.6192437630009
2025-02-19 16:05:43.227,634,-82,689,1,-11,-5,-13,-6,17,744,46,t,6.787022285373407,42.418752925513104,1308.5440481124488,-169.2438674214839,-44.061276261004764
2025-02-19 16:05:44.042,751,1,645,7,0,-4,-14,-8,20,705,76,u,-0.08883059473771729,49.342172815017406,1509.614110734265,2.010138629473056,-6.539416010120931
2025-02-19 16:05:44.136,744,25,644,2,1,-1,-14,-9,19,682,80,u,-2.2230987677893093,49.099469876049675,1499.847411205897,50.398098494821795,-10.255017226609539
2025-02-19 16:05:44.247,736,15,642,3,-2,-6,-12,-9,19,665,85,u,-1.3384429210237367,48.89462991957619,1489.501776112752,30.356693806645765,-15.266494924438689
2025-02-19 16:05:44.353,744,1,648,-6,-3,-6,-14,-8,18,597,93,u,-0.08841934263875041,48.945152439605145,1498.0812085583684,2.0135500115031837,-8.780407454062697
2025-02-19 16:05:44.464,792,154,615,-4,-19,52,-14,-9,19,703,90,u,-14.058162280748984,51.32307299772739,1572.6821291307606,305.7993028865368,8.788498212856439
2025-02-19 16:05:44.571,702,-104,677,-6,-2,-28,-14,-9,20,793,93,u,8.733442586992588,45.7046618632808,1417.7495577990287,-210.036971525782,-13.259901182254112
2025-02-19 16:05:44.682,744,104,665,-11,-12,61,-13,-9,19,695,92,u,-8.888543890770439,47.86493139222271,1485.5653589151746,207.65967382685238,2.176124087915241
2025-02-19 16:05:44.783,699,-39,629,-16,46,-5,-15,-8,21,784,66,u,3.5479785525509024,47.96265423115819,1441.7085238808365,-80.43867300622694,-39.33141848504465
2025-02-19 16:05:44.894,700,-50,666,2,-10,-5,-13,-6,19,682,55,u,4.293430729297305,46.345395731173134,1423.5143085036766,-101.67959346454833,-22.37218494778358
2025-02-19 16:05:45.609,746,-28,645,1,1,-2,-13,-9,19,687,67,v,2.4856979950378006,49.12625041688099,1502.1533633938443,-56.38109138743653,-8.778712317734062
2025-02-19 16:05:45.706,753,-30,637,-2,0,-2,-14,-8,20,690,70,v,2.6963959927764782,49.73916487488913,1516.110268529454,-60.40279954300614,-8.552776963163751
2025-02-19 16:05:45.813,743,-8,641,5,-9,-6,-12,-8,19,713,80,v,0.715042807358066,49.21283849363945,1500.1414512051122,-16.152263270041583,-12.200094512081819
2025-02-19 16:05:45.919,811,26,648,6,4,-11,-14,-9,20,631,92,v,-2.297672261204155,51.35219556221307,1591.999669738715,51.03821382639529,23.97067078830196
2025-02-19 16:05:46.030,841,-172,610,8,-4,-5,-14,-11,19,646,93,v,15.74671172284114,52.997979621275135,1639.6142881924231,-335.3313407480343,30.74350083545994
2025-02-19 16:05:46.140,810,57,546,-14,-18,-26,-14,-8,19,746,95,v,-5.9598391107130535,55.87304216666602,1637.7964606757957,115.25234352903749,-11.996132751832533
2025-02-19 16:05:46.242,829,-19,643,-6,-1,19,-13,-9,19,839,93,v,1.692539870085963,52.18954424494262,1619.0431514346276,-37.107140985835855,30.21622874250238
2025-02-19 16:05:46.348,604,-106,664,-1,7,7,-13,-7,17,758,47,v,9.070083390345093,41.93223279641321,1272.2511759439867,-223.27586862593148,-70.63374309074061
2025-02-19 16:05:46.455,791,-27,647,1,-8,-5,-14,-8,18,722,58,v,2.3896274620464246,50.69405253364547,1564.7744588051403,-53.41202324619316,14.089665174556558
2025-02-19 16:05:47.278,740,-41,647,0,-1,-1,-16,-7,19,633,69,w,3.6259506442862515,48.77910941687678,1492.174694480855,-82.67454388339874,-10.6446315258288
2025-02-19 16:05:47.373,699,-62,646,13,0,1,-16,-7,20,582,73,w,5.482184309546492,47.12563107969076,1431.8473437350663,-127.00219644002016,-31.28095000408109
2025-02-19 16:05:47.481,615,-40,647,19,-24,-32,-13,-9,18,215,91,w,3.5377402260431254,43.492914936118886,1303.264872310216,-84.76519494700591,-77.07702826782076
2025-02-19 16:05:47.589,882,-98,696,-1,-8,-10,-14,-9,19,225,90,w,8.01481925115025,51.448668043748626,1664.0501247297584,-184.89445830330655,78.87201041733329
2025-02-19 16:05:47.695,830,44,550,-8,-20,-20,-13,-8,19,773,94,w,-4.573921259900861,56.38532341053867,1662.7794594788331,88.14734483984176,-1.8418104980218004
2025-02-19 16:05:47.802,928,-84,704,8,-21,51,-14,-9,20,800,94,w,6.804259562608425,52.62010801018063,1722.627730756784,-155.92751011160544,101.17896287416374
2025-02-19 16:05:47.913,727,-84,587,-11,-11,-39,-14,-7,20,815,100,w,8.143766980539661,50.797490138584436,1501.9168016987142,-173.5364667712407,-38.68935707997957
2025-02-19 16:05:48.015,860,30,584,-25,60,40,-13,-7,20,807,66,w,-2.940691468786437,55.785662774057705,1686.9398972473787,58.84674060165275,22.450116287826518
2025-02-19 16:05:48.829,787,-17,611,-1,-3,-2,-13,-8,20,791,86,x,1.5937430867796358,52.164713779297436,1576.7773971661893,-34.05999460206509,-2.156276580103736
2025-02-19 16:05:48.928,789,-13,602,3,-4,-1,-14,-7,21,794,91,x,1.2370920012401077,52.65024848782348,1583.9469845193296,-26.097985803233566,-4.537496426662074
2025-02-19 16:05:49.035,783,-21,613,7,0,-3,-15,-9,20,800,96,x,1.9620571081854015,51.926782743720366,1570.2233675816688,-42.113270394910664,-3.30641676572543
2025-02-19 16:05:49.145,534,-142,655,23,15,-10,-14,-8,20,721,99,x,12.23208517260435,38.54638225438597,1157.1479719377862,-307.7060150096735,-109.34816782631071
2025-02-19 16:05:49.251,824,94,603,0,15,28,-13,-9,19,502,93,x,-8.860368224696888,53.47508011638079,1627.598075928679,185.67259604040754,14.93004880461956
2025-02-19 16:05:49.359,786,-21,609,7,8,-34,-14,-9,20,453,88,x,1.9749340108819768,52.21466384410552,1576.3118492449535,-42.11520207906364,-3.340860292845491
2025-02-19 16:05:49.465,815,15,629,9,-4,15,-14,-7,21,770,96,x,-1.3660951167989142,52.331910961303315,1606.564001039008,29.568662595809954,18.08741514903579
2025-02-19 16:05:49.576,574,-167,727,-12,16,10,-13,-5,17,696,43,x,12.937044685576247,37.578453124315956,1183.8471692112967,-344.429402889001,-45.40225090002218
2025-02-19 16:05:50.392,713,-62,643,8,-15,-5,-13,-8,19,629,81,y,5.507605242346183,47.82323712686648,1454.0769612939214,-126.4414748951236,-25.32045738007207
2025-02-19 16:05:50.489,764,-10,635,-5,6,1,-13,-8,19,653,85,y,0.9022211615301559,50.26478109624454,1533.0067681914215,-20.06553361507096,-4.161384557006272
2025-02-19 16:05:50.595,733,-10,635,1,-3,-12,-14,-10,20,642,90,y,0.9022211615301559,49.09400673030882,1488.7849776447633,-20.310845534034968,-19.738691411220657
2025-02-19 16:05:50.702,771,-69,606,-6,3,-18,-12,-11,21,404,95,y,6.495801845417635,51.65350877013831,1555.2732080135609,-139.187874647128,-10.432638205211447
2025-02-19 16:05:50.813,859,119,601,-4,-11,8,-14,-9,20,796,94,y,-11.199889498867005,54.50224623771177,1673.1382837509586,231.78516387236795,31.387533720225747
2025-02-19 16:05:50.919,834,99,535,15,-10,8,-14,-8,20,825,94,y,-10.483806894638048,56.88048078271212,1671.532624939471,198.4193403705127,-2.2661323052959688
2025-02-19 16:05:51.018,784,72,527,-6,-2,36,-13,-5,21,366,100,y,-7.779720407489019,55.84552662557649,1611.5269386874434,147.99737192027538,-29.258541694237692
2025-02-19 16:05:51.132,530,-108,623,-33,33,4,-12,-6,17,456,50,y,9.834754426911614,39.97042849325957,1172.392153112652,-238.902551955031,-132.11379507392883
2025-02-19 16:05:51.239,844,-17,661,2,-20,-16,-13,-7,19,717,62,y,1.4732429363891024,51.923632237123485,1631.1894578474662,-32.855711828681194,44.49261654363136
2025-02-19 16:05:51.959,764,-17,625,2,-1,0,-13,-10,19,740,79,z,1.558061039906582,50.704293415556634,1537.8876694666644,-34.22001358760902,-8.088734838566893
2025-02-19 16:05:52.054,760,-9,632,3,-2,-4,-12,-8,18,742,81,z,0.8158657634141194,50.25094694382829,1528.8524001607648,-18.104831054535374,-7.361469607372669
2025-02-19 16:05:52.160,741,0,662,9,7,-8,-14,-8,19,624,82,z,0.0,48.222802511867826,1486.741206504796,0.0,-4.235733746525284
2025-02-19 16:05:52.267,871,36,541,7,-1,-6,-13,-9,19,0,92,z,-3.8070455398202743,58.0977855541995,1719.9512631861678,71.08868596406663,13.695024817776584
2025-02-19 16:05:52.377,627,-70,792,24,-18,4,-13,-10,20,831,93,z,5.050896168897961,38.25904827530027,1246.217960563376,-139.13119176943593,9.829944551524932
2025-02-19 16:05:52.484,884,55,516,6,15,-6,-13,-9,20,158,91,z,-6.084136551277377,59.58634662029858,1746.3930586800425,108.6556767278307,12.61219651707944
2025-02-19 16:05:52.586,756,21,679,8,-6,7,-13,-7,20,768,95,z,-1.771469740034077,48.057845655439564,1499.8199989740335,41.6616666381676,10.939445365914366
2025-02-19 16:05:52.697,1310,33,776,15,5,-22,-12,-9,18,698,89,z,-2.4350801319845035,59.33622196564435,2170.174861183208,54.6685270374396,266.4613036044505
2025-02-19 16:05:52.803,691,32,663,5,-10,10,-12,-9,20,804,96,z,-2.7632627634601046,46.15137549513501,1412.1725756169608,65.39728280715305,-28.94995316070208
2025-02-19 16:05:52.913,629,-63,634,-30,48,19,-13,-8,17,720,48,z,5.674800057968369,44.632440770421304,1331.5560883306273,-133.3673029647528,-74.14079491513155
2025-02-19 16:05:53.019,814,21,652,5,-14,-8,-13,-7,18,633,50,z,-1.8447784674740386,51.291378289682726,1594.3363137185147,41.13152652099362,26.964033729150515
2025-02-19 16:05:54.442,811,-43,608,14,-15,2,-13,-8,20,730,80,0,4.045432721446205,53.07278293899591,1610.3993522581568,-85.3849224995077,8.696909774402911
2025-02-19 16:05:54.532,787,29,595,-2,2,-8,-14,-9,19,777,92,0,-2.7903592675461404,52.87671747854638,1584.3387453994633,58.38097028790906,-7.8164593553754
2025-02-19 16:05:54.639,782,16,603,-1,0,-6,-13,-9,20,799,92,0,-1.5199293869051431,52.35444219939636,1573.8042460155198,32.200598383949256,-7.560051595087543
2025-02-19 16:05:54.749,762,-17,676,-3,-6,-9,-13,-10,19,823,96,0,1.440566565817553,48.41352242851597,1509.9547634937653,-33.686654828601064,12.46007858033397
2025-02-19 16:05:54.859,875,-135,562,35,20,-28,-14,-11,19,706,99,0,13.507300396287336,56.552980256286034,1709.3958305368553,-263.7353567114005,26.07947798661405
2025-02-19 16:05:54.965,801,254,688,-35,-30,27,-12,-9,18,683,94,0,-20.26344244184315,47.52302206985203,1538.5487368079202,487.879374718117,54.49996139344705
2025-02-19 16:05:55.071,894,112,539,16,21,-23,-14,-11,22,804,98,0,-11.738571206722323,58.375786926815735,1745.5054227783162,218.67629457625435,25.620332351775915
2025-02-19 16:05:55.178,580,-11,691,-30,27,31,-13,-8,17,755,44,0,0.9120120760351138,40.005287671440605,1222.8583031044054,-23.192140231290445,-74.8880818019727
2025-02-19 16:05:55.998,783,46,616,4,-6,-8,-14,-10,21,597,84,1,-4.270654409609338,51.72980085039087,1568.0986256706785,92.12329090785596,-1.6510260704187658
2025-02-19 16:05:56.092,782,40,643,1,1,-5,-14,-12,20,507,96,1,-3.559691527039861,50.516934134490995,1553.8125466736078,79.4789026431513,8.376640011342943
2025-02-19 16:05:56.198,794,47,608,16,10,6,-13,-11,21,275,96,1,-4.4203236835557655,52.4747430998943,1587.0849114001107,93.94583228690831,0.700722756590153
2025-02-19 16:05:56.309,684,-72,704,4,-6,-13,-14,-12,20,811,102,1,5.839492311517449,44.02549706378832,1378.9784134253878,-145.15562246583028,-11.299419665896153
2025-02-19 16:05:56.412,847,225,536,5,2,46,-14,-9,20,617,97,1,-22.77150090342609,55.53756417737367,1671.4973579264586,444.0223205825894,14.240160745475919
2025-02-19 16:05:56.526,428,-110,646,23,-31,-21,-13,-8,19,628,88,1,9.663560947300589,33.150061693514196,974.8337019759441,-250.5413720031632,-179.36114830948566
2025-02-19 16:05:56.633,628,22,653,-6,-31,18,-13,-8,22,684,100,1,-1.9296026899594663,43.865720548660114,1320.9706061857057,46.27604034408523,-67.5570156676207
2025-02-19 16:05:56.739,928,76,602,-36,81,14,-14,-8,21,643,66,1,-7.195289142176633,56.821092717737734,1764.9658352396082,144.54461581703686,59.05449050189213
2025-02-19 16:05:57.559,749,61,572,5,-3,-10,-13,-9,21,309,51,2,-6.087207609816477,52.4751875780472,1542.0896366208583,125.59074477152515,-33.67059031659653
2025-02-19 16:05:57.653,755,1,489,-19,45,-2,-14,-10,19,345,62,2,-0.11716911992492297,57.06953681454148,1594.330949313703,2.1116966216075532,-54.61964796609368
2025-02-19 16:05:57.759,563,-49,630,5,-11,-19,-12,-9,20,620,57,2,4.44738485009049,41.69975974323243,1228.227223791794,-106.8972184117192,-114.39280815067536
2025-02-19 16:05:57.866,731,32,627,3,1,-13,-14,-10,19,591,82,2,-2.921651556703206,49.34251569930263,1489.6180098367647,65.20899632664361,-23.68877177517311
2025-02-19 16:05:57.979,952,189,578,-24,-26,-27,-14,-11,21,686,99,2,-18.107207428954556,57.43048540396372,1794.7389418789783,356.30846640244425,66.33707100204884
2025-02-19 16:05:58.083,641,70,664,34,15,60,-12,-10,21,749,93,2,-6.017989303221021,43.832094020241676,1333.5473566026549,145.62919650887028,-53.39694974128349
2025-02-19 16:05:58.193,1052,98,627,-13,-38,-3,-13,-11,19,573,92,2,-8.883446723716114,58.89978005436404,1908.2651017385194,177.76614065624992,116.65948784215618
2025-02-19 16:05:58.292,802,62,613,10,3,19,-12,-8,22,740,0,2,-5.775365470467081,52.467136548257784,1595.004039205859,123.30455165930579,6.875965045895896
2025-02-19 16:05:58.407,615,-148,675,-20,31,15,-14,-8,18,501,38,2,12.366930250805106,41.668115142415054,1279.8147506965097,-307.9879400050137,-54.67472637421804
2025-02-19 16:05:59.324,728,0,659,-6,-4,-12,-14,-8,19,709,62,3,0.0,47.847982900673195,1469.3668753005768,0.0,-12.099959921813138
2025-02-19 16:05:59.418,770,48,642,3,-3,-13,-14,-9,19,743,74,3,-4.275841112628942,50.10122802343693,1537.1788998625693,95.82413921221213,2.3521380366627227
2025-02-19 16:05:59.524,760,29,650,-3,0,-6,-13,-10,19,756,78,3,-2.554579147616633,49.43270677589274,1519.6426721643538,57.98636512206086,0.3056093331184684
2025-02-19 16:05:59.631,723,43,657,-1,1,-9,-13,-10,18,737,82,3,-3.744611405587921,47.67719317925535,1462.3631409897794,86.97318819164664,-14.86941027701937
2025-02-19 16:05:59.737,927,7,686,7,-3,-11,-13,-12,20,712,97,3,-0.5846305207051778,53.49633387436159,1730.8187986627336,13.06982911611557,91.15674662067397
2025-02-19 16:05:59.844,836,37,664,0,11,6,-14,-11,20,743,92,3,-3.1893881779143793,51.498083905394694,1618.5873381809338,71.6360424792997,42.423453884999844
2025-02-19 16:05:59.959,607,13,644,12,-39,-22,-13,-12,17,744,99,3,-1.156434761718486,43.30006905628633,1292.819230081956,27.688055998460342,-83.623697154497
2025-02-19 16:06:00.065,729,111,635,-24,-21,11,-14,-11,20,836,100,3,-9.915301590462628,48.51482280411889,1478.1271199936452,225.06462320890893,-17.531853492407095
2025-02-19 16:06:00.172,839,185,584,10,1,15,-15,-12,19,787,96,3,-17.577203094681654,53.86468335840409,1646.6265546971672,363.0821366137974,21.8380119867154
2025-02-19 16:06:00.278,724,-1,716,-4,-7,17,-13,-11,19,818,93,3,0.080021986395137,45.318278672547265,1435.0238367996635,-1.9820771226514688,12.832780181548287
2025-02-19 16:06:00.385,899,129,428,7,14,22,-14,-9,20,510,94,3,-16.772904934160515,63.56164163006047,1794.4138852376127,257.48541846012466,1.707293791214454
2025-02-19 16:06:00.491,562,-32,675,-50,35,5,-12,-7,18,585,43,3,2.714212216121763,39.74889368642374,1201.424156437096,-68.40849289321542,-92.99164696626292
2025-02-19 16:06:01.309,774,43,627,0,-3,-2,-12,-11,20,660,83,4,-3.9232326225476606,50.924081718072735,1550.3114148773793,86.1284119376322,-1.8724252301251454
2025-02-19 16:06:01.404,750,41,615,-4,3,-1,-13,-9,19,666,82,4,-3.8140748342903548,50.58594358285263,1522.577831325224,83.23425477911223,-18.513821686683514
2025-02-19 16:06:01.512,763,75,565,-6,-4,-6,-13,-11,20,714,96,4,-7.56142842766696,53.240503061814245,1564.1546276827835,153.75045488362878,-28.25342679000346
2025-02-19 16:06:01.619,808,83,625,15,9,18,-14,-11,21,432,94,4,-7.564617284183111,52.03487609078041,1596.3853623467369,163.9851300430435,15.172213531298894
2025-02-19 16:06:01.728,669,47,677,13,-19,4,-14,-10,19,770,94,4,-3.971326137783977,44.59059935132441,1371.0362198142802,96.32093024106302,-33.43127177020585
2025-02-19 16:06:01.839,791,173,578,0,27,-41,-13,-10,21,836,88,4,-16.662860190931845,52.66543896907344,1586.1078016634208,346.8984193271451,-3.001655324218973
2025-02-19 16:06:01.941,943,13,646,4,-5,25,-13,-12,19,792,97,4,-1.1528554361041623,55.581587471898175,1767.9318983096819,24.37233794064249,80.88228387268873
2025-02-19 16:06:02.048,824,104,621,8,13,30,-14,-9,19,705,94,4,-9.507201399510171,52.61524149852558,1618.5761631040878,204.28631184808873,22.175003291700932
2025-02-19 16:06:02.158,543,-154,726,-16,21,-2,-13,-7,19,716,43,4,11.976132444203357,36.19123439564503,1133.4822049343443,-321.4664080292615,-63.484494995089904
2025-02-19 16:06:02.975,770,41,630,0,0,-2,-13,-10,20,758,92,5,-3.723522102530917,50.6512411092242,1543.3009204424845,82.17576329628812,-2.700753089305408
2025-02-19 16:06:03.067,780,47,642,3,7,-2,-14,-9,21,751,93,5,-4.187081253013432,50.46783714169605,1551.2674007394478,93.47380491635133,7.187600929839164
2025-02-19 16:06:03.179,830,56,596,-11,-1,-3,-14,-10,19,634,99,5,-5.367736847156145,54.19953627728296,1641.0590846147056,110.72205872099221,13.600946469440146
2025-02-19 16:06:03.289,673,47,702,0,-13,13,-14,-11,21,818,100,5,-3.8303258822179234,43.72775531107679,1364.2325508754284,95.27329850095862,-19.018203141977324
2025-02-19 16:06:03.395,519,63,542,-6,29,-16,-14,-9,18,694,76,5,-6.6300889862709775,43.566132969382764,1208.1913716790332,146.65906823849537,-177.73357119467437
2025-02-19 16:06:03.498,743,85,645,5,-5,38,-14,-10,20,701,92,5,-7.507346666949661,48.79435409733775,1495.3499982530352,171.0696498674401,-8.116754876457208
2025-02-19 16:06:03.613,640,-83,742,-12,-11,4,-13,-10,19,796,90,5,6.382564005241236,40.60277019190868,1290.810926490651,-167.40204202925628,-12.533917900098231
2025-02-19 16:06:03.716,840,194,469,0,18,20,-14,-10,20,432,93,5,-22.472240501791166,58.85902151937481,1695.897436133976,391.6715507261802,-8.876068508136768
2025-02-19 16:06:03.825,516,-34,732,-25,16,1,-13,-9,18,533,44,5,2.659368013122919,35.151630726566644,1091.74227460767,-71.93650646639686,-84.75066862948529
2025-02-19 16:06:04.640,765,31,636,-2,0,0,-14,-9,19,754,74,6,-2.7905103166091,50.227372131318674,1533.589237957998,62.14544624404958,-2.9839939101784694
2025-02-19 16:06:04.735,768,8,631,-2,-7,-4,-13,-9,20,773,79,6,-0.726373501367963,50.590717630617405,1540.6307319943417,16.048236791607724,-3.8046769380592877
2025-02-19 16:06:04.845,770,40,600,-1,1,-9,-14,-11,20,779,97,6,-3.8140748342903548,52.01192659791965,1558.1388916426113,80.94228008533045,-14.134201279956756
2025-02-19 16:06:04.952,819,-28,612,39,18,3,-11,-12,20,549,96,6,2.619548795394677,53.20224691040726,1619.7548616332247,-55.37623458575126,13.633729768579428
2025-02-19 16:06:05.060,704,85,724,-9,-16,20,-14,-9,20,711,92,6,-6.696061576531788,44.0016014469419,1398.6784761105162,168.87453191675266,9.586339909071512
2025-02-19 16:06:05.169,942,40,489,20,30,-11,-14,-11,19,734,90,6,-4.6763597650773825,62.48760197554479,1828.9108963168499,77.66075992852868,28.59720987373703
2025-02-19 16:06:05.275,616,5,728,-36,24,20,-13,-8,17,627,38,6,-0.39350878182929977,40.23569196781433,1261.9333633526599,10.242965611628733,-35.37579305314364
2025-02-19 16:06:06.193,780,48,634,-3,1,-2,-11,-10,19,697,75,7,-4.329591058586769,50.81491515814755,1555.1089914396491,95.69901485782457,3.975512086234062
2025-02-19 16:06:06.287,755,49,633,-2,0,-5,-13,-10,19,649,76,7,-4.426391160771683,49.93888977451319,1520.3584265657378,98.67226874400151,-8.684614590876777
2025-02-19 16:06:06.394,847,78,730,5,-1,-24,-13,-12,20,413,97,7,-6.098875208569109,49.08219316409739,1602.649947134376,147.58759843740415,78.7314505217305
2025-02-19 16:06:06.504,708,-7,653,-5,-16,9,-15,-12,22,802,98,7,0.614173192794239,47.312506488203205,1443.0626059247663,-14.267568137674242,-24.96028484303997
2025-02-19 16:06:06.611,838,279,490,10,-2,53,-14,-11,21,517,94,7,-29.656656453209592,56.06469022371877,1667.6684048890224,555.2261157088749,4.871696425273399
2025-02-19 16:06:06.721,527,-136,625,-24,31,-25,-14,-8,19,689,75,7,12.276191020238077,39.48577198051388,1162.8865863864091,-300.0997642287507,-129.1349459041852
2025-02-19 16:06:06.827,825,168,548,-6,-46,12,-13,-10,21,663,97,7,-17.04393393631568,55.21013105403479,1646.2501100118893,335.23638603878476,2.4908360163450425
2025-02-19 16:06:06.934,910,56,509,12,41,-10,-14,-10,21,798,92,7,-6.278410683469476,60.63285925017777,1781.4952021678341,109.63047397955901,21.537299007222543
2025-02-19 16:06:07.040,643,-39,670,2,-8,-2,-12,-9,18,633,51,7,3.331368318829166,43.77354996716455,1334.8099066230066,-80.96047645147317,-50.859467243257086
2025-02-19 16:06:07.859,792,20,596,-1,-1,-1,-13,-10,21,703,94,8,-1.921955958931432,53.02212366617829,1590.8678298312639,40.173430046244036,-5.168215378072205
2025-02-19 16:06:07.954,758,10,606,-3,1,-8,-13,-9,21,621,98,8,-0.9453891044644397,51.35482828646125,1539.0283659504007,20.30380430013721,-18.410540588314802
2025-02-19 16:06:08.060,875,13,572,14,12,29,-12,-9,17,117,93,8,-1.3019526725788753,56.82000566498133,1711.9554522088388,25.434766718531325,24.870264384621805
2025-02-19 16:06:08.171,688,80,650,16,-3,-54,-14,-7,20,746,98,8,-7.016501744722909,46.41174924647903,1412.3132616875637,164.22247228925156,-34.30758735016889
2025-02-19 16:06:08.278,844,91,617,-17,-18,-24,-14,-11,20,826,98,8,-8.389945377767921,53.537416969423,1648.2451377898035,177.71363452472997,29.062499980676876
2025-02-19 16:06:08.379,821,175,482,4,13,46,-14,-11,21,697,98,8,-19.954468180642923,58.01165607300059,1669.1558837135665,355.78840395843383,-15.94291833122918
2025-02-19 16:06:08.494,557,-19,679,-22,29,19,-12,-8,21,755,52,8,1.602850972808296,39.35185654126401,1191.0809906499985,-40.629333612836575,-93.96408016400176
2025-02-19 16:06:09.711,786,11,626,-1,-2,-3,-14,-8,17,790,73,9,-1.0066912438023023,51.46055365552331,1568.1793896389363,21.946530898254835,3.0428779720431294
2025-02-19 16:06:09.805,765,1,623,1,-4,-3,-13,-9,19,809,77,9,-0.09196746437614785,50.8413130775037,1540.400011453091,2.013594786213191,-8.469551810818075
2025-02-19 16:06:09.912,772,24,608,3,-9,-5,-14,-9,21,829,86,9,-2.260501911141272,51.755594975662554,1557.3773821229272,48.41587716444333,-10.535554832564458
2025-02-19 16:06:10.023,781,10,620,-3,2,-22,-12,-11,21,800,101,9,-0.9240453527727062,51.551925907598346,1564.172006735449,20.027810585601138,-1.7242563072705934
2025-02-19 16:06:10.129,862,263,530,-4,-9,54,-12,-13,19,713,97,9,-26.391821834882517,55.53477086351172,1686.4697695605398,514.5493612464292,23.075431708716906
2025-02-19 16:06:10.235,761,-93,631,15,0,-20,-13,-11,21,865,97,9,8.384183968047216,50.0326321582304,1527.4104112139994,-186.6611934860735,-4.486162254971987
2025-02-19 16:06:10.342,702,248,664,-16,-12,77,-15,-9,21,261,99,9,-20.48035731180924,44.72376577056669,1405.6894754779275,496.5968517357921,-1.5980223893785706
2025-02-19 16:06:10.453,1086,-10,602,-41,95,38,-13,-8,19,630,61,9,0.9516696081786067,60.9958262927639,1960.5843888944505,-18.053263249488488,117.19355238079294
2025-02-19 16:06:10.559,576,-83,714,20,-27,-12,-13,-5,18,661,34,9,6.630673313615393,38.7061247898026,1201.3260790162349,-173.10775096935328,-61.14378544720762
