Timestamp,Acc_X,Acc_Y,Acc_Z,Gyro_X,Gyro_Y,Gyro_Z,Mag_X,Mag_Y,Mag_Z,Force,IR_A,Letter,Roll,Pitch,Lin_Acc_X,Lin_Acc_Y,Lin_Acc_Z
2025-02-19 17:18:21.352,688,-152,793,-7,9,2,-6,-4,5,341,21,noise,10.850685393050613,40.43364790699271,1336.5670154119953,-295.2880615445106,45.45109996844144
2025-02-19 17:18:21.451,670,-184,677,-31,-11,-19,-4,-3,8,567,22,noise,15.204978641273865,43.68188150830004,1360.6537545623219,-373.6720758798019,-20.86954005774942
2025-02-19 17:18:21.551,666,-140,748,17,-2,1,-5,-4,6,639,24,noise,10.601154863652113,41.19167177851705,1324.580085977565,-278.44025831360227,8.333477010182378
2025-02-19 17:18:21.651,647,-123,722,6,9,6,-5,-3,5,316,21,noise,9.668097411325302,41.457198279999446,1309.0603702827293,-248.8630997600862,-16.8061628193675
2025-02-19 17:18:21.762,594,-56,753,32,18,-13,-3,-3,5,0,18,noise,4.253211052407536,38.19114450313779,1212.286927834362,-114.28967669818897,-30.787974173862494
2025-02-19 17:18:21.871,648,-95,756,-6,6,3,-4,-5,5,0,16,noise,7.162324355683766,40.37965085165362,1295.849392522323,-189.97792020003192,0.17570872395651804
2025-02-19 17:18:21.983,673,-23,735,-4,-5,-28,-5,-4,2,0,16,noise,1.792344273432266,42.46469633031735,1348.1357947049921,-46.072991498090374,-2.3325543954965724
2025-02-19 17:18:22.086,648,-77,760,-7,-8,3,-4,-5,4,0,17,noise,5.785226128391459,40.30757187941958,1294.8905637052965,-153.86816883535158,1.3011907160104101
2025-02-19 17:18:22.192,655,-105,747,-1,5,5,-5,-4,4,0,17,noise,8.001203180138173,40.96793831213679,1310.6366043868816,-210.10205108491996,-0.7260205755733296
2025-02-19 17:18:22.301,656,-105,752,-11,-4,8,-4,-5,4,1,16,noise,7.948685889886195,40.8256787631415,1309.759807614579,-209.641432621236,2.568025417433887
2025-02-19 17:18:22.411,818,-57,734,17,-15,48,-6,-4,5,149,14,noise,4.440487872496925,48.01240483737612,1561.2896783517995,-108.79402404162906,67.03835707796975
2025-02-19 17:18:22.520,642,-119,726,-5,-17,1,-5,-1,3,332,16,noise,9.308680262515638,41.10965529959148,1299.5022245269138,-240.8734652939295,-17.530552969687506
2025-02-19 17:18:22.626,688,-138,747,-27,6,-3,-4,-3,7,203,17,noise,10.466755693782371,42.16688797717523,1359.292355960404,-272.64875744554615,18.14042165345677
2025-02-19 17:18:22.728,637,-225,722,4,7,0,-5,-2,7,0,15,noise,17.3088280064365,40.108030952440416,1281.2308398366813,-452.5540643065201,-8.19570857470012
2025-02-19 17:18:22.832,680,-186,715,13,-3,3,-5,-4,6,0,15,noise,14.581721933102843,42.62693807816616,1357.221976909344,-371.24012897814407,2.9210095732634045
2025-02-19 17:18:25.661,713,-97,662,8,-17,-7,-9,-12,11,802,73,A,8.3359835757904,46.82062407824727,1442.214988445414,-196.20596616999325,-15.055150562221684
2025-02-19 17:18:25.751,808,-21,636,0,4,2,-10,-13,9,814,85,A,1.8911547016853658,51.7775282639318,1593.6142893903216,-41.418193164847466,17.62043557890513
2025-02-19 17:18:25.861,738,-29,666,1,-8,-11,-9,-11,12,827,82,A,2.4932862757120637,47.90868141970633,1480.077415068682,-58.16022362736014,-3.679618476615474
2025-02-19 17:18:25.961,774,-25,646,4,-1,-8,-8,-14,10,839,92,A,2.2162229827474587,50.129677148481385,1541.4972966775636,-49.789964362970395,5.427320860845043
2025-02-19 17:18:26.075,775,13,620,0,3,-15,-9,-14,10,842,95,A,-1.2011871070060307,51.3340490767741,1555.801831523619,26.09732104491232,-4.641465218895178
2025-02-19 17:18:26.186,746,-93,662,-1,-11,-35,-8,-14,11,841,96,A,7.996772031118374,48.13605786485143,1490.7316848451237,-185.84188564423124,1.1255021883754353
2025-02-19 17:18:26.291,815,101,583,-7,8,45,-8,-14,11,670,93,A,-9.828475303133139,54.02062486512256,1624.22852807202,201.28476237456937,4.128549857683879
2025-02-19 17:18:26.401,729,-142,706,-2,-1,-24,-9,-13,10,792,95,A,11.372346152506237,45.35034510276592,1440.4172637399174,-280.5751048711499,17.02799972512787
2025-02-19 17:18:26.509,664,138,635,-6,-19,74,-9,-12,11,666,92,A,-12.261027681509177,45.618266111976205,1378.6956986495466,286.53615423740564,-48.48157928081582
2025-02-19 17:18:26.615,527,-61,575,-42,23,-54,-8,-13,11,631,86,A,6.0556848659338955,42.34627372480537,1200.609641368178,-138.96999643920088,-159.96308118918853
2025-02-19 17:18:26.722,782,219,611,23,-51,18,-8,-14,11,750,73,A,-19.719142049722013,50.30722270183348,1551.4800719583877,434.4937797428222,9.782194416144648
2025-02-19 17:18:26.828,1027,99,673,-43,77,21,-7,-11,13,747,73,A,-8.368337070667238,56.481145051751774,1860.704144983028,179.3668065757739,126.66807246973929
2025-02-19 17:18:26.931,733,7,686,10,34,25,-9,-8,8,559,34,A,-0.5846305207051778,46.89556440723957,1463.109378316726,13.972395154457136,2.705274863200657
2025-02-19 17:18:27.654,762,-90,657,2,-6,-10,-8,-12,12,739,76,B,7.800187884181699,48.968355126995945,1516.347118989725,-179.09611641610925,6.598350162402539
2025-02-19 17:18:27.750,712,-57,632,-7,-8,-17,-8,-12,11,719,83,B,5.153555908880539,48.29119307115529,1458.5359209706469,-116.76481389793102,-30.655480412147313
2025-02-19 17:18:27.861,757,-165,591,17,4,-24,-8,-12,11,630,90,B,15.599085802839234,50.9728421117921,1533.847579720787,-334.32609069211344,-15.495270297206275
2025-02-19 17:18:27.961,823,126,577,-9,-3,31,-7,-10,11,0,93,B,-12.318355838282333,54.33621042101868,1635.4521575237536,250.3851419781203,7.395024433528647
2025-02-19 17:18:28.071,868,-111,638,-11,6,-39,-8,-12,11,575,90,B,9.869596847795938,53.27468781974967,1669.5115466438642,-213.49744432888122,48.870545208772796
2025-02-19 17:18:28.181,664,-28,782,-13,-17,31,-8,-13,12,577,90,B,2.05063525219266,40.31663981626633,1311.0112460476587,-55.283606761045846,20.007839745076694
2025-02-19 17:18:28.291,971,-33,654,-10,-11,16,-7,-12,12,148,90,B,2.888621549842957,56.004693782705424,1800.0833799531833,-61.176881090066985,95.5854474877633
2025-02-19 17:18:28.393,779,30,576,-11,0,25,-8,-11,13,0,94,B,-2.981461219982192,53.4833194673232,1582.6836556669894,60.95059007703424,-18.25132947905729
2025-02-19 17:18:28.494,751,-20,546,-39,57,16,-8,-9,10,0,55,B,2.097808586192149,53.96342824440947,1559.6416477085975,-41.53506385375759,-41.907243207582155
2025-02-19 17:18:28.611,653,-149,681,26,-40,-25,-8,-9,11,254,49,B,12.34159639938932,43.12874196126082,1336.6399676550845,-304.99135555988914,-31.953779438150832
2025-02-19 17:18:29.332,765,-67,634,-1,-2,-2,-9,-12,12,498,71,C,6.032526391113012,50.19308559680645,1533.2062701358636,-134.28081058706258,-2.657222570114527
2025-02-19 17:18:29.426,761,-77,633,-2,-2,-1,-9,-13,13,505,74,C,6.9355542400621255,50.03928994274118,1527.485047418018,-154.5549916572765,-4.562463883844316
2025-02-19 17:18:29.532,766,-57,625,-1,-5,-2,-8,-12,13,524,82,C,5.210959714983299,50.671788987086074,1539.528254991242,-114.56019652023602,-6.142505704342398
2025-02-19 17:18:29.638,780,-42,628,-6,-3,-1,-9,-13,13,536,92,C,3.8261855463300494,51.099010851490625,1558.2323073196962,-83.90481654798364,1.4232192349113575
2025-02-19 17:18:29.744,735,-141,639,3,15,-21,-8,-14,14,160,93,C,12.443334207893248,48.32128592580968,1481.885270144067,-284.28003141539244,-10.332908329331644
2025-02-19 17:18:29.851,840,183,585,-8,-23,51,-7,-12,13,0,92,C,-17.37075333053431,53.88145300701908,1647.799115117139,358.9848072219481,22.425616257706906
2025-02-19 17:18:29.958,864,-30,694,17,2,19,-8,-9,11,495,86,C,2.475221811864532,51.20103606240685,1643.349295492958,-57.06073942683882,67.99489459246195
2025-02-19 17:18:30.061,611,-188,682,-9,3,-1,-7,-8,11,168,38,C,15.411392447610318,40.81652832808847,1264.6389499978382,-389.1196769224117,-47.593721601514744
2025-02-19 17:18:30.175,772,-120,652,0,1,-4,-7,-10,10,179,44,C,10.428528477438077,49.34583641641617,1530.6557699061573,-237.92576734292598,11.269997436769017
2025-02-19 17:18:31.092,757,-72,644,-2,-3,-3,-7,-11,10,500,64,D,6.379248167613142,49.43558577934241,1516.67534958236,-144.25445861285328,-2.2759909260767017
2025-02-19 17:18:31.190,750,-50,638,-5,-3,-7,-9,-11,13,524,68,D,4.481105748108875,49.526702570338514,1510.7085568241916,-100.71390378827945,-9.109412338445736
2025-02-19 17:18:31.298,766,-35,628,1,-10,-17,-8,-12,13,509,85,D,3.1899360866900413,50.61004768132451,1538.8448712083143,-70.31275521186816,-5.611722087234398
2025-02-19 17:18:31.404,677,-341,608,31,13,-5,-8,-14,11,329,90,D,29.28611706592005,44.16205153822733,1373.6901217235372,-691.9177717987093,-17.683299863974185
2025-02-19 17:18:31.509,770,-16,685,6,-2,32,-10,-10,13,0,93,D,1.3380522768598846,48.335616432906384,1517.0515611707735,-31.523149323029063,20.41516960781837
2025-02-19 17:18:31.621,835,-146,605,21,-13,-34,-10,-13,10,590,88,D,13.567348491939228,53.30099530475276,1636.7860256753868,-286.19252664503773,24.065214929809486
2025-02-19 17:18:31.724,722,-43,672,-24,-7,67,-8,-13,11,0,90,D,3.661256264845536,46.99582158972819,1453.3039635685948,-86.55411417375288,-8.65964476190527
2025-02-19 17:18:31.831,809,-61,627,-34,59,28,-7,-9,10,21,60,D,5.556742890979156,52.092460020405994,1598.003239624434,-120.49220966265818,15.498107237923364
2025-02-19 17:18:31.943,662,-124,667,12,-19,-20,-6,-10,10,277,48,D,10.531460103896517,44.297816324165744,1360.388008203904,-254.81588069076145,-36.66284210272477
2025-02-19 17:18:32.661,763,-60,640,-1,-1,-1,-9,-11,11,519,68,E,5.355825042855191,49.886791229232664,1527.7728865601139,-120.13941440839693,-1.4870870229002549
2025-02-19 17:18:32.755,762,-37,642,2,-5,-3,-9,-12,10,557,72,E,3.298444520266023,49.838386880300135,1526.228299276042,-74.10819825881043,-1.8773860042244905
2025-02-19 17:18:32.861,747,-34,646,1,1,-7,-9,-12,12,579,78,E,3.0127875041833403,49.10778256185046,1502.9423965091316,-68.40701670858164,-7.73331746305098
2025-02-19 17:18:32.971,797,-102,609,-7,-1,-16,-10,-13,12,438,89,E,9.508085600460927,52.23294933508835,1587.5073488460732,-203.16907099410219,4.9611349469780635
2025-02-19 17:18:33.079,800,168,579,-19,-14,42,-9,-11,13,0,92,E,-16.18037385698698,52.998294098855304,1598.6175914985424,335.70969421469385,1.000518152929999
2025-02-19 17:18:33.185,467,-193,520,-13,-9,-77,-9,-14,10,1,79,E,20.36260166842141,40.09588589104231,1111.0687031131656,-459.17828629730406,-197.1642946870369
2025-02-19 17:18:33.291,727,36,652,17,-21,20,-8,-14,13,668,89,E,-3.160361626045675,48.06974322395404,1470.9587732065447,72.83977418904483,-15.209243646034338
2025-02-19 17:18:33.392,537,60,558,-39,19,-10,-8,-11,10,257,77,E,-6.137255949261988,43.736787848425635,1228.3464634859633,137.2454149146328,-160.38235870608491
2025-02-19 17:18:33.501,740,3,637,7,-23,10,-8,-13,11,416,87,E,-0.2698368410198049,49.27746048334806,1497.8777493480147,6.072477362221682,-15.389359911737188
2025-02-19 17:18:33.616,1671,-265,298,7,17,-13,-9,-10,12,0,88,E,41.6454709856091,76.57741751993076,2643.684461852403,-419.25576444696986,124.53502715019988
2025-02-19 17:18:33.722,711,-8,663,34,-18,19,-8,-12,12,424,85,E,0.6913182389739104,46.99870532129272,1442.3382907204882,-16.228841527094097,-18.96524155792349
2025-02-19 17:18:33.825,557,-260,673,-4,28,-4,-7,-9,10,26,32,E,21.123035560638286,37.669125244048054,1168.1005878431442,-545.2534162283978,-65.36749662196803
2025-02-19 17:18:35.741,741,-10,655,0,-2,-3,-7,-14,10,628,79,F,0.8746767711213187,48.52191452468904,1490.209105320056,-20.110784147369174,-7.256361652680994
2025-02-19 17:18:35.840,744,4,653,0,0,-2,-7,-15,11,635,81,F,-0.3509651632416205,48.72642495343243,1495.568447973933,8.040690580505018,-6.64273726744409
2025-02-19 17:18:35.942,755,-19,645,-1,0,0,-9,-14,11,623,82,F,1.687294722902143,49.480309504564666,1515.182728801632,-38.130426287723196,-4.42762924112958
2025-02-19 17:18:36.051,735,8,657,2,-1,-4,-8,-14,12,616,83,F,-0.6976310263985913,48.205075118583366,1480.5350365576428,16.114667064572984,-9.417032678056216
2025-02-19 17:18:36.161,760,-44,606,1,0,-13,-9,-14,10,524,85,F,4.152802231724832,51.358802077791346,1541.071676424442,-89.21993916141506,-16.801889359489337
2025-02-19 17:18:36.261,796,264,594,-14,-13,40,-9,-13,10,0,87,F,-23.962488974578186,50.764448752332626,1570.5521740119689,520.8866506773363,16.005035975992996
2025-02-19 17:18:36.376,536,-67,613,-67,28,-58,-10,-12,10,339,68,F,6.2375848005972845,40.99755408569894,1192.0268104009097,-149.0033513001137,-137.2694678652192
2025-02-19 17:18:36.487,814,210,608,50,-53,16,-8,-14,10,696,84,F,-19.054643020443127,51.68325186185332,1598.5951693035881,412.41398716677327,21.96331334572301
2025-02-19 17:18:36.592,789,91,721,-30,69,25,-9,-13,11,656,73,F,-7.193470055295538,47.35292353803213,1524.5406908441591,175.83422416580288,48.851916224792376
2025-02-19 17:18:36.701,930,130,601,21,-38,-4,-9,-14,12,518,85,F,-12.205391679597316,56.52804350340592,1764.1558685402279,246.6024332368061,61.937981728304294
2025-02-19 17:18:36.809,1056,4,628,-44,72,31,-8,-13,13,576,68,F,-0.36493633573064554,59.259668342172034,1915.492677112521,7.25565407997167,116.86230944444799
2025-02-19 17:18:37.624,735,-34,652,4,-8,0,-8,-13,11,536,61,G,2.985112842265453,48.38595061456026,1482.6352679775468,-68.58448858671645,-11.208428192327005
2025-02-19 17:18:37.723,761,-28,637,-1,-5,-3,-8,-12,13,624,69,G,2.5168756569395163,50.04154453020177,1527.5103198238758,-56.20274501323065,-4.61244905099727
2025-02-19 17:18:37.828,760,-31,639,4,-4,0,-7,-12,12,669,74,G,2.7774298914323086,49.91005477461049,1525.0344257011964,-62.20535157465407,-4.232892135611223
2025-02-19 17:18:37.935,765,-21,618,8,-12,-2,-7,-12,11,720,80,G,1.9461951170307557,51.051065101647886,1542.706537140387,-42.34880690189297,-10.26488882713602
2025-02-19 17:18:38.048,698,-113,658,-5,0,-32,-9,-14,13,649,89,G,9.744495644574235,46.27387835272869,1420.6520914480393,-229.9909546327055,-23.23936414442676
2025-02-19 17:18:38.154,842,250,522,-17,-13,61,-7,-13,12,1,86,G,-25.591028209991038,55.495958280103736,1666.0862315281897,494.681185133073,11.105685442143624
2025-02-19 17:18:38.264,756,-201,668,13,-6,-27,-10,-12,11,495,86,G,16.746446568101064,47.301293562028945,1490.9299057168887,-396.3980304882204,18.617490715764916
2025-02-19 17:18:38.361,806,33,694,-29,-7,16,-8,-9,11,78,88,G,-2.7223885060974364,49.23816662746431,1563.4301528996377,64.01140824527053,41.82068720552286
2025-02-19 17:18:38.474,987,-26,623,59,-14,-32,-7,-14,13,373,85,G,2.3897693595000393,57.7171407244886,1832.4216533543681,-48.27047921703503,89.36505568412201
2025-02-19 17:18:38.579,849,-1,687,-12,9,39,-8,-11,12,690,78,G,0.0833999112770814,51.020626495293676,1626.3724665948457,-1.915633058415601,57.9600888684821
2025-02-19 17:18:38.689,668,-105,683,6,-8,-12,-7,-11,10,491,45,G,8.739858403023698,44.02941745533556,1363.0276105616877,-214.2483519595467,-27.63451798448
2025-02-19 17:18:39.407,740,-36,643,2,-4,-6,-8,-13,11,602,61,H,3.2045053033142135,48.967610280387134,1494.338584724195,-72.69755277036623,-12.459067537374722
2025-02-19 17:18:39.501,782,3,639,-2,0,-4,-7,-12,10,612,68,H,-0.26899229369648114,50.74621086977282,1556.3507998149485,5.970655242256836,6.250433399294025
2025-02-19 17:18:39.608,743,-15,651,0,0,-6,-8,-15,10,575,72,H,1.3199456939217797,48.768344400301636,1495.0508718115318,-30.18272284949257,-7.930171667977561
2025-02-19 17:18:39.711,701,-9,646,1,-8,-12,-8,-14,13,562,80,H,0.7981867749175499,47.3354017640503,1436.333474333661,-18.44080066904843,-31.639692467254008
2025-02-19 17:18:39.829,738,-154,756,-5,-15,43,-7,-14,10,295,84,H,11.513831184487012,43.72770049683953,1429.2318595407203,-298.24079453830745,47.908826811945346
2025-02-19 17:18:39.931,782,30,673,-13,-15,-1,-10,-11,12,0,86,H,-2.5523569623382207,49.25613942302981,1539.6349252958987,59.06527846403705,20.968919790102518
2025-02-19 17:18:40.041,1051,33,641,36,-21,-19,-9,-12,11,89,84,H,-2.947102885629849,58.58746089121948,1904.4367545378666,59.79677725951436,120.49290232276644
2025-02-19 17:18:40.141,571,-14,578,-13,26,-24,-10,-11,11,725,72,H,1.3875157474432052,44.64254341690159,1273.6815548861978,-31.22861955938138,-133.2958646658883
2025-02-19 17:18:40.251,721,-151,698,-8,-16,65,-8,-15,12,529,86,H,12.20682691846733,45.27361850980625,1431.475524760745,-299.7958449915014,10.188743019417416
2025-02-19 17:18:40.361,1243,17,541,27,51,2,-10,-11,13,503,79,H,-1.7998296651346413,66.46917883058971,2159.8454422710524,29.53931819678833,141.95463856103038
2025-02-19 17:18:40.472,582,-166,717,-3,-10,-21,-6,-9,9,500,35,H,13.035463149859886,38.336880279937645,1202.284050034826,-342.9195056800362,-47.164370919192606
2025-02-19 17:18:41.186,709,-56,657,2,-9,-8,-9,-10,11,562,57,I,4.871882959021781,47.07664234807978,1441.2653298546568,-113.83760010135514,-21.558986903398477
2025-02-19 17:18:41.283,779,-20,629,5,-6,-2,-9,-12,11,622,73,I,1.821191803006024,51.06686714353997,1556.8798815553782,-39.971242145195845,0.9044345335906883
2025-02-19 17:18:41.389,744,-28,653,6,0,-6,-9,-12,12,662,76,I,2.4552828379874407,48.70086670063361,1495.274117117382,-56.27375709581546,-6.384406555982196
2025-02-19 17:18:41.491,845,-31,674,6,6,-28,-8,-14,11,336,84,I,2.6334099171384793,51.39346159985014,1626.4492723053672,-59.66855318516731,50.690166232168735
2025-02-19 17:18:41.602,713,54,657,6,-23,20,-8,-16,12,757,84,I,-4.69868051729944,47.24458303461686,1447.258329696712,109.61002777506656,-19.58867126330972
2025-02-19 17:18:41.717,654,-166,508,-10,-5,-23,-8,-13,12,621,78,I,18.095924498470563,50.74506878917835,1428.338186882801,-362.5445550803439,-93.47369867960651
2025-02-19 17:18:41.824,778,126,606,-11,-10,65,-7,-14,11,140,86,I,-11.74563342528795,51.49498118190391,1560.5536247425061,252.73747650071437,-3.5469107891499334
2025-02-19 17:18:42.178,1005,-137,601,23,10,-20,-7,-10,12,308,83,I,12.841345373809755,58.47711574277887,1857.431407479763,-253.20209236291294,91.23753642254974
2025-02-19 17:18:42.178,699,106,642,24,-43,18,-7,-11,12,554,85,I,-9.375466620924326,47.04985070157159,1430.9468034532233,216.9962248441225,-30.260154244591035
2025-02-19 17:18:42.181,771,88,507,-69,80,17,-7,-11,11,580,54,I,-9.846729018370938,56.280081906968704,1602.7611877970076,182.9351290870774,-39.95580053577544
2025-02-19 17:18:42.851,737,-38,656,1,-5,-5,-7,-13,11,600,58,J,3.3152580144033643,48.280215897377985,1483.4084352473328,-76.48510249579192,-8.374400979986945
2025-02-19 17:18:42.957,736,-27,652,-4,-4,-4,-8,-13,11,609,64,J,2.3713230981350564,48.438879117693084,1484.248437790071,-54.44933127762489,-10.850518259682417
2025-02-19 17:18:43.065,755,-18,651,-1,2,-5,-8,-13,11,632,70,J,1.5838115708619434,49.219562743822515,1512.2181117234477,-36.052882133804054,-1.9125705059132088
2025-02-19 17:18:43.171,903,-45,700,9,4,-26,-8,-14,10,525,84,J,3.678238721993387,52.16015541691373,1692.7285940366594,-84.35524554999964,87.80729144445002
2025-02-19 17:18:43.274,688,2,703,7,-11,10,-7,-14,12,774,82,J,-0.16300320038336477,44.38205276208729,1387.4395059179753,4.033254377668533,-11.688913750489291
2025-02-19 17:18:43.382,895,-31,558,0,0,-20,-8,-15,11,642,84,J,3.179830119864234,58.018310405325835,1743.2174027829167,-60.37959719136359,29.16725055545544
2025-02-19 17:18:43.491,766,177,606,-23,-17,40,-8,-12,11,0,91,J,-16.28198603382155,50.50541708872107,1537.6847186119487,355.3135707497584,-4.4973100245965725
2025-02-19 17:18:43.601,1150,66,619,-11,57,35,-8,-11,10,0,66,J,-6.086087595360662,61.57279128196445,2029.422608449087,116.47121057186067,145.64122206088257
2025-02-19 17:18:43.711,693,-76,712,23,-28,-15,-7,-10,10,418,43,J,6.092771657336066,44.06302060023513,1388.449164148713,-152.26859520245625,-2.5163129493269025
2025-02-19 17:18:44.531,763,-28,663,22,-3,-15,-8,-12,12,378,67,K,2.4182942161367,48.98609321420781,1517.55031987042,-55.689919995244765,7.342251541168707
2025-02-19 17:18:44.622,680,-9,652,8,-10,-19,-8,-15,11,265,80,K,0.7908424350791056,46.20151178664335,1401.7784904977743,-18.55295060952937,-40.05819971257199
2025-02-19 17:18:44.722,736,-116,621,6,1,-31,-9,-14,11,0,85,K,10.580655821210408,49.3590532358739,1494.806033879302,-235.59442925271605,-19.242591085660933
2025-02-19 17:18:44.834,811,78,604,-5,0,31,-8,-13,11,0,88,K,-7.358399088753703,53.095501534139366,1610.63751520489,154.90718395312138,8.462319132239713
2025-02-19 17:18:44.950,432,-227,686,41,-66,-54,-7,-13,11,660,81,K,18.309575326058887,30.87334078091634,945.141946476883,-496.63708761632506,-128.85040574801337
2025-02-19 17:18:45.052,679,-37,707,-17,16,28,-6,-14,11,204,87,K,2.995773167782772,43.803522806653966,1371.1875496829991,-74.71861463662881,-13.731366164772453
2025-02-19 17:18:45.156,730,-63,684,-65,-53,62,-8,-13,11,1,89,K,5.2623953995951185,46.7425158252405,1458.2814626743325,-125.8516878746342,1.6102459325431937
2025-02-19 17:18:45.264,1145,2,672,38,87,5,-8,-10,12,26,74,K,-0.17052264983388823,59.59123526780584,2007.436249392729,3.5064388635680857,165.83654184112333
2025-02-19 17:18:45.373,666,-87,686,18,-16,-17,-7,-11,9,226,42,K,7.2277889373585715,43.92406927947435,1359.7044620849833,-177.61905135344375,-28.536427913361194
2025-02-19 17:18:45.481,732,-45,653,-3,-1,-6,-8,-11,10,547,55,K,3.9421749408964835,48.197165578312536,1477.443025415486,-90.82641549685366,-11.992207098787503
2025-02-19 17:18:45.587,742,-56,660,-2,-5,-10,-7,-12,10,556,60,K,4.849843901782814,48.245222017968004,1488.0018435846923,-112.30202593092017,-3.5595913287021403
2025-02-19 17:18:45.691,752,-36,652,0,-2,-7,-9,-13,9,545,67,K,3.160361626045675,49.030849126324824,1507.0627053445041,-72.1466188728752,-2.6554306976285034
2025-02-19 17:18:45.801,750,-25,660,2,-3,-2,-8,-12,10,581,69,K,2.16925758972851,48.631851219493576,1500.4785826933562,-50.0159527564452,-0.42115277015341235
2025-02-19 17:18:45.907,755,-27,661,-2,0,-1,-8,-12,10,571,70,K,2.339071903555437,48.77428964463743,1507.1192591990011,-53.89698013029541,2.5220790323976416
2025-02-19 17:18:47.729,754,-34,660,-1,-1,0,-9,-12,11,407,67,L,2.948993915689805,48.76568516807655,1506.020280381389,-67.91072882356397,1.7329110719937262
2025-02-19 17:18:47.824,742,-34,657,0,-1,0,-9,-12,11,427,68,L,2.9624357096322385,48.4388537954706,1490.2481445880512,-68.28630312128537,-5.532386784837854
2025-02-19 17:18:47.930,747,-34,659,-1,-2,0,-9,-12,10,435,70,L,2.953460951616522,48.54362459932482,1496.460017843809,-68.11196868365396,-2.17021654493999
2025-02-19 17:18:48.036,796,-8,631,2,-4,3,-10,-14,11,487,79,L,0.726373501367963,51.59341866034804,1579.6221033663132,-15.875599028807166,9.812126602834837
2025-02-19 17:18:48.148,727,-48,666,-8,15,12,-10,-13,11,602,58,L,4.122297811783643,47.43346636711014,1463.4923236294853,-96.62672838268955,-8.695856309817373
2025-02-19 17:18:48.254,719,-67,677,2,-5,-4,-8,-11,10,654,54,L,5.651931397489266,46.583901276779805,1445.3815873810695,-134.687853066108,-6.950395906792778
2025-02-19 17:18:48.361,709,-77,674,1,-4,-3,-6,-11,11,663,58,L,6.517404238079296,46.264160835990076,1431.5348496687911,-155.4699343081762,-12.866697710529365
2025-02-19 17:18:48.461,743,-24,660,9,-14,-7,-9,-13,12,700,75,L,2.0825652797308845,48.36681497659779,1490.4134270497493,-48.14256022771734,-3.92040626222672
2025-02-19 17:18:48.573,764,-1,644,-9,0,0,-9,-14,10,652,85,L,0.08896853022227957,49.87135699218204,1528.5992984175105,-2.0007844220124484,-0.5051677760167195
2025-02-19 17:18:48.672,788,-2,643,-3,5,-4,-9,-11,13,540,80,L,0.17821335844717398,50.78576828341716,1562.7874748435802,-3.966465672191827,10.781286390327637
2025-02-19 17:18:48.786,731,-6,662,3,1,-17,-8,-14,12,550,77,L,0.5192828765891615,47.83456514106419,1472.2096940439274,-12.083800498308568,-9.245988313378689
2025-02-19 17:18:48.897,754,-17,628,18,2,-22,-8,-14,10,494,86,L,1.5506217156415276,50.1990609140281,1522.273032001351,-34.321805761303665,-11.887883417570833
2025-02-19 17:18:49.004,802,166,597,-16,-8,35,-10,-12,9,0,87,L,-15.538959591665378,52.30925674437327,1593.3223213575639,329.78990691440845,7.948346819868334
2025-02-19 17:18:49.111,694,-11,668,18,-11,15,-8,-11,12,504,83,L,0.9434081085273278,46.089738406180345,1414.4269128289354,-22.418870376251135,-25.43685557597803
2025-02-19 17:18:49.219,586,-149,670,-38,48,4,-7,-8,11,491,40,L,12.53786203580071,40.489686870715495,1235.3111662097988,-314.0978903844027,-72.38648696342182
2025-02-19 17:18:50.036,781,-5,677,10,-6,-2,-8,-13,11,508,69,M,0.4231516823920238,49.079257923842384,1536.616391995632,-9.837492906502126,22.003460459612143
2025-02-19 17:18:50.129,737,-7,660,4,2,-7,-9,-13,9,524,72,M,0.6076597257559496,48.15324143103116,1481.9318003598742,-14.075335959998807,-7.103104799887433
2025-02-19 17:18:50.241,1125,-89,741,13,5,-19,-9,-12,10,415,83,M,6.848871303147836,56.43968095812348,1958.3042996426755,-154.92362903839833,192.13023463535762
2025-02-19 17:18:50.346,722,262,646,-52,-27,67,-8,-14,10,0,84,M,-22.076134080823355,46.00488621174167,1441.399038524029,523.0561607940383,2.3271760574477867
2025-02-19 17:18:50.454,616,-78,644,-6,9,-55,-8,-13,11,498,80,M,6.905913097567734,43.51861160761103,1304.5901655095486,-165.1916118664688,-75.88971848725521
2025-02-19 17:18:50.560,739,48,641,-14,-26,50,-8,-14,10,394,84,M,-4.282486894682981,48.98270317185725,1493.5114904048792,97.00751223198131,-13.454486264583693
2025-02-19 17:18:50.671,748,-168,680,22,-3,-31,-9,-14,11,725,83,M,13.877529803208006,46.88042250782742,1477.9287650251792,-331.9412199521793,16.42839543165519
2025-02-19 17:18:50.776,805,187,569,-5,-4,53,-7,-13,11,218,83,M,-18.19294063378547,53.349802729570776,1607.2948099800183,373.371589399085,1.9121156787200562
2025-02-19 17:18:50.881,640,-96,625,-51,59,7,-7,-11,10,543,42,M,8.73238427087343,45.34540075146758,1351.3566154187135,-202.703492312807,-69.68419474483733
2025-02-19 17:18:51.604,732,-26,671,1,-1,-2,-9,-14,11,555,67,N,2.2189946183675144,47.46814322001763,1468.901590861514,-52.174100221857046,-4.493124956387533
2025-02-19 17:18:51.698,732,-15,677,2,-1,-3,-9,-13,10,541,71,N,1.2692704544772588,47.22838426701206,1466.0663689381101,-30.042343625780944,-1.9111089769131695
2025-02-19 17:18:51.801,715,8,671,6,5,-10,-8,-13,9,388,72,N,-0.683076780377418,46.816271111309256,1444.1629987680212,16.158467119082754,-13.291429613066043
2025-02-19 17:18:51.912,758,20,661,4,2,-2,-8,-16,11,184,84,N,-1.7330803146887965,48.897555297381814,1511.5353426564438,39.882199014681895,3.8933225647633662
2025-02-19 17:18:52.011,737,16,663,1,1,-3,-8,-14,10,354,83,N,-1.3824352481230042,48.01738217843944,1480.347789606546,32.137808186844964,-5.710426742387995
2025-02-19 17:18:52.128,735,-82,627,-10,2,-21,-10,-14,9,191,84,N,7.45094017860878,49.2937470402273,1493.063165095789,-166.57303338483632,-19.674291857224034
2025-02-19 17:18:52.231,797,151,622,6,-3,28,-8,-13,11,0,86,N,-13.645448455305338,51.232240203149445,1576.6904300537421,298.72052062498756,13.508848816276554
2025-02-19 17:18:52.341,994,-201,757,8,10,-35,-8,-14,9,255,84,N,14.87015845210293,51.76336622307321,1779.4613345953517,-359.8307125288387,158.8166697296972
2025-02-19 17:18:52.448,613,114,692,-59,-47,95,-8,-13,11,0,87,N,-9.354875958895294,41.15530765652103,1271.1023546842325,236.3877135954364,-50.9148930529999
2025-02-19 17:18:52.555,756,-345,630,8,-1,-57,-9,-13,12,659,87,N,28.70595254340109,46.46564611875092,1480.9615112723059,-675.835610302838,25.86540727307863
2025-02-19 17:18:52.665,568,-68,654,-28,35,25,-7,-12,10,698,51,N,5.936029363283296,40.821917309270475,1221.7101288965566,-146.2610717693061,-98.68736672244381
2025-02-19 17:18:53.381,746,-26,641,-1,-2,0,-8,-12,12,618,75,O,2.322736512115608,49.30592222896758,1504.2017346001567,-52.4252615276194,-10.484332277078238
2025-02-19 17:18:53.480,737,-37,627,13,-12,0,-7,-13,11,666,84,O,3.3771741598481495,49.56149211991397,1498.1025411268965,-75.21003259388763,-20.505146928852355
2025-02-19 17:18:53.587,725,-50,705,-6,2,-24,-7,-14,10,561,85,O,4.05673786129488,45.729445177079306,1441.051565470681,-99.38286658418488,8.701581162993193
2025-02-19 17:18:53.693,902,175,564,6,-13,71,-7,-12,12,0,82,O,-17.23826405124862,56.7878253205399,1738.6479438226402,337.32083167290693,40.863148208459734
2025-02-19 17:18:53.803,661,-74,744,-4,-13,-53,-8,-12,12,468,84,O,5.680092326160373,41.47921109829068,1323.3482574188356,-148.15093955974862,-1.517554492607701
2025-02-19 17:18:53.910,1054,10,716,-15,47,30,-9,-15,12,515,72,O,-0.8001683593331333,55.80847295211939,1881.1636866330948,17.847852814355736,154.09373849212932
2025-02-19 17:18:54.013,568,-87,686,5,-15,-3,-8,-12,9,311,39,O,7.2277889373585715,39.39999022186378,1202.7303813270278,-184.22102671734402,-80.59338308158624
2025-02-19 17:18:54.119,773,-9,664,0,0,-5,-8,-13,10,500,49,O,0.7765518682338494,49.33511876225017,1531.5338896710668,-17.83157180729573,12.42625777284843
2025-02-19 17:18:54.229,743,-15,672,-3,-4,-3,-7,-14,10,510,52,O,1.2787113070498002,47.86540349797926,1484.5708868121203,-29.971148455157206,1.2925492089572117
2025-02-19 17:18:54.336,727,-31,666,1,-5,-1,-8,-13,10,512,54,O,2.6649971346904846,47.47651886795563,1464.000402452761,-62.42642706469819,-9.161304035128865
2025-02-19 17:18:54.443,740,-23,659,-2,-5,-4,-9,-12,10,540,60,O,1.998889598286363,48.29631868690508,1486.5954390059503,-46.20499337450926,-5.873505817461023
2025-02-19 17:18:54.554,755,-19,657,-2,-2,-1,-8,-13,13,548,65,O,1.6564938843056165,48.9583923988095,1509.2329579995242,-37.98069695627942,0.6674789328645829
2025-02-19 17:18:56.371,729,-44,669,1,-4,-2,-10,-13,11,652,59,P,3.7629128262971925,47.39593285599212,1465.0490371879027,-88.42545629117657,-6.468869518116321
2025-02-19 17:18:56.466,747,-20,657,4,-5,-3,-8,-13,11,676,66,P,1.7436252993769519,48.65462870675374,1497.7412569101625,-40.10016752102175,-3.2905030655646215
2025-02-19 17:18:56.572,653,-25,665,11,-27,-28,-9,-12,10,698,84,P,2.1529627891004606,44.45812693111479,1353.3878173917765,-51.814234969057296,-48.25865017692399
2025-02-19 17:18:56.679,705,9,710,14,-13,50,-7,-13,12,538,84,P,-0.7262456324075651,44.79524089490052,1409.5752691304856,17.994577903793434,0.4277431451846496
2025-02-19 17:18:56.787,732,75,610,37,20,-56,-7,-11,12,575,86,P,-7.0093842566212485,49.98289759986853,1497.852541269664,153.4684980809082,-28.210451058053422
2025-02-19 17:18:56.897,675,53,741,16,-24,-9,-8,-14,12,760,79,P,-4.091111723806987,42.258599109533826,1347.4778938517898,105.8019679616961,2.7687120827016543
2025-02-19 17:18:57.003,809,94,537,10,18,27,-8,-13,11,291,85,P,-9.92883362569923,56.0249433809434,1638.2809353306166,190.35649928439796,-13.462128890656345
2025-02-19 17:18:57.109,471,-112,719,-47,46,20,-8,-11,8,427,34,P,8.853917232288794,32.91379460978074,1014.3765822261017,-241.21056732340423,-110.48569558506836
2025-02-19 17:18:57.925,745,-41,660,-1,-2,-1,-8,-12,10,343,55,Q,3.554715366679658,48.407298745872005,1492.8826600967327,-82.1586430388806,-2.5537659917365545
2025-02-19 17:18:58.022,749,-34,650,1,-2,-1,-8,-14,9,376,56,Q,2.9942811160952982,49.0090267384331,1503.8129305328628,-68.26387134595103,-5.044599260828704
2025-02-19 17:18:58.129,674,-78,642,4,-8,-4,-8,-13,10,418,60,Q,6.927218126009166,46.18325649958977,1395.5579328296026,-161.50373703369286,-45.29998943116436
2025-02-19 17:18:58.237,790,130,639,-1,-10,-9,-9,-13,11,609,84,Q,-11.499481729766496,50.462711519551924,1561.2104560027062,256.9080497219643,15.198124828190771
2025-02-19 17:18:58.351,723,-157,583,21,22,-38,-9,-16,12,356,85,Q,15.072012535418937,50.13509194618139,1490.557876558437,-323.6757767906979,-35.92979534380186
2025-02-19 17:18:58.452,786,215,712,-46,-30,25,-9,-13,11,0,83,Q,-16.802546235799056,46.58191610518371,1512.35777381537,413.6856505983518,54.0270547626676
2025-02-19 17:18:58.560,883,33,705,2,29,51,-8,-15,10,467,80,Q,-2.6799739401079408,51.365050836321885,1664.1397742367437,62.19321919571069,81.32668081890813
2025-02-19 17:18:58.669,830,-59,486,15,3,-13,-9,-13,12,291,80,Q,6.92178920189258,59.466145769001955,1691.3291219767098,-120.22700987545284,-18.344522024916614
2025-02-19 17:18:58.771,739,33,628,13,-12,35,-8,-10,13,85,90,Q,-3.00799888910773,49.603231124175686,1500.5748562409487,67.00807883078662,-19.184045628302783
2025-02-19 17:18:58.883,620,-148,669,-3,19,-2,-7,-10,9,510,46,Q,12.47438716558664,42.14125549207758,1290.9607004962675,-308.1648123765284,-54.98823972903699
2025-02-19 17:18:59.601,736,-48,651,0,-3,-2,-9,-12,11,656,60,R,4.21694282916858,48.42979829206223,1484.1432829714981,-96.79195323727163,-10.740865780496279
2025-02-19 17:18:59.691,757,-11,646,-1,-1,-1,-7,-11,12,667,63,R,0.975530451424989,49.519499605316454,1517.626949716499,-22.05270336444054,-3.0951248571444694
2025-02-19 17:18:59.805,740,1,645,-2,0,-11,-8,-13,11,661,69,R,-0.08883059473771729,48.92385521476531,1493.8370265045612,2.0186986844656234,-12.060651480326896
2025-02-19 17:18:59.911,785,-83,623,-4,1,-18,-8,-15,12,557,85,R,7.588619209270453,51.31774268702117,1565.623987750405,-165.5373133545014,3.4729371101882407
2025-02-19 17:19:00.018,794,229,587,2,-6,20,-10,-13,11,2,87,R,-21.311713893222585,51.565861324296755,1577.32321832944,454.92067631919616,7.893288212366201
2025-02-19 17:19:00.128,796,-144,671,13,-14,-30,-8,-14,10,668,81,R,12.112250190506748,49.23347372568367,1553.3766722211676,-281.01286532644247,32.558106708035666
2025-02-19 17:19:00.231,757,-11,605,3,11,15,-6,-14,12,55,85,R,1.0416266760099742,51.36327515858252,1538.1204241747982,-22.3504949351688,-19.277221434284
2025-02-19 17:19:00.341,671,25,693,-45,-62,82,-8,-13,11,0,88,R,-2.0660513649610235,44.05733535359279,1366.37785917663,50.90826599018742,-25.17713324799513
2025-02-19 17:19:00.449,800,58,526,-15,93,20,-8,-10,13,0,57,R,-6.292365563768127,56.51595905079654,1634.0395251313494,118.46786557202283,-22.380987773862103
2025-02-19 17:19:01.267,739,-45,665,0,-3,-3,-8,-11,9,572,51,S,3.8712562319856305,47.95198482310799,1481.5838178045174,-90.21822977158766,-3.2249510690177203
2025-02-19 17:19:01.365,720,-52,676,3,-9,-5,-10,-11,11,632,55,S,4.398705354995532,46.72093925106927,1448.023347453969,-104.57946398278666,-7.533031776226608
2025-02-19 17:19:01.468,760,-5,640,1,-7,-4,-8,-13,11,700,66,S,0.44761417086055305,49.89823096626579,1524.9015129383843,-10.032246795647264,-4.127589842849943
2025-02-19 17:19:01.573,777,68,612,0,-7,-8,-8,-13,12,715,85,S,-6.34019174590991,51.6034612513499,1560.730979577509,136.5890689977743,-5.301620979968561
2025-02-19 17:19:01.684,785,-16,611,30,18,-9,-9,-14,10,582,84,S,1.5000376638458126,52.09529069334588,1574.0335922832724,-32.082213345901096,-3.139522146597983
2025-02-19 17:19:01.791,708,104,706,-10,-14,39,-8,-13,11,98,80,S,-8.379904011417166,44.77353972951455,1412.3064416991235,207.45744341343058,3.683124520365709
2025-02-19 17:19:01.898,914,-69,496,-1,26,-16,-8,-11,12,0,85,S,7.919754489913164,61.281867869448334,1790.994145673988,-135.20634141302534,20.081951581730948
2025-02-19 17:19:02.003,524,-153,777,-12,14,11,-7,-10,9,60,34,S,11.1396631995877,33.49191383354458,1075.819293319159,-314.1228089271591,-41.251127688905854
2025-02-19 17:19:02.921,747,-32,661,-5,1,-2,-8,-12,10,495,59,T,2.771610601706297,48.461973418117175,1495.515782195062,-64.06493310608029,-1.3412744724710137
2025-02-19 17:19:03.020,735,-39,666,1,-2,-3,-7,-13,11,529,60,T,3.3513310679237622,47.77076849258595,1475.4617974157109,-78.28980965879282,-4.949057250154283
2025-02-19 17:19:03.121,714,-20,667,12,-5,-8,-9,-11,10,568,69,T,1.717499766492054,46.93636935095104,1444.5958477136737,-40.464869683856406,-15.503403956611123
2025-02-19 17:19:03.235,770,-11,607,8,2,-14,-9,-14,11,140,83,T,1.0381953800796482,51.746301068865876,1555.2769614507486,-22.218242306439265,-12.043007273512103
2025-02-19 17:19:03.344,603,98,703,9,-38,19,-7,-16,10,674,80,T,-7.936034905091329,40.349153623847904,1250.443828915716,203.22304350537343,-51.81428147221959
2025-02-19 17:19:03.441,839,102,703,-11,43,-1,-7,-14,13,680,75,T,-8.255575690235652,49.746211199072576,1602.1897418405529,194.78349662423884,63.521586991765616
2025-02-19 17:19:03.552,847,-165,635,4,1,-1,-7,-14,10,543,81,T,14.565764246556588,52.23860788006344,1637.5678309525192,-319.0067203154258,42.30747030124019
2025-02-19 17:19:03.661,779,129,617,6,7,28,-8,-12,11,0,87,T,-11.809074117304535,51.02135458170917,1556.3804600684832,257.73180917693753,1.2827421537173223
2025-02-19 17:19:03.771,519,-191,749,-26,34,7,-8,-9,8,299,30,T,14.305910975494859,33.878852831277996,1076.438723653757,-396.14604280899346,-55.47322546563419
2025-02-19 17:19:03.880,812,-15,658,12,-22,-15,-8,-11,9,363,45,T,1.3059086072232662,50.97331906106545,1588.8528214335336,-29.350729459979064,28.481334355584977
2025-02-19 17:19:04.594,733,-36,667,3,0,-3,-8,-13,10,470,56,U,3.0894282840079454,47.65760414455701,1472.1328987721176,-72.30120648812581,-5.580686877220046
2025-02-19 17:19:04.691,726,-1,676,8,0,-7,-7,-12,8,549,59,U,0.08475700846110952,47.042461852828474,1457.858929129974,-2.008070150316769,-5.45542161413573
2025-02-19 17:19:04.797,705,-4,675,6,0,-13,-7,-13,9,548,64,U,0.33952657096055017,46.24486174239338,1427.301944600952,-8.098167061565686,-16.565691639209717
2025-02-19 17:19:04.904,779,45,732,5,1,-19,-9,-15,10,72,82,U,-3.517854395801778,46.72769379111749,1507.1041614490105,87.05993230449997,47.825101180133856
2025-02-19 17:19:05.019,736,258,636,-37,-28,70,-7,-12,10,286,80,U,-22.080445167533366,46.99970829138714,1467.350229367979,514.3700532295361,4.018008317887848
2025-02-19 17:19:05.121,725,-219,689,0,1,-52,-8,-13,9,695,81,U,17.632960545554948,45.08042572481316,1433.098645569558,-432.89462535135624,16.062114762171632
2025-02-19 17:19:05.231,791,320,601,-45,-15,67,-9,-13,11,0,82,U,-28.032887267332836,49.27855832901039,1548.8902497940612,626.6054107890009,25.156712861907863
2025-02-19 17:19:05.337,613,-125,623,-22,59,13,-7,-10,9,538,39,U,11.345300234659575,43.97131514372129,1307.2981494082755,-266.57792606204634,-82.62438349323907
2025-02-19 17:19:06.251,722,-37,677,1,-2,-3,-7,-13,9,515,54,V,3.128267213499416,46.799696580059134,1450.9650022708363,-74.3569322493365,-6.530895481102675
2025-02-19 17:19:06.351,700,-7,679,9,-5,-8,-8,-12,10,571,58,V,0.590657214646671,45.870935542114495,1417.7731893608702,-14.177731893608701,-17.239993680044222
2025-02-19 17:19:06.457,719,67,689,10,1,-15,-8,-15,8,420,71,V,-5.554115186630379,46.085903434321054,1439.3804911929933,134.12864104301886,-1.3228907259698417
2025-02-19 17:19:06.561,770,12,652,0,2,-10,-8,-16,10,0,83,V,-1.0544045035218386,49.73884886049533,1533.1067040304206,23.892572010863695,5.836920743072369
2025-02-19 17:19:06.671,652,260,660,-25,-30,56,-7,-12,10,250,84,V,-21.501434324047903,42.58706944369562,1328.709829480836,529.8536129831557,-25.01301757262604
2025-02-19 17:19:06.784,754,-79,643,-11,-10,-87,-8,-14,11,633,81,V,7.004347644553606,49.330913334827564,1512.4860586638388,-158.47002471411574,-3.8256441921065516
2025-02-19 17:19:06.888,802,185,615,-42,54,36,-8,-14,9,703,59,V,-16.74197038529311,51.31307605037729,1582.5730799746664,365.05738129091435,16.430867600474016
2025-02-19 17:19:07.801,715,-5,685,-1,-1,-4,-9,-13,11,473,61,W,0.4182099414970967,46.22681638217905,1437.0840956843012,-10.049539130659449,-6.78686090034455
2025-02-19 17:19:07.902,729,8,678,-2,-2,-5,-8,-13,10,422,67,W,-0.6760250231619953,47.07392156036289,1461.2329896602268,16.03547862452924,-3.0068134288530928
2025-02-19 17:19:08.008,764,-2,745,-3,3,-24,-8,-15,9,0,83,W,0.15381380368418582,45.721276714387294,1479.952039973126,-3.8742199999296494,46.85305002620589
2025-02-19 17:19:08.118,704,-17,717,-64,-39,73,-11,-14,10,310,84,W,1.3582228640521814,44.46779621916922,1404.5082626285343,-33.915682478245856,3.556215476336547
2025-02-19 17:19:08.221,816,13,609,59,6,-62,-10,-11,11,235,87,W,-1.2228768959372707,53.258898000873536,1617.3467224871113,25.766553176878,10.936085790869015
2025-02-19 17:19:08.332,821,178,657,-32,-25,68,-8,-12,11,0,86,W,-15.159145962811543,50.3380967833279,1590.8241107940657,344.90461841820184,40.95317808562595
2025-02-19 17:19:08.441,736,-382,617,53,-3,-55,-10,-12,12,682,88,W,31.762676858759882,45.40448079884867,1448.0809554775428,-751.5854959136161,20.051699008635865
2025-02-19 17:19:08.549,606,-81,677,-39,31,26,-8,-11,10,372,46,W,6.822749259375924,41.63026680399189,1270.3211483655587,-169.79540101915882,-65.15415419716692
2025-02-19 17:19:09.361,774,-33,630,2,-3,-4,-8,-12,11,605,76,X,2.9984671396944584,50.81757767315152,1549.138351409818,-66.04853436243411,-0.9265651010144893
2025-02-19 17:19:09.462,739,-42,626,14,-10,-7,-8,-13,12,698,84,X,3.8383732974278377,49.668906834211626,1501.3172187499774,-85.32520052435595,-19.751798291591058
2025-02-19 17:19:09.570,593,-247,750,36,15,-20,-9,-14,13,613,88,X,18.22843709580178,36.90613080160288,1193.5057902850638,-497.1263578421767,-9.492989399321914
2025-02-19 17:19:09.671,770,101,623,2,17,41,-9,-12,10,191,84,X,-9.208604603145833,50.66008895941467,1543.3988221631462,202.44581953049058,-2.7499561138181434
2025-02-19 17:19:09.786,750,27,635,-10,-5,-22,-7,-14,10,471,83,X,-2.4347319359137223,49.72100234680617,1512.9053657797326,54.46459316807037,-10.926543026840363
2025-02-19 17:19:09.892,653,122,655,-26,-26,44,-8,-10,13,0,93,X,-10.550980670127169,44.42392107253273,1352.9615729249485,252.77383138873464,-47.10540622640326
2025-02-19 17:19:09.999,636,-115,628,-7,57,0,-8,-11,10,417,45,X,10.37708823709864,44.890185260262605,1341.7502220461135,-242.6120684517344,-68.87286076251473
2025-02-19 17:19:11.015,734,9,687,2,3,-4,-8,-14,10,626,73,Y,-0.7505567963642668,46.891931721992535,1464.0660521242871,17.951763581905432,3.682046581218856
2025-02-19 17:19:11.111,770,72,660,-2,-1,-4,-10,-14,10,558,83,Y,-6.225829064425768,49.231163775302974,1527.350345978583,142.81717520838697,10.842560589786217
2025-02-19 17:19:11.217,1004,-38,739,9,-10,5,-9,-15,11,533,82,Y,2.9436044813586593,53.60873689844242,1808.9842770457358,-68.46753239814537,146.4866725729098
2025-02-19 17:19:11.330,830,55,594,34,-12,-11,-8,-13,11,541,83,Y,-5.29008120537127,54.294293508437384,1642.0254038713047,108.808912304725,12.86374710896996
2025-02-19 17:19:11.437,757,192,583,-13,-20,-12,-7,-14,11,735,85,Y,-18.22831888071388,50.96365134581222,1533.7465619146017,389.0083750166492,-15.207722055763156
2025-02-19 17:19:11.539,855,142,501,-40,6,21,-9,-14,11,0,88,Y,-15.824487023131423,58.65662715760968,1709.0653099485367,283.8447649271254,0.5476955740151084
2025-02-19 17:19:11.649,728,-3,635,-24,-16,50,-8,-13,12,0,95,Y,0.27068670820790014,48.90302985220829,1481.59815384058,-6.105486897694697,-22.328060012044375
2025-02-19 17:19:11.751,560,-231,616,-21,62,7,-9,-10,11,301,42,Y,20.556045219583464,40.40470591949509,1208.1824469040303,-498.3752593479125,-97.00069159443353
2025-02-19 17:19:11.861,817,-52,672,8,-11,-16,-6,-9,8,279,42,Y,4.4247844517439665,50.47804047528603,1588.380739560092,-101.09644853993244,37.52281886856565
2025-02-19 17:19:12.784,732,-60,661,1,-2,-2,-10,-13,11,519,56,Z,5.18661336017544,47.80083800916631,1472.814420805692,-120.72249350866329,-7.9594701537737365
2025-02-19 17:19:12.878,753,-50,656,4,-6,-5,-10,-13,10,562,63,Z,4.358629041051181,48.85600192319231,1506.0583642849358,-100.00387545052695,-0.05084591091349466
2025-02-19 17:19:12.985,709,-46,666,2,0,-5,-7,-13,9,562,64,Z,3.9510911841349787,46.72316930484008,1437.050029820271,-93.23596808424887,-17.8946683502121
2025-02-19 17:19:13.091,1061,12,638,13,20,-30,-8,-14,10,0,83,Z,-1.0775365097585237,58.976210634667375,1917.9533815972022,21.692215437480133,122.69721257397293
2025-02-19 17:19:13.201,695,149,690,42,-48,17,-8,-14,10,711,80,Z,-12.185459729273697,44.554029099188625,1396.5815375228522,299.4110058861942,-6.534188332040117
2025-02-19 17:19:13.308,789,117,645,-56,23,34,-6,-13,11,193,83,Z,-10.281393428932612,50.279143142859176,1558.1669792847206,231.05898171902703,16.21330590792809
2025-02-19 17:19:13.416,831,110,604,72,-39,6,-7,-13,11,149,77,Z,-10.321541042743778,53.54336578440886,1635.3068372505575,216.46660902233612,19.401528640990932
2025-02-19 17:19:13.522,782,94,636,-27,-2,18,-8,-11,12,367,84,Z,-8.407378489016475,50.575203942001366,1554.4588070069258,186.85310467858187,7.759844940658809
2025-02-19 17:19:13.631,555,-141,710,-11,13,6,-5,-10,9,256,31,Z,11.232316997908153,37.478003510125845,1163.4568069433742,-295.58091852074915,-68.38618545909128
2025-02-19 17:19:15.251,737,-39,666,-3,-1,0,-8,-11,10,396,50,a,3.3513310679237622,47.848241982822834,1478.3699098973211,-78.23124353595051,-3.9489280754625042
2025-02-19 17:19:15.344,752,-26,643,-5,-3,-1,-7,-10,11,412,53,a,2.315519702369135,49.44467855928883,1511.7785423410091,-52.268938963917876,-6.651067453815017
2025-02-19 17:19:15.450,752,-41,652,-7,-1,1,-8,-11,11,422,55,a,3.5982176087325155,49.01804910467215,1506.916212062683,-82.15899560448139,-2.528417905411402
2025-02-19 17:19:15.557,746,-50,641,7,-11,3,-9,-11,12,394,60,a,4.460218156796453,49.24328332767844,1503.4884574280352,-100.77000384906401,-9.87144934500077
2025-02-19 17:19:15.665,699,-59,585,-3,8,-21,-7,-13,13,416,87,a,5.759074916005758,49.93094679757279,1464.2691956411181,-123.59353725726179,-55.46134399149389
2025-02-19 17:19:15.771,865,166,581,-11,-11,45,-8,-13,12,0,85,a,-15.945395900922856,55.063625376832114,1684.7884798422415,323.3235695419792,30.367506603072798
2025-02-19 17:19:15.881,740,-253,646,15,0,-26,-8,-12,12,473,85,a,21.38734120073708,46.84654296975197,1469.5244636720208,-502.418499066245,9.144860091722308
2025-02-19 17:19:15.987,875,88,687,-14,-16,11,-7,-11,10,0,88,a,-7.299447803503462,51.63634551532256,1659.0873240386786,166.85678230331854,71.37943815477445
2025-02-19 17:19:16.092,507,-174,710,2,1,-2,-7,-11,9,456,33,a,13.770107056420697,34.743657164749784,1076.905800027802,-369.5889727906066,-88.0929349501763
2025-02-19 17:19:16.914,734,-33,647,-2,-1,-5,-9,-13,12,676,69,b,2.9198202329994345,48.567822185232124,1483.7395527835638,-66.7076365692883,-13.873965464531125
2025-02-19 17:19:17.012,674,-61,660,-1,-11,-22,-8,-13,11,651,80,b,5.280517297348299,45.479465791897816,1386.9992048042377,-125.5296016217485,-38.18913230088526
2025-02-19 17:19:17.115,814,-255,732,3,-9,44,-7,-13,11,376,84,b,19.206326418295454,46.400635702171485,1538.179512787904,-481.8621323844171,80.7722317435555
2025-02-19 17:19:17.220,762,21,587,15,6,-9,-9,-10,11,202,88,b,-2.048890033484819,52.373741895044,1554.009936499474,42.82704549407998,-23.117890715473777
2025-02-19 17:19:17.330,687,118,726,14,-17,1,-8,-13,12,672,85,b,-9.231808469362353,43.04621231698265,1369.5880166775294,235.2421920930836,4.662445257807576
2025-02-19 17:19:17.441,1204,-47,507,2,41,-3,-7,-11,11,490,81,b,5.296306075463724,67.07640761872722,2125.025099957781,-82.95363762293664,119.15969628023646
2025-02-19 17:19:17.548,478,-142,759,16,-23,-13,-7,-11,8,567,36,b,10.596864593382165,31.758976090693217,1004.3471353603293,-298.3625381195957,-76.76877769558553
2025-02-19 17:19:18.267,754,-42,637,-1,-1,-1,-8,-13,11,567,65,c,3.772283609379837,49.746680396384384,1517.1950333620332,-84.51219018727505,-7.768217840338366
2025-02-19 17:19:18.359,760,-37,631,5,-7,1,-10,-11,12,632,68,c,3.35581484796088,50.25006562805568,1528.842564502792,-74.43049327184644,-7.341655527975718
2025-02-19 17:19:18.469,749,14,633,2,-4,-12,-8,-11,12,695,86,c,-1.266998673767215,49.79104345855965,1512.695120622781,28.274675151827676,-12.419240793351491
2025-02-19 17:19:18.571,908,69,561,6,16,20,-7,-12,10,0,83,c,-7.011858274475106,58.09785498842559,1756.9519036163995,133.5128649223916,36.48235910925098
2025-02-19 17:19:18.681,739,-25,703,49,-12,-2,-7,-11,12,619,79,c,2.0366872276760177,46.412029723045585,1463.3166368047393,-49.50326917472054,13.968070806858236
2025-02-19 17:19:18.782,460,-206,762,-35,26,17,-5,-9,7,432,24,c,15.127794958170398,30.231702936298927,963.4980906727108,-431.4795797360401,-72.05553281001221
2025-02-19 17:19:19.601,760,-25,626,6,-7,2,-8,-13,11,584,70,d,2.286954809500708,50.499849665836784,1531.6229144264112,-50.382332711395094,-9.57361109333317
2025-02-19 17:19:19.703,766,-21,628,7,-6,-3,-8,-12,12,626,79,d,1.91522801534072,50.63791660645595,1539.1534496345616,-42.19611284898929,-5.864708055489132
2025-02-19 17:19:19.801,753,0,636,-7,3,-12,-8,-11,11,547,85,d,0.0,49.81484433975261,1516.9632298568138,0.0,-9.25977979938068
2025-02-19 17:19:19.914,863,-154,607,12,14,26,-8,-12,11,0,82,d,14.23595684020369,54.0337090144504,1672.362667971179,-298.4285641570817,37.72637374448948
2025-02-19 17:19:20.029,662,-46,756,21,-1,-60,-8,-10,11,695,83,d,3.481958279304491,41.154916189871216,1320.0972103739387,-91.72880918006219,4.456962171151872
2025-02-19 17:19:20.136,837,-31,717,-12,-10,85,-8,-13,12,564,80,d,2.4756815315152787,49.38918585428488,1596.148465092379,-59.116609818236256,66.69002452660004
2025-02-19 17:19:20.242,1006,73,699,-8,65,12,-7,-11,11,446,67,d,-5.962066698267355,55.06146985697186,1825.766935024659,132.48606983777347,129.40050936159366
2025-02-19 17:19:21.056,761,-37,641,-2,2,0,-7,-11,11,445,62,e,3.303578911270694,49.84517797535489,1525.304737380202,-74.16067711309786,-2.783622418803475
2025-02-19 17:19:21.156,757,-34,650,-3,1,-2,-8,-11,11,461,63,e,2.9942811160952982,49.31018549482668,1515.2502480252062,-68.05615380826555,-1.073528687429416
2025-02-19 17:19:21.267,664,-97,620,12,-37,-13,-8,-13,10,441,84,e,8.891935072542067,46.61693012503647,1390.777664280592,-203.17083348677323,-58.61769857525155
2025-02-19 17:19:21.373,664,-29,737,10,-12,-10,-8,-11,10,590,85,e,2.253352577739428,41.99522421034983,1333.068660495217,-58.22137222042363,-5.625907808697207
2025-02-19 17:19:21.476,871,18,568,18,12,26,-7,-13,11,0,83,e,-1.8151038701216524,56.87750634114088,1708.5042587695402,35.307780319003136,21.84337660034555
2025-02-19 17:19:21.582,741,-48,678,19,-13,-2,-8,-10,12,367,84,e,4.04958170327138,47.47077750312182,1477.932670477779,-95.73652926171849,3.7215241782264457
2025-02-19 17:19:21.693,646,-131,694,7,-15,-1,-8,-11,10,446,50,e,10.689424826186269,42.448625536344224,1320.9288537855323,-267.86637747044074,-31.078366141113293
2025-02-19 17:19:22.411,743,-59,610,3,-10,-3,-8,-10,11,421,80,f,5.524538329501793,50.48325907773366,1514.438698438514,-120.25825465393315,-23.348056591512204
2025-02-19 17:19:22.508,781,-40,636,-8,-3,-2,-8,-10,12,197,88,f,3.5987681168082992,50.78728914094575,1555.8042562472124,-79.68267637629768,5.045445616866914
2025-02-19 17:19:22.618,835,-172,575,-9,-2,-77,-7,-13,13,587,86,f,16.653524662215514,54.29249912248297,1647.0071256297747,-339.26374324349854,15.833416482490406
2025-02-19 17:19:22.721,741,30,650,-15,-6,32,-8,-14,12,755,82,f,-2.642545294064724,48.71276590245644,1492.4111678661388,60.421504771908445,-9.132603391349562
2025-02-19 17:19:22.831,672,-66,490,2,-38,-22,-10,-13,12,485,84,f,7.671221483261989,53.656173040883864,1477.475200988882,-145.10917152569377,-97.32566738772653
2025-02-19 17:19:22.938,701,-4,666,28,-18,20,-6,-13,11,723,82,f,0.3441146582671129,46.46613670451961,1425.9674088924567,-8.13676124902971,-22.770747963446752
2025-02-19 17:19:23.044,707,-78,612,-34,41,6,-7,-13,10,655,54,f,7.263244740584562,48.89102024832303,1460.460355101336,-161.12575346238216,-40.21745024330619
2025-02-19 17:19:23.861,764,-26,614,4,-6,0,-8,-11,12,505,76,g,2.424757044037987,51.187318116105715,1543.1992529601348,-52.51725206408836,-12.21510643654824
2025-02-19 17:19:23.958,778,31,619,-2,2,-3,-9,-11,12,532,87,g,-2.8670217581711377,51.45822824494996,1560.1541017096774,62.16552333290488,-3.3051271957459676
2025-02-19 17:19:24.059,960,47,521,2,12,14,-7,-13,12,0,87,g,-5.154764130746211,61.41349674450792,1838.0957129804074,89.9901026146658,44.45013910125789
2025-02-19 17:19:24.175,687,-77,611,22,3,-42,-7,-12,14,305,89,g,7.182716006650324,48.12667412323096,1431.6223758576257,-160.4584031165024,-51.247848106272386
2025-02-19 17:19:24.281,682,52,704,-8,-13,65,-7,-11,13,234,85,g,-4.224403217083851,44.01272557935331,1376.8181210379244,104.97733474189451,-13.23160881334104
2025-02-19 17:19:24.387,976,-112,509,4,42,-22,-9,-10,13,0,89,g,12.409565884401205,61.89812314918693,1858.111436501631,-213.22590254936748,48.96442502117827
2025-02-19 17:19:24.494,529,-101,723,24,-3,-40,-7,-9,10,446,36,g,7.952510425362109,35.92848199988634,1115.7749597559446,-213.03075791181547,-78.96275218061965
2025-02-19 17:19:25.211,750,21,672,1,-3,-2,-9,-14,11,580,67,h,-1.7899106082460694,48.12576225722096,1494.6117526812836,41.84912907507595,4.827869597569588
2025-02-19 17:19:25.301,698,-1,657,2,-9,-10,-8,-14,10,577,72,h,0.08720812065066638,46.733111103493485,1426.1689690096969,-2.043222018638534,-28.39686624551689
2025-02-19 17:19:25.416,797,-239,740,15,-1,24,-8,-14,11,597,81,h,17.899054353200906,45.70447920223161,1512.7473314074673,-453.6343942363672,75.44162454011826
2025-02-19 17:19:25.521,754,-31,668,5,-1,11,-9,-12,10,371,84,h,2.657029553049811,48.43033748333542,1502.1495272634447,-61.75946332250238,5.183177437690915
2025-02-19 17:19:25.631,671,59,718,-24,-16,32,-8,-12,12,491,84,h,-4.697594711896427,42.96584169174936,1352.5622241353594,118.92872015497198,-11.302052055421655
2025-02-19 17:19:25.740,866,-6,555,-25,62,21,-9,-12,10,650,59,h,0.6193897032181166,57.34357857834515,1707.9214397101373,-11.8331739471834,15.431409885535345
2025-02-19 17:19:26.651,770,-29,631,2,-6,-7,-9,-11,10,635,72,i,2.631393373712516,50.6364119697409,1543.1367942285333,-58.11813900341229,-2.570541763901929
2025-02-19 17:19:26.755,772,-91,604,15,6,-10,-8,-14,11,652,80,i,8.567871266227911,51.64848636027228,1556.2188208638129,-183.44030142306605,-9.559802851998711
2025-02-19 17:19:26.857,831,85,634,21,1,9,-9,-10,12,177,92,i,-7.63607625977747,52.41227539876683,1623.420346407932,166.05382604653937,29.433815135223995
2025-02-19 17:19:26.971,1017,350,735,-18,-23,-38,-8,-15,10,632,85,i,-25.463345061871614,51.32373264709848,1797.689323912236,618.6738086226967,170.78500189233694
2025-02-19 17:19:27.074,1048,95,688,-25,67,49,-8,-13,11,730,62,i,-7.861767331945358,56.46686861605879,1881.566524149991,170.56185094871103,140.7731215503875
2025-02-19 17:19:27.181,645,-46,659,33,-44,-7,-8,-11,10,688,42,i,3.9929252416954353,44.315280013097386,1343.6061262101348,-95.82307256692434,-54.76967003485106
2025-02-19 17:19:27.901,766,14,627,-1,-1,-4,-7,-12,12,797,79,j,-1.2791190539541974,50.69137666454222,1539.744873596494,28.141551214557328,-6.339472251960274
2025-02-19 17:19:28.001,772,-105,632,25,-2,-21,-7,-11,11,791,81,j,9.432917140290074,50.31159242754272,1541.528778653931,-209.66388828842327,2.023072397299984
2025-02-19 17:19:28.101,785,41,578,-60,-3,36,-8,-10,12,0,94,j,-4.057437375133702,53.5668945509614,1589.550786127042,83.02112386141238,-14.395355899911237
2025-02-19 17:19:28.213,316,-412,590,-62,3,-74,-7,-11,11,556,42,j,34.92679279104417,23.70745183254476,718.0668634294075,-936.2137586484681,-160.69446020047587
2025-02-19 17:19:28.313,985,-71,661,22,1,31,-8,-13,13,689,83,j,6.13080610839073,55.98355822611379,1813.8770706994992,-130.7464690554969,104.76878808896561
2025-02-19 17:19:28.421,430,-115,694,-26,21,21,-7,-12,9,632,35,j,9.408762252125788,31.4358270629078,951.5432554403038,-254.4824985479882,-147.74655645481573
2025-02-19 17:19:29.142,743,2,656,0,-1,-3,-8,-13,10,704,68,k,-0.17468171338858504,48.55835390183283,1492.6301893639366,4.017847077695656,-5.853841484175405
2025-02-19 17:19:29.241,733,2,651,-2,-1,-4,-9,-13,12,682,68,k,-0.17602334640274253,48.390594003219384,1480.6890865684566,4.040079363079009,-13.045832682217451
2025-02-19 17:19:29.344,784,18,630,1,2,-6,-8,-13,10,659,79,k,-1.6365770416167182,51.204221184313695,1563.3841269527693,35.89402332289521,3.709183698667516
2025-02-19 17:19:29.458,784,325,573,-21,-15,52,-8,-12,11,153,84,k,-29.561483645806565,49.96152134818897,1549.6125876345773,642.3776670679051,13.438759292585814
2025-02-19 17:19:29.565,613,-120,670,-9,-12,-17,-8,-13,9,757,77,k,10.154266580200265,42.00602814057172,1282.2087895917748,-251.00335195923816,-61.43538177241294
2025-02-19 17:19:29.671,738,-4,646,12,20,-16,-9,-14,11,594,79,k,0.35476809464445286,48.80253955085492,1490.4441035946818,-8.078287824361418,-12.64348363436909
2025-02-19 17:19:29.777,644,114,671,-45,-43,53,-8,-11,11,0,87,k,-9.642235900193624,43.41662674490245,1331.298327623083,235.6646107904215,-45.11363017870906
2025-02-19 17:19:29.885,766,-52,482,-14,76,17,-7,-9,12,585,51,k,6.157472339553647,57.67052253074148,1610.9868083628603,-109.36202876614719,-49.701882024672045
2025-02-19 17:19:30.701,715,-16,668,0,-8,-7,-7,-12,9,652,54,l,1.3720916494606148,46.93819953709981,1445.6176581915474,-32.349486057433225,-14.59104289783727
2025-02-19 17:19:30.799,753,40,651,0,-2,-7,-8,-12,12,637,65,l,-3.5160576590323074,49.10179716290792,1508.8740056645784,80.15266962361639,-2.484698124356555
2025-02-19 17:19:30.901,876,45,690,-16,-9,-20,-8,-14,10,545,81,l,-3.7313969991604465,51.71439474331692,1660.932056361893,85.3218522103712,71.73159944097495
2025-02-19 17:19:31.012,770,252,600,-15,-13,51,-8,-13,11,283,84,l,-22.78240573048169,49.796900715187235,1533.7611129523773,501.95818242077803,4.861470426718938
2025-02-19 17:19:31.122,840,-21,622,-26,31,-1,-8,-12,11,609,70,l,1.9336889250516445,53.46532353642342,1643.4967156847067,-41.08741789211767,27.02981290965772
2025-02-19 17:19:31.228,820,37,647,7,-10,0,-8,-11,11,686,76,l,-3.273009855463863,51.68020518647689,1604.562199547257,72.40097729664453,27.961288893810547
2025-02-19 17:19:31.335,815,-56,752,2,-3,-12,-8,-11,11,721,83,l,4.258846122170349,47.22332479976838,1549.0064005504587,-106.434795620645,74.732744522767
2025-02-19 17:19:31.441,786,53,603,-6,-4,5,-9,-12,12,523,86,l,-5.02303911228375,52.39893752122972,1578.278328837893,106.42334787329303,-4.816580520673597
2025-02-19 17:19:31.547,782,19,623,3,0,-3,-7,-11,12,662,84,l,-1.7468418770596847,51.44355682490906,1563.9945260574764,37.99986700139648,0.004360954210028467
2025-02-19 17:19:31.662,608,-105,668,-31,41,13,-9,-11,10,638,40,l,8.932981659616733,41.95996947704433,1276.6112342355061,-220.46740064922392,-66.59260603506266
2025-02-19 17:19:31.765,792,-17,662,-1,0,3,-8,-11,11,671,38,l,1.4710184724459936,50.09985293122163,1559.163505317786,-33.466893422225205,20.759797322759596
2025-02-19 17:19:31.871,718,-55,686,-2,0,-1,-7,-11,9,686,36,l,4.583879970028804,46.21396950527854,1439.928960744368,-110.30096495952682,-3.753853858825323
2025-02-19 17:19:31.977,708,-73,689,-3,0,0,-6,-10,9,663,35,l,6.0479620605509234,45.61935698402356,1422.7090152891196,-146.69174875156176,-6.528971093507721
2025-02-19 17:19:33.191,728,-53,687,0,-2,-3,-8,-11,10,693,39,m,4.411460425914183,46.57483287554067,1454.2727982588835,-105.87425591719895,1.6299280166855397
2025-02-19 17:19:33.292,722,-71,685,5,-5,1,-8,-11,11,728,42,m,5.917555752430737,46.3534907523889,1445.6118314869318,-142.15850420439358,-1.5292307043607707
2025-02-19 17:19:33.401,734,-52,665,12,-16,-2,-9,-11,11,719,51,m,4.471173244907676,47.73668718030349,1474.0618813737826,-104.42945208642601,-5.492031489871238
2025-02-19 17:19:33.506,750,-4,648,1,3,-4,-8,-11,10,684,60,m,0.3536731592464612,49.172444466975996,1506.6807154246635,-8.035630482264871,-5.772138126908999
2025-02-19 17:19:33.616,1029,18,825,1,4,-26,-9,-13,11,593,82,m,-1.2498914301212114,51.27247642165603,1809.1299650714354,31.6465883102875,199.5313691118231
2025-02-19 17:19:33.721,771,112,611,-1,-4,15,-8,-11,11,103,86,m,-10.387345734304727,51.14225456431503,1549.7060478432245,225.11942588643467,-6.106868005460683
2025-02-19 17:19:33.831,729,-77,736,-2,-13,-7,-8,-13,11,404,82,m,5.972532485577517,44.5703183756054,1430.784099345188,-151.12534382658362,27.477233034213555
2025-02-19 17:19:33.935,826,-44,585,9,-4,-3,-8,-11,12,210,88,m,4.301327342640804,54.61637763231974,1641.2933462458045,-87.42966977580556,7.5827995716759915
2025-02-19 17:19:34.045,732,140,629,-3,-11,44,-7,-12,11,332,85,m,-12.548095969494437,48.6419920270049,1482.5955430206207,283.5565246214302,-15.978957049139922
2025-02-19 17:19:34.152,789,-54,579,-27,88,33,-8,-9,11,664,41,m,5.328234781979844,53.60885911494626,1593.9855425922747,-109.09406755384387,-11.730835438437225
2025-02-19 17:19:34.971,747,-59,665,-1,-1,-1,-7,-10,11,647,52,n,5.070109537845508,48.21206191266339,1492.6163016382266,-117.89071190984654,1.231806439865295
2025-02-19 17:19:35.069,732,-55,658,5,-10,-8,-10,-11,13,638,60,n,4.7780539101462915,47.94821819642856,1474.5397866033009,-110.79192385680537,-9.474289050507878
2025-02-19 17:19:35.172,726,-64,657,1,5,-2,-7,-12,10,591,62,n,5.563769785120735,47.72156524956711,1465.8843541342944,-129.22396510274774,-12.564766757894404
2025-02-19 17:19:35.281,659,-46,643,3,-2,-18,-7,-13,11,578,65,n,4.091949204740548,45.630958144481625,1373.8506185018805,-95.8985257224378,-54.49460955494544
2025-02-19 17:19:35.387,749,132,639,-8,-12,44,-7,-13,11,205,84,n,-11.67157821823638,48.93924741241603,1503.0135152610837,264.8835567616329,-4.2772179597232025
2025-02-19 17:19:35.494,843,-135,532,43,2,-58,-9,-12,10,637,84,n,14.238790673713318,56.932600486394186,1681.0293052751106,-269.2039812718149,3.1369034325518896
2025-02-19 17:19:35.601,752,161,624,-16,-10,54,-8,-13,12,293,84,n,-14.467517065388291,49.40468001473986,1511.324461124353,323.5681359588043,-6.077744337229092
2025-02-19 17:19:35.713,828,-5,545,-20,67,19,-8,-10,12,644,49,n,0.5256346064576132,56.645478075690995,1663.2845400000797,-10.043988768116424,-4.794775724690112
2025-02-19 17:19:36.631,740,-59,662,4,-4,0,-7,-12,10,662,50,o,5.0929652985453595,48.0717053604528,1483.981656649188,-118.31745640851635,-3.561968515895387
2025-02-19 17:19:36.725,743,-51,642,5,-9,-2,-8,-11,11,687,61,o,4.541995680266741,49.08168969268861,1498.6441916806791,-102.86790548548403,-10.925398464328396
2025-02-19 17:19:36.835,690,-44,624,22,-20,-5,-8,-10,11,709,74,o,4.033411072770194,47.80475952328316,1430.8603931248767,-91.2432714456443,-45.99548595641011
2025-02-19 17:19:36.942,738,-71,691,-7,5,-31,-8,-11,13,689,83,o,5.866533135032248,46.73365445684234,1466.1754688119695,-141.05482152527077,9.198849662505609
2025-02-19 17:19:37.048,937,264,558,9,-22,68,-7,-12,10,281,78,o,-25.319686910309642,56.62289592202738,1772.0677737818896,499.2805680666155,60.70243567738078
2025-02-19 17:19:37.155,782,-104,567,6,2,-31,-7,-12,11,718,82,o,10.393745977741316,53.6038500128355,1586.9336705583328,-211.05000222259153,-16.62837750201345
2025-02-19 17:19:37.261,692,7,660,-36,55,40,-7,-11,9,652,38,o,-0.6076597257559496,46.354250589381856,1415.6209847140644,14.319865452309902,-30.158742646362157
2025-02-19 17:19:38.281,729,-49,665,0,-2,1,-8,-11,12,695,47,p,4.214178522734045,47.55142061672191,1466.8833543712751,-98.59709789326817,-8.10347140863928
2025-02-19 17:19:38.371,750,-50,671,0,-5,-1,-6,-10,11,696,51,p,4.261556253010584,48.1032251651628,1494.3491371802102,-99.623275812014,5.055638602772092
2025-02-19 17:19:38.485,756,-32,647,-4,-1,-4,-8,-11,11,698,57,p,2.831487062554715,49.40784378804257,1515.3603911625755,-64.14223877936828,-2.875890320352255
2025-02-19 17:19:38.592,711,-21,619,2,-16,-17,-8,-11,11,689,71,p,1.9430534335394025,48.940693400461456,1465.0300923348511,-43.270930997231886,-37.462204156501684
2025-02-19 17:19:38.698,721,-24,708,-4,-15,83,-6,-12,11,0,82,p,1.9414863909143774,45.50477335699299,1434.3088399875523,-47.74398357794904,7.552484450503357
2025-02-19 17:19:38.801,856,74,598,60,25,-90,-8,-10,13,493,81,p,-7.054251733364708,54.85726511908572,1673.720613956545,144.69080073923408,26.741907539703334
2025-02-19 17:19:38.911,709,195,761,-8,-19,17,-6,-12,10,694,77,p,-14.372337115508733,42.06658439154964,1378.99377546218,379.2719128563119,41.86704777613659
2025-02-19 17:19:39.021,1315,59,612,-17,70,17,-7,-10,12,661,69,p,-5.506595431893963,64.94123391287609,2220.8738470344606,99.64376956276288,190.4070004676122
2025-02-19 17:19:39.127,398,-149,770,2,-14,-3,-5,-8,7,647,23,p,10.951748971153062,26.906399111247577,850.5343073967374,-318.4161100555625,-105.50607209921543
2025-02-19 17:19:40.046,722,-58,673,-1,-3,0,-8,-10,10,640,38,q,4.925652929555719,46.90596674078218,1452.23342829487,-116.66141113726104,-7.67464992028772
2025-02-19 17:19:40.141,734,-62,664,2,-5,1,-8,-11,8,684,42,q,5.334440037031728,47.74274528743921,1474.1329873957611,-124.51804525686265,-5.5480975896257405
2025-02-19 17:19:40.248,806,11,642,15,-24,-5,-8,-9,10,747,62,q,-0.9816073371872289,51.45766684234616,1588.1479964831601,21.67447637880243,18.998742255349043
2025-02-19 17:19:40.351,649,-31,648,2,-10,-14,-8,-11,11,771,68,q,2.7389136286864697,45.01143104128848,1356.2478414969687,-64.7822543704253,-58.15809135598715
2025-02-19 17:19:40.465,830,-35,553,9,17,-12,-8,-11,10,529,77,q,3.6214847041173397,56.27299873117691,1661.6925531933962,-70.07137272502271,-1.1276890553589283
2025-02-19 17:19:40.571,699,-58,645,5,-9,-36,-8,-11,10,613,83,q,5.13835868145779,47.18582019834592,1432.5616910292924,-118.8677797992832,-31.891689147200964
2025-02-19 17:19:40.675,709,-2,657,-3,-12,70,-8,-11,11,212,83,q,0.1744158372342232,47.1799134908288,1442.4916237942098,-4.069087796316531,-22.695341089980047
2025-02-19 17:19:40.784,783,-64,573,45,-11,-28,-7,-11,11,589,85,q,6.373114044247778,53.63387695872203,1588.2445241462158,-129.81819865307511,-16.278559815813082
2025-02-19 17:19:40.894,667,-54,668,-54,72,25,-8,-8,9,665,32,q,4.621645006193054,44.86378222825794,1372.4236743560584,-111.11076224171987,-38.481281064238374
2025-02-19 17:19:41.811,741,-24,671,1,-6,-4,-7,-11,9,643,59,r,2.0484541926645568,47.819894875629835,1482.0377938912573,-48.001224093643955,-0.03422361812909003
2025-02-19 17:19:41.907,753,-16,656,5,0,1,-8,-13,10,629,64,r,1.3971810272963767,48.92976994008022,1506.9048518806126,-32.01922660038486,-0.7882906157791467
2025-02-19 17:19:42.013,762,-3,657,2,-2,-7,-8,-10,10,582,69,r,0.26162274569479377,49.23163745584258,1519.355744562321,-5.981715529772916,4.004298979731402
2025-02-19 17:19:42.121,784,-54,606,-7,-1,-11,-8,-13,9,550,83,r,5.092115124498963,52.1877533493119,1574.0239888906674,-108.41491760216331,-4.656297535388148
2025-02-19 17:19:42.226,763,174,613,-3,-6,21,-9,-10,9,577,85,r,-15.846588877486354,50.13318109096068,1530.536499002009,349.03453581435065,-3.644657782741092
2025-02-19 17:19:42.335,743,-78,674,5,-9,-29,-9,-11,11,727,80,r,6.601303516761337,47.59806105869416,1481.4325211967766,-155.5205069358662,4.143311861874167
2025-02-19 17:19:42.443,701,-7,611,-31,45,21,-7,-11,9,740,51,r,0.6563877423259966,48.922340802045944,1454.8196591295186,-14.527443101150684,-46.038247829009606
2025-02-19 17:19:43.561,748,-27,648,6,-12,-5,-9,-11,12,728,60,s,2.3859440303888126,49.07268937796028,1503.541294376052,-54.2722124975313,-6.533099940751072
2025-02-19 17:19:43.659,731,-49,632,7,-10,3,-8,-11,11,768,70,s,4.433367044362399,49.06935736059754,1486.5031959121286,-99.64248508850108,-21.184705631279257
2025-02-19 17:19:43.766,761,-28,631,-1,-1,-2,-10,-11,12,764,83,s,2.5407766985773774,50.30773115895512,1530.485739653191,-56.312221695518204,-7.036138923999488
2025-02-19 17:19:43.872,794,-50,604,0,9,-21,-8,-13,10,523,86,s,4.732238142479697,52.64524138043676,1588.8939635051404,-100.0562949310542,-0.6800427671347506
2025-02-19 17:19:43.983,677,110,737,12,-12,27,-7,-11,10,590,81,s,-8.488943880504715,42.255936136701564,1349.4434942214723,219.25965194145044,4.960331992282022
2025-02-19 17:19:44.081,956,3,474,7,22,2,-8,-10,9,447,80,s,-0.36262667396251363,63.62659795435887,1851.9180730960275,5.811458388376654,29.78957463648851
2025-02-19 17:19:44.193,450,-159,789,-11,-4,6,-7,-9,8,609,29,s,11.393698173861754,29.209661246322693,938.0068448103189,-331.4290851663127,-66.63866790075929
2025-02-19 17:19:45.314,807,24,639,5,-15,-11,-8,-14,11,729,71,t,-2.150943127516008,51.607403798721954,1590.7737159117069,47.30925549179797,18.391072530878887
2025-02-19 17:19:45.408,807,22,680,-4,-6,-15,-8,-15,11,721,83,t,-1.8530406308265097,49.8668373977496,1571.5484562473448,42.842708844413366,35.77081753631421
2025-02-19 17:19:45.519,674,-212,710,48,13,3,-9,-14,10,313,82,t,16.625180444438225,42.29004065859929,1346.8839382262354,-423.64895386344494,1.1756733818589282
2025-02-19 17:19:45.625,680,99,711,-6,-9,37,-8,-11,10,712,80,t,-7.926926682689598,43.448592831867415,1367.703475170921,199.1215353557664,-8.054663009595174
2025-02-19 17:19:45.735,574,-90,571,-26,-17,-63,-10,-13,11,0,71,t,8.957167730611088,44.79861349781671,1278.6170388350297,-200.4800235107189,-129.9343713846722
2025-02-19 17:19:45.838,649,193,664,3,-44,21,-9,-14,10,551,77,t,-16.207174557884574,43.18488388397418,1333.3547612339771,396.51381959654475,-36.17189747205032
2025-02-19 17:19:45.948,1040,100,614,-23,59,17,-8,-14,13,696,69,t,-9.250340904327112,59.11367710832291,1898.1874690012598,182.51802586550576,107.33932118579457
2025-02-19 17:19:46.963,737,-4,658,1,-2,1,-9,-13,11,560,60,u,0.3482983206587489,48.24071929798327,1482.9495065570466,-8.048572627175286,-7.990197170334568
2025-02-19 17:19:47.057,740,-12,646,-2,-3,3,-9,-12,11,574,64,u,1.0641954923877,48.875022805488655,1493.2767483017446,-24.215298621109365,-11.590242436387598
2025-02-19 17:19:47.169,735,-27,656,-1,-2,-2,-8,-14,11,583,70,u,2.356880166538064,48.226456056339416,1480.7836884298513,-54.39613549334149,-9.62462531970425
2025-02-19 17:19:47.275,683,-111,705,8,1,-13,-9,-14,11,461,81,u,8.947584754815628,43.74142898927466,1374.404987917405,-223.36596436139376,-8.675719592636142
2025-02-19 17:19:47.382,802,108,639,4,-22,47,-8,-13,10,507,82,u,-9.593134262730338,51.059779123867294,1579.8021350838671,212.7414346496978,19.279844989288108
2025-02-19 17:19:47.489,736,-65,625,5,-1,-17,-8,-11,11,636,85,u,5.937416099481518,49.51046597545887,1496.5245848158443,-132.16589403944278,-20.82590422541125
2025-02-19 17:19:47.591,690,-41,645,-22,38,11,-8,-12,9,692,53,u,3.637163767705306,46.87295363918525,1419.8396572315726,-84.36728398042676,-37.24141871646998
2025-02-19 17:19:47.706,707,-47,656,5,-14,-14,-8,-11,10,655,49,u,4.098030554997421,47.06972152660019,1439.1830634098997,-95.67412161282218,-23.3664633619436
2025-02-19 17:19:47.811,751,-9,665,-3,-6,-3,-8,-11,11,651,61,u,0.7753842637416343,48.472955077027684,1499.642865493738,-17.97175204985838,2.087209649353099
2025-02-19 17:19:47.911,774,-5,647,-3,0,-2,-8,-12,10,656,67,u,0.44277155297817355,50.106323576789194,1541.2359421652968,-9.95630453595153,5.6541930478719
2025-02-19 17:19:48.025,755,-16,654,-1,-2,-2,-7,-13,11,658,66,u,1.401452050733347,49.09158243738173,1510.7572702993837,-32.016048112304816,-0.6559665904594567
2025-02-19 17:19:48.131,750,-11,658,-3,0,-1,-8,-13,11,660,67,u,0.9577429671468132,48.73447547412629,1501.6611274363952,-22.024363202400465,-1.4573624708641546
2025-02-19 17:19:48.238,726,-34,653,-5,1,-4,-7,-13,8,651,65,u,2.9805497086469876,47.99166727285915,1469.0475035963575,-68.79836793701949,-15.333360672756612
2025-02-19 17:19:48.349,852,80,613,-6,-4,-12,-7,-12,11,640,82,u,-7.435403771397083,54.03593441119411,1661.3854787430432,155.99863650169416,30.660447805768285
2025-02-19 17:19:48.455,824,113,592,32,-13,43,-8,-13,9,661,76,u,-10.806533111522837,53.81760352502627,1631.1417314272794,223.68812579039144,12.111765770692614
2025-02-19 17:19:48.566,708,-38,634,12,-1,-41,-7,-11,12,757,81,u,3.4300284400617875,48.10512430087501,1452.371271474709,-77.95213038988553,-32.569754399668795
2025-02-19 17:19:48.668,811,216,579,-6,-5,48,-8,-11,12,656,82,u,-20.4583820536357,52.69277119534468,1606.3970191234494,427.84433554952534,11.139489429744572
2025-02-19 17:19:48.778,705,-53,657,-45,81,25,-8,-10,7,655,31,u,4.612046810782411,46.925706715612286,1435.4687653951537,-107.91467314318177,-23.73472179378166
2025-02-19 17:19:49.994,678,-96,714,0,-3,-1,-7,-10,8,512,26,v,7.657709693713878,43.262315707206824,1363.3395375743848,-193.03922655920496,-7.729247534087108
2025-02-19 17:19:50.089,674,-91,720,6,-6,0,-8,-9,8,598,27,v,7.203356111415926,42.88355808665623,1354.51062637719,-182.87903115775117,-6.954971797591725
2025-02-19 17:19:50.201,637,-137,711,11,-20,-5,-7,-12,8,662,31,v,10.906447738961463,41.339335289407884,1297.5172779834206,-279.0578761126038,-26.24926946030189
2025-02-19 17:19:50.307,736,-38,660,19,-31,0,-9,-11,9,677,53,v,3.2952099528510614,48.069049344784595,1479.9506806228042,-76.41049709737305,-7.129686428058221
2025-02-19 17:19:50.411,881,12,726,7,13,-22,-9,-13,11,628,82,v,-0.946951446773465,50.505467568592756,1652.6852789577056,22.511036716790542,90.08227863417244
2025-02-19 17:19:50.523,933,-204,640,13,-6,-8,-9,-12,10,609,78,v,17.679680977438853,54.247482420686524,1744.548309223087,-381.4446463896139,83.31091328748562
2025-02-19 17:19:50.624,811,61,580,3,-24,-24,-8,-11,11,562,86,v,-6.003863633014249,54.279676608724884,1622.8764878509733,122.0659257199869,-0.6268347146293536
2025-02-19 17:19:50.733,1014,63,639,-17,50,20,-9,-13,11,755,70,v,-5.6306827576352605,57.656665220224575,1858.8574423338946,115.49114286689877,106.58983663574111
2025-02-19 17:19:52.251,739,-57,674,0,-1,0,-6,-11,10,627,47,w,4.8339863816096615,47.53216405190866,1476.6564757528408,-113.89637228404862,1.2253522903724843
2025-02-19 17:19:52.351,730,-51,665,-1,-1,0,-8,-11,10,634,48,w,4.385527853039956,47.58411772499229,1468.26839698973,-102.57765513215922,-7.532169860507452
2025-02-19 17:19:52.456,745,-45,671,-2,0,-2,-7,-11,11,637,48,w,3.836743786426236,47.92761345675764,1487.298864044952,-89.83684413694341,2.4328352024659807
2025-02-19 17:19:52.564,742,-73,654,5,-3,1,-8,-10,10,654,48,w,6.369036740710634,48.43097006164752,1490.1568529719907,-146.6057281225813,-5.42666016668727
2025-02-19 17:19:52.670,726,-64,675,5,-1,4,-8,-11,10,737,48,w,5.416296887545157,46.95691723053926,1456.8406756706372,-128.42672622991844,-4.500628206171086
2025-02-19 17:19:52.773,729,-51,674,-1,-1,-2,-8,-11,8,728,47,w,4.327191313539178,47.16340581523329,1462.2957631846718,-102.30052664254904,-3.971665825060086
2025-02-19 17:19:52.883,692,-48,677,0,1,-3,-7,-12,10,682,51,w,4.055543415366723,45.555949046859986,1405.934543436934,-97.521471221059,-21.459083680352933
2025-02-19 17:19:52.989,743,-8,672,10,2,-1,-8,-10,9,628,54,w,0.6820603931726519,47.87048311684942,1484.6303609987008,-15.985252877509565,1.2387582891964257
2025-02-19 17:19:53.101,610,-30,659,26,-33,-29,-8,-12,9,626,74,w,2.606506019916009,42.759167340550185,1288.918228648129,-63.38942108105552,-74.45428308051964
2025-02-19 17:19:53.211,927,-137,729,-21,-20,7,-8,-14,10,633,75,w,10.64338023526007,51.334108828974635,1707.802483087867,-252.3936787303536,114.97086281439601
2025-02-19 17:19:53.311,738,-13,587,14,-17,-32,-7,-11,11,676,81,w,1.268694029485824,51.494663891541634,1520.5501770133005,-26.784759215681447,-35.43489689269313
2025-02-19 17:19:53.423,749,18,623,1,-10,46,-7,-12,11,692,79,w,-1.654955378364021,50.23538611096331,1517.6787114474882,36.47291963425205,-16.368274007723812
2025-02-19 17:19:53.530,754,27,555,-5,-5,-42,-7,-11,11,674,83,w,-2.78516642211435,53.61183539978607,1559.0163607606073,55.82684580972996,-37.551830533338034
2025-02-19 17:19:53.632,762,9,599,-26,73,30,-8,-10,10,779,48,w,-0.8608067061489858,51.826350932506074,1548.1412225889017,18.28513255026262,-18.97715528970093
2025-02-19 17:19:53.747,721,-39,671,6,-18,-14,-6,-10,10,731,37,w,3.3264146944042885,47.00896777162967,1452.4604370943516,-78.5658211465738,-9.7350253679748
2025-02-19 17:19:54.560,729,-51,670,0,-3,-1,-8,-10,8,561,45,x,4.352926291961103,47.33243097371512,1464.29833426818,-102.44062420806199,-5.788592537284899
2025-02-19 17:19:54.661,645,-105,675,3,-11,-5,-9,-10,10,595,47,x,8.841814560191672,43.35602489908916,1331.5296549436175,-216.76064150244935,-43.461266801460056
2025-02-19 17:19:54.763,789,-2,620,3,-6,-7,-7,-10,9,616,63,x,0.1848244541214891,51.83942161563599,1575.2821949820184,-3.9931107604106932,2.135664272685176
2025-02-19 17:19:54.873,620,-12,644,21,-31,-7,-8,-10,9,710,69,x,1.0674996837402058,43.90726722321631,1313.4932152195865,-25.422449326830712,-76.33811387324818
2025-02-19 17:19:54.973,656,0,693,11,25,0,-7,-12,12,333,82,x,0.0,43.428901049189726,1343.453921059006,0.0,-33.22799892361468
2025-02-19 17:19:55.082,826,19,716,6,37,-52,-9,-13,10,404,71,x,-1.5200620000616911,49.0703544017634,1581.5145964017977,36.37866505040455,61.09872757422863
2025-02-19 17:19:55.191,687,108,644,-58,-51,82,-8,-11,9,514,81,x,-9.520021865774144,46.45376359502843,1411.8186482307715,221.94528967819986,-35.45154215519176
2025-02-19 17:19:55.301,930,-3,499,-20,97,13,-8,-9,10,647,52,x,0.34445945422982877,61.78337949008989,1811.166336222419,-5.842472052330384,26.202148629046064
2025-02-19 17:19:55.406,608,-99,732,7,-15,-4,-6,-9,7,664,20,x,7.702284266266226,39.45804516166673,1243.5130276466666,-202.47991733062494,-33.124237232499695
2025-02-19 17:19:56.326,730,-28,674,-2,0,-1,-7,-11,11,642,54,y,2.3788722235235777,47.25946934338156,1464.4346856336788,-56.170097531154795,-4.094490571369079
2025-02-19 17:19:56.425,727,-35,664,-2,-3,-1,-10,-13,10,646,56,y,3.017316456787383,47.55363730180156,1464.909465749361,-70.52521499481105,-9.964078758701248
2025-02-19 17:19:56.532,729,-21,661,-2,-1,-5,-8,-12,11,654,55,y,1.819677458382554,47.786344411282016,1469.6444807318994,-42.33543771655677,-10.558301459239146
2025-02-19 17:19:56.639,755,-31,556,-14,2,-13,-8,-13,10,591,58,y,3.1912447585244723,53.58871681308833,1559.7769205028776,-64.04382057693934,-36.65691099284754
2025-02-19 17:19:56.741,795,97,649,-2,-13,18,-8,-11,13,750,84,y,-8.50054404266637,50.46305699632533,1566.2142943812783,191.09784472325032,19.417513140314554
2025-02-19 17:19:56.852,743,-37,626,18,0,-13,-6,-13,10,803,78,y,3.3825564901942475,49.83561180623539,1507.1970609582604,-75.05557369509506,-17.859165760257042
2025-02-19 17:19:56.962,757,105,607,-33,-7,40,-8,-10,13,388,93,y,-9.814013261783789,50.862760301333935,1532.6363320603414,212.5849601933102,-14.94353178418362
2025-02-19 17:19:57.065,835,21,590,-37,62,6,-7,-8,11,232,53,y,-2.0384807603056583,54.73838036070356,1651.5244927682836,41.53534652471132,13.054550020015085
2025-02-19 17:19:57.172,633,-124,730,-6,-9,-10,-7,-8,7,370,32,y,9.640416863846129,40.5264009909955,1282.7983624404244,-251.2906744749015,-19.372519086113584
2025-02-19 17:19:58.191,730,-59,673,0,-1,-1,-8,-10,9,672,51,z,5.0101493624725855,47.21716768905152,1463.933414394532,-118.31790609490054,-3.626284777424644
2025-02-19 17:19:58.289,731,-60,670,5,-5,-1,-8,-11,10,697,53,z,5.117314849972639,47.37910171445669,1466.850151785989,-120.39809727381578,-4.445419557609512
2025-02-19 17:19:58.396,743,-47,668,9,-3,-1,-8,-10,10,743,59,z,4.024657361000545,47.972279324000176,1485.8210017052852,-93.98867709306649,0.16092982620409657
2025-02-19 17:19:58.502,734,-32,663,11,4,-7,-8,-11,11,747,61,z,2.7632627634601046,47.876291306638635,1475.698358438492,-64.33562325617403,-6.953694338855712
2025-02-19 17:19:58.605,746,-24,658,6,1,-4,-7,-11,9,727,66,z,2.088889666207002,48.567601656604424,1495.7370058002357,-48.120225387675134,-3.2961793787599163
2025-02-19 17:19:58.715,708,-7,685,-1,0,-1,-8,-10,9,729,62,z,0.5854839365490322,45.94443702103778,1426.6658124351054,-14.105452947804716,-10.319324178032844
2025-02-19 17:19:58.822,672,-12,678,7,4,-6,-9,-12,10,674,63,z,1.0139787227853019,44.74086755079986,1375.9015181380378,-24.569669966750677,-32.18635312141316
2025-02-19 17:19:58.932,978,176,609,-2,-35,10,-8,-13,9,687,76,z,-16.11920704991327,57.04942226030973,1817.1400512563037,327.01088856964157,86.46800489254701
2025-02-19 17:19:59.039,697,65,634,-16,16,18,-7,-11,9,677,80,z,-5.853720470105077,47.56080776321823,1434.993922428017,133.82296263675912,-37.28858941085048
2025-02-19 17:19:59.146,684,88,696,7,-41,23,-7,-10,10,664,81,z,-7.206057001383273,44.274665518580385,1382.0987592277847,177.81387545620623,-14.346105880903906
2025-02-19 17:19:59.255,712,68,599,-63,79,-31,-6,-11,11,577,62,z,-6.476635000291016,49.745550869929204,1475.1822946825296,140.88819668316293,-43.05926195903817
2025-02-19 17:19:59.361,911,113,593,5,-39,-5,-8,-13,11,684,80,z,-10.788737679991767,56.46971646020962,1744.593980700688,216.39859475211608,50.38613550438197
2025-02-19 17:19:59.469,776,56,645,-10,2,15,-8,-12,10,743,80,z,-4.962074202496986,50.161337852438166,1543.851414358318,111.41195773719821,6.772986776913626
2025-02-19 17:19:59.571,585,-69,707,-20,15,10,-8,-10,8,646,33,z,5.574155763827473,39.47238380332442,1220.706228326966,-143.98073462318058,-61.280860559256325
2025-02-19 17:19:59.681,736,-28,682,-4,1,0,-6,-10,9,567,34,z,2.3509990606347784,47.156818264973595,1469.2175860894902,-55.89414729688278,2.578269411640804
2025-02-19 17:20:03.801,722,-50,676,0,-1,-1,-8,-11,10,165,46,0,4.230150708029388,46.80660195164449,1451.047500065285,-100.48805402114164,-6.5984903658347775
2025-02-19 17:20:03.897,729,-45,674,-1,0,-3,-7,-10,9,180,44,0,3.819716959285715,47.18142395046169,1462.5095420865732,-90.27836679546749,-4.169316003224026
2025-02-19 17:20:04.004,726,-48,668,-4,0,-2,-7,-11,8,206,43,0,4.109997961274774,47.30900308495338,1461.0211476623758,-96.59643951486785,-8.30044991524403
2025-02-19 17:20:04.109,723,-29,665,-4,-2,-3,-8,-10,9,290,44,0,2.4970308362758145,47.36569112604167,1458.6916399398542,-58.50906992843123,-11.673500082991723
2025-02-19 17:20:04.220,725,-54,676,-3,-7,-4,-7,-11,10,480,47,0,4.567183750581837,46.912205259811245,1455.3078123780283,-108.39534050815661,-4.949077472478848
2025-02-19 17:20:04.327,798,-49,664,-25,0,-12,-8,-11,10,567,45,0,4.220502261046061,50.16031299488719,1565.8399552340402,-96.1480674266516,25.095576095986644
2025-02-19 17:20:04.437,640,-48,686,-14,-11,-8,-7,-10,11,223,37,0,4.002510651644255,42.943376763071804,1321.2752581278073,-99.09564435958555,-44.24191730574353
2025-02-19 17:20:04.540,813,-48,632,-4,-6,-1,-8,-11,11,484,49,0,4.343239951689387,52.05978591388799,1601.6527432583978,-94.56252358721169,18.92677276837958
2025-02-19 17:20:04.651,753,-52,581,-17,-4,-19,-8,-10,11,382,50,0,5.114394501367248,52.23632657535323,1543.5434478530365,-106.59264181720836,-28.967786457655052
2025-02-19 17:20:04.753,745,-76,622,9,-29,-15,-7,-12,12,418,68,0,6.966239852491983,49.93252112408763,1510.286882699075,-154.06953434245597,-16.937504750100175
2025-02-19 17:20:04.853,794,4,613,0,-1,5,-8,-12,13,520,90,0,-0.3738660119292811,52.32982256221999,1585.5417267607122,7.9876157519431334,1.897886014714686
2025-02-19 17:20:04.969,794,-11,604,2,1,-1,-9,-13,13,601,90,0,1.043350842586237,52.73498188732139,1589.8433182473607,-22.02553715456041,-1.402221941317066
2025-02-19 17:20:05.078,747,-114,657,-8,10,-18,-8,-14,13,413,93,0,9.843723390694368,48.24598398256373,1493.0106997671685,-227.84902245442737,0.8701074336950114
2025-02-19 17:20:05.187,874,306,511,10,-29,85,-10,-11,11,0,88,0,-30.914264077196655,55.726294752739776,1700.3568265076267,595.3194381136542,27.855448117394417
2025-02-19 17:20:05.293,691,-266,726,11,-2,-54,-9,-11,12,650,91,0,20.122388805471484,41.78694370150738,1357.3625773060944,-522.5158401786123,25.885338459877744
2025-02-19 17:20:05.404,1030,152,630,-31,66,40,-7,-13,10,509,61,0,-13.564507439955246,57.82185115581488,1876.3963300689556,276.90508948590417,112.30127384131822
2025-02-19 17:20:05.505,479,-157,725,10,-11,3,-6,-9,8,330,25,0,12.218832104680784,32.8512463929155,1021.4598116444346,-334.7999800170694,-96.05086313614834
2025-02-19 17:20:06.327,736,-29,653,-18,-3,-1,-8,-12,9,399,51,1,2.5428583899516326,48.391631700587794,1483.7011131931881,-58.4610492970142,-10.38155830863002
2025-02-19 17:20:06.424,759,-48,657,-16,-4,-5,-8,-12,9,490,56,1,4.1785689688894685,49.044641688688564,1514.2205158439142,-95.76098123914082,3.2715692892600146
2025-02-19 17:20:06.530,736,-57,663,-16,0,-3,-8,-10,10,563,57,1,4.913798762374737,47.882061472660276,1477.7659031805163,-114.44654413218672,-5.194013327013977
2025-02-19 17:20:06.635,657,-32,622,-9,-10,-7,-8,-10,10,593,62,1,2.945096319375127,46.52970814336024,1382.7311887204576,-67.34763780678026,-65.06970986929139
2025-02-19 17:20:06.741,993,-50,777,0,5,-27,-10,-13,12,460,90,1,3.6819105196317885,51.90015605353035,1779.9367025468928,-89.62420455925945,161.23986114910838
2025-02-19 17:20:06.854,707,-71,696,31,-13,-2,-8,-14,13,719,89,1,5.824679306334062,45.30093251788479,1417.8109218845566,-142.38270926987764,-3.751628899082334
2025-02-19 17:20:06.961,803,133,588,-5,-1,57,-8,-15,13,570,89,1,-12.745289473132855,53.10252835281997,1602.7111531010275,265.455271933296,2.408271452796839
2025-02-19 17:20:07.067,572,-139,535,1,-13,-28,-7,-10,10,329,80,1,14.564184370653578,45.97988704017,1291.0959049741764,-313.745333551417,-137.5809600720006
2025-02-19 17:20:07.170,721,-7,698,50,-46,23,-8,-10,12,309,87,1,0.5745802459378847,45.92716313296766,1439.4561396361114,-13.97530232656419,2.4627108654566428
2025-02-19 17:20:07.279,1032,35,608,-51,84,22,-7,-10,11,421,68,1,-3.2946407093696655,59.45418294149878,1893.2230276203793,64.20814531658263,100.6127899290791
2025-02-19 17:20:07.386,737,-63,650,-6,-10,-21,-7,-9,10,466,42,1,5.535991272030463,48.45627227845295,1485.4497959246917,-126.97874781988544,-10.098191792468924
2025-02-19 17:20:08.200,750,-41,641,-8,3,-6,-7,-13,11,604,59,2,3.659799081685396,49.42281439551367,1509.5303765257017,-82.52099391673835,-8.145295137299627
2025-02-19 17:20:08.301,762,-46,642,1,1,-7,-9,-12,11,644,62,2,4.098301256082255,49.81290154594619,1525.9413498531244,-92.1171943480889,-1.635625466805891
2025-02-19 17:20:08.410,685,-40,675,8,-6,-13,-9,-13,11,593,70,2,3.3913394197963505,45.37107700405909,1396.671507364692,-81.55746028406959,-26.282142293674383
2025-02-19 17:20:08.516,950,55,585,75,-10,-20,-8,-14,12,556,77,2,-5.370994695535705,58.26300036854396,1800.471600641842,104.2378295108435,61.28854065739188
2025-02-19 17:20:08.623,654,42,724,-21,4,53,-8,-13,11,651,79,2,-3.3200673298336336,42.04410245683791,1323.7024312315457,85.0084130148699,-17.3831195896621
2025-02-19 17:20:08.730,1049,25,634,46,-33,20,-7,-14,12,113,79,2,-2.2581273994655104,58.83215135701372,1904.654814796506,45.39215478542673,116.85495464157805
2025-02-19 17:20:08.836,958,12,643,-60,24,34,-7,-11,13,31,83,2,-1.069159484805214,56.126267373678616,1788.2678973091065,22.400015415145383,85.73250733845987
2025-02-19 17:20:08.947,601,-148,701,5,5,-11,-9,-8,10,332,33,2,11.92160794873401,39.99176266094577,1243.6774698392771,-306.26333699869053,-48.612157000554475
2025-02-19 17:20:09.861,743,-48,652,0,-2,-6,-7,-12,10,473,53,3,4.210498403302206,48.655504832876126,1493.7513581900976,-96.50076069061197,-6.801999380812504
2025-02-19 17:20:09.963,788,-18,670,14,-16,-12,-7,-13,11,513,67,3,1.5389194243864552,49.61682148812064,1549.7285564638973,-35.39989088369309,22.33739488475726
2025-02-19 17:20:10.069,696,-16,654,-3,4,-10,-9,-13,11,521,69,3,1.401452050733347,46.773406368723826,1424.6508188187418,-32.75059353606303,-30.680510786576065
2025-02-19 17:20:10.171,848,115,588,-15,-2,-13,-8,-14,10,158,84,3,-11.06612211791613,54.7575225578811,1664.7173234789839,225.75765589632448,21.6912898518367
2025-02-19 17:20:10.282,627,77,772,6,-8,-1,-7,-14,12,773,83,3,-5.695896259660357,38.94397174949824,1255.5601367714773,154.1915957438656,-1.9209339514841304
2025-02-19 17:20:10.389,866,113,527,16,11,7,-8,-14,11,223,84,3,-12.102181695282464,58.10280697614653,1714.9975753199747,223.78143881195973,10.346741115904592
2025-02-19 17:20:10.499,666,-13,687,-26,-4,36,-7,-11,11,190,86,3,1.0840702320953197,44.10565428780906,1361.9836621715858,-26.585266679024944,-30.929092960779826
2025-02-19 17:20:10.605,800,106,618,-35,55,27,-8,-11,9,398,55,3,-9.732725032975214,51.91132945320327,1587.057016942868,210.28505474493,9.998454411634611
2025-02-19 17:20:11.524,738,-19,651,-1,-3,-6,-8,-12,11,559,57,4,1.6717524850654866,48.571937370821885,1487.7870788570535,-38.303461379788644,-10.397545170652847
2025-02-19 17:20:11.618,721,-33,665,2,-1,-6,-9,-12,11,617,60,4,2.8409187726402076,47.278605569847066,1455.661316898053,-66.62527525330893,-12.600243740922565
2025-02-19 17:20:11.725,740,-1,647,1,-5,-5,-9,-13,11,663,65,4,0.08855600291994539,48.835974419356795,1492.828333269838,-2.0173355854997808,-11.216123818358255
2025-02-19 17:20:11.836,663,-31,629,4,-27,-21,-7,-13,11,692,84,4,2.8215153737548317,46.47273251600762,1388.046695861646,-64.90112755914183,-58.864814022587325
2025-02-19 17:20:11.941,709,-110,732,29,10,3,-8,-14,11,469,85,4,8.546075103107656,43.76593256628884,1400.7139009369935,-217.31809464466755,17.84686109184861
2025-02-19 17:20:12.048,904,123,668,6,-41,30,-6,-14,9,563,83,4,-10.433109126740039,53.0802536850662,1703.4776832475734,231.77849008788894,77.2355172462618
2025-02-19 17:20:12.159,958,132,577,-7,47,-22,-8,-13,10,754,77,4,-12.885786139883791,58.28989709903408,1808.7184403670908,249.2179896956743,64.61530261815085
2025-02-19 17:20:12.264,774,-59,618,11,0,-21,-9,-15,11,738,83,4,5.453457209344889,51.26759605498029,1554.076673103006,-118.46320893162448,-4.8519172837953874
2025-02-19 17:20:12.371,800,116,598,2,12,36,-9,-12,11,226,87,4,-10.977893682686705,52.71313310016658,1595.612362096162,231.36379250394344,3.2797593331191592
2025-02-19 17:20:12.471,459,-167,748,-7,18,2,-6,-10,10,545,29,4,12.585568298648724,30.917042314096562,972.7964560180487,-353.9368369390287,-89.29792832570911
2025-02-19 17:20:13.491,735,-14,650,3,-6,-6,-8,-14,9,561,58,5,1.2338721670000639,48.50534900188163,1484.0175782051415,-28.26700148962174,-12.396497732437979
2025-02-19 17:20:13.591,708,-11,657,2,-2,-10,-10,-15,11,554,67,5,0.9592004468474515,47.135722582314145,1440.9671699681862,-22.387908007980293,-23.168687385732255
2025-02-19 17:20:13.699,817,3,526,-13,3,-13,-10,-14,12,1,84,5,-0.326778469201304,57.22537768489385,1657.8064566887856,6.0874166096283435,-15.327045554836218
2025-02-19 17:20:13.804,719,30,670,-2,-8,7,-7,-14,11,614,89,5,-2.5637702114650045,46.99177654033711,1450.2558092851268,60.51136895487316,-11.420573325500527
2025-02-19 17:20:13.911,689,-49,586,-16,9,-21,-8,-15,12,0,85,5,4.779824653016668,49.52003393218813,1449.6330038683564,-103.09436457118932,-60.92444160646812
2025-02-19 17:20:14.022,781,119,592,16,-10,17,-9,-14,10,0,86,5,-11.365758159030259,52.29005943728733,1572.1174238403632,239.54157930474167,-7.669033179891244
2025-02-19 17:20:14.128,687,-59,694,-7,-8,3,-7,-12,11,506,87,5,4.859282583555208,44.60643630478107,1389.233033804183,-119.30822269934029,-15.388246666816485
2025-02-19 17:20:14.235,838,70,521,-29,15,19,-9,-12,12,0,91,5,-7.652263240569135,57.899752053308326,1685.1196217542179,140.76178224677236,-5.669836436691412
2025-02-19 17:20:14.346,479,-150,725,-20,28,12,-8,-11,9,152,38,5,11.689369175439191,32.90235136892138,1022.2089067616924,-320.1071733074192,-97.18467098585984
2025-02-19 17:20:15.261,739,-44,651,-1,-3,0,-8,-14,9,186,61,6,3.8666451137188567,48.55775069983863,1488.6232213848616,-88.63250573874683,-9.35820990736795
2025-02-19 17:20:15.351,711,-52,659,13,-18,-8,-8,-12,12,500,70,6,4.511714635496182,47.08502251921294,1443.3649290008452,-105.56255458234031,-19.802374418505224
2025-02-19 17:20:15.461,751,-41,663,-4,5,-16,-9,-12,12,442,89,6,3.5386716462129724,48.50694045065617,1500.035980922371,-81.89277658830522,1.7338810232596416
2025-02-19 17:20:15.570,893,-154,614,42,13,43,-9,-14,11,1,85,6,14.080148271220407,54.66843341065341,1708.8191008228514,-294.689968115027,53.06726998294437
2025-02-19 17:20:15.681,719,58,739,-24,-24,-7,-8,-10,11,390,90,6,-4.48762785915091,44.1261737931921,1415.2407776112532,114.16406829131108,23.392302288295127
2025-02-19 17:20:15.785,1015,28,494,-1,7,34,-8,-12,10,261,85,6,-3.24406302962854,64.01166101193148,1913.8832463176354,52.796779208762345,56.51396681683576
2025-02-19 17:20:15.893,449,-188,755,-21,25,16,-8,-10,8,304,28,6,13.982662642355251,29.98839776013216,948.8246219557776,-397.2806880349358,-85.46233758710923
2025-02-19 17:20:16.815,741,-44,656,-3,-1,-4,-7,-13,10,114,57,7,3.837262117327651,48.41801965990195,1489.0068598963123,-88.41606185619128,-6.203104037760909
2025-02-19 17:20:16.909,732,-36,679,-4,2,-4,-9,-12,11,125,58,7,3.0349316553235823,47.11103615406412,1464.6740037622844,-72.033147726014,-0.6252029434305086
2025-02-19 17:20:17.016,612,-108,654,16,-28,-23,-9,-13,11,0,71,7,9.377060694304353,42.71553047175745,1290.3588493348952,-227.71038517674617,-70.91288801474082
2025-02-19 17:20:17.126,772,135,645,21,-30,23,-9,-14,10,629,83,7,-11.821488340607257,49.51604542504395,1532.587810781457,268.00434514960716,9.534795396321442
2025-02-19 17:20:17.233,755,126,650,-13,-1,68,-6,-13,11,309,78,7,-10.970506471373067,48.75075238583879,1506.84846568634,251.47404857811762,2.7132414620915597
2025-02-19 17:20:17.333,728,-142,710,-42,52,-23,-7,-13,9,5,68,7,11.309932474020213,45.15543471118331,1437.0224496952446,-280.2983349680285,18.508325159857577
2025-02-19 17:20:17.443,1082,119,661,40,-38,8,-7,-13,11,435,82,7,-10.205652915761657,58.17101760666425,1931.6260299010653,212.44315855658664,141.95858986635483
2025-02-19 17:20:17.552,791,11,651,-5,-3,6,-8,-13,12,652,84,7,-0.9680393293372962,50.541304555402284,1563.0829319416262,21.736930785534625,15.568914419723455
2025-02-19 17:20:17.663,639,-134,693,5,-10,-3,-7,-10,11,347,43,7,10.943779378912692,42.1548252578111,1310.1362947010093,-274.7390664944213,-34.85203791517881
2025-02-19 17:20:18.471,768,-48,631,2,-2,4,-8,-11,9,0,59,8,4.350096657823328,50.51187554674223,1539.7564050856374,-96.23477531785235,-3.086317199267228
2025-02-19 17:20:18.573,727,-34,627,7,-13,-5,-8,-12,11,0,65,8,3.1039081949808263,49.18231891350753,1483.7933784721836,-69.39336295468257,-25.69525213488157
2025-02-19 17:20:18.683,746,-32,620,5,-9,-4,-8,-12,11,260,80,8,2.9545798240596866,50.23258859106514,1514.6474797514988,-64.97147366226268,-18.822302206339486
2025-02-19 17:20:18.784,736,-57,671,-34,5,-29,-8,-11,12,0,87,8,4.85549574123292,47.54247546186564,1473.7779739564262,-114.13769635260365,-1.6209517999484433
2025-02-19 17:20:18.896,926,14,593,13,-14,51,-8,-14,11,0,80,8,-1.3524315888372234,57.357707490905,1768.0544773651764,26.730845230143053,53.75776989465487
2025-02-19 17:20:19.001,723,34,676,26,7,-76,-6,-12,12,254,88,8,-2.8793141173172137,46.88804332819582,1453.0196729035254,68.3301090991976,-6.563345619340453
2025-02-19 17:20:19.113,727,122,685,-21,-21,14,-8,-14,12,360,79,8,-10.098614961104339,46.257060981962525,1449.449176833874,243.23631303126905,4.287914537546726
2025-02-19 17:20:19.215,938,21,393,16,30,13,-8,-13,13,0,86,8,-3.0586975740958238,67.23833213503113,1860.1222016999777,41.64452690373085,6.65242508732274
2025-02-19 17:20:19.322,393,-166,782,-16,15,26,-8,-9,9,0,30,8,11.98463077987421,26.178891323216313,834.1752585770461,-352.3488369562077,-95.86018373346064
2025-02-19 17:20:20.241,757,-32,634,0,-2,-2,-9,-14,12,0,59,9,2.8894485435716186,50.01738703640957,1523.2394688357258,-64.3905719983398,-7.738207717107116
2025-02-19 17:20:20.337,765,-23,624,4,-5,-3,-7,-13,12,72,64,9,2.1109080653990766,50.7772951895567,1539.6939712756807,-46.291452731164256,-7.907239315065112
2025-02-19 17:20:20.443,824,31,699,5,3,-14,-9,-13,13,275,86,9,-2.5393505822428915,49.66425508867052,1586.2646708959564,59.67743300700806,52.37013961617288
2025-02-19 17:20:20.551,739,-137,594,-2,22,-29,-9,-14,11,0,86,9,12.987571940173686,50.48109979385287,1510.4147177611646,-280.0092237256828,-26.05459046025942
2025-02-19 17:20:20.661,760,108,638,0,-20,7,-9,-12,11,28,85,9,-9.607890440327358,49.5883807363626,1521.4068567872034,216.199921753971,-1.1810192503102144
2025-02-19 17:20:20.767,810,-54,606,27,9,-5,-8,-13,12,616,82,9,5.092115124498963,53.08932689633093,1609.5727978528248,-107.30485319018834,7.801091976775524
2025-02-19 17:20:20.874,817,51,536,-53,2,40,-8,-11,12,0,91,9,-5.43528750033417,56.61424561406475,1651.984705063513,103.12266824753875,-11.799023150603489
2025-02-19 17:20:20.981,635,-138,712,-38,72,42,-7,-8,8,0,26,9,10.969074637687065,41.20408562852479,1293.7431113978425,-281.1599202722871,-26.622197346872326
2025-02-19 17:20:21.086,584,-172,735,25,-17,-5,-6,-8,7,0,19,9,13.170980961831745,37.7275622808302,1195.9075895119731,-352.2193585548962,-35.12342173167838
