Timestamp,Acc_X,Acc_Y,Acc_Z,Gyro_X,Gyro_Y,Gyro_Z,Mag_X,Mag_Y,Mag_Z,Force,IR_A,Letter,Roll,Pitch,Lin_Acc_X,Lin_Acc_Y,Lin_Acc_Z
2025-02-19 11:56:08.411,668,-67,738,-4,3,0,0,-1,2,748,31,noise,5.1874288125328505,42.032820040697025,1337.5561831202608,-134.15608423511597,-1.7192562017254431
2025-02-19 11:56:08.509,654,-73,745,-4,2,-3,1,0,1,747,31,noise,5.59635206960393,41.14267758158431,1311.9363658591406,-146.43938028702945,-4.4840864909169795
2025-02-19 11:56:08.611,645,-72,742,-3,0,-3,1,-1,1,749,31,noise,5.5423465376250745,40.866636931806404,1299.3005727518998,-145.03820346997952,-10.699263537844558
2025-02-19 11:56:08.722,658,-78,739,1,-6,-2,1,-1,0,743,31,noise,6.025149023775284,41.52404909161803,1320.9343533886486,-156.5849233500222,-5.541773790594789
2025-02-19 11:56:08.827,662,-72,738,1,-5,-1,0,0,2,735,33,noise,5.572197803963795,41.757847485390556,1327.9838430988527,-144.4332880711743,-4.441202729536599
2025-02-19 11:56:08.939,662,-81,737,-8,-1,-3,1,0,2,732,33,noise,6.271921561343285,41.76038445681155,1328.016872712088,-162.4914904677932,-4.4719564785630155
2025-02-19 11:56:09.042,676,-68,724,-7,-13,-8,-1,-4,2,747,38,noise,5.3656309266398345,42.910853064815,1356.8596162779218,-136.4888371403827,-5.2046777887804865
2025-02-19 11:56:09.151,695,-54,709,-3,2,3,-2,-2,3,750,39,noise,4.355444608541399,44.34586084270591,1393.9879183531152,-108.30985264901904,-4.068250521379355
2025-02-19 11:56:09.258,677,-98,718,3,-1,5,-2,-1,3,748,38,noise,7.7722879300745555,43.0526602747797,1359.6702555755842,-196.82080509070494,-6.0136536237359905
2025-02-19 11:56:09.362,674,-80,725,-2,1,1,1,-4,2,751,36,noise,6.296818718984405,42.7393736407056,1352.664542766509,-160.55365492777554,-5.017497782965734
2025-02-19 11:56:09.472,675,-94,724,-1,0,0,-1,0,4,750,36,noise,7.397573216918959,42.755248402439896,1353.8680080242839,-188.53865593227064,-4.148796754935574
2025-02-19 11:56:09.581,680,-79,724,-1,0,0,-1,-1,2,750,36,noise,6.227251007630745,43.03582030416859,1362.4554561026089,-158.28526622368543,-2.614338556307075
2025-02-19 11:56:09.683,671,-85,728,0,1,-1,0,-2,1,748,36,noise,6.659601401002163,42.473611865448596,1346.2505756502137,-170.53844848028044,-4.611652866401755
2025-02-19 11:56:09.792,673,-84,726,-1,-1,0,0,-3,4,749,36,noise,6.5999169819138706,42.64054435244604,1350.39668634876,-168.54876917280214,-4.742933564932855
2025-02-19 11:56:09.901,675,-85,726,0,-1,0,0,0,2,748,36,noise,6.677781947243288,42.72075796241568,1353.4258810845045,-170.43140724767832,-3.684725433111339
2025-02-19 11:56:10.008,675,-86,727,-1,0,0,0,-2,2,749,35,noise,6.746415386787471,42.67742671665531,1352.8700769754007,-172.36566906649549,-3.0911792016535173
2025-02-19 11:56:10.111,677,-84,729,-1,-1,-1,-1,0,2,749,35,noise,6.572994986473373,42.69355233095855,1355.076963390531,-168.1336261813953,-1.1596843599662634
2025-02-19 11:56:10.225,667,-82,724,-1,-1,-1,0,0,3,747,36,noise,6.461764905862672,42.47154805555494,1342.2240070728096,-165.01104734628245,-8.926808276932661
2025-02-19 11:56:10.331,667,-79,729,-1,0,-1,0,-3,1,750,36,noise,6.184872242150972,42.29048480769883,1339.8896726325595,-158.69757741824918,-6.437138454476667
2025-02-19 11:56:10.434,670,-80,725,-1,-1,-1,1,0,3,748,36,noise,6.296818718984405,42.5694214987549,1346.4830215808392,-160.77409212905542,-7.015209919564768
2025-02-19 11:56:12.161,727,-163,624,-13,-8,-18,-4,-7,9,796,66,A,14.639561456825197,48.42304974427243,1475.065123464206,-330.72299191838454,-18.080656178355525
2025-02-19 11:56:12.257,752,-129,604,-5,-6,-3,-4,-7,10,795,75,A,12.05588173783711,50.60353565639171,1524.772740513066,-261.5634089443957,-16.684488390813954
2025-02-19 11:56:12.359,787,-170,604,0,-3,-7,-4,-8,9,811,89,A,15.719625609015878,51.434963722634414,1568.9010382258255,-338.8985724248924,3.9133073844999444
2025-02-19 11:56:12.470,786,-105,609,-3,6,-8,-3,-9,10,823,95,A,9.782407031807287,51.82411843833756,1572.1171401814809,-210.01564849752606,-0.09076128565106956
2025-02-19 11:56:12.581,714,-181,604,7,-22,-30,-4,-10,10,847,118,A,16.68183704038881,48.552111252415564,1463.5580724355389,-371.014021163631,-30.07993802670228
2025-02-19 11:56:12.684,701,-407,674,34,6,7,-4,-9,10,776,124,A,31.125996380239297,41.679463377474946,1365.9626931496784,-793.0767704877591,34.64927933968147
2025-02-19 11:56:12.795,1077,-16,578,-14,-11,40,-4,-7,11,693,116,A,1.5856374110969198,61.76947021033799,1958.0515304877526,-29.08897352628044,105.16083136311892
2025-02-19 11:56:12.904,779,-400,773,-21,-5,-13,-3,-10,10,823,121,A,27.359957030539988,41.82951246983942,1445.9163688716617,-742.447429459133,111.2203425702254
2025-02-19 11:56:13.007,852,47,569,31,-15,48,-3,-6,11,560,120,A,-4.721972040245196,56.17337462037629,1682.725868687121,92.82642702851487,14.207723846277304
2025-02-19 11:56:13.117,604,-216,596,-38,3,-55,-5,-8,9,742,121,A,19.921332120485374,43.61483425920465,1293.807013541746,-462.6859518626112,-84.67049680609398
2025-02-19 11:56:13.224,862,-36,562,10,-33,15,-4,-7,11,780,120,A,3.6651846486124153,56.84307716558686,1699.175755967571,-70.96325662973612,16.184715946897086
2025-02-19 11:56:13.324,1006,73,599,-23,80,30,-2,-7,11,820,88,A,-6.948359828999617,59.04328568634608,1863.556155856235,135.22822999752003,88.38753741760979
2025-02-19 11:56:14.241,751,-113,648,3,-6,-5,-3,-6,9,782,71,B,9.891925100730312,48.785834674533355,1503.2520370735713,-226.18838906699546,-1.0803196054251885
2025-02-19 11:56:14.341,776,-82,632,3,-6,-5,-3,-6,9,791,83,B,7.392647471393985,50.60512196475271,1548.7903122384978,-163.66083196334642,2.6140755995737663
2025-02-19 11:56:14.448,765,-102,631,-3,-2,-5,-3,-6,9,799,89,B,9.182329629565574,50.1197705613395,1532.3864456404453,-204.31819275205936,-1.968427711269328
2025-02-19 11:56:14.551,736,-65,640,-6,2,-9,-3,-7,9,801,93,B,5.799217629098415,48.845292074205894,1488.9353650204935,-131.49565044338593,-14.72640436564609
2025-02-19 11:56:14.661,870,-30,530,-10,-8,-19,-4,-8,11,782,117,B,3.2397002961021295,58.60968774621582,1723.6388789810928,-59.43582341314112,9.967119701173601
2025-02-19 11:56:14.772,833,303,546,9,-19,60,-3,-5,11,343,113,B,-29.027867852994838,53.143762287565536,1633.1430237509185,594.048422804956,21.5365054405745
2025-02-19 11:56:14.874,494,-180,558,-46,2,-63,-2,-8,8,794,96,B,17.87869659584134,40.115882743733216,1138.3356459441225,-414.7781705869272,-169.81232881947426
2025-02-19 11:56:14.983,722,-64,679,-7,-10,1,-3,-8,9,839,110,B,5.38457748454035,46.63151726102162,1448.9525141070162,-128.43900402056653,-4.657558280697913
2025-02-19 11:56:15.092,902,168,388,6,5,5,-3,-8,10,770,114,B,-23.412114169302676,64.88531354430032,1807.4600354942186,336.64444120069686,-1.4883522968475518
2025-02-19 11:56:15.201,658,-27,688,2,-12,31,-3,-9,9,720,113,B,2.247372973370389,43.70116692477596,1348.897135373691,-55.349882454543554,-34.397004767628346
2025-02-19 11:56:15.308,1208,62,607,-43,88,48,-6,-5,7,747,77,B,-5.832061503084818,63.20175839612185,2100.5996553741725,107.8122339678797,158.48345131446814
2025-02-19 11:56:15.411,423,-292,762,11,-25,-18,-1,-3,7,711,36,B,20.966937340086954,27.400512435247343,883.2077251041645,-609.6847653201326,-67.02668210253773
2025-02-19 11:56:16.331,762,-91,621,-2,-1,-2,-3,-8,9,758,91,C,8.336665783729245,50.52294142803537,1533.879209442981,-183.17980060277068,-8.051166750775792
2025-02-19 11:56:16.431,776,-71,624,0,-2,-2,-3,-7,11,767,97,C,6.491314429169647,51.016330867364886,1553.325303444747,-142.12125843373332,-1.0657079246419698
2025-02-19 11:56:16.537,770,-67,613,-3,0,-3,-5,-7,10,780,99,C,6.2375848005972845,51.31068349856772,1550.5469779078535,-134.91772405172233,-8.396490204563861
2025-02-19 11:56:16.641,767,-78,614,-4,-2,-6,-4,-7,9,795,101,C,7.2398373966220335,51.09802797409514,1545.2215346159137,-157.1411730117878,-8.983079862021896
2025-02-19 11:56:16.754,780,-57,604,-6,-8,-3,-5,-7,11,811,115,C,5.391085787886056,52.124240980405574,1569.3439090095394,-114.68282411992789,-7.235539797130514
2025-02-19 11:56:16.861,875,-64,563,44,19,-7,-3,-9,10,681,117,C,6.485357121060904,57.074014411861526,1714.3734300712363,-125.39417088521043,22.92315299416441
2025-02-19 11:56:16.967,790,25,666,14,-21,10,-3,-8,9,755,108,C,-2.1497331475183046,49.847959501836705,1554.3360421344391,49.187849434634145,21.635691061346392
2025-02-19 11:56:17.073,711,13,524,-60,84,42,-1,-5,10,784,55,C,-1.4211686528017746,53.60173197076681,1515.9117352058313,27.717092204888615,-69.21202425858735
2025-02-19 11:56:17.181,710,-124,665,7,-22,-20,-2,-5,7,668,46,C,10.5624219520526,46.38568827747058,1433.9995810713574,-250.44499725753286,-13.112283679510824
2025-02-19 11:56:18.092,756,-79,632,-2,0,-6,-3,-8,7,727,81,D,7.125016348901798,49.88637806867644,1520.7682404854943,-158.91625793433073,-7.33006347464584
2025-02-19 11:56:18.192,753,-59,645,2,2,-4,-4,-9,9,785,86,D,5.226464565292765,49.29953421644818,1511.12903496694,-118.40187657775493,-4.393396485625999
2025-02-19 11:56:18.298,751,-78,648,4,1,-4,-3,-7,8,806,88,D,6.863691914627043,49.00681353635743,1505.7875925357193,-156.39338511023448,-3.2681224542556038
2025-02-19 11:56:18.404,745,-38,645,4,0,-2,-4,-7,8,814,93,D,3.371667950474728,49.06578259912674,1500.4623190580714,-76.53364848886808,-9.057980929471455
2025-02-19 11:56:18.520,758,-119,655,10,-19,-22,-3,-8,8,802,116,D,10.297148527187591,48.7084100152577,1509.3610020761814,-236.95772987739525,5.736864960555522
2025-02-19 11:56:18.626,572,63,604,42,-23,94,-2,-9,10,708,107,D,-5.954683135067751,43.286573536805186,1257.6477907492394,138.51715177832534,-120.00570911283319
2025-02-19 11:56:18.732,813,-179,664,-21,48,-49,-3,-7,9,797,102,D,15.087053513763806,49.772634070593014,1576.4876544287592,-347.09875786315854,40.43812725621626
2025-02-19 11:56:18.839,732,0,635,-18,-23,0,-3,-12,9,829,110,D,0.0,49.05880825499506,1487.3825600275904,0.0,-20.284051390054515
2025-02-19 11:56:18.941,864,193,471,2,9,34,-2,-7,8,590,111,D,-22.28217271183186,59.496359578889354,1725.5969110675928,385.46319888431185,1.3100172305135516
2025-02-19 11:56:19.055,507,-134,601,-37,48,27,-3,-6,7,725,53,D,12.569178165400546,39.46723579270121,1142.6368679578877,-301.9986988291064,-152.48670146487268
2025-02-19 11:56:19.158,753,-87,681,9,-20,-12,-1,-4,8,751,52,D,7.280289083993715,47.643544429454224,1491.967592856991,-172.37872586793918,12.690663033717556
2025-02-19 11:56:20.072,759,-95,647,-2,-1,-4,-2,-7,7,755,78,E,8.353138431564368,49.25255335849688,1516.5940735520937,-189.82402765144786,1.1984643106658268
2025-02-19 11:56:20.173,749,-79,636,2,-3,-7,-4,-7,9,762,83,E,7.08066119653692,49.447792979189856,1508.813883081731,-159.14058312878075,-9.1824160747409
2025-02-19 11:56:20.281,755,-83,640,0,-1,-4,-4,-7,8,770,88,E,7.389304059007586,49.4768098811054,1515.1430431687218,-166.56539414967403,-4.3596657324264925
2025-02-19 11:56:20.388,740,-61,643,2,-1,-13,-3,-9,8,783,97,E,5.4193060578161125,48.884885630153704,1493.3899534405318,-123.10376643226007,-11.63478386792167
2025-02-19 11:56:20.497,785,-109,549,-8,1,-21,-4,-9,9,721,116,E,11.229630102615316,54.51059847082906,1599.2229218216798,-222.05770506823325,-20.437431949174766
2025-02-19 11:56:20.604,845,301,519,10,-4,33,-3,-7,8,440,109,E,-30.112080975905386,54.62442172549914,1660.3746342030704,591.4470590474842,18.195934732078683
2025-02-19 11:56:20.713,466,-236,653,-44,-13,-53,-2,-9,7,756,93,E,19.870305822034656,33.86726257506133,1023.2707689838079,-518.2229645497397,-127.89659258889833
2025-02-19 11:56:20.817,735,52,644,7,-24,19,-2,-11,10,832,110,E,-4.616352093551013,48.68316720527316,1486.070200719422,105.13693937062578,-14.080556820827042
2025-02-19 11:56:20.924,672,-20,735,5,49,24,-1,-8,8,793,105,E,1.5586842062108233,42.42567040433295,1346.6331723127664,-40.07836822359424,-2.8800322170881145
2025-02-19 11:56:21.034,834,213,703,-7,-47,6,-1,-11,7,755,105,E,-16.856136705300628,48.62746350234362,1584.427969098027,404.65606405021566,70.44500926149499
2025-02-19 11:56:21.139,679,-79,756,2,36,42,-2,-7,10,820,105,E,5.965606050174237,41.77391149775484,1345.1929633849716,-156.50993241150627,14.25938097343385
2025-02-19 11:56:21.248,769,183,461,-18,-6,1,-3,-7,7,717,102,E,-21.651252414703254,57.17856526154261,1609.3638879756747,382.9825637185286,-42.781212427550145
2025-02-19 11:56:21.341,758,2,735,8,4,23,-2,-7,9,829,104,E,-0.1559064982355694,45.88247851688393,1475.913448786139,3.89423073558348,38.87020467307104
2025-02-19 11:56:21.461,506,-159,721,0,-9,-7,-3,-3,5,745,44,E,12.436218752778741,34.42425158917887,1071.3161986618907,-336.63888455976405,-84.51972180874168
2025-02-19 11:56:22.372,750,-71,645,-3,2,-4,-3,-7,9,687,73,F,6.281686885869139,49.133815871745654,1506.239764416574,-142.5906976981023,-5.366197398253348
2025-02-19 11:56:22.472,742,-63,647,0,3,-2,-4,-8,8,758,71,F,5.561499910306963,48.778669487616355,1494.1696347939157,-126.86345955797397,-8.867592603319963
2025-02-19 11:56:22.581,734,-61,652,1,-1,-5,-4,-7,9,782,72,F,5.344935932041629,48.26185209255525,1480.195102073923,-123.01348940941321,-10.832706474383713
2025-02-19 11:56:22.689,707,-71,655,10,-8,-6,-2,-8,7,789,79,F,6.186532631866145,47.019569212594945,1438.5865935814923,-144.46909214184717,-22.778244407181546
2025-02-19 11:56:22.795,788,47,613,-3,6,-27,-2,-9,8,769,108,F,-4.384410001122234,52.038575001101066,1576.425075704597,94.0253535001473,-0.3306743742615481
2025-02-19 11:56:22.905,857,-178,645,27,-5,-13,-3,-10,8,787,110,F,15.427854177730628,52.01873549331418,1645.212030341239,-341.7126504092655,51.77157576417858
2025-02-19 11:56:23.012,980,125,641,9,-6,16,-1,-7,8,720,107,F,-11.03463955579214,56.320419621866385,1812.1518100937578,231.14181251195885,96.704785438675
2025-02-19 11:56:23.123,639,-158,655,2,-35,-37,-2,-10,7,797,107,F,13.561883201774439,43.48209555877808,1327.1278687991908,-328.1474229581724,-50.357987579765336
2025-02-19 11:56:23.225,982,149,590,8,-48,-1,-2,-9,7,785,110,F,-14.173259817771106,58.214422906923836,1832.0253151721158,277.97532786216425,79.29232591492013
2025-02-19 11:56:23.337,677,-46,668,12,27,38,-3,-10,9,850,107,F,3.939298869881025,45.31562737909741,1387.9912977873025,-94.30960073591714,-33.539419382448955
2025-02-19 11:56:23.438,752,33,660,26,8,-9,-4,-11,6,626,103,F,-2.8624052261117474,48.69241777427883,1503.176785734494,65.96387490590199,0.7225018819601701
2025-02-19 11:56:23.541,795,49,705,7,5,17,-2,-7,11,840,106,F,-3.975865950325035,48.365087078872165,1542.3933912938355,95.06575619295339,42.21718130546651
2025-02-19 11:56:23.652,554,-96,711,-7,3,4,-2,-6,6,764,46,F,7.68963490274526,37.674507706459785,1165.1749449690737,-201.90757169139184,-73.37795283937089
2025-02-19 11:56:25.971,779,12,619,-1,-1,-1,-3,-10,8,832,108,G,-1.1106029753077074,51.52380543467167,1561.8667336781432,24.059564575273065,-3.072539341168863
2025-02-19 11:56:26.061,773,9,618,-1,-1,-1,-4,-8,10,834,107,G,-0.8343455755467915,51.3553115954227,1554.0336337503334,18.093535192435965,-6.422749880602851
2025-02-19 11:56:26.174,775,15,622,-1,0,-1,-2,-9,9,830,107,G,-1.381463253007444,51.24201579930762,1554.797252715754,30.092850052562984,-3.8501821796118065
2025-02-19 11:56:26.281,777,18,621,-2,0,0,-3,-9,10,832,108,G,-1.6602823689828055,51.35544586543332,1558.035097209201,36.093477155425504,-3.224961862179839
2025-02-19 11:56:26.388,773,9,619,-1,0,-1,-2,-9,8,831,108,G,-0.8329978729373753,51.31012988876113,1553.5409379867833,18.08779876051882,-6.038603640127803
2025-02-19 11:56:26.498,777,14,619,0,-1,0,-3,-11,10,829,108,G,-1.2956448803643867,51.45014696492397,1559.066210935959,28.091283079927187,-4.036016176780777
2025-02-19 11:56:26.604,777,17,619,-1,-1,0,-3,-9,8,831,108,G,-1.573155855992591,51.44676013710489,1559.0293716845754,34.11003773312457,-4.006668047300309
2025-02-19 11:56:26.711,776,11,618,-1,0,-1,-3,-9,9,832,107,G,-1.0197201115743701,51.46205084354568,1558.1956702905072,22.087825223190183,-4.934180721048506
2025-02-19 11:56:26.822,739,-14,642,-3,-3,-6,-2,-10,8,828,108,G,1.2492426786972428,49.01105397609771,1493.836138515297,-28.300008036825652,-13.757511403004969
2025-02-19 11:56:26.928,870,15,562,23,-6,67,-3,-9,7,735,104,G,-1.5288838058805976,57.12917021690959,1709.896294689716,29.48097059809855,19.446301591240854
2025-02-19 11:56:27.031,738,44,600,9,-5,-40,-2,-6,9,828,107,G,-4.194182788390857,50.81338090562382,1513.0920722364963,90.21145146125451,-30.156156289834257
2025-02-19 11:56:27.142,820,260,547,-4,-9,33,-1,-9,8,743,107,G,-25.422672264335667,53.55062436451492,1624.382109488185,515.0479859352782,10.418275743856952
2025-02-19 11:56:27.252,439,-167,617,-16,-7,-48,-3,-6,9,788,99,G,15.14505559568641,34.48107917078669,1005.1340542224546,-382.36306846275613,-178.68271402108087
2025-02-19 11:56:27.354,823,71,614,5,-26,19,-1,-9,9,825,109,G,-6.596111874896228,53.09263085972403,1622.6074283689918,139.98192881433587,17.452052225320813
2025-02-19 11:56:27.461,673,-79,607,-49,80,25,-2,-7,7,773,51,G,7.415266041887483,47.71227972858372,1412.7753191731529,-165.83841042300008,-60.22677375646913
2025-02-19 11:56:28.581,759,-36,642,-1,-1,-2,-3,-7,9,755,72,H,3.209486317791986,49.72944301219443,1522.0005996999448,-72.18975176442424,-3.383906465565815
2025-02-19 11:56:28.677,756,-30,641,-2,0,-3,-3,-7,8,773,73,H,2.679594409888934,49.67501326569012,1518.3861916517149,-60.25342030363947,-5.414747154430302
2025-02-19 11:56:28.784,755,-36,645,-1,0,-2,-1,-9,7,793,73,H,3.194589465110435,49.4485703083103,1514.8227034391189,-72.22995672027585,-4.120057904942541
2025-02-19 11:56:28.886,722,-15,650,3,0,-3,-3,-7,10,804,74,H,1.3219756595369825,47.996435655777105,1465.1031977306225,-30.438432085816252,-18.998723718704127
2025-02-19 11:56:29.001,731,0,636,8,-17,-24,-3,-9,10,803,101,H,0.0,48.97539262218649,1485.4277465508935,0.0,-20.3831009663038
2025-02-19 11:56:29.104,772,-120,608,11,5,-31,-2,-10,7,772,110,H,11.164880177548591,51.2439757240081,1551.8186670281402,-241.21533684375237,-6.157706675012037
2025-02-19 11:56:29.214,780,123,610,11,11,30,-4,-7,8,644,106,H,-11.400218846678294,51.41743657939688,1561.7102988339002,246.26970096996118,-1.3375413957423916
2025-02-19 11:56:29.321,792,-169,508,15,4,-17,-3,-8,9,734,106,H,18.40110607463506,55.94221522210092,1620.473185617125,-345.7827883450684,-23.394417037246967
2025-02-19 11:56:29.431,840,58,678,-6,37,-27,-2,-9,8,860,105,H,-4.8895048067030435,50.98938488829056,1617.029354780936,111.65202687773127,50.826306498244776
2025-02-19 11:56:29.537,902,-35,663,10,-15,20,-1,-10,8,821,109,H,3.021859033479465,53.644822708195505,1707.357784883694,-66.25002491233847,71.03524237484555
2025-02-19 11:56:29.643,819,104,610,25,13,35,-3,-6,10,708,108,H,-9.675429863232173,52.92683456172003,1616.8663546775895,205.3163624987415,15.740566113150635
2025-02-19 11:56:29.751,520,-183,721,-20,12,-7,-2,-6,6,783,50,H,14.241737720372118,34.95565857218925,1092.942319678821,-384.63162404081584,-73.40656247774973
2025-02-19 11:56:30.661,762,-29,630,-2,0,-2,-2,-7,9,785,86,I,2.6355643038327923,50.3872403683944,1532.37127088869,-58.318591674241475,-6.921129474901022
2025-02-19 11:56:30.766,768,-31,627,-2,-3,-3,-4,-8,11,785,88,I,2.8305008099842643,50.737316145402716,1542.2525599503836,-62.25238197716392,-5.104629021992764
2025-02-19 11:56:30.871,760,-28,629,0,-1,-3,-3,-9,8,782,92,I,2.5488448423791623,50.35991015941512,1530.0670488145342,-56.37089127211442,-8.331807505713186
2025-02-19 11:56:30.975,756,-7,640,6,2,-6,-2,-9,12,789,96,I,0.6266476008324131,49.74836486897936,1519.2140301142167,-14.066796575131637,-6.107115440606663
2025-02-19 11:56:31.089,908,11,645,13,9,-15,-3,-10,10,655,112,I,-0.9770426087760294,54.60789220786632,1723.207581087648,20.875862766480317,65.91531960183602
2025-02-19 11:56:31.196,843,329,618,-29,-67,-8,-3,-11,8,729,110,I,-28.029161283245635,50.290113256849864,1612.2893202325367,629.2327240290683,54.03701079038251
2025-02-19 11:56:31.303,657,-37,656,6,35,21,-2,-9,10,833,107,I,3.228201386981834,44.998141802982914,1364.0838481707272,-76.82055157125859,-50.007617047179565
2025-02-19 11:56:31.403,733,15,635,6,-14,39,-1,-8,10,765,107,I,-1.3531919537796904,49.08961328611501,1488.7347637912528,30.46524073242672,-19.695191006064647
2025-02-19 11:56:31.515,562,31,537,-12,41,3,-2,-9,7,723,88,I,-3.30391071064476,46.255528755923336,1284.4306862450303,70.84937949038422,-153.29408988181694
2025-02-19 11:56:31.622,804,59,546,10,-44,4,-3,-7,10,720,108,I,-6.167371700398658,55.66466543700017,1629.7506083951139,119.59612673546232,-14.770935551905609
2025-02-19 11:56:31.731,811,144,576,-54,83,19,-2,-6,9,726,74,I,-14.036243467926477,53.792412748095195,1617.8820955737954,287.26883078005744,2.9246768797703453
2025-02-19 11:56:32.741,768,1,627,-1,-3,-5,-3,-8,8,757,85,J,-0.09138075108799634,50.771549303627815,1542.6305537653534,2.008633533548637,-5.413225534995604
2025-02-19 11:56:32.843,762,27,620,2,-3,-5,-2,-8,9,777,96,J,-2.4935632656275954,50.8399585424098,1537.3850825841077,54.47427457975185,-10.890749609116597
2025-02-19 11:56:32.949,773,28,625,0,4,-3,-2,-11,8,789,102,J,-2.565135729697141,51.01505228038716,1550.3112645625947,56.15616482244844,-3.485821929652616
2025-02-19 11:56:33.054,768,45,615,2,1,-8,-2,-10,10,757,109,J,-4.1849161251184155,51.23825067906666,1547.7561121154868,90.6888346942668,-9.41407415497963
2025-02-19 11:56:33.168,743,280,621,-9,-49,-10,-1,-10,10,808,109,J,-24.26993095789767,47.48443207541631,1480.0937439399759,557.7742238266396,4.936453584488618
2025-02-19 11:56:33.271,703,103,677,-10,34,-3,-2,-12,10,824,101,J,-8.650743599497668,45.75174808603815,1419.323232578393,207.95205256838472,-12.830481444625889
2025-02-19 11:56:33.383,686,-19,694,18,-10,54,-2,-12,8,770,106,J,1.5682247104786569,44.6571228330271,1388.8625807229223,-38.46703940777773,-17.0592288946184
2025-02-19 11:56:33.486,920,-81,539,13,46,-44,-1,-9,9,582,110,J,8.546359126621937,59.35545779434447,1780.346034000679,-156.74785734136415,34.949443123515096
2025-02-19 11:56:33.596,539,-51,770,-24,18,33,0,-6,7,719,50,J,3.7893805079541107,34.93312912491563,1111.6199996856071,-105.181113142794,-48.02857097943888
2025-02-19 11:56:33.702,763,-1,648,-5,-10,-14,-2,-6,5,705,50,J,0.08841934263875041,49.659415665835155,1525.2099976365105,-1.9989646102706558,0.6709325446150842
2025-02-19 11:56:33.809,697,-39,682,6,-18,-9,-3,-9,7,667,57,J,3.2728804310956994,45.5764532560426,1411.1850799147333,-78.96157549020745,-16.815243187730175
2025-02-19 11:56:33.916,775,-26,642,-2,-5,-3,-2,-7,8,686,72,J,2.319122495877381,50.33902226504127,1544.834420254765,-51.826703131127594,4.279099608310958
2025-02-19 11:56:34.023,766,-12,632,-3,-3,-4,-2,-8,9,721,77,J,1.0877638403840888,50.47007427296258,1537.2922529290845,-24.082907356591406,-4.366454113814029
2025-02-19 11:56:34.131,749,-30,646,-3,-3,-2,-2,-9,8,729,79,J,2.658884394243413,49.19225242917006,1505.9066927921422,-60.316689964972326,-6.819390579070841
2025-02-19 11:56:34.239,765,-13,634,-2,0,-1,-2,-10,8,731,81,J,1.1746699864873404,50.343564944762406,1534.8850208034364,-26.083013425417867,-4.048500901148373
2025-02-19 11:56:34.346,755,-18,632,-4,-1,-3,-2,-6,8,716,81,J,1.6314008035322296,50.05633387032131,1521.6760689288774,-36.278369855258006,-9.77387491794775
2025-02-19 11:56:34.452,756,-32,638,-3,-1,-2,-2,-8,8,718,79,J,2.871363290377887,49.80298582916639,1519.829664043431,-64.3314143510447,-6.607573623953499
2025-02-19 11:56:34.558,738,-23,640,-1,-2,1,-2,-8,7,707,77,J,2.058181331458468,49.04958503557724,1493.2770655326153,-46.538445131775276,-14.982821058094487
2025-02-19 11:56:34.661,753,-25,644,-2,-1,-1,-3,-7,9,709,78,J,2.2230987677893093,49.44011659270971,1512.7267715765624,-50.223332389660094,-5.753042357644063
2025-02-19 11:56:34.772,752,-29,639,-1,0,0,-1,-9,10,709,78,J,2.598494922069847,49.61522317421604,1513.7104825561232,-58.374473396446234,-8.25132759755661
2025-02-19 11:56:34.878,766,-26,636,0,0,-1,-3,-7,8,674,80,J,2.3409767829727874,50.27407234607721,1535.1104191958284,-52.105575586281375,-2.5825412644213657
2025-02-19 11:56:36.403,761,-23,636,0,-1,-1,-5,-8,10,646,84,K,2.0711146301776413,50.094639618940775,1528.105136804676,-46.184517932335815,-5.1023219550249905
2025-02-19 11:56:36.492,763,-26,639,0,-1,-1,-2,-7,9,651,85,K,2.329998423074664,50.03104934079196,1529.3926657279103,-52.115608530702055,-2.841301966100332
2025-02-19 11:56:36.602,756,-26,632,0,-2,-1,-3,-9,7,658,87,K,2.3557764514927038,50.0812503529616,1522.9552007924322,-52.37676616481909,-9.158316006371592
2025-02-19 11:56:36.709,767,-26,623,-1,-2,-2,-3,-8,10,665,90,K,2.3897693595000393,50.89017998129282,1542.9383030958975,-52.30299332528466,-7.260186217397859
2025-02-19 11:56:36.815,786,-27,622,2,-2,0,-3,-8,9,725,91,K,2.4855554490751266,51.617473085898745,1569.8828478958512,-53.92727340100252,1.675405354682539
2025-02-19 11:56:36.921,757,-23,632,0,-2,0,-2,-7,8,754,89,K,2.084211426357826,50.12370069765604,1524.4304251541616,-46.316908558184565,-8.708096033593165
2025-02-19 11:56:37.032,779,-22,632,1,-4,-2,-3,-7,11,767,93,K,1.9936683250414955,50.93072492862332,1555.3844961060067,-43.92613467821841,2.1219492439072383
2025-02-19 11:56:37.135,784,3,622,2,-5,-6,-4,-8,9,781,104,K,-0.2763440606082768,51.57233950250242,1567.3934965145418,5.997679195846461,0.4811800611670378
2025-02-19 11:56:37.245,757,10,635,-3,4,-8,-3,-9,9,776,104,K,-0.9022211615301559,50.005316307901744,1523.104082204678,20.12026528671965,-7.6368457066979545
2025-02-19 11:56:37.352,708,-22,638,4,-12,-11,-2,-9,10,767,108,K,1.9749340108819768,47.96010847464174,1450.6787709323821,-45.07758892727741,-31.250078891044836
2025-02-19 11:56:37.463,761,-74,672,-3,-3,-11,-1,-10,9,716,110,K,6.284037782007805,48.382544404846406,1508.5957856256996,-146.69656785322175,11.836573008580672
2025-02-19 11:56:37.568,830,355,520,0,-11,41,0,-9,7,210,107,K,-34.32105280346486,52.816707462975266,1626.7061854030853,695.7598744796328,20.858775410115413
2025-02-19 11:56:37.679,457,-184,639,-2,-43,-44,-3,-8,9,835,105,K,16.06375098875232,34.499003218502835,1023.3918994177048,-412.04400326664705,-152.9571635184102
2025-02-19 11:56:37.785,565,-134,770,17,28,23,-2,-11,8,745,111,K,9.872087309113482,35.86321653109215,1150.852195160013,-272.9454763742332,-28.418035881787546
2025-02-19 11:56:37.893,670,23,687,-47,-46,53,-1,-9,8,327,107,K,-1.9174831332012898,44.266216304937,1367.9931653353879,46.9609594070357,-28.7034396797186
2025-02-19 11:56:37.999,791,48,565,41,40,-22,-3,-7,9,683,107,K,-4.855945883666842,54.36482225627412,1603.743203261457,97.31943584898852,-15.530859472468933
2025-02-19 11:56:38.106,558,-141,719,-4,-13,-21,-2,-7,7,674,53,K,11.095227667129157,37.29188237634926,1163.8756920898504,-294.0976211194784,-61.68928783620515
2025-02-19 11:56:38.208,860,27,606,1,-6,-3,-2,-8,9,707,82,K,-2.551095089000937,54.80276168659121,1677.1726817255317,52.655421403010884,30.178319621311402
2025-02-19 11:56:38.318,779,-5,630,-3,-4,-1,-1,-6,9,676,83,K,0.454718861693143,51.03564023406747,1556.5372731777516,-9.990611509484928,1.182949804899181
2025-02-19 11:56:38.425,761,-22,621,-1,-2,-4,-3,-8,7,667,87,K,2.0289536416908316,50.76686802442645,1535.5788805914108,-44.39255633772804,-11.08079480586855
2025-02-19 11:56:38.532,755,-23,627,-4,0,-2,-2,-8,7,689,86,K,2.100817098482881,50.272668590341326,1524.0947605229537,-46.42937681063302,-11.705185228995902
2025-02-19 11:56:38.643,786,-16,627,-1,-1,-1,-3,-7,10,701,89,K,1.4617760162911746,51.411196653782916,1567.642375094115,-31.91129516731023,3.476120631030426
2025-02-19 11:56:38.745,780,-14,629,-1,0,0,-3,-10,7,691,89,K,1.275053247553772,51.110005989965735,1558.3528025374687,-27.97043491733918,1.3283169281183973
2025-02-19 11:56:38.851,776,-18,627,-2,0,0,-2,-7,8,676,88,K,1.6444032646950881,51.05060855601849,1553.7015280706491,-36.039468434628475,-1.3748171395582176
2025-02-19 11:56:38.961,777,-16,623,-2,0,-1,-2,-6,10,670,89,K,1.4711573046659536,51.268079391375764,1557.0819512269647,-32.063463603129264,-2.4711140468457415
2025-02-19 11:56:39.067,778,-18,623,-1,-1,0,-2,-8,7,649,89,K,1.654955378364021,51.30159485869868,1558.4478110000737,-36.05663315938473,-1.9601365720383228
2025-02-19 11:56:39.171,770,-27,622,-1,-2,-1,-2,-7,8,644,90,K,2.4855554490751266,51.04262775803285,1547.6139573823843,-54.266982921200494,-6.150495443951968
2025-02-19 11:56:40.991,771,-23,626,-2,-1,-1,-3,-9,8,655,92,L,2.1041700221130695,50.906817871420394,1547.1214484010193,-46.15277991338968,-4.1582706861712495
2025-02-19 11:56:41.091,771,-23,618,-1,0,-1,-2,-8,10,655,92,L,2.131383507601202,51.26650484849645,1551.0647567197018,-46.27041427309097,-7.265913946531327
2025-02-19 11:56:41.194,765,-33,619,0,1,-5,-3,-9,10,679,91,L,3.0516518560406984,50.98217160811927,1541.9501018998637,-66.51549459175882,-9.669428857536673
2025-02-19 11:56:41.301,772,-17,627,1,4,-6,-2,-8,10,702,92,L,1.553093586242901,50.90701644099984,1548.1236338050062,-34.09080540762319,-3.349117092926008
2025-02-19 11:56:41.411,751,5,638,4,-1,-7,-3,-10,8,737,97,L,-0.4490172927183358,49.65010096627995,1513.1047497440359,10.073933087510225,-9.433861966304562
2025-02-19 11:56:41.522,800,-74,668,1,-7,-17,-3,-10,7,726,114,L,6.321363031663913,49.96611693648181,1565.6641832269524,-144.8239369484931,28.67040700549478
2025-02-19 11:56:41.621,753,-142,652,26,5,-31,-2,-11,9,677,113,L,12.286661838191339,48.453684295922436,1501.4198395884048,-283.1362778506686,3.9658228265075195
2025-02-19 11:56:41.731,893,0,594,1,-29,26,-1,-7,8,399,105,L,0.0,56.36919883975921,1725.623627222323,0.0,40.16076755872359
2025-02-19 11:56:41.841,775,25,609,14,8,15,-2,-6,10,802,107,L,-2.3507236253163097,51.81607220779807,1561.0303338142285,50.355817219813815,-8.667707474664553
2025-02-19 11:56:41.947,624,-113,675,-34,37,14,-1,-6,6,708,52,L,9.503611496708004,42.35720190691755,1297.7505972764725,-235.00932290423293,-53.816751861568605
2025-02-19 11:56:42.058,804,-45,642,10,-22,-11,-1,-6,7,708,57,L,4.009501541439254,51.32389306394069,1584.6910735596348,-88.69539590818852,18.612351709843892
2025-02-19 11:56:43.074,754,-44,646,-2,-1,-2,-3,-8,8,724,75,M,3.8964808708719167,49.345698831659824,1512.6542054724137,-88.27159819732918,-3.9875553516965283
2025-02-19 11:56:43.169,750,-32,641,-2,-1,-2,-2,-8,8,735,77,M,2.857947104465509,49.445370381022876,1509.7863929511886,-64.41755276591738,-8.364103842282589
2025-02-19 11:56:43.275,757,-35,643,-1,-1,-2,-2,-9,8,740,79,M,3.115669139390002,49.61341846400439,1518.690073983918,-70.21684622118511,-3.9837748634865875
2025-02-19 11:56:43.382,743,-36,648,2,-5,-7,-2,-7,9,746,82,M,3.179830119864234,48.86328006810577,1496.1419364860722,-72.49139934522017,-8.845188213963297
2025-02-19 11:56:43.483,760,2,625,5,0,-14,-1,-9,10,744,98,M,-0.18334586862300742,50.56705643703547,1532.3684924723823,4.032548664401006,-10.17145762531436
2025-02-19 11:56:43.600,779,-47,561,1,2,-21,-1,-10,10,675,113,M,4.788997543701275,54.14522712439389,1589.504248224439,-95.90076979017795,-22.687911750847434
2025-02-19 11:56:43.702,804,232,562,15,5,32,-2,-7,10,474,106,M,-22.43139266891057,52.90259020968106,1601.6111976482516,462.15646499302784,4.465804628958608
2025-02-19 11:56:43.811,680,-39,654,-21,-2,-40,-3,-10,8,773,99,M,3.4126793515868585,46.06575786568937,1400.136579752387,-80.30195089756336,-38.601945820677884
2025-02-19 11:56:43.917,766,7,630,4,3,-6,-2,-10,9,769,110,M,-0.6365935759634864,50.56252980743007,1538.318308344059,14.05773911019375,-5.196519917437627
2025-02-19 11:56:44.021,755,159,614,8,-5,15,-2,-8,10,676,110,M,-14.518261598547157,49.96737801434111,1520.6783407399653,320.2488161293436,-8.684107568660352
2025-02-19 11:56:44.133,679,-274,691,11,5,-18,-1,-9,10,845,112,M,21.62965148120304,42.409904648870636,1353.4300333476804,-546.155860290522,4.650731895070294
2025-02-19 11:56:44.242,823,156,540,10,-2,29,-1,-7,9,585,111,M,-16.11341823308929,55.668213085229276,1648.7855308363619,312.52799855464457,-1.8276873045389266
2025-02-19 11:56:44.351,628,-117,662,-50,59,17,-3,-6,8,719,54,M,10.022791290860583,43.05045792611158,1310.6421672312056,-244.18014899052713,-57.60050112588863
2025-02-19 11:56:45.261,770,2,627,-2,-1,-2,-3,-7,9,747,89,N,-0.18276103728975313,50.84442315761636,1545.434287240759,4.014115031794179,-4.4250624674750725
2025-02-19 11:56:45.355,774,8,622,2,0,-2,-2,-10,7,759,91,N,-0.7368825782116466,51.211715658921165,1553.4660745943563,16.05649689503211,-4.392633588746548
2025-02-19 11:56:45.465,777,17,639,14,-2,-4,-3,-8,10,791,96,N,-1.523941394624048,50.55638794274144,1549.250209329526,33.89607922599993,3.9061985050617523
2025-02-19 11:56:45.576,735,57,634,9,5,-10,0,-11,8,810,101,N,-5.137385766776507,49.10533700047142,1490.9144538366077,115.62193723630836,-18.04049487402642
2025-02-19 11:56:45.683,812,-19,587,-10,0,-18,0,-11,7,791,108,N,1.8539009751824367,54.12234873001424,1622.2702985873007,-37.959526691082154,1.2504122281459331
2025-02-19 11:56:45.792,832,303,523,12,-2,23,-2,-7,9,580,104,N,-30.085853591350844,54.00231764688741,1641.040769961019,597.6386457910921,14.432304459599948
2025-02-19 11:56:45.904,738,-106,700,-3,-17,-27,-1,-11,8,829,106,N,8.610798774144962,46.18933806078962,1459.6314174867548,-209.64895698319245,15.525755771370655
2025-02-19 11:56:46.011,672,295,617,16,-23,63,-2,-9,8,449,108,N,-25.553393047568044,44.49731841570966,1372.875881645861,602.6761682820372,-26.512528237345464
2025-02-19 11:56:46.117,730,-317,688,2,1,-32,-2,-9,10,830,114,N,24.738161922242924,43.94020365908285,1423.907258318997,-618.3268505303042,34.01617298154804
2025-02-19 11:56:46.221,658,23,614,-32,59,52,-2,-6,7,791,62,N,-2.145255810722155,46.96110183775033,1388.8905237403492,48.54784505475384,-68.01638537473298
2025-02-19 11:56:46.331,780,17,640,12,-23,-8,-2,-6,7,660,59,N,-1.5215613564293005,50.620774002196995,1552.9636599493494,33.846643870690954,5.773407221046341
2025-02-19 11:56:46.433,755,-2,643,-10,4,3,-2,-7,7,622,61,N,0.17821335844717398,49.58030014476542,1516.315421188653,-4.016729592552723,-5.378564005700468
2025-02-19 11:56:46.541,750,-16,637,-8,1,1,-1,-6,8,558,58,N,1.438837921603695,49.64873092884023,1512.0892678296568,-32.257904380366014,-10.26781814332196
2025-02-19 11:56:46.650,762,-22,642,-1,-1,-2,-2,-8,7,535,60,N,1.9626387794155402,49.86863497561524,1526.5686782686694,-44.07416131484347,-2.1641620058866238
2025-02-19 11:56:46.761,750,-26,645,-2,-2,-2,-3,-6,10,528,61,N,2.308347575200816,49.281473469250855,1507.9234412270782,-52.27467929587205,-6.8141594552872675
2025-02-19 11:56:46.866,737,-30,644,-5,-1,-1,-3,-6,10,516,62,N,2.6671298940156802,48.82185251972667,1489.6660772834684,-60.63769649729179,-13.689218141863648
2025-02-19 11:56:46.973,768,-24,645,-4,-1,-1,-2,-7,9,495,64,N,2.1309528871049226,49.955468673130575,1533.544625521078,-47.92326954753369,2.062130910032124
2025-02-19 11:56:47.079,750,-53,648,0,-2,-3,-1,-7,11,453,64,N,4.675820919781781,49.07847046358709,1505.6073895542258,-106.39625552849861,-4.844784574851019
2025-02-19 11:56:47.182,769,-31,636,0,-3,-1,-1,-7,9,463,66,N,2.7905103166091,50.374224321696396,1539.2264065966751,-62.049439017551265,-1.0142972633099134
2025-02-19 11:56:47.292,751,-38,642,0,-2,-1,-2,-6,9,481,68,N,3.3873868054916945,49.42469288592301,1510.5517023846635,-76.43270930841175,-7.310509894745678
2025-02-19 11:56:47.403,753,-29,630,-2,-1,-1,-2,-6,10,466,68,N,2.6355643038327923,50.05250199101253,1519.6331286721925,-58.52504745218272,-11.406203271555455
2025-02-19 11:56:47.506,770,-24,634,-2,0,0,-3,-8,7,463,68,N,2.167890279221107,50.51262546525029,1541.7647282658054,-48.05500451737575,-1.4530360006762066
2025-02-19 11:56:47.616,756,-37,631,-2,-1,-1,-2,-6,8,458,68,N,3.35581484796088,50.10134977686289,1523.1802629051822,-74.54718217922188,-9.331674461864964
2025-02-19 11:56:47.719,762,-25,628,-2,0,0,-2,-7,8,445,68,N,2.2796792104316057,50.484196089904465,1533.44910441184,-50.31000998726509,-7.787450880099186
2025-02-19 11:56:47.829,760,-29,626,-1,-2,0,-2,-8,8,451,69,N,2.6523809968543324,50.49211369963179,1531.5370250592846,-58.44022858778849,-9.50286537777913
2025-02-19 11:56:49.042,765,-28,633,-3,0,-3,-2,-7,8,506,73,O,2.5327594384300247,50.36640355115908,1535.139344891254,-56.1881067411178,-4.252555968841534
2025-02-19 11:56:49.141,759,-28,634,-3,0,-5,-2,-7,9,541,74,O,2.5287697396347486,50.10020035503485,1526.1673948669804,-56.30130046940113,-6.822303485725456
2025-02-19 11:56:49.248,754,-34,645,-4,0,-8,-3,-8,9,640,75,O,3.017449867222368,49.41580314623169,1513.4507730011085,-68.24579082498366,-4.662796532778316
2025-02-19 11:56:49.351,770,-19,636,-2,-4,-7,-3,-7,7,678,77,O,1.7111574387371367,50.431629701101656,1540.8650104361059,-38.02134441335846,-0.7144761524200476
2025-02-19 11:56:49.464,788,19,622,8,-11,-3,-3,-9,8,762,89,O,-1.7496485603038838,51.70155730330413,1572.793215880738,37.922679063114245,2.5312433022601226
2025-02-19 11:56:49.570,751,-14,619,4,-10,-7,-2,-10,9,809,100,O,1.2956448803643867,50.496290163113756,1522.583396425301,-28.38371178422664,-16.96554245973516
2025-02-19 11:56:49.681,768,-18,638,3,3,-18,-3,-9,9,821,112,O,1.61606665068574,50.271394528715724,1537.0805481676884,-36.025325347680194,-0.8976428788870408
2025-02-19 11:56:49.785,1013,197,512,5,-27,95,-2,-9,10,553,105,O,-21.045009491484635,61.56216614912723,1892.3343144305234,368.00578474117776,67.5585696066853
2025-02-19 11:56:49.894,729,-32,692,-3,-8,-67,-3,-8,9,832,0,O,2.6476296652922233,46.46097365366307,1453.9053381568606,-63.820261757228465,3.8868394999344673
2025-02-19 11:56:50.004,762,227,520,-50,79,73,-1,-8,9,798,63,O,-23.583120173232693,53.32850099432183,1564.0728254114674,465.93770520787814,-27.34628505769433
2025-02-19 11:56:50.111,692,-63,658,15,-39,-17,-1,-7,7,760,54,O,5.469094970111935,46.312140977901805,1415.1135276869845,-128.83258994838152,-29.5848283497628
2025-02-19 11:56:51.121,755,-6,640,1,0,-2,-3,-9,8,790,78,P,0.537132197009115,49.71140979520365,1517.7971153147582,-12.061963830315957,-6.609475233702028
2025-02-19 11:56:51.221,751,0,642,2,-1,-1,-3,-9,8,799,81,P,0.0,49.474185534643496,1511.1132812919725,0.0,-7.790581344136399
2025-02-19 11:56:51.328,763,17,642,1,-1,-2,-2,-9,7,806,87,P,-1.5168235077612233,49.91233193920952,1528.060019823864,34.045898213637855,-1.7333325385592389
2025-02-19 11:56:51.431,702,24,641,5,-14,-16,-2,-10,7,806,101,P,-2.144238190832705,47.58064279738179,1440.2274875018052,49.23854658125829,-33.079514941106936
2025-02-19 11:56:51.541,795,-208,666,8,7,5,-5,-8,7,765,109,P,17.344227136440082,48.728473238144204,1546.5920297102725,-404.64294613803366,36.36441284648856
2025-02-19 11:56:51.654,852,72,625,16,-8,-28,-1,-9,10,761,109,P,-6.571505730324534,53.557111830236394,1656.4493742632708,139.98163726168485,34.881620992319085
2025-02-19 11:56:51.761,868,-21,624,-6,-14,-35,-4,-9,8,829,107,P,1.927495886671903,54.27249788694227,1679.8033321535759,-40.640403197263936,40.39944785272871
2025-02-19 11:56:51.867,683,21,648,18,13,43,-2,-9,8,783,109,P,-1.8561580474488717,46.49128860846477,1408.2697035021938,43.299654134035244,-40.10361327880162
2025-02-19 11:56:51.970,568,-101,625,-53,64,30,-2,-9,5,802,53,P,9.179639533983298,41.897217080389225,1235.7964026452955,-219.74548709009656,-109.81118248822133
2025-02-19 11:56:52.081,811,10,667,22,-31,-12,-3,-5,7,811,55,P,-0.8589428366184348,50.561546179996185,1583.307402797166,19.522902623886143,31.822394986794393
2025-02-19 11:56:52.187,696,-45,688,-9,1,-2,-3,-4,8,764,56,P,3.7422133057707314,45.27004099543226,1406.4315833984724,-90.93307651283227,-14.265703129524468
2025-02-19 11:56:53.401,745,-35,658,2,-3,-1,-4,-10,7,750,67,Q,3.0447784441939847,48.50820315510452,1494.0505817935689,-70.1902957889596,-3.577560832440554
2025-02-19 11:56:53.501,747,-21,646,3,-6,-2,-3,-7,5,767,72,Q,1.8619006282246078,49.13202447992556,1503.2193070779072,-42.25917730741105,-7.972787647025598
2025-02-19 11:56:53.609,755,-11,638,1,-2,-1,-2,-5,8,779,76,Q,0.98776039963981,49.79688545119281,1518.7609409869233,-22.1276428488161,-7.403285231333939
2025-02-19 11:56:53.714,753,-21,617,5,-9,-1,-1,-8,8,801,80,Q,1.949346972496708,50.65292160076257,1526.3195165491165,-42.566679744397675,-16.649590585398528
2025-02-19 11:56:53.825,758,10,596,4,13,-30,-4,-10,8,784,111,Q,-0.9612483860247474,51.81883110568651,1544.0600997965146,20.37018601314663,-22.063086383539257
2025-02-19 11:56:53.936,902,321,541,-21,-42,120,-3,-8,7,555,102,Q,-30.68259084159058,55.107671580955675,1722.2284756196598,612.8994907693025,49.044783469805
2025-02-19 11:56:54.038,728,-197,564,10,12,-60,-1,-9,8,832,0,Q,19.253837500088913,50.62682916697121,1501.0307059656584,-406.18550697147623,-34.886426050317596
2025-02-19 11:56:54.145,510,177,557,-22,16,47,-1,-8,7,690,0,Q,-17.62889255280994,41.10860576414962,1167.4884227855387,405.1871584961576,-161.0804931206768
2025-02-19 11:56:54.256,784,-80,565,-8,10,-20,-2,-8,11,608,0,Q,8.05910390287096,53.95094169621466,1592.5134191443833,-162.50136930044727,-17.665920684409002
2025-02-19 11:56:54.358,867,8,631,27,-2,11,-2,-7,9,785,0,Q,-0.726373501367963,53.95079384924881,1675.5119006241125,15.460317422137138,42.56746332893317
2025-02-19 11:56:54.469,495,-170,734,-18,6,10,-1,-6,4,590,40,Q,13.04021628846734,33.30474520784262,1044.0920372633805,-358.5770633025751,-80.2092027299417
2025-02-19 11:56:58.084,744,26,646,-1,0,-1,-3,-9,9,779,85,R,-2.3047781381739534,49.00992903527349,1498.8232602175144,52.37823221190237,-9.397615726497406
2025-02-19 11:56:58.180,749,29,650,0,-1,-1,-3,-10,7,782,86,R,-2.554579147616633,49.0195765228656,1503.9336949898488,58.22974252964701,-5.149401526571069
2025-02-19 11:56:58.281,746,28,651,-2,0,-1,-1,-10,9,780,85,R,-2.462816675916847,48.864056046399554,1499.1508460361233,56.26839636596709,-6.240215508734877
2025-02-19 11:56:58.392,737,31,650,-1,-2,-2,-3,-6,8,782,86,R,-2.7304989757358866,48.55690224534921,1486.613420193868,62.53055091724546,-11.124454716437185
2025-02-19 11:56:58.503,754,34,648,-3,-3,-4,-2,-10,8,783,90,R,-3.003505829306962,49.284758417162976,1511.960840894234,68.17860555756494,-3.4040118030023905
2025-02-19 11:56:58.610,758,26,648,-2,-1,-2,-2,-10,6,794,92,R,-2.297672261204155,49.45072518144673,1517.8471540640594,52.06335884652447,-1.5790974056868663
2025-02-19 11:56:58.716,758,35,647,1,-4,-3,-3,-10,9,814,94,R,-3.0964444881511466,49.47584670644398,1518.1321202971244,70.09844882638438,-1.8198968763055063
2025-02-19 11:56:58.821,765,33,636,2,-1,-4,-2,-11,7,819,101,R,-2.9702306071965188,50.22292586940325,1533.5395903969088,66.1526882132,-2.9427182907634233
2025-02-19 11:56:58.929,747,58,646,5,2,-3,-2,-12,7,820,102,R,-5.130447047659961,49.033162907180966,1502.0891820088266,116.6280757115287,-6.9954639594400305
2025-02-19 11:56:59.039,779,45,601,-9,-4,-8,-3,-9,8,798,109,R,-4.282043201097947,52.27225820224987,1569.9273475786517,90.68899953920324,-9.201971623580903
2025-02-19 11:56:59.146,840,333,541,-4,-13,53,-1,-9,8,418,105,R,-31.61341085502584,52.90066887114616,1637.5909706232042,649.1878490684845,27.313434396245725
2025-02-19 11:56:59.257,473,-79,594,5,-11,-52,-1,-10,6,821,99,R,7.575687994499234,38.28565187621015,1092.5824870941271,-182.48206444066818,-184.08033262983395
2025-02-19 11:56:59.359,656,88,759,6,-8,30,-3,-9,8,826,107,R,-6.613460482314756,40.64753738063852,1307.403948316195,175.38345648144076,5.317687847573211
2025-02-19 11:56:59.463,1241,-129,560,-10,-15,2,-2,-9,7,704,104,R,12.972197680169154,65.15270829545851,2148.4309552962245,-223.32602194457127,150.52269543441923
2025-02-19 11:56:59.572,895,67,656,19,26,0,-1,-6,9,794,0,R,-5.831634290341218,53.6181819759208,1700.0820696123747,127.26871359109396,65.90632663048314
2025-02-19 11:56:59.680,568,-155,710,-3,-4,0,-2,-4,6,646,48,R,12.315018479274393,38.0108901617642,1183.8112407608442,-323.0470815456528,-59.76405095105497
2025-02-19 11:57:00.801,760,5,646,-1,-1,-3,-2,-8,8,715,79,S,-0.44345693050798135,49.634616559641124,1521.9297450297177,10.012695690984984,-1.6402832752600034
2025-02-19 11:57:00.895,760,7,645,-1,-1,-3,-3,-9,6,738,81,S,-0.6217902503770318,49.677594611386795,1522.4153456678282,14.02224660483526,-2.0498657312489286
2025-02-19 11:57:01.002,758,-1,644,-3,-1,-3,-3,-6,8,763,82,S,0.08896853022227957,49.64859675049116,1520.0877515427671,-2.0053928120616975,-3.4729709677333176
2025-02-19 11:57:01.108,750,9,640,-3,-2,-2,-3,-7,8,775,84,S,-0.8056687941526541,49.52197136995802,1510.6549553116556,18.127859463739867,-9.092228532612467
2025-02-19 11:57:01.219,692,-33,649,-1,-13,-12,-2,-10,7,809,92,S,2.9108378261677537,46.79968376794552,1420.964849195935,-67.76277460038418,-34.66790047422205
2025-02-19 11:57:01.325,757,12,666,-6,4,-17,-3,-7,10,801,110,S,-1.032244691565731,48.65443670534317,1507.7390432099978,23.900751015217935,5.508318655404651
2025-02-19 11:57:01.432,1034,16,546,33,6,59,-1,-11,8,716,106,S,-1.6785168497271,62.153711373557535,1918.2038979725287,29.682071922205473,79.09929565473811
2025-02-19 11:57:01.538,720,-8,631,13,10,14,-2,-8,8,722,108,S,0.726373501367963,48.76675307033386,1472.0325655720599,-16.355917395245108,-28.07298454995805
2025-02-19 11:57:01.645,605,-37,663,-35,49,24,-3,-5,5,712,51,S,3.1941887645005127,42.336688423164766,1278.4859862766725,-78.18839916072213,-75.05158496104787
2025-02-19 11:57:01.756,725,-57,686,11,-30,-15,-2,-7,5,769,51,S,4.749817157392554,46.48483907096838,1450.192201403433,-114.0151110068906,-0.18186229345519678
2025-02-19 11:57:02.972,745,-20,650,-3,0,-5,-2,-7,6,740,72,T,1.7623910236605127,48.882418010941166,1498.361632291811,-40.22447335011574,-7.295383878761527
2025-02-19 11:57:03.066,733,-18,649,0,1,-11,-1,-8,7,772,73,T,1.5886898486696472,48.46730960984662,1481.5775377615012,-36.3825316230655,-13.792390187195224
2025-02-19 11:57:03.172,735,23,650,4,-5,-8,-3,-8,8,792,79,T,-2.026543611278941,48.49415310488317,1483.8880981231282,46.43459354671013,-12.281991537460158
2025-02-19 11:57:03.278,743,33,650,15,-4,-9,0,-9,7,784,96,T,-2.9063672979826136,48.78298613857074,1495.219279273147,66.40947000809402,-8.06531834124587
2025-02-19 11:57:03.393,798,-147,491,15,6,-13,-2,-10,9,354,108,T,16.667121767065943,57.28850918312283,1639.4024184281375,-301.9951823420254,-26.704996802275105
2025-02-19 11:57:03.495,706,49,682,11,3,4,-2,-9,10,866,108,T,-4.109497482775869,45.91689635882671,1424.3314891953241,98.85586823027037,-11.912288429477371
2025-02-19 11:57:03.606,925,-27,656,13,-7,-29,-3,-11,8,816,106,T,2.356880166538064,54.63326269816858,1740.4639563259152,-50.802731698161836,77.68177800021613
2025-02-19 11:57:03.712,820,341,515,0,-6,47,-1,-6,10,494,105,T,-33.509973616799435,53.01125916063885,1618.7537569501455,673.1646720975607,13.343677037408668
2025-02-19 11:57:03.820,521,-92,639,-34,59,25,-2,-6,8,771,52,T,8.192857837837542,38.90405509284693,1149.0181360187546,-202.89763630273592,-131.25640866791582
2025-02-19 11:57:03.926,791,-9,682,8,-21,-13,-1,-5,6,698,49,T,0.756058775750679,49.229629328663734,1548.3328573837512,-17.616935166186803,29.027801851177855
2025-02-19 11:57:06.042,746,-14,651,-1,-2,-5,-3,-7,9,718,72,U,1.231977402639728,48.88372554900664,1499.376639230206,-28.138435588770626,-6.437254877833993
2025-02-19 11:57:06.137,740,-7,656,2,-3,-3,-2,-10,7,746,74,U,0.6113646876023091,48.44182607047965,1488.2825590932703,-14.078348531963368,-7.342376709709811
2025-02-19 11:57:06.244,771,3,649,7,-4,-6,-2,-9,8,758,85,U,-0.26484763372735903,49.910234925201884,1536.036450542342,5.976795527402108,5.019900905344002
2025-02-19 11:57:06.351,712,26,657,7,2,-20,-3,-8,8,752,92,U,-2.26623034338704,47.27829501766578,1446.6576396675187,52.8273857181959,-20.907400648257862
2025-02-19 11:57:06.464,673,-95,613,15,14,-10,0,-11,6,580,110,U,8.809363856680623,47.33261166859227,1408.3004716783764,-198.79427163364898,-56.746194857124465
2025-02-19 11:57:06.573,816,177,651,-1,-24,12,-1,-8,8,702,108,U,-15.210426216402103,50.41754076592944,1586.7083502705018,344.1757083307338,36.13341173272488
2025-02-19 11:57:06.678,786,-222,620,-1,2,-27,-4,-9,10,832,0,U,19.700643887887818,50.04217932898981,1552.517435276308,-438.49729087956797,15.36792637237761
2025-02-19 11:57:06.782,838,157,565,20,1,39,-1,-8,11,648,0,U,-15.529341099844531,55.01680451022402,1657.3202356002998,310.50033053609445,12.594351892399004
2025-02-19 11:57:06.891,496,-164,724,-36,27,4,-1,-8,7,734,47,U,12.76321344786977,33.74908080913067,1051.5568937583412,-347.69219874267736,-86.93385298596581
2025-02-19 11:57:08.507,768,27,639,0,-1,-1,-2,-8,10,754,90,V,-2.4195092166563366,50.2133589769467,1536.4327494912568,54.015213849302,-0.3600611001471634
2025-02-19 11:57:08.601,765,27,633,0,-1,-1,-3,-8,8,757,90,V,-2.442415310657095,50.36833165900217,1535.1608101394152,54.18214624021465,-4.270317409476775
2025-02-19 11:57:08.710,758,32,636,0,0,-1,-2,-9,8,770,92,V,-2.8803775528476065,49.965995095116405,1523.6628153530473,64.32349616266163,-6.429486232899876
2025-02-19 11:57:08.817,746,42,648,5,2,-2,-3,-8,8,778,94,V,-3.708428157130453,48.96188479539731,1500.2729792977802,84.46577095242193,-7.186180408795735
2025-02-19 11:57:08.923,766,51,636,1,3,-4,-2,-7,8,777,97,V,-4.584662875731723,50.20731232724917,1534.3652108160818,102.1574748715668,-1.963804280715408
2025-02-19 11:57:09.029,755,44,643,0,1,-4,-2,-11,5,775,96,V,-3.9146040170963343,49.51436203930821,1515.568735521782,88.32453558007735,-4.742644954312254
2025-02-19 11:57:09.136,745,57,653,4,3,-4,-3,-8,8,758,94,V,-4.988671468025771,48.65729304407293,1495.7719747932479,114.44161417881224,-5.059194013410433
2025-02-19 11:57:09.244,754,60,643,-1,0,-1,-2,-8,9,759,94,V,-5.330981046743225,49.42028229676428,1513.501629182913,120.43779542569601,-4.691707645375573
2025-02-19 11:57:09.353,748,59,649,0,0,-2,-3,-9,7,764,95,V,-5.194428907734806,48.936805669582455,1501.9855215805092,118.47212001771396,-5.193320194853527
2025-02-19 11:57:09.459,756,61,654,-1,-1,-2,-1,-8,9,762,97,V,-5.328684795956532,49.014772461853006,1510.8787055877087,121.90952518630984,0.9700086582521408
2025-02-19 11:57:09.566,748,75,650,1,0,-3,-3,-9,8,763,97,V,-6.5819446551780105,48.82220516152161,1500.6701295784928,150.46826165559756,-4.05826768184545
2025-02-19 11:57:09.681,667,60,620,-3,-12,-10,-3,-11,6,753,105,V,-5.527540151656172,46.95826777423258,1397.8567641051557,125.74423665113844,-59.357112061763814
2025-02-19 11:57:09.783,750,50,653,7,5,-13,-1,-10,9,730,108,V,-4.378575675704385,48.87204218604473,1503.2425324691794,100.21616883127861,-2.8231649364986424
2025-02-19 11:57:09.893,782,222,614,-3,-12,39,-3,-8,9,449,104,V,-19.87814185089563,50.141088002068045,1549.6249514631622,439.91910386805876,11.286802815368901
2025-02-19 11:57:10.000,869,77,527,-8,-18,-77,-2,-9,10,736,0,V,-8.31266927588591,58.49656589861419,1721.6088461521622,152.54761927930554,9.940319997480401
2025-02-19 11:57:10.107,792,124,559,-6,8,-13,-2,-11,10,812,0,V,-12.5071006522196,54.13440177122798,1602.3935665503013,250.879800823532,-12.982327906083924
2025-02-19 11:57:10.211,625,68,617,-45,61,51,-1,-7,9,741,0,V,-6.289225935198863,45.19612234364405,1334.5230467686029,145.196107488424,-83.44115176996468
2025-02-19 11:57:10.320,740,0,680,18,-28,-15,-2,-7,6,707,51,V,0.0,47.41950921665634,1476.327520755392,0.0,3.3747106572074017
2025-02-19 11:57:11.236,752,24,637,1,2,-2,-1,-8,8,716,78,W,-2.157690107916617,49.712873125112864,1514.8136301491622,48.34511585582433,-9.159950006670783
2025-02-19 11:57:11.331,752,26,640,1,0,-2,-2,-9,8,744,79,W,-2.3263618035750597,49.57677737578664,1513.2755547027318,52.32069737004126,-7.894089108707931
2025-02-19 11:57:11.438,750,42,642,4,3,-2,-1,-9,7,761,80,W,-3.7429882956871343,49.37602313292091,1508.998907941013,84.5039388446967,-7.70306519750693
2025-02-19 11:57:11.543,730,51,661,11,6,-5,-1,-10,8,756,83,W,-4.411962129287679,47.75519370607013,1470.2790726619987,102.71812699419444,-9.30748908161786
2025-02-19 11:57:11.659,937,112,656,14,3,-26,-1,-10,7,612,106,W,-9.688786560366802,54.61621176208884,1752.2916699086145,209.45215264649397,85.20882021339241
2025-02-19 11:57:11.761,936,-11,775,-31,-31,68,-1,-10,7,767,101,W,0.8131758152251403,50.37269917362002,1706.2094296015093,-20.05160654446218,137.27317527652815
2025-02-19 11:57:11.873,759,74,540,22,-15,-43,-2,-9,10,779,106,W,-7.8030412596530985,54.317429935244355,1571.261008243448,153.19277287222025,-37.893207445931466
2025-02-19 11:57:11.976,884,20,742,-17,-24,77,0,-9,9,781,0,W,-1.5439867897975155,49.98078203069066,1649.828798242485,37.326443399151245,99.18894989148873
2025-02-19 11:57:12.089,803,-21,600,-6,-11,-53,-3,-7,10,724,0,W,2.004534032105904,53.21616935603871,1603.9003886123933,-41.94509110941502,1.5688254452851425
2025-02-19 11:57:12.192,1052,116,557,5,41,45,0,-9,9,831,0,W,-11.764181118756026,61.594247346006405,1931.6008144530101,212.99020387504677,91.2797969103359
2025-02-19 11:57:12.301,534,-84,714,-1,-11,-10,-1,-7,7,533,0,W,6.709836807756933,36.604097349499554,1130.2822847164778,-177.7972133261875,-83.27631327259371
2025-02-19 11:57:13.111,774,43,624,-3,0,-3,-3,-7,8,736,81,X,-3.942034992679884,51.05785606687371,1551.781039565817,86.21005775365649,-3.0482799600382577
2025-02-19 11:57:13.212,770,58,618,3,-9,-8,-2,-7,9,757,90,X,-5.361568980631745,51.126868500646,1548.5375423275293,116.64308760389181,-6.852209296640467
2025-02-19 11:57:13.321,805,86,597,1,-7,-7,-2,-9,8,774,106,X,-8.197272053176698,53.156873538956944,1605.2802598541875,171.49577931361503,3.500229648509503
2025-02-19 11:57:13.431,693,65,588,-6,-12,-20,-3,-9,11,808,103,X,-6.308105257097079,49.514160052609924,1453.5664466684898,136.3374012026722,-57.329106264173106
2025-02-19 11:57:13.539,451,-64,727,21,39,28,0,-10,10,716,112,X,5.030950511414267,31.71472557202964,976.6903004368461,-138.59906702429743,-120.39877697912857
2025-02-19 11:57:13.643,824,87,597,24,30,48,-2,-10,7,531,104,X,-8.291271491691063,53.789629755860005,1630.8534023103211,172.18961893324993,12.4229597339056
2025-02-19 11:57:13.751,855,-80,751,22,-26,-29,-3,-8,8,716,109,X,6.080481700529042,48.544805393143065,1604.4736616928071,-150.12619056774804,92.69038604526543
2025-02-19 11:57:13.859,605,208,688,-40,-43,78,-2,-11,8,400,0,X,-16.82140989004083,40.088455537519366,1248.9694935305743,429.3977762881974,-44.315721568652975
2025-02-19 11:57:13.961,938,154,600,-11,87,11,-3,-8,9,739,0,X,-14.39517865967305,56.55952769987601,1772.4588092417289,291.0007000247615,66.23103886456556
2025-02-19 11:57:14.071,685,-25,656,5,-23,-13,-2,-6,8,564,60,X,2.1824720179253294,46.21809628698646,1406.9787984501065,-51.349591184310455,-35.41327267630618
2025-02-19 11:57:15.091,739,41,651,3,-6,-5,-4,-9,7,688,82,Y,-3.603730270161665,48.566266506147194,1488.721585315847,82.59483761562888,-9.44486067742423
2025-02-19 11:57:15.186,773,63,631,2,0,-5,-2,-10,8,732,93,Y,-5.70160274380078,50.63596353398896,1546.131830216536,126.01074424791949,-0.10761302281287044
2025-02-19 11:57:15.292,711,82,637,5,1,-12,-3,-10,10,738,99,Y,-7.335254843486773,47.90805842320882,1453.0701264706727,167.58333385456422,-27.836386162895224
2025-02-19 11:57:15.403,771,12,570,-4,9,-12,-3,-10,9,646,109,Y,-1.2060487792199577,53.51842918714378,1575.0481437767824,24.514367996525795,-24.432479834975425
2025-02-19 11:57:15.509,818,118,573,12,-4,37,-2,-10,8,633,0,Y,-11.63645533927266,54.428098090783536,1631.3861388098749,235.33443078186457,3.2319589999287928
2025-02-19 11:57:15.620,561,-68,714,19,-52,-36,0,-10,11,829,90,Y,5.440332031005506,38.03162937658361,1177.0963923984505,-142.6783505937516,-70.12268123439162
2025-02-19 11:57:15.725,642,-152,761,-1,22,36,-3,-11,10,742,114,Y,11.29545287374391,39.60047566135238,1279.430386417269,-302.91809771873034,5.416629184514818
2025-02-19 11:57:15.825,793,-8,585,7,14,5,-2,-10,9,309,111,Y,0.7834831898506287,53.58106228739299,1597.6976133560565,-16.118008709771058,-8.629386902008719
2025-02-19 11:57:15.933,797,126,573,1,-3,40,-2,-6,11,0,0,Y,-12.401695816721304,53.64236843729138,1602.332391962566,253.31729157751982,-5.990540269197254
2025-02-19 11:57:16.043,573,-162,702,-17,39,-2,-1,-5,7,674,0,Y,12.994616791916505,38.496507682260344,1195.4669336021288,-337.9854157828008,-60.603468392137074
2025-02-19 11:57:16.959,759,1,606,5,-4,-5,-2,-9,8,769,0,Z,-0.09454740512680963,51.39543181983799,1540.4707281489777,2.0296057024360703,-17.941055676258657
2025-02-19 11:57:17.058,770,29,628,4,1,-6,0,-8,10,829,96,Z,-2.6439459291516694,50.76995902477842,1544.6130004348995,58.1737363800157,-3.7622912637882564
2025-02-19 11:57:17.163,787,61,618,6,-1,-5,-2,-9,10,841,102,Z,-5.637148820074019,51.72385806950445,1572.0343796345978,121.84764568959397,1.5435239972283625
2025-02-19 11:57:17.271,715,55,646,6,6,-7,-2,-9,8,833,100,Z,-4.866387950921623,47.79935383503885,1455.7970207722637,111.98438621325107,-23.307518068367017
2025-02-19 11:57:17.383,771,51,645,-3,1,-13,-3,-10,10,767,108,Z,-4.520957899581423,49.99706429001771,1537.0115070871898,101.67002186958065,4.173252825891836
2025-02-19 11:57:17.486,760,72,642,-3,-2,-3,-1,-10,9,669,0,Z,-6.398956627368915,49.63437944516652,1521.9270647300455,144.18256402705694,-1.627862574591063
2025-02-19 11:57:17.595,830,300,577,5,-42,-5,-1,-11,7,792,0,Z,-27.47130498074064,51.92023489610571,1617.152888702118,584.5130923019703,29.786485805877078
2025-02-19 11:57:17.701,786,107,607,15,-5,-11,-2,-13,10,837,0,Z,-9.99720991820106,51.897474971758214,1572.90782839127,214.12358478099983,-0.7010837576347058
2025-02-19 11:57:17.807,940,80,531,-4,8,9,-1,-9,11,181,0,Z,-8.567696586103542,60.26202561130361,1808.3029445163402,153.89812293756086,40.50120900193974
2025-02-19 11:57:17.913,653,-11,647,5,-19,2,-1,-8,9,497,0,Z,0.9740229670869543,45.26030058068568,1363.3119312426509,-22.96543835171387,-56.78532850535248
2025-02-19 11:57:18.024,890,98,583,-24,48,12,-1,-6,10,639,0,Z,-9.541988145997944,56.40604127839211,1722.9795857949955,189.72134764933656,37.3515746983345
2025-02-19 11:57:18.125,770,57,621,-5,-3,-3,1,-7,9,637,0,Z,-5.2443381107151605,50.9965510013775,1547.1080772383875,114.52618234102349,-5.732618136413635
2025-02-19 11:57:18.233,757,24,626,-4,4,2,-1,-8,9,653,0,Z,-2.195568004805615,50.39033884170801,1527.4057500129456,48.42501717346194,-11.085864607799067
2025-02-19 11:57:19.451,774,36,614,1,-2,-2,-3,-6,9,774,0,a,-3.355520090808698,51.527800275587886,1556.9101127673914,72.41442384964613,-7.0682289911865155
2025-02-19 11:57:19.543,790,40,617,2,-5,-1,-1,-9,8,789,0,a,-3.7092843915065195,51.951411718585966,1577.4883736980405,79.87282904800205,1.961611934568623
2025-02-19 11:57:19.658,795,52,606,-1,-3,-1,-1,-7,9,795,0,a,-4.904455720599123,52.58165046627,1589.2200617459669,103.94898517080537,0.5945189709989336
2025-02-19 11:57:19.765,764,41,624,-2,-1,-1,-2,-7,10,791,0,a,-3.759223025112451,50.699157959852236,1537.8309012413752,82.52757454305808,-8.029427191908326
2025-02-19 11:57:19.872,918,-12,525,16,14,2,-1,-10,8,653,0,a,1.3093898194105595,60.22850956710407,1786.0126331260653,-23.346570367660984,28.587546414832048
2025-02-19 11:57:19.982,726,15,629,22,-13,-48,-4,-6,10,765,0,a,-1.3660951167989142,49.08657089644505,1481.6999888987048,30.613636134270756,-25.731808563753816
2025-02-19 11:57:20.088,746,-9,721,-37,-22,70,-2,-7,8,664,0,a,0.7151667616830774,45.97408574315262,1465.0255403605443,-17.674570862258577,26.070489812396204
2025-02-19 11:57:20.191,703,49,568,-19,78,1,-1,-7,7,756,0,a,-4.930562644593406,50.95909613614641,1479.6964871577406,103.1367395031711,-59.54424566941191
2025-02-19 11:57:21.411,765,30,627,0,-2,-2,-1,-9,9,764,0,b,-2.739335721918572,50.62956439841391,1538.0609890772628,60.31611721871619,-6.606849871168265
2025-02-19 11:57:21.506,758,30,630,2,-2,-2,-3,-7,9,771,0,b,-2.726310993906266,50.23695834841088,1526.696263205331,60.42333495535611,-8.890034062478321
2025-02-19 11:57:21.613,772,39,625,0,-1,-1,-2,-9,8,780,0,b,-3.570627055610602,50.95241353080837,1548.6230173660772,78.23354621408939,-3.7427277898939337
2025-02-19 11:57:21.722,750,43,624,7,-4,-7,-2,-10,8,797,0,b,-3.942034992679884,50.17280311897998,1517.979592903007,87.03082999310573,-14.959021295301795
2025-02-19 11:57:21.829,808,-1,586,5,-3,-18,-3,-9,8,801,109,b,0.09777427286068349,54.048553629550646,1617.5148052185868,-2.0018747589338948,-1.0986087352622462
2025-02-19 11:57:21.932,762,10,612,5,1,-25,-2,-11,8,788,0,b,-0.9361222413566875,51.226590774805544,1541.6286856721763,20.23134758099969,-14.15847195718095
2025-02-19 11:57:22.043,785,119,651,11,6,28,-3,-9,7,702,0,b,-10.359052488083714,49.86774704570048,1549.5586895116087,234.9012535692757,16.95196576807996
2025-02-19 11:57:22.149,733,55,687,-4,-24,2,-2,-9,9,815,0,b,-4.57723602874374,46.764080427916774,1461.5393314879584,109.66529772419878,4.180735699553338
2025-02-19 11:57:22.258,846,127,459,11,29,13,-2,-8,7,724,0,b,-15.466151927435654,60.6231767308373,1717.4123154435101,257.8148511363189,-13.787532847010823
2025-02-19 11:57:22.360,299,-103,826,-13,-10,2,0,-6,3,719,42,b,7.107941165526193,19.758467934188996,637.0558138519928,-219.454009454031,-107.89331853426768
2025-02-19 11:57:23.484,760,21,626,-2,-1,-1,-2,-7,10,742,82,c,-1.9213423757969919,50.50644260114601,1531.6961020720087,42.32318176777919,-9.633894601417751
2025-02-19 11:57:23.581,770,32,625,-1,-1,-1,-1,-6,8,754,86,c,-2.9309845655843816,50.89746194758649,1546.018469024803,64.25011819323856,-4.885120961690518
2025-02-19 11:57:23.689,774,26,626,-1,-1,-1,-1,-8,9,776,89,c,-2.3783299733554837,51.0104247189821,1551.26045071302,52.1095241841583,-2.637005357042085
2025-02-19 11:57:23.791,763,24,626,0,-3,1,-3,-7,9,792,90,c,-2.195568004805615,50.612349587898976,1535.8703659770672,48.31047022732584,-8.098098429415472
2025-02-19 11:57:23.901,672,5,606,1,-19,-6,-1,-9,8,806,99,c,-0.47272672779017544,47.95534075778908,1414.623045385291,10.525469087688176,-63.68685342780691
2025-02-19 11:57:24.008,739,-25,646,-3,8,-15,-2,-9,8,788,0,c,2.2162229827474587,48.82028606086461,1491.648076368455,-50.46170759027249,-11.93052413264104
2025-02-19 11:57:24.119,868,235,545,-2,-18,44,-2,-9,10,630,0,c,-23.32535088097586,55.63711305664597,1693.4792797255927,458.4880538427584,26.697917683815604
2025-02-19 11:57:24.223,935,102,618,-30,78,25,-1,-6,8,830,0,c,-9.372092708579087,56.181682515655645,1765.8065788728381,192.63344496794602,68.86795107656246
2025-02-19 11:57:24.331,677,-30,669,1,-14,-5,-2,-6,6,694,48,c,2.567597329187793,45.31176232222779,1387.9438596720088,-61.504159217371146,-33.54275054737661
2025-02-19 11:57:25.441,749,-5,641,-1,0,-1,-2,-6,8,708,63,d,0.44691589316796115,49.44197130854571,1508.7478201102717,-10.071747797798878,-9.198067677816084
2025-02-19 11:57:25.540,762,1,644,0,-2,-1,-2,-7,8,720,64,d,-0.08896853022227957,49.79733086941291,1525.7659590840249,2.002317531606332,-1.4924903544776953
2025-02-19 11:57:25.651,762,-4,638,0,-3,-1,-3,-8,7,726,66,d,0.3592164815504774,50.06100654156457,1528.7284265072317,-8.0248211365209,-3.958971275083627
2025-02-19 11:57:25.756,760,-4,629,1,-5,-1,-2,-8,7,736,71,d,0.36435616643114144,50.387199850675124,1530.3708200015672,-8.054583263166144,-8.583218132876254
2025-02-19 11:57:25.868,670,-5,641,21,-48,-28,-1,-8,8,790,110,d,0.44691589316796115,46.26633503972422,1392.5610832283633,-10.392246889763904,-50.28605126773243
2025-02-19 11:57:25.973,688,-9,646,2,10,-24,-3,-7,8,648,0,d,0.7981867749175499,46.800544927695114,1416.9751379670536,-18.536011979220177,-38.473748730692705
2025-02-19 11:57:26.080,726,247,583,-10,-16,37,-3,-9,9,347,0,d,-22.960948659801968,48.90739986236188,1479.6482873196303,503.40651097513586,-22.202412544551407
2025-02-19 11:57:26.190,761,-120,664,-7,2,-41,-2,-10,9,818,0,d,10.244087446458629,48.43754195426283,1509.232954785733,-237.98679970340078,11.139708307848878
2025-02-19 11:57:26.297,829,353,542,-9,-12,55,-1,-7,7,434,0,d,-33.07585671212808,52.037279319255774,1617.4111649878537,688.7166963096649,26.536970538701325
2025-02-19 11:57:26.400,764,8,535,-31,63,16,0,-6,8,730,0,d,-0.8566954711697502,54.994905182222574,1583.1010378623555,16.576974218453984,-38.58515085911006
2025-02-19 11:57:26.511,703,-5,652,10,-25,-10,-1,-7,7,644,0,d,0.4393761992400457,47.1546626646089,1436.1920026125522,-10.214736860686715,-28.001686633547592
2025-02-19 11:57:27.531,766,12,627,-1,-2,-1,-3,-5,8,667,75,e,-1.0964360839930283,50.69323324117787,1539.7654006419848,24.12165118499193,-6.3562744158282385
2025-02-19 11:57:27.621,777,33,625,1,-1,-3,-2,-7,9,682,79,e,-3.0224105775750663,51.148686105902875,1555.776468335584,66.07544846212905,-1.4289481463832772
2025-02-19 11:57:27.731,708,-22,633,1,-1,-7,-2,-7,7,707,84,e,1.9905213056476267,48.18394255926537,1453.2891712117564,-45.158703060252314,-33.33904714271421
2025-02-19 11:57:27.838,820,63,592,4,-1,-9,-3,-7,8,688,108,e,-6.074492576918384,54.01930904059906,1629.215035782815,125.17139909063087,7.786218068992298
2025-02-19 11:57:27.945,702,106,648,-3,-26,10,-3,-6,8,780,0,e,-9.290177169137726,46.913381698161956,1432.3218385009911,216.2765169246511,-26.143235539376633
2025-02-19 11:57:28.055,660,-14,641,-18,34,-32,-2,-11,9,727,0,e,1.2511909561902697,45.829868372051855,1377.2739433901488,-29.214901829488007,-55.62514805012938
2025-02-19 11:57:28.161,846,172,592,-3,-27,37,-1,-6,8,477,0,e,-16.200722996472457,53.91917068585966,1654.1869788114197,336.31224628317284,26.4601755834982
2025-02-19 11:57:28.268,807,129,529,-46,94,37,-3,-6,10,681,0,e,-13.704467606652727,55.9915474616758,1635.9550688111785,261.50954631554157,-14.39186047225951
2025-02-19 11:57:28.374,669,-47,645,8,-26,-13,-1,-6,7,425,0,e,4.167675238100056,45.97057318217968,1387.9829325126557,-97.51150646949897,-48.18982282610284
2025-02-19 11:57:29.394,791,16,613,5,-7,-1,-2,-6,10,625,79,f,-1.4951458019679433,52.21600014780563,1581.3261390825714,31.986369437826987,0.5222209132535909
2025-02-19 11:57:29.488,764,6,612,3,-6,0,-1,-6,10,670,89,f,-0.561705332566547,51.302284236137325,1544.4553335431283,12.12923036813975,-13.181497550254562
2025-02-19 11:57:29.591,767,6,608,2,-6,2,-2,-8,7,646,97,f,-0.565400523268791,51.59482076955843,1550.6373057040628,12.130148414894887,-13.188372709348414
2025-02-19 11:57:29.705,770,36,520,-5,21,-38,-2,-6,12,517,0,f,-3.9603118304583846,55.90431301843103,1598.1025351460316,74.7164821626716,-39.23807568303425
2025-02-19 11:57:29.812,766,12,622,13,-16,-42,0,-10,12,849,0,f,-1.105247701276353,50.917823840411344,1542.2425631076294,24.16045790769132,-8.317068215333506
2025-02-19 11:57:29.910,730,1,674,13,29,60,-1,-9,6,836,0,f,-0.0850085125687099,47.28405957866966,1464.7258939850585,2.0064738273767917,-4.363359651957808
2025-02-19 11:57:30.022,971,182,646,-11,-8,-8,-2,-8,8,692,0,f,-15.734319485526724,55.34804851898586,1793.6211524584132,336.188516732679,98.71548456422761
2025-02-19 11:57:30.132,701,37,626,-6,-20,6,0,-7,8,721,0,f,-3.3825564901942475,48.18518838353764,1446.3036684834847,76.33842472737368,-39.563618360430155
2025-02-19 11:57:30.238,819,55,504,-52,77,35,-3,-8,8,609,0,f,-6.227871694710575,58.24091894447091,1669.2688123980624,112.09985919645106,-19.242346091115223
2025-02-19 11:57:30.344,684,-4,667,14,-29,-9,-1,-6,8,604,0,f,0.34359875661519174,45.720415334771914,1399.9415439757054,-8.186792654828686,-31.14767519268355
2025-02-19 11:57:31.360,779,23,615,0,-4,0,-2,-7,10,621,82,g,-2.1417708411020526,51.69036182988638,1563.672101563405,46.167468980691034,-4.477974918477685
2025-02-19 11:57:31.459,737,-6,620,5,-15,-7,-2,-7,9,656,91,g,0.5544579772609138,49.92651093043027,1502.2193569763995,-12.229736963172858,-23.739486194528467
2025-02-19 11:57:31.561,810,55,590,-3,2,-2,-1,-7,10,654,0,g,-5.32574062476772,53.81254783790039,1617.0896360734978,109.80238269634863,2.1198947118965634
2025-02-19 11:57:31.672,754,55,605,0,-1,-9,-2,-8,10,681,2,g,-5.194428907734806,51.14174259112784,1532.7004417042936,111.80175635774023,-19.819319935142516
2025-02-19 11:57:31.781,839,-68,553,14,25,-9,-3,-8,9,354,0,g,7.010220862343718,56.41256250457076,1672.0425556963614,-135.5171558848064,3.926658760324358
2025-02-19 11:57:31.888,796,112,619,3,-17,-6,-2,-6,10,653,0,g,-10.255966247853616,51.681919837942544,1580.5807550103623,222.39327206175952,8.880041015811344
2025-02-19 11:57:31.995,678,-5,609,18,15,30,-2,-8,9,749,0,g,0.47039812959785604,48.067903640308444,1421.9373182457052,-10.486263408891633,-59.22688320300085
2025-02-19 11:57:32.104,748,-18,563,30,47,-10,-2,-4,8,250,0,g,1.8312128708973394,53.018118119946706,1546.8257765706571,-37.22308018485539,-38.25523022631012
2025-02-19 11:57:32.212,532,-106,748,-18,29,22,0,-3,3,607,39,g,8.06574920317903,35.152986512558996,1107.761621996719,-220.7194209241583,-61.52949859689056
2025-02-19 11:57:33.631,733,-11,642,-1,-5,-23,-2,-8,7,764,67,h,0.9816073371872289,48.782249226016596,1485.2108045700052,-22.288293110873205,-16.825834289145178
2025-02-19 11:57:33.724,790,73,626,6,-7,-22,-2,-10,9,809,86,h,-6.651415102508375,51.41802008858824,1571.716650058416,145.23457652438526,6.56376843472367
2025-02-19 11:57:33.830,743,81,641,1,2,-13,-2,-7,8,817,94,h,-7.202011974773234,48.99044943012649,1497.6002119872628,163.26462607128968,-10.007719897490233
2025-02-19 11:57:33.940,800,56,592,-8,1,-6,-2,-11,8,802,107,h,-5.403791360249714,53.376450948355675,1602.572353905128,112.18006477335896,-1.9035418897946101
2025-02-19 11:57:34.052,771,237,622,-14,-12,68,-2,-9,8,640,105,h,-20.8582884834497,49.19519177867697,1527.9402183909888,469.67812160656854,11.34265131103109
2025-02-19 11:57:34.154,837,-4,557,5,-5,-47,-1,-8,10,770,0,h,0.4114527439917306,56.35666826199499,1669.502482760196,-7.978506488698667,2.992971448710705
2025-02-19 11:57:34.264,802,151,553,-2,-5,31,-3,-10,10,572,0,h,-15.272651070782622,54.443971576539994,1615.5472711219657,304.1741121439112,-7.962145798562233
2025-02-19 11:57:34.371,723,-23,645,-47,60,20,-1,-7,7,715,0,h,2.042240000281649,48.245246473880144,1469.0021278335712,-46.73174127271388,-20.52057047393282
2025-02-19 11:57:35.487,797,34,606,5,-11,-6,-2,-6,11,683,96,i,-3.2112480181116068,52.7090194814341,1592.568865478779,67.93894783723773,1.0881650186452134
2025-02-19 11:57:35.582,770,27,607,0,-3,-4,-4,-7,10,695,102,i,-2.5468978351635867,51.72334090642373,1555.028788304121,54.526983485988666,-11.847369481300689
2025-02-19 11:57:35.687,794,15,572,-8,2,-6,-3,-8,9,663,0,i,-1.5021674235856333,54.221567139653764,1605.283949886707,30.326522982746354,-12.451409742060946
2025-02-19 11:57:35.796,787,30,605,-1,-1,0,-2,-6,9,670,0,i,-2.8387878410053813,52.41500381575784,1579.4493924527549,60.20772779362471,-4.189177171431652
2025-02-19 11:57:35.904,773,101,628,-14,-13,33,-1,-10,10,297,0,i,-9.136529092448972,50.5504382119891,1545.1842321722775,201.89341196558863,0.662745402082578
2025-02-19 11:57:36.013,996,37,640,-29,79,-41,-3,-8,7,748,0,i,-3.308729293882041,57.232916767632574,1836.8776793642105,68.237423831803,99.67699317962388
2025-02-19 11:57:36.120,814,159,485,-16,-3,7,-3,-9,11,750,0,i,-18.150957198126957,57.91128330345602,1661.2265537001867,324.49019906428714,-19.797148089177654
2025-02-19 11:57:36.221,628,-8,641,-27,58,26,-2,-7,5,770,0,i,0.715042807358066,44.41083563648171,1327.7984473113547,-16.914629902055474,-73.28472090219498
2025-02-19 11:57:36.333,798,11,642,24,-36,-10,-1,-8,7,779,0,i,-0.9816073371872289,51.178823146934505,1577.106315294667,21.73956073714453,15.200182432110068
2025-02-19 11:57:36.435,731,0,642,-2,0,5,-3,-5,9,783,0,i,0.0,48.70881293272537,1482.3656425698614,0.0,-17.88610469199864
2025-02-19 11:57:38.951,775,5,614,2,-5,1,-2,-6,9,773,0,j,-0.4665676959696719,51.610766140046266,1558.8101600097136,10.05683974199815,-6.979920317372944
2025-02-19 11:57:39.053,788,15,605,2,-4,-1,-2,-7,10,779,0,j,-1.4202655463990455,52.47564949031398,1581.0945471320579,30.096977420026477,-3.911422607734721
2025-02-19 11:57:39.158,789,27,598,3,-6,1,-2,-7,8,798,0,j,-2.585177456158372,52.812643472660945,1585.663315653274,54.26224274098656,-5.808191078146706
2025-02-19 11:57:39.266,787,21,599,0,-2,-1,-2,-7,10,808,0,j,-2.007877762721395,52.70761752446788,1582.5540405170802,42.22825266945195,-6.510635666748385
2025-02-19 11:57:39.370,799,33,596,0,-3,-3,-2,-7,9,795,0,j,-3.169181336507043,53.237512272388756,1600.1233876399392,66.08769936435293,-1.583903671343819
2025-02-19 11:57:39.478,775,39,593,0,-1,-6,-2,-7,9,802,0,j,-3.7627690235009554,52.51849358999355,1568.5497913441693,78.93347337086786,-14.193582280119017
2025-02-19 11:57:39.586,805,-17,558,-3,-3,-7,-1,-9,10,816,0,j,1.7450305797602084,55.25910513287849,1626.7375083445543,-34.35346290913965,-11.601900194113341
2025-02-19 11:57:39.699,778,198,581,-3,-18,60,-1,-6,11,214,0,j,-18.81868607004122,51.72792811428,1563.078380863105,397.80143883148435,-5.286040207537326
2025-02-19 11:57:39.806,1126,94,610,-22,47,-56,-2,-6,9,742,0,j,-8.760278000016127,61.27130581773736,2002.9055539692495,167.2052593899728,134.94459332038912
2025-02-19 11:57:39.912,337,-33,682,16,-59,-35,0,-10,8,801,0,j,2.770215797200193,26.26898607193928,779.5858621732998,-76.3392684027267,-213.67821365635166
2025-02-19 11:57:40.020,955,97,658,6,-20,32,-2,-10,10,837,0,j,-8.385939771378602,55.14465630755021,1775.5975569864431,180.3486523850104,92.60398691405305
2025-02-19 11:57:40.126,473,-96,730,1,-7,7,-2,-7,7,751,0,j,7.491796989168756,32.717258885992365,1013.4937795325935,-205.69852607849674,-104.16587538856902
2025-02-19 11:57:40.231,898,110,560,9,-13,2,1,-9,10,741,0,j,-11.1130405359483,57.56302700086268,1741.981980395693,213.3830933669557,33.68607013186181
2025-02-19 11:57:41.241,773,29,618,0,0,-6,-3,-8,8,707,0,k,-2.6866660386266057,51.327537019288535,1553.7308160983487,58.290030616885005,-6.1806524563768335
2025-02-19 11:57:41.346,775,41,612,-1,1,-3,-3,-7,8,750,0,k,-3.8327156902142834,51.640234048586855,1559.1294443614934,82.48297705654352,-7.209316063527808
2025-02-19 11:57:41.452,788,51,616,2,1,-6,-3,-10,8,774,0,k,-4.732849927191544,51.889344930681894,1574.8202606353236,101.9236463101542,0.9222328028432685
2025-02-19 11:57:41.559,766,54,623,6,2,-8,-3,-9,9,778,0,k,-4.953866023380243,50.77298887594496,1540.6464430983715,108.609540375081,-7.032289882879127
2025-02-19 11:57:41.669,811,55,568,-11,-3,-21,-2,-7,10,748,0,k,-5.530763905634265,54.86803080105097,1628.8287556807181,110.46310920152837,-4.782655026692851
2025-02-19 11:57:41.771,829,420,504,0,-10,24,0,-9,7,325,0,k,-39.80557109226519,51.642317319449155,1613.1520087212884,817.278460389555,27.26584753253394
2025-02-19 11:57:41.882,680,-28,677,4,-10,-10,-1,-9,9,803,0,k,2.3683427224167364,45.10218609321005,1388.3667694029086,-57.16804344600213,-28.241621890837223
2025-02-19 11:57:41.988,702,98,456,-9,28,-6,0,-9,9,632,0,k,-12.129076198102792,56.39976499780401,1534.9189709333054,214.27643753769792,-85.04138282847191
2025-02-19 11:57:42.096,708,99,610,-16,-32,35,0,-9,8,637,0,k,-9.218446992274886,48.883753281196306,1461.37695751517,204.34508304237545,-39.09596622069728
2025-02-19 11:57:42.205,870,-9,408,-33,78,15,-2,-8,8,710,0,k,1.2636725516582683,64.8696843176024,1775.3442247532644,-18.36562991124066,-16.575222642909807
2025-02-19 11:57:43.221,750,23,634,0,-3,-2,-2,-9,8,708,0,l,-2.077642398011436,49.77247236192902,1513.485831689698,46.413565505150736,-11.40002305502469
2025-02-19 11:57:43.311,755,37,624,2,-3,-3,-2,-8,10,734,0,l,-3.3933727232229036,50.37722474964186,1525.259803892337,74.74783144902844,-12.612076329560523
2025-02-19 11:57:43.422,775,44,623,0,-1,-2,-1,-7,8,746,0,l,-4.039863828646794,51.13558513348624,1553.6330122813645,88.20626134242586,-2.920473098438947
2025-02-19 11:57:43.533,764,65,620,0,-1,-6,-4,-7,10,756,0,l,-5.984952315115409,50.786727765112,1538.7980619932414,130.91868328476528,-8.762825177761329
2025-02-19 11:57:43.644,808,176,481,-9,-1,-9,-3,-10,10,765,0,l,-20.09779350036485,57.62952919583117,1652.6039686759236,359.9731416917854,-21.790233828118062
2025-02-19 11:57:43.746,729,218,613,-6,-18,90,0,-10,7,386,0,l,-19.576813648093328,48.2520851237432,1475.081607516116,441.10808016256976,-14.363546512179937
2025-02-19 11:57:43.852,802,82,541,17,0,-29,-3,-6,11,744,0,l,-8.618785444168264,55.695523498392575,1628.054263857805,166.4594135116459,-16.226130607322375
2025-02-19 11:57:43.953,705,39,652,-5,-8,-3,-2,-6,8,761,0,l,-3.423122838129083,47.18564315683467,1438.5595910201528,79.57989226919995,-26.41255793636833
2025-02-19 11:57:44.067,785,31,622,-6,3,-1,-2,-8,7,752,0,l,-2.853216583818125,51.57361982222099,1568.4073848123626,61.93710691615699,1.2619192951724472
2025-02-19 11:57:44.171,754,16,608,-4,0,-1,-2,-6,10,710,0,l,-1.507435758774968,51.108783010759915,1532.3394013812242,32.516485970954356,-19.62646689626547
2025-02-19 11:57:45.491,776,61,623,3,-2,-1,-3,-7,10,736,0,m,-5.592194778977568,51.10777443784057,1554.328349378443,122.18302746402709,-1.8692804932601348
2025-02-19 11:57:45.586,770,50,626,0,-1,-6,-2,-7,7,744,0,m,-4.566645605398624,50.80013609368111,1544.9459899503418,100.32116817859364,-4.0210255959923416
2025-02-19 11:57:45.691,771,70,614,-6,4,-9,-2,-9,7,685,0,m,-6.504010540431717,51.28688220294927,1551.287238361384,140.84319933242136,-7.396062715810331
2025-02-19 11:57:45.803,796,147,561,5,-3,8,-1,-7,9,346,0,m,-14.683219752396035,53.92413914952961,1604.2380451071244,296.26004099340105,-8.625054403387708
2025-02-19 11:57:45.911,701,-32,692,-9,-8,-17,-2,-9,8,697,0,m,2.6476296652922233,45.3395805766161,1412.2852172969506,-64.46951063267107,-10.15316743151186
2025-02-19 11:57:46.018,814,126,558,1,-5,16,-4,-9,9,421,0,m,-12.724355685422369,54.901876787115285,1632.1685519239836,252.64525496612032,-2.85755770710432
2025-02-19 11:57:46.126,708,-95,687,-2,-18,-12,-1,-9,10,714,0,m,7.873067547198123,45.59122343406981,1422.3654968397327,-190.8541274008116,-6.176689730079488
2025-02-19 11:57:46.231,932,69,575,11,-9,22,-3,-8,10,592,0,m,-6.84277341263094,58.144051265881124,1781.377721002817,131.8831145377622,50.97404551864827
2025-02-19 11:57:46.341,488,-165,742,-23,31,7,-3,-4,7,673,0,m,12.536983476720604,32.700472484568955,1028.2472599033854,-347.66556943454634,-79.44153042686901
2025-02-19 11:57:47.350,752,56,624,1,4,-2,0,-8,7,707,70,n,-5.128191041852839,50.20157397875656,1520.3011078286522,113.2139122851124,-13.526451176966816
2025-02-19 11:57:47.453,773,42,628,5,-9,-6,-1,-7,7,759,82,n,-3.8261855463300494,50.84634715339279,1548.4554902035998,84.13341602658627,-1.9948872546708571
2025-02-19 11:57:47.551,758,57,635,0,-2,-1,-3,-6,7,783,89,n,-5.129338586956995,49.93283816305609,1523.290444461214,114.54822603468233,-6.107430386373153
2025-02-19 11:57:47.666,765,64,626,-1,-1,-4,-2,-8,8,801,0,n,-5.837433681900877,50.56044456216374,1537.295188812173,128.61031644964584,-5.969657773098334
2025-02-19 11:57:47.776,954,32,635,-15,-6,-12,-1,-9,7,814,0,n,-2.884905923789904,56.31800836366254,1786.12847154443,59.91206613146936,81.11993770365495
2025-02-19 11:57:47.883,784,189,597,-7,-9,29,-2,-6,8,288,0,n,-17.56689737317647,51.384654454186176,1565.3533505308556,377.3619684315456,2.015369557498957
2025-02-19 11:57:47.985,832,-24,605,4,-18,-52,-1,-9,8,723,0,n,2.2716992969019945,53.95529229376299,1640.5581012533953,-47.32379138230948,17.046092237615312
2025-02-19 11:57:48.096,829,266,503,-5,-5,33,0,-9,8,184,0,n,-27.87109662458521,55.53533362153605,1653.4753278384055,530.5481751568345,2.7453680304971613
2025-02-19 11:57:48.207,664,-12,629,-32,49,21,-3,-6,9,651,0,n,1.0929506477450204,46.54534632875019,1389.918937006583,-25.119016933853914,-58.65513761617592
2025-02-19 11:57:49.121,783,43,597,-2,0,-3,-1,-9,8,579,0,o,-4.119717347019218,52.60471669337595,1577.4646181336825,86.6296022729864,-8.741222255183175
2025-02-19 11:57:49.215,786,52,600,-3,0,0,-2,-9,8,636,0,o,-4.953257477842062,52.539933023016005,1579.7774315970437,104.5145374593464,-5.9369706847662655
2025-02-19 11:57:49.326,800,52,600,0,-1,-2,-2,-6,10,679,0,o,-4.953257477842062,53.02714942686378,1598.9205885538136,103.92983825599788,0.8095585846399445
2025-02-19 11:57:49.427,782,47,602,0,0,1,-2,-8,9,699,0,o,-4.464202851629335,52.325986875976106,1573.5008136686947,94.57102077036913,-7.313925611961849
2025-02-19 11:57:49.542,760,57,601,6,-15,-3,-3,-10,10,731,0,o,-5.417836633844515,51.5385460429634,1543.026779777237,115.72700848329276,-18.20933506068343
2025-02-19 11:57:49.648,720,4,606,0,16,-23,-3,-7,11,669,0,o,-0.3781844715095931,49.91318385659296,1485.0695946129183,8.250386636738435,-37.93357546587288
2025-02-19 11:57:49.754,839,274,541,-23,-23,45,-2,-8,8,235,0,o,-26.86082322278172,54.14057375678244,1649.45667433642,538.6783417975912,18.405171852201192
2025-02-19 11:57:49.861,765,9,502,8,15,-32,-2,-8,9,717,0,o,-1.027105134752006,56.72252487171552,1601.0231358577548,18.83556630420888,-46.60603163476196
2025-02-19 11:57:49.968,636,39,661,-46,59,43,-3,-5,6,603,0,o,-3.376623093176565,43.846007283444145,1328.7225086701421,81.47826704109363,-58.95216702981759
2025-02-19 11:57:50.079,749,-5,649,20,-43,-18,-1,-7,6,634,0,o,0.44140713385150776,49.090600384162926,1504.746045986958,-10.045033684826151,-5.845372290434625
2025-02-19 11:57:50.991,752,41,620,0,-2,-2,-1,-7,8,598,0,p,-3.783405861995645,50.43413849827406,1522.892901806117,83.03006512506755,-15.576594574192086
2025-02-19 11:57:51.090,770,50,610,2,-2,-3,-3,-6,10,668,0,p,-4.685899839502703,51.52005401435119,1552.8259943740372,100.8328567775349,-10.160852685925533
2025-02-19 11:57:51.197,781,40,608,2,-2,-4,-1,-7,10,678,0,p,-3.7640348649057183,52.03964082979661,1569.4365183666355,80.3808716192899,-5.789248613206382
2025-02-19 11:57:51.303,775,44,616,5,-5,-4,-2,-9,8,696,0,p,-4.085616779974877,51.44992789862073,1557.0638281875304,88.40104314871138,-5.614604081959442
2025-02-19 11:57:51.402,799,75,572,-4,1,-3,-2,-8,10,679,0,p,-7.469944847180173,54.169866993196756,1609.7560657895804,151.1035105559681,-8.416107173516934
2025-02-19 11:57:51.520,765,178,600,-24,-16,65,-1,-6,10,0,0,p,-16.523867433945046,50.713395631336,1538.9882716758552,358.09138870366314,-7.049624843808147
2025-02-19 11:57:51.626,779,-59,526,19,32,-84,-1,-7,8,721,0,p,6.399961992862987,55.80549760662391,1606.1345031185215,-121.6456170526223,-32.50160287592087
2025-02-19 11:57:51.733,691,191,676,-7,-15,12,-1,-8,8,424,0,p,-15.77734071358071,44.528600856813334,1392.2652166906043,384.837418795811,-10.042382753760421
2025-02-19 11:57:51.839,1111,39,497,1,28,6,0,-8,10,312,0,p,-4.4868526385484175,65.83327607205935,2023.3580362067946,71.02696976783525,88.86143654835581
2025-02-19 11:57:51.947,526,-32,741,-17,13,7,-2,-5,7,304,0,p,2.472775241801371,35.34390612756153,1104.4828661860738,-67.19287398850639,-73.9349882963511
2025-02-19 11:57:52.053,825,44,621,7,-20,-8,-1,-5,8,404,0,p,-4.052831375271473,52.96127242634365,1623.2285466207695,86.5721891531077,20.15160308909344
2025-02-19 11:57:53.071,750,33,640,0,-2,-1,-1,-6,7,460,0,q,-2.95169959706978,49.487205548679476,1510.2609214500567,66.45148054380249,-8.755986304048179
2025-02-19 11:57:53.168,717,28,643,3,-12,-5,-2,-6,6,442,0,q,-2.4934198167434425,48.08751612018371,1461.1660179977262,57.06087657452767,-24.3622727650461
2025-02-19 11:57:53.271,797,63,607,0,-2,-1,-1,-6,7,503,0,q,-5.925462981129238,52.558823619183805,1590.9779166267424,125.76111511604113,2.301636897825915
2025-02-19 11:57:53.383,748,57,617,5,-14,-6,-1,-9,9,630,0,q,-5.278145650486585,50.362371342549125,1518.0944522810285,115.68366815510511,-18.22496932806746
2025-02-19 11:57:53.491,751,33,612,-3,5,-18,-1,-10,8,433,0,q,-3.086489263781074,50.78220902713912,1525.7481992637295,67.04352939507733,-19.35272696325228
2025-02-19 11:57:53.600,837,194,552,-6,-13,33,-1,-8,10,27,0,q,-19.36398814234407,55.044828976470065,1656.6005673106497,383.967156580963,11.474894676847612
2025-02-19 11:57:53.700,785,-118,599,12,-5,-32,-1,-8,9,640,0,q,11.14428500247835,52.126993546228654,1574.3734031394154,-236.6574032744599,-3.3371573000125636
2025-02-19 11:57:53.800,932,70,601,-6,-22,11,-3,-6,9,0,0,q,-6.643451846234012,57.00800323217729,1770.7466364428305,132.99599200750873,60.134411478389325
2025-02-19 11:57:53.919,761,65,557,-37,70,35,-1,-5,10,401,0,q,-6.656116434331214,53.613551347182906,1566.0341276815666,133.761127857164,-32.22997256062092
2025-02-19 11:57:54.027,764,-10,625,-3,-12,-16,-1,-5,7,115,0,q,0.9166542563852879,50.71108343381699,1537.962717971258,-20.130402067686624,-8.150129230413881
2025-02-19 11:57:54.941,760,41,601,-3,7,-4,-3,-6,8,226,0,r,-3.902650394600282,51.59868959153618,1543.679250885869,83.27743327147451,-18.725302345272667
2025-02-19 11:57:55.032,768,62,626,10,0,-10,-2,-6,8,469,0,r,-5.6562156345159735,50.67936275196425,1541.6120233908568,124.45305397165771,-4.574383649318179
2025-02-19 11:57:55.145,789,86,619,0,0,-3,-2,-8,8,645,0,r,-7.909685190388063,51.61820582376143,1572.8907884402402,171.4431024155395,4.008367497454174
2025-02-19 11:57:55.256,775,75,616,-1,-4,-1,-2,-6,8,686,0,r,-6.941780421085178,51.31545399409619,1555.5990213226592,150.54184077316052,-4.450318883558452
2025-02-19 11:57:55.362,785,66,611,1,-5,-2,-2,-8,9,712,0,r,-6.165164751855542,51.94361222734408,1572.4044674371507,132.2021590456713,-1.871502680381127
2025-02-19 11:57:55.469,780,79,612,-2,0,-1,-2,-9,8,709,0,r,-7.355349900096722,51.65158471352013,1564.252373318292,158.4306890924937,-3.336477526660019
2025-02-19 11:57:55.575,782,75,608,-1,1,0,-1,-7,8,689,0,r,-7.032210956060177,51.92532513273843,1569.2076792257358,150.49945772625347,-4.048937300827902
2025-02-19 11:57:55.682,783,77,610,-2,0,-1,-2,-6,10,671,0,r,-7.194367672119784,51.85968289340207,1569.5006398497662,154.34425193924906,-2.7271906875574814
2025-02-19 11:57:55.787,786,69,612,-2,0,-1,-2,-8,7,660,0,r,-6.432653924138303,51.919203869876235,1573.1417901378177,138.10023348538095,-0.8890274355527481
2025-02-19 11:57:55.899,776,74,608,-1,-2,-1,-3,-7,11,640,0,r,-6.939368462298645,51.71642568812699,1560.9540179844796,148.85386253975707,-7.015519245571795
2025-02-19 11:57:56.005,773,74,604,-2,0,-2,-2,-8,10,648,0,r,-6.984872039281754,51.7896924246352,1558.7456280912047,149.22015068402214,-9.959067745262018
2025-02-19 11:57:56.111,777,75,607,-1,-1,-1,0,-9,8,645,0,r,-7.04367986803086,51.791931979609174,1562.7698051216194,150.8465062858706,-6.851057540312468
2025-02-19 11:57:56.218,780,71,609,-1,0,-1,-1,-7,10,629,0,r,-6.649784083235223,51.83061982992176,1566.1872688045262,142.56320010912992,-4.830829105072212
2025-02-19 11:57:56.325,778,69,610,0,-1,0,-2,-7,10,632,0,r,-6.453566948653354,51.72437894964599,1563.0400110875846,138.62437116329477,-5.519803037823408
2025-02-19 11:57:56.431,786,69,612,-1,-1,-1,-2,-9,6,644,0,r,-6.432653924138303,51.919203869876235,1573.1417901378177,138.10023348538095,-0.8890274355527481
2025-02-19 11:57:56.537,780,72,610,-1,-1,0,-3,-6,9,652,0,r,-6.731634706462955,51.780271479829544,1565.6439114940936,144.52097644560865,-4.413828219740026
2025-02-19 11:57:56.644,786,72,606,-1,-1,0,-3,-7,9,661,0,r,-6.775656169399013,52.17369700086334,1575.8735594686327,144.35482987498926,-2.986484781159561
2025-02-19 11:57:56.751,803,73,589,-3,4,3,-3,-8,9,693,0,r,-7.065146172663903,53.53146746187918,1607.1834224748156,146.10758386134688,-0.8680396484015773
2025-02-19 11:57:56.861,755,40,629,-9,5,5,-2,-7,10,746,0,r,-3.6387109907582245,50.14502403507888,1522.6689773426556,80.67120409762413,-10.554684435139393
2025-02-19 11:57:56.967,791,60,618,0,-5,1,-1,-7,7,757,0,r,-5.545317308862041,51.86939545911478,1577.6053199988587,119.66664879890207,3.433517371308767
2025-02-19 11:57:57.074,796,80,611,2,-13,-6,1,-8,9,736,0,r,-7.45946858997369,52.25513008033401,1586.7443865460577,159.47179764281987,4.034145502963497
2025-02-19 11:57:57.182,809,53,641,-7,2,-19,-1,-8,10,745,0,r,-4.7266528130287275,51.5138956193275,1591.7591087672063,104.2808810440815,20.79160850459948
2025-02-19 11:57:57.292,736,97,627,-11,-13,50,-1,-7,9,307,0,r,-8.794223420436985,49.237463684356086,1493.42214242814,196.82329866240434,-18.249569704407236
2025-02-19 11:57:57.398,826,-64,582,10,0,-64,-2,-10,7,665,0,r,6.275353094395495,54.669160860322485,1641.8264431716773,-127.21173409562633,7.168293067898048
2025-02-19 11:57:57.508,822,130,617,-4,-17,24,-3,-8,10,764,0,r,-11.89801780096154,52.50860843022294,1615.444794971775,255.48397000770166,21.433773117292844
2025-02-19 11:57:57.610,627,-25,655,-7,22,19,-2,-7,6,541,0,r,2.185800806775599,43.7279774434473,1318.23535247352,-52.56121820069856,-67.10391685830223
2025-02-19 11:57:57.715,820,34,615,4,-8,-5,0,-6,7,315,0,r,-3.16435035272113,53.08812923371095,1619.560243886839,67.15249791725918,15.329817084870683
2025-02-19 11:57:58.733,771,24,620,0,-1,-2,-3,-6,10,405,0,s,-2.2167943407401904,51.17453332235109,1550.0593767406504,48.25087554056499,-6.480951464595705
2025-02-19 11:57:58.832,780,34,612,0,-2,-1,-1,-7,9,440,0,s,-3.179830119864234,51.83884163666663,1566.27594055113,68.27356663940822,-4.924199509348227
2025-02-19 11:57:58.938,781,27,607,1,-3,-1,-3,-7,8,462,0,s,-2.5468978351635867,52.11789753134439,1570.275931123974,54.28610773411947,-6.432125726315235
2025-02-19 11:57:59.049,794,46,598,5,-9,-3,-2,-8,10,518,0,s,-4.398705354995532,52.93356470623249,1591.9371600159848,92.22809743165655,-2.9652666115352986
2025-02-19 11:57:59.155,708,57,610,8,-26,-17,-1,-6,11,686,0,s,-5.338366576223783,49.12921041261404,1464.1871694955994,117.87947551023892,-41.5171940569428
2025-02-19 11:57:59.261,813,36,556,6,10,-10,-2,-7,9,537,0,s,-3.704627442077118,55.57642304871749,1637.8809470886706,72.52609359802233,-8.125223347233714
2025-02-19 11:57:59.371,792,188,650,-3,-18,16,-1,-6,8,240,0,s,-16.131496032550324,49.49122501875285,1552.3064922107283,368.4767936055768,26.011085938165138
2025-02-19 11:57:59.478,1164,143,568,-21,71,27,-1,-6,8,529,0,s,-14.131143222988179,63.28847760385846,2057.2810105275203,252.7415674445321,132.10342441612426
2025-02-19 11:57:59.585,518,-94,741,16,-30,-8,-2,-3,4,572,0,s,7.229674747054859,34.741215307065474,1087.8707794969623,-197.41284415581947,-74.20125020704484
2025-02-19 11:58:00.600,780,24,625,-2,-3,-3,-3,-7,8,613,0,t,-2.199077467441056,51.27482938147448,1560.1556565817812,48.00478943328558,-0.12472482514522198
2025-02-19 11:58:00.699,794,31,616,13,-11,-10,-1,-8,8,685,0,t,-2.880961060460356,52.15992397809999,1583.7261160532803,61.83313551341521,3.3157588302009344
2025-02-19 11:58:00.805,773,35,606,-2,-1,-4,-3,-6,8,723,0,t,-3.3054900397724265,51.858691369025635,1559.489952120949,70.61079990198347,-10.575564017199554
2025-02-19 11:58:00.912,802,55,597,0,-5,-7,-2,-8,10,750,0,t,-5.263647574770589,53.220366458883284,1602.9442503421149,109.92759821548168,0.7858884610443511
2025-02-19 11:58:01.018,791,61,599,-1,0,-4,-1,-7,8,755,0,t,-5.81474995131232,52.72212293625663,1586.70740462797,122.36302361859188,-3.5647729104349537
2025-02-19 11:58:01.125,791,60,603,-1,0,-1,-3,-7,10,758,0,t,-5.6823686178550545,52.54461124754517,1584.827089418426,120.21444420367331,-2.15516424691657
2025-02-19 11:58:01.231,777,54,600,-1,0,0,-3,-7,10,758,0,t,-5.142764557884242,52.21279558937859,1567.2918702389188,108.92375932162369,-10.263992462485362
2025-02-19 11:58:01.331,787,62,601,-2,0,-2,-2,-9,7,759,0,t,-5.889877764927382,52.48610911338793,1580.205727816578,124.48888834133143,-4.7390627925835815
2025-02-19 11:58:01.445,778,56,600,-2,0,0,-3,-7,10,759,0,t,-5.332158881659557,52.24006984764292,1568.5834561329298,112.90575005584071,-9.704464884007507
2025-02-19 11:58:01.551,786,53,601,-2,0,0,-3,-8,11,757,0,t,-5.039668775213353,52.49021026797505,1579.249313872514,106.48882141888451,-5.543050429237496
2025-02-19 11:58:01.661,790,62,598,-1,-1,0,-1,-9,10,752,0,t,-5.919216371305521,52.72815534400847,1585.7711695920648,124.45292723380763,-4.368556222854181
2025-02-19 11:58:01.768,793,61,599,-2,0,0,-3,-6,11,743,0,t,-5.81474995131232,52.79183031140602,1589.443701369908,122.26490010537756,-2.6012321823141065
2025-02-19 11:58:01.874,791,61,600,-1,-1,-1,-2,-9,8,719,0,t,-5.805124943346873,52.676524175565255,1586.2251222017617,122.32583116853027,-3.204896739642095
2025-02-19 11:58:01.981,788,60,599,-2,0,0,-3,-9,9,707,0,t,-5.72006351419242,52.62175606372559,1582.6451929423015,120.50597915804323,-5.051358594465
2025-02-19 11:58:02.088,801,55,603,-1,0,0,0,-7,10,700,0,t,-5.211562812580846,52.913127495532294,1598.722113708955,109.77492665916671,2.467622264045076
2025-02-19 11:58:02.194,785,58,601,-1,-1,0,-2,-9,9,698,0,t,-5.512305964428602,52.433882900122825,1577.6503252232026,116.56524695916653,-5.857127973432512
2025-02-19 11:58:02.304,785,61,600,-1,0,-2,-2,-8,8,706,0,t,-5.805124943346873,52.465966254324776,1577.9915955020886,122.62100296258268,-6.108225861469009
2025-02-19 11:58:02.411,796,62,601,0,-1,-1,-3,-7,9,708,0,t,-5.889877764927382,52.800335452236354,1592.5334577847984,124.0415507319818,-0.40277403098468767
2025-02-19 11:58:02.521,799,61,598,-1,-1,-1,-1,-10,10,708,0,t,-5.824406818980866,53.045148427831215,1598.1094854997841,122.00835871775573,-0.08194283963814541
2025-02-19 11:58:02.624,797,61,595,-1,-1,-1,0,-9,8,715,0,t,-5.8535701644097955,53.113141747888676,1596.8223538983325,122.2160145392701,-2.107027063372243
2025-02-19 11:58:02.731,791,57,600,0,-1,0,-4,-7,10,727,0,t,-5.42681249857282,52.69445906626384,1586.4148734893743,114.31813879759082,-3.3488294483242953
2025-02-19 11:58:02.830,784,61,592,1,-1,1,-2,-7,8,754,0,t,-5.88302599447869,52.79786489032164,1580.5073872702737,122.97315130546772,-9.444353653063786
2025-02-19 11:58:02.943,765,50,605,-2,2,1,-2,-10,7,766,0,t,-4.724451697170886,51.56638669180963,1548.328918125181,101.19796850491377,-14.495418909456816
2025-02-19 11:58:03.054,781,63,604,-2,-1,-3,-3,-7,12,778,0,t,-5.954683135067751,52.13268441890387,1570.4343758632963,126.68036578666795,-6.52287198646718
2025-02-19 11:58:03.161,778,70,599,-2,-2,-5,0,-7,7,789,0,t,-6.665434391371832,52.21850597258862,1568.3529340997275,141.11144651282893,-9.51080658835042
2025-02-19 11:58:03.267,794,59,602,-3,-1,-6,-2,-8,9,816,0,t,-5.597490906688871,52.6991608451039,1589.4646054538514,118.10883088385042,-1.110443933524607
2025-02-19 11:58:03.374,798,57,599,-8,-2,-8,-3,-8,9,790,0,t,-5.435818064299879,52.98306991021878,1596.457647385514,114.0326890989653,-0.34352228561772336
2025-02-19 11:58:03.481,862,357,462,16,-7,26,-1,-7,7,362,0,t,-37.69424046668917,55.888946769690776,1689.9521633960403,699.8989818241141,18.24837646291104
2025-02-19 11:58:03.591,807,-30,631,2,26,-17,-1,-6,10,819,0,t,2.7219968775441843,51.94646202644629,1594.4351270243374,-59.27268130201997,15.297936614180003
2025-02-19 11:58:03.698,771,53,668,-6,2,-22,-2,-8,9,540,0,t,-4.536419564991768,49.00511482731857,1525.7681439837784,104.88419148007813,14.063397949203932
2025-02-19 11:58:03.804,821,137,610,22,-4,17,-3,-9,9,820,0,t,-12.65803114265805,52.71056580185456,1616.585216456083,269.7590434281161,18.883091305468383
2025-02-19 11:58:03.914,508,-86,708,-13,22,17,-1,-7,6,503,0,t,6.925727484713014,35.46145877279866,1088.1551922178674,-184.2152490762531,-100.56274820915348
2025-02-19 11:58:05.131,790,43,614,-1,-2,1,-2,-8,9,646,0,u,-4.006030148193642,52.07717309103884,1578.8392880941665,85.9368220101888,0.9021229242806612
2025-02-19 11:58:05.224,778,35,617,-1,-1,0,0,-8,11,721,0,u,-3.2466863083229613,51.53868692455965,1561.0283091486194,70.22620928046489,-3.987746458480956
2025-02-19 11:58:05.332,770,34,608,2,-2,0,-2,-6,8,738,0,u,-3.2007067010183667,51.66149997625079,1554.3597315240472,68.63406606729559,-11.338593203403548
2025-02-19 11:58:05.441,771,37,608,-1,-2,-1,-1,-6,10,744,0,u,-3.482455045573152,51.68967295678001,1555.6646482519325,74.65576132985927,-10.77575374471462
2025-02-19 11:58:05.544,820,85,613,3,-5,-8,-3,-9,10,731,0,u,-7.89442634529844,52.9576513965925,1618.1904768772365,167.73925674946963,16.303948383236616
2025-02-19 11:58:05.651,792,-4,547,0,4,-25,-3,-8,6,636,0,u,0.4189744662627144,55.368130925403,1614.8203950117572,-8.15565856066544,-21.286308170998723
2025-02-19 11:58:05.762,829,39,567,1,-22,-8,-2,-5,10,483,0,u,-3.934782056369445,55.56653265133274,1653.783351594515,77.80162932712435,2.8840043979613483
2025-02-19 11:58:05.868,801,55,581,8,2,-31,-1,-8,10,737,0,u,-5.407753815314726,53.923439419151286,1609.230853585977,110.496500558338,-5.244851352624892
2025-02-19 11:58:05.979,1012,130,576,-12,65,13,-3,-6,10,775,0,u,-12.718249346373435,59.73703259390119,1875.7214669741952,240.9523623583452,84.39568678148595
2025-02-19 11:58:06.085,621,-55,683,4,-11,-10,-1,-5,7,685,0,u,4.603927775377927,42.185710762484575,1292.535816034297,-114.47579691125016,-55.58125982516117
2025-02-19 11:58:07.001,781,41,608,-1,-1,-2,-2,-7,9,696,0,v,-3.8578550306155357,52.03660989178375,1569.403977713714,82.3886851296572,-5.76391606906293
2025-02-19 11:58:07.093,764,31,611,3,1,-2,-3,-6,9,719,0,v,-2.9044966409229804,51.31340906396353,1544.5767129512515,62.6726153160848,-13.257030907348963
2025-02-19 11:58:07.199,779,31,610,0,0,0,-2,-7,9,750,0,v,-2.909249937702315,51.90122188138787,1565.9481805989367,62.31629473500261,-6.223864140373735
2025-02-19 11:58:07.310,762,41,615,6,-3,-2,-3,-8,7,766,0,v,-3.8140748342903548,51.03136112774851,1539.4903066468955,82.8334679429432,-12.502019144147994
2025-02-19 11:58:07.420,829,114,557,4,10,-14,-2,-5,10,791,0,v,-11.566862498523722,55.5568152915286,1653.687439648217,227.40695792508654,2.897582769533301
2025-02-19 11:58:07.527,780,63,602,-2,3,-17,-2,-8,10,747,0,v,-5.974323286480623,52.18819168273029,1570.0286791199678,126.81000869815124,-7.740083115667289
2025-02-19 11:58:07.631,806,178,613,-16,-5,22,-2,-7,9,334,0,v,-16.191986930624033,51.62215425505976,1589.933574651478,351.12676958804354,16.782529452411836
2025-02-19 11:58:07.738,810,71,572,3,0,-15,-2,-5,12,707,0,v,-7.075697850634141,54.56464461977442,1624.7701848073762,142.4181273102762,-3.368574950394077
2025-02-19 11:58:07.850,731,35,592,-27,62,34,-1,-8,10,598,0,v,-3.383480896471016,50.94883630753128,1507.58368437433,72.18252934760812,-36.915924965257545
2025-02-19 11:58:07.956,826,37,624,18,-24,-11,-2,-6,8,589,0,v,-3.3933727232229036,52.88248162718218,1623.3994587230573,72.71886195248561,21.606220044566953
2025-02-19 11:58:08.871,785,43,600,0,-1,-1,-1,-6,10,635,0,w,-4.099189154353983,52.537359482728505,1578.7501120533302,86.47930550101044,-6.687983735029434
2025-02-19 11:58:08.968,785,37,598,-1,0,-1,-2,-6,9,705,0,w,-3.540543158718042,52.64767104388398,1579.9196923354905,74.46755237759636,-7.556657346016891
2025-02-19 11:58:09.075,781,32,609,-1,1,0,-2,-9,8,757,0,w,-3.007849489930886,52.01567113274571,1569.179115462689,64.29415069757496,-5.598055463223659
2025-02-19 11:58:09.181,780,25,617,2,2,-1,-1,-5,9,788,0,w,-2.320277757534292,51.632231253040004,1564.0427547027023,50.12957547124046,-3.1979226302145207
2025-02-19 11:58:09.292,738,16,615,10,-10,-14,-2,-7,10,786,0,w,-1.4902857354869494,50.184895677188514,1506.1147510751425,32.652894332252416,-25.09562589595214
2025-02-19 11:58:09.398,782,-2,616,-7,2,-15,-3,-9,8,610,0,w,0.18602460450752825,51.771507992890804,1567.549274306757,-4.009077427894519,-2.79584779151196
2025-02-19 11:58:09.501,835,134,602,-2,-11,12,-2,-4,11,235,0,w,-12.548960989893745,53.55032143309228,1639.3789683156738,263.08596617281466,22.07648032810107
2025-02-19 11:58:09.612,796,-49,605,1,0,-14,-3,-8,13,562,0,w,4.630377701768379,52.67306607983821,1591.18852656031,-97.95004748926534,0.6167605917238461
2025-02-19 11:58:09.713,772,122,553,1,-1,10,-2,-6,10,293,0,w,-12.441014972630105,53.73823390873563,1578.323157669075,249.42412595288494,-24.58640698315878
2025-02-19 11:58:09.829,775,-70,563,9,-4,-11,-2,-5,12,684,127,w,7.087437137294505,53.79418761302981,1581.9003938283863,-142.88132589417683,-23.17409254887923
2025-02-19 11:58:09.936,684,-36,593,-24,59,35,-1,-5,10,242,60,w,3.4740635625997554,49.023882939216094,1438.9829836204267,-75.73594650633825,-61.539341062738345
2025-02-19 11:58:11.050,804,23,575,-1,-1,-1,-2,-5,9,650,89,x,-2.2906100426385296,54.40695702702773,1617.1714381864367,46.262367012796076,-6.559175319901783
2025-02-19 11:58:11.143,805,25,582,0,-1,0,0,-5,8,661,91,x,-2.4596468433943692,54.108693417108796,1615.130600666998,50.159335424440926,-3.7093286809846404
2025-02-19 11:58:11.254,811,39,568,0,-2,-2,-2,-6,12,679,0,x,-3.92787632638805,54.93041926095941,1629.4548817416653,78.3584961626695,-5.221174881955676
2025-02-19 11:58:11.360,807,36,574,0,-3,-3,-1,-7,10,683,0,x,-3.588762960380087,54.52352081400631,1621.3538374006616,72.32805222605181,-5.230610493159475
2025-02-19 11:58:11.472,1459,69,559,-8,-11,-17,0,-7,10,750,0,x,-7.036694362795188,68.89107399693621,2391.897440270305,113.11920725061759,201.5704803899241
2025-02-19 11:58:11.578,696,-125,367,30,72,13,-2,-5,11,334,0,x,18.80881483485129,60.880214359305775,1569.6042273821233,-281.8973109522491,-93.6505049558034
2025-02-19 11:58:11.688,980,100,608,15,20,-30,0,-6,10,487,110,x,-9.340026172805317,57.84063110393219,1826.5708406940284,186.384779662656,82.78053965105187
2025-02-19 11:58:11.795,822,56,498,-7,0,-32,-1,-8,10,626,112,x,-6.415946368377486,58.631101031325905,1675.8334835630455,114.16870447631455,-19.285979092939897
2025-02-19 11:58:11.897,841,17,558,23,-7,21,-2,-4,12,456,0,x,-1.7450305797602084,56.42364643161321,1674.1495589369292,33.84131094165018,5.208734974070808
2025-02-19 11:58:12.008,534,-140,722,-30,48,23,0,-3,6,377,0,x,10.973801090473158,35.98294689017404,1121.5444361758002,-294.0378671621948,-72.39528636503326
2025-02-19 11:58:13.721,762,6,621,4,-3,-4,-1,-5,8,693,0,y,-0.5535651858823853,50.820011779820966,1537.165191220868,12.103662922998963,-10.729112530392513
2025-02-19 11:58:13.819,743,28,615,9,-16,-7,-2,-8,8,734,0,y,-2.6067881782638707,50.35543653321448,1513.0172346339282,57.01814612348585,-22.362852355135487
2025-02-19 11:58:13.924,747,16,613,-9,13,3,0,-7,9,746,0,y,-1.4951458019679433,50.61758891336787,1519.9283894808646,32.555360417260815,-21.277245986305047
2025-02-19 11:58:14.035,763,18,603,12,-28,-21,-2,-6,11,801,0,y,-1.709814044141531,51.668218363939786,1547.432461989912,36.505615092815745,-16.93810560932741
2025-02-19 11:58:14.141,865,156,601,-7,-11,28,0,-7,11,432,0,y,-14.550996387174818,54.328373001097816,1677.372398251188,302.50877933778656,36.56553601275834
2025-02-19 11:58:14.244,716,-7,615,13,3,-38,-2,-7,11,824,0,y,0.652118923646017,49.33761315800699,1474.562258093555,-14.416111461808502,-36.55836414460407
2025-02-19 11:58:14.359,767,-5,660,-15,-13,46,-1,-6,10,583,0,y,0.43405063213940953,49.287342294577286,1524.9902570089307,-9.941266342952611,7.7528427302552245
2025-02-19 11:58:14.464,931,39,478,38,47,-41,-3,-6,9,632,0,y,-4.664428318869706,62.74553225491276,1819.9814352119342,76.23982381661165,21.57344142717011
2025-02-19 11:58:14.572,503,-74,754,-6,-10,-4,0,-4,8,661,0,y,5.605242466472183,33.58093751910574,1056.1144031791073,-155.37269549752276,-75.12178925854278
2025-02-19 11:58:15.587,790,25,599,1,-6,-3,-2,-4,9,729,0,z,-2.3899226276682373,52.80557566049416,1586.5887499892933,50.20850474649663,-4.995773726059156
2025-02-19 11:58:15.686,791,30,599,1,-3,-3,-2,-5,11,744,0,z,-2.8671758988328695,52.82992503969334,1587.8455857249378,60.221703630528594,-4.4266824895543095
2025-02-19 11:58:15.789,798,31,595,-1,1,-4,-1,-7,7,774,0,z,-2.982461582784588,53.25404960864822,1599.2960996767188,62.12804397240386,-2.4576181800097174
2025-02-19 11:58:15.895,776,35,606,0,7,-5,0,-5,9,761,0,z,-3.3054900397724265,51.96644332684632,1563.6500412925634,70.52545289335016,-9.097841524862815
2025-02-19 11:58:16.005,744,26,609,10,4,-14,-2,-6,9,724,0,z,-2.44464068330763,50.67244213548386,1517.5354795658643,53.03215385579633,-24.1762191607678
2025-02-19 11:58:16.112,859,240,556,0,-48,0,0,-9,8,780,0,z,-23.347668528091084,54.8165056446212,1676.3109218046177,468.35229479989323,26.983850380247418
2025-02-19 11:58:16.222,654,-36,619,0,21,46,-1,-5,10,574,0,z,3.3284769151737255,46.52660305140567,1379.6939033010046,-75.94645339271584,-67.85707361364177
2025-02-19 11:58:16.328,740,111,587,-16,-37,16,-1,-6,10,205,0,z,-10.708029159049739,51.086028911676294,1518.0900019424053,227.7135002913608,-30.214636675934912
2025-02-19 11:58:16.435,718,121,617,15,20,-8,0,-7,9,449,0,z,-11.095476409345135,48.791361184272645,1470.3155859278963,247.78298871486837,-29.48846311631212
2025-02-19 11:58:16.545,766,286,673,-18,-14,-14,-2,-7,9,589,0,z,-23.02368923401749,46.329593289822114,1489.3238904627005,556.0661000944287,37.49480642115191
2025-02-19 11:58:16.647,755,147,604,13,1,10,-2,-6,10,757,0,z,-13.678568647874044,50.53359051790385,1526.997361243651,297.3094200037307,-13.597888994920368
2025-02-19 11:58:16.754,675,-33,674,-9,31,20,-1,-6,7,571,0,z,2.8030445640690247,45.00817621646541,1382.207679466039,-67.57459766278413,-32.15996438534853
2025-02-19 11:58:18.474,779,41,606,0,-2,-6,-1,-6,8,644,0,0,-3.870548588383791,52.05649960922082,1567.6174767478415,82.5061829867285,-7.481631462377322
2025-02-19 11:58:18.569,777,32,606,3,0,-6,-2,-6,10,696,0,0,-3.022712288340628,52.009829367418334,1565.1163617067677,64.45781669834822,-8.669903724969572
2025-02-19 11:58:18.676,772,46,594,5,-4,-6,-3,-7,8,742,0,0,-4.428208843383264,52.34141774712021,1563.6653844571038,93.17177161272897,-15.131137781761026
2025-02-19 11:58:18.783,797,47,599,1,-5,3,-3,-7,9,786,0,0,-4.486470074986695,52.98814905211078,1595.5110147126175,94.089106262852,-1.1356308818795924
2025-02-19 11:58:18.893,772,56,591,6,-9,-5,-2,-9,10,808,0,0,-5.412880569632553,52.440685720449665,1564.7227075129438,113.50320158124981,-15.864145259261363
2025-02-19 11:58:18.999,810,29,603,-12,14,-24,-2,-9,9,677,0,0,-2.7533969261052382,53.30265787990756,1611.8033664678962,57.70654028094937,6.10193829612183
2025-02-19 11:58:19.110,761,189,602,-12,-17,29,-2,-7,10,372,0,0,-17.42986281766783,50.33669605380079,1530.8085068989478,380.18765808659805,-6.9680961276826565
2025-02-19 11:58:19.212,879,73,550,21,8,-7,-1,-8,11,784,0,0,-7.560522493925032,57.73994473189184,1724.634160647971,143.22900310273252,20.877373883522296
2025-02-19 11:58:19.321,470,-65,754,-33,50,43,1,-4,7,634,0,0,4.927109947649014,31.84188459660944,997.576946694929,-137.9627692237668,-92.36812299569465
2025-02-19 11:58:19.425,851,12,629,5,-13,-1,-2,-4,7,692,0,0,-1.0929506477450204,53.52578239226019,1655.1244421205997,23.339005059279906,34.64715147607842
2025-02-19 11:58:20.640,811,8,611,-1,-5,-6,-2,-7,9,724,81,1,-0.7501473741029738,53.0036034008514,1609.673357342321,15.878405497828073,9.28678010338092
2025-02-19 11:58:20.732,778,4,615,-4,-1,-2,-3,-6,8,742,0,1,-0.3726502218434856,51.67344782815212,1562.4890665256817,8.033362809900677,-5.129532022228773
2025-02-19 11:58:20.850,792,-1,606,-1,-1,-3,-3,-6,10,757,0,1,0.09454740512680963,52.57849782703463,1586.1866263376621,-2.0027608918404822,-1.6731004553322464
2025-02-19 11:58:20.950,791,1,597,1,-3,-2,0,-8,9,770,0,1,-0.09597274024623582,52.95661586066857,1589.1795891705606,2.0090765981928707,-5.41872912114377
2025-02-19 11:58:21.063,793,-10,606,-2,0,-2,-1,-6,8,776,0,1,0.9453891044644397,52.60965785656425,1587.5169893683815,-20.01912975243861,-1.1592629977795923
2025-02-19 11:58:21.170,757,0,609,-2,-2,-2,-3,-4,11,771,0,1,0.0,51.18362112588061,1536.158808815863,0.0,-17.826571425179168
2025-02-19 11:58:21.276,799,11,554,-10,7,6,0,-8,9,741,0,1,-1.1374923637620338,55.25856133845103,1620.7320997057627,22.312957567914125,-15.761681147675063
2025-02-19 11:58:21.380,763,-4,637,-1,-11,-13,-1,-9,10,850,0,1,0.3597803858618703,50.14220883249756,1530.637488704942,-8.024311867391567,-3.871664882107325
2025-02-19 11:58:21.486,800,16,613,-2,1,-9,-3,-6,11,831,0,1,-1.4951458019679433,52.52943936451515,1593.6660256007617,31.873320512015226,4.853407883416594
2025-02-19 11:58:21.596,861,247,487,-9,-2,32,0,-8,9,521,0,1,-26.893524610850772,57.616627899245195,1705.483393089893,489.2617864032561,9.342145836494922
2025-02-19 11:58:21.706,791,-40,686,-4,32,12,-2,-7,8,799,0,1,3.337083236754622,49.01818395293021,1545.9177555661345,-78.1753605848867,31.292565969192765
2025-02-19 11:58:21.811,795,-122,626,4,7,-14,-2,-5,10,480,0,1,11.028036694426781,51.26216906043782,1575.0174054953616,-241.70078423953976,11.797615295476248
2025-02-19 11:58:21.910,795,-1,586,23,0,11,-1,-5,9,533,0,1,0.09777427286068349,53.6057759522509,1599.9536154584741,-2.0125202710169487,-7.336878815931868
2025-02-19 11:58:22.031,685,-69,605,-11,35,14,-2,-6,10,638,0,1,6.506446714951135,48.36491366467765,1432.391380440256,-144.28467919763162,-55.104795863291656
2025-02-19 11:58:23.050,768,28,607,4,-13,-14,-3,-6,10,765,0,2,-2.641096198753743,51.64877804772768,1552.2219796815018,56.591426342554755,-12.821278211812114
2025-02-19 11:58:23.140,824,67,569,-3,5,-5,0,-6,10,780,0,2,-6.7156791427538245,55.18892984965038,1645.0389259124795,133.75923305356326,2.0447222764553317
2025-02-19 11:58:23.247,782,40,603,0,6,-9,-3,-8,7,784,0,2,-3.7951549298003577,52.30335039560542,1573.2592909241434,80.47362101913778,-7.139836863502069
2025-02-19 11:58:23.353,738,32,608,1,0,-8,-2,-9,11,778,0,2,-3.0127875041833403,50.47776033137673,1509.377628042891,65.44726842462399,-27.49810006785583
2025-02-19 11:58:23.464,844,-23,514,17,5,-14,-1,-8,10,774,0,2,2.562109801128057,58.632924347590254,1697.8500484069614,-46.268425489763175,-5.998726162533444
2025-02-19 11:58:23.571,756,81,608,14,-7,-4,0,-11,10,840,0,2,-7.588470584785003,50.94625346377696,1532.555283098756,164.202351760581,-16.531232968311542
2025-02-19 11:58:23.680,933,197,448,-19,12,18,0,-5,11,374,0,2,-23.736635411872285,62.32095959770483,1818.563612232385,383.9839567093032,22.777600985950187
2025-02-19 11:58:23.785,756,123,600,-13,-39,16,-1,-7,8,324,0,2,-11.585126224855049,50.987139052718966,1533.0046809277155,249.41742824617597,-16.67038168866327
2025-02-19 11:58:23.893,1124,75,432,-3,51,7,-2,-8,9,619,108,2,-9.84901451111703,68.68969974910789,2055.6259096610283,137.1636505556736,73.93737279931997
2025-02-19 11:58:23.992,637,-56,682,-16,2,1,0,-4,9,436,0,2,4.694108011861394,42.94999473478249,1318.3598066906034,-115.89976322554756,-47.493544996846936
2025-02-19 11:58:25.212,776,35,614,0,-6,-11,-1,-7,9,793,0,3,-3.262515412171047,51.60241588636104,1559.7196474317589,70.34817997437057,-6.108071550386512
2025-02-19 11:58:25.312,791,73,589,-3,5,-7,-2,-6,9,802,0,3,-7.065146172663903,53.11821199335393,1590.875467206939,146.81910127194254,-6.608913002385748
2025-02-19 11:58:25.422,692,8,631,3,-17,-18,-1,-9,10,801,0,3,-0.726373501367963,47.6375934062694,1430.8976107998847,16.542168910981324,-42.76357285365191
2025-02-19 11:58:25.530,1029,79,612,5,-16,-14,-1,-9,10,825,0,3,-7.355349900096722,59.04943715463156,1886.6113775986755,144.84188418881962,101.93375792965065
2025-02-19 11:58:25.634,674,5,662,8,17,36,-2,-8,9,798,0,3,-0.43273935086824095,45.513801944482886,1387.4192700526014,10.292427819381318,-38.71744328608645
2025-02-19 11:58:25.745,723,35,543,-10,-23,31,-2,-9,9,706,0,3,-3.6879963053623426,53.0350316900442,1522.0033214851824,73.679275590569,-57.08133273368469
2025-02-19 11:58:25.852,829,117,517,-7,12,27,-2,-7,9,313,0,3,-12.751564886517444,57.40461303188657,1671.4957721105634,235.9047109010083,-8.416543041207547
2025-02-19 11:58:25.958,742,36,570,-43,60,22,-3,-4,7,615,0,3,-3.6138807520036442,52.41363337894445,1534.4348033498452,74.4469715910976,-38.74371685904532
2025-02-19 11:58:26.065,706,-59,662,19,-37,-27,0,-4,7,701,0,3,5.0929652985453595,46.729105254748184,1434.1210474813183,-119.84864277818382,-20.74239862979141
2025-02-19 11:58:27.980,746,14,602,-8,7,-6,-3,-9,9,801,0,4,-1.3322198538696388,51.089923360623736,1524.1326962921964,28.603026471971514,-25.93013829477502
2025-02-19 11:58:28.075,789,37,620,3,-7,-2,-1,-8,10,813,0,4,-3.4152137967535428,51.79007787414346,1574.749789282218,73.84758200689743,2.554031235772868
2025-02-19 11:58:28.186,808,54,595,1,-2,-3,-2,-7,10,816,0,4,-5.185746413557733,53.52031126233954,1612.067673830818,107.73719602334671,2.8957104834944403
2025-02-19 11:58:28.292,749,59,582,0,-17,-14,0,-10,10,829,0,4,-5.788559790533233,52.00950283730769,1537.1128537939849,121.08098581287732,-30.39209734058636
2025-02-19 11:58:28.399,794,28,618,-7,-3,-5,0,-11,10,826,0,4,-2.5941511955853165,52.07656038262692,1582.8327156574683,55.817778385905676,4.02189133965328
2025-02-19 11:58:28.506,866,252,504,1,7,20,-2,-9,12,573,0,4,-26.56505117707799,56.94874012312896,1704.1829690850423,495.9054367314442,16.189126537111576
2025-02-19 11:58:28.616,765,58,583,-5,-27,2,-2,-8,10,502,0,4,-5.68140031758368,52.55317332209498,1558.9179593291547,118.19247273345223,-22.038131096597567
2025-02-19 11:58:28.722,878,183,571,-3,25,-8,-3,-10,10,773,0,4,-17.77015421163465,55.66985181296676,1703.8016611224448,355.1203917829241,33.946755693717705
2025-02-19 11:58:28.824,807,-11,591,-13,2,-18,-1,-8,10,783,0,4,1.0662957885581448,53.77838525876647,1613.7374496832401,-21.996421247231275,0.19227662602872897
2025-02-19 11:58:28.936,866,194,467,23,7,30,-2,-8,9,427,0,4,-22.55885638323761,59.717607828677956,1729.550558530931,387.45127985565887,1.320888182511851
2025-02-19 11:58:29.047,649,-117,641,-49,55,15,-2,-6,8,666,0,4,10.344170950932405,44.88588519135109,1354.697049824379,-244.22119388205292,-55.998164772614814
2025-02-19 11:58:31.659,789,86,601,-3,1,0,-3,-9,8,728,0,5,-8.143448680379318,52.42233830443047,1581.5274646762014,172.38448917890153,-2.6869534479047843
2025-02-19 11:58:31.758,792,82,604,-2,0,1,-2,-10,10,740,0,5,-7.7312982644191495,52.4173193139239,1584.474041257413,164.0490800291766,-0.36151631247162186
2025-02-19 11:58:31.859,745,58,613,-3,0,1,-1,-9,10,756,0,5,-5.405043234474149,50.42648463151143,1515.807805875831,118.00919830979623,-21.235147653535932
2025-02-19 11:58:31.971,772,64,604,0,-2,-1,-2,-7,9,767,0,5,-6.048506661000621,51.80563035524756,1557.9176592837694,129.15379558829176,-10.888945864503512
2025-02-19 11:58:32.077,775,85,602,-1,-1,-2,-2,-9,9,768,0,5,-8.03680854114422,51.88656103563018,1561.7902719743406,171.29312660363738,-9.15837900458473
2025-02-19 11:58:32.184,785,87,605,-2,1,-4,-2,-9,9,761,0,5,-8.183129437130784,52.09465877036043,1574.0268164845338,174.446284119942,-3.1034700294814
2025-02-19 11:58:32.290,841,100,581,2,-2,-3,-2,-9,9,743,0,5,-9.765894328502556,54.969450977956896,1659.846107800208,197.36576787160618,15.304888665968292
2025-02-19 11:58:32.401,819,134,598,1,-7,-5,-3,-10,10,802,0,5,-12.630216062576636,53.19375559139178,1619.6660813129465,265.0003112282477,13.386670787372282
2025-02-19 11:58:32.507,782,71,621,8,-4,3,-1,-10,10,804,0,5,-6.52240385799577,51.36496863331866,1563.1388784639578,141.9218163311266,0.6838318080335739
2025-02-19 11:58:32.614,763,77,600,-1,2,2,-2,-10,10,794,0,5,-7.312986245004236,51.591961793087194,1546.6063068185056,156.0795355504914,-16.204173120712085
2025-02-19 11:58:32.721,768,77,587,0,-10,-4,-2,-11,8,768,0,5,-7.473132242498497,52.372422570141865,1559.9958783837365,156.40583676503607,-18.340599754235996
2025-02-19 11:58:32.831,836,331,515,-23,-52,-16,-1,-9,10,635,0,5,-32.729602974499485,53.78491040663323,1642.8047404283238,650.4406328729368,17.985118037575603
2025-02-19 11:58:32.938,726,36,596,10,18,33,-1,-9,10,782,0,5,-3.4566191720419943,50.564997794398984,1498.3456700879974,74.2981324010577,-38.046858639733045
2025-02-19 11:58:33.044,843,127,579,-7,0,-2,-2,-9,10,758,0,5,-12.371546129189863,54.88660921900274,1661.015308754098,250.23599550625204,17.160303951811557
2025-02-19 11:58:33.150,818,216,535,0,-4,16,-3,-7,11,689,0,5,-21.98581753808062,54.80360706311954,1635.1811860859011,431.7837850789176,0.5355323276808122
2025-02-19 11:58:33.258,720,5,675,-5,-12,8,-2,-6,10,754,0,5,-0.4244054193614753,46.84682597047427,1449.5278419168255,10.066165568866843,-8.932351797023898
2025-02-19 11:58:33.361,731,140,540,28,33,18,-3,-7,10,369,0,5,-14.53445508054012,52.65141345013471,1525.9593196101277,292.24939089660444,-47.24765060118864
2025-02-19 11:58:33.474,649,-30,683,-32,46,5,-2,-3,6,602,46,5,2.5150355085768754,43.51024061414812,1337.4842126253407,-61.82515620764288,-41.55272299400269
2025-02-19 11:58:33.581,744,-11,639,8,-31,-22,0,-4,7,569,48,5,0.986214914259636,49.33748026776925,1502.5607467872765,-22.21527985841403,-12.505802684233345
2025-02-19 11:58:34.590,777,5,643,7,-15,-7,-3,-8,7,761,67,6,-0.44552585319829097,50.389970121233475,1547.4016470913343,9.957539556572293,5.460413024803302
2025-02-19 11:58:34.690,794,41,611,-3,-1,-5,-2,-7,9,780,0,6,-3.838969805355949,52.358723189456725,1585.8498793040872,81.8889736164579,1.6545639108346677
2025-02-19 11:58:34.801,769,27,617,0,-7,-6,-3,-6,10,788,0,6,-2.505672144956381,51.23175440889123,1548.685120953182,54.37516029354474,-8.573107448781684
2025-02-19 11:58:34.908,798,52,591,0,-7,-5,-2,-9,9,792,0,6,-5.028303963405799,53.370573592275306,1600.511155560754,104.29396001147771,-3.3409685919868934
2025-02-19 11:58:35.010,792,139,514,-8,-6,-14,-3,-8,8,783,0,6,-15.1324298552187,56.0869825899405,1621.8855458455096,284.64910463702756,-24.58733657145433
2025-02-19 11:58:35.120,734,-127,660,32,30,30,0,-8,9,562,0,6,10.89196659152548,47.5203399340484,1471.517124073393,-254.6085487156961,-3.162536632751312
2025-02-19 11:58:35.231,783,57,668,11,-16,15,-3,-6,8,440,0,6,-4.877196908353786,49.428895961539865,1542.5994155070907,112.2965091748457,19.96371703865043
2025-02-19 11:58:35.338,905,73,480,12,22,-9,-2,-7,10,709,0,6,-8.647469348162808,61.78709039319307,1786.1969568517693,144.07997552505987,12.624818465359965
2025-02-19 11:58:35.440,639,24,691,-32,33,8,0,-5,7,574,0,6,-1.989212976721309,42.74378878351976,1317.7211364477325,49.491873669398416,-42.95352939809584
2025-02-19 11:58:36.560,805,51,614,2,-1,-4,-2,-9,9,756,0,7,-4.748196003133472,52.571018210110196,1599.1072914206738,101.30990293472594,8.308227413299505
2025-02-19 11:58:36.657,776,69,619,2,-3,-3,-2,-8,9,770,0,7,-6.360509397367877,51.248742545138214,1555.870745933163,138.3441771512735,-3.0876182121492093
2025-02-19 11:58:36.763,784,59,605,3,-3,-3,-1,-9,9,774,0,7,-5.569909725233609,52.211987717966544,1574.2832306493776,118.47284516366491,-4.84866650876711
2025-02-19 11:58:36.873,757,33,602,4,-15,-12,0,-11,9,758,0,7,-3.1376582408200697,51.4648406500444,1539.2260056482623,67.09968056326639,-20.060839366253504
2025-02-19 11:58:36.981,787,42,602,-5,-16,5,-4,-9,9,784,0,7,-3.9909130984297803,52.519388140390234,1580.559291749636,84.35005114801106,-5.017399788158514
2025-02-19 11:58:37.082,767,219,529,1,2,57,0,-8,10,110,0,7,-22.489000167983086,53.25988606718216,1568.3570383358679,447.8098975170209,-23.69605381965323
2025-02-19 11:58:37.191,800,78,602,13,15,-24,-1,-4,10,524,0,7,-7.382576352728927,52.80913115433914,1596.6262620881294,155.6710605535926,2.5387377786826164
2025-02-19 11:58:37.300,806,-48,552,4,8,-15,-2,-7,10,124,0,7,4.969740728110304,55.49350317511275,1630.0619579628128,-97.07565010200375,-12.369976173042915
2025-02-19 11:58:37.406,749,-13,631,23,-7,7,0,-9,11,369,0,7,1.18025321232378,49.881325887965545,1513.7114244680351,-26.272694950713564,-13.236193376942992
2025-02-19 11:58:37.511,797,2,525,-23,50,31,-2,-8,10,415,0,7,-0.21826858037220448,56.626105549283764,1632.0985909208725,4.095604996037322,-25.09631145979688
2025-02-19 11:58:38.434,816,33,579,1,-1,1,-2,-6,12,477,0,8,-3.2620334773967508,54.598197519504076,1631.1095715917284,65.96399002760666,0.6318113338104467
2025-02-19 11:58:38.528,820,43,569,-1,-1,0,-1,-7,11,479,0,8,-4.32169494503555,55.166674416623735,1640.8171197536763,86.04284896269277,-0.5670013900506774
2025-02-19 11:58:38.635,811,38,563,-1,0,0,-1,-7,9,543,0,8,-3.8613541417946684,55.1704148513964,1631.854407016328,76.46173547055545,-6.840975524282044
2025-02-19 11:58:38.742,790,35,598,-1,5,-7,-2,-6,10,503,0,8,-3.349610616024269,52.82850627959042,1586.8306246796874,70.30262261239122,-5.170523491712629
2025-02-19 11:58:38.852,786,19,589,-3,3,-6,-1,-8,10,415,0,8,-1.8476102659945959,53.13913676268063,1586.094598159228,38.34070911580832,-10.561982590057937
2025-02-19 11:58:38.958,964,125,561,5,-14,44,0,-7,10,163,0,8,-12.561245399314718,59.19570238017049,1822.921487399789,236.37467419603075,61.15046220821398
2025-02-19 11:58:39.060,758,43,641,13,5,-56,-2,-6,11,716,0,8,-3.8378047064117293,49.71715533168988,1520.8619553757853,86.27581013345485,-4.111495245222272
2025-02-19 11:58:39.172,864,123,594,-23,-33,1,-1,-11,10,766,0,8,-11.69893760880266,54.927893914082844,1682.4295563836422,239.5125410129491,31.329679986246106
2025-02-19 11:58:39.281,761,147,415,14,27,42,-1,-10,9,407,0,8,-19.50500418619632,59.94907692412494,1626.5806741272472,314.20152312313445,-57.03151085782849
2025-02-19 11:58:39.389,680,-42,685,-57,67,43,-2,-4,8,391,0,8,3.5086335217867717,44.736379796886496,1383.8458811524933,-85.47283383588928,-24.02121851390848
2025-02-19 11:58:40.803,776,24,603,-1,-2,-3,-2,-6,10,528,0,9,-2.279226021426703,52.12861099487057,1565.3907334792652,48.414146396265934,-10.405428206181682
2025-02-19 11:58:40.900,774,31,604,0,-2,-3,-2,-7,8,608,0,9,-2.9380993833963127,51.996325966384795,1561.9712733204115,62.55957296244542,-10.902647397323562
2025-02-19 11:58:41.006,810,43,598,-3,0,-4,-2,-7,10,636,0,9,-4.112851848399243,53.49197799137851,1613.773571324698,85.66946119378025,4.59679549114901
2025-02-19 11:58:41.117,789,45,599,-2,-2,-4,-3,-6,10,655,0,9,-4.296287063521283,52.71695938323995,1584.6528167998222,90.37943822052219,-5.050744313173027
2025-02-19 11:58:41.223,791,42,601,-2,-1,-4,-1,-7,8,711,0,9,-3.9975320416996256,52.70526014116678,1586.529111347748,84.240483788376,-3.441208495570777
2025-02-19 11:58:41.330,772,21,604,1,-4,-2,-2,-8,10,744,0,9,-1.991269694853176,51.94416540571052,1559.4104189635411,42.41919533450046,-12.056856287537016
2025-02-19 11:58:41.436,792,45,589,3,-7,-3,-1,-8,11,757,0,9,-4.368949045277635,53.28242927526136,1593.5923346351315,90.54501901335973,-7.133693308197508
2025-02-19 11:58:41.543,801,54,588,1,-1,-3,-4,-8,10,764,0,9,-5.247138901616438,53.603417630652665,1605.9291927122695,108.26488939633279,-2.884351204512541
2025-02-19 11:58:41.649,802,72,581,-3,2,-2,-2,-10,10,778,0,9,-7.064321689917308,53.87128869586149,1609.6945321688506,144.51122982064493,-4.125340636037549
