Timestamp,Acc_X,Acc_Y,Acc_Z,Gyro_X,Gyro_Y,Gyro_Z,Mag_X,Mag_Y,Mag_Z,Force,IR_A,Letter,Roll,Pitch,Lin_Acc_X,Lin_Acc_Y,Lin_Acc_Z
2025-02-19 14:38:32.450,585,-88,783,0,7,-3,-1,1,0,0,20,noise,6.412463889165455,36.592119070135205,1181.1144432478495,-177.67191624924916,-14.876254808660178
2025-02-19 14:38:32.545,613,-114,788,2,-3,3,1,0,-1,0,19,noise,8.231870949643326,37.59280648747904,1223.0456867490384,-227.4505844851393,3.7977142606160896
2025-02-19 14:38:32.659,603,-134,774,-20,-11,-5,0,-1,-2,5,21,noise,9.822064945192434,37.51166044790057,1211.9228742843366,-269.3161942854081,-7.602495350044023
2025-02-19 14:38:32.764,637,-126,753,-16,-9,-1,0,-1,0,335,24,noise,9.499334980340258,39.83991336053763,1277.6447454536315,-252.7209386611579,-4.308466760729402
2025-02-19 14:38:32.869,621,-144,764,-6,-3,0,-1,1,2,418,25,noise,10.673981220222517,38.61656168345679,1245.1054737508434,-288.7201098552681,-3.820582843227953
2025-02-19 14:38:32.975,623,-160,752,3,-2,1,0,0,1,408,25,noise,12.011478386365443,39.01851207719343,1252.571451491955,-321.68769219697083,-7.932153325762783
2025-02-19 14:38:33.084,637,-144,761,6,1,-5,1,-1,-1,394,25,noise,10.7150875617758,39.43598025670651,1272.2156445677538,-287.5966292272474,2.1317024865609255
2025-02-19 14:38:33.190,651,-134,759,7,-13,-1,1,-1,1,435,26,noise,10.012286135857362,40.185942650302316,1296.2702732071284,-266.82060923157485,6.680280546527683
2025-02-19 14:38:33.297,614,-131,754,1,-3,-2,-1,1,2,434,26,noise,9.856186024192409,38.74023260889226,1239.7905137375783,-264.5155656345647,-14.478904492075003
2025-02-19 14:38:33.399,665,-110,751,0,2,0,1,-1,0,392,27,noise,8.33293732024645,41.22282106979695,1323.9890968319005,-219.00571526542714,6.7882530514930295
2025-02-19 14:38:33.511,657,-125,756,3,0,-1,0,-1,2,297,26,noise,9.388566686208208,40.61000127917751,1307.9067421444574,-248.8407043653838,7.011419998158772
2025-02-19 14:38:33.619,640,-112,758,1,0,1,-1,-1,-1,281,25,noise,8.405052304747935,39.87061149349752,1281.0560480992287,-224.18480841736505,-1.2507569675241257
2025-02-19 14:38:33.719,634,-116,745,-1,0,1,0,-1,0,265,22,noise,8.850157714676358,40.05962986804803,1277.584512631474,-233.75363322594797,-11.262558218372419
2025-02-19 14:38:33.830,639,-125,751,-1,-1,1,0,-2,3,271,24,noise,9.449949982022046,40.007366791309906,1281.886098356387,-250.7601913842698,-4.567229836692832
2025-02-19 14:38:33.939,635,-125,755,1,1,2,-1,-1,0,228,29,noise,9.400780041023838,39.68467001525601,1273.561935103174,-250.7011683273965,-4.235056697474647
2025-02-19 14:38:34.046,632,-125,750,2,0,1,-2,1,0,193,29,noise,9.462322208025617,39.7334024077394,1271.2162550279484,-251.42726563052776,-8.563593783166539
2025-02-19 14:38:34.149,632,-130,752,-1,0,2,0,2,1,180,29,noise,9.807919444188798,39.62958910648196,1269.82181882875,-261.19752602490115,-6.92722746712036
2025-02-19 14:38:34.265,641,-110,765,0,-2,-1,-2,1,1,189,29,noise,8.182522997821403,39.67157658880442,1279.3860535769768,-219.55142885096325,3.1196084455737036
2025-02-19 14:38:34.369,612,-137,756,0,-3,-3,0,1,-2,185,28,noise,10.271496193421255,38.53908408888833,1235.0483448130956,-276.4732405872452,-13.64795535735334
2025-02-19 14:38:34.479,647,-121,748,-2,-11,-8,0,-1,2,213,31,noise,9.18883607735876,40.4931322200708,1296.3568973208735,-242.4407798699006,-2.7248210139309776
2025-02-19 14:38:34.580,643,-128,738,-6,1,-2,-1,0,1,205,30,noise,9.839593617902864,40.644682050325194,1294.366136206836,-257.66542058238724,-9.602190545326266
2025-02-19 14:38:34.689,662,-118,747,-1,2,1,0,0,1,204,30,noise,8.976565281248414,41.19752126407899,1320.6569084509165,-235.4041015063567,3.772340463996102
2025-02-19 14:38:34.797,651,-120,743,0,1,1,1,-2,3,203,29,noise,9.174469031643559,40.85879194330454,1305.1970223136445,-240.58931286887463,-3.648828846448623
2025-02-19 14:38:34.899,644,-133,745,0,0,0,-1,1,2,207,28,noise,10.122009830567533,40.39696335765816,1292.0795390741248,-266.8425135044388,-4.719342562457882
2025-02-19 14:38:35.013,640,-132,743,-1,0,1,-2,-2,2,218,27,noise,10.073953265237233,40.30103922453121,1286.8036125981373,-265.4032450983658,-7.8985690006500135
2025-02-19 14:38:36.534,776,-105,631,4,-2,-3,-4,-5,8,828,66,A,9.44759700158727,50.500376078332565,1547.628758464595,-209.40853046234855,3.554450269124459
2025-02-19 14:38:36.627,763,-101,624,2,-1,-8,-4,-5,8,836,69,A,9.194099451894452,50.35934123952121,1533.060714107186,-202.93464236543355,-5.774424119114201
2025-02-19 14:38:36.739,749,-105,620,-3,-4,-7,-5,-4,9,838,72,A,9.612114754365889,49.984621860350515,1514.871891868108,-212.36521848618332,-13.966052013654007
2025-02-19 14:38:36.845,725,-114,609,5,-28,-23,-3,-7,9,841,98,A,10.602613105475958,49.48311578021958,1485.2145498407926,-233.5371843887591,-29.580221866265674
2025-02-19 14:38:36.951,664,-375,714,25,5,18,-4,-6,9,775,109,A,27.708908094838886,39.46544786262793,1299.6127775510156,-733.9680596108898,30.524814500865887
2025-02-19 14:38:37.062,1076,-21,601,-5,-18,14,-4,-5,9,671,111,A,2.001201415122188,60.799565738134724,1948.918379610332,-38.03651112622396,113.43127681616204
2025-02-19 14:38:37.169,622,-245,668,7,-43,-49,-4,-9,8,815,103,A,20.14134374312522,41.15979044020765,1280.1612612932158,-504.24358362835676,-38.835566790784924
2025-02-19 14:38:37.268,767,-52,663,6,-35,74,-5,-5,10,706,113,A,4.484606009544626,49.07270395228575,1522.5414610140529,-103.22314989925783,9.904838784462754
2025-02-19 14:38:37.377,792,7,685,0,90,-15,-4,-5,9,754,88,A,-0.5854839365490322,49.142025083544894,1548.3335025278884,13.68476580517073,30.84791763686428
2025-02-19 14:38:37.489,1064,122,632,-3,-57,3,-2,-7,7,563,111,A,-10.925871453234267,58.828126846757506,1919.6184596943394,220.1066278972833,123.77550138456525
2025-02-19 14:38:37.594,780,-38,577,-1,6,30,-3,-5,11,831,108,A,3.7679376699162392,53.448755741887844,1583.324540963833,-77.1363237905457,-17.2541796617071
2025-02-19 14:38:37.699,667,-160,698,5,36,10,-3,-2,6,691,46,A,12.910658205036917,42.9667222391151,1348.5734700748815,-323.49588487553376,-15.250797769515998
2025-02-19 14:38:38.719,771,-92,630,-4,-5,-1,-4,-5,9,732,67,B,8.30827612748334,50.450537805042295,1542.075183495765,-184.0089713120757,-0.06143398486631213
2025-02-19 14:38:38.815,778,-81,625,-4,-5,-4,-3,-5,9,747,73,B,7.384373547878369,50.99043999429179,1555.0409462817709,-161.90014993422034,0.7704480384234103
2025-02-19 14:38:38.919,777,-88,617,-2,-4,-4,-4,-6,9,753,79,B,8.117101269851528,51.26635141354202,1557.0630811298704,-176.34691266335727,-2.4323308328572466
2025-02-19 14:38:39.031,720,-93,605,0,-19,-21,-3,-6,9,729,97,B,8.739045658503732,49.630557472026034,1481.8838600279655,-191.4099985869455,-35.1940768290541
2025-02-19 14:38:39.139,757,11,664,0,-22,62,-4,-6,9,645,110,B,-0.9490902534636001,48.74059213956775,1508.7315339877473,21.923443690707025,4.621217215503179
2025-02-19 14:38:39.243,784,-4,518,35,39,-64,-4,-6,9,781,107,B,0.44242965803947215,56.5459048804925,1618.327761495912,-8.256774293346492,-33.25227098837058
2025-02-19 14:38:39.356,937,-65,548,13,-18,-26,-3,-7,8,770,105,B,6.764427307394756,59.5042546533501,1798.666846702202,-124.77411423227656,44.05823693403761
2025-02-19 14:38:39.459,774,34,639,5,2,30,-3,-8,9,762,110,B,-3.0457296325117316,50.41778547492957,1544.7110716795569,67.85552511253869,2.7152780319936483
2025-02-19 14:38:39.569,727,-162,623,-2,-20,13,-2,-7,8,786,107,B,14.575939068483043,48.47689461483496,1475.688448393374,-328.8329142224575,-18.585836793771705
2025-02-19 14:38:39.676,893,18,405,-18,5,28,-3,-4,9,545,114,B,-2.5448043798130953,65.58313220184623,1803.5620039710764,36.35399336111912,-7.964850625180304
2025-02-19 14:38:39.779,561,-132,623,-45,53,10,-2,-2,7,629,48,B,11.962797300490061,41.37763963512966,1222.0190751327675,-287.5339000312394,-111.07287666259197
2025-02-19 14:38:39.889,823,-99,641,19,-29,-21,-2,-2,8,740,52,B,8.779743186803548,51.75862475018055,1608.4101143733733,-193.47825191125634,29.27717701903748
2025-02-19 14:38:40.712,787,-100,608,-1,-5,-4,-3,-4,8,734,78,C,9.340026172805317,51.94141160501225,1574.3807906907136,-200.04838509411866,-0.29418137224138263
2025-02-19 14:38:40.801,782,-99,603,1,-5,-4,-3,-5,9,751,83,C,9.323591778138015,51.99511092200325,1569.9582160312057,-198.75430100650811,-4.594378857822221
2025-02-19 14:38:40.913,725,-93,612,8,-16,-12,-2,-7,9,808,95,C,8.640606413823958,49.50834733494853,1485.5005746279405,-190.55386681434268,-29.967381616964758
2025-02-19 14:38:41.019,768,-156,587,2,11,-28,-4,-7,9,603,108,C,14.882804798657434,51.66116612166189,1552.3561170720914,-315.3223362802685,-12.501355105882112
2025-02-19 14:38:41.125,854,129,520,23,-16,48,-2,-7,9,552,107,C,-13.932493867399954,57.89764651318081,1701.1000928895428,256.9577423685609,4.201348591847477
2025-02-19 14:38:41.232,1221,5,555,-10,58,19,-2,-4,7,823,90,C,-0.5161642297648367,65.55516933943508,2131.3601515537503,8.727928548541156,141.19993111193173
2025-02-19 14:38:41.339,557,-199,683,-17,5,-6,-1,-1,7,733,36,C,16.244096814580278,38.059634770534096,1173.4813214917126,-419.25095687046814,-72.93670121874266
2025-02-19 14:38:42.259,781,-116,617,4,-5,-7,-2,-5,7,697,68,D,10.647686477202974,51.20581246814402,1560.4015278142315,-231.76258287637754,1.2628134937506275
2025-02-19 14:38:42.354,798,-55,605,-2,-3,-4,-2,-5,7,689,78,D,5.194428907734806,52.71900651190863,1593.6744593199637,-109.83971837418295,1.7630978839874842
2025-02-19 14:38:42.461,739,-65,603,-9,-3,-21,-3,-7,10,568,86,D,6.152405813928508,50.6244638796521,1512.0045172695377,-132.99092506430304,-27.746581750380415
2025-02-19 14:38:42.571,713,-256,582,31,12,-2,-3,-6,8,441,102,D,23.742895877266193,48.275164433113034,1459.3497597963774,-523.9741073041693,-27.222384574322177
2025-02-19 14:38:42.678,921,72,648,5,-11,25,-5,-5,8,413,108,D,-6.34019174590991,54.70483265788149,1737.1863270358062,135.80609722755491,73.74512495200577
2025-02-19 14:38:42.789,888,-265,481,13,-14,-27,-3,-6,9,645,100,D,28.85193151138218,58.2659876329943,1738.4990249567577,-518.8088306458793,20.313028148422916
2025-02-19 14:38:42.895,719,25,666,-10,-11,58,-2,-7,10,525,109,D,-2.1497331475183046,47.17136603550414,1452.390217370325,50.500355263224094,-13.329464212289736
2025-02-19 14:38:42.995,1243,-42,625,34,41,4,-4,-5,8,161,95,D,3.8444962923603043,63.254189182097086,2136.011849981032,-72.17417353113704,175.97956054855592
2025-02-19 14:38:43.098,457,-194,717,9,-15,-6,-3,-2,7,557,40,D,15.140107846581657,31.602098708182027,981.017103837702,-416.4492738391996,-105.14499661188711
2025-02-19 14:38:43.919,773,-93,619,0,-5,-5,-3,-5,8,727,67,E,8.544343881163979,51.000706214685614,1550.1537182572708,-186.49973583172857,-3.3261987079567916
2025-02-19 14:38:44.021,791,-72,606,-1,-2,-2,-4,-4,8,724,75,E,6.775656169399013,52.34955316725193,1582.7521258849724,-144.0684615217674,-0.5762178082089804
2025-02-19 14:38:44.127,775,-64,608,-5,0,-3,-2,-6,8,716,79,E,6.009005957494525,51.73183953987187,1560.1206635276358,-128.8357709235725,-7.939823773938883
2025-02-19 14:38:44.237,730,-163,595,2,-29,-32,-3,-6,9,554,104,E,15.320283053138606,49.79884704471968,1493.783040021591,-333.5433363335881,-27.53549152444748
2025-02-19 14:38:44.341,781,114,635,4,-22,60,-3,-5,9,387,107,E,-10.177752198888916,50.441291049009365,1551.9724116546063,226.5363059265366,8.153032777624958
2025-02-19 14:38:44.451,954,-9,570,4,52,-52,-2,-6,10,707,100,E,0.9045950337326875,59.139202245680735,1812.4160740157583,-17.09826484920527,57.10989288366636
2025-02-19 14:38:44.558,812,-31,608,55,4,-30,-3,-8,9,459,102,E,2.918803317498763,53.13959676856678,1612.099414290994,-61.54566729436061,8.910783388024356
2025-02-19 14:38:44.664,777,-70,641,14,-7,38,-3,-7,10,827,95,E,6.232253258317623,50.31165724176614,1546.5295010652803,-139.32698207795318,6.162921257600146
2025-02-19 14:38:44.770,879,91,692,-9,8,-8,-2,-7,9,170,104,E,-7.491574003274675,51.54915611701406,1662.1419465387962,172.07612870879456,75.46504322543024
2025-02-19 14:38:44.881,725,-54,624,12,-11,13,-3,-4,10,809,104,E,4.945966547104157,49.176053451416706,1481.7218949397748,-110.36273424379011,-27.302706817130115
2025-02-19 14:38:44.988,657,-132,473,22,-44,-9,-2,-5,9,445,104,E,15.592810939266347,53.22379830893042,1457.980111620653,-292.9275110105421,-103.65691445444259
2025-02-19 14:38:45.094,776,0,584,5,-14,23,-3,-6,10,771,104,E,0.0,53.0357107105348,1575.0104478368708,0.0,-17.317141155583045
2025-02-19 14:38:45.196,590,-180,747,0,37,4,-1,-2,7,400,43,E,13.547938988000494,37.518801459570284,1199.0217330431392,-365.8032405894322,-24.083448446143848
2025-02-19 14:38:45.919,756,-125,652,-47,-16,-4,-2,-4,8,703,58,F,10.852930039621286,48.71232112903573,1507.4060457080554,-249.24041761045885,3.96198174384665
2025-02-19 14:38:46.016,754,-89,618,-18,-8,-8,-3,-5,7,782,70,F,8.194989958932828,50.37237233413181,1524.2057913575936,-179.91288518677163,-13.282730847470589
2025-02-19 14:38:46.120,762,-78,616,-13,-9,-16,-4,-5,8,780,87,F,7.216579642130546,50.824996080676684,1537.220146522805,-157.35324334485398,-10.687152569616273
2025-02-19 14:38:46.229,797,-151,573,-5,2,-11,-4,-6,9,678,105,F,14.763248724551307,53.36953382934316,1599.5003280839132,-303.04209478126836,-3.9544391368659717
2025-02-19 14:38:46.338,861,196,514,-12,-16,35,-4,-6,7,435,112,F,-20.872997362507803,57.42506978984896,1703.688055715099,387.83142731725843,10.931869178210093
2025-02-19 14:38:46.445,556,-173,543,-48,24,-44,-2,-5,9,635,87,F,17.671898095720525,44.293033790943376,1254.3282639958607,-390.28559293396376,-139.00044487365517
2025-02-19 14:38:46.552,970,4,541,51,-32,-12,-3,-9,7,679,107,F,-0.4236209647617478,60.849529096215925,1843.3434793001015,7.601416409484957,53.90843061715975
2025-02-19 14:38:46.659,678,-180,626,10,12,37,-2,-7,9,829,105,F,16.042056761582202,46.14783014295022,1399.1297078668476,-371.45036492040214,-39.82182466762049
2025-02-19 14:38:46.770,873,107,652,-13,-3,-11,-3,-5,9,446,104,F,-9.31976022426532,52.880096075911446,1670.3743328782466,204.7308747055812,56.48102515851474
2025-02-19 14:38:46.872,722,-22,639,18,-7,14,-2,-5,9,827,106,F,1.9718457890602985,48.47299282455266,1470.6433022728447,-44.81184577562685,-23.580429573888864
2025-02-19 14:38:46.982,583,-194,670,-19,26,6,-2,-2,6,736,50,F,16.14849155113314,39.88944223663207,1224.3082568969617,-407.40274757806264,-67.00948905825771
2025-02-19 14:38:47.795,768,-57,600,-2,-6,-7,-2,-5,9,797,87,G,5.42681249857282,51.87633045434233,1554.6800502004737,-115.3864099758164,-14.593789219120026
2025-02-19 14:38:47.896,820,-61,585,-8,-2,-11,-4,-9,9,755,105,G,5.952918623390419,54.34878361598301,1632.5800797232973,-121.44803032087944,5.293479709598728
2025-02-19 14:38:47.999,931,98,504,7,6,42,-4,-8,6,268,105,G,-11.003540851749504,61.12360027920618,1806.6635179859582,190.17510715641663,29.956591767000134
2025-02-19 14:38:48.110,817,20,570,25,-16,-13,-3,-5,9,702,108,G,-2.009553813021139,55.08096205037927,1636.9617208871684,40.07250234729911,-2.066316898024411
2025-02-19 14:38:48.210,849,-67,671,2,-11,44,-2,-5,7,729,105,G,5.702138691712829,51.54087660982369,1632.0520791535382,-128.7956293324936,52.12138384920593
2025-02-19 14:38:48.326,895,-62,662,-33,44,-20,-3,-4,9,754,96,G,5.350462779930922,53.39128164248359,1697.726741909164,-117.60788603169627,68.25128140350114
2025-02-19 14:38:48.431,1013,120,645,54,-45,14,-3,-7,9,686,104,G,-10.53918372862823,57.0709524214816,1852.3443802973472,219.4287518614824,110.57045874453206
2025-02-19 14:38:48.539,1115,-27,532,-22,56,4,-2,-5,8,842,93,G,2.9053757098622297,64.46413501330517,2017.3156239061636,-48.84979537709992,101.47810590306818
2025-02-19 14:38:49.359,794,-57,617,-18,-10,-8,-5,-5,7,529,70,H,5.278145650486585,52.03198435621837,1582.3543129444793,-113.5947050854349,4.387139689239916
2025-02-19 14:38:49.456,771,-26,606,-16,-2,-11,-4,-6,8,548,82,H,2.4567280733915298,51.80732880084796,1556.9359884185737,-52.503677949264485,-11.739570663626068
2025-02-19 14:38:49.562,809,-124,554,-10,2,-20,-6,-5,10,426,104,H,12.61638238992301,54.94112478261922,1627.5622240556906,-249.4656560975348,-6.548173209953802
2025-02-19 14:38:49.669,856,150,485,20,-3,34,-4,-5,9,141,113,H,-17.18570614422477,59.329175704154466,1716.1121347380017,300.7205843582947,-2.329889425152885
2025-02-19 14:38:49.776,1275,-185,486,2,5,-16,-4,-6,9,520,107,H,20.839749214080893,67.81146789488986,2200.946192051014,-319.3529768858334,133.0510985593782
2025-02-19 14:38:49.882,794,29,631,29,-11,19,-3,-6,8,818,108,H,-2.631393373712516,51.49602546029209,1576.564971873569,57.582347839210954,9.087534946823553
2025-02-19 14:38:49.993,1016,-124,698,5,-8,-36,-4,-5,9,812,105,H,10.073524871164071,55.09403159265888,1836.0922719272653,-224.09000169191032,134.59015176650485
2025-02-19 14:38:50.099,872,131,481,5,-5,47,-3,-5,10,461,113,H,-15.234958331084341,60.24352478259286,1740.142729600655,261.4205247450525,2.127691584959848
2025-02-19 14:38:50.199,533,-268,716,-27,45,-4,-3,-4,7,735,47,H,20.52095901483688,34.88328037019299,1104.9065184455235,-555.562752239025,-52.264666429634076
2025-02-19 14:38:51.019,773,-85,608,2,-6,-6,-4,-6,9,701,76,I,7.958519099829203,51.543567214000525,1556.0812852893982,-171.10855012884716,-7.929393862812617
2025-02-19 14:38:51.115,790,-58,612,0,6,-4,-2,-8,7,684,86,I,5.413822572912674,52.11156238006016,1579.2080325036704,-115.9418555509024,0.6135241870296113
2025-02-19 14:38:51.230,887,-161,695,-2,2,-22,-4,-8,10,344,101,I,13.0427746116439,51.19065580176797,1666.2357636162374,-302.439636913432,84.43759220599225
2025-02-19 14:38:51.336,688,-8,663,19,-27,10,-4,-7,10,810,104,I,0.6913182389739104,46.05804264165949,1408.043144494255,-16.37259470342157,-30.878786046062714
2025-02-19 14:38:51.442,646,-52,512,-33,39,-10,-4,-7,8,699,81,I,5.799217629098415,51.457531468235864,1428.146524284936,-114.95916294553663,-107.90560438682235
2025-02-19 14:38:51.549,784,-139,643,-5,-18,50,-4,-7,8,669,104,I,12.198167969259984,50.00006620617343,1550.0451858696488,-274.81668473964436,14.725695772724293
2025-02-19 14:38:51.649,916,-137,600,22,43,11,-2,-4,10,687,101,I,12.862036367148876,56.10363444185701,1746.047662858067,-261.14468320038776,56.300657516549904
2025-02-19 14:38:51.760,771,-135,561,44,6,-18,-1,-6,8,0,104,I,13.530493102322888,53.18889779793512,1571.6152831261516,-275.18555541119383,-21.5488635976277
2025-02-19 14:38:51.865,762,3,650,3,2,19,-1,-4,12,829,99,I,-0.26444018162005223,49.534910953377555,1522.8015403140653,5.9952816547797845,1.0223081310467705
2025-02-19 14:38:51.979,577,-178,689,-11,4,-15,-1,-2,8,761,46,I,14.485383187066322,39.03598339254568,1206.8083368586788,-372.2909600707882,-63.05882858861287
2025-02-19 14:38:52.692,766,-52,630,1,-2,0,-1,-8,7,624,70,J,4.718479498676494,50.468807230268595,1537.2781775537326,-104.35830970338657,-4.341059867952367
2025-02-19 14:38:52.790,763,-52,618,4,-4,-5,-3,-6,8,592,75,J,4.809674712031758,50.89500016993099,1538.9913691355823,-104.88538819796892,-10.522498198938365
2025-02-19 14:38:52.897,748,-28,643,4,2,-4,-3,-7,9,597,80,J,2.4934198167434425,49.289969912973376,1506.0201695112642,-56.375086559245176,-8.61359491409462
2025-02-19 14:38:53.007,954,-127,500,60,-6,-21,-4,-7,6,467,96,J,14.251741387398493,61.59762776407474,1833.6288796877504,-244.09944205486818,38.978574587133096
2025-02-19 14:38:53.109,813,13,601,-18,-2,4,-2,-9,9,831,96,J,-1.2391497493286283,53.520396717854624,1617.0685605711976,25.857184855382005,6.602453993493441
2025-02-19 14:38:53.219,1461,-181,520,30,0,-27,-4,-7,9,603,95,J,19.191827785332713,69.35030171871196,2396.7539966731456,-296.9284554399996,186.9458738740343
2025-02-19 14:38:53.329,753,195,576,-25,-18,60,-3,-4,8,517,107,J,-18.703101839365473,51.07612457628269,1530.9814057738458,396.46928834780863,-19.109282504296402
2025-02-19 14:38:53.433,1153,-73,566,32,36,9,-2,-5,8,344,93,J,7.34916735297157,63.666458714484676,2049.226900310426,-129.74290001965403,126.04819984761389
2025-02-19 14:38:53.544,577,-147,708,-1,-15,-10,-2,-4,3,422,48,J,11.729503505883319,38.58824717861631,1200.719273862591,-305.90248398232393,-57.32624938425397
2025-02-19 14:38:54.260,787,-73,615,-10,-5,-5,-4,-5,8,536,82,K,6.769289062114787,51.79957582305438,1572.8523149006942,-145.8935438217925,0.8968568438029934
2025-02-19 14:38:54.359,772,-78,618,-8,-1,-10,-3,-7,9,558,89,K,7.193470055295538,51.10101545721159,1550.2542778381248,-156.63190890074318,-5.006662828965204
2025-02-19 14:38:54.458,805,-141,618,-4,-2,-11,-2,-7,10,493,102,K,12.852343066390937,51.78205435770413,1590.6631626017552,-278.61305084080436,14.844926102006411
2025-02-19 14:38:54.572,853,186,523,-26,-23,53,-5,-6,9,0,110,K,-19.577448245966334,56.94591842216337,1691.156108759481,368.76323121836276,9.10123695051766
2025-02-19 14:38:54.683,1097,-77,661,-24,52,-19,-2,-6,8,648,90,K,6.644447920890603,58.75787129912592,1951.9831317201251,-137.01248964671802,145.82784861713503
2025-02-19 14:38:54.789,679,-86,594,44,-40,-34,-2,-7,10,793,107,K,8.238105580641578,48.525340345087,1428.2487061254305,-180.89747971544483,-61.45468547644464
2025-02-19 14:38:54.892,714,32,633,-7,20,21,-4,-6,9,274,107,K,-2.8940054794938166,48.40496042409729,1461.855567594334,65.51733636277127,-30.01480992606912
2025-02-19 14:38:55.002,779,-69,649,4,-44,44,-2,-7,10,178,112,K,6.068741691217503,50.04323032265008,1545.529215645506,-136.8953990751475,10.38965217723569
2025-02-19 14:38:55.109,1143,-8,582,14,85,10,-4,-5,12,689,93,K,0.7875212556708913,63.01323800975923,2034.111393483231,-14.237000129366445,128.25824058859126
2025-02-19 14:38:55.219,673,-164,662,10,-18,-20,-4,-3,7,664,52,K,13.913990923340588,44.61895053961155,1375.3885167091194,-335.16154047592204,-28.908169482075664
2025-02-19 14:38:55.929,778,-76,609,0,-3,-3,-5,-7,7,556,75,L,7.113436765487691,51.73192187980666,1563.1215535862475,-152.69567875649716,-5.574583719826023
2025-02-19 14:38:56.026,739,-88,624,-5,5,-1,-4,-7,6,593,73,L,8.027237510431954,49.54445814705717,1499.9096700327573,-178.60899994977353,-18.50018146203047
2025-02-19 14:38:56.137,775,-68,599,-2,-1,-16,-3,-6,9,466,83,L,6.476635000291016,52.12180893307732,1564.3178477644756,-137.25627567481848,-11.066310723768652
2025-02-19 14:38:56.247,784,-107,594,-3,1,-11,-2,-9,9,462,102,L,10.21144797789554,52.40922238487501,1576.38784265538,-215.14476934199703,-6.355074664917993
2025-02-19 14:38:56.350,848,131,526,-12,-6,33,-2,-6,10,0,107,L,-13.984972090548753,57.41205159344841,1690.5657034092999,261.16050371063477,3.3708018947031633
2025-02-19 14:38:56.459,778,-68,594,17,-11,9,-3,-4,10,722,110,L,6.530683107430272,52.45834325508803,1570.9105322613923,-137.3032341822297,-11.384133885947335
2025-02-19 14:38:56.567,639,-153,642,-27,52,13,-2,-5,6,718,53,L,13.404562562903815,44.07470837641955,1334.595731980331,-319.55109075585386,-56.86143964221037
2025-02-19 14:38:57.385,784,-75,622,12,-8,-11,-3,-5,7,681,70,M,6.875461967918993,51.37115832949405,1565.2063235868698,-149.7327477921113,2.216411644090499
2025-02-19 14:38:57.480,807,-37,609,6,-2,-5,-3,-6,8,682,82,M,3.4767507668875934,52.909321755305434,1604.6820573867517,-73.57278330025999,7.031755949774833
2025-02-19 14:38:57.586,746,-42,618,3,6,-14,-4,-8,6,643,80,M,3.8879095608330716,50.29616252520645,1515.3567708437035,-85.31499246036937,-19.34917477400643
2025-02-19 14:38:57.691,783,-58,559,-6,-1,-28,-2,-9,7,321,98,M,5.9236253303510935,54.33097808272036,1595.3989111388473,-118.1776971213961,-20.988494670007185
2025-02-19 14:38:57.799,847,151,523,12,4,26,-2,-5,9,399,105,M,-16.104429954943075,57.27137897913392,1688.2408101506912,300.973273120135,3.5561467428437936
2025-02-19 14:38:57.909,848,-116,633,-15,-1,-38,-3,-7,6,557,98,M,10.384479189572815,52.80540378363921,1644.5869365315239,-224.96708094063297,38.377911763614975
2025-02-19 14:38:58.016,748,186,596,4,-28,58,-3,-5,9,739,105,M,-17.33212676631163,50.14853378898957,1515.708232088658,376.9007101183025,-15.703350701657769
2025-02-19 14:38:58.123,756,-251,639,0,0,-31,-4,-8,9,832,100,M,21.44496211612059,47.75718899452916,1496.3024846154858,-496.78825878106727,13.268138003577633
2025-02-19 14:38:58.229,833,210,485,-2,-7,62,-1,-6,9,721,106,M,-23.412114169302676,57.606169551322175,1677.385617891865,422.87032383828534,-6.629081245563725
2025-02-19 14:38:58.341,672,-159,617,-49,72,20,-3,-3,7,749,45,M,14.450632820549789,46.52452418940598,1397.6689394862717,-330.6984544320197,-49.276392355699045
2025-02-19 14:38:59.151,775,-61,624,11,2,-7,-2,-5,9,546,64,N,5.583289599456543,51.027164369927185,1552.4442397427729,-122.19238532168922,-1.9680072251485399
2025-02-19 14:38:59.250,761,-48,639,1,-3,-4,-4,-4,7,595,68,N,4.295840511271507,49.90093492674802,1525.9319113361428,-96.24800492001953,-3.3015654977599524
2025-02-19 14:38:59.359,736,-29,631,2,-7,-18,-3,-8,7,546,80,N,2.631393373712516,49.362423846013236,1494.8443483826418,-58.900116987903004,-19.58530411609638
2025-02-19 14:38:59.467,771,-102,584,-7,0,-20,-4,-9,9,321,97,N,9.907205620499326,52.44244208604317,1563.7413935004984,-206.87629330356788,-16.46818911062394
2025-02-19 14:38:59.573,840,113,530,16,5,22,-2,-7,9,203,104,N,-12.035681671202441,57.17257218804051,1680.307188426318,226.0413241573499,-0.19382126898619845
2025-02-19 14:38:59.683,933,-120,654,-4,4,-33,-3,-8,8,616,97,N,10.39733352243635,54.52379283130604,1747.3565927484728,-224.74039778115406,83.16483209271041
2025-02-19 14:38:59.791,739,218,602,2,-42,72,-3,-6,9,639,107,N,-19.90665103016569,49.09493668892924,1494.7956058217078,440.9545900800167,-13.681941413624145
2025-02-19 14:38:59.896,753,-406,637,-3,3,-44,-4,-6,8,829,100,N,32.51191423105149,44.90944381563243,1458.988313682881,-786.6523975501323,39.769514188585504
2025-02-19 14:38:59.999,628,-65,638,-41,48,33,-2,-5,6,812,52,N,5.817272510602639,44.39954913916657,1327.6577183018921,-137.4168020535398,-72.7987647716676
2025-02-19 14:39:00.826,730,-49,614,4,-21,-11,-2,-8,10,799,89,O,4.56279442559361,49.84333061388116,1494.2839452122373,-100.30125111698578,-28.83608542508705
2025-02-19 14:39:00.921,772,-46,634,-16,1,-18,-4,-8,9,714,101,O,4.149835290981962,50.53188000779824,1543.9783849078296,-91.99871205409347,0.017751254450899978
2025-02-19 14:39:01.023,917,88,554,17,2,55,-3,-9,7,352,98,O,-9.025727414811836,58.54511376240704,1770.0513068535547,169.86315703720044,38.634215924897376
2025-02-19 14:39:01.133,702,73,678,24,-24,-41,-1,-6,7,820,101,O,-6.145340453404024,45.831333392219705,1419.2917597084615,147.59016874461213,-14.768964504753512
2025-02-19 14:39:01.240,1003,43,592,9,34,15,-4,-7,8,755,91,O,-4.154390939134311,59.38362178718618,1863.5964804471976,79.89496376792573,84.05073138111555
2025-02-19 14:39:01.341,557,-87,679,-9,-3,12,-1,-7,6,711,41,O,7.301502156330025,39.13428717170399,1188.1400993016466,-185.5802309501674,-90.37904385245588
2025-02-19 14:39:03.859,765,-60,629,0,-1,-1,-4,-7,9,652,66,P,5.4489291919452745,50.444842654717554,1536.0118878795988,-120.47152061800777,-4.9431078121148175
2025-02-19 14:39:03.959,767,-58,632,0,-2,-2,-3,-7,6,669,68,P,5.243469505898692,50.393870143372446,1537.4450428080254,-116.26051171168902,-2.838679341163015
2025-02-19 14:39:04.066,774,-63,619,-2,-2,-3,-3,-6,8,680,71,P,5.8113852252193885,51.205137565124666,1553.394147749853,-126.43905853777872,-4.3139243632545
2025-02-19 14:39:04.177,775,-48,617,-2,-1,-4,-3,-7,7,698,73,P,4.448410443107835,51.39142570272466,1556.4271002620517,-96.39806556461738,-5.116801111852624
2025-02-19 14:39:04.279,787,-76,621,0,-2,-1,-3,-6,8,734,76,P,6.977347141041678,51.51671560921816,1569.7897374694423,-151.5934181037835,3.3222020730321447
2025-02-19 14:39:04.388,768,-48,623,2,-2,-1,-2,-7,9,778,77,P,4.405738100696445,50.86812706098947,1543.6954497964875,-96.48096561228046,-6.242532842723335
2025-02-19 14:39:04.496,774,-41,618,0,-3,-1,-3,-7,8,787,79,P,3.7956141606149996,51.333036395355855,1554.7907886713433,-82.35971877974816,-5.422102582545449
2025-02-19 14:39:04.603,794,-18,608,-5,-3,-8,-4,-8,8,771,90,P,1.6957613171808237,52.54504803549899,1587.8317255093975,-35.99618521305939,0.12885502554922823
2025-02-19 14:39:04.713,833,-87,597,-5,-2,-9,-4,-8,9,684,100,P,8.291271491691063,54.085810303197064,1642.8963964285908,-171.58701859458273,16.5580448164842
2025-02-19 14:39:04.820,869,277,510,0,-19,45,-2,-8,8,477,106,P,-28.508033326551846,56.26265214902624,1700.5922739693715,542.0760182848285,21.95390135284282
2025-02-19 14:39:04.926,722,-170,556,-12,13,-67,-4,-6,7,658,99,P,17.00129496865164,51.15637153332188,1500.8606050556884,-353.3882311072951,-43.78739115091798
2025-02-19 14:39:05.033,681,7,709,7,-13,-11,-2,-9,9,815,94,P,-0.5656663266503219,43.84460142700167,1373.704812400811,14.120313783855622,-12.186067536233622
2025-02-19 14:39:05.139,947,9,440,6,20,27,-4,-6,9,538,103,P,-1.1717957227088482,65.07465516584006,1853.857680024218,17.618499598963005,18.651130717364254
2025-02-19 14:39:05.250,530,-135,738,-22,31,11,-3,-4,5,590,39,P,10.366322603450492,35.23872117444217,1106.984420808316,-281.9677298285333,-65.42358972931538
2025-02-19 14:39:06.062,776,-42,619,2,-11,-6,-2,-8,7,728,68,Q,3.8816478247946833,51.35715783218901,1557.0537561966648,-84.27352804157204,-4.0312823269784985
2025-02-19 14:39:06.160,773,-39,603,2,-8,-3,-4,-5,7,766,78,Q,3.7005430551783416,51.984994373583504,1560.8494863286237,-78.74919788721388,-11.583751948460645
2025-02-19 14:39:06.270,815,-11,597,-6,1,-20,-4,-6,8,753,98,Q,1.0555816850534177,53.772015870059555,1621.6717551166405,-21.88759424083809,6.10056711087816
2025-02-19 14:39:06.373,960,101,540,28,7,35,-3,-9,8,401,99,Q,-10.594028182029103,60.21946410790759,1827.9342316939446,192.31391395946707,51.786994672156254
2025-02-19 14:39:06.482,643,-56,742,2,-13,-46,-3,-5,8,819,100,Q,4.316027519865624,40.8309294568254,1296.829150484769,-112.94312974672948,-12.49646914416553
2025-02-19 14:39:06.590,877,79,637,-17,52,48,-3,-6,9,711,79,Q,-7.069658125052183,53.79944349758101,1683.9545756713012,151.6903209555676,50.87677913042319
2025-02-19 14:39:06.699,796,-198,485,21,7,-13,-1,-8,7,598,98,Q,22.207611681158472,56.65047692659031,1631.3325064583541,-405.7837139180328,-23.9651578295248
2025-02-19 14:39:06.806,805,40,594,11,-4,33,-2,-4,9,788,102,Q,-3.8524854069806667,53.514876156912074,1609.0112720707693,79.9508706619016,0.7295706707614045
2025-02-19 14:39:06.911,597,-177,674,-29,53,13,-2,-3,6,572,38,Q,14.71426837867778,40.58692420573319,1247.600922716172,-369.8917308555484,-60.51427455728617
2025-02-19 14:39:07.732,786,-80,616,-3,-6,-2,-3,-7,8,415,77,R,7.399594659887112,51.68080431156326,1570.5686831858263,-159.85431889932076,1.12174447523023
2025-02-19 14:39:07.826,793,-87,609,0,-9,-6,-4,-4,9,520,89,R,8.13010235415598,52.19688539575355,1583.121693520132,-173.68422110498295,2.2104522651193292
2025-02-19 14:39:07.933,814,-34,600,-6,1,-5,-5,-6,9,524,105,R,3.243292282776195,53.562169373374466,1618.5018058450823,-67.60326953161278,7.001125912715679
2025-02-19 14:39:08.041,807,-110,586,-8,3,-11,-5,-8,8,372,104,R,10.631461535933038,53.54194321067031,1611.2920834986642,-219.63089118321324,1.9663433330642874
2025-02-19 14:39:08.149,836,148,538,-10,-23,48,-5,-5,10,0,110,R,-15.381201635846276,56.27899205761387,1667.750628194979,295.24771886705366,2.734643577872589
2025-02-19 14:39:08.256,739,-69,610,32,29,-66,-4,-4,9,389,104,R,6.453566948653354,50.283461181557364,1508.215138297926,-140.82116988167377,-24.940777214796867
2025-02-19 14:39:08.359,711,83,695,4,-21,7,-3,-8,9,669,103,R,-6.810263327880456,45.44917642566332,1423.6284349800758,166.1900985982367,-1.5917894671625845
2025-02-19 14:39:08.472,1017,-48,377,16,12,-2,-3,-5,11,390,108,R,7.255913789768191,69.50975287531348,1953.731787903585,-92.21152981255858,29.755276263862697
2025-02-19 14:39:08.579,764,-12,599,14,-23,46,-4,-4,10,587,110,R,1.1476751197147808,51.89685755014503,1550.9011787685854,-24.359704378564167,-17.955243563328054
2025-02-19 14:39:08.687,638,-244,611,-43,62,15,-3,-4,6,483,48,R,21.76906640228336,44.119414739872,1334.1560945457577,-510.24151578238997,-55.694943209181474
2025-02-19 14:39:09.506,764,-109,618,-3,-6,-8,-3,-6,10,583,68,S,10.002690797531955,50.6007985184706,1536.7424195195736,-219.24728236601246,-7.071747726566059
2025-02-19 14:39:09.600,790,-74,601,-1,-4,-5,-4,-4,10,618,77,S,7.019391311733248,52.529670561303725,1583.6684803898522,-148.34362980866973,-2.7908312839258542
2025-02-19 14:39:09.706,755,-75,607,1,-10,-9,-3,-7,8,662,84,S,7.04367986803086,50.98950814421739,1532.0307088965596,-152.18848101621452,-17.712106357896232
2025-02-19 14:39:09.809,797,-76,605,-9,2,-9,-4,-7,10,631,107,S,7.159981222213811,52.58174992084344,1591.2211164752516,-151.73501236150457,2.109441069601985
2025-02-19 14:39:09.922,881,-69,499,36,11,21,-4,-7,11,434,106,S,7.872739550475397,60.23946304706853,1749.1075433492272,-136.9902616244003,7.302310861221088
2025-02-19 14:39:10.030,719,10,661,-14,-20,29,-2,-5,9,724,110,S,-0.8667384105232707,47.40340061607107,1455.137259729906,20.238348535881865,-15.754838221791147
2025-02-19 14:39:10.136,1218,-53,594,28,55,9,-1,-4,9,240,95,S,5.098747567402175,63.912605773363246,2116.124346031748,-92.08094444965735,155.9984716396894
2025-02-19 14:39:10.238,537,-189,698,3,-7,-11,-2,-3,4,394,41,S,15.150881499357174,36.59755676142578,1133.1906402331688,-398.83245997033316,-76.93680983752665
2025-02-19 14:39:11.159,774,-43,625,1,-1,-2,-3,-6,7,523,75,T,3.935747574543886,51.013208720567405,1551.2910215984593,-86.18283453324774,-2.657478680926488
2025-02-19 14:39:11.255,752,-47,631,4,-1,-5,-2,-6,7,532,78,T,4.259806767669531,49.922066356166674,1517.1694158836574,-94.82308849272859,-11.05040082790947
2025-02-19 14:39:11.359,785,-16,622,4,-2,-3,-5,-8,6,518,87,T,1.4735214674041515,51.59899495653083,1568.6825614547406,-31.97314774939599,1.0438812422308956
2025-02-19 14:39:11.472,738,-43,634,17,3,-19,-4,-7,8,297,96,T,3.880049218891656,49.26983130107384,1495.7908731851703,-87.15312675740152,-17.00191544633867
2025-02-19 14:39:11.578,684,141,620,-40,-62,19,-1,-9,10,676,96,T,-12.812254323096697,47.09016066081774,1416.4259885641395,291.9825502741866,-43.89490191486311
2025-02-19 14:39:11.685,762,23,630,-11,31,-1,-2,-8,9,783,95,T,-2.0908221074799704,50.39828234161717,1532.4941332269414,46.256384598713446,-7.022708573455361
2025-02-19 14:39:11.796,844,-68,675,-2,-2,15,-2,-6,7,465,97,T,5.752611155424063,51.207293969826566,1623.4177276555815,-130.79668895803266,51.65051401952883
2025-02-19 14:39:11.898,811,59,569,16,9,34,-3,-6,9,499,95,T,-5.919882756273078,54.802211099834,1628.1671428101358,118.44865773834528,-4.326885646075425
2025-02-19 14:39:12.009,558,-173,711,-20,28,5,-2,-5,6,567,43,T,13.675419663018019,37.32773987335879,1164.3734594033308,-360.9975062307817,-61.63714988488903
2025-02-19 14:39:12.821,762,-34,632,-3,-1,-2,-3,-6,8,450,70,U,3.0793994085001786,50.28712490653544,1531.2559963351373,-68.32375836665966,-6.018096697908959
2025-02-19 14:39:12.921,769,-46,637,1,-2,-3,-1,-8,7,461,74,U,4.130359124359796,50.29018112721224,1538.2900770488823,-92.01735181306707,-0.24028488964609096
2025-02-19 14:39:13.029,752,-15,627,8,2,-5,-2,-8,6,312,77,U,1.3704510177996057,50.171381423483076,1519.9637004062213,-30.318424875124094,-13.310159780187178
2025-02-19 14:39:13.139,669,-32,640,-2,-7,-20,-5,-5,7,234,85,U,2.8624052261117474,46.2334101482584,1391.1637058809242,-66.54295753092613,-50.859150618522676
2025-02-19 14:39:13.241,895,28,580,7,-10,58,-3,-7,6,0,97,U,-2.7638573709125587,57.02451675865433,1733.9035412005337,54.245026987279275,36.353012406358175
2025-02-19 14:39:13.352,764,11,626,30,-4,-49,-4,-7,7,717,100,U,-1.0066912438023023,50.665442490565574,1537.4580501860787,22.13617611524459,-7.7496589221012755
2025-02-19 14:39:13.459,767,-156,746,5,7,39,-2,-9,9,655,95,U,11.811220893220641,45.18223276145553,1476.3521976020047,-300.2750232410857,56.06944014198757
2025-02-19 14:39:13.564,1055,-14,541,5,41,-8,-4,-7,7,746,93,U,1.4823695531207164,62.843633235982615,1944.7642153649122,-25.807297644652863,84.7322838744858
2025-02-19 14:39:13.676,547,-162,720,-4,-8,-13,-1,-5,5,600,42,U,12.68038349181982,36.545561840159664,1142.461828906718,-338.3524977749329,-63.78887899970164
2025-02-19 14:39:14.489,775,-27,620,1,-1,-2,-3,-6,9,463,81,V,2.4935632656275954,51.3137118341521,1555.5800159677947,-54.19440055629737,-4.464012774235812
2025-02-19 14:39:14.589,767,-12,612,-1,-3,-5,-3,-8,8,423,86,V,1.123302714075429,51.40777635148221,1548.6051399917733,-24.228502842113794,-11.653644947803514
2025-02-19 14:39:14.695,817,-41,595,-4,2,-10,-4,-8,6,131,97,V,3.941881402398033,53.870513210887616,1624.6865519809107,-81.53261766366872,6.782743661393056
2025-02-19 14:39:14.802,761,-43,666,-8,-30,85,-3,-7,7,542,99,V,3.694149626209555,48.749676292886136,1512.8360823246962,-85.4821965045492,8.019933208610382
2025-02-19 14:39:14.908,800,-30,537,46,-8,-77,-2,-6,9,677,4,V,3.1975577738508476,56.08719093323087,1629.8875746410572,-61.12078404903964,-20.06203447780979
2025-02-19 14:39:15.018,1061,7,564,-20,38,29,-3,-7,10,753,87,V,-0.711081320313582,62.00422143958962,1943.9821801975754,12.825518625243191,94.62964219469131
2025-02-19 14:39:15.126,666,-91,662,4,-14,-5,-1,-5,7,628,52,V,7.826952910441852,44.90444044708576,1371.9264651950598,-187.45541791704272,-39.686666605299706
2025-02-19 14:39:16.039,760,-42,628,-2,0,-2,-4,-9,8,245,80,W,3.8261855463300494,50.36974739397022,1530.1765706850906,-84.56238943259712,-8.409061039785456
2025-02-19 14:39:16.137,767,-29,625,-1,-1,-4,-4,-8,8,203,83,W,2.656618731469127,50.794504852430535,1541.8838682096089,-58.298086281719236,-6.424273312914579
2025-02-19 14:39:16.244,683,-8,574,-3,-12,-22,-2,-7,9,88,97,W,0.7984957503137066,49.95323133940506,1448.5195015854583,-16.966553459273303,-69.3502107028595
2025-02-19 14:39:16.353,837,-181,678,-12,-8,41,-3,-8,7,129,97,W,14.947195343567538,50.02339258484628,1603.3068150648585,-346.712704333022,57.264013603376384
2025-02-19 14:39:16.459,842,3,604,-2,-20,13,-4,-5,9,367,106,W,-0.28457934615061586,54.346290529295146,1654.5547176708906,5.8950880677110105,21.122269034182978
2025-02-19 14:39:16.567,848,-108,685,14,-11,0,-1,-9,9,700,101,W,8.959740541304587,50.72502762227901,1622.116805784611,-206.59034790653067,59.681589666912146
2025-02-19 14:39:16.677,879,95,518,18,-29,-33,-3,-6,9,590,110,W,-10.392424867886051,59.07271451138588,1736.8202489898151,187.71094841186851,12.481354975285342
2025-02-19 14:39:16.780,860,64,545,2,2,2,-2,-5,9,831,105,W,-6.697637131690243,57.45905004869241,1703.007216240476,126.73542074347728,10.768682731326294
2025-02-19 14:39:16.890,639,-101,663,-10,9,4,-3,-6,7,766,58,W,8.661722335742628,43.61566124267177,1328.8174632881214,-210.03218120829462,-52.726100406924274
2025-02-19 14:39:17.703,783,-21,591,3,-6,-6,-2,-7,9,817,90,X,2.0350344568598926,52.937503361011736,1580.9785920259865,-42.40172469035212,-11.305680571338144
2025-02-19 14:39:17.804,816,-8,564,1,-5,-10,-3,-5,9,836,103,X,0.8126515942537368,55.34598837416901,1638.6007075329776,-16.06471281895076,-4.562253736028538
2025-02-19 14:39:17.910,722,-206,646,7,12,7,-3,-10,10,768,106,X,17.686725581702998,46.79801738347508,1450.944939474045,-413.9815201269436,-6.213893213619258
2025-02-19 14:39:18.017,916,39,455,-24,16,32,-2,-6,9,4,110,X,-4.899092453787765,63.50162231339413,1810.9469952050608,77.10363844213686,10.457551508403299
2025-02-19 14:39:18.128,510,-272,653,10,-13,-66,-4,-6,9,274,83,X,22.613634437026157,35.79030806881828,1094.8204702183616,-583.9042507831261,-95.79954324037294
2025-02-19 14:39:18.235,755,86,662,-12,-50,102,-2,-7,9,604,106,X,-7.401805401079558,48.517238156589165,1504.1550444724276,171.33421698626327,5.124980873182835
2025-02-19 14:39:18.345,1276,-77,600,-19,110,20,-3,-6,7,751,77,X,7.312986245004236,64.63550444008345,2179.6009173779203,-131.52764156590902,175.10928649941025
2025-02-19 14:39:18.451,588,-106,680,11,-22,-24,-1,-4,5,687,40,X,8.860095390250013,40.510168769343146,1237.582993815779,-223.10169616406904,-71.21842822232975
2025-02-19 14:39:19.158,784,-24,612,-1,1,-1,-3,-8,9,620,82,Y,2.2457425658950716,52.00261055818961,1572.0388040714297,-48.12363685932948,-3.152739912901552
2025-02-19 14:39:19.262,775,-20,607,-1,1,-3,-5,-6,7,558,84,Y,1.8871518604851332,51.915945950331334,1562.1067183271443,-40.31243144070051,-9.482294225260148
2025-02-19 14:39:19.368,754,5,632,-1,0,-10,-3,-7,9,412,90,Y,-0.4532799380897668,50.02950353370691,1520.3753346125195,10.082064553133417,-10.37295951606393
2025-02-19 14:39:19.472,783,-76,592,-8,-2,-14,-4,-9,8,97,97,Y,7.31552530439626,52.68276577775636,1578.2911672439177,-153.19301240170847,-9.292938708045085
2025-02-19 14:39:19.580,805,62,558,9,-11,40,-3,-7,7,548,105,Y,-6.34019174590991,55.10679412009847,1625.2197150309712,125.17220165455925,-10.549814891033293
2025-02-19 14:39:19.689,447,-156,682,20,-19,-26,-2,-7,9,804,73,Y,12.884125817758626,32.5754688452088,985.4100401308161,-343.9014905154527,-139.4667726380685
2025-02-19 14:39:19.788,727,-62,685,-18,7,6,-2,-7,9,674,98,Y,5.171803222647992,46.58708880438602,1453.4198222505102,-123.95052129234062,0.5466599152688332
2025-02-19 14:39:19.903,855,-162,645,-7,-4,35,-5,-9,8,0,104,Y,14.098930291396254,52.12363507351205,1644.3374163873204,-311.5586683681239,49.53493149728456
2025-02-19 14:39:20.009,832,-16,545,60,11,23,-3,-5,11,3,110,Y,1.6815949304565438,56.76195994513101,1668.400588586866,-32.08462670359357,-2.8825970911561853
2025-02-19 14:39:20.120,487,-198,728,9,-2,-21,-1,-3,6,646,45,Y,15.215154203949773,32.842534032797325,1029.3320630715998,-418.49640346648204,-82.71404910908552
2025-02-19 14:39:20.839,780,-30,620,0,-1,-3,-1,-7,8,727,84,Z,2.770215797200193,51.48716359880566,1562.4686706118534,-60.09494886968667,-1.9622766401912486
2025-02-19 14:39:20.933,778,-21,618,1,-1,-3,-4,-6,8,732,86,Z,1.9461951170307557,51.52221916992903,1560.849507726378,-42.13089930880969,-3.852179659256649
2025-02-19 14:39:21.036,758,0,615,3,4,-7,-3,-5,7,671,88,Z,0.0,50.94600300234396,1534.5525289093262,0.0,-15.052513560996772
2025-02-19 14:39:21.149,831,-14,543,-10,9,-11,-4,-8,8,365,97,Z,1.4769120511510048,56.82949251034663,1668.0460560583663,-28.101858946831683,-3.9506720092572323
2025-02-19 14:39:21.252,627,29,708,38,-26,12,-1,-9,7,845,91,Z,-2.3455498561191708,41.50404875306137,1289.6729708219464,59.64994601887789,-40.28144073674298
2025-02-19 14:39:21.362,900,90,489,-60,26,21,-1,-6,8,477,98,Z,-10.428528477438077,61.08114290026565,1775.3054224258847,177.53054224258847,13.417387148602813
2025-02-19 14:39:21.469,781,85,623,34,-49,8,-1,-4,7,742,94,Z,-7.769270006636427,51.16296072603294,1559.9327295167072,169.7750089742895,1.649051870795688
2025-02-19 14:39:21.569,896,83,498,-46,93,32,-3,-6,6,707,63,Z,-9.462322208025617,60.60003704590374,1767.2141285251173,163.7039873522151,13.776075886709407
2025-02-19 14:39:23.392,749,-104,626,7,-2,-2,-2,-6,6,497,74,a,9.43263527829204,49.72750991694251,1511.978790530688,-209.94098026060288,-11.683208107090422
2025-02-19 14:39:23.489,779,-93,622,2,-2,-3,-2,-5,8,609,80,a,8.503737175984933,51.08484025463023,1557.076970129939,-185.8898051631378,0.7370020271863496
2025-02-19 14:39:23.596,762,-79,635,2,-2,-3,-3,-5,7,660,81,a,7.091698395972045,49.977884019137214,1527.7962721718955,-158.3935767737267,-3.1635601432461726
2025-02-19 14:39:23.704,770,-77,618,0,-2,-4,-3,-7,5,661,84,a,7.102193892625034,51.03395770553636,1547.5188066316039,-154.75188066316036,-6.0345746731572945
2025-02-19 14:39:23.809,825,-76,602,-9,8,1,-3,-5,9,710,79,a,7.195289142176633,53.66592932653805,1630.5761018484218,-150.2106469581576,14.173559620909373
2025-02-19 14:39:23.919,627,-152,687,3,-5,0,-2,-4,5,790,61,a,12.475813323604006,41.70465623332055,1292.2910292057525,-313.28267374684907,-41.9552425268771
2025-02-19 14:39:24.026,835,-53,602,-2,-8,-2,-1,-5,7,788,79,a,5.031340237970084,54.104981980382064,1645.092623609771,-104.4190527560693,17.957174355590155
2025-02-19 14:39:24.132,761,-81,617,2,-7,1,-3,-6,9,783,80,a,7.479041973926492,50.726030542872756,1535.1278866156752,-163.39731776066978,-10.643766152262401
2025-02-19 14:39:24.239,797,-56,594,1,-5,-4,-2,-5,6,777,92,a,5.385703940601999,53.18148811220185,1597.5377885913572,-112.24857736651944,-2.6366956377241877
2025-02-19 14:39:24.349,831,-36,672,-5,-8,-9,-3,-6,8,778,103,a,3.0664855011258934,50.99862322126959,1608.1308390903414,-69.66631793893177,43.5620651399405
2025-02-19 14:39:24.460,870,-89,518,25,19,-11,-2,-6,10,553,100,a,9.749067537566736,58.86270924616039,1725.9307193905593,-176.5607287652411,8.376882018035076
2025-02-19 14:39:24.567,713,-113,636,15,-7,-35,-3,-5,7,760,103,a,10.074776034624435,47.82419361825972,1454.0881698266664,-230.451561276877,-25.054805062776836
2025-02-19 14:39:24.673,842,114,554,-7,-18,50,-2,-5,9,722,104,a,-11.627797615186246,56.109043064364954,1672.1003043633218,226.38887731284882,7.829490953348909
2025-02-19 14:39:24.779,592,-162,558,-19,57,6,-4,-5,9,753,57,a,16.189206257026942,45.53529093256114,1305.6820339618191,-357.2981241584708,-114.69353876806599
2025-02-19 14:39:25.490,758,-80,621,0,-2,-3,-2,-5,8,709,79,b,7.340669017300713,50.442225257412396,1528.9827957016905,-161.3702159051916,-10.636300964049724
2025-02-19 14:39:25.590,767,-61,631,0,-3,-1,-3,-7,8,702,84,b,5.521736284221295,50.42555221576751,1537.7974383084602,-122.30201269467544,-3.1240985301673163
2025-02-19 14:39:25.700,774,-47,608,-1,-1,-13,-3,-6,8,631,91,b,4.4203236835557655,51.766370113070025,1559.4937816257611,-94.69794281190022,-9.028707013517874
2025-02-19 14:39:25.800,787,-114,584,-6,3,-15,-3,-7,9,480,99,b,11.045550397525972,52.90837133613916,1584.672053449488,-229.54588830145065,-7.919287439010191
2025-02-19 14:39:25.909,866,166,517,3,-9,34,-4,-4,8,110,106,b,-17.800950349199997,57.91160801843294,1713.2295643604075,328.40197192127897,11.205906727100967
2025-02-19 14:39:26.021,824,-247,542,30,2,-31,-2,-6,9,441,97,b,24.49968221269668,54.138722539634834,1634.4377468582122,-489.9346158664786,8.920802430642084
2025-02-19 14:39:26.131,716,-32,654,-30,-11,43,-3,-4,7,582,105,b,2.801229157749907,47.55706572635071,1453.949848602455,-64.98099882022144,-20.0491633882757
2025-02-19 14:39:26.237,929,-31,611,-17,55,30,-2,-6,6,433,73,b,2.9044966409229804,56.63340073217255,1764.1686256511264,-58.868920769843825,61.712561600820095
2025-02-19 14:39:26.342,647,-122,642,12,-30,-15,-1,-2,5,581,60,b,10.759689803429419,44.71411156717782,1350.5697466297074,-254.66693831348428,-56.132577026695685
2025-02-19 14:39:27.259,759,-112,621,-5,-2,-4,-3,-3,7,577,73,c,10.223633511796853,50.26047092320222,1527.9586780450218,-225.46952824906782,-8.148009309563463
2025-02-19 14:39:27.356,797,-81,605,0,-3,-3,-3,-4,9,680,84,c,7.625657644826727,52.55258684612662,1590.91173558326,-161.6861362387002,2.344291056622069
2025-02-19 14:39:27.466,725,-99,610,8,-14,-5,-1,-7,7,721,93,c,9.218446992274886,49.55612038436525,1486.0417256710941,-202.9215597812942,-30.32476228878261
2025-02-19 14:39:27.571,748,-139,641,12,5,-24,-2,-5,8,601,101,c,12.235082952204111,48.75348728266851,1499.8799368822588,-278.7210043136818,-3.3249191731657675
2025-02-19 14:39:27.679,922,57,578,-36,-7,47,-1,-6,6,275,97,c,-5.632065477897392,57.791574547515665,1768.1147965168582,109.308615402886,47.572285914594545
2025-02-19 14:39:27.784,1007,-113,668,6,24,15,-2,-5,8,815,91,c,9.601355615096667,56.068093000386725,1836.7015580886036,-206.10454425423256,117.61207467409417
2025-02-19 14:39:27.892,543,-184,680,-8,-6,-6,-1,0,6,738,40,c,15.140983835076906,37.62536975506248,1153.4959186464248,-390.8715451766891,-84.52527565298135
2025-02-19 14:39:28.708,762,-91,612,-2,-1,-1,-3,-4,8,571,80,d,8.457503245000368,50.92410226454989,1538.3116409230042,-183.7091329711199,-11.494388772806474
2025-02-19 14:39:28.809,763,-84,619,-1,-3,-2,-3,-6,7,609,81,d,7.727987796129381,50.69256983347707,1536.7580658373768,-169.18437422062863,-8.72771003058483
2025-02-19 14:39:28.912,775,-83,611,1,-5,-1,-3,-4,9,677,88,d,7.735871560632377,51.49325957265259,1557.5349171653706,-166.80696532222677,-5.940431468440579
2025-02-19 14:39:29.019,824,-77,694,0,-3,-16,-2,-6,9,638,101,d,6.331130259426376,49.72202028861019,1586.9168518409747,-148.2919873686348,51.446243716460344
2025-02-19 14:39:29.129,847,-101,550,20,16,17,-3,-6,6,0,97,d,10.405654678027641,56.56686136646709,1681.5293375486817,-200.5129434385087,8.097832760596361
2025-02-19 14:39:29.233,727,-37,592,53,1,-57,-2,-5,9,760,103,d,3.5763343749973515,50.78919208332756,1501.825252871985,-76.4340224982991,-38.944359972785605
2025-02-19 14:39:29.340,777,-147,754,4,14,44,-2,-6,9,735,96,d,11.032012823039622,45.32645057673908,1488.1241200391037,-281.53699568307366,63.92588608818028
2025-02-19 14:39:29.449,1077,-1,543,5,41,0,-3,-5,8,680,93,d,0.10551697005352625,63.24371210017328,1969.929542180653,-1.8290896399077559,92.80432553008865
2025-02-19 14:39:29.559,608,-172,684,2,-15,-16,-2,-2,6,609,47,d,14.115054669271387,40.76303210594526,1260.9320461234865,-356.71103936388096,-50.54855188892202
2025-02-19 14:39:30.468,781,-81,621,1,0,-2,-2,-4,8,563,80,e,7.431407971172507,51.27492643579009,1561.156716270711,-161.91254035586118,0.6705239383975368
2025-02-19 14:39:30.571,775,-62,630,16,5,-5,-2,-5,7,458,85,e,5.620533828591979,50.757010752201445,1549.4700565573971,-123.95760452459177,0.4307927339867774
2025-02-19 14:39:30.677,756,-64,627,0,4,-5,-2,-7,8,158,86,e,5.828187720355416,50.18289637800449,1524.0924073268316,-129.02369585835612,-10.02902036233229
2025-02-19 14:39:30.783,902,88,663,1,-28,22,-2,-5,7,341,95,e,-7.560676899190593,53.44381838606724,1705.2732183145533,166.36811885995644,72.56746813464656
2025-02-19 14:39:30.892,653,-209,675,0,12,-32,-5,-5,7,650,98,e,17.204074014928747,42.74173521632812,1331.6948141477442,-426.223914482203,-26.560489356397056
2025-02-19 14:39:30.999,856,102,559,-5,-28,56,-2,-5,6,386,99,e,-10.3409212504074,56.42300752980262,1689.143391882761,201.276432210329,14.926219553196916
2025-02-19 14:39:31.109,997,-28,705,-35,77,30,-1,-4,9,706,72,e,2.274381702418476,54.713764950359725,1813.276393183034,-50.924512546765264,127.79352337608896
2025-02-19 14:39:31.217,614,-160,676,4,-14,-9,-4,-1,6,444,38,e,13.316083049107263,41.47231215208752,1276.258042420824,-332.57538564712036,-53.13100435908325
2025-02-19 14:39:32.033,762,-90,625,3,-2,0,-2,-4,5,477,76,f,8.194263334630211,50.35246705105952,1531.9841666237417,-180.94301180595377,-6.548693096901047
2025-02-19 14:39:32.132,744,-107,619,-1,-10,2,-1,-4,7,578,85,f,9.807202347586266,49.82466635611884,1508.0738332725864,-216.8869625808693,-16.701213435122213
2025-02-19 14:39:32.233,759,-33,609,-7,1,-6,-2,-3,8,505,102,f,3.1016640298684615,51.216428576287136,1538.5176007246218,-66.89206959672268,-16.46273892133661
2025-02-19 14:39:32.344,774,-234,617,6,-8,-43,-1,-8,7,569,90,f,20.769455259586874,49.55036901834196,1534.9766048593742,-464.0626944923689,10.381698710292198
2025-02-19 14:39:32.451,769,70,678,-11,30,43,-2,-8,6,766,93,f,-5.894608147035543,48.447789329402184,1517.3515986519064,138.1204316068055,18.204962436940832
2025-02-19 14:39:32.557,852,75,390,1,-4,-14,-3,-6,7,0,93,f,-10.885527054658738,65.00817879059852,1758.3681052176398,154.78592475507392,-24.886808726384402
2025-02-19 14:39:32.667,717,-12,649,10,-1,16,-3,-7,9,785,95,f,1.059277376284607,47.844981146616504,1458.331715026325,-24.40722535608912,-22.024104675153126
2025-02-19 14:39:32.769,673,-87,638,-13,24,13,-2,-7,5,634,58,f,7.765166018425334,46.26567903338878,1395.553168080989,-180.40583302087077,-46.97610881971889
2025-02-19 14:39:33.592,788,-84,620,-7,-4,-1,-1,-3,8,361,79,g,7.715673563548468,51.55076166823647,1571.1593716117702,-167.4839939281582,3.808616244546556
2025-02-19 14:39:33.687,747,-80,619,0,-9,-5,-4,-5,9,562,88,g,7.364126918190622,50.11990107288368,1514.3879061653688,-162.18344376603682,-16.894396139709784
2025-02-19 14:39:33.794,743,-86,641,-7,6,-22,-2,-7,6,220,97,g,7.64147755005842,48.962101449151454,1497.2754619602993,-173.30510057683136,-9.727551973824575
2025-02-19 14:39:33.901,904,39,619,-48,-8,43,-3,-5,8,0,97,g,-3.605146491402629,55.54628422836519,1728.5834695313197,74.5738443713733,54.37923933640843
2025-02-19 14:39:34.008,757,-193,714,5,22,-30,-3,-7,6,752,95,g,15.126028466046185,45.66514655109333,1472.2677500995023,-375.3602057717357,39.361725797827376
2025-02-19 14:39:34.122,733,-64,678,-29,-22,50,-2,-4,6,650,102,g,5.392472557648422,47.105524025422895,1465.6085253368658,-127.96581940185462,0.36210071160280677
2025-02-19 14:39:34.228,825,-243,409,85,47,-28,-2,-4,10,0,109,g,30.715903228021386,60.02982597508117,1691.2855671669595,-498.16047614735874,-20.467632692467987
2025-02-19 14:39:34.326,598,-168,715,-8,7,0,-2,-2,5,0,48,g,13.22265267338294,39.15215087601684,1229.3819070125694,-345.3781946122268,-39.91314968894153
2025-02-19 14:39:35.249,744,-123,638,-5,-1,-8,-2,-4,6,468,62,h,10.912171605205906,48.868710269123675,1497.2042815264258,-247.52167557493334,-7.892918835832916
2025-02-19 14:39:35.342,768,-100,629,-3,-4,-6,-2,-6,7,561,68,h,9.03342531329666,50.33120971353885,1537.747385546267,-200.22752415967017,-1.4311269643254718
2025-02-19 14:39:35.454,758,-91,626,-4,1,-16,-2,-6,8,571,75,h,8.271003830598664,50.153725892865126,1525.766297748542,-183.17247110173793,-8.065570436131111
2025-02-19 14:39:35.558,820,-106,687,-5,-4,-17,-4,-6,7,495,99,h,8.771228772828689,49.71142602085348,1582.7972984367666,-204.60550443206984,47.924702407245604
2025-02-19 14:39:35.666,802,97,591,-4,-12,51,-4,-6,7,86,101,h,-9.32077376813079,53.24882891184161,1603.2415831612416,193.9082712801003,0.5588832315538639
2025-02-19 14:39:35.776,800,-25,480,33,10,-62,-3,-5,8,119,100,h,2.981461219982192,59.001994108543954,1657.1852254443775,-51.78703829513681,-34.31113526662671
2025-02-19 14:39:35.883,731,11,651,-7,-15,43,-4,-3,9,702,102,h,-0.9680393293372962,48.30892866520495,1477.7418391291064,22.236881300164388,-14.019066037001608
2025-02-19 14:39:35.990,1050,-125,603,-1,38,14,-1,-5,7,673,90,h,11.711361303360183,59.60858898090956,1912.5895170114059,-227.68922821564357,107.62716308773548
2025-02-19 14:39:36.099,674,-129,649,0,-18,-13,-2,-2,8,536,60,h,11.242006270499058,45.52776208034724,1387.5899837840202,-265.5773114364074,-38.12151257541382
2025-02-19 14:39:37.620,773,-103,605,-1,-1,-2,-4,-3,10,428,88,i,9.661851305978844,51.55300979233689,1556.1837695050103,-207.35695764426396,-7.970479366793256
2025-02-19 14:39:37.709,779,-90,601,-1,0,-4,-3,-4,9,436,91,i,8.516779659164955,52.04204666053638,1567.462346193543,-181.09321072839396,-7.300218308497392
2025-02-19 14:39:37.814,770,-89,606,-1,-1,-8,-3,-5,8,415,95,i,8.354998047863006,51.49931837751198,1552.60075101638,-179.45645044215297,-9.916954696007906
2025-02-19 14:39:37.924,792,-72,604,-2,2,-9,-4,-5,10,360,101,i,6.797882500286341,52.47481580555221,1585.085684332891,-144.09869857571738,-0.827971385184469
2025-02-19 14:39:38.031,778,-91,618,-4,0,-7,-4,-4,9,381,100,i,8.37656219033901,51.23867404104046,1557.7607382621327,-182.2059475345168,-1.3986327069384288
2025-02-19 14:39:38.139,808,42,572,-15,-17,41,-3,-4,8,218,107,i,-4.199496440228173,54.631854389198395,1623.4497291975204,84.387238398881,-5.273818194284104
2025-02-19 14:39:38.249,1014,-82,616,-24,75,-15,-3,-4,8,541,77,i,7.582457962668596,58.49778892169806,1866.6200001879824,-150.94954636628657,98.03755412643261
2025-02-19 14:39:38.353,827,23,443,16,3,6,-4,-7,7,124,103,i,-2.972055914234728,61.791221285693176,1708.231038688668,47.508239286383755,-29.050000168173938
2025-02-19 14:39:38.464,633,-94,616,-12,27,41,-3,-5,7,754,60,i,8.676255294422269,45.45015343153437,1345.6403975434487,-199.82653612809509,-77.5015559032613
2025-02-19 14:39:38.570,826,-111,623,13,-27,-12,-1,-4,8,730,74,i,10.102388726547838,52.54372425158312,1619.8176746533327,-217.67525652121057,24.273109795367645
2025-02-19 14:39:39.283,806,-78,597,-2,1,1,-2,-4,8,748,100,j,7.4437164091170205,53.24063761408442,1607.1560330860473,-155.53122900832716,3.5879010516497374
2025-02-19 14:39:39.385,780,-83,605,-2,-2,-2,-4,-3,9,744,96,j,7.8116483133125065,51.94238726122221,1567.391288030386,-166.78650885451543,-5.732986228696859
2025-02-19 14:39:39.489,796,-85,596,0,-4,-3,-1,-4,8,733,101,j,8.116643162598734,52.89905408496304,1593.5739701556972,-170.1680747025556,-1.17850026733106
2025-02-19 14:39:39.599,673,-151,723,-3,-26,54,-2,-3,9,627,106,j,11.796767529974602,42.339258748280166,1346.5191465807707,-302.11648013922195,-0.5577161632943444
2025-02-19 14:39:39.698,551,-49,519,0,71,-62,-4,-2,11,7,118,j,5.393440887921946,46.58610533152976,1277.4080255866165,-113.598898827122,-165.22098961788402
2025-02-19 14:39:39.813,246,-348,750,49,-9,-38,-2,-6,9,611,103,j,24.891300124865822,16.569394565731812,531.1764237210841,-751.4203067273875,-119.44031622281773
2025-02-19 14:39:39.918,1042,-45,586,19,35,37,-3,-4,10,762,89,j,4.391228416565695,60.57544671972832,1913.003361404375,-82.61530831400853,96.16509617757788
2025-02-19 14:39:40.028,631,-139,668,12,-25,-7,-2,-2,8,647,56,j,11.75458754422345,42.76269576727585,1309.963442207963,-288.5656394087272,-50.77587859733626
2025-02-19 14:39:40.949,761,-106,627,-12,-2,-9,-4,-7,6,248,72,k,9.595636862895297,50.11762985870746,1528.3624889572864,-212.8862336786759,-5.2421558163187
2025-02-19 14:39:41.044,747,-104,632,-5,-1,-6,-4,-7,7,266,76,k,9.344671902099691,49.38924047331159,1506.1490855998845,-209.6914389590201,-10.278744443275741
2025-02-19 14:39:41.147,762,-86,625,-2,3,-8,-4,-5,9,256,77,k,7.834699697290118,50.37733758849231,1532.261059842776,-172.93235058593007,-6.775803676817532
2025-02-19 14:39:41.249,646,-110,597,4,-27,-20,-5,-7,7,244,93,k,10.439918042944509,46.7804448452056,1374.7349477835864,-234.0879942046355,-76.45938672879447
2025-02-19 14:39:41.364,755,-56,627,-33,-16,70,-3,-6,8,0,101,k,5.103784143053766,50.1796899527525,1523.0565710380783,-112.96843440812236,-10.843006676655818
2025-02-19 14:39:41.474,803,-98,537,65,-27,-38,-2,-5,9,379,106,k,10.342398997888704,55.792640420281465,1630.0083684614365,-198.93003749591628,-16.055409543949395
2025-02-19 14:39:41.580,710,-64,640,-21,9,28,-2,-6,7,710,101,k,5.710593137499642,47.82643448958438,1451.1144284069833,-130.8046808704886,-28.04680870488619
2025-02-19 14:39:41.687,809,-165,571,20,11,-25,-1,-5,8,116,99,k,16.117534309196657,53.69575605155583,1614.8844291043379,-329.36456217826424,2.198999977037033
2025-02-19 14:39:41.789,838,-45,650,-1,-7,5,-1,-4,8,719,105,k,3.9603118304583846,52.13447275759519,1627.4535347402243,-87.39308957435573,37.65537281486172
2025-02-19 14:39:41.900,531,-197,683,-2,0,-9,-2,-3,5,410,47,k,16.08932702495884,36.75973944458363,1129.4607933557609,-419.0278272901787,-86.77160425985824
2025-02-19 14:39:42.615,768,-63,628,-1,0,-3,-3,-6,7,352,72,l,5.728658966796289,50.58620158770509,1540.5806903841535,-126.37575975807508,-3.7456686995420796
2025-02-19 14:39:42.715,769,-65,628,-1,0,-3,-2,-5,8,477,74,l,5.9092538306421645,50.61374230524353,1541.8857904138144,-130.3284478243146,-3.1733112872242373
2025-02-19 14:39:42.817,752,-60,627,2,0,-5,-3,-5,7,470,78,l,5.466205038735738,50.05094802756103,1518.6157138924293,-121.16614738503425,-12.186240173607985
2025-02-19 14:39:42.927,1404,-126,759,10,1,-6,-4,-8,8,298,96,l,9.42559414926587,61.27740249659231,2280.9566949401387,-204.7012418536022,284.91870978663434
2025-02-19 14:39:43.034,708,-85,682,13,1,64,-3,-7,6,0,96,l,7.104335685835606,45.850929013981535,1425.5300197559295,-171.1441407899068,-9.18004727901689
2025-02-19 14:39:43.146,738,-124,623,-10,-14,11,-3,-4,7,422,102,l,11.256864462477441,49.280358669153024,1495.9107484801311,-251.3454374140058,-16.808125071980612
2025-02-19 14:39:43.251,616,-170,670,-16,32,5,-2,-4,4,544,52,l,14.237280465761083,41.70627606264238,1281.3121358845262,-353.6088686694309,-53.63495299128658
2025-02-19 14:39:43.359,817,-90,643,4,-11,-8,-1,-4,5,509,57,l,7.967862505990204,51.52591378583436,1599.8896282688888,-176.24243151064871,26.84573931836519
2025-02-19 14:39:44.173,757,-83,630,1,-2,-2,-1,-4,7,454,73,m,7.505267745087761,49.989096910972165,1522.9221101086478,-166.97824985339201,-7.425269971529929
2025-02-19 14:39:44.271,761,-77,637,3,-2,0,-2,-4,9,487,77,m,6.892423122485141,49.86409558374887,1525.5176105034632,-154.3559211678931,-2.944438752570022
2025-02-19 14:39:44.378,741,-70,645,3,-1,0,-3,-5,7,453,75,m,6.193904967150984,48.796022578491836,1493.3691814526157,-141.0740117431621,-9.896251061993667
2025-02-19 14:39:44.489,699,-141,662,32,-19,-16,-3,-5,8,192,95,m,12.023809909253117,45.92236185183551,1417.3978494348728,-285.9128709160474,-18.371067705130145
2025-02-19 14:39:44.595,725,-74,675,-34,-18,49,-4,-6,6,5,98,m,6.25633068762603,46.87468087716974,1454.8602652523196,-148.49608224644362,-4.525074545262896
2025-02-19 14:39:44.699,739,-106,535,29,5,-59,-2,-6,6,182,98,m,11.206919676866184,53.571778289257,1543.6014042683123,-221.40967368395275,-47.49222095202572
2025-02-19 14:39:44.812,690,-85,661,-23,-19,43,-2,-7,8,626,100,m,7.327624812173468,45.99494996245103,1409.2785705068522,-173.60678042475718,-28.048021891346707
2025-02-19 14:39:44.913,867,28,543,22,-5,-43,-4,-4,6,557,102,m,-2.95186403032021,57.90695467809748,1714.18641738037,55.36011497883548,12.409198803297727
2025-02-19 14:39:45.024,772,63,617,-14,-14,49,-2,-5,8,719,103,m,-5.830093226323564,51.222361091840234,1551.582453173157,126.6187753237162,-6.06006944020487
2025-02-19 14:39:45.131,915,-77,569,-18,68,25,-2,-3,7,748,70,m,7.70674223024461,57.890655956323464,1762.0352473372518,-148.28056179777963,42.26441996186213
2025-02-19 14:39:45.234,656,-141,642,12,-25,-16,-2,-2,7,599,52,m,12.386986762371087,44.94322778952731,1362.4057889429937,-292.8341710990276,-49.330055642381126
2025-02-19 14:39:45.949,751,-98,623,0,-1,-5,-2,-4,8,403,74,n,8.939565003151525,49.97775899219632,1516.7948688776748,-197.93062203729977,-12.273240094262974
2025-02-19 14:39:46.049,758,-95,631,4,0,-3,-2,-6,6,343,77,n,8.561844293966463,49.908138442730454,1523.0128862105823,-190.87892373351625,-5.837903956302739
2025-02-19 14:39:46.149,762,-57,630,3,0,-5,-5,-4,9,386,82,n,5.169827887557858,50.30228229419729,1531.4249988251552,-114.55541329794465,-6.138778556230477
2025-02-19 14:39:46.266,749,-68,624,3,5,-12,-3,-5,7,236,85,n,6.219229688791156,50.035545743481606,1515.4430748457912,-137.58361694194102,-14.53201429075284
2025-02-19 14:39:46.368,729,-192,673,7,5,21,-4,-7,7,0,95,n,15.922904918952218,46.16864331792504,1450.3813257508173,-381.9934355886926,7.033426295884851
2025-02-19 14:39:46.475,928,-42,548,6,-8,-3,-2,-4,8,0,99,n,4.382714348011048,59.36390141576068,1788.4211401686425,-80.94147401625321,39.906481883172546
2025-02-19 14:39:46.590,662,-96,743,-23,-23,35,-1,-5,9,753,98,n,7.362166399898479,41.46501278969201,1324.1625808728568,-192.02357668246864,-0.1824736986895914
2025-02-19 14:39:46.696,951,-37,568,21,24,-13,-3,-6,7,759,98,n,3.727029776369782,59.09813379032831,1809.0481784578978,-70.38357792107489,55.51696596836382
2025-02-19 14:39:46.803,472,-217,727,-4,-9,-9,-2,-3,7,575,40,n,16.619676859988942,31.886607978242747,1000.2398859996081,-459.8560492837181,-86.62372271549793
2025-02-19 14:39:47.720,759,-86,632,1,-3,-3,-3,-6,5,390,73,o,7.748983056134844,49.958039394381245,1524.5734917604077,-172.74482251830707,-5.473579436861314
2025-02-19 14:39:47.816,774,-87,617,5,-7,0,-3,-4,6,399,83,o,8.026070186113857,51.16442931427756,1552.9488030920015,-174.55626081266686,-3.9449761082235
2025-02-19 14:39:47.922,752,-69,605,14,-8,5,-2,-3,8,534,90,o,6.506446714951135,51.00163796664079,1529.1639520946792,-140.30892645549582,-20.24493486340532
2025-02-19 14:39:48.029,731,-100,636,-6,10,-43,-3,-5,9,365,95,o,8.935613842581752,48.628659109597194,1481.441761212167,-202.6596116569312,-16.915130138082304
2025-02-19 14:39:48.139,955,223,537,-30,-59,114,-4,-4,7,423,98,o,-22.551646695368248,58.664408405165524,1809.1359449501551,422.44745101977446,56.71622781336822
2025-02-19 14:39:48.245,726,-212,632,2,6,-45,-1,-6,6,748,4,o,18.543669336671954,47.44201576510581,1462.5932514026647,-427.0933461396211,-9.22167339736086
2025-02-19 14:39:48.349,747,-22,593,-47,55,54,0,-6,5,538,51,o,2.1246700122941355,51.536786991528274,1530.0076836060575,-45.060467254796876,-28.58441282247918
2025-02-19 14:39:48.462,618,-157,690,22,-36,-15,-2,-2,6,485,41,o,12.81862141218664,41.13169093192548,1275.7919494975167,-324.10895804386746,-44.427904778780544
2025-02-19 14:39:49.981,756,-93,619,-7,-1,-3,-3,-4,8,259,79,p,8.544343881163979,50.37617493070997,1526.2481187617204,-187.75274476830685,-11.666118404106896
2025-02-19 14:39:50.069,763,-79,624,-3,-1,-1,-3,-4,7,273,82,p,7.215405987206311,50.499451878198926,1534.6184982909513,-158.8923477915926,-7.048417999415051
2025-02-19 14:39:50.182,773,-84,622,-5,-2,-3,-2,-5,7,275,84,p,7.6911617519411255,50.92472382841417,1549.3184791182584,-168.36061092617553,-2.6702380485855883
2025-02-19 14:39:50.288,782,-92,617,-8,-3,-2,-3,-5,7,310,86,p,8.480808934699837,51.41974526564204,1563.7354273291974,-183.96887380343497,0.20874851391977245
2025-02-19 14:39:50.398,783,-114,609,-11,-4,-1,-5,-3,9,402,92,p,10.602613105475958,51.64587318835443,1567.190520715863,-228.17333251801838,-0.9259605567822291
2025-02-19 14:39:50.499,740,-121,613,-4,-1,7,-3,-5,8,652,88,p,11.166063901274496,49.82351926777274,1504.0609173385371,-245.9342851323824,-19.931543687193653
2025-02-19 14:39:50.609,779,-122,605,0,-2,-2,-3,-4,8,699,90,p,11.400964776692536,51.61127399445678,1562.815664360755,-244.7541862028397,-3.7400217435903187
2025-02-19 14:39:50.718,756,-122,606,0,-9,-7,-5,-2,10,687,100,p,11.382642815080823,50.72816190061325,1530.1514342676583,-246.92919970986014,-14.549959214551336
2025-02-19 14:39:50.828,795,-157,593,-9,-6,-15,-3,-5,8,428,105,p,14.829135626414626,52.34580058525921,1586.71211711094,-313.35069482568247,2.452471136116401
2025-02-19 14:39:50.931,871,37,520,-20,-19,43,-3,-5,7,0,114,p,-4.069955777354629,59.09845316194332,1729.0510411235696,73.44992941627105,7.730721717271763
2025-02-19 14:39:51.042,819,-388,604,28,1,-52,-4,-4,8,541,102,p,32.71604455889283,48.76415766893538,1571.0027075155294,-744.260134940202,49.40948066009787
2025-02-19 14:39:51.149,747,-33,673,-19,-8,53,-3,-5,6,440,108,p,2.8072029061532353,47.94892363878928,1489.5480333442476,-65.80332677424386,4.01094184648116
2025-02-19 14:39:51.255,905,-57,594,-34,74,37,-2,-4,6,384,64,p,5.481296594697345,56.6003958047784,1739.8516660176033,-109.58181763867779,46.042110923252494
2025-02-19 14:39:51.361,689,-164,661,26,-42,-24,-2,-2,7,479,58,p,13.934221176333544,45.332840671065625,1400.2025273459185,-333.28478154532746,-21.300247569886892
2025-02-19 14:39:52.179,781,-97,614,-1,0,-1,-4,-4,6,452,82,q,8.977418433862647,51.482957479790144,1563.4229564443967,-194.1767308260006,-1.1186879089110562
2025-02-19 14:39:52.275,779,-87,607,1,-3,-2,-2,-3,8,454,85,q,8.156530294861582,51.79134741309663,1564.7634945718823,-174.7553581871037,-5.27014275370027
2025-02-19 14:39:52.386,689,-107,604,12,-24,-12,-2,-5,8,561,100,q,10.045855936880791,48.32189641222497,1435.892355173753,-222.99053991812997,-50.75033748178032
2025-02-19 14:39:52.492,776,-155,624,-13,4,-27,-3,-4,8,386,103,q,13.94979196127706,50.35620831746111,1546.0258288474706,-308.8067055043273,4.803972679353251
2025-02-19 14:39:52.598,824,108,531,-9,-20,39,-2,-4,8,135,104,q,-11.49656301758578,56.670626015074426,1659.5257825029034,217.51066081348733,-7.427415666312754
2025-02-19 14:39:52.709,766,-263,623,11,-1,-31,-2,-5,6,664,103,q,22.88708254874996,48.56137550396641,1515.6650926074778,-520.3915396289382,13.285440346659925
2025-02-19 14:39:52.811,881,107,474,14,-2,13,-2,-2,8,0,110,q,-12.720645539762003,61.120499383496615,1756.6373805735689,213.34869434888978,2.885223164731201
2025-02-19 14:39:52.922,1124,-97,722,-21,74,33,-1,-2,9,766,80,q,7.6518143923099915,57.05192388440757,1963.1637986611408,-169.4189399200451,182.9641791518295
2025-02-19 14:39:53.025,653,-175,655,0,-14,-8,0,-2,5,558,42,q,14.95863607372087,43.92500609786393,1346.7162386465302,-360.9117025469261,-40.84094381849491
2025-02-19 14:39:53.845,770,-94,619,-1,-1,-4,-3,-3,9,432,74,r,8.634840912383012,50.88500809897209,1545.8813591105409,-188.7179840992089,-4.7280016745776265
2025-02-19 14:39:53.938,768,-96,616,-1,0,-3,-3,-3,8,416,76,r,8.85795876362835,50.93151127033347,1544.393145873858,-193.04914323423225,-6.732002419656965
2025-02-19 14:39:54.049,709,-82,623,4,-6,-15,-1,-5,7,317,84,r,7.49823663738308,48.450035446604886,1457.377600945204,-168.5542500387965,-34.60119236792946
2025-02-19 14:39:54.159,775,-160,597,-9,3,-20,-3,-5,7,279,100,r,15.00307418654666,51.42735627556302,1556.8182590580457,-321.40764057972547,-5.252258913100832
2025-02-19 14:39:54.257,791,13,606,-6,0,23,-2,-3,9,0,105,r,-1.228928889969874,52.53723107363186,1584.7487488782929,26.04517539243718,-2.1058682936100013
2025-02-19 14:39:54.368,793,-5,651,-1,-4,-15,-4,-5,7,651,4,r,0.4400510977564603,50.61546335701276,1565.9048505451983,-9.87329666169734,16.496774647006305
2025-02-19 14:39:54.478,692,-115,600,-21,45,22,-2,-4,8,743,61,r,10.850104629797377,48.56082649597902,1441.6587510408808,-239.58201787529094,-49.9931367406482
2025-02-19 14:39:54.585,787,-91,641,11,-17,-9,-1,-4,7,613,59,r,8.080040523721136,50.557504945918886,1559.2625949606556,-180.29592902340488,12.003401054917163
2025-02-19 14:39:54.691,755,-92,633,-6,-3,0,-4,-3,8,476,65,r,8.269446225936408,49.72808023313853,1517.9852249249755,-184.97303403059306,-6.694897188754226
2025-02-19 14:39:54.798,770,-82,624,-1,-3,0,-3,-5,7,440,69,r,7.486356639980597,50.738918792124444,1544.2702621353205,-164.4547551884367,-3.460576068103819
2025-02-19 14:39:54.905,772,-92,627,-1,-1,0,-1,-5,7,434,71,r,8.347469812030592,50.61836475459378,1544.9369810730814,-184.11166095689575,-0.7609936953655279
2025-02-19 14:39:55.011,786,-85,621,0,-1,-1,-4,-4,8,430,71,r,7.79398475973231,51.42963404816194,1567.8430457067104,-169.55045659678166,3.284311216454171
2025-02-19 14:39:55.117,764,-89,607,0,-1,-1,-2,-4,8,438,71,r,8.34142746139944,51.23562611485755,1543.7274321161624,-179.83212232766815,-12.495485987579286
2025-02-19 14:39:55.219,780,-82,616,-1,0,0,-2,-5,7,430,72,r,7.582457962668596,51.4553161124134,1562.1224315918548,-164.22312742375908,-1.676176744336658
2025-02-19 14:39:55.334,777,-90,619,0,-1,-1,-3,-3,7,429,72,r,8.272596651067731,51.164879406401624,1555.9537292101336,-180.2263006807105,-1.556445792886393
2025-02-19 14:39:55.441,774,-84,622,-1,-1,-1,-2,-5,7,433,72,r,7.6911617519411255,50.96096648372763,1550.7170482105428,-168.2948734492062,-2.183467683407571
2025-02-19 14:39:56.458,780,-79,611,0,-2,-2,-2,-4,7,445,78,s,7.367255970534083,51.69641939402977,1564.7376369244075,-158.47983758593358,-3.7111489241191293
2025-02-19 14:39:56.555,783,-67,614,0,-1,-2,-2,-4,7,473,79,s,6.2275057523426804,51.73297738845618,1568.1329630285777,-134.18251407779658,-1.6725916980165039
2025-02-19 14:39:56.661,776,-76,615,-3,-2,-2,-4,-5,9,494,83,s,7.044738087464761,51.39073475764755,1557.4195752645837,-152.53078314446952,-4.295153076957263
2025-02-19 14:39:56.768,803,-91,613,0,-4,-3,-4,-5,6,566,87,s,8.443905402753009,52.340726937760806,1594.6580181784689,-180.7146695569622,8.658324852551232
2025-02-19 14:39:56.874,790,-86,604,-3,0,0,-3,-5,7,622,88,s,8.103539639548563,52.32223600493621,1581.460801821939,-172.15902399580602,-1.1168662031026315
2025-02-19 14:39:56.981,765,-76,609,0,-2,1,-4,-5,9,710,87,s,7.113436765487691,51.261551149970416,1545.0106569196687,-153.49125480509124,-11.949660214481128
2025-02-19 14:39:57.089,781,-91,607,-3,-1,1,-4,-4,8,742,88,s,8.526149821710872,51.836401308817585,1567.2496234351488,-182.61167187272548,-4.080053041146698
2025-02-19 14:39:57.196,775,-87,604,2,-5,2,-3,-5,8,778,90,s,8.196493725962997,51.783170184045915,1560.6752106524327,-175.1983784861441,-8.31977707621877
2025-02-19 14:39:57.299,795,-82,587,-8,0,-9,-3,-3,7,764,91,s,7.952378005600961,53.29420836909199,1596.7152303879666,-164.69264011548836,-4.958289607215534
2025-02-19 14:39:57.416,835,-116,480,25,15,-5,-2,-5,7,494,103,s,13.585991207888908,59.3999920318052,1695.7419562109171,-235.5761280484627,-14.797771235018047
2025-02-19 14:39:57.523,811,-21,592,-12,-15,29,-3,-5,8,685,107,s,2.0315997816741773,53.854780838883734,1618.5246248466833,-41.91000878148008,2.5368953030376815
2025-02-19 14:39:57.629,986,-22,589,-25,79,39,-2,-2,7,297,66,s,2.1390856518044292,59.12987730764772,1844.332578930945,-41.15143685241459,76.26380426944581
2025-02-19 14:39:57.729,658,-137,662,14,-38,-16,-2,0,5,454,53,s,11.692231102485419,44.225781146168245,1355.4876175828645,-282.22158603169055,-39.727663890358826
2025-02-19 14:39:58.451,777,-84,622,-3,0,0,-4,-4,6,433,76,t,7.6911617519411255,51.069356136360945,1554.9071797854956,-168.09807349032383,-0.7262108450170217
2025-02-19 14:39:58.545,780,-67,631,0,2,-5,-2,-3,8,369,75,t,6.060994194867996,50.87089062250292,1555.725889254306,-133.63286484620318,3.457646000683212
2025-02-19 14:39:58.656,773,-84,622,-3,0,-3,-2,-4,8,332,76,t,7.6911617519411255,50.92472382841417,1549.3184791182584,-168.36061092617553,-2.6702380485855883
2025-02-19 14:39:58.760,769,-88,628,-3,-1,-4,-3,-6,7,306,77,t,7.976768787526629,50.49019959359504,1540.5157713278381,-176.28789060708675,-2.0544920596646534
2025-02-19 14:39:58.869,794,-83,607,-4,2,-4,-2,-4,7,276,78,t,7.786225996714231,52.34631493961878,1585.7176011859283,-165.76141171087158,1.7448565241077176
2025-02-19 14:39:58.976,730,-113,635,1,1,3,-1,-3,9,447,70,t,10.090316054465156,48.538478685595905,1479.4005540687522,-229.00309946543697,-16.875824429668
2025-02-19 14:39:59.082,775,-68,628,-1,0,-2,-3,-4,9,501,73,t,6.1799242491831095,50.817931379206996,1550.142251655966,-136.01248143562023,-0.11526972896342613
2025-02-19 14:39:59.193,742,-70,628,-3,-2,-6,-3,-5,7,473,75,t,6.360218232166397,49.58219349132112,1503.3368466313877,-141.82423081428186,-16.365956448128713
2025-02-19 14:39:59.299,775,-19,599,-11,-7,-17,-3,-6,8,378,97,t,1.8167861999382742,52.285507496062564,1566.0688268401454,-38.39394543221001,-12.419648099673509
2025-02-19 14:39:59.402,878,50,585,24,-8,72,-3,-6,4,0,5,t,-4.8852025681173,56.22871011364987,1709.2631168892467,97.33844629209833,31.140178382449562
2025-02-19 14:39:59.510,617,-98,721,-7,22,-52,-1,-4,8,713,78,t,7.740341158837922,40.29657054206493,1263.744128585392,-200.7243510557024,-34.75772562409634
2025-02-19 14:39:59.619,906,-89,486,15,5,-15,-1,-6,6,1,93,t,10.377451508938638,61.394406758286266,1783.9362411138254,-175.24318483347727,15.054069336292628
2025-02-19 14:39:59.727,711,-15,694,4,-5,13,-2,-5,7,803,93,t,1.238188615781964,45.6865366738698,1426.5286007634109,-30.095540100493906,-4.420321982851419
2025-02-19 14:39:59.836,582,-150,657,-15,27,12,-1,-3,5,465,49,t,12.86079305909454,40.81461943438087,1235.6137355052713,-318.4571483261009,-80.8423096683216
2025-02-19 14:40:00.749,767,-36,635,0,0,-1,-3,-5,5,252,82,u,3.2447912932909726,50.333448125554646,1536.7723237455405,-72.13012210539694,-2.2952093590847653
2025-02-19 14:40:00.847,762,-29,641,0,0,-2,-2,-6,8,229,84,u,2.5903983545090856,49.90034803836779,1526.9253135788422,-58.111330831740716,-2.460795280889556
2025-02-19 14:40:00.949,742,-27,645,2,0,-6,-4,-6,4,116,87,u,2.3970285300595955,48.975637971402605,1496.4305572759476,-54.452324860445536,-10.805538332865467
2025-02-19 14:40:01.060,692,-136,619,-7,8,-5,-3,-7,5,0,93,u,12.391525597535972,47.5151719095378,1429.4562070946251,-280.9335898336258,-40.66097137510542
2025-02-19 14:40:01.167,801,32,607,-8,-19,2,-2,-5,7,641,4,u,-3.0177417436446707,52.80677106087362,1597.6013623565746,63.82427415157351,3.333299687339945
2025-02-19 14:40:01.275,693,-183,590,-7,5,-25,-3,-7,7,568,79,u,17.232295495486674,48.286709031798665,1439.4838479439418,-380.1234403661491,-45.53458915862279
2025-02-19 14:40:01.384,892,-35,552,5,13,-19,-4,-4,7,751,95,u,3.6280278577687586,58.197909580165806,1741.8734665924292,-68.34705306136213,26.069334575088646
2025-02-19 14:40:01.491,537,-183,710,-2,-7,-9,-1,-3,7,482,43,u,14.453208369269976,36.21909535993481,1127.8745760480754,-384.35949239627143,-71.2308174937308
2025-02-19 14:40:02.908,756,-88,631,-1,-1,-1,-3,-4,6,242,70,v,7.939329098511077,49.87802895338365,1520.674344462138,-177.0097120537938,-7.2400943857260245
2025-02-19 14:40:02.998,758,-100,651,4,0,-1,-2,-4,7,222,71,v,8.732934563491344,49.012213922140575,1512.8494172473465,-199.58435583738083,2.70584349865112
2025-02-19 14:40:03.112,765,-84,640,-1,-1,-1,-3,-5,4,199,72,v,7.4773303066608,49.84311611135553,1529.281530921523,-167.92110927765742,0.6010721702291448
2025-02-19 14:40:03.219,750,-76,631,-1,-2,-2,-5,-4,6,208,74,v,6.8678356154061735,49.72159700042495,1512.912075650208,-153.30842366588774,-10.863359647041534
2025-02-19 14:40:03.329,764,-80,633,-2,-1,-2,-3,-4,7,198,76,v,7.202984896534843,50.13390938497693,1531.5446468400305,-160.37116720838014,-2.936860536307904
2025-02-19 14:40:03.436,774,-74,621,-6,-1,2,-4,-4,6,250,76,v,6.795472659188612,51.0617226779832,1551.8234545606342,-148.36554991923373,-3.067655403299341
2025-02-19 14:40:03.538,724,-85,640,0,2,4,-3,-4,5,634,67,v,7.565321068432294,48.27533106886384,1470.3516954520087,-172.6241631400839,-19.75840481945511
2025-02-19 14:40:03.649,772,-91,625,-4,-1,0,-1,-4,8,615,66,v,8.284053921444,50.71265185183048,1545.9800517882181,-182.23339988695312,-1.6030212016012229
2025-02-19 14:40:03.749,749,-89,633,3,-7,0,-3,-4,6,581,72,v,8.003341986828309,49.52125284539796,1509.6468144284745,-179.38393389069995,-9.843035424865775
2025-02-19 14:40:03.860,724,-77,640,2,4,-10,-2,-3,6,515,76,v,6.860423519741007,48.31964155659904,1470.8661859156941,-156.43190098827137,-20.21320301939818
2025-02-19 14:40:03.969,799,-29,585,-16,-4,-12,-2,-4,7,256,95,v,2.8379803919219766,53.756188034602964,1605.508461939175,-58.27252239829295,-5.497434586254485
2025-02-19 14:40:04.079,744,16,651,-14,-30,57,-4,-2,6,684,97,v,-1.4079077616438647,48.80550134185574,1496.478150502731,32.182325817263035,-7.418381689889657
2025-02-19 14:40:04.179,769,-216,590,18,7,-57,-3,-3,8,697,102,v,20.10776399072347,50.75014498908206,1543.3942451638625,-433.5151585895895,-4.138627628971335
2025-02-19 14:40:04.292,826,4,591,-32,47,39,-1,-5,7,721,68,v,-0.3877827726655684,54.41579637560432,1639.2612207266498,7.938310996254961,9.114550303329565
2025-02-19 14:40:04.403,725,-117,648,9,-12,-6,-3,-1,7,543,49,v,10.234802763423215,47.752851263752056,1465.2515861919376,-236.4612904613196,-13.631762555000591
2025-02-19 14:40:04.505,776,-116,627,7,0,3,-2,-4,5,237,57,v,10.481659927583344,50.59001133123756,1548.6229059109867,-231.49517665679699,2.7286572085196212
2025-02-19 14:40:04.612,770,-58,641,11,-3,2,-1,-2,6,262,58,v,5.1702500740963515,50.108814866073416,1537.2638287584193,-115.79389878959525,2.2777737218871152
2025-02-19 14:40:04.722,735,-53,652,2,-6,-2,-4,-2,6,227,62,v,4.647260935180729,48.33089153014109,1481.9967386212254,-106.8650709481972,-10.642004872161806
2025-02-19 14:40:04.825,764,-64,648,2,0,1,-1,-4,5,185,64,v,5.640549432156823,49.55923505391975,1525.0769888415116,-127.75514042651406,2.479203181545131
2025-02-19 14:40:04.931,755,-72,646,2,0,0,0,-4,4,215,64,v,6.359660239728468,49.273946097596955,1512.8377314793197,-144.2706181013391,-2.4280457425701343
2025-02-19 14:40:05.041,744,-46,648,-1,-1,0,-2,-3,7,230,64,v,4.060481541616669,48.87385502618967,1497.2633430959515,-92.57273357851314,-8.068073019054623
2025-02-19 14:40:05.148,752,-64,642,-2,0,0,-1,-5,5,232,63,v,5.692920164737151,49.37189224734637,1510.9519638350291,-128.5916564965982,-5.935054231500999
2025-02-19 14:40:05.258,755,-64,645,-3,-2,-3,-2,-6,4,238,63,v,5.666614193486234,49.35391352351725,1513.747604527597,-128.3176777347897,-3.2015959209271614
2025-02-19 14:40:05.358,753,-58,650,-2,-1,-1,-2,-4,7,244,63,v,5.099042015538548,49.08637451947172,1508.6977442122543,-116.20779437491467,-2.3287300636987993
2025-02-19 14:40:06.179,763,-63,650,0,1,-2,-2,-4,6,0,63,w,5.535991272030463,49.440030956659285,1522.7257997031784,-125.72965318650097,2.789292520227832
2025-02-19 14:40:06.275,752,-65,639,1,-1,0,-2,-3,4,0,62,w,5.808231087083648,49.498732849761986,1512.3916022575502,-130.72533796109144,-7.130630109806702
2025-02-19 14:40:06.383,743,-53,649,-12,1,-3,-2,-4,6,75,63,w,4.668648137455753,48.76888023354838,1495.0570357650622,-106.6460604246949,-7.911192747678911
2025-02-19 14:40:06.491,777,-57,644,-17,-3,-4,-2,-4,5,0,67,w,5.058029746318093,50.23720834998395,1545.6990540580869,-113.39105029769749,6.880063303207294
2025-02-19 14:40:06.591,813,-85,639,-6,-1,-8,-4,-3,7,91,80,w,7.577022934647791,51.58906319150978,1596.574876299907,-166.92357255288084,23.127495749519312
2025-02-19 14:40:06.699,727,-125,655,-7,0,9,-1,-7,6,388,75,w,10.804394597539243,47.47224974198702,1463.950039465695,-251.7108045848857,-8.96461602480099
2025-02-19 14:40:06.815,757,-103,646,4,-2,-2,-4,-4,6,465,78,w,9.059141673578035,49.168141205091885,1513.6316100869994,-205.94987561289423,0.31437236961471626
2025-02-19 14:40:06.922,755,-103,649,13,8,-4,-1,-4,7,303,80,w,9.017955544927448,48.964961915382226,1509.3082393900904,-205.90562736050248,0.5946392527563376
2025-02-19 14:40:07.029,844,-84,653,1,-1,-7,-1,-7,6,164,94,w,7.330105866864773,52.043211923435045,1632.4748553886852,-162.47380077328148,42.95962017913337
2025-02-19 14:40:07.134,772,-88,651,-2,1,-12,-3,-5,6,139,96,w,7.69838775086157,49.60441858546436,1533.588287543048,-174.8131726733008,8.779824882740627
2025-02-19 14:40:07.242,785,81,622,-40,-29,46,-3,-4,7,390,100,w,-7.419593596569227,51.37349952661316,1566.2318317239315,161.6111826364821,2.9857333346682253
2025-02-19 14:40:07.351,751,-114,681,16,3,-40,-3,-5,6,629,101,w,9.50324775786055,47.40429856247475,1487.1478670370561,-225.74548181388064,13.467779690765497
2025-02-19 14:40:07.462,753,100,569,-12,-25,56,-3,-5,8,711,104,w,-9.96776418019114,52.50367354147423,1546.392369639389,205.36419251519112,-30.522255411437413
2025-02-19 14:40:07.568,727,-216,669,19,4,-12,-2,-4,8,770,105,w,17.89370924570427,45.96128548003075,1445.8702583893473,-429.5845609519932,7.481151495910012
2025-02-19 14:40:07.675,600,-177,665,-19,23,20,-1,-4,3,722,56,w,14.904600845960525,41.08516140381983,1257.180064125051,-370.86811891689,-63.37457107193154
2025-02-19 14:40:07.777,854,-86,595,-2,-8,-4,-3,-2,9,660,70,w,8.224449588709675,54.85593483835388,1671.707249226983,-168.34522650295145,25.285932915626404
2025-02-19 14:40:08.599,774,-91,612,0,-1,-3,-2,-4,9,491,77,x,8.457503245000368,51.361478838158796,1555.1008484003155,-182.8348542692877,-5.614624316528193
2025-02-19 14:40:08.691,762,-99,609,0,-6,-6,-3,-5,7,498,82,x,9.233323509277202,51.002775065521384,1539.1764410683159,-199.9717423435213,-12.12920290105535
2025-02-19 14:40:08.801,785,-84,604,-4,-2,-4,-1,-7,7,522,91,x,7.917503034828343,52.158797331840056,1574.714053023508,-168.50443369933083,-3.627118504711916
2025-02-19 14:40:08.906,780,-93,610,-2,-2,-1,-3,-6,8,599,92,x,8.668506620770334,51.65290263783357,1564.2666445901425,-186.508715316517,-3.336734871777935
2025-02-19 14:40:09.014,779,-82,610,4,-1,1,-2,-4,8,706,92,x,7.656159105651334,51.68778660273744,1563.6442381299125,-164.59413032946446,-4.41975001186961
2025-02-19 14:40:09.121,770,-89,614,-1,-1,0,-4,-5,7,729,90,x,8.247645388620159,51.14035282411374,1548.685223353719,-179.0038764655597,-6.925619661277096
2025-02-19 14:40:09.231,777,-90,604,-1,-2,-1,-3,-5,8,731,92,x,8.475093614986186,51.8350924274288,1563.2355075378055,-181.06974990785392,-7.179210492708421
2025-02-19 14:40:09.333,782,-75,588,3,-4,-1,-4,-3,7,756,93,x,7.268884921647515,52.837506679403404,1578.9255270091328,-151.4314763755562,-11.222774784360695
2025-02-19 14:40:09.445,783,-103,648,-5,-5,-6,-4,-5,7,766,103,x,9.031642926619172,50.03781371652409,1549.4684992741265,-203.8253581420626,13.681241980033292
2025-02-19 14:40:09.550,843,14,547,-2,22,21,-1,-7,7,0,104,x,-1.4661166941735622,57.01297973240801,1681.7939284427011,27.930148277814734,2.729206573952979
2025-02-19 14:40:09.657,605,-302,645,2,16,-45,-3,-5,7,157,93,x,25.089795015881588,40.34724691076639,1252.41846663407,-625.17417673304,-45.222993353678135
2025-02-19 14:40:09.768,723,138,616,-19,-41,62,-2,-6,7,685,104,x,-12.627253968823752,48.875012941400996,1476.2766350709358,281.7789427936225,-25.795860586025128
2025-02-19 14:40:09.873,800,-117,465,-10,85,14,-2,-6,7,552,61,x,14.123186920939592,59.06292490848459,1657.7324225894085,-242.443366803701,-33.55697063009376
2025-02-19 14:40:09.985,710,-113,648,15,-30,-18,-1,-2,7,369,53,x,9.891925100730312,47.186464319481175,1443.5693313267514,-229.75117526749705,-21.511164365823674
2025-02-19 14:40:10.799,761,-64,625,-1,0,-3,-4,-5,5,314,80,y,5.846708923984534,50.45751708675002,1532.1527404952112,-128.8538441415158,-8.338321694490105
2025-02-19 14:40:10.894,767,-54,627,-1,-1,-4,-4,-4,5,286,82,y,4.922418187135993,50.631230577651856,1540.079435315202,-108.42801761019678,-4.969760029506801
2025-02-19 14:40:10.999,744,-56,625,2,-6,-12,-2,-7,7,272,94,y,5.120029582126352,49.855078170695585,1508.4161511533841,-113.53669954917945,-17.150664611377692
2025-02-19 14:40:11.108,722,-196,612,3,7,-25,-4,-5,7,124,97,y,17.75825848264268,48.32916216517068,1468.9766717115263,-398.7803707139323,-21.171361616972376
2025-02-19 14:40:11.219,906,85,547,-6,-22,20,-4,-5,6,673,98,y,-8.83272359961535,58.5751245301315,1759.324515894134,165.05803957064174,31.802968880693697
2025-02-19 14:40:11.325,708,-117,698,3,-2,-19,-2,-5,7,640,5,y,9.515558689349495,45.01060549129772,1415.2376550620793,-233.87401926873346,0.7515773540516193
2025-02-19 14:40:11.430,789,37,580,-28,-14,48,-2,-1,9,420,109,y,-3.650129477924706,53.624565516075094,1594.1481512040693,74.75726437839108,-11.870630796400746
2025-02-19 14:40:11.539,686,-91,506,-43,67,30,-1,-1,5,0,52,y,10.195199147044267,53.150543696218776,1486.2140103154043,-197.15083810306385,-84.24531956209137
2025-02-19 14:40:11.649,789,-77,675,10,-36,-21,-1,-3,3,284,59,y,6.507831714745713,49.269520005043844,1546.7873280632593,-150.95389640161085,26.702856219645128
2025-02-19 14:40:12.459,760,-60,633,3,-2,-3,-2,-4,7,426,71,z,5.414702070955663,50.083205357386696,1526.9770959832051,-120.55082336709513,-5.811186522853859
2025-02-19 14:40:12.557,763,-58,627,0,0,-5,-3,-5,7,436,74,z,5.285047606387522,50.468348658487315,1534.273083259941,-116.62888444177798,-6.798457672324048
2025-02-19 14:40:12.668,720,-54,640,14,7,-16,-2,-4,5,384,80,z,4.822908056465171,48.26552775856157,1466.2378085932355,-109.96783564449264,-23.322496527320254
2025-02-19 14:40:12.771,849,-71,541,86,7,-19,-1,-6,8,48,4,z,7.47667959537404,57.27177659933434,1690.244562197051,-141.35142981859906,4.941922086449267
2025-02-19 14:40:12.878,586,-123,710,-17,3,43,-1,-6,6,755,91,z,9.828340917355362,39.119350881847176,1216.937870733016,-255.4323517067594,-54.44690822600933
2025-02-19 14:40:12.988,901,140,673,-9,-52,36,0,-5,6,581,90,z,-11.751289235298652,52.6586012585007,1696.0354197544953,263.53491538915574,79.1500138792727
2025-02-19 14:40:13.098,791,48,779,-20,65,-25,-1,-4,7,767,78,z,-3.5259624590553402,45.38364568351113,1502.825596758853,91.19548501191522,77.9732744941258
2025-02-19 14:40:13.205,954,124,608,-2,-35,-2,-1,-7,7,461,87,z,-11.527235273495739,56.9585758853033,1792.276581742658,232.95838169401418,73.75245104870464
2025-02-19 14:40:13.306,791,24,619,-9,7,9,-3,-4,7,802,91,z,-2.2203720101574156,51.93402291672311,1578.30128645467,47.88777607447798,2.894442079088776
2025-02-19 14:40:13.414,651,-72,675,3,-7,1,-1,-4,5,604,5,z,6.088528154195175,43.801154623507976,1343.1577186288712,-148.55200574697193,-42.67505387786184
2025-02-19 14:40:13.523,778,-39,642,-8,4,1,-1,-5,7,522,61,z,3.4763127492011394,50.41898442349782,1548.7244049847004,-77.6352850827806,6.00376863730412
2025-02-19 14:40:13.630,748,-32,625,-9,-1,-3,-2,-4,7,307,60,z,2.9309845655843816,50.082261108001575,1514.9665209163682,-64.81140196433661,-15.847694615949308
2025-02-19 14:40:13.737,764,-42,629,-5,0,-5,-1,-5,5,388,61,z,3.8201206060852724,50.47287699279999,1535.3233865571024,-84.40259454895063,-6.029332649760704
2025-02-19 14:40:13.848,769,-22,637,-8,2,-10,-1,-7,5,314,60,z,1.9780319173138365,50.34662124707203,1538.9190619888332,-44.026293060798864,-0.7613036240398969
2025-02-19 14:40:13.955,777,-60,642,-5,-2,-4,-2,-4,8,317,65,z,5.339236803737584,50.31223287628264,1546.5359169734734,-119.42362293231454,6.167234624234425
2025-02-19 14:40:14.061,767,-28,641,-3,-1,-2,-2,-5,5,369,66,z,2.5011897330597344,50.08682585505967,1534.0176416086379,-56.00064402221885,-0.014743508652941273
2025-02-19 14:40:14.167,750,-37,626,0,-1,-1,-2,-3,6,380,68,z,3.3825564901942475,50.10021760225809,1517.1675879558402,-74.84693433915479,-14.329213413807906
2025-02-19 14:40:16.182,777,-36,625,-1,0,-1,-1,-6,6,527,78,0,3.2965943502797566,51.14129208721583,1555.6955086064056,-72.07855638330835,-1.3638260991033349
2025-02-19 14:40:16.281,774,-32,627,-1,-1,0,-3,-6,6,518,79,0,2.921651556703206,50.953390541570926,1550.6337594614242,-64.10888928005889,-2.1335493311538585
2025-02-19 14:40:16.388,771,-26,624,-2,0,-1,-3,-5,6,524,78,0,2.3859440303888126,50.99111704915906,1548.0483843359611,-52.20396626813877,-4.895190435330392
2025-02-19 14:40:16.493,761,-32,618,-1,0,0,-3,-6,6,528,78,0,2.9641245470437694,50.88277373415655,1536.856756123941,-64.62472561887795,-12.0650135145803
2025-02-19 14:40:16.604,761,-24,625,-3,-1,-1,-1,-7,6,516,78,0,2.199077467441056,50.58345151678676,1533.5502148996682,-48.364264333235255,-9.486050344668229
2025-02-19 14:40:16.710,767,-34,620,-1,-1,0,-4,-5,7,524,80,0,3.138882633883562,51.00779672240616,1544.2315912216295,-68.45355163172806,-8.270647402099712
2025-02-19 14:40:16.808,764,-36,627,-2,0,-1,-1,-6,5,587,81,0,3.2861019790753,50.57869245817767,1536.4974721941353,-72.40040444893833,-6.97371081900917
2025-02-19 14:40:16.924,763,-31,622,-1,0,-2,-2,-7,7,514,82,0,2.853216583818125,50.778161615952435,1537.7035333730682,-62.47550397714956,-9.540757218936392
2025-02-19 14:40:17.031,786,-34,619,3,-4,3,-2,-5,6,558,84,0,3.1439433621562585,51.73648761801829,1571.1709046776987,-67.96413582575286,0.6529389370286935
2025-02-19 14:40:17.138,768,-30,666,-2,-4,-7,-3,-5,6,707,92,0,2.5791475002834177,49.039835297786944,1523.165527480488,-59.498653417206555,11.129894138014379
2025-02-19 14:40:17.247,738,-124,644,12,18,-27,-2,-6,7,227,95,0,10.898725805752862,48.37386700765351,1485.495191491923,-249.5953980284532,-8.285776857450514
2025-02-19 14:40:17.354,873,212,530,-11,-36,56,-3,-5,7,448,97,0,-21.80140948635181,56.82057907840754,1709.9609292291825,415.24824398234455,21.879390044138745
2025-02-19 14:40:17.464,809,-259,533,-4,16,-52,-2,-5,6,524,97,0,25.916447418187012,53.777063042327356,1615.7238130193055,-517.2712825364649,1.4996386411744425
2025-02-19 14:40:17.567,689,2,591,-28,31,49,-2,-5,4,452,57,0,-0.19389360675342718,49.378004653928976,1448.0214248920895,4.203255224650476,-60.06191888421586
2025-02-19 14:40:18.488,763,-35,634,-1,0,-2,-4,-7,6,490,83,1,3.1598088820967734,50.23291673809127,1531.6511433013302,-70.25922675694176,-4.695707540030526
2025-02-19 14:40:18.578,740,-40,629,1,1,-3,-4,-4,7,414,84,1,3.6387109907582245,49.578399106404966,1501.2939078676882,-81.15102204690207,-18.09982168753504
2025-02-19 14:40:18.688,813,-48,631,6,-4,-7,-4,-6,7,258,95,1,4.350096657823328,52.10351909299274,1602.1218125954993,-94.59021771781546,18.532762917884384
2025-02-19 14:40:18.795,774,-13,611,-1,-2,-4,-2,-8,6,233,95,1,1.2188752351312977,51.70593111097831,1558.8405242513572,-26.182075988717884,-8.557571469740537
2025-02-19 14:40:18.899,694,-80,683,-1,-6,-5,-3,-5,8,714,90,1,6.680631587528822,45.262524919620446,1404.3392570367191,-161.8834878428495,-16.080277458327373
2025-02-19 14:40:19.008,832,65,656,5,-6,56,-1,-6,8,669,93,1,-5.658702634391995,51.6094189168775,1615.7955579099382,126.2340279617139,38.007348571010425
2025-02-19 14:40:19.115,769,-85,697,6,9,11,-1,-3,7,709,95,1,6.952957468173915,47.60120655746775,1507.469540191833,-166.62537180273836,27.67195121754571
2025-02-19 14:40:19.221,803,-26,501,10,5,-12,-1,-4,7,0,94,1,2.9707686058397926,58.00492103085204,1651.0936068353974,-53.46006697100913,-28.134367402906605
2025-02-19 14:40:19.332,696,12,651,13,-9,13,0,-4,10,794,103,1,-1.0560238059975422,46.90854591452356,1426.2641817512804,24.59076175433242,-32.048825172533725
2025-02-19 14:40:19.438,677,-58,551,-29,62,21,0,-4,5,658,56,1,6.009005957494525,50.70374328908269,1450.8815885697518,-124.30004746978669,-78.8504509629737
2025-02-19 14:40:21.549,770,8,628,-2,1,-2,-3,-5,8,478,79,2,-0.7298430640241027,50.79757464072653,1544.9177338904153,16.0510933391212,-4.010827121014017
2025-02-19 14:40:21.651,774,6,625,-3,0,-3,-2,-8,5,446,80,2,-0.5500225870469494,51.078058910678024,1552.0026166264315,12.03102803586381,-3.232087069146928
2025-02-19 14:40:21.756,756,9,623,2,-6,0,-3,-7,7,349,87,2,-0.8276503183599851,50.50601576134833,1527.6913640670173,18.18680195317878,-12.93084631448653
2025-02-19 14:40:21.867,811,10,571,21,1,-22,-4,-6,7,210,91,2,-1.0033261447174282,54.847673780546025,1628.6242442431894,20.08167995367681,-4.663925354946059
2025-02-19 14:40:21.974,742,39,661,3,-12,-2,-4,-7,7,738,89,2,-3.376623093176565,48.25476208761435,1488.1127166455663,78.21616704740848,-3.663754316333211
2025-02-19 14:40:22.080,746,85,616,-4,25,32,-2,-5,7,704,93,2,-7.8564607299861,50.186718360586376,1514.1351201874875,172.52209814468694,-18.277793613260542
2025-02-19 14:40:22.189,901,-45,566,54,-1,-10,-2,-5,6,135,89,2,4.545756202015598,57.781968882951105,1747.0254268060369,-87.25432209353126,34.53452655691797
2025-02-19 14:40:22.297,739,16,632,3,-4,10,-2,-5,6,735,100,2,-1.4502162909334284,49.45354914325311,1498.8791949872184,32.452052936123806,-17.856090976890073
2025-02-19 14:40:22.404,590,-119,710,-6,38,8,0,-2,5,575,45,2,9.514659055321694,39.33648068616881,1223.8734545284553,-246.84905269302746,-52.79686900881927
2025-02-19 14:40:23.419,762,-31,638,-26,-7,-6,-3,-7,5,322,64,3,2.7817763972124108,50.02830532446963,1528.3619002739078,-62.17745263581514,-3.6520897306471625
2025-02-19 14:40:23.522,756,-65,639,-16,-5,-12,-4,-5,7,441,71,3,5.808231087083648,49.648778405937456,1518.0898043451698,-130.52359428893655,-5.147334625083886
2025-02-19 14:40:23.628,743,-20,642,-12,1,-19,-2,-5,8,494,76,3,1.7843381729871286,49.157117217451905,1499.505793801438,-40.36354761242093,-11.669878358711799
2025-02-19 14:40:23.735,786,-38,537,48,10,-19,-5,-9,7,334,97,3,4.047702691071903,55.59218949943445,1611.036474902739,-77.88725960089577,-26.66995804423766
2025-02-19 14:40:23.842,705,-55,699,-2,-9,24,-2,-8,7,778,95,3,4.498982267728466,45.156446233882306,1414.0348992199547,-110.3147793717695,-4.0005596521252755
2025-02-19 14:40:23.948,796,-38,611,29,13,-2,-2,-9,7,418,94,3,3.558819871921611,52.43715892096764,1588.6851836154683,-75.84175499671835,2.544413079081437
2025-02-19 14:40:24.055,674,-82,703,-6,-3,34,-4,-8,6,735,98,3,6.6530849192464645,43.60014232101256,1363.6213425549122,-165.9005194206273,-16.293477471963115
2025-02-19 14:40:24.161,1030,1,547,22,7,-2,-3,-6,7,275,95,3,-0.10474536687922106,62.02862089590118,1913.1819972871003,1.8574582497933017,77.97033736306406
2025-02-19 14:40:24.270,545,-145,709,-11,-6,-11,-2,-5,6,573,50,3,11.558367901399238,36.98340849233955,1146.5837318977303,-305.05438738563464,-73.61076314768968
2025-02-19 14:40:25.085,763,-29,627,3,-5,-6,-3,-7,9,505,80,4,2.6481567508327464,50.55809922228838,1535.2691843369762,-58.3523018948523,-7.617009933530767
2025-02-19 14:40:25.185,746,-16,614,-3,-4,-8,-4,-9,6,543,90,4,1.4927118137042579,50.53415426416464,1518.0036152730577,-32.557718290038764,-21.402439380237638
2025-02-19 14:40:25.291,772,-29,649,-6,-6,-9,-3,-8,7,526,97,4,2.558510098602749,49.918971852081285,1537.1346420243985,-57.74210442837766,5.771525033893113
2025-02-19 14:40:25.391,835,149,562,15,7,20,-4,-7,7,0,93,4,-14.848895062180215,55.150233911546536,1655.6531878555102,295.4399101682288,9.656177754734472
2025-02-19 14:40:25.504,766,86,640,31,-26,7,-3,-8,6,625,94,4,-7.653275950982859,49.86848713595413,1530.5670151608938,171.83911658464345,1.1972719282349544
2025-02-19 14:40:25.615,1006,148,667,-27,58,-12,-3,-8,7,716,81,4,-12.510615685786629,55.81770652124191,1833.2542393911726,269.7034069879657,118.512348236668
2025-02-19 14:40:25.721,848,-212,566,19,2,-6,-4,-8,7,665,92,4,20.533854756125557,54.521142087883376,1662.3297417620386,-415.5824354405096,22.473309154111234
2025-02-19 14:40:25.824,849,41,524,-1,6,25,-2,-7,6,658,100,4,-4.473951483575298,58.239049844416,1699.25164142489,82.06044440332214,-0.7725089595317058
2025-02-19 14:40:25.935,506,-186,699,-29,39,12,-3,-6,5,537,42,4,14.900802284170009,34.97465874382457,1079.2140788499564,-396.70715151401555,-92.85106939944558
2025-02-19 14:40:26.748,779,5,647,5,-12,-15,-2,-7,7,303,76,5,-0.44277155297817355,50.287764836201646,1548.2631325388904,9.937504059941531,8.086974643565895
2025-02-19 14:40:26.848,739,-30,648,2,-3,-5,-2,-8,6,312,79,5,2.650689683421822,48.723344409912414,1490.5329801167886,-60.50878133085746,-10.989676746521127
2025-02-19 14:40:26.952,777,-12,633,3,-3,-7,-4,-7,7,260,86,5,1.0860458260064003,50.826225797999285,1552.2337040891923,-23.972721298674784,1.4389514949050408
2025-02-19 14:40:27.061,680,-9,643,11,0,-20,-3,-10,7,0,90,5,0.8019103337878001,46.599157140817155,1406.5645633761897,-18.616295691743684,-44.03090331013209
2025-02-19 14:40:27.172,780,322,694,-8,-56,20,-5,-10,6,323,88,5,-24.89021318654878,45.55392763583662,1493.9098393029897,616.7166259686701,58.803296825288726
2025-02-19 14:40:27.278,602,49,571,-13,21,18,-5,-8,8,723,90,5,-4.904784464449855,46.408898573241395,1326.2789571019603,107.9529383687642,-115.98220017478286
2025-02-19 14:40:27.384,794,-7,714,5,-1,-22,-2,-11,7,127,83,5,0.561705332566547,48.03534826216064,1537.5574998416573,-13.55529281976272,45.36013238420264
2025-02-19 14:40:27.490,800,137,529,13,2,6,-4,-8,7,103,91,5,-14.5194187918122,55.66437498907048,1625.7477491352595,278.4093020394132,-17.025699115690486
2025-02-19 14:40:27.602,696,49,780,-16,-15,17,-4,-6,7,673,86,5,-3.5946265858893396,41.686731617222094,1361.057432613585,95.82157212365757,34.67701517443061
2025-02-19 14:40:27.702,871,7,504,53,25,-4,-3,-7,7,0,95,5,-0.795723552739274,59.94198870647541,1736.518715938077,13.955948348526451,3.1717189060955775
2025-02-19 14:40:27.815,526,-116,764,-10,0,2,-2,-5,4,254,43,5,8.633419827363756,34.242354543848265,1088.6946238855485,-240.09235051468374,-53.2978947691239
2025-02-19 14:40:28.628,751,-39,640,-21,1,-2,-2,-7,6,358,65,6,3.4871494609179647,49.510033606432394,1511.5196849366087,-78.49436446408487,-8.112647615751598
2025-02-19 14:40:28.728,746,-48,640,1,-9,-6,-5,-8,6,519,69,6,4.289153328819018,49.2939859625651,1504.0658846724496,-96.7763571907206,-10.351429209608114
2025-02-19 14:40:28.834,767,-17,618,9,-12,-7,-3,-8,7,584,85,6,1.5757001333658498,51.12974686406032,1545.5690699365946,-34.25642006378371,-9.321623495196036
2025-02-19 14:40:28.941,744,-3,641,-3,-1,-3,-4,-8,9,672,93,6,0.2681530164434638,49.2528461166523,1501.5974087068328,-6.054828260914647,-11.714971748762878
2025-02-19 14:40:29.047,728,-83,675,16,9,-18,-4,-9,8,407,95,6,7.010069653828143,46.948986245302486,1458.746189129261,-166.31309573863828,-2.546260525070238
2025-02-19 14:40:29.154,838,216,548,5,-18,55,0,-7,6,456,90,6,-21.51240422234639,54.89648340310003,1656.1144242499322,426.87436233649805,13.00393259073644
2025-02-19 14:40:29.265,800,-191,659,8,11,-36,-2,-8,8,367,90,6,16.16333675385751,49.38191849745791,1559.06589706134,-372.226982923395,33.71946729572119
2025-02-19 14:40:29.371,642,14,607,-42,55,23,-3,-5,4,321,49,6,-1.321249955571155,46.5975403802879,1368.5451746911797,29.843664245602042,-79.93601407717438
2025-02-19 14:40:29.482,713,-51,689,14,-30,-14,-1,-6,4,338,43,6,4.233331672651008,45.90249192409392,1431.1565639182918,-102.36884258041076,-4.982990939274828
2025-02-19 14:40:30.393,749,-7,641,3,1,0,-4,-8,5,478,70,7,0.6256700692472311,49.44114474158614,1508.7384397837632,-14.100359250315543,-9.190039921751918
2025-02-19 14:40:30.489,721,-4,658,9,1,-5,-2,-8,6,319,72,7,0.3482983206587489,47.61522775443898,1459.634526890964,-8.097833713680798,-16.09364590049131
2025-02-19 14:40:30.600,812,75,614,-3,-2,-3,-4,-8,8,227,89,7,-6.964170388206328,52.70065078466019,1607.4803638228645,148.47417153536313,12.491449030493982
2025-02-19 14:40:30.706,761,83,621,-7,10,1,-5,-8,5,276,83,7,-7.612773031369909,50.5357841813709,1533.021696657961,167.20210357767508,-8.994052069111149
2025-02-19 14:40:30.813,813,-28,436,11,-6,-1,-3,-9,6,147,90,7,3.674499520829663,61.7468556590977,1693.864761520821,-58.33728575963468,-36.394878257168614
2025-02-19 14:40:30.923,709,-35,723,-2,-11,-18,-1,-8,7,749,87,7,2.771490992043477,44.40634190519321,1408.7424191550426,-69.5429967142828,9.440382159244109
2025-02-19 14:40:31.026,839,168,515,6,4,26,-2,-6,6,608,92,7,-18.067030018526104,57.15125824676527,1679.1054660102345,336.22135672195395,-0.6785637607517856
2025-02-19 14:40:31.135,549,-107,650,-37,-9,-41,-1,-7,5,0,84,7,9.347930985893205,39.80779299072348,1189.2141903769968,-231.77762908987,-107.99494306930387
2025-02-19 14:40:31.244,731,111,639,-4,-43,16,-4,-9,7,642,92,7,-9.854454500293938,48.419421572444186,1479.0230988568355,224.58490283599005,-14.880656866645381
2025-02-19 14:40:31.349,826,41,599,3,44,17,-2,-6,7,664,87,7,-3.9156404793148725,53.987407802923464,1634.8877941581518,81.15060479477509,12.409456778773688
2025-02-19 14:40:31.456,684,-40,669,6,-8,1,-2,-5,6,377,51,7,3.421683074670401,45.58407794512937,1398.2782210062937,-81.77065619919847,-29.61422493159455
2025-02-19 14:40:32.278,785,-10,630,-4,-3,-3,-2,-7,6,376,77,8,0.9093804491991415,51.24776925896873,1564.8601129376925,-19.934523731690355,4.125004903507829
2025-02-19 14:40:32.373,774,-17,624,-4,-4,-1,-4,-6,7,450,84,8,1.5605566988954505,51.11380008656899,1552.394375216138,-34.09651728510897,-3.5427521122352346
2025-02-19 14:40:32.468,762,9,615,-2,-5,-4,-3,-8,8,503,93,8,-0.83841497440212,51.090466861159996,1540.1386543337708,18.190614027564223,-13.025291883555155
2025-02-19 14:40:32.584,768,-42,671,-16,1,-20,-4,-7,6,327,97,8,3.581650368627772,48.80084492633796,1520.4246223404248,-83.14822153424197,13.608175012467655
2025-02-19 14:40:32.693,794,120,601,-6,-27,58,-2,-5,8,598,96,8,-11.29159782520185,52.336609294999505,1585.614108302806,239.6394118341772,1.8059457304957505
2025-02-19 14:40:32.799,750,-21,598,5,11,-71,-3,-7,7,625,98,8,2.0112326626313326,51.41626546689808,1531.6975515776771,-42.887531444174954,-25.273514457934425
2025-02-19 14:40:32.908,684,131,701,-11,-9,-15,-3,-10,9,788,92,8,-10.58510704564572,43.80534867896189,1376.2105486574799,263.5724881200729,-8.414612001306182
2025-02-19 14:40:33.017,921,176,419,-1,18,39,-3,-7,8,590,96,8,-22.78473048011577,63.73616622938122,1817.765927067481,347.36895023222223,11.02505598124361
2025-02-19 14:40:33.123,522,-111,732,-19,19,13,-2,-5,5,557,46,8,8.622604087919314,35.1859277762591,1098.2316025751445,-233.53200744413994,-76.04891395594973
2025-02-19 14:40:34.038,746,-30,652,-4,0,-3,-3,-5,7,371,55,9,2.6344507644016355,48.81669278302269,1498.6067821985966,-60.265688292168775,-5.77429221646787
2025-02-19 14:40:34.138,758,-22,645,-1,-1,-3,-1,-7,5,392,56,9,1.9535173163813975,49.588318719987484,1519.406155101154,-44.09885938288309,-2.898377361799703
2025-02-19 14:40:34.241,765,-22,639,0,-1,-4,-3,-4,7,363,57,9,1.9718457890602985,50.11149259008896,1532.2938006171423,-44.06596550794397,-1.9159981625541604
2025-02-19 14:40:34.351,750,-27,653,4,-13,-11,-4,-4,7,427,64,9,2.3676958051592503,48.930760604917126,1503.9162112532829,-54.14098360511819,-3.4097145978583967
2025-02-19 14:40:34.458,835,115,551,-7,-6,-19,-3,-9,7,446,95,9,-11.78904977592439,56.01611444941387,1664.1948128794525,229.20048321094254,3.8307282675709757
2025-02-19 14:40:34.565,820,-25,591,27,15,10,-3,-8,6,153,90,9,2.422235250506838,54.194214621353545,1631.00474939353,-49.72575455468079,6.483162327346122
2025-02-19 14:40:34.671,698,-19,710,-8,6,-32,-4,-8,7,707,91,9,1.532901491168127,44.501442937845276,1398.927226588517,-38.079680952982564,-2.977551400927382
2025-02-19 14:40:34.782,773,-24,601,23,6,-14,-2,-9,6,496,88,9,2.2868027611295423,52.11315893495062,1562.2251449025325,-48.503756115990655,-12.614892737932678
2025-02-19 14:40:34.888,841,172,523,-39,-6,32,-2,-7,9,340,101,9,-18.204582197191037,56.78941097286411,1677.6631021547469,343.11302445971035,2.697024462624995
2025-02-19 14:40:34.994,478,-92,630,-22,51,27,-1,-5,5,238,43,9,8.30827612748334,36.898021087987644,1078.39260503502,-207.55673569711678,-161.31242923025627
2025-02-19 14:40:35.102,817,-53,662,9,-20,-11,-2,-4,4,237,45,9,4.577361208234449,50.893229364384744,1592.971874761349,-103.3384447519602,33.244331588723526
