Timestamp,Acc_X,Acc_Y,Acc_Z,Gyro_X,Gyro_Y,Gyro_Z,Mag_X,Mag_Y,Mag_Z,Force,IR_A,Letter,Roll,Pitch,Lin_Acc_X,Lin_Acc_Y,Lin_Acc_Z
2025-02-19 16:35:58.399,676,-92,685,-6,0,0,-5,-2,8,0,30,noise,7.649424668958616,44.365085543822204,1375.2278308350833,-187.16118407814741,-23.537077103597426
2025-02-19 16:35:58.499,688,-23,698,14,-13,-11,-5,-2,9,0,33,noise,1.8872869455254562,44.57107506773818,1389.7935076502292,-46.46112016853964,-13.993994680029004
2025-02-19 16:35:58.611,712,-22,694,11,-1,-10,-4,-4,10,3,37,noise,1.815684686360475,45.719093910919945,1427.9254419783733,-44.12129174652277,-3.8262032766728
2025-02-19 16:35:58.711,736,2,680,10,2,-15,-6,-4,8,0,39,noise,-0.16851651265057685,47.264631026174065,1470.4958237648293,3.99591256457834,1.38972804336413
2025-02-19 16:35:58.819,726,33,686,0,1,-7,-5,-4,8,0,42,noise,-2.754087877705039,46.589619387245676,1452.4501753686804,66.02046251675819,-0.4253723180642055
2025-02-19 16:35:58.929,699,50,682,-3,-6,-7,-6,-3,8,40,48,noise,-4.193068626416995,45.62850792892985,1413.8207137284398,101.13166764867236,-15.435946727891064
2025-02-19 16:35:59.036,722,-3,686,-17,-7,20,-5,-3,9,278,50,noise,0.25056303613428194,46.46435622476268,1446.946004444204,-6.012241015696139,-2.799112255850332
2025-02-19 16:35:59.143,731,-6,679,5,0,8,-6,-5,8,180,46,noise,0.5062823707096508,47.11096325346893,1463.6731378223553,-12.013733005381848,-1.5541184423793766
2025-02-19 16:35:59.249,706,-7,675,8,2,-4,-5,-4,8,26,44,noise,0.5941571553596496,46.284392323825465,1428.7789190315366,-14.166363219859427,-16.042167629301957
2025-02-19 16:35:59.349,721,18,669,3,2,-4,-4,-4,10,0,45,noise,-1.541218643723886,47.13210329099358,1453.9241972144223,36.29769146998558,-11.06419963446399
2025-02-19 16:36:01.179,784,-95,616,-2,-5,-9,-6,-5,14,720,66,A,8.767129246071496,51.51519128979394,1566.7731816435173,-189.85134216343636,0.9639287086650938
2025-02-19 16:36:01.270,794,-68,614,-6,-6,-8,-6,-4,14,768,67,A,6.319707020464143,52.11609517220705,1583.2566148564326,-135.59376550407734,3.668058536713488
2025-02-19 16:36:01.379,740,-35,624,-8,-19,-9,-6,-6,13,722,73,A,3.210341759571508,49.81661221982878,1503.9831391953662,-71.13433766464568,-20.223620078254612
2025-02-19 16:36:01.491,874,12,561,-2,-6,-16,-7,-8,14,713,104,A,-1.2253913023741119,57.298593423186446,1715.4975191178544,23.553741681252006,20.862576401468687
2025-02-19 16:36:01.593,810,-26,565,-2,2,-12,-7,-9,15,731,107,A,2.6347611760362253,55.07459590173703,1629.8981142764883,-52.317717248381115,-6.904240205204928
2025-02-19 16:36:01.707,809,-33,574,-2,-2,-12,-7,-9,17,696,112,A,3.290386238348631,54.59899067793529,1624.1175909888607,-66.2495432665419,-4.3405404543956365
2025-02-19 16:36:01.809,956,356,419,-8,2,44,-6,-9,14,252,106,A,-40.35262641954529,60.09589962700636,1822.8610724359746,678.8060060535637,39.06821197628312
2025-02-19 16:36:01.919,574,-154,541,-7,-19,-64,-8,-6,14,665,101,A,15.889429345327876,45.58016260559359,1288.2303938820971,-345.6227886025138,-132.1683677529869
2025-02-19 16:36:02.031,771,-100,633,13,-32,75,-7,-8,15,682,106,A,8.97727460543646,50.26685998033607,1540.0299614911164,-199.74448268367266,1.6174246123521243
2025-02-19 16:36:02.129,930,-12,607,25,62,-20,-7,-5,13,686,99,A,1.1325532192604923,56.86286676005827,1767.3646135058134,-22.804704690397593,60.462021077388385
2025-02-19 16:36:02.243,806,-142,505,50,5,-21,-5,-7,16,249,105,A,15.705352143762259,56.94193433547892,1644.1181799945907,-289.6585379146797,-20.123673569811558
2025-02-19 16:36:02.343,817,42,574,7,2,14,-4,-7,16,783,102,A,-4.1849161251184155,54.83727133364046,1634.5196989555343,84.02671647017434,-0.3651250923825273
2025-02-19 16:36:02.449,658,-163,684,6,51,24,-6,-5,12,422,0,A,13.403821776170306,43.10002124460634,1341.2740444164024,-332.2608955013277,-26.27271486446716
2025-02-19 16:36:03.269,778,13,623,3,-6,-4,-6,-7,14,690,77,B,-1.1954045819020052,51.30717365410164,1558.508684029793,26.041918884816592,-2.008881941595064
2025-02-19 16:36:03.370,723,-22,613,9,-14,-20,-7,-8,13,622,95,B,2.0554100795303882,49.688659567263244,1485.5402970213472,-45.20316256496491,-33.52448419652251
2025-02-19 16:36:03.481,786,-202,773,-30,-14,56,-7,-8,15,543,99,B,14.645009958774976,44.53160230668761,1487.3025611502817,-382.232973730734,83.29659062446831
2025-02-19 16:36:03.584,744,83,529,20,17,-67,-6,-6,13,660,98,B,-8.916999661973252,54.25667597003932,1555.6420518584446,173.5460891186168,-48.094953539135986
2025-02-19 16:36:03.692,836,109,638,-9,-25,6,-5,-8,15,746,100,B,-9.695171439748242,52.25240823213991,1626.7153055049778,212.09565586129497,34.55937211462219
2025-02-19 16:36:03.796,945,84,377,10,11,9,-6,-8,14,607,102,B,-12.560987306730075,67.7689580296519,1870.6657406190172,166.28139916613486,7.713244218656655
2025-02-19 16:36:03.907,687,70,757,-6,-18,30,-7,-6,15,666,99,B,-5.283132556487965,42.10331376746121,1357.4695308656246,138.31567272284383,18.214796411531665
2025-02-19 16:36:04.009,1004,18,492,26,31,-7,-6,-5,14,327,96,B,-2.095252564623846,63.87816036280185,1901.8598173391463,34.09708835866996,52.01291819635446
2025-02-19 16:36:04.125,531,-157,703,13,-26,-22,-7,-5,12,553,46,B,12.589200768639053,36.396690473420065,1124.3723932291791,-332.4415550602281,-82.57588030153101
2025-02-19 16:36:04.841,801,18,597,0,-3,-3,-7,-7,14,647,80,C,-1.7269877504876419,53.289687635527194,1602.6680678667874,36.0150127610514,-0.49792324153827394
2025-02-19 16:36:04.935,800,20,594,2,-6,-4,-7,-8,14,664,86,C,-1.9284223132719756,53.39057657347191,1602.719403335614,40.067985083390354,-2.01915697669358
2025-02-19 16:36:05.042,768,14,583,1,-10,-6,-7,-8,15,699,96,C,-1.375620547667743,52.78938260907692,1564.4178670362317,28.518034034514642,-21.572417294431148
2025-02-19 16:36:05.149,726,-82,639,17,10,-24,-7,-9,14,495,102,C,7.312545184794605,48.41470376122471,1473.9684486226772,-166.4812848306605,-19.33586593648863
2025-02-19 16:36:05.259,906,231,504,9,-15,64,-5,-7,12,330,95,C,-24.623564786163612,58.53594846356436,1758.9678220629216,448.478550658427,29.501344017977317
2025-02-19 16:36:05.359,820,60,577,10,2,4,-5,-5,15,803,94,C,-5.936630203047672,54.72240017353131,1636.363445059017,119.73391061407442,2.5588929279844024
2025-02-19 16:36:05.469,541,-155,714,-23,17,5,-5,-3,11,607,0,C,12.248115072923921,36.51833106382764,1136.0799401933184,-325.49425273560877,-71.37352550467529
2025-02-19 16:36:06.291,785,14,616,2,-1,-5,-6,-7,12,586,56,D,-1.3019526725788753,51.87106380887289,1571.623298874175,28.028950553170002,-1.2738243394800293
2025-02-19 16:36:06.385,761,27,622,4,-10,-13,-7,-8,14,477,62,D,-2.4855554490751266,50.712876446194244,1534.9825339091217,54.460615526342025,-10.61121694017561
2025-02-19 16:36:06.492,809,54,610,-1,-3,-13,-7,-9,14,366,83,D,-5.05889804398845,52.875516703582925,1606.3260967156725,107.220777778302,8.802325096959066
2025-02-19 16:36:06.602,827,281,639,-3,-16,58,-7,-7,15,489,89,D,-23.737473979141292,49.83288820401447,1591.1664003030694,540.650252098141,48.54978259533095
2025-02-19 16:36:06.709,806,-60,549,34,23,-75,-4,-6,14,549,91,D,6.23708007645849,55.581166429718174,1630.9277446382018,-121.40901324850137,-12.892471223787766
2025-02-19 16:36:06.809,660,112,731,-10,-20,17,-6,-9,13,768,0,D,-8.710819954189072,41.74758544971764,1325.8502251697937,224.99276548335894,-6.479567574422845
2025-02-19 16:36:06.919,819,27,465,13,34,19,-6,-7,15,229,96,D,-3.323120445135443,60.37216341604723,1688.2548501591866,55.6567533019512,-28.532973533604036
2025-02-19 16:36:07.029,570,-81,730,-33,20,2,-6,-7,11,538,43,D,6.3315771347113925,37.81357841597209,1183.0942937479276,-168.12392595365287,-55.19093760699525
2025-02-19 16:36:07.849,773,-11,624,-1,-2,-2,-7,-7,14,605,68,E,1.0099171511023468,51.08363697935886,1551.0637777098332,-22.072058932481454,-4.087706715311697
2025-02-19 16:36:07.942,781,6,610,-1,-2,-2,-6,-8,13,606,71,E,-0.5635468708140111,52.0070419648638,1569.0864158194204,12.054441094643433,-5.53484462208246
2025-02-19 16:36:08.052,764,12,622,-2,-3,-5,-6,-7,13,573,75,E,-1.105247701276353,50.844500078485105,1539.4351349466776,24.179609449424255,-9.309756461824009
2025-02-19 16:36:08.159,712,-37,615,-2,-11,-20,-7,-6,14,439,84,E,3.4429132403565776,49.12951709414235,1468.1906719889655,-76.29642537021309,-38.17031358597433
2025-02-19 16:36:08.265,774,-75,608,10,0,-19,-7,-8,14,288,98,E,7.032210956060177,51.63896070004582,1558.115651936046,-150.98019883101222,-7.9461451900722295
2025-02-19 16:36:08.371,818,181,532,0,-6,36,-5,-7,14,234,99,E,-18.789617097917944,55.511814788693414,1642.2429680097375,363.38139023198346,-4.060218803398811
2025-02-19 16:36:08.486,531,-164,582,-23,-13,-75,-9,-7,12,476,85,E,15.737143189605709,41.288694734171045,1190.8534200989975,-367.7965365277506,-141.22917231189547
2025-02-19 16:36:08.589,724,130,615,17,-21,13,-6,-10,15,761,0,E,-11.935602543267445,49.034902968614034,1479.10909277319,265.5858868239153,-26.425541513137887
2025-02-19 16:36:08.691,601,38,620,-49,47,17,-6,-8,14,500,76,E,-3.5072894843221327,44.054811898918494,1296.3462075439943,81.96531761509449,-97.32886635154182
2025-02-19 16:36:08.806,797,128,570,19,-21,16,-7,-6,14,649,89,E,-12.656462409578648,53.75885634152196,1603.5359947368247,257.531502291485,-6.8199711417692015
2025-02-19 16:36:08.909,431,-5,589,-46,23,15,-5,-7,12,404,79,E,0.48637014668859935,36.19376873685896,1021.5179023044825,-11.850555711188893,-217.99546277805143
2025-02-19 16:36:09.019,805,131,561,52,-41,16,-6,-6,14,616,89,E,-13.14370773699879,54.41088970261472,1618.2113853304338,263.3362627059464,-5.722468534625364
2025-02-19 16:36:09.125,656,-36,438,-83,72,9,-4,-5,13,607,48,E,4.69868051729944,56.18050924331907,1486.795181734903,-81.59241850984225,-116.70775853641396
2025-02-19 16:36:09.843,799,72,599,-2,3,-5,-5,-7,14,541,76,F,-6.854088489736115,52.94414940237168,1597.0484953793648,143.91425740590023,0.7133307481356042
2025-02-19 16:36:09.941,732,2,610,5,-19,-22,-7,-7,12,496,88,F,-0.18785434166681775,50.194277453209565,1500.2195873439687,4.098960621158385,-30.182989453307187
2025-02-19 16:36:10.041,909,-237,755,2,-13,49,-6,-9,14,563,93,F,17.427453035693627,48.95900527678161,1663.2399815088932,-433.6500281821866,128.54104946181053
2025-02-19 16:36:10.149,803,109,524,19,0,-37,-6,-6,14,651,96,F,-11.750822038418594,56.31569039345155,1635.1060345395013,221.95088140075427,-18.993228018304876
2025-02-19 16:36:10.263,836,-84,522,44,-7,-38,-6,-8,14,595,95,F,9.141640223524895,57.689318588991185,1681.1622014747409,-168.92060397593087,-5.720896136142073
2025-02-19 16:36:10.367,785,97,653,0,-3,30,-6,-9,16,811,90,F,-8.44922721763005,49.937013966417354,1550.3373551771606,191.57034834673195,16.3563147379798
2025-02-19 16:36:10.477,1578,-2,481,51,16,-33,-5,-8,14,390,89,F,0.2382347165112572,73.04778995699199,2534.5482882084148,-3.212355244877585,189.42856360694077
2025-02-19 16:36:10.584,753,90,626,-2,-5,22,-5,-6,14,802,89,F,-8.181350801591833,49.97346343157011,1518.7466535709311,181.5235044108682,-10.596819568928026
2025-02-19 16:36:10.690,599,-54,664,-15,11,-7,-6,-6,13,696,48,F,4.649364545800058,41.95997636000993,1267.6113235659343,-114.27547825135301,-77.16513997959999
2025-02-19 16:36:10.797,793,60,613,2,-4,-6,-6,-6,13,647,57,F,-5.590262921250506,52.163229801095916,1582.761509820532,119.7549692171903,2.5033978310391376
2025-02-19 16:36:11.509,765,49,609,-2,-6,-4,-6,-8,13,588,67,G,-4.60009566626328,51.387348873580486,1546.3826983766862,99.04934930778774,-13.041912825362033
2025-02-19 16:36:11.612,792,55,582,3,-7,-1,-6,-9,13,654,76,G,-5.398517084195012,53.568130715169886,1596.5635990644375,110.87247215725262,-9.232341736745639
2025-02-19 16:36:11.722,816,73,552,-5,-4,-12,-7,-10,15,735,93,G,-7.533444481870097,55.691921332130846,1642.0188294756963,146.89629234280127,-6.777443468853448
2025-02-19 16:36:11.829,828,128,585,29,13,46,-6,-9,14,448,91,G,-12.342008147997047,54.1241779920795,1638.2890089878563,253.26206902227727,12.513200171623225
2025-02-19 16:36:11.935,745,90,625,6,-15,-22,-6,-7,14,705,90,G,-8.194263334630211,49.71607204216509,1507.8497307232155,182.1563433088448,-14.974606311422349
2025-02-19 16:36:12.040,808,271,576,2,-9,49,-6,-7,14,673,90,G,-25.19633302847009,51.76790257549462,1593.5103339484633,534.457055074299,16.032237185253962
2025-02-19 16:36:12.153,463,-146,573,-35,4,-55,-5,-6,14,540,83,G,14.294754254622212,38.06130058665969,1079.5042131941354,-340.405216255602,-189.97389667438347
2025-02-19 16:36:12.259,763,225,627,27,-17,31,-6,-8,13,834,87,G,-19.740609480191093,48.87692561928555,1516.2985904663885,447.1391649474933,7.972193679651809
2025-02-19 16:36:12.359,661,-69,661,-36,44,9,-6,-7,11,689,51,G,5.9593679786834866,44.844761205415146,1366.1883331193092,-142.61270043151643,-44.18833311930939
2025-02-19 16:36:13.079,765,80,610,1,3,-4,-7,-8,12,131,76,H,-7.471559176592376,51.19327976024714,1544.2644650155457,161.49170875979564,-11.374279293441646
2025-02-19 16:36:13.172,784,71,588,2,-2,-10,-5,-10,12,0,81,H,-6.885035429686068,52.93085820955836,1581.9086872981097,143.2595877527625,-10.431515473582294
2025-02-19 16:36:13.282,769,78,594,3,0,-8,-6,-10,12,0,91,H,-7.480886179523676,52.07916860214217,1557.8606930349233,158.01447861732643,-15.341029470408898
2025-02-19 16:36:13.390,799,263,530,-4,-6,41,-6,-8,14,0,89,H,-26.391821834882517,53.47973761401951,1602.646454041998,527.5294335582546,-3.082128463402796
2025-02-19 16:36:13.499,692,-15,693,-21,9,-37,-6,-7,13,0,84,H,1.2399747663126899,44.95192192516198,1398.5131843709307,-30.314592146768735,-14.53415718071551
2025-02-19 16:36:13.607,729,189,535,4,-29,25,-7,-8,13,640,90,H,-19.456838751688842,52.10529351342042,1518.1408348085547,393.5920682836993,-44.13627794592139
2025-02-19 16:36:13.717,536,-144,591,-21,-3,-41,-8,-8,14,745,81,H,13.693569446648523,41.38515845872785,1197.1175390475748,-321.6136672068112,-137.95609249462086
2025-02-19 16:36:13.824,803,290,546,1,-13,76,-6,-8,14,653,91,H,-27.97435915061202,52.40703475060588,1595.3645507380293,576.1590531930615,7.231575712373683
2025-02-19 16:36:13.929,968,130,614,-40,56,0,-6,-5,14,639,71,H,-11.954482802493077,57.042285557966416,1807.072295212417,242.68532890249406,81.77852349129739
2025-02-19 16:36:14.746,778,53,615,3,-3,-3,-8,-9,12,287,81,I,-4.925515519389704,51.5708688420058,1561.3775430079895,106.36633647740803,-4.250885539734668
2025-02-19 16:36:14.841,777,55,620,7,1,-4,-7,-7,12,114,87,I,-5.069420132612497,51.30267898127656,1557.4596409835372,110.24489093191062,-2.7605886869924916
2025-02-19 16:36:14.943,797,71,612,-1,-4,-9,-6,-8,13,0,92,I,-6.61747691698757,52.294910367780524,1588.1692073851923,141.48056929027436,4.47734639932537
2025-02-19 16:36:15.061,712,120,640,-11,-19,24,-6,-9,14,747,88,I,-10.619655276155134,47.55582033946266,1449.93517969917,244.3710977021073,-23.312521077905558
2025-02-19 16:36:15.159,613,-160,621,-9,-4,-25,-6,-7,14,327,76,I,14.447968533220306,43.70834891131345,1303.9877516160795,-340.35569373339763,-79.00553630274942
2025-02-19 16:36:15.274,799,202,577,3,-3,69,-6,-9,14,358,89,I,-19.294469237515063,52.57939490630917,1593.1961405831012,402.7855073814598,3.46912000444388
2025-02-19 16:36:15.379,513,-141,513,20,-15,-27,-6,-8,12,0,81,I,15.368463321796117,43.957058385986016,1207.1190499765585,-331.78125935028214,-181.11904997655847
2025-02-19 16:36:15.486,775,138,615,11,-21,22,-5,-7,13,716,89,I,-12.647126135726056,50.87919669507539,1550.8173662568174,276.14554392702036,-0.6486196747647455
2025-02-19 16:36:15.594,670,-36,644,-24,36,5,-5,-5,11,559,49,I,3.199539709562572,46.08890133260727,1390.4167804811282,-74.7089613392845,-48.46030840275603
2025-02-19 16:36:16.409,784,79,623,5,-1,-1,-6,-8,11,287,72,J,-7.226865346033378,51.305056268324435,1564.4855810447325,157.64586849812994,2.792707919810823
2025-02-19 16:36:16.506,786,95,610,8,2,-4,-7,-10,12,167,77,J,-8.85200409938944,51.85260954678858,1572.4243904688842,190.05129401341478,-0.3293615598212227
2025-02-19 16:36:16.616,665,77,612,11,-11,-13,-7,-8,13,6,81,J,-7.171101824193896,47.15234494570665,1398.1644938939576,161.89273087193192,-62.73183498210824
2025-02-19 16:36:16.723,737,126,598,-42,-32,19,-7,-9,13,691,89,J,-11.898315174124944,50.334030566467334,1506.778812540394,257.60397609238754,-26.59664843847429
2025-02-19 16:36:16.830,614,69,588,-4,24,-12,-6,-9,12,535,77,J,-6.69287535783409,46.04340621066823,1333.86585404896,149.89697708367794,-101.38293514786403
2025-02-19 16:36:16.940,767,220,680,-19,-15,71,-4,-7,14,620,89,J,-17.927919762007235,47.021437312978954,1498.6088212642037,429.8486840653518,31.376794707094632
2025-02-19 16:36:17.040,1063,-105,385,42,26,-13,-6,-8,13,0,88,J,15.255118703057777,69.42333560076807,1999.2027572438967,-197.4753429074404,45.92374267271862
2025-02-19 16:36:17.153,474,-79,745,-4,1,-7,-6,-5,11,473,41,J,6.053039594786449,32.321307024194496,1008.6666464823853,-168.11110774706424,-95.3515857159855
2025-02-19 16:36:18.173,764,56,631,-1,-3,-5,-6,-8,12,166,68,K,-5.0715997843809015,50.33575418068821,1533.7980143296475,112.42498534353437,-4.788674138753322
2025-02-19 16:36:18.264,781,81,624,3,-1,-6,-5,-8,12,180,75,K,-7.396076559712661,51.14233871117821,1559.706969250774,161.76218247031073,1.8320757842727744
2025-02-19 16:36:18.373,851,203,573,2,-8,-17,-6,-8,13,0,92,K,-19.508001320036506,54.46057330768728,1664.7157290728094,397.10610223475953,25.104450342279847
2025-02-19 16:36:18.482,780,245,636,-28,-19,59,-6,-10,14,335,90,K,-21.067688932413713,48.85329815925412,1533.0273148847614,481.5278104445725,21.99311247857929
2025-02-19 16:36:18.587,819,-38,642,5,5,-39,-7,-9,12,677,78,K,3.3873868054916945,51.85905701928551,1605.4938935248056,-74.4917801635441,25.480977236965373
2025-02-19 16:36:18.698,725,104,616,-11,4,11,-5,-10,12,738,89,K,-9.582944723532572,49.24920314862847,1482.5559059369766,212.67008857578702,-27.661293871969065
2025-02-19 16:36:18.804,1051,68,634,-50,-17,69,-6,-7,13,179,90,K,-6.121885363932559,58.7550284206291,1905.9573962165869,123.3159875763348,118.25976289123128
2025-02-19 16:36:18.910,855,66,551,15,-1,8,-5,-6,14,602,91,K,-6.830472021669935,57.01436691326923,1693.807109783359,130.75002250959264,10.435418139613034
2025-02-19 16:36:19.017,591,-78,702,-3,-5,-11,-6,-5,12,440,47,K,6.34019174590991,39.92027366279763,1232.721046787337,-162.6941483069582,-60.24733476262361
2025-02-19 16:36:19.829,769,74,616,0,-3,-3,-6,-8,12,0,77,L,-6.850108680740024,51.10342491716394,1547.2806843062708,148.89306975118862,-7.434202253137755
2025-02-19 16:36:19.926,773,98,625,3,-3,-4,-6,-8,12,0,81,L,-8.911418228807044,50.70251333083444,1546.867992802893,196.11004307203558,-0.7018053063493426
2025-02-19 16:36:20.036,826,113,645,1,-7,-18,-5,-10,11,0,92,L,-9.937019035070685,51.593861179546096,1609.6269014215013,220.20319595717876,33.087952279820456
2025-02-19 16:36:20.139,726,142,675,2,1,66,-5,-8,13,3,87,L,-11.880101961215793,46.46570626821635,1450.962234367276,283.797021047043,0.9648647411687534
2025-02-19 16:36:20.254,802,104,589,23,-22,0,-6,-7,12,376,86,L,-10.013529029463994,53.28536095224125,1603.6229250997524,207.95110250670103,0.2769290726256486
2025-02-19 16:36:20.359,899,137,601,-7,26,7,-6,-8,11,687,81,L,-12.841345373809755,55.56274801777367,1723.7459994566295,262.6843180484518,49.64032739328786
2025-02-19 16:36:21.279,760,65,626,2,-4,-2,-7,-9,12,85,72,M,-5.927999004507587,50.37141714660662,1530.1951584558824,130.8719543416215,-8.397591043923853
2025-02-19 16:36:21.372,751,84,625,9,2,-10,-6,-8,12,83,74,M,-7.654682935333034,49.97960362985913,1516.815572600367,169.6571346184166,-12.329870672742345
2025-02-19 16:36:21.483,724,48,615,12,-20,-24,-6,-10,13,3,89,M,-4.462818472040525,49.56797901385852,1485.1759727964413,98.4647053787696,-31.579037665485316
2025-02-19 16:36:21.586,768,175,630,2,-4,68,-7,-9,12,4,86,M,-15.524110996754256,49.58984588359624,1529.423433977986,348.50143352362954,5.39483931493362
2025-02-19 16:36:21.699,772,110,671,25,15,-56,-7,-7,13,250,84,M,-9.309940174986037,48.62727784156855,1522.4258273498585,216.92595985554976,18.751644881146603
2025-02-19 16:36:21.805,881,32,570,20,-9,-26,-6,-11,12,30,90,M,-3.2132322417193793,57.05632562884914,1720.2055796351272,62.48192797766636,27.040657897817823
2025-02-19 16:36:21.909,777,192,481,2,-17,-28,-7,-10,13,705,88,M,-21.760322523503557,56.31481158759999,1609.0975277017333,397.61483310004235,-34.1079933391685
2025-02-19 16:36:22.015,768,39,601,2,-2,62,-6,-8,14,722,86,M,-3.712823286033102,51.89652870740489,1554.8976370992877,78.95964563394821,-14.788385282124864
2025-02-19 16:36:22.126,1043,188,643,-21,76,1,-7,-5,14,640,69,M,-16.297836275306093,57.28731841591432,1884.3911870281195,339.6601564345988,124.28999687528199
2025-02-19 16:36:23.039,753,76,642,4,-1,-4,-6,-7,11,1,68,N,-6.751257931582337,49.35249537726942,1511.7314816623252,152.57847623683494,-4.886601895368699
2025-02-19 16:36:23.142,787,103,624,2,-11,-8,-6,-10,12,0,81,N,-9.372960524029894,51.214177903141035,1566.4929948663107,205.01750758733164,5.952187043738263
2025-02-19 16:36:23.249,718,101,622,2,-6,-14,-6,-8,13,0,88,N,-9.223155198449449,48.72845889513529,1469.5918645837096,206.72531799854414,-29.100473218756974
2025-02-19 16:36:23.354,933,-61,795,-38,-11,67,-7,-10,11,0,87,N,4.387682696510302,49.48297667176079,1693.2129724992542,-110.70309895225563,147.2301038189637
2025-02-19 16:36:23.465,733,153,479,56,22,-68,-6,-6,13,360,90,N,-17.714285200404355,55.54966897231153,1557.6168891597054,325.12330701423593,-59.86969973737905
2025-02-19 16:36:23.571,904,-12,581,-9,-13,-20,-8,-11,12,163,89,N,1.1832213632473223,57.26562340553047,1745.1864945419657,-23.166192405424326,40.3701843707056
2025-02-19 16:36:23.676,831,231,551,23,1,26,-6,-6,14,382,94,N,-22.745270728435546,54.28504809082212,1642.9312183014827,456.69929173001503,12.643680765202248
2025-02-19 16:36:23.781,836,148,500,7,12,-7,-5,-8,13,726,90,N,-16.48875370589126,58.046682962293815,1684.4795776782867,298.20930322534275,-7.463862247779275
2025-02-19 16:36:23.891,573,-64,686,-5,2,4,-7,-7,12,560,50,N,5.329950866727008,39.74912754066712,1212.4272945304879,-135.4194534903163,-79.52726709932756
2025-02-19 16:36:24.709,781,69,602,-1,-2,-1,-6,-8,14,453,77,O,-6.538590772654586,52.19378419077838,1571.0885156851182,138.80295465079786,-7.0054884026133095
2025-02-19 16:36:24.804,761,57,596,6,-13,-7,-7,-9,13,613,87,O,-5.463014444512984,51.80597453455598,1546.9213736233419,115.86664690739877,-19.51792204929268
2025-02-19 16:36:24.915,784,47,599,-2,-2,-15,-6,-10,15,542,91,O,-4.486470074986695,52.53420518965976,1577.7166253156179,94.5825017727475,-7.423799188845692
2025-02-19 16:36:25.020,763,-78,591,29,21,-10,-7,-10,13,222,91,O,7.518426879442183,51.99981096985376,1551.008722413056,-158.55659285480783,-19.37110739988998
2025-02-19 16:36:25.121,778,140,626,-17,-29,2,-9,-7,14,555,91,O,-12.606312943599143,50.49428952577318,1549.5611838163986,278.84134413148564,5.180846954928597
2025-02-19 16:36:25.234,870,195,506,0,30,-8,-6,-10,14,633,90,O,-21.075440173537483,58.06457448657668,1718.6447962607085,385.21348881705524,12.420382864461601
2025-02-19 16:36:25.345,558,-24,702,-16,11,21,-5,-9,11,391,43,O,1.9580674292340414,38.46389841748262,1180.0213983644471,-50.753608531804176,-80.54304955527209
2025-02-19 16:36:26.159,776,66,617,1,-2,-1,-8,-8,13,411,75,P,-6.105666818153872,51.352802455593455,1557.0062849115589,132.42579227340576,-3.980512616535748
2025-02-19 16:36:26.256,758,76,622,5,-1,-2,-7,-9,11,486,79,P,-6.966239852491983,50.42003167654152,1528.736051033322,153.27696553896104,-10.45095480570751
2025-02-19 16:36:26.365,713,55,669,14,-7,-17,-8,-11,13,431,89,P,-4.699845847287138,46.727259747696145,1441.098968685655,111.16471707953862,-14.16719502202443
2025-02-19 16:36:26.470,823,-86,748,-30,-14,62,-5,-10,14,532,88,P,6.558684419162403,47.5459347751746,1560.818729309912,-163.09891946616335,77.41870045709084
2025-02-19 16:36:26.579,717,163,522,58,22,-75,-5,-7,14,548,90,P,-17.34152419367291,52.66715898853765,1512.1260074799104,343.76086362514013,-56.87834854185962
2025-02-19 16:36:26.688,686,145,675,-18,-21,7,-6,-11,12,764,86,P,-12.123738247789388,44.816905528957264,1390.8435432019191,293.9829646709595,-18.541387261363184
2025-02-19 16:36:26.789,967,192,342,3,17,20,-5,-11,13,497,89,P,-29.31000707091613,67.92283438386247,1893.6784958922944,375.994075709742,14.260552642022105
2025-02-19 16:36:26.901,456,-98,779,-8,3,-2,-6,-8,12,613,45,P,7.1702736692785685,30.147508043423397,958.2279238188994,-205.93494854002665,-78.97270319061988
2025-02-19 16:36:27.004,886,112,557,-2,1,-3,-6,-9,13,520,67,P,-11.369265327695356,57.329920021815774,1727.7927822524766,218.41172868202864,27.791670750982348
2025-02-19 16:36:27.721,763,47,627,1,-4,-3,-7,-7,13,445,63,Q,-4.28688157990014,50.5093711239801,1534.7286080915983,94.5376731065598,-7.17278803857414
2025-02-19 16:36:27.819,796,61,600,2,-3,3,-7,-8,12,470,67,Q,-5.805124943346873,52.850452428435865,1593.061995541925,122.08138408047412,-0.8004991522045657
2025-02-19 16:36:27.933,709,78,628,10,-23,-18,-6,-10,12,652,79,Q,-7.080096107605182,48.24915815524551,1455.0475912066504,160.07575756575278,-32.81507373452234
2025-02-19 16:36:28.036,755,31,615,-1,4,-27,-6,-9,14,393,91,Q,-2.885637638881585,50.79918739996895,1529.935524841556,62.81854472859368,-16.23887122855217
2025-02-19 16:36:28.139,813,381,478,-7,-15,58,-5,-9,14,496,87,Q,-38.5573376283935,53.06182768967847,1612.2844615736867,755.5724229515063,8.063994302309652
2025-02-19 16:36:28.253,819,116,483,5,12,-19,-6,-10,14,713,89,Q,-13.504706075259,58.762634269370004,1674.0262443703714,237.10261825026015,-21.246246679962553
2025-02-19 16:36:28.359,611,22,619,29,-38,-7,-6,-7,13,365,76,Q,-2.035503721293186,44.60926912986965,1313.2682331265473,47.28625389326358,-92.46323454227957
2025-02-19 16:36:28.470,659,152,607,-16,-39,54,-7,-9,14,635,89,Q,-14.058451133292323,46.48288132886185,1384.1686740035866,319.26197033163163,-60.94747362697615
2025-02-19 16:36:28.569,837,80,610,-24,69,1,-7,-6,15,608,68,Q,-7.471559176592376,53.68284531594316,1642.7509939965184,157.01323718007347,22.774066501939956
2025-02-19 16:36:28.679,732,-23,628,12,-15,-16,-6,-6,11,306,53,Q,2.097474838626924,49.35395326695948,1490.748056362991,-46.84044439391913,-22.947786060052408
2025-02-19 16:36:28.786,771,41,611,2,3,-3,-5,-6,11,248,63,Q,-3.838969805355949,51.54130705483394,1554.0567516905671,82.64115021960214,-9.554702053095411
2025-02-19 16:36:28.889,791,40,615,5,5,-8,-6,-7,11,0,62,Q,-3.7213132647497598,52.07643106103077,1579.8313284314208,79.8903326640415,1.6861352903619036
2025-02-19 16:36:28.999,763,47,633,0,2,-9,-4,-9,13,0,61,Q,-4.246396971697372,50.24280686052088,1531.7615483054406,94.35490533467328,-4.779895252088977
2025-02-19 16:36:29.106,768,63,635,2,-1,-4,-6,-5,11,0,63,Q,-5.665921557970995,50.277410630021414,1537.1476553700204,126.09414360457198,-0.9489077603684564
2025-02-19 16:36:29.209,770,76,617,-1,-4,-3,-5,-8,11,0,66,Q,-7.022130981510052,51.084166092144,1548.0695788171743,152.7964779092276,-6.466143026229247
2025-02-19 16:36:30.535,765,43,635,-3,1,-1,-6,-7,11,187,55,R,-3.873957525188083,50.2406838073165,1533.7378502567249,86.21010138697929,-3.10266001701973
2025-02-19 16:36:30.629,760,56,642,-3,-1,-2,-6,-8,11,189,54,R,-4.985144889457956,49.70390875933128,1522.7124523853456,112.1998649126044,-2.2913084623577333
2025-02-19 16:36:30.739,753,36,626,-2,-2,-3,-8,-6,12,191,53,R,-3.2913398118137214,50.21534827795677,1521.4549673223773,72.73888289987461,-12.848352647819638
2025-02-19 16:36:30.842,772,56,626,-2,-1,0,-6,-6,11,204,55,R,-5.111893990013121,50.85031297165772,1547.4991918532683,112.25382738831996,-2.837427590862376
2025-02-19 16:36:30.952,781,54,641,-1,-2,0,-6,-8,13,205,57,R,-4.815419427288568,50.5234277564945,1552.884605845104,107.36974227354114,7.481392641854427
2025-02-19 16:36:31.059,767,44,626,-1,-1,-1,-6,-7,12,203,58,R,-4.020567103663067,50.71063939700793,1540.9578104670582,88.39914427711938,-5.678734488107352
2025-02-19 16:36:31.165,770,59,627,-3,1,-3,-6,-7,11,204,58,R,-5.37563979709669,50.720855239962816,1544.0707044110595,118.31191111721104,-3.3147164490054593
2025-02-19 16:36:31.269,751,54,629,0,-1,-7,-7,-7,12,178,59,R,-4.906843156655185,49.9485579541284,1516.4670184648971,109.04023834501257,-12.11685035209075
2025-02-19 16:36:31.379,761,49,619,-1,-5,-7,-6,-9,14,223,65,R,-4.526092006664241,50.787345141550745,1535.804874157102,98.88888151602892,-11.228931804528429
2025-02-19 16:36:31.485,771,51,632,9,-10,3,-6,-8,13,493,74,R,-4.613554857820525,50.56682967383168,1543.3659785943976,102.0903565607189,-1.1197126740069052
2025-02-19 16:36:31.589,767,50,631,0,-6,-3,-6,-8,13,660,80,R,-4.5306110726124595,50.46835208127218,1538.2731212839894,100.2785607095169,-3.5154361541033268
2025-02-19 16:36:31.702,786,80,600,-5,1,-5,-6,-9,13,566,87,R,-7.594643368591445,52.399617850340704,1578.285573809786,160.63975305952022,-4.7981479464016275
2025-02-19 16:36:31.809,785,105,610,4,2,-13,-6,-9,13,405,88,R,-9.766679395772696,51.74429187945456,1570.2552494408446,210.03414164495376,-0.1983466992551257
2025-02-19 16:36:31.919,771,-89,590,16,0,-22,-6,-8,13,451,87,R,8.57824697764271,52.26380261139984,1561.8370345629874,-180.28987817912565,-15.180091299821697
2025-02-19 16:36:32.019,782,164,666,1,-1,23,-7,-5,14,561,89,R,-13.833642546037016,48.74588180014649,1533.7924143004168,321.6649053008547,25.72666505872428
2025-02-19 16:36:32.135,792,39,666,-22,-26,-14,-5,-10,11,753,83,R,-3.3513310679237622,49.89090117115506,1556.8191015288735,76.66154666619454,22.856664623447273
2025-02-19 16:36:32.239,949,33,343,0,5,-5,-5,-8,14,387,90,R,-5.495507479157,70.0439387398479,1888.954631374217,65.68546136496224,3.2692955096350715
2025-02-19 16:36:32.339,751,172,609,12,-2,26,-5,-7,13,689,92,R,-15.771282932822611,49.88115327152154,1515.709483146025,347.1398549948286,-11.117277278201414
2025-02-19 16:36:32.453,561,-171,714,-1,36,4,-5,-6,10,248,33,R,13.468414888311077,37.383659922136296,1168.1492573838077,-356.0668859405189,-58.73541848848231
2025-02-19 16:36:33.569,762,29,630,-16,-6,-4,-7,-6,12,0,59,S,-2.6355643038327923,50.3872403683944,1532.37127088869,58.318591674241475,-6.921129474901022
2025-02-19 16:36:33.659,770,21,638,-10,-4,-3,-7,-7,13,265,66,S,-1.885230601699954,50.340584084738815,1539.8518177862416,41.99595866689751,0.12277954854255313
2025-02-19 16:36:33.769,763,33,617,-10,-5,-3,-7,-7,13,380,72,S,-3.0615249707484216,50.999244957755785,1540.137668222274,66.61145878287684,-11.432426334394222
2025-02-19 16:36:33.879,783,28,612,-8,-4,-4,-6,-8,14,479,76,S,-2.619548795394677,51.95942113311312,1570.5745231087142,56.16358447898338,-3.575489326351203
2025-02-19 16:36:33.985,780,27,615,0,-1,-1,-7,-8,12,677,76,S,-2.5138102361777377,51.718755986677856,1564.9792154538304,54.1723574580172,-3.925919877058277
2025-02-19 16:36:34.094,764,12,610,8,-3,-1,-8,-6,12,744,79,S,-1.126984725477923,51.38970302298786,1545.4083385583422,24.273429401439927,-13.899327906529606
2025-02-19 16:36:34.202,815,50,554,-1,0,-3,-5,-7,13,746,88,S,-5.157126973217849,55.6857804570394,1640.9584143773948,100.67229536057636,-7.449032595186054
2025-02-19 16:36:34.309,786,70,587,-7,5,-4,-6,-7,13,736,82,S,-6.800431897017055,53.052781876088964,1585.1895736362053,141.17464396251194,-9.85022865706435
2025-02-19 16:36:34.418,775,66,602,0,-4,-3,-4,-8,13,755,79,S,-6.256609340556053,51.99491503017727,1562.956110876392,133.10335911979595,-10.063972577532809
2025-02-19 16:36:34.519,756,61,606,1,-11,-6,-4,-8,14,788,84,S,-5.748035236082943,51.143757998298845,1534.722510181502,123.83343005432752,-18.21407562168008
2025-02-19 16:36:34.629,741,6,618,-7,4,-24,-6,-8,15,666,93,S,-0.5562522270806725,50.1702919078017,1508.951520878693,12.218230938289011,-22.477786643768354
2025-02-19 16:36:34.741,705,268,667,19,-7,41,-6,-8,13,742,88,S,-21.89021713341388,44.443588860283235,1405.2066867472583,534.1778610613692,4.534950268905732
2025-02-19 16:36:34.847,991,101,396,10,27,4,-5,-8,12,272,90,S,-14.308268863822466,67.58930578778752,1915.4748910218614,195.21994348456911,26.58319188228336
2025-02-19 16:36:34.951,515,-61,766,-3,-1,2,-6,-5,11,489,41,S,4.553110215953484,33.83007343963912,1071.7317064268934,-126.9429788194961,-62.07084878252465
2025-02-19 16:36:35.969,757,44,620,-1,-4,-5,-5,-6,12,387,68,T,-4.05934636479925,50.61118658349447,1529.857485276445,88.9217032393178,-12.987636554023311
2025-02-19 16:36:36.067,797,33,614,4,-5,-8,-6,-8,13,391,79,T,-3.0764548968747887,52.34978362843688,1588.7545828743482,65.78281208890024,4.041011436825784
2025-02-19 16:36:36.174,763,37,627,2,3,-8,-6,-8,12,389,83,T,-3.3771741598481495,50.53927378808376,1535.0604062917544,74.43936439422663,-7.445445275137558
2025-02-19 16:36:36.279,785,61,617,-4,2,-4,-7,-9,13,317,82,T,-5.646226215999645,51.69764368146873,1569.7508811365826,121.98064171889368,0.19580425315746197
2025-02-19 16:36:36.390,697,31,632,23,-11,-17,-7,-9,12,117,87,T,-2.8081435933594525,47.765786196056936,1437.4033506295618,63.93042162054005,-39.35569239294557
2025-02-19 16:36:36.499,703,144,626,4,-26,18,-6,-8,14,823,89,T,-12.954503067189558,47.581267790210376,1441.2348455925032,295.2173794670276,-31.375552405273083
2025-02-19 16:36:36.609,774,91,638,-32,27,-20,-6,-9,13,619,84,T,-8.117529218629672,50.218153309686336,1542.4862942003797,181.35174776774494,4.544889276689673
2025-02-19 16:36:36.715,742,81,698,-9,-12,70,-6,-10,13,601,88,T,-6.619329748788088,46.558871554191505,1468.0812739941784,160.26224150071218,14.974758425961568
2025-02-19 16:36:36.818,1163,45,607,9,56,6,-6,-7,13,516,78,T,-4.239871695681375,62.37431338268684,2048.995787133845,79.28186622615911,144.57571557158707
2025-02-19 16:36:36.929,648,-32,675,6,-16,-8,-7,-7,10,274,41,T,2.714212216121763,43.798731785072086,1340.127197880237,-66.17912088297467,-45.965831125247064
2025-02-19 16:36:37.639,765,40,630,0,-2,-2,-6,-8,12,253,61,U,-3.6329507394882063,50.47097143686249,1536.3022191517693,80.32952779878532,-5.190062830868783
2025-02-19 16:36:37.739,764,45,625,0,-3,-2,-7,-7,12,248,63,U,-4.118189703988783,50.642063885499525,1537.1993547108214,90.54184680888343,-7.525650123381183
2025-02-19 16:36:37.846,758,37,626,-3,0,-3,-6,-8,11,248,64,U,-3.3825564901942475,50.39908624272498,1528.5030769934742,74.61030850759701,-10.32576015556026
2025-02-19 16:36:37.950,742,53,632,2,0,-5,-7,-8,12,132,65,U,-4.793651262167191,49.478104770757255,1502.1577275119757,107.2969805365697,-15.465881115321736
2025-02-19 16:36:38.062,760,81,618,5,-6,-19,-6,-9,12,93,76,U,-7.467076640260332,50.644386672752105,1533.225063225942,163.4095133175017,-10.75406457056863
2025-02-19 16:36:38.170,753,-111,647,25,11,4,-7,-8,13,111,87,U,9.734952209227965,48.91863582513675,1506.777168013995,-222.11456261560883,-0.6677658765667047
2025-02-19 16:36:38.269,749,184,601,8,-20,5,-5,-7,13,638,87,U,-17.022304486352812,49.99775666104274,1515.0192750500441,372.18097010575184,-13.656320834548069
2025-02-19 16:36:38.384,784,-23,559,12,-2,-33,-7,-9,13,683,87,U,2.3561002607392547,54.48783437850756,1597.992199259379,-46.879873192558314,-21.384744114786827
2025-02-19 16:36:38.493,910,202,584,-1,-7,30,-7,-6,14,645,89,U,-19.080012226704653,55.820986589048744,1737.286401541136,385.639399023417,53.082133516457816
2025-02-19 16:36:38.600,601,-77,693,-26,23,-4,-6,-7,10,526,42,U,6.34019174590991,40.75935196542713,1253.8833954843951,-160.6472902700473,-59.82561243042562
2025-02-19 16:36:39.517,759,50,631,0,-1,-2,-6,-6,12,344,60,V,-4.5306110726124595,50.17314553937127,1526.983420596438,100.59179318817114,-7.468430034719972
2025-02-19 16:36:39.859,764,63,631,0,-1,-2,-6,-8,11,317,61,V,-5.70160274380078,50.30656269798502,1533.4727149047085,126.45128408245631,-4.5200040639671215
2025-02-19 16:36:39.869,766,67,625,0,-6,-3,-6,-8,14,311,67,V,-6.118740433098137,50.62763768821824,1539.0396576910812,134.6157402941285,-5.743846027318
2025-02-19 16:36:39.874,766,71,629,0,-1,-2,-7,-10,14,269,69,V,-6.440149389637582,50.430914138526674,1536.8570549503536,142.45019699931476,-3.988364965760411
2025-02-19 16:36:39.934,775,74,625,4,1,-5,-7,-8,12,123,71,V,-6.752384487312232,50.920480940264724,1551.2717987552728,148.12143626824542,-1.0256441574781547
2025-02-19 16:36:40.039,773,85,622,1,0,-6,-6,-8,10,116,74,V,-7.781607880234742,50.91871096865101,1549.252324224387,170.3576294425264,-2.617006038251816
2025-02-19 16:36:40.147,771,93,624,1,0,-5,-6,-10,11,120,76,V,-8.476878224461029,50.70729727634746,1544.9208717872561,186.35232305605035,-2.363974053499078
2025-02-19 16:36:40.254,757,100,619,0,0,-4,-7,-8,12,118,78,V,-9.176897245904913,50.36493886320529,1527.1230382233343,201.7335585499781,-10.730727424364431
2025-02-19 16:36:40.359,755,107,624,-1,-1,-3,-6,-8,11,122,79,V,-9.730127069303716,50.01838849627522,1521.2506997930284,215.5944700368928,-9.298591617019724
2025-02-19 16:36:40.471,787,109,586,-2,-3,-7,-8,-8,11,110,87,V,-10.536985961866245,52.86075883438712,1584.1706121596083,219.4086362457399,-7.573035229390484
2025-02-19 16:36:40.579,767,121,614,9,-1,-10,-6,-12,12,112,86,V,-11.148334025794544,50.78837663333395,1541.8162554905853,243.23307290007935,-6.257080666518277
2025-02-19 16:36:40.685,775,216,599,-3,-11,29,-6,-8,13,510,87,V,-19.82935463143133,50.592810507667764,1547.6539212307907,431.3461251430332,1.8132918487182224
2025-02-19 16:36:40.793,748,-155,656,-7,-8,-41,-6,-8,13,764,90,V,13.294058259666512,47.97628429963414,1490.8677972542646,-308.93650878931953,4.500969252944515
2025-02-19 16:36:40.900,772,132,615,-30,44,26,-6,-8,14,761,68,V,-12.113842945564347,50.82771040187249,1547.2500712900878,264.55571167136213,-2.58911119611912
2025-02-19 16:36:41.819,763,48,628,2,-4,-3,-5,-8,12,354,60,W,-4.370797037907478,50.461433460023606,1534.1962560307015,96.51562292198385,-6.746066562621991
2025-02-19 16:36:41.909,782,80,620,2,1,1,-7,-7,11,293,64,W,-7.3523793598923595,51.36074919791056,1563.0928967750738,159.90720171612008,0.7191867000694856
2025-02-19 16:36:42.020,771,76,618,5,2,-2,-7,-8,13,258,66,W,-7.010881480920926,51.07583709450575,1548.9782533302928,152.68786932957488,-5.5934637589115255
2025-02-19 16:36:42.130,742,112,631,15,5,-10,-6,-9,14,103,70,W,-10.064949282318624,49.18294719638618,1498.8005461401006,226.2340447003926,-12.58644826739021
2025-02-19 16:36:42.237,847,49,570,9,3,-17,-7,-11,13,0,89,W,-4.913347262548006,55.963121504294186,1675.6774756818331,96.94001925432092,12.330388266062755
2025-02-19 16:36:42.347,762,155,640,-63,-29,90,-5,-10,11,433,85,W,-13.614182744829353,49.16721212925027,1518.621007666104,308.90584801607105,4.5177888368680215
2025-02-19 16:36:42.450,781,88,631,38,-8,-54,-6,-8,13,739,88,W,-7.939329098511077,50.793890547939206,1555.8770909801167,175.31009475832298,4.94693417611586
2025-02-19 16:36:42.559,815,178,638,-8,-14,82,-6,-8,13,718,85,W,-15.58893567518615,50.89860604442256,1591.0310630529725,347.48899291218294,30.505744505771304
2025-02-19 16:36:42.666,813,-78,633,3,-16,-36,-6,-9,15,838,88,W,7.024732123106733,51.886292114789924,1599.7873750081676,-153.4851356096397,20.40909178330844
2025-02-19 16:36:42.769,815,217,492,-34,52,20,-6,-8,14,749,64,W,-23.800209066241155,56.58353972460595,1649.689683403557,439.24252920070165,-11.886287404355812
2025-02-19 16:36:42.880,775,79,608,2,-9,-6,-4,-8,12,625,54,W,-7.403205283302474,51.65209599990142,1559.2579098819567,158.94370952345108,-7.262979623522142
2025-02-19 16:36:43.699,792,95,589,0,-2,-2,-8,-9,12,623,75,X,-9.16234704572171,53.00935436867969,1590.7337544515694,190.80771044557963,-5.007804762593878
2025-02-19 16:36:43.793,777,90,603,-4,-3,2,-8,-9,14,637,78,X,-8.488943880504715,51.880205156858295,1563.7217982461261,181.1260770169258,-7.544716013402876
2025-02-19 16:36:43.904,838,115,580,1,-1,-5,-6,-10,14,672,88,X,-11.21491468465357,54.79328997501115,1655.077385573522,227.1287581634308,14.481045784435878
2025-02-19 16:36:44.009,802,125,561,-1,-3,-5,-6,-9,15,699,89,X,-12.561245399314718,54.37253291675027,1614.821603090758,251.68665883584137,-7.569724855256027
2025-02-19 16:36:44.117,654,-68,708,26,18,8,-6,-8,13,580,90,X,5.48615642500431,42.59845938625846,1330.8561766836494,-138.37648320258126,-24.743383932758093
2025-02-19 16:36:44.219,847,178,519,-17,13,33,-7,-7,13,0,89,X,-18.93028904235809,57.06535406034133,1686.2912612200294,354.37998169677127,4.723536513346744
2025-02-19 16:36:44.334,595,-191,755,22,-23,-29,-6,-9,13,0,87,X,14.19683539108688,37.38021300065658,1202.1014537803949,-385.88466835639565,-15.35562622554312
2025-02-19 16:36:44.440,700,291,588,-10,-25,57,-6,-7,14,574,88,X,-26.330713917215792,46.85554711835843,1429.6319395420783,594.318420581064,-24.890829215345548
2025-02-19 16:36:44.546,930,93,518,-22,73,-1,-6,-6,13,234,63,X,-10.178258446719855,60.49470049005368,1800.3101460427665,180.0310146042766,33.24660682779256
2025-02-19 16:36:44.650,747,44,625,10,-20,-9,-6,-7,11,117,52,X,-4.026978863715694,50.01172889004358,1513.1760106719894,89.1295106687651,-16.04418563586819
2025-02-19 16:36:45.669,778,104,610,1,0,-3,-6,-9,12,126,73,Y,-9.675429863232173,51.50212339939679,1560.6312269008824,208.61908431579923,-3.631167621514578
2025-02-19 16:36:45.766,786,114,627,3,3,-8,-7,-10,12,0,76,Y,-10.304846468766033,50.96527541988013,1562.764413937202,226.66048751760948,7.367318653148004
2025-02-19 16:36:45.873,747,23,626,22,-7,-20,-7,-9,12,0,88,Y,-2.1041700221130695,50.01733522381888,1513.238887772628,46.592362006386125,-16.122548521639715
2025-02-19 16:36:45.981,701,178,619,-39,-23,36,-5,-11,10,299,86,Y,-16.04314932198505,47.4229455762988,1437.3681005673393,364.9807730399235,-31.23089051523948
2025-02-19 16:36:46.089,1057,161,641,4,53,-13,-7,-8,14,669,69,Y,-14.099321364842337,57.983509774589564,1904.8955456457015,290.14965264802083,126.80790467465022
2025-02-19 16:36:46.197,893,175,446,-12,-7,-3,-6,-9,14,773,85,Y,-21.423884619811933,61.78595007717919,1774.1875478930565,347.6851297662765,5.8996121385182505
2025-02-19 16:36:46.299,887,209,419,-11,11,10,-6,-10,14,269,89,Y,-26.51032743105059,62.171156807591146,1771.3460800592832,417.37466824395744,1.253655530056733
2025-02-19 16:36:46.414,776,79,584,-14,-11,52,-6,-7,13,338,90,Y,-7.703863717538732,52.785806714546815,1572.3801225577831,160.0747805181248,-15.337618007403648
2025-02-19 16:36:46.517,982,130,605,-5,67,0,-6,-7,12,300,72,Y,-12.127091034930103,57.782835015592994,1828.0334861540289,242.00035967415863,83.76755690103118
2025-02-19 16:36:46.619,712,0,642,9,-17,-17,-4,-5,11,185,51,Y,0.0,47.95948085541795,1454.6714355506067,0.0,-27.655985426249345
2025-02-19 16:36:46.734,734,26,635,-3,-2,-1,-5,-6,12,233,55,Y,-2.344659249465977,49.11243071091159,1489.9955018712972,52.779132218874295,-19.028806114814415
2025-02-19 16:36:46.839,761,32,628,-3,1,-1,-7,-6,11,237,54,Y,-2.917007286627713,50.433056974399015,1531.8808782243736,64.41549028013134,-8.153996747577821
2025-02-19 16:36:47.759,765,68,623,-5,-1,-3,-6,-9,14,125,70,Z,-6.2291339863794235,50.67512406164015,1538.565143708684,136.7613461074386,-6.975273896091835
2025-02-19 16:36:47.852,769,68,617,0,-2,-2,-5,-7,13,137,71,Z,-6.289225935198863,51.08957396521377,1547.1288660614332,136.80723393000972,-7.324460806117372
2025-02-19 16:36:47.963,771,82,609,10,-4,-5,-7,-8,12,336,76,Z,-7.6685813159514735,51.44475792573107,1553.007591917541,165.17071665011457,-8.694712681948545
2025-02-19 16:36:48.069,750,96,645,4,6,-8,-6,-8,13,259,78,Z,-8.465597553981619,48.99390873469793,1504.6398285937223,192.59389805999643,-3.9902525906011306
2025-02-19 16:36:48.176,847,65,482,24,2,-16,-5,-10,14,0,89,Z,-7.680275583995445,60.13476221751081,1714.1990294275124,131.55010261250095,-11.49460706500713
2025-02-19 16:36:48.282,700,68,662,8,-10,-2,-6,-8,14,777,83,Z,-5.864797913380533,46.44801563143613,1424.7495295384247,138.40424001230411,-23.40598364919606
2025-02-19 16:36:48.392,890,142,425,-11,15,11,-7,-8,12,0,86,Z,-18.475383381850243,63.27577989701308,1783.181372143284,284.50758971274865,-1.5191945628040457
2025-02-19 16:36:48.499,755,131,575,29,-32,4,-5,-8,12,771,84,Z,-12.83441040347436,52.00644755678503,1543.0800296769146,267.739713758511,-25.193400085067424
2025-02-19 16:36:48.599,911,164,562,-19,23,19,-6,-6,14,760,80,Z,-16.26803413973536,57.273801968955176,1752.263673476322,315.4459302416211,43.02065368420085
2025-02-19 16:36:48.712,670,11,674,-1,-6,-6,-4,-5,10,521,43,Z,-0.9350113144107325,44.82566263146207,1374.9519541716572,22.573838053564522,-35.16062255477186
2025-02-19 16:36:49.732,785,53,613,0,-2,-2,-6,-5,13,280,60,a,-4.941506273754319,51.91047411784533,1572.0478078087012,106.13825963549193,-1.599116161444499
2025-02-19 16:36:49.819,778,56,614,-2,-2,-2,-5,-8,12,279,62,a,-5.21125586158673,51.60392374559275,1561.7359931040794,112.41287353962525,-4.526863452319844
2025-02-19 16:36:49.933,762,46,610,-8,-14,0,-6,-7,12,382,69,a,-4.312503143938897,51.242577851926974,1541.8033938462056,93.07474556026963,-14.252060690531948
2025-02-19 16:36:50.039,818,91,543,3,6,-11,-8,-8,12,468,88,a,-9.513647168480347,56.05662960011815,1647.5898586837498,183.28933635723865,-7.693512549237084
2025-02-19 16:36:50.150,884,71,483,24,19,-4,-6,-10,13,143,86,a,-8.362470985483073,61.09024855054915,1759.3822621241557,141.30785136970027,4.7085604004896595
2025-02-19 16:36:50.260,771,122,612,12,-17,-12,-6,-7,12,584,85,a,-11.273920046636144,51.013549111602636,1548.2947592776598,244.99605788829376,-4.996618259309685
2025-02-19 16:36:50.364,915,91,697,-7,4,39,-7,-9,12,631,82,a,-7.438436403364079,52.4680436352501,1708.0136840097443,169.86802759004013,92.92290955760473
2025-02-19 16:36:50.469,1012,91,607,-6,37,-2,-6,-5,14,677,77,a,-8.526149821710872,58.76296702727569,1867.0292561514084,167.8850418080812,94.15142442301863
2025-02-19 16:36:51.591,753,84,607,-3,-4,-14,-7,-10,13,261,73,b,-7.878864681972565,50.86161368404677,1528.623700573618,170.52375942653907,-18.237166332252514
2025-02-19 16:36:51.686,797,94,578,1,-1,-7,-8,-10,13,332,88,b,-9.237129399836755,53.693509557268605,1602.8612140642463,189.045111821881,-6.4263258834812405
2025-02-19 16:36:51.792,788,134,599,3,0,0,-6,-10,13,358,89,b,-12.60980539969034,52.08352052682241,1576.9073708342448,268.15429910125476,-0.6897400123255011
2025-02-19 16:36:51.899,756,114,615,-1,-1,-1,-6,-11,13,492,88,b,-10.501485008651315,50.39734419650152,1526.4836957427951,230.18404935804057,-11.782371536797768
2025-02-19 16:36:52.009,869,-40,698,-4,-10,39,-6,-11,13,578,87,b,3.279838519512315,51.18193385872935,1648.1403494590054,-75.86376752400484,72.17725670611549
2025-02-19 16:36:52.114,804,196,600,16,5,25,-6,-7,13,382,87,b,-18.090489368692182,51.865351462323076,1590.5617373321807,387.74888124018344,13.01362885658125
2025-02-19 16:36:52.222,825,92,656,1,-21,2,-6,-8,13,634,82,b,-7.983315878933313,51.23786619972374,1604.7519108089227,178.95415247808592,35.97908667799618
2025-02-19 16:36:52.329,882,158,405,0,15,23,-7,-9,13,248,89,b,-21.31192306526928,63.76179036551181,1778.9637370181727,318.6805787402169,-6.871103732834342
2025-02-19 16:36:52.430,573,-27,696,-16,23,5,-6,-5,11,324,48,b,2.22156713293605,39.44266479855608,1208.3057464358628,-56.93587286870558,-75.68027839329909
2025-02-19 16:36:53.454,767,41,621,0,-4,-2,-5,-9,12,367,55,c,-3.7773310730728493,50.94375613077718,1543.5278206096632,82.50930983702243,-7.714180702217618
2025-02-19 16:36:53.550,773,39,603,0,-7,-2,-5,-8,13,416,60,c,-3.7005430551783416,51.984994373583504,1560.8494863286237,78.74919788721388,-11.583751948460645
2025-02-19 16:36:53.650,790,38,607,-1,-1,1,-7,-7,13,452,65,c,-3.5822108651832156,52.40881532034305,1582.3835086941658,76.11464978528898,-1.8313794650106274
2025-02-19 16:36:53.764,747,22,600,9,-14,-3,-7,-8,12,475,70,c,-2.099904517645174,51.20932873347162,1526.439976425391,44.95539421868622,-26.056205964169408
2025-02-19 16:36:53.869,775,-5,634,0,3,-23,-6,-7,14,451,88,c,0.4518500923023531,50.71374606266774,1548.9921444264885,-9.993497705977344,0.8244908820728369
2025-02-19 16:36:53.979,807,254,511,19,-15,50,-6,-7,12,398,86,c,-26.430343479719976,54.73509190843629,1623.4913570633698,510.98736641151913,-6.010016678292459
2025-02-19 16:36:54.089,729,115,468,-39,72,24,-6,-6,12,558,51,c,-13.805562159715004,56.53238709360638,1563.1976775120477,246.59496970354658,-67.53431148921572
2025-02-19 16:36:54.196,811,45,609,13,-26,-7,-8,-5,12,428,47,c,-4.225998177958452,53.02127628841517,1609.8589337427948,89.32632801285544,9.117027559356302
2025-02-19 16:36:54.302,770,35,620,-4,-2,-5,-6,-5,13,421,54,c,-3.231009900368214,51.11462999306019,1548.4034682133279,70.38197582787853,-6.766428950991326
2025-02-19 16:36:54.405,786,49,609,-3,1,-1,-6,-7,14,364,55,c,-4.60009566626328,52.141609492110035,1575.5299845324157,98.2200626489674,-2.7350643514520243
2025-02-19 16:36:55.319,779,50,602,-1,-1,-1,-6,-6,15,524,67,d,-4.747888108633998,52.20833537990481,1569.2441696239423,100.72170536739038,-8.68933262338021
2025-02-19 16:36:55.421,785,41,607,0,-2,0,-5,-8,12,529,69,d,-3.864191401008724,52.22394620093279,1575.411101762928,82.28261805385992,-4.184125821779844
2025-02-19 16:36:55.527,793,55,590,1,-6,-2,-5,-5,12,545,73,d,-5.32574062476772,53.23159704812775,1594.061594227655,110.55912696408707,-5.997907432933971
2025-02-19 16:36:55.639,678,21,630,10,-21,-19,-6,-7,13,605,85,d,-1.9091524329963763,47.08579013175242,1410.3740513670446,43.68415203349252,-50.52456100477582
2025-02-19 16:36:55.745,845,-28,557,27,20,-8,-6,-8,13,393,86,d,2.8777962839918367,56.575031718308786,1679.60789620636,-55.655646264826125,6.850179660423123
2025-02-19 16:36:55.855,777,104,539,-5,-17,-31,-7,-7,13,635,88,d,-10.921006753964273,54.759226689796016,1593.7344857922174,213.3183867727035,-27.563562216222977
2025-02-19 16:36:55.961,802,-16,522,18,2,-32,-6,-9,13,675,85,d,1.755642801618448,56.92869030379325,1639.9920668243287,-32.71804622093424,-23.4262579579796
2025-02-19 16:36:56.067,863,213,584,5,-8,25,-6,-6,14,666,86,d,-20.03822888760251,54.234268670371904,1674.4135377449861,413.26776771689686,34.909031236301416
2025-02-19 16:36:56.175,573,-62,695,-23,16,-7,-6,-5,11,540,36,d,5.097783724491656,39.39281538053357,1207.6336110809075,-130.66890730718373,-74.75629965310782
2025-02-19 16:36:56.995,776,76,603,0,-3,-2,-7,-8,13,486,68,e,-7.183481409745688,51.93161800669888,1563.2754061637575,153.10429235624434,-8.761688037043768
2025-02-19 16:36:57.088,790,76,596,-2,0,-2,-6,-8,14,482,71,e,-7.266954405811692,52.745582295339666,1585.9553298885876,152.5729178120667,-4.492881789365015
2025-02-19 16:36:57.194,777,61,610,0,4,-1,-7,-8,13,438,72,e,-5.710593137499642,51.7270412391726,1562.0687931994482,122.63345738116644,-6.334573811664313
2025-02-19 16:36:57.301,695,13,592,9,-16,-7,-8,-7,13,325,85,e,-1.2579821662552613,49.568872855341105,1456.186090321353,27.238013200255523,-56.37721650394383
2025-02-19 16:36:57.409,744,145,617,4,-21,3,-7,-8,14,625,84,e,-13.224991201271719,49.57252260415956,1505.2274004494159,293.3574906789856,-14.286701716786865
2025-02-19 16:36:57.519,781,-16,542,-1,21,-16,-7,-9,13,437,85,e,1.6908972629503483,55.22835580908391,1602.43155597854,-32.82830332350402,-28.058775083698606
2025-02-19 16:36:57.625,764,130,597,17,-21,12,-6,-7,13,629,86,e,-12.284694379169922,51.34978775355487,1544.973423622038,262.8881479985142,-13.26326427010008
2025-02-19 16:36:57.731,673,20,636,-42,44,13,-6,-7,11,441,45,e,-1.801160515722367,46.604947584608134,1399.6339993963775,41.59387813956545,-50.68532483818126
2025-02-19 16:36:58.749,778,13,609,3,-11,-5,-6,-5,12,123,71,f,-1.2228768959372707,51.94066596296117,1565.3727679794576,26.15661437497808,-7.336781104742386
2025-02-19 16:36:58.845,772,-2,620,-1,-2,1,-8,-6,11,160,73,f,0.1848244541214891,51.231600065831785,1551.6834341721851,-4.019905269876126,-6.170633661599254
2025-02-19 16:36:58.949,786,-3,611,0,-3,0,-5,-5,12,245,80,f,0.28131907901154346,52.139824626248874,1575.5108659248372,-6.013400251621516,-2.7291845802486705
2025-02-19 16:36:59.059,790,58,611,-3,-2,2,-6,-5,13,123,85,f,-5.422630392729428,52.15656097940916,1579.6901074373159,115.97724839413205,0.23967639974694066
2025-02-19 16:36:59.169,854,-85,537,-14,-12,-87,-6,-6,14,215,83,f,8.994541235940225,57.51777688904151,1697.5581106102472,-168.96070187572712,6.565918738053256
2025-02-19 16:36:59.275,693,85,657,5,10,59,-5,-8,13,703,82,f,-7.37174819368353,46.290041838741445,1415.847057761302,173.66089453060704,-28.296561254221615
2025-02-19 16:36:59.382,923,234,743,18,2,-24,-6,-6,13,71,81,f,-17.481270376354036,49.83690691449624,1687.2116398925823,427.7437960291055,127.82204936057542
2025-02-19 16:36:59.489,708,50,671,3,-11,18,-5,-7,12,735,84,f,-4.261556253010584,46.45772989337116,1432.8663383216394,101.1911255876864,-15.98490538675162
2025-02-19 16:36:59.599,676,-43,632,-23,31,-1,-7,-6,13,291,52,f,3.8922901730478094,46.86064402513549,1405.6927695660231,-89.41536847831212,-50.19797391379666
2025-02-19 16:37:00.312,789,27,602,-2,0,-4,-5,-5,14,291,70,g,-2.56802326944406,52.62892337836714,1583.721127595777,54.19578003179465,-4.365169597791692
2025-02-19 16:37:00.409,788,19,600,1,-3,-2,-6,-6,13,288,71,g,-1.8137602471258893,52.69974122377439,1583.470743901892,38.18013214991872,-5.688383681643813
2025-02-19 16:37:00.520,771,12,603,5,-14,-7,-8,-7,14,386,86,g,-1.140064033786388,51.96549117393929,1558.6398023284573,24.258985250248358,-13.014008824980124
2025-02-19 16:37:00.627,761,-78,596,4,8,-31,-6,-7,12,122,84,g,7.456065456171474,51.696254892067465,1545.735857332252,-158.4328474006776,-18.58944936927992
2025-02-19 16:37:00.729,839,137,594,0,-7,38,-5,-5,12,381,84,g,-12.987571940173686,53.99888499845255,1648.005555657321,269.10221826585575,21.23563759183719
2025-02-19 16:37:00.839,759,-67,631,29,6,-3,-5,-6,12,499,80,g,6.060994194867996,50.103351043718256,1526.202666804999,-134.72408257698936,-6.819344866869983
2025-02-19 16:37:00.945,804,-15,470,-19,12,31,-6,-4,13,2,92,g,1.827968244305005,59.67771264547325,1667.1992302418262,-31.104463250780334,-34.60651519111701
2025-02-19 16:37:01.057,598,-149,636,-34,51,-7,-4,-3,10,0,41,g,13.18527330059062,42.47298823561464,1273.2425474074314,-317.24605278211925,-82.15093670756914
2025-02-19 16:37:01.969,811,8,676,-5,-2,-29,-6,-5,12,0,46,h,-0.6780249107513011,50.185507436092706,1579.121587777462,15.57703169200949,35.7408220251981
2025-02-19 16:37:02.069,723,30,678,1,-6,-11,-6,-7,11,218,48,h,-2.533558888394575,46.81174295732195,1452.1089122772328,60.25348183722957,-5.728689521388333
2025-02-19 16:37:02.175,777,67,642,1,-5,-18,-6,-6,10,264,58,h,-5.957898804762473,50.28215920092906,1546.200617789857,133.327466398868,6.444277192936511
2025-02-19 16:37:02.279,826,-40,706,22,-2,-20,-6,-9,11,207,88,h,3.2427529776226622,49.433422701970436,1585.6507982857574,-76.78696359737324,56.71009250636223
2025-02-19 16:37:02.389,795,267,645,-6,-6,67,-6,-7,12,356,85,h,-22.48727990979036,48.71406779577677,1546.4261606407333,519.3657671585858,35.35236023487698
2025-02-19 16:37:02.499,788,-46,618,-7,-5,-43,-7,-8,13,482,85,h,4.256884408215109,51.81730307237999,1574.0436139413123,-91.88579472246238,1.5343230764837017
2025-02-19 16:37:02.599,836,240,455,0,7,36,-6,-8,13,595,88,h,-27.810415443846342,58.39470457724314,1687.6785023853333,484.5010054694738,-8.533156202543921
2025-02-19 16:37:02.712,662,-44,680,-19,35,3,-4,-5,10,494,43,h,3.7022128531994083,44.17172451349271,1358.8112223476462,-90.31373683277405,-35.757751051962714
2025-02-19 16:37:03.630,780,48,613,0,-2,-1,-7,-5,14,378,66,i,-4.477319946380838,51.75117826363446,1565.3296621216605,96.32797920748678,-4.188567795612471
2025-02-19 16:37:03.728,755,35,616,1,-5,-3,-6,-7,12,383,67,i,-3.251945600363879,50.743964047808795,1529.3259860255785,70.89590663694734,-15.767956810273063
2025-02-19 16:37:03.829,775,50,597,4,-9,-8,-5,-7,13,425,79,i,-4.787468600711017,52.29527601128476,1566.1731103893426,101.04342647673178,-12.458512132177475
2025-02-19 16:37:03.939,783,-8,604,1,1,-21,-6,-8,13,450,86,i,0.7588401242685469,52.35125974354626,1574.7703197071328,-16.089607353329583,-6.765355176383309
2025-02-19 16:37:04.045,931,228,638,-5,-9,2,-7,-6,13,552,88,i,-19.665201297680003,53.95551753505372,1739.5604144307451,426.0147953707947,83.90596733961843
2025-02-19 16:37:04.160,871,174,407,-23,-22,-27,-7,-9,13,452,87,i,-23.14760051271048,63.06074294462381,1762.4873279326803,352.09276126324494,-9.573297897360248
2025-02-19 16:37:04.261,801,183,545,-33,59,39,-5,-8,11,576,59,i,-18.561011940760668,54.331779716522696,1613.4070693272413,368.6061094717667,-7.761364273840741
2025-02-19 16:37:04.369,677,-6,637,17,-29,-10,-6,-7,11,524,46,i,0.5396617127273243,46.74235688050496,1405.2795616353358,-12.45447174270608,-48.24975001729524
2025-02-19 16:37:05.189,788,54,593,5,-7,-2,-5,-7,13,561,68,j,-5.203140444768646,52.923416873862905,1585.8303942445914,108.6736564583857,-7.397745922642912
2025-02-19 16:37:05.284,771,40,599,2,-5,-3,-5,-7,12,582,74,j,-3.820423397091307,52.09412630792602,1560.0211070777582,80.93494718950754,-14.000834162875549
2025-02-19 16:37:05.389,811,63,565,0,-3,-4,-4,-6,12,590,86,j,-6.362451177390284,54.96999248852447,1629.851532843254,126.60992178683723,-5.4699334851275125
2025-02-19 16:37:05.499,819,-23,610,13,-10,12,-6,-7,14,631,87,j,2.1593097890821022,53.30136419055624,1620.7898732422482,-45.51668752694958,12.818287328728502
2025-02-19 16:37:05.608,845,134,448,-34,-3,29,-6,-4,14,233,98,j,-16.652299730354155,61.04048366877745,1719.962042325545,272.751377126181,-15.885201138276784
2025-02-19 16:37:05.711,312,-318,809,-9,-44,-57,-6,-7,12,612,61,j,21.45869154293993,19.74447704044531,649.8259928739693,-662.322646583084,-66.96547511231142
2025-02-19 16:37:05.825,880,52,574,-10,-20,39,-6,-9,14,696,86,j,-5.176428349259151,56.77745256393839,1716.548767761305,101.43242718589528,28.34205375569445
2025-02-19 16:37:05.930,462,-92,724,-3,-10,1,-7,-7,10,558,39,j,7.241866858916208,32.335084924289674,996.869843099933,-198.5108778467399,-114.19429957651835
2025-02-19 16:37:06.845,792,82,609,2,0,1,-7,-9,13,124,75,k,-7.6685813159514735,52.19288436456356,1582.0788885790344,163.8010970498495,1.4772182517275496
2025-02-19 16:37:06.943,781,110,617,-2,2,-11,-7,-7,11,108,76,k,-10.108600810000498,51.25401427288659,1560.9283348036336,219.84906123994836,0.8466292268351481
2025-02-19 16:37:07.049,789,87,558,5,-1,-22,-7,-9,12,97,88,k,-8.861864406397562,54.406097106262365,1602.1627028139756,176.66432844716837,-17.088451419769513
2025-02-19 16:37:07.156,825,264,503,1,-4,37,-6,-8,13,122,89,k,-27.692775202936687,55.44981854748791,1648.6297961360997,527.5615347635519,0.835409143687059
2025-02-19 16:37:07.266,566,-32,667,8,-28,-14,-5,-7,13,513,83,k,2.746716926341109,40.2846374873182,1212.5852647287315,-68.55605736982228,-94.96532080223335
2025-02-19 16:37:07.373,799,103,586,-4,16,-12,-6,-8,14,140,88,k,-9.968930984919611,53.32642562156945,1601.0511921040033,206.39333264920197,-2.237795460508096
2025-02-19 16:37:07.479,744,172,621,-3,-29,39,-5,-8,14,305,90,k,-15.481274818025183,49.10411267682326,1499.90046435339,346.751182619332,-9.933048875611462
2025-02-19 16:37:07.589,1063,143,586,-15,73,7,-6,-5,12,295,70,k,-13.713713335072246,60.427407059466695,1932.731103865284,260.00051538357064,106.5433425540391
2025-02-19 16:37:08.499,780,99,597,0,-2,-3,-5,-8,13,176,70,l,-9.415626391540327,52.19436607545919,1570.0947410785316,199.28125559842903,-7.72635951779921
2025-02-19 16:37:08.599,779,106,602,1,-2,-6,-6,-9,14,173,73,l,-9.98626040160485,51.87964744697388,1565.7157894135132,213.0499020254588,-5.962651125718935
2025-02-19 16:37:08.711,731,74,592,0,-13,-17,-5,-10,12,186,83,l,-7.125016348901798,50.78032915309148,1505.727454076551,152.4265822184197,-35.41265774735746
2025-02-19 16:37:08.819,780,-28,638,3,-5,30,-8,-11,14,342,87,l,2.5129357718150347,50.691576416421334,1553.7470821712666,-55.77553628307111,5.114566121451048
2025-02-19 16:37:08.926,807,110,554,18,3,15,-5,-7,14,112,91,l,-11.230355053642848,55.012029585671506,1626.2724519774692,221.67282492877519,-8.424954641286035
2025-02-19 16:37:09.030,669,-8,601,-17,25,1,-4,-8,13,335,64,l,0.7626275654815182,48.06235557757657,1412.8726068572803,-16.895337600684968,-67.26223725145803
2025-02-19 16:37:09.136,796,67,603,0,-3,-4,-5,-7,13,215,61,l,-6.34019174590991,52.68536837872969,1591.3187036814302,133.94265470685406,0.5161076383134287
2025-02-19 16:37:10.154,771,76,618,0,2,-1,-7,-8,13,110,66,m,-7.010881480920926,51.07583709450575,1548.9782533302928,152.68786932957488,-5.5934637589115255
2025-02-19 16:37:10.253,758,80,614,5,-3,-9,-6,-9,13,107,69,m,-7.42342916889668,50.75553888418621,1532.4538052050034,161.73654936200563,-13.328016353393195
2025-02-19 16:37:10.360,803,88,599,-1,3,-8,-6,-10,12,111,85,m,-8.357624692842162,52.98518049066377,1601.4798243416888,175.5046382840207,3.3718371349046947
2025-02-19 16:37:10.464,814,202,539,4,0,16,-5,-8,12,61,88,m,-20.544395000241565,54.73450975000145,1630.4854907317226,404.6167925403047,-1.645797916951551
2025-02-19 16:37:10.576,758,-68,662,-1,-12,-26,-5,-8,13,518,82,m,5.864797913380533,48.718605329641996,1509.4784124445748,-135.41494992906473,5.695634514104995
2025-02-19 16:37:10.679,805,153,536,0,-4,21,-6,-10,13,355,88,m,-15.931276684965905,55.2999634945748,1627.143678319892,309.25836370551986,-11.4149212167232
2025-02-19 16:37:10.789,756,34,710,4,-14,5,-5,-8,13,601,86,m,-2.741647122960003,46.76448487609083,1484.544166880169,66.76521385439915,25.78524009931209
2025-02-19 16:37:10.896,916,55,507,5,22,-10,-5,-6,13,599,84,m,-6.191307422254705,60.893531939636766,1789.7173155777143,107.46119252922959,23.403188866920004
2025-02-19 16:37:11.810,763,58,630,1,-3,-2,-6,-7,12,88,62,n,-5.260022215670987,50.33516236451866,1532.791421326488,116.51625483215767,-5.607595590678102
2025-02-19 16:37:11.907,774,82,627,5,-1,-4,-4,-7,12,0,67,n,-7.45094017860878,50.752007338433216,1548.4148102260679,164.04394630302008,-0.3360284389463004
2025-02-19 16:37:12.013,805,41,698,6,-3,-19,-6,-7,12,0,84,n,-3.3616487226068923,49.02322583160445,1559.9754630408456,79.45216644058965,43.37531279191296
2025-02-19 16:37:12.124,784,198,578,-4,-7,33,-6,-6,12,69,88,n,-18.909437184829173,52.07063198851833,1572.7691179512567,397.2044456050368,-3.516007877329571
2025-02-19 16:37:12.234,805,-101,649,0,-11,-35,-5,-10,13,462,82,n,8.845645516291412,50.78846044201109,1579.8171802125667,-198.2130872067941,24.33372676030342
2025-02-19 16:37:12.337,813,170,518,8,4,28,-5,-7,14,390,86,n,-18.169077044418408,56.15493669395238,1643.5466840961558,343.6690483349896,-11.179806103085866
2025-02-19 16:37:12.448,611,-19,708,-21,34,6,-7,-5,10,411,42,n,1.5372296465617346,40.783806739949334,1264.206631635302,-39.31248118014851,-48.90719344974434
2025-02-19 16:37:13.259,771,63,614,-2,-2,-2,-6,-7,13,217,66,o,-5.85838137530748,51.321001219798674,1551.6595316206708,126.78930024915987,-7.6925452854627565
2025-02-19 16:37:13.360,773,65,609,0,-3,-2,-7,-7,12,218,68,o,-6.092249062048787,51.60971020061896,1556.7987150733707,130.90804201781253,-8.507655213043677
2025-02-19 16:37:13.467,780,55,601,1,-6,0,-6,-5,14,238,73,o,-5.228809809406703,52.26971290401201,1570.9001634065294,110.76860126584504,-8.398715650415738
2025-02-19 16:37:13.579,768,104,626,-7,-10,-11,-6,-8,13,447,85,o,-9.43263527829204,50.4338854133914,1538.8900882203789,208.39136611317628,-2.3557229504648376
2025-02-19 16:37:13.681,901,-39,520,38,25,1,-6,-8,14,126,84,o,4.289153328819018,59.939568339194786,1766.497556446878,-76.46326825907683,20.48975654564225
2025-02-19 16:37:13.789,711,-23,607,7,-18,-49,-6,-6,12,483,91,o,2.169971653706253,49.49141699735597,1471.3086686754104,-47.5950764831708,-42.09614892542072
2025-02-19 16:37:13.902,1020,105,588,-19,34,25,-5,-8,14,417,75,o,-10.124671655397817,59.64720234645282,1882.9302654777716,193.83105674035886,90.54608225399033
2025-02-19 16:37:14.000,668,1,653,-3,7,9,-8,-6,11,366,41,o,-0.08774231963823739,45.65053398508716,1383.0894938282327,2.0704932542338814,-46.03209501472452
2025-02-19 16:37:14.725,781,61,614,-2,-1,-1,-6,-7,13,279,66,p,-5.673634084723522,51.68978782467339,1565.6658910811386,122.2863243994231,-2.8820193646847656
2025-02-19 16:37:14.819,773,52,606,1,-2,-1,-5,-7,12,272,66,p,-4.904455720599123,51.80293370040893,1558.8885563442045,104.86701802056746,-10.104094624305276
2025-02-19 16:37:14.926,746,51,593,3,-7,-8,-5,-7,12,278,71,p,-4.915534708792623,51.415714997046344,1527.6915597430861,104.44003960710106,-28.37144092178289
2025-02-19 16:37:15.032,767,-33,568,5,8,-16,-5,-8,14,248,86,p,3.3250662587636297,53.432109994445476,1570.151488501247,-67.5554095443822,-26.771897612396742
2025-02-19 16:37:15.139,828,201,555,7,0,30,-5,-5,12,65,91,p,-19.90847029032616,54.515158523460585,1642.2691242042958,398.66678015104276,9.203666747120565
2025-02-19 16:37:15.249,833,-83,693,-5,-22,-29,-5,-8,12,581,83,p,6.829732379622254,50.04108506191316,1599.5051695903298,-159.37446467706764,55.319228660145995
2025-02-19 16:37:15.356,800,121,479,0,11,35,-6,-8,14,234,88,p,-14.176880837696327,58.30225598549926,1650.8317988822787,249.68830958094463,-30.435539580764384
2025-02-19 16:37:15.462,588,-37,629,-24,44,15,-6,-5,11,245,45,p,3.3664606634298013,43.0211061351243,1270.2677236805116,-79.93181254452199,-100.84081325687384
2025-02-19 16:37:16.679,770,71,606,0,-1,-1,-6,-6,13,548,69,q,-6.682406812000629,51.6068290396584,1553.7674858827145,143.269469477497,-10.835190188214142
2025-02-19 16:37:16.778,789,70,605,0,-2,-1,-6,-6,14,555,70,q,-6.5999169819138706,52.33512997729845,1580.5983321000876,140.23052376046402,-1.9923839297247241
2025-02-19 16:37:16.883,771,57,609,2,-4,0,-5,-5,12,590,71,q,-5.347081600299364,51.57378380388822,1554.4091635790392,114.91740898055153,-9.80179068694531
2025-02-19 16:37:16.991,832,164,534,-5,-4,-7,-7,-6,14,562,85,q,-17.072565360618665,56.1220499294383,1662.2268684110607,327.65048848487254,1.1380435919393221
2025-02-19 16:37:17.092,841,60,541,10,13,10,-6,-9,12,313,84,q,-6.328567526245277,57.0880089271691,1680.5061685881283,119.89342463173327,0.9609545705384335
2025-02-19 16:37:17.208,746,11,609,1,-12,-35,-7,-7,13,577,87,q,-1.0347866140221642,50.768807361374265,1520.6002881229779,22.421720066156503,-23.347956389937508
2025-02-19 16:37:17.309,855,263,568,-19,-13,67,-7,-6,14,200,88,q,-24.84546563669035,53.79265654754369,1661.8846091091696,511.19959321135855,31.964376638587055
2025-02-19 16:37:17.424,793,-59,639,23,-4,-16,-5,-4,13,624,90,q,5.275263757478342,51.0192374272264,1570.357216025325,-116.83616109141761,12.604967162443131
2025-02-19 16:37:17.529,466,-133,721,-36,36,23,-5,-3,10,191,29,q,10.451632943988697,32.440079853421686,1002.4172926660384,-286.09763932313973,-108.95036054123113
2025-02-19 16:37:18.539,788,29,605,-2,-1,-2,-7,-4,13,182,54,r,-2.7443087252172758,52.45239052972712,1580.847221011975,58.17838757531379,-3.7215338987878113
2025-02-19 16:37:18.640,790,33,607,-2,0,-1,-6,-4,13,196,53,r,-3.111863628003922,52.42211093774723,1582.5250446585692,66.10547654902885,-1.940129250318364
2025-02-19 16:37:18.741,781,33,604,-2,1,-2,-5,-5,13,210,52,r,-3.1272893005584814,52.241469688764276,1571.5984168373575,66.40556690862076,-7.423103418391634
2025-02-19 16:37:18.857,778,35,611,-5,-1,-3,-5,-5,11,204,52,r,-3.278499451378346,51.810188991752035,1563.9668532126655,70.35840599285771,-6.256744618173002
2025-02-19 16:37:18.959,784,31,607,-7,0,-4,-6,-5,11,160,54,r,-2.9236035541385657,52.21559227570569,1574.3217775252667,62.249968243983744,-4.894539487036809
2025-02-19 16:37:19.069,792,26,601,-7,0,-8,-7,-6,14,225,54,r,-2.4771413878919546,52.781580100420506,1588.3355055679945,52.14232720298971,-3.2899480383390483
2025-02-19 16:37:19.174,763,20,623,-4,-1,-6,-7,-6,12,422,55,r,-1.8387193883677608,50.75343174956997,1537.4305387869927,40.2996209380601,-9.333192220572187
2025-02-19 16:37:19.283,788,27,605,3,-13,1,-6,-5,12,481,64,r,-2.5553061905230656,52.45661689956931,1580.8921721871109,54.16762518915229,-3.756045905079077
2025-02-19 16:37:19.390,745,7,614,-2,2,-3,-8,-7,14,444,67,r,-0.6531809146393354,50.50415377143532,1516.670695114975,14.250597135308489,-21.980948725630242
2025-02-19 16:37:19.490,753,22,621,2,0,-10,-6,-5,14,455,70,r,-2.0289536416908316,50.469918565638324,1524.2905232215635,44.534384476592834,-15.084216362006487
2025-02-19 16:37:19.607,809,27,550,0,1,-13,-6,-10,14,445,87,r,-2.810445705112084,55.7580414812278,1635.668730839801,54.58968570169916,-12.012116145723667
2025-02-19 16:37:19.714,816,237,524,-5,-2,23,-6,-5,12,413,90,r,-24.336767521136373,54.82440332506924,1633.3903373230587,474.4038112078001,-0.892814653532696
2025-02-19 16:37:19.824,836,143,598,5,-12,-10,-5,-6,13,649,89,r,-13.448615051686518,53.66631225527502,1641.580061674175,280.7965894968984,21.759716649334337
2025-02-19 16:37:19.931,658,-46,625,-14,53,9,-6,-7,13,618,52,r,4.209379640095126,46.396092181473975,1382.124824735,-96.62270811217323,-62.80853413278851
2025-02-19 16:37:20.037,792,48,631,7,-11,-1,-7,-6,12,503,48,r,-4.350096657823328,51.37448116040033,1573.2425265690308,95.34803191327461,8.570663806744278
2025-02-19 16:37:21.356,934,25,837,-12,2,-15,-5,-6,12,139,47,s,-1.7108348316044648,48.12233574938342,1678.5718324146046,44.929652901889845,169.7552208447279
2025-02-19 16:37:21.449,904,62,628,4,-21,-3,-6,-5,13,348,65,s,-5.638318461847497,55.08235585770738,1723.9756455951915,118.23726772887377,58.37090106882715
2025-02-19 16:37:21.557,755,-14,628,2,-19,1,-6,-7,13,516,84,s,1.277082915254951,50.23972165161103,1523.7271100875046,-28.254542438708697,-11.41804653636143
2025-02-19 16:37:21.659,766,-56,629,4,2,-24,-7,-5,12,249,90,s,5.087641198601641,50.497940121190645,1537.6017148164283,-112.4095248429765,-4.599841539860904
2025-02-19 16:37:21.773,735,130,666,-6,-9,36,-5,-5,13,464,90,s,-11.044982781002348,47.286083848800864,1469.7498602516287,259.95575759552617,0.2266572413815311
2025-02-19 16:37:21.876,963,56,438,42,29,-2,-6,-5,15,3,92,s,-7.285959126480211,65.36707439002646,1871.9967388837822,108.85962344495516,24.56223091267219
2025-02-19 16:37:21.987,458,-138,798,-27,44,22,-5,-3,9,0,25,s,9.811256867996049,29.489926965617727,950.2705373346039,-286.3260571008195,-59.71154758299997
2025-02-19 16:37:22.899,798,69,606,0,-7,-9,-7,-7,12,339,65,t,-6.495801845417635,52.60913156351743,1592.5114114859402,137.6983551284835,2.6492288715793393
2025-02-19 16:37:23.003,738,41,623,3,-11,-13,-5,-8,14,463,72,t,-3.7652397474474006,49.768794348349765,1501.4443724109287,83.4135762450516,-21.479463430905867
2025-02-19 16:37:23.109,781,69,597,-2,-4,-12,-6,-8,14,416,88,t,-6.592872707594245,52.421961733161055,1573.5234565663027,139.01807746872583,-8.808583316366821
2025-02-19 16:37:23.216,954,321,482,19,-8,63,-6,-9,11,405,83,t,-33.66262702064817,58.740973369576935,1808.8301302310103,608.6315218072898,50.10469311179543
2025-02-19 16:37:23.322,643,-46,741,7,20,-29,-5,-5,14,577,82,t,3.5522645648215287,40.89515211129702,1297.6768573874954,-92.83535838230915,-13.456533941110365
2025-02-19 16:37:23.429,916,39,598,35,-4,-44,-6,-10,12,1,80,t,-3.7313969991604465,56.80627264172539,1752.8242547082964,74.6289802768816,51.68896908781528
2025-02-19 16:37:23.533,744,175,673,4,-1,25,-6,-8,12,665,84,t,-14.575811070119416,46.9346066701552,1474.5748409978864,346.8422005035351,12.14399463497648
2025-02-19 16:37:24.349,768,96,622,2,-4,-1,-6,-7,10,84,63,u,-8.77384806833136,50.66588307434423,1541.4629242207072,192.68286552758843,-4.42439956416672
2025-02-19 16:37:24.453,795,125,611,-1,-2,-1,-5,-8,12,69,71,u,-11.562176414535834,51.88680385664358,1581.792887763644,248.70957354774276,6.307604498633282
2025-02-19 16:37:24.559,706,88,633,12,-19,-16,-6,-7,10,4,83,u,-7.914562708881633,47.84787290078549,1447.3655868810956,180.40817513532068,-31.70880523474989
2025-02-19 16:37:24.670,828,165,587,-18,-10,52,-6,-9,12,134,83,u,-15.700157522277177,53.631623426420504,1633.221202155914,325.4607468064322,16.148737118935173
2025-02-19 16:37:24.777,723,-136,726,0,-2,-30,-5,-8,13,483,84,u,10.610125040129738,44.38738836432321,1422.5060577209026,-267.5806692255086,23.591427516770295
2025-02-19 16:37:24.883,817,322,504,-6,-1,40,-5,-7,13,469,84,u,-32.57405713457251,53.7942164948791,1623.9006915840396,640.0196116157414,6.230173123187512
2025-02-19 16:37:24.989,659,-97,640,-16,50,-2,-4,-6,12,304,44,u,8.618300152665485,45.512761117250314,1372.4065404353387,-202.00824646772057,-52.837914838568736
2025-02-19 16:37:25.808,774,69,619,5,-3,-1,-6,-7,11,148,55,v,-6.360509397367877,51.176544120707725,1553.0813791088544,138.45299116086687,-4.063790269225933
2025-02-19 16:37:25.902,750,80,633,11,-3,-8,-5,-6,11,183,63,v,-7.202984896534843,49.61173229637058,1511.671005268029,161.24490722858974,-9.850328446216281
2025-02-19 16:37:26.009,832,134,544,-2,1,-12,-6,-7,11,39,83,v,-13.837817319180367,56.044061337952975,1661.4673553381804,267.59209809533195,1.655959971189759
2025-02-19 16:37:26.119,788,67,603,-46,-22,62,-5,-8,11,391,80,v,-6.34019174590991,52.40597453629324,1580.353262135724,134.37013777042324,-3.331239933809229
2025-02-19 16:37:26.226,754,38,595,18,-14,-51,-5,-6,12,464,86,v,-3.6542633009619454,51.665436568178656,1538.4023487363527,77.5322138620443,-23.99124336621992
2025-02-19 16:37:26.332,881,208,565,-41,65,28,-5,-7,11,530,59,v,-20.21075990405221,55.65151188083217,1706.621099414257,402.9252992941719,35.515412974965784
2025-02-19 16:37:26.439,656,19,685,6,-11,-5,-5,-7,11,252,36,v,-1.5888186301442317,43.7501289321229,1347.5146813089593,39.028626440350955,-37.08469008633699
2025-02-19 16:37:27.355,767,64,629,0,-2,0,-6,-6,11,119,58,w,-5.80978308792703,50.50081972067803,1538.6336835683924,128.38664373973546,-3.799983004587716
2025-02-19 16:37:27.451,761,66,635,2,-3,-1,-7,-7,9,117,61,w,-5.9338455126008745,50.00592584209032,1527.110919623014,132.44325978333632,-4.264696400281309
2025-02-19 16:37:27.558,737,77,633,11,-4,-9,-6,-8,11,86,67,w,-6.9355542400621255,49.133033300138685,1493.2308276952378,156.00919095323377,-16.51711523892186
2025-02-19 16:37:27.664,800,88,632,5,4,-18,-4,-7,11,0,81,w,-7.926926682689598,51.423385816966444,1581.7750497003244,173.99525546703563,14.397710736743875
2025-02-19 16:37:27.771,697,290,591,-5,-15,40,-6,-8,11,407,81,w,-26.13689775095055,46.6348819358633,1423.992838353192,592.4790862588603,-25.43151716891873
2025-02-19 16:37:27.885,752,-79,682,1,-4,-35,-7,-8,13,579,82,w,6.607453376076221,47.604574566296876,1490.5091754134146,-156.58274582135607,12.235029744749
2025-02-19 16:37:27.987,764,374,503,0,1,20,-6,-7,13,583,83,w,-36.6322330441553,50.633659033297185,1537.1063195295874,752.4578056335939,-5.995390999191784
2025-02-19 16:37:28.089,861,121,618,-1,-8,5,-7,-7,14,684,84,w,-11.077967022722008,53.8183200328796,1668.1491140359594,234.43210545685378,38.6525522947469
2025-02-19 16:37:28.205,582,-35,680,-12,22,7,-5,-7,10,325,35,w,2.9464473800123296,40.522196118906685,1231.742577329619,-74.07386633425544,-79.14940306553422
2025-02-19 16:37:29.022,781,68,597,1,-4,-2,-5,-8,14,371,69,x,-6.498146995939136,52.42721467282068,1573.579364164091,137.00819047779538,-8.851319341821181
2025-02-19 16:37:29.118,791,76,595,3,-4,-4,-5,-8,12,404,72,x,-7.279036890574138,52.826091133732035,1587.8051554684048,152.55776462149024,-4.366709865614325
2025-02-19 16:37:29.221,940,72,569,19,-1,-4,-6,-7,13,524,84,x,-7.211752973082679,58.61071138151137,1793.6481845234484,137.38581838903008,52.270407453359326
2025-02-19 16:37:29.330,663,-10,687,20,9,-18,-6,-8,14,330,85,x,0.8339408071259133,43.978482963630434,1357.3881783604995,-20.473426521274504,-32.52440201155832
2025-02-19 16:37:29.438,891,135,578,-11,8,9,-5,-7,12,1,84,x,-13.146556247571956,56.32969308390331,1723.24155412634,261.0972051706576,38.11715119525866
2025-02-19 16:37:29.549,798,71,584,17,2,-30,-7,-9,11,136,80,x,-6.931735936751336,53.601686097626136,1602.911260111733,142.6149116139512,-5.057864542922516
2025-02-19 16:37:29.654,824,123,609,9,-3,2,-6,-6,13,523,86,x,-11.418447078199103,52.983660878625464,1622.4638571042633,242.18817284444708,18.87319298968896
2025-02-19 16:37:29.765,590,-64,700,-12,17,-2,-5,-6,10,133,34,x,5.223947596268426,40.00862799773376,1232.9029587083166,-133.73862602937672,-62.76622219630781
2025-02-19 16:37:30.982,772,50,623,-2,-4,0,-6,-8,13,331,63,y,-4.588542192154618,51.00672753881652,1549.2198494542854,100.33807315118429,-4.212391463756035
2025-02-19 16:37:31.077,792,82,606,-2,-3,-3,-6,-7,11,349,71,y,-7.706089524911961,52.327386258935505,1583.5157405049001,163.94986202197197,0.3705318864023184
2025-02-19 16:37:31.186,705,40,618,7,-21,-25,-6,-8,12,368,84,y,-3.7032990291142185,48.702958136737216,1456.2982078773557,82.62684867389252,-40.58481201163954
2025-02-19 16:37:31.293,825,188,591,4,-11,45,-6,-8,11,345,86,y,-17.64612255912415,53.06653186462091,1624.3337991181024,370.15121725357983,18.38633299539549
2025-02-19 16:37:31.400,763,-36,660,8,10,-28,-7,-7,12,614,83,y,3.1221304621157078,49.09786545464404,1518.8290763759123,-71.66166022219245,6.2028959264715695
2025-02-19 16:37:31.506,750,29,698,-15,-11,65,-6,-7,13,491,88,y,-2.3791153814117796,47.03205795000403,1481.735176646537,57.2937601636661,16.998462267622813
2025-02-19 16:37:31.609,897,85,543,28,36,-41,-6,-5,14,5,90,y,-8.896752566060465,58.50323750221329,1749.6696868125384,165.79924568457722,26.835406979700792
2025-02-19 16:37:31.721,523,-89,765,-14,18,10,-5,-4,10,103,32,y,6.635951674493253,34.179638455125996,1084.7894177797652,-184.60087606577267,-56.73786730692234
2025-02-19 16:37:32.733,794,56,606,0,1,-3,-5,-5,13,536,66,z,-5.279665053592963,52.53070072583074,1587.679418259459,111.97738970091902,0.24467573648348662
2025-02-19 16:37:32.833,702,18,628,5,-2,-21,-7,-7,12,367,70,z,-1.6417862223927175,48.17291154064975,1447.160791287993,37.10668695610239,-38.61107824623889
2025-02-19 16:37:32.939,953,219,655,-3,-29,5,-5,-8,12,580,85,z,-18.48741747081305,54.069052724120525,1762.7248039085557,405.0752697334457,98.47350833147539
2025-02-19 16:37:33.049,804,192,546,-25,15,22,-6,-7,13,293,86,z,-19.37413976865759,54.25106133979032,1615.58480439286,385.81129657142924,-5.150874625001961
2025-02-19 16:37:33.157,747,113,629,15,-34,5,-6,-6,13,459,89,z,-10.184561594016513,49.45251869915837,1506.8675036902728,227.94648984872936,-10.83488597213045
2025-02-19 16:37:33.267,690,195,662,-42,73,-20,-6,-5,11,164,66,z,-16.412966524369388,44.99491636813645,1397.044039566481,394.81679379052713,-16.352397381174228
2025-02-19 16:37:33.371,881,183,528,-2,-42,11,-5,-9,14,506,87,z,-19.115851327941048,57.61324678466771,1725.4517860939482,358.4082597675284,21.904037392049247
2025-02-19 16:37:33.471,827,153,577,1,8,34,-5,-6,15,598,90,z,-14.851041150828712,54.17770539142771,1637.8361421826282,303.0095885779228,11.277564644042855
2025-02-19 16:37:33.581,621,-43,668,0,3,-2,-4,-6,9,162,40,z,3.683119787675347,42.85271583253805,1301.1160956407798,-90.09338504436963,-63.59026068927699
2025-02-19 16:37:34.799,879,95,597,-31,16,-19,-6,-5,12,0,55,0,-9.041610148228948,55.482675401356154,1702.9548859670122,184.0508693593472,37.3855893944185
2025-02-19 16:37:34.901,686,-74,710,-48,12,-5,-6,-5,10,207,44,0,5.950189369180973,43.8604150075519,1378.9038423832012,-148.74472935328993,-7.14537622751152
2025-02-19 16:37:35.004,851,24,619,5,-12,-2,-5,-5,12,267,59,0,-2.2203720101574156,53.94815023129248,1659.4847473999257,46.80097995017417,30.924725451757922
2025-02-19 16:37:35.114,726,14,638,6,-21,-18,-5,-6,12,497,79,0,-1.2570724158145117,48.68454743448088,1477.0861049569553,28.483754090079024,-22.045364962172812
2025-02-19 16:37:35.221,774,-88,550,26,9,-35,-8,-10,12,143,88,0,9.090276920822323,54.259984636048216,1585.675783777212,-180.28355164392076,-26.77219777450466
2025-02-19 16:37:35.331,886,427,605,-32,-40,27,-5,-6,13,472,91,0,-35.21387463608598,50.11148468898709,1653.2937121822974,796.7905362323263,81.05790533827292
2025-02-19 16:37:35.437,859,200,443,-2,35,-23,-5,-8,14,444,89,0,-24.297618185160864,60.497185362357875,1729.3315047329622,402.6383014512136,-5.843837714438109
2025-02-19 16:37:35.545,711,30,667,-66,79,53,-6,-5,9,122,30,0,-2.5752859221480073,46.799962309038534,1439.9681771046894,60.7581509326873,-16.85622240341445
2025-02-19 16:37:36.359,813,36,623,0,-9,-7,-7,-7,12,191,64,1,-3.3071538647516157,52.491022253004964,1606.2579429664625,71.12581297268468,15.128292167151017
2025-02-19 16:37:36.457,765,24,631,0,-5,-3,-6,-7,14,224,67,1,-2.178187301612163,50.46260967718621,1536.209324489872,48.19480233693716,-5.121678108639458
2025-02-19 16:37:36.565,747,19,625,0,-2,-3,-6,-8,13,178,72,1,-1.7412554297861516,50.06842490634438,1513.8115392814718,38.50390796030517,-16.575919746880572
2025-02-19 16:37:36.670,787,59,596,-2,-4,-5,-5,-8,12,124,89,1,-5.653478240804291,52.7285801660921,1582.7756597990294,118.65789571555621,-6.645861804601736
2025-02-19 16:37:36.782,828,46,559,5,-12,-12,-6,-8,14,430,89,1,-4.704259056289487,55.886179416140465,1655.9250761707563,91.99583756504201,0.05058263351111236
2025-02-19 16:37:36.888,701,-102,671,21,-5,70,-7,-8,13,622,88,1,8.6434702618186,45.92563576184374,1419.437597055367,-206.5372823104813,-16.691337552283812
2025-02-19 16:37:36.994,811,-7,647,4,-2,23,-5,-6,12,510,88,1,0.6198683287142093,51.416181872103934,1592.6966416575065,-13.747073355860106,23.37764839407305
2025-02-19 16:37:37.096,913,59,374,1,8,-21,-5,-6,13,0,85,1,-8.964759557481452,67.47599829037452,1836.7191419726087,118.69269373097907,-4.390973820104648
2025-02-19 16:37:37.203,757,27,618,15,-6,17,-5,-5,13,523,92,1,-2.501622814281763,50.74570727899034,1531.3452382870753,54.618654469948524,-14.160313423266302
2025-02-19 16:37:37.319,630,-43,641,-39,61,-1,-6,-3,10,129,37,1,3.8378047064117293,44.43983672290315,1330.1599313365873,-90.78869372614803,-71.38494601071807
2025-02-19 16:37:37.425,810,63,631,3,-19,-12,-5,-4,10,144,38,1,-5.70160274380078,51.94312517129844,1597.3992272457454,124.24216211911353,17.6062809974502
2025-02-19 16:37:38.240,753,39,626,-2,-1,-2,-5,-7,12,8,62,2,-3.564937899859117,50.207288691926365,1521.364946802124,78.79579405748052,-12.773514871353882
2025-02-19 16:37:38.334,770,41,630,-1,0,-4,-5,-5,13,0,62,2,-3.723522102530917,50.6512411092242,1543.3009204424845,82.17576329628812,-2.700753089305408
2025-02-19 16:37:38.439,766,47,629,-1,-1,-5,-5,-7,13,0,63,2,-4.273301368566136,50.53066076951072,1537.96485830338,94.36599000033794,-4.898036387501406
2025-02-19 16:37:38.547,722,51,649,7,-3,-7,-6,-8,11,0,68,2,-4.493208204404335,47.96018494613324,1464.6796646968517,103.46075193842029,-18.588784471269832
2025-02-19 16:37:38.653,837,71,525,-1,3,-27,-6,-9,12,5,91,2,-7.70184502629542,57.66823249695934,1681.9654329785662,142.67568188946024,-4.996239323473674
2025-02-19 16:37:38.759,708,-19,780,31,-9,35,-6,-9,13,582,85,2,1.3953904782325175,42.221327287948135,1379.996293509551,-37.03379883712072,39.66510037083367
2025-02-19 16:37:38.870,797,17,522,19,20,-2,-5,-6,12,0,86,2,-1.8652952396638127,56.76304145538821,1633.4109346788596,34.84063474220905,-25.812431496065983
2025-02-19 16:37:38.980,780,103,577,20,-11,18,-6,-7,13,529,89,2,-10.121234802212983,53.077431392048666,1579.4480930207867,208.56814561684746,-14.3866021448639
2025-02-19 16:37:39.087,655,-83,642,-39,66,14,-6,-3,11,2,33,2,7.366537652456081,45.336859746334504,1366.2518374020897,-173.12809542652437,-55.135388720826995
2025-02-19 16:37:40.199,764,55,626,1,-3,-6,-6,-7,13,0,59,3,-5.021081018592804,50.56174199632192,1536.3095738447582,110.59820230557816,-6.808629878034935
2025-02-19 16:37:40.300,759,48,629,-5,-3,-9,-5,-8,12,0,62,3,-4.3638750981838115,50.26896164508672,1528.0534079166302,96.63578864294894,-8.331480341976885
2025-02-19 16:37:40.406,780,77,624,0,2,-10,-5,-8,13,0,69,3,-7.0345910469601804,51.12883231395999,1558.5590527980773,153.85775264801532,1.1527577615382825
2025-02-19 16:37:40.509,860,270,609,-21,-7,-16,-6,-10,13,0,92,3,-23.910092300100885,52.23809978083683,1650.5624003818248,518.1998233756892,49.171509497056604
2025-02-19 16:37:40.619,909,138,531,3,-22,-17,-6,-9,12,0,88,3,-14.568151869154413,58.88635168370885,1765.1440179074207,267.97565948429485,30.876266766952313
2025-02-19 16:37:40.729,687,51,618,10,8,30,-5,-8,13,476,86,3,-4.717602504561685,47.92991959226581,1429.325833489446,106.10715794463135,-49.76909038788597
2025-02-19 16:37:40.840,727,32,585,-16,-14,36,-6,-7,12,438,84,3,-3.1310077480775016,51.135363383161256,1505.630583758048,66.27259790957022,-41.54593053433052
2025-02-19 16:37:40.943,856,105,451,4,17,28,-5,-7,13,0,88,3,-13.105906608927043,61.588395723251786,1735.552225305677,212.88899959941133,-12.408941136519104
2025-02-19 16:37:41.052,627,-12,593,-55,54,14,-6,-5,10,153,39,3,1.1592841937528144,46.59049905472436,1353.4607262229556,-25.903554568860393,-94.06732161118441
2025-02-19 16:37:42.069,784,81,604,-4,0,-3,-6,-9,13,195,73,4,-7.638133975787736,52.14189964760225,1573.533092463318,162.57165878766426,-4.2627396018420995
2025-02-19 16:37:42.167,786,69,605,1,-6,-2,-6,-8,14,260,77,4,-6.506446714951135,52.234700768011955,1576.5260700924846,138.39732676384406,-3.483807132255947
2025-02-19 16:37:42.274,777,70,604,0,-4,-6,-6,-10,14,308,82,4,-6.610747357043886,51.954978588085524,1564.5267409129838,140.94835503720577,-8.182949178175363
2025-02-19 16:37:42.380,787,26,587,-1,0,-9,-6,-11,14,371,91,4,-2.5361451771717904,53.254919541133816,1588.305183198268,52.472598174275696,-10.669812626916496
2025-02-19 16:37:42.487,889,217,568,1,11,30,-7,-8,13,0,90,4,-20.908969522960415,55.62943983522506,1714.4036818523634,418.4764892710492,40.632968175317956
2025-02-19 16:37:42.593,757,68,622,0,-33,7,-5,-7,14,437,88,4,-6.239069755047557,50.424222348204935,1527.7826511054686,137.23807169771715,-11.324714646765528
2025-02-19 16:37:42.708,865,191,653,-25,54,-35,-7,-8,14,461,75,4,-16.303995935817092,51.81340676536782,1651.0015743998388,364.55641700620725,59.6369617536476
2025-02-19 16:37:42.809,820,-5,667,-27,-11,65,-7,-9,14,313,89,4,0.42949554967684217,50.87380109711582,1595.7579449464536,-9.730231371624718,35.98713502526266
2025-02-19 16:37:42.919,854,186,533,39,12,-40,-6,-5,13,298,87,4,-19.237358257560974,56.53399281351904,1688.2131320608178,367.6904479664077,12.349415236046752
2025-02-19 16:37:43.023,582,-79,709,-2,0,-7,-5,-6,10,143,37,4,6.357930376771356,39.20844905361942,1214.1435720549707,-164.80642988375033,-61.085554273151615
2025-02-19 16:37:44.039,800,81,604,1,-3,-3,-6,-6,12,137,66,5,-7.638133975787736,52.70134124619917,1595.487666317726,161.54312621466977,3.40681193011676
2025-02-19 16:37:44.137,784,83,619,17,2,-11,-5,-8,12,121,75,5,-7.637080188319703,51.45893004284788,1566.1617336227077,165.8053876156693,1.4513863361529502
2025-02-19 16:37:44.244,782,122,654,12,4,-21,-6,-9,11,0,92,5,-10.566750600966108,49.61072102202343,1543.6595685422699,240.82668460633872,17.011051372577526
2025-02-19 16:37:44.359,646,127,630,-22,-31,19,-6,-11,13,493,92,5,-11.397353491797439,45.14790725422061,1354.9297970216653,266.371647402092,-61.371164278094284
2025-02-19 16:37:44.459,781,144,634,7,30,-12,-5,-8,13,293,86,5,-12.796453714706168,50.22412772818525,1549.5530109708475,285.7050365938567,10.104213885381228
2025-02-19 16:37:44.569,749,207,658,-18,-7,42,-8,-9,12,117,88,5,-17.463036625216965,47.35645993008805,1484.5825046840391,410.29182706221115,11.787332333647782
2025-02-19 16:37:44.678,711,30,708,-4,-15,15,-5,-6,12,400,83,5,-2.4263358316023576,45.095437705038044,1419.2836289950503,59.88538518966456,2.7049095239162853
2025-02-19 16:37:44.781,847,173,475,4,19,22,-6,-5,11,0,91,5,-20.01215626396701,59.16955696102447,1705.6877113128962,348.3872184853968,-6.554501621754071
2025-02-19 16:37:44.891,562,-84,742,-40,42,17,-4,-3,11,126,34,5,6.458816378718656,36.96530465651086,1163.3313007232637,-173.87869975223157,-51.9285144780456
2025-02-19 16:37:45.809,763,34,630,-1,-3,-3,-6,-7,13,206,62,6,-3.08915637533654,50.41300704265343,1533.6579281860454,68.34124450632444,-6.323059970129293
2025-02-19 16:37:45.907,791,51,611,-1,-7,-4,-7,-8,14,340,68,6,-4.7714021917640626,52.219800376936426,1581.3667746935098,101.9591725782162,0.4891285237237071
2025-02-19 16:37:46.009,693,33,627,11,-32,-21,-6,-7,13,486,87,6,-3.0127875041833403,47.82297648037397,1434.073906902615,68.28923366202928,-43.49543957855633
2025-02-19 16:37:46.119,698,-57,662,28,14,-24,-6,-7,13,234,92,6,4.921184994384222,46.41063557019948,1422.2998600831913,-116.14769631051848,-24.943420308126974
2025-02-19 16:37:46.219,828,261,545,8,-16,49,-7,-6,11,0,87,6,-25.58971761859164,53.87808996925584,1635.7645148578013,515.6214231616982,13.31925048610924
2025-02-19 16:37:46.333,886,10,509,21,32,-29,-8,-6,12,0,90,6,-1.125509028507435,60.11819736883721,1753.0550269108053,19.78617411863212,10.883737361625208
2025-02-19 16:37:46.439,577,0,694,-40,37,29,-5,-5,10,139,36,6,0.0,39.74054540928764,1216.3121238111992,0.0,-74.94733782490846
2025-02-19 16:37:47.359,772,62,609,-2,0,-5,-8,-9,12,355,66,7,-5.813039968284651,51.58777695368891,1555.5609285451897,124.92846835466545,-9.119955290181792
2025-02-19 16:37:47.456,737,38,633,5,1,-3,-6,-10,12,289,69,7,-3.4354341585559918,49.29019038692768,1495.022679288632,77.0839373310285,-18.056113961606457
2025-02-19 16:37:47.561,882,47,394,11,6,-3,-6,-8,12,62,91,7,-6.802630244683254,65.7780138206681,1793.9627487558657,95.59665441216069,-13.38471996577249
2025-02-19 16:37:47.672,745,-58,736,39,-10,11,-5,-7,12,600,88,7,4.5058446474508775,45.259507334130525,1455.302186024553,-113.29869367707934,34.27864575292449
2025-02-19 16:37:47.777,823,175,575,1,10,23,-5,-6,12,294,87,7,-16.927513064147043,53.85916880857709,1630.5697946205962,346.71897212467104,10.780520161795039
2025-02-19 16:37:47.884,902,93,686,-5,-1,-22,-7,-10,12,0,88,7,-7.720435733182025,52.49415164987101,1695.2911980740346,174.79166454643592,82.67653893704255
2025-02-19 16:37:47.992,710,33,646,6,-16,15,-6,-8,14,515,90,7,-2.924332239223076,47.665053817433936,1449.2204696346107,67.35813450414388,-26.5865118083924
2025-02-19 16:37:48.099,693,21,546,-43,62,20,-5,-6,11,0,47,7,-2.2025981617658053,51.745587256257984,1478.2692478503657,44.796037813647445,-72.69698315483356
2025-02-19 16:37:49.019,787,38,607,-1,-2,1,-6,-5,11,268,63,8,-3.5822108651832156,52.30339244382929,1578.2597396774095,76.2056799335979,-3.285466307735078
2025-02-19 16:37:49.114,750,30,613,0,-12,-3,-5,-7,13,348,69,8,-2.8017994607843937,50.706141244999216,1523.908094175456,60.95632376701824,-19.540882306072717
2025-02-19 16:37:49.219,775,85,583,-9,3,0,-6,-8,15,347,88,8,-8.295140148832301,52.757490080784585,1571.081123740246,172.31212324893022,-15.858445342662435
2025-02-19 16:37:49.319,887,-12,513,10,24,18,-7,-7,12,0,88,8,1.3400077808997088,59.95009432513395,1752.5895661535817,-23.710343623272813,12.382810105087344
2025-02-19 16:37:49.434,674,34,636,25,-13,-54,-7,-5,12,443,93,8,-3.060069041159091,46.62073841540705,1400.8233171901222,70.6646777217569,-49.84514797168799
2025-02-19 16:37:49.542,936,65,631,-24,-22,-21,-6,-8,12,610,90,8,-5.881356523767528,55.87401053918388,1763.8059426629106,122.48652379603547,72.93851514925564
2025-02-19 16:37:49.651,898,118,383,22,23,27,-6,-8,12,279,91,8,-17.123751084973136,65.94942549288756,1811.186078751872,237.9954980987983,-6.4769133206758625
2025-02-19 16:37:49.759,531,-83,712,-35,33,28,-5,-5,11,400,38,8,6.6491322555998975,36.52994660087616,1126.2428547661953,-176.04172682786103,-86.14107833056664
2025-02-19 16:37:50.569,794,61,600,0,-3,-2,-5,-9,12,384,73,9,-5.805124943346873,52.78104779424419,1590.329886129558,122.17899628955041,-1.7606192414793895
2025-02-19 16:37:50.669,792,62,595,-1,-4,-1,-6,-5,12,434,75,9,-5.948847667049018,52.93514662896003,1589.953801236546,124.46608039983062,-4.47286835321313
2025-02-19 16:37:50.781,749,60,590,4,-13,-11,-8,-8,14,500,85,9,-5.806726905531578,51.628533424897924,1533.0026931007837,122.80395405346731,-27.572214859095197
2025-02-19 16:37:50.887,812,-7,573,7,4,-26,-8,-10,14,364,92,9,0.6999136237109082,54.78870484265379,1629.0312459249076,-14.043372809697477,-3.550374279521975
2025-02-19 16:37:50.989,803,224,583,10,-7,34,-6,-7,14,541,87,9,-21.01775158965623,52.12518156515706,1592.3539877123258,444.193391341919,9.907378784202024
2025-02-19 16:37:51.104,804,-64,509,18,-1,-34,-6,-9,14,599,88,9,7.16657517588319,57.45929852576944,1647.0095489764365,-131.10523772946758,-24.696343817171737
2025-02-19 16:37:51.211,854,237,500,-14,-14,47,-5,-6,15,258,93,9,-25.360951780915897,57.059909451347686,1693.2395933074288,469.90372788508273,8.64192429307451
2025-02-19 16:37:51.314,820,-7,468,-45,76,21,-5,-5,12,0,46,9,0.8569242552882985,60.28246793321682,1688.4798672424397,-14.413852525240337,-27.668997401782462
2025-02-19 16:37:51.424,606,-75,729,15,-24,0,-4,-3,9,221,30,9,5.873961516191936,39.587721534736765,1243.258854398201,-153.86867009878722,-37.60347336021198
