Timestamp,Acc_X,Acc_Y,Acc_Z,Gyro_X,Gyro_Y,Gyro_Z,Mag_X,Mag_Y,Mag_Z,Force,IR_A,Letter,Roll,Pitch,Lin_Acc_X,Lin_Acc_Y,Lin_Acc_Z
2025-02-19 12:57:37.355,656,-125,736,-2,-4,-3,-1,-4,4,1,45,noise,9.638965760490343,41.306460321839296,1316.0863717164034,-250.7786531471805,-4.584709730598888
2025-02-19 12:57:37.450,692,-89,723,-2,-4,-1,-3,-2,2,0,47,noise,7.017702737858187,43.52977665474676,1380.7314602617578,-177.57962422441685,3.414962761198126
2025-02-19 12:57:37.557,666,-105,728,-1,6,3,-4,-3,3,0,45,noise,8.207216411918147,42.159759195889414,1337.2001310501603,-210.8198404808811,-5.684227334108982
2025-02-19 12:57:37.663,652,-134,735,0,0,2,-1,-4,2,0,43,noise,10.332283688990364,41.1108828390893,1309.5183668011182,-269.13414287016843,-6.220858280401558
2025-02-19 12:57:37.766,665,-118,723,-1,-6,-4,-4,-2,4,0,45,noise,9.269451147332807,42.2321615883363,1337.1363160673955,-237.26629367812433,-7.758731604100603
2025-02-19 12:57:37.880,668,-94,725,-1,2,0,-2,0,6,126,45,noise,7.38748245440988,42.41891946671326,1342.546193930419,-188.9211710021847,-7.104776346637323
2025-02-19 12:57:37.985,659,-109,728,0,6,5,-3,-3,2,0,44,noise,8.515370761252154,41.8362022692211,1326.003365279074,-219.3237736197558,-8.84135041451566
2025-02-19 12:57:38.086,650,-133,740,-2,0,-1,-1,-2,5,0,42,noise,10.188973648897672,40.84426904786412,1304.0052940402622,-266.8195447805459,-4.559873215067682
2025-02-19 12:57:38.204,660,-123,733,-1,-8,-7,-2,-1,3,0,44,noise,9.525688450176828,41.604883828627614,1323.989951719151,-246.7435819112963,-4.431264560814498
2025-02-19 12:57:38.305,687,-83,728,-2,2,0,-2,-5,4,124,46,noise,6.50426361254497,43.15565996903724,1370.982767101651,-165.63547259015576,3.197300655019376
2025-02-19 12:57:38.413,665,-117,731,1,3,4,-2,-2,4,0,44,noise,9.093333836975484,41.93270754153509,1333.2573400724098,-234.5730959225142,-3.5806249517768265
2025-02-19 12:57:38.523,652,-126,737,-1,-1,-2,-2,-1,5,0,42,noise,9.701683130990238,41.088933150449385,1309.2296805306605,-253.0106437835326,-5.911464035424842
2025-02-19 12:57:38.629,674,-105,725,-1,-3,-2,-3,-3,2,0,43,noise,8.24071182970788,42.61579812025321,1351.078907421092,-210.47965174957665,-3.3118811280290856
2025-02-19 12:57:38.736,671,-98,727,-1,1,1,-3,-3,5,0,44,noise,7.67722438268115,42.449092418974644,1345.9348665038624,-196.57468989177124,-4.2632607277316765
2025-02-19 12:57:38.840,661,-110,733,-1,1,2,-2,-2,3,0,43,noise,8.534587876754543,41.72618711542539,1326.5715371763956,-220.7607701806407,-5.069495840087598
2025-02-19 12:57:38.949,660,-116,737,-2,-2,-3,-2,-3,3,2,42,noise,8.944679403915698,41.4969982447264,1322.5808091320628,-232.45359675654436,-2.8819035308033563
2025-02-19 12:57:39.060,670,-111,733,-1,-3,-1,-1,-3,5,0,44,noise,8.61101709950615,42.10564426499354,1340.4997084936313,-222.08278752655679,-0.5466960087038615
2025-02-19 12:57:39.162,658,-117,729,0,-2,2,-3,-3,4,0,45,noise,9.117862753795789,41.70746951390742,1323.3276864373138,-235.30294728444636,-8.118363849242883
2025-02-19 12:57:39.273,674,-113,719,2,-4,-1,-3,-2,3,0,47,noise,8.93170106506146,42.80110911531108,1353.455507467058,-226.91464739432868,-5.819747579843806
2025-02-19 12:57:39.375,678,-111,730,-1,0,1,-1,-2,5,0,47,noise,8.645871152903682,42.55855200919816,1354.343297110679,-221.72876988095186,1.7837656477940982
2025-02-19 12:57:39.484,672,-111,729,0,2,0,-2,-2,4,0,41,noise,8.657551477165882,42.343140515368155,1345.5692235039064,-222.25920209662743,-1.7023272832557268
2025-02-19 12:57:39.586,664,-108,719,0,-1,1,-3,-3,2,0,39,noise,8.542455445105519,42.40418915933451,1338.3563776653873,-217.68447106605697,-11.21421015273097
2025-02-19 12:57:39.699,663,-111,721,-1,-5,-3,-2,-3,4,0,43,noise,8.752133683014367,42.266090507652294,1335.574658104747,-223.60299705826077,-10.412260171225398
2025-02-19 12:57:39.805,671,-125,726,2,1,-3,-3,-3,3,0,45,noise,9.769192451223045,42.32851792595663,1344.3805679746497,-250.44347391480062,-2.575696497161971
2025-02-19 12:57:39.915,685,-105,717,0,-1,-1,-3,-1,3,0,46,noise,8.331374756375727,43.38893359533739,1371.947163580889,-210.29847032991734,-2.0381259671497673
2025-02-19 12:57:40.018,674,-109,722,0,-3,-1,-3,-3,4,0,47,noise,8.585085422561201,42.7088104557025,1352.2726707405777,-218.69098087644355,-4.576955897176617
2025-02-19 12:57:40.124,673,-98,717,-2,-1,-1,-3,-3,5,0,47,noise,7.782995175029683,42.9224128066304,1354.0073710013085,-197.16600647567344,-8.530884112835565
2025-02-19 12:57:40.236,673,-109,717,-1,-1,0,-2,-1,4,0,47,noise,8.644052269838419,42.86043603771176,1353.2148701553183,-219.1685302331793,-7.686570432931717
2025-02-19 12:57:40.341,679,-107,723,1,0,-1,-3,-5,4,0,47,noise,8.418352682955259,42.89281434807181,1359.628992994426,-214.2567043452188,-1.7345536597493947
2025-02-19 12:57:40.448,671,-107,719,-1,0,0,-2,-2,5,0,47,noise,8.464509721399178,42.70933159933205,1349.2793543061912,-215.1607912231929,-7.800083079211959
2025-02-19 12:57:40.559,688,-111,725,0,-1,-1,-3,-1,4,0,47,noise,8.704587639750025,43.16870333198396,1372.1488193635632,-221.3786612635981,4.058293548570987
2025-02-19 12:57:41.783,765,-153,723,-20,-40,-33,-5,-4,6,478,48,A,11.948553250418508,45.98994128784251,1484.2178366660214,-296.8435673332043,43.268632797995565
2025-02-19 12:57:41.875,564,-147,502,-3,-27,-17,-5,-6,8,588,46,A,16.321544511533382,47.15570067600072,1297.2043222522195,-338.1011265444615,-150.60384711101813
2025-02-19 12:57:41.980,629,-73,556,-27,5,-4,-6,-8,9,710,52,A,7.479862912695555,48.28206788907606,1375.4299456649678,-159.62859464792155,-103.80135101704616
2025-02-19 12:57:42.095,725,-115,630,-27,-14,-22,-6,-8,11,752,56,A,10.344857481475202,48.54506129264427,1474.4766185211238,-233.88249811024724,-21.269337473528367
2025-02-19 12:57:42.197,804,-134,609,-12,-8,-7,-7,-8,12,779,72,A,12.409213283054621,52.203486964639644,1594.1923118312461,-265.698718638541,10.458808575585863
2025-02-19 12:57:42.308,764,-152,597,-15,-7,-8,-6,-10,11,779,80,A,14.28437324530644,51.11926482909211,1542.4542474991058,-306.87571416212575,-11.294745755191002
2025-02-19 12:57:42.415,830,-86,554,-6,-14,-19,-6,-9,15,798,114,A,8.82386194304048,55.96237905536175,1658.6702225777321,-171.86221583335538,0.8875863758269134
2025-02-19 12:57:42.521,810,-131,606,-9,-1,-15,-5,-10,14,786,124,A,12.19802749263522,52.56850493281122,1604.0806305142737,-259.42538592267886,11.91004680043227
2025-02-19 12:57:42.626,969,255,415,5,3,38,-6,-10,13,313,127,A,-31.56897112931834,63.3128881324325,1862.472435696246,490.1243251832226,32.346686466520055
2025-02-19 12:57:42.735,691,-109,536,-50,28,-27,-7,-10,12,755,96,A,11.494823196758151,51.63612958825142,1475.084985025767,-232.6834491574654,-72.20485090276554
2025-02-19 12:57:42.844,798,-106,495,10,10,-12,-6,-11,11,756,122,A,12.086852030219948,57.61043864398488,1642.425533079645,-218.16680013338643,-28.797793075719596
2025-02-19 12:57:42.948,861,74,488,22,4,26,-4,-10,13,742,128,A,-8.622604087919314,60.1759821230343,1728.557050104877,148.56355599043076,-3.7164232882461192
2025-02-19 12:57:43.054,683,-248,635,-1,1,-24,-6,-8,11,734,105,A,21.33318962190164,45.054144481731676,1390.7746808945617,-504.9957845707927,-23.033561300214956
2025-02-19 12:57:43.164,768,83,583,-6,-54,-10,-6,-11,10,708,120,A,-8.102582769570422,52.52012771508185,1561.5671461184888,168.76311605186794,-19.40839347275937
2025-02-19 12:57:43.270,752,-82,553,25,10,48,-6,-10,10,817,123,A,8.434478790034968,53.37241095108405,1554.5302880836573,-169.5099516261435,-37.15857621045541
2025-02-19 12:57:43.377,655,-129,672,20,20,8,-5,-7,10,376,55,A,10.86655180133258,43.748002411813154,1346.4878705101714,-265.186160756965,-37.43488394325982
2025-02-19 12:57:44.298,755,-42,636,-32,-9,-8,-7,-7,11,456,76,B,3.778197707161587,49.828309828528795,1519.1148558489842,-84.5070515836521,-7.678209695303281
2025-02-19 12:57:44.393,799,-94,597,-12,-1,-5,-5,-8,10,658,79,B,8.947983270388873,52.89652986932895,1596.5473939465762,-187.82910517018544,1.085363972332857
2025-02-19 12:57:44.499,740,-108,619,-4,-6,-12,-5,-9,12,704,85,B,9.897054212200281,49.664647994174,1502.269109497463,-219.2500862509811,-18.627809160715742
2025-02-19 12:57:44.604,841,-71,632,12,-13,-18,-7,-10,12,717,120,B,6.409834089906468,52.902933128257644,1638.6148076530897,-138.33727864847725,32.60337879101951
2025-02-19 12:57:44.715,765,-275,566,18,2,-14,-7,-11,13,613,121,B,25.913528107240715,50.560125111590665,1537.291646909332,-552.6211802615244,-5.394865556446689
2025-02-19 12:57:44.815,872,-79,610,15,-7,31,-5,-9,11,582,124,B,7.379200434372314,54.801493136514075,1689.159919969327,-153.03168999722112,38.36290002145722
2025-02-19 12:57:44.931,571,-229,686,-2,-19,-71,-6,-9,13,658,100,B,18.460001632655985,38.29223208740133,1190.6726295322524,-477.5201964323744,-58.47534826466756
2025-02-19 12:57:45.040,681,-73,596,1,-36,27,-5,-12,13,738,119,B,6.982990332391206,48.596604325560435,1431.0718752029775,-153.4041804549447,-60.45056919379522
2025-02-19 12:57:45.147,844,-11,480,16,20,10,-6,-12,11,540,124,B,1.3127984969750188,60.365763908182444,1713.199627967469,-22.328431170192133,-14.331541972020318
2025-02-19 12:57:45.249,646,-67,748,-2,-16,10,-5,-8,13,734,122,B,5.118449015606781,40.70187126918787,1298.1231640048554,-134.6350649974076,-7.089979374043196
2025-02-19 12:57:45.359,910,-83,393,24,31,23,-6,-10,11,361,122,B,11.925390807715676,66.18359923903265,1824.8441166237283,-166.4418260217247,-2.0920195968409985
2025-02-19 12:57:45.464,512,-281,755,-29,32,8,-6,-9,9,456,52,B,20.41453333942239,32.4381527807484,1048.388907050939,-575.385318127566,-35.964110983318164
2025-02-19 12:57:45.572,814,-132,617,4,-18,-8,-3,-9,11,515,62,B,12.075730363239588,52.21939237400032,1604.3624121103976,-260.16687763952393,17.91694315464963
2025-02-19 12:57:46.695,783,-90,609,-2,-8,-9,-6,-11,12,588,97,C,8.40650989736787,51.82467856018059,1569.1231824516076,-180.35898648869053,-2.429141906805853
2025-02-19 12:57:46.785,804,-78,581,1,-6,-3,-6,-9,12,632,112,C,7.646313542398929,53.90346457971828,1612.0255101366472,-156.3905345654956,-2.908981827601906
2025-02-19 12:57:46.895,795,-50,594,2,-4,-3,-7,-11,13,667,119,C,4.811534501678046,53.136991146684174,1595.0721334841842,-100.31900210592354,-3.7897450183716046
2025-02-19 12:57:47.005,753,-137,610,36,26,-17,-6,-11,11,430,120,C,12.65803114265805,50.29808458416617,1522.378200408989,-276.97983194692097,-13.267864873151666
2025-02-19 12:57:47.113,1018,232,548,29,-24,52,-5,-9,13,478,116,C,-22.94574228959702,59.690964396115284,1881.3159753411219,428.74784506791775,83.268021132677
2025-02-19 12:57:47.215,997,94,543,-33,71,32,-7,-9,10,750,86,C,-9.821270784535029,61.06906039995373,1872.2034279037139,176.5166722396681,66.33454227510873
2025-02-19 12:57:47.325,650,-162,659,3,-12,-15,-6,-6,9,552,51,C,13.81099317212193,43.765977228071044,1341.7144638660748,-334.3965279173909,-42.29204875037419
2025-02-19 12:57:48.244,753,-86,630,1,-3,-4,-4,-9,11,624,85,D,7.773282717551243,49.82182849452787,1517.0418790872063,-173.26109110424937,-9.238225531128933
2025-02-19 12:57:48.342,771,-62,615,-1,-6,-9,-6,-11,10,622,96,D,5.7567101426026595,51.2805503157899,1551.2181168615984,-124.7412752858873,-7.3529725938821
2025-02-19 12:57:48.446,802,-41,611,3,-4,-12,-8,-10,12,613,112,D,3.838969805355949,52.63614182718411,1596.7975914246626,-81.63179706784435,5.48712174505124
2025-02-19 12:57:48.554,782,-150,574,-2,0,-27,-5,-12,11,537,115,D,14.645251712098855,52.813699713213744,1578.6744579866377,-302.81479373145226,-10.771277345690692
2025-02-19 12:57:48.660,826,104,529,19,10,32,-6,-9,12,376,118,D,-11.12235147247468,56.867712620825245,1663.410843662149,209.43671639329722,-7.307913192829119
2025-02-19 12:57:48.771,1501,-520,740,35,3,-26,-6,-12,12,600,110,D,35.09581678702612,58.928767421526295,2357.526320929118,-816.7313037196145,317.72852932208707
2025-02-19 12:57:48.877,652,-42,783,16,-17,39,-5,-11,10,712,114,D,3.0703943413103794,39.74350316909603,1291.3518180564201,-83.18523981345038,15.189457763532232
2025-02-19 12:57:48.984,963,-88,497,41,46,-12,-6,-8,11,227,114,D,10.040859276492256,62.33992456952927,1848.7173197749003,-168.93782361390572,39.88524618055516
2025-02-19 12:57:49.087,430,-242,754,0,-5,0,-6,-7,7,367,46,D,17.794287894345832,28.50235592060466,907.1948955604767,-510.5608481991519,-82.75570058744017
2025-02-19 12:57:50.004,747,-101,638,-2,-2,-5,-6,-8,9,651,71,E,8.995683265367342,49.14940740090058,1503.4177853622568,-203.27335518284866,-8.043570362945047
2025-02-19 12:57:50.106,763,-85,629,0,-3,-6,-6,-10,11,673,76,E,7.696051722016569,50.24392557563302,1531.7740352575574,-170.64324114926913,-4.759984504591671
2025-02-19 12:57:50.209,763,-76,627,0,-3,-3,-6,-9,11,673,80,E,6.911227119024681,50.38302869864059,1533.3244007487315,-152.72956023185264,-6.018871912784448
2025-02-19 12:57:50.319,766,-53,622,-1,-1,-4,-6,-11,9,637,84,E,4.870351812546389,50.82158600693453,1541.1825487777212,-106.63534606425486,-7.456325508802479
2025-02-19 12:57:50.429,705,-89,635,7,-15,-24,-4,-12,11,592,99,E,7.978459709963637,47.713072304112195,1444.7846267268192,-182.3912507499105,-31.33083400217049
2025-02-19 12:57:50.536,697,-358,726,38,3,19,-5,-12,11,496,111,E,26.248503129804984,40.73037046518194,1349.5001723853802,-693.1435605652312,46.351326898441926
2025-02-19 12:57:50.643,899,91,646,-12,-20,22,-6,-9,11,588,116,E,-8.018317970600437,54.03270766440427,1708.3524035300538,172.9255491893603,64.4186288315741
2025-02-19 12:57:50.751,556,-203,666,-10,-38,-55,-6,-11,10,510,98,E,16.951473302704425,38.60956804510026,1180.0100971535144,-430.83102468015005,-81.46533220187166
2025-02-19 12:57:50.860,760,-41,612,15,-29,22,-6,-12,12,756,111,E,3.8327156902142834,51.09410408842783,1538.1785250796456,-82.980683589823,-14.638496511504286
2025-02-19 12:57:50.962,616,-41,634,6,52,13,-7,-11,13,576,99,E,3.7000953164682686,44.115245881613234,1312.103858776948,-87.33158800301115,-82.44455594900171
2025-02-19 12:57:51.073,893,217,671,-23,-45,-2,-3,-12,10,392,110,E,-17.92109910656788,51.70128921703151,1677.7903160332155,407.70492562061344,81.30873229755025
2025-02-19 12:57:51.180,757,-176,612,14,33,41,-4,-9,13,678,113,E,16.044266863203628,49.928738648971546,1522.244386819983,-353.9167927084768,-6.665211009021732
2025-02-19 12:57:51.290,1095,132,712,-24,-42,19,-6,-8,10,397,110,E,-10.503003018917838,56.52300521374452,1929.10736677421,232.54992914538423,169.63977612489714
2025-02-19 12:57:51.396,1187,80,590,-27,90,31,-6,-10,13,714,92,E,-7.721825800130976,63.36166388753979,2080.854444964619,140.24292805153286,145.70840561994515
2025-02-19 12:57:51.499,678,-84,667,8,-17,-23,-4,-6,10,553,52,E,7.177872219067613,45.2432005583869,1388.1018233342656,-171.977217050263,-31.580997291969197
2025-02-19 12:57:52.221,764,-45,629,2,-3,-5,-6,-11,11,540,80,F,4.092090147873339,50.46364347748473,1535.2208103461949,-90.42530950991986,-5.9448818164351
2025-02-19 12:57:52.314,781,-35,628,2,-3,-3,-6,-9,10,570,90,F,3.1899360866900413,51.153937464677036,1559.8339594459967,-69.90293032088333,1.74170738529358
2025-02-19 12:57:52.414,749,-3,623,1,-1,-11,-4,-12,10,552,93,F,0.27590049754998014,50.24681231480712,1517.8062553096697,-6.079330795632855,-16.474361893089622
2025-02-19 12:57:52.527,788,-67,609,0,0,-8,-6,-13,11,538,109,F,6.2782280575438865,52.13473192647679,1577.4563112112724,-134.12382341517161,-1.125499400589888
2025-02-19 12:57:52.638,918,379,447,-15,-17,50,-5,-9,12,394,116,F,-40.2937688907747,57.44606644618887,1760.8853023897768,726.9885943417488,36.57545733308251
2025-02-19 12:57:52.748,373,-178,601,-47,17,-60,-5,-13,10,578,78,F,16.497869310000684,30.756074324267846,884.3841948572152,-422.0385701999579,-222.9729252257007
2025-02-19 12:57:52.854,722,158,547,5,-34,25,-4,-14,10,781,108,F,-16.111269829343886,51.74104397827139,1507.2201494322221,329.83488034666357,-47.89670601028456
2025-02-19 12:57:52.957,637,42,607,11,48,36,-6,-10,12,663,97,F,-3.9581439445430235,46.313124708353754,1360.1253869416446,89.67859694120733,-82.06924626935324
2025-02-19 12:57:53.072,811,159,591,-30,-54,14,-5,-13,11,642,111,F,-15.058057469727034,52.96026043052344,1609.2179073105076,315.4940163531081,9.314693932787009
2025-02-19 12:57:53.174,683,53,470,-60,68,22,-6,-9,9,637,74,F,-6.4338340759319355,55.29732169837094,1505.1174290576973,116.7953495462049,-95.73234503238314
2025-02-19 12:57:53.285,784,-40,637,16,-24,-15,-5,-11,10,646,69,F,3.5931333716366995,50.85095363880186,1559.5062513872194,-79.56664547893976,6.901170747884294
2025-02-19 12:57:53.387,753,-13,631,-3,-2,-2,-5,-11,8,675,76,F,1.18025321232378,50.03163332332028,1519.3992130158997,-26.23132771474993,-11.228291385169655
2025-02-19 12:57:53.494,810,6,613,-5,-1,-1,-6,-11,11,671,84,F,-0.5607890692212485,52.880603105547436,1607.3796732891,11.90651609843778,9.550938609606646
2025-02-19 12:57:53.604,766,-15,616,-2,3,-1,-4,-10,10,617,80,F,1.394913773151975,51.186246790782775,1545.1875332640789,-30.258241513004155,-10.605118134037298
2025-02-19 12:57:53.711,771,-21,627,-4,-1,0,-5,-12,11,607,77,F,1.918280325146823,50.865248051161004,1546.6637368051806,-42.12702785072476,-3.7926886859251
2025-02-19 12:57:53.812,765,-28,616,-1,0,0,-5,-10,9,611,76,F,2.6025622024998065,51.12909567227312,1543.5619374025403,-56.496384636955725,-10.920462013025826
2025-02-19 12:57:53.924,767,-20,626,-1,1,-1,-5,-11,11,624,75,F,1.829913639507065,50.765497733507075,1541.563753986536,-40.1972295694012,-6.173285522257629
2025-02-19 12:57:54.031,774,-24,620,-2,1,1,-6,-11,9,635,72,F,2.2167943407401904,51.283167912969105,1554.2466927907421,-48.19369590048812,-5.003810762609874
2025-02-19 12:57:55.048,774,-25,614,-4,-1,-1,-5,-10,11,651,75,G,2.33160213806026,51.55257029117438,1557.1789998887434,-50.29647932457181,-7.28153221148375
2025-02-19 12:57:55.148,779,-23,620,-3,-2,-1,-3,-12,10,655,76,G,2.1245143874414523,51.46479489692435,1561.2255081601618,-46.095233231943155,-2.5671566871632194
2025-02-19 12:57:55.254,761,-23,620,-1,-6,-6,-6,-10,11,676,80,G,2.1245143874414523,50.81040040942295,1536.059202772601,-46.42491677236508,-11.454278211580231
2025-02-19 12:57:55.361,775,-1,598,-1,-9,-5,-5,-12,10,705,88,G,0.09581225101349548,52.34572003931472,1566.7112583197909,-2.02156291396102,-12.894622548689995
2025-02-19 12:57:55.465,838,-21,635,1,1,-5,-6,-12,11,713,112,G,1.8941307303587867,52.83165723399342,1634.8638513199649,-40.96914185885353,31.1711866489527
2025-02-19 12:57:55.575,934,86,562,31,12,44,-6,-11,12,405,109,G,-8.700190799154866,58.67040048431966,1788.190327871896,164.6513578126157,48.022522201279116
2025-02-19 12:57:55.685,721,32,634,-7,-13,-31,-6,-10,10,761,114,G,-2.8894485435716186,48.63757870385077,1471.54464427142,65.31127408694236,-25.979617847545455
2025-02-19 12:57:55.792,846,168,593,-9,-24,49,-5,-11,9,715,116,G,-15.817703267421566,53.92545053891052,1654.2515226658809,328.5038484726572,26.4596300935375
2025-02-19 12:57:55.896,432,-224,636,-30,13,-57,-4,-9,11,717,100,G,19.402327838218124,32.646483366931875,971.4540789777806,-503.7169298403306,-158.19628293950996
2025-02-19 12:57:56.004,805,97,613,13,-29,20,-7,-11,11,787,117,G,-8.991824395887821,52.36902212107047,1596.9596428357563,192.42867745971222,9.930110486560807
2025-02-19 12:57:56.110,635,-63,581,-51,74,26,-4,-11,9,664,61,G,6.188615963241602,47.375894466229326,1370.8122460923164,-136.00184488789907,-92.23923618840251
2025-02-19 12:57:56.215,854,13,595,15,-26,-14,-5,-9,10,644,71,G,-1.2516414218591536,55.127838167265246,1674.4297662434265,25.488977706281673,23.389097289415872
2025-02-19 12:57:57.137,762,-49,628,-2,0,-2,-5,-9,10,630,76,H,4.461491402628613,50.421098971943245,1532.7479196994163,-98.56253026938506,-7.209571615792129
2025-02-19 12:57:57.233,765,-37,626,1,-1,-3,-7,-10,12,633,80,H,3.3825564901942475,50.657541377267876,1538.370634982884,-74.40485424100223,-6.8496960774971285
2025-02-19 12:57:57.340,767,-22,625,1,0,-3,-6,-11,11,625,83,H,2.0159790875478034,50.80730661870646,1542.0250816573835,-44.2301848715286,-6.539342941153336
2025-02-19 12:57:57.446,753,4,629,-1,1,-5,-7,-9,10,618,86,H,-0.36435616643114144,50.126566484970915,1520.462491977218,8.076825986598767,-12.080886392656225
2025-02-19 12:57:57.555,842,55,711,-12,-9,-15,-6,-11,11,514,108,H,-4.423354000286333,49.737377427272364,1605.0901066253446,104.84555328312821,66.63293846719728
2025-02-19 12:57:57.662,790,156,637,15,-19,65,-5,-12,9,490,109,H,-13.76078511179124,50.302006232213024,1559.4219212588223,307.93648065364084,16.592703997633066
2025-02-19 12:57:57.774,760,-127,689,-15,47,-23,-6,-9,11,556,97,H,10.443824851980194,47.328553571600196,1495.2524673495495,-249.8645570439379,22.435592100210897
2025-02-19 12:57:57.880,774,155,534,-11,-36,35,-5,-10,11,666,111,H,-16.186014113762482,54.30658882499254,1586.150626829825,317.63998340907347,-26.320975099646603
2025-02-19 12:57:57.988,523,-238,696,-1,-15,-32,-5,-12,10,751,89,H,18.878329495609645,35.41341098009277,1102.4719499782746,-501.6985164337081,-75.1519640246255
2025-02-19 12:57:58.093,870,197,549,11,-11,65,-6,-11,11,593,116,H,-19.739724712602403,56.16086252351937,1700.60428223778,385.0793604607387,24.86005638098709
2025-02-19 12:57:58.200,691,-119,549,-58,88,14,-5,-10,8,575,56,H,12.230106795494088,50.89058383877928,1466.9427494226009,-252.6283461379009,-67.48707587989566
2025-02-19 12:57:58.311,709,-100,678,20,-34,-24,-5,-8,8,520,47,H,8.390213474605794,45.97234674338713,1428.004446391878,-201.41106437120993,-9.567016436803215
2025-02-19 12:57:59.425,770,-55,636,-4,0,-3,-5,-9,10,538,60,I,4.9425273730802814,50.3393405856473,1539.8379661603904,-109.9884261543136,0.13383574284637234
2025-02-19 12:57:59.515,747,-77,652,-1,-4,-6,-5,-11,8,596,63,I,6.735328788417398,48.68807579597578,1498.1267599180023,-154.42538221377,-3.601937706208332
2025-02-19 12:57:59.627,797,-70,661,2,-10,-10,-5,-9,11,652,73,I,6.045100624434318,50.17197123473333,1564.970293699238,-137.4503394717022,24.076080131497747
2025-02-19 12:57:59.736,767,-12,640,-3,10,-14,-6,-11,9,556,85,I,1.0741699983726205,50.152756688522096,1534.75545917401,-24.011819439489074,-0.6303701060838875
2025-02-19 12:57:59.845,712,-28,628,16,-17,-26,-5,-12,11,320,105,I,2.552898147171757,48.55875666317405,1461.6348418762307,-57.48002187153715,-33.19477626161904
2025-02-19 12:57:59.945,631,66,628,-26,-46,28,-6,-12,11,708,107,I,-5.999507320394364,44.97918545763098,1337.8498551568978,139.93358231435064,-75.48923777897255
2025-02-19 12:58:00.059,782,147,574,-13,47,-1,-5,-12,10,615,96,I,-14.364582449697208,52.848657576824834,1579.043077415759,296.8277907674126,-11.041849663229641
2025-02-19 12:58:00.169,750,-23,636,-10,-18,26,-5,-12,9,522,109,I,2.0711146301776413,49.68358541442968,1512.4830005251035,-46.38281201610319,-10.585584445287964
2025-02-19 12:58:00.272,928,4,641,38,60,5,-4,-9,11,455,106,I,-0.3575353249147018,55.36537002971882,1750.793009471125,7.546521592547952,72.66991479419062
2025-02-19 12:58:00.378,922,13,645,53,-8,-1,-6,-10,9,81,105,I,-1.1546423253669917,55.019200663164064,1741.3442122366835,24.552575660603992,71.81451530080187
2025-02-19 12:58:00.485,793,23,595,1,-9,26,-5,-10,11,738,115,I,-2.2136926777659958,53.09800723438419,1592.6637751951155,46.193274690400585,-4.99993220818908
2025-02-19 12:58:00.596,548,-182,729,-28,31,-12,-4,-8,9,345,48,I,14.01774902715077,36.104362224389284,1137.2578720995034,-377.70243197465254,-54.88501598638288
2025-02-19 12:58:01.510,774,9,625,-3,-2,-2,-6,-10,11,614,84,J,-0.8250022039889108,51.07644602384043,1551.9849306533147,18.04633640294552,-3.217805760105648
2025-02-19 12:58:01.607,772,3,630,1,1,-3,-6,-10,11,618,88,J,-0.272834983068092,50.78309822409659,1546.7580116291665,6.010717661771372,-2.250708971987933
2025-02-19 12:58:01.714,750,18,647,5,6,-7,-6,-12,9,529,91,J,-1.593598262592182,49.205792044690256,1507.0611062360747,36.1694665496658,-6.0913809796537635
2025-02-19 12:58:01.828,802,-126,477,47,10,-21,-5,-11,12,205,103,J,14.796762245057346,58.40169833892224,1653.7424655526495,-259.81490107186266,-29.58498262919437
2025-02-19 12:58:01.926,796,19,697,-4,-8,3,-6,-13,12,801,107,J,-1.5614781682465995,48.78315043469276,1548.2211687081322,36.95502789629964,38.33397664627114
2025-02-19 12:58:02.042,831,-64,471,-8,4,-18,-4,-14,10,503,104,J,7.7380219141868745,60.23063534264928,1699.0310551260263,-130.85197055122228,-20.98872077540136
2025-02-19 12:58:02.148,832,238,533,-31,-16,40,-4,-10,12,561,117,J,-24.062151040551342,54.94686063497465,1650.6197246443962,472.1724693093345,8.571738899683623
2025-02-19 12:58:02.245,708,49,605,-30,53,44,-4,-9,6,462,60,J,-4.630377701768379,49.392925198722544,1467.1909448730098,101.54287612821679,-43.743674644309294
2025-02-19 12:58:02.361,786,-42,626,1,-15,-21,-5,-9,8,484,54,J,3.8383732974278377,51.402145739529075,1567.5438362987106,-83.76188438237386,3.549056586523079
2025-02-19 12:58:03.477,748,-52,645,5,-10,-9,-4,-11,9,601,77,K,4.609225821033249,49.137008091369985,1504.2762170980275,-104.57535199077194,-7.13657757784415
2025-02-19 12:58:03.574,786,-31,619,0,-2,-5,-5,-12,9,634,92,K,2.8670217581711377,51.7435570685513,1571.2473085737233,-61.970313696928024,0.5927684387597765
2025-02-19 12:58:03.685,762,-46,638,9,-10,-19,-6,-10,11,632,106,K,4.123907560315601,49.98843092208712,1527.9146367930211,-92.23631665679655,-3.27760928339535
2025-02-19 12:58:03.791,779,-59,579,3,-1,-16,-6,-12,8,548,108,K,5.818347083746633,53.23624298731402,1580.110128768197,-119.67457971415101,-16.433587364295363
2025-02-19 12:58:03.895,856,256,486,12,-2,26,-5,-11,10,541,114,K,-27.777972779223916,57.31141789593102,1697.6184242603224,507.6989680030871,8.165240431639404
2025-02-19 12:58:04.005,463,-326,761,7,-40,-40,-6,-10,11,792,77,K,23.189503157735,29.216321965058725,951.1083104247266,-669.6788535603906,-41.26873484496093
2025-02-19 12:58:04.113,603,-191,756,11,22,10,-6,-14,11,742,113,K,14.178814320202816,37.71551162171363,1214.7412248265143,-384.7687793397416,-10.959147543689369
2025-02-19 12:58:04.221,759,-56,705,-58,-57,73,-6,-11,8,534,113,K,4.541618292407851,47.02255222217949,1490.6220866946219,-109.98002220671785,25.430077576141457
2025-02-19 12:58:04.327,1098,58,492,3,42,5,-5,-10,12,698,108,K,-6.723349963051916,65.71556746001619,2009.515052857068,106.14924687223129,83.56156101486573
2025-02-19 12:58:04.433,579,-163,686,9,-9,-19,-4,-8,8,434,48,K,13.366147945701945,39.39150380264715,1213.615920176166,-341.65698616358384,-65.89381906882522
2025-02-19 12:58:05.354,821,15,601,11,-12,-10,-5,-8,11,662,96,L,-1.4297143184618788,53.7860966875603,1627.8169728549537,29.740870393208652,10.38245957877325
2025-02-19 12:58:05.449,794,-3,615,-1,1,-6,-4,-12,11,670,100,L,0.2794893905447436,52.239768089370905,1584.5802310505987,-5.987078958629467,2.6488134809593475
2025-02-19 12:58:05.552,764,2,608,-2,4,-12,-6,-10,11,632,97,L,-0.18847227912986128,51.48667066264779,1546.4633133576972,4.048333281041092,-14.693317436492066
2025-02-19 12:58:05.659,786,13,596,2,5,-11,-6,-9,12,587,106,L,-1.2495420187397313,52.821498606553234,1582.7567205146931,26.1779101357392,-8.156495453889534
2025-02-19 12:58:05.769,786,-71,695,24,-3,44,-4,-13,9,573,106,L,5.833002393316891,48.36847482312988,1533.4326730811604,-138.51618293735672,34.10215293714202
2025-02-19 12:58:05.876,799,-31,630,8,-4,6,-5,-9,12,586,109,L,2.817043997751197,51.711040019710126,1583.8957778967283,-61.452777365204724,11.120976126484493
2025-02-19 12:58:05.982,790,-10,639,4,-1,12,-4,-9,12,796,112,L,0.8965743795383533,51.02853334427213,1567.4592671368669,-19.84125654603629,10.143706708280888
2025-02-19 12:58:06.092,607,-133,695,-17,5,-12,-4,-8,8,598,56,L,10.833537303690134,40.62349993793268,1258.0855786260497,-275.65960783733874,-50.47689809737153
2025-02-19 12:58:07.209,764,-37,638,3,-2,-7,-6,-9,9,616,72,M,3.319078333367746,50.08813660960127,1531.0323198748997,-74.14685318765876,-2.532225235845658
2025-02-19 12:58:07.301,758,6,640,9,7,-11,-5,-12,9,496,79,M,-0.537132197009115,49.82344735268993,1522.0601075821028,12.047969189304244,-5.116713525786054
2025-02-19 12:58:07.412,724,5,640,18,-16,-28,-6,-11,9,237,95,M,-0.44761417086055305,48.5231609508181,1473.2235137054265,10.174195536639687,-22.297028689879767
2025-02-19 12:58:07.522,698,112,669,-8,-17,78,-5,-13,9,437,103,M,-9.503981759225022,45.8196217754478,1415.1493199642405,227.07267025214173,-18.35371784538222
2025-02-19 12:58:07.629,665,-128,600,-4,36,-46,-4,-11,8,516,87,M,12.042575142884985,47.306651049556415,1399.99331281287,-269.47239705270283,-63.15186118454426
2025-02-19 12:58:07.735,849,41,624,-35,-25,2,-5,-11,9,564,101,M,-3.759223025112451,53.62586003785739,1654.161550709231,79.88294885639397,32.220485697808954
2025-02-19 12:58:07.846,879,142,600,3,-21,14,-5,-12,11,737,112,M,-13.31501290006904,54.952266362799655,1697.6739083018626,274.2544880305625,41.178219589172386
2025-02-19 12:58:07.952,777,-127,632,15,-3,-36,-6,-13,10,818,108,M,11.362225534808804,50.31937929536985,1546.615563075461,-252.79301996214102,6.006388849817995
2025-02-19 12:58:08.059,859,124,573,19,1,42,-6,-8,10,762,115,M,-12.210795547349724,55.68664129617702,1684.9668840485374,243.2315408870997,22.03489573945069
2025-02-19 12:58:08.165,480,-209,753,-21,27,6,-4,-8,7,654,45,M,15.51233708510827,31.55948289740443,1003.383470474848,-436.88988610259,-68.05781930741784
2025-02-19 12:58:08.977,762,-40,657,-1,0,-2,-5,-8,7,490,60,N,3.4840270011333554,49.17950631689341,1518.7612902837939,-79.72500211463486,4.516840267122461
2025-02-19 12:58:09.079,742,-26,640,-1,-2,-4,-5,-11,9,515,62,N,2.3263618035750597,49.19775717027325,1498.9694770769122,-52.52453693261417,-12.911678341271795
2025-02-19 12:58:09.185,732,-36,651,5,-7,-7,-6,-10,9,492,67,N,3.1652063888103976,48.30844783084814,1478.736257371268,-72.72473396907876,-13.105605940840974
2025-02-19 12:58:09.292,780,41,645,1,6,-9,-6,-11,9,422,74,N,-3.637163767705306,50.35512500560467,1550.0137655745866,81.47508254943338,8.257847697938132
2025-02-19 12:58:09.406,839,106,459,-20,-6,-12,-6,-14,10,287,107,N,-13.003733065429566,60.68671507245175,1710.9557779734046,216.16366205623467,-18.029442300110418
2025-02-19 12:58:09.509,910,329,469,2,-7,34,-6,-10,8,214,110,N,-35.049373312048395,57.807593407616714,1756.2637807698825,634.9569053552652,32.84866683398366
2025-02-19 12:58:09.619,557,-107,647,-12,-21,-47,-7,-11,10,569,101,N,9.390505023885794,40.34323331933931,1204.3650772150281,-231.35918000360505,-104.96625665731267
2025-02-19 12:58:09.725,805,-141,646,3,-28,64,-6,-13,10,692,110,N,12.312633713784034,50.60109281780742,1577.7456797425284,-276.35048552011995,25.88359116313859
2025-02-19 12:58:09.832,764,85,496,28,13,-91,-5,-9,10,714,119,N,-9.724372296255925,56.62795292612083,1599.1163272654212,177.91215682926804,-46.16976220372874
2025-02-19 12:58:09.934,1097,117,596,-16,59,28,-6,-11,11,789,94,N,-11.106428785175575,61.02803607105793,1971.8568303137563,210.30742857494027,120.69036384047524
2025-02-19 12:58:10.041,642,-60,671,3,-9,0,-5,-10,6,588,49,N,5.10972885189091,43.62077070617936,1331.8820231788025,-124.47495543727125,-50.04491830681684
2025-02-19 12:58:10.960,754,-62,649,4,-7,-4,-5,-10,12,676,69,O,5.456996257835292,49.1512911009974,1510.439289279102,-124.20057816353358,-2.0996004537627186
2025-02-19 12:58:11.061,777,-32,614,8,-18,-4,-6,-11,12,694,84,O,2.9834000322281042,51.64573926803314,1561.1890703406675,-64.29607496898501,-5.680938467399869
2025-02-19 12:58:11.164,787,-15,614,3,-3,2,-6,-10,10,734,96,O,1.3994556622355554,52.03114279933098,1575.345276524069,-30.0256405944867,-1.049555000988903
2025-02-19 12:58:11.275,804,64,549,4,4,-8,-4,-11,12,748,112,O,-6.649276868874792,55.49303376452352,1628.0573167390394,129.59660232748575,-13.695854340463598
2025-02-19 12:58:11.384,818,-99,528,43,28,-25,-4,-13,12,552,107,O,10.619655276155134,56.706091726729085,1653.8657291281816,-200.1622337208924,-11.531913178092736
2025-02-19 12:58:11.491,810,191,659,-27,-38,11,-3,-9,10,744,114,O,-16.16333675385751,49.73330103966948,1573.0441233467536,370.9276883447284,38.20237372159181
2025-02-19 12:58:11.598,812,125,445,11,48,-26,-3,-12,11,750,108,O,-15.689992929083873,60.34973651122301,1681.0612778752766,258.78406371232705,-31.271266815884303
2025-02-19 12:58:11.694,485,-68,736,-31,26,29,-4,-10,9,602,45,O,5.278646063418902,33.27179401716852,1033.6112941643225,-144.9186969137607,-96.53177836070392
2025-02-19 12:58:12.615,756,-28,646,-3,1,-1,-5,-9,11,533,61,P,2.4818549804207155,49.45964112311483,1515.948308849041,-56.146233661075605,-3.3738194662442993
2025-02-19 12:58:12.716,758,3,637,-2,-3,-1,-4,-11,9,549,64,P,-0.2698368410198049,49.95702109860215,1523.5620576557544,6.02992898808346,-6.354921803054708
2025-02-19 12:58:12.822,754,-3,643,1,-1,-3,-4,-11,8,556,67,P,0.26731896008579226,49.542640038063944,1514.8890801009711,-6.027410133027736,-5.874905178944687
2025-02-19 12:58:12.924,753,-8,645,2,0,-7,-5,-10,11,541,71,P,0.710608889497128,49.41533210055374,1512.4454244885742,-16.06847728540318,-5.520981135631246
2025-02-19 12:58:13.042,682,-51,658,18,-34,-28,-7,-13,9,496,101,P,4.431997495068087,45.94034128659911,1400.616103761591,-104.73815438686383,-35.327560520713746
2025-02-19 12:58:13.145,693,75,676,6,-21,86,-6,-11,8,491,107,P,-6.33088897289325,45.53625442527129,1406.6938130453655,152.2395901564248,-20.186172609909136
2025-02-19 12:58:13.257,833,-39,668,2,32,-53,-5,-9,12,656,106,P,3.3413199105399713,51.22556330087368,1612.6174552713449,-75.50069718557316,42.808571283003175
2025-02-19 12:58:13.363,855,20,594,7,-12,-30,-7,-13,8,692,103,P,-1.9284223132719756,55.19565676852088,1676.1059445804312,39.20715659837266,23.547449028331926
2025-02-19 12:58:13.465,620,44,653,1,2,38,-5,-12,9,675,112,P,-3.8548381627710944,43.45025715523812,1307.724563431154,92.80625934027543,-71.32925793636048
2025-02-19 12:58:13.575,787,16,559,-52,77,37,-6,-11,8,528,63,P,-1.639503132187336,54.60304057064458,1602.1585358559855,32.57247341003274,-20.000789763019043
2025-02-19 12:58:13.684,692,-72,688,26,-41,-16,-6,-10,8,582,51,P,5.974323286480623,45.01005407519156,1399.2308510746216,-145.58471282857334,-15.142811473034158
2025-02-19 12:58:19.400,769,-6,641,-1,-1,-1,-5,-11,8,728,71,Q,0.5362942862440349,50.18586669460148,1537.125602624645,-11.993177653768358,0.7288539890803349
2025-02-19 12:58:19.494,760,-7,643,0,-1,-1,-6,-10,9,729,71,Q,0.6237241265942401,49.76534730841198,1523.4055138557533,-14.031366574987203,-2.8812439595387787
2025-02-19 12:58:19.601,768,-4,636,0,-2,-1,-3,-10,8,728,72,Q,0.3603460633872312,50.37043804483512,1538.184259124771,-8.011376349608183,-1.8088395877008452
2025-02-19 12:58:19.706,750,-13,638,-2,0,0,-5,-10,9,728,72,Q,1.1673073285631006,49.607426213483066,1511.6223051762722,-26.20145328972205,-9.886707603282161
2025-02-19 12:58:19.805,766,-7,637,-1,0,0,-5,-9,9,726,72,Q,0.6295986084102669,50.25163664237106,1534.8600972057482,-14.02613665853817,-2.378435926973566
2025-02-19 12:58:19.924,759,-13,641,-3,-1,-2,-5,-11,9,731,71,Q,1.161845612777435,49.812021098008465,1522.9314338414665,-26.084464611250418,-4.1647550624243195
2025-02-19 12:58:20.030,746,-17,640,-4,-2,-3,-5,-11,9,748,70,Q,1.5215613564293005,49.36342908933396,1504.8557747070627,-34.292960013431724,-11.029082858606102
2025-02-19 12:58:20.137,768,-8,640,-2,-5,0,-5,-11,10,769,73,Q,0.7161599454704085,50.19222763824619,1536.1966835296985,-16.002048786767695,-0.1639029414156994
2025-02-19 12:58:20.243,772,-3,627,1,-6,-3,-5,-12,10,790,76,Q,0.2741403937332208,50.916998194217804,1548.2334783137333,-6.01645134059741,-3.4383301848586143
2025-02-19 12:58:20.350,763,-15,610,1,-5,-4,-7,-11,8,815,82,Q,1.4086287353384674,51.35006513319088,1543.9764472458278,-30.353403287925847,-14.37173370898438
2025-02-19 12:58:20.461,755,1,609,-2,-12,-4,-6,-9,11,835,89,Q,-0.0940816552019056,51.10953304439431,1533.347620138587,2.0309240001835587,-18.83271611178725
2025-02-19 12:58:20.566,759,-52,618,1,2,-19,-7,-12,10,826,109,Q,4.809674712031758,50.74751784509507,1533.365233437226,-105.05269056486924,-12.5108224824844
2025-02-19 12:58:20.678,1065,267,364,-2,-28,100,-4,-11,10,681,111,Q,-36.26066110046042,67.02918819029885,1985.7037841675422,497.8243289884824,49.31814325165692
2025-02-19 12:58:20.785,791,-47,576,-7,-2,-78,-6,-11,11,832,118,Q,4.664841766501314,53.8476752185291,1598.451469523648,-94.9775209451472,-11.979831157548688
2025-02-19 12:58:20.889,541,135,629,-30,29,78,-5,-11,8,703,73,Q,-12.113418170537383,40.06197648585124,1184.6158589508434,295.606545209545,-119.30753286521349
2025-02-19 12:58:20.997,938,12,769,-9,7,-22,-3,-11,11,674,110,Q,-0.8940098242212879,50.650671840969245,1711.294620841194,21.892894936134674,135.0303161760362
2025-02-19 12:58:21.105,760,119,592,13,-27,33,-5,-10,11,789,122,Q,-11.365758159030259,51.53184783098005,1542.954060389775,241.59412261366214,-17.880004935193142
2025-02-19 12:58:21.214,660,-180,625,-29,74,17,-4,-7,9,545,54,Q,16.06640053519666,45.41957792193904,1372.2659295542946,-374.25434442389843,-49.49425147186969
2025-02-19 12:58:21.321,803,-15,631,6,-18,-16,-4,-7,9,588,54,Q,1.3617668128381295,51.83175947508168,1589.1995607832123,-29.686168632314057,13.201839533988732
2025-02-19 12:58:22.137,792,-21,618,-1,-2,-3,-4,-9,10,721,76,R,1.9461951170307557,52.01894066255608,1580.2142340224814,-41.899619841505185,2.954044664275898
2025-02-19 12:58:22.231,768,-4,614,0,-2,-4,-5,-9,9,735,78,R,0.37325712687132734,51.35779944181392,1549.0607490184416,-8.068024734471049,-10.44179674130612
2025-02-19 12:58:22.336,785,8,608,0,-4,-4,-4,-9,11,736,84,R,-0.753848333070767,52.23901867157962,1575.5722214517732,16.056786970209153,-4.315809735895414
2025-02-19 12:58:22.445,777,19,616,-2,-1,-8,-6,-11,10,737,90,R,-1.7666798439164686,51.57961031337807,1560.4723616068568,38.15826881664128,-5.131241634264825
2025-02-19 12:58:22.555,893,-57,672,-13,-4,-22,-6,-12,11,645,106,R,4.848304768394877,52.939101614057314,1690.9954035019143,-107.93587681927113,71.49282065701414
2025-02-19 12:58:22.665,773,314,511,9,-14,56,-3,-11,10,550,112,R,-31.56995176805569,52.192417865399804,1563.0738974975552,634.9355806134959,-11.286884374192255
2025-02-19 12:58:22.775,1125,-244,666,21,6,-41,-7,-13,11,775,103,R,20.12113511422381,57.76939648869001,1970.9084191431448,-427.4681371297131,165.22221586725834
2025-02-19 12:58:22.878,702,182,678,-6,-5,44,-4,-11,11,759,113,R,-15.026051339763951,44.999883735629204,1409.105346326788,365.32360830694506,-4.930804572026204
2025-02-19 12:58:22.987,660,-97,547,-4,-54,62,-5,-10,10,691,117,R,10.055776061063861,49.9120722606027,1425.0571012350597,-209.4402103330315,-87.07005208420867
2025-02-19 12:58:23.091,839,4,452,-35,110,25,-5,-7,12,594,66,R,-0.5070290609147756,61.68609175389817,1719.3622451750098,8.197197831585267,-22.283354969135132
2025-02-19 12:58:24.004,799,-5,618,7,-16,-9,-4,-11,10,744,74,S,0.4635479725366295,52.27833000329891,1589.9921890339106,-9.949888542139615,6.193776191543748
2025-02-19 12:58:24.106,794,15,608,1,-7,-8,-5,-11,10,784,88,S,-1.4132605063511139,52.54874905145199,1587.8710064413285,29.997563093979757,0.09877592402051505
2025-02-19 12:58:24.204,795,11,599,2,-5,-6,-7,-11,12,804,97,S,-1.052057998782162,52.998826769711215,1593.6231866752655,22.050132142676627,-2.7299230421180027
2025-02-19 12:58:24.319,782,7,586,0,-8,-4,-6,-14,10,820,107,S,-0.6843880233033243,53.15159382209398,1582.2250018416194,14.163139402674343,-13.657098566737659
2025-02-19 12:58:24.429,772,-72,649,4,4,-20,-7,-12,11,780,111,S,6.330501947336117,49.774419176071135,1535.5077752809889,-143.20797904175026,7.139188915334444
2025-02-19 12:58:24.536,803,119,631,5,-20,67,-2,-12,9,797,111,S,-10.67994929146146,51.35224353505905,1584.000192648692,234.7397545768298,17.287519848910847
2025-02-19 12:58:24.642,872,63,474,11,30,10,-4,-11,9,640,115,S,-7.570888900834287,61.26147608296405,1748.8230779742044,126.34845632153082,-2.6217189905651708
2025-02-19 12:58:24.744,521,-117,780,-28,44,24,-5,-7,8,626,45,S,8.530765609948133,33.447106308984885,1072.1669326377623,-240.7745318975397,-45.16354598359783
2025-02-19 12:58:24.855,745,-47,649,-2,-16,-10,-5,-8,6,563,44,S,4.142078167109475,48.86531192659324,1498.165265383147,-94.51512412484284,-7.11309695793625
2025-02-19 12:58:25.875,765,1,618,11,-12,-10,-6,-11,9,754,80,T,-0.09271153641892362,51.06719011480133,1542.8834238516986,2.0168410769303255,-10.407785542941042
2025-02-19 12:58:25.969,773,18,630,3,1,-6,-3,-12,11,773,90,T,-1.6365770416167182,50.80829485887396,1548.0359811071614,36.04740965061954,-1.6593377716839086
2025-02-19 12:58:26.074,759,16,641,8,9,-6,-5,-12,9,709,92,T,-1.4298629529717846,49.809032349082564,1522.8977718240224,32.10324683687004,-4.136326402105965
2025-02-19 12:58:26.186,778,50,535,6,2,-7,-6,-13,10,340,102,T,-5.339236803737584,55.368819284384855,1600.8272226008826,102.88092690237035,-30.825917855362718
2025-02-19 12:58:26.293,699,27,677,-7,-23,6,-4,-13,10,844,108,T,-2.2838502763280952,45.89323454486725,1417.0441197446262,54.73560977554351,-18.44473400159086
2025-02-19 12:58:26.404,688,49,575,-14,44,-2,-3,-13,11,698,91,T,-4.870828950006341,50.01058183845361,1454.1631451614326,103.5668519082997,-65.32530300555766
2025-02-19 12:58:26.514,782,-118,670,-18,-17,44,-6,-11,10,710,108,T,9.988464890917669,48.9779114759774,1536.4566019274162,-231.84383507344637,23.598563566024836
2025-02-19 12:58:26.617,1029,-3,600,19,-3,14,-4,-10,10,635,112,T,0.2864765102770745,59.75363838759049,1892.867494038629,-5.518564122561601,96.28717548767963
2025-02-19 12:58:26.722,595,-108,709,-17,24,5,-5,-7,8,491,44,T,8.66112671456158,39.680459430549135,1233.5053787507545,-223.89677463038902,-51.840863082831675
2025-02-19 12:58:27.638,724,-41,625,8,-4,-6,-4,-9,9,443,53,U,3.753225473657424,49.1364214492608,1480.2695182745097,-83.82741747134654,-27.856973648575035
2025-02-19 12:58:27.735,744,-37,651,3,-5,-4,-6,-9,8,468,59,U,3.2529425168204287,48.768282847979904,1496.0501637406721,-74.40034416452268,-7.043893273088202
2025-02-19 12:58:27.842,725,-32,654,6,-3,-4,-4,-9,9,492,63,U,2.801229157749907,47.913288364216974,1467.1313101870787,-64.75614058756761,-15.453623258413131
2025-02-19 12:58:27.952,758,15,653,14,5,-12,-5,-11,9,421,73,U,-1.3159044048871003,49.2483657648056,1515.5463655498868,29.991023064971365,0.39079590491303406
2025-02-19 12:58:28.054,642,26,625,18,-15,-35,-6,-11,8,1,88,U,-2.3821309211495945,45.743962846620576,1358.2284145209687,55.00613516751587,-72.26286460374695
2025-02-19 12:58:28.165,792,27,635,-8,-13,65,-6,-11,9,169,99,U,-2.4347319359137223,51.25323180935434,1571.9197875125978,53.5881745742931,9.685523900884505
2025-02-19 12:58:28.277,675,-19,670,-5,-14,-47,-5,-11,11,763,111,U,1.6243703479684553,45.20148026756166,1384.588940906971,-38.97361463293696,-34.33272652988239
2025-02-19 12:58:28.382,779,-87,611,1,2,-38,-6,-12,11,769,106,U,8.10384397858232,51.61196955611278,1562.823203066134,-174.53866324358623,-3.783025768174525
2025-02-19 12:58:28.489,1055,103,500,-1,23,-7,-4,-9,10,730,107,U,-11.640100426260544,64.17835213598222,1955.154265300233,190.88235955063888,73.38660412311225
2025-02-19 12:58:28.594,502,-163,734,-9,0,-12,-3,-9,7,602,43,U,12.520542305355258,33.729406449103536,1057.2713459518577,-343.29726970149954,-77.89077276626153
2025-02-19 12:58:29.811,732,23,655,2,-2,-5,-5,-12,7,507,75,V,-2.0110865644055163,48.159999141199094,1477.0104806072068,46.40879925405158,-11.641891800164558
2025-02-19 12:58:29.906,749,26,649,3,-1,-4,-5,-12,9,521,80,V,-2.2941357197932133,49.06870389808912,1504.4957238873294,52.225485742417305,-5.628471031878007
2025-02-19 12:58:30.014,720,58,642,7,-10,-11,-7,-12,9,522,89,V,-5.1622402709453405,48.16197601863839,1465.0334954985974,118.016587137387,-22.321533486249336
2025-02-19 12:58:30.120,795,23,646,1,-2,-6,-4,-14,8,336,100,V,-2.039081308799968,50.88566486737508,1570.8885906793266,45.447091302672334,15.529522542333666
2025-02-19 12:58:30.234,697,148,667,-6,-27,72,-6,-13,9,701,105,V,-12.510615685786629,45.571911940886444,1411.1295984557319,299.63727485143227,-16.39231301287407
2025-02-19 12:58:30.337,817,63,530,3,-13,-56,-5,-9,9,749,113,V,-6.7788224984408325,56.844146736564184,1654.1859657305677,127.55656773687366,-13.094934929254578
2025-02-19 12:58:30.444,817,83,572,-5,5,-7,-5,-13,10,826,107,V,-8.25627342880566,54.722323236357056,1633.3626695355283,165.93525284143067,0.44620933375483673
2025-02-19 12:58:30.553,613,-36,667,-15,18,22,-5,-10,8,721,58,V,3.0894282840079454,42.54275116532174,1289.1401379495428,-75.70806682901066,-68.70223819305863
2025-02-19 12:58:30.658,788,16,606,3,-4,-2,-5,-9,9,698,66,V,-1.5124084874131574,52.42878882703218,1580.5961167581677,32.09332216767852,-3.5345771008240945
2025-02-19 12:58:31.581,750,12,641,1,-1,-2,-4,-11,11,526,69,W,-1.0724946178656782,49.47563442077554,1510.1297128449592,24.162075405519346,-8.657527911491684
2025-02-19 12:58:31.671,751,6,645,2,0,-1,-8,-12,9,529,71,W,-0.5329686226542456,49.3409816129132,1509.6005647897575,12.060723553579953,-6.527782009844941
2025-02-19 12:58:31.774,754,19,653,5,1,-3,-4,-12,8,529,74,W,-1.6666351552427334,49.09387621354068,1509.7834859976167,38.044941954847104,-1.5445840271133875
2025-02-19 12:58:31.887,741,45,628,4,-1,-6,-4,-12,9,494,82,W,-4.098584026446491,49.64622979938531,1503.0610030460398,91.27900828214817,-17.8492711375344
2025-02-19 12:58:31.994,755,58,642,7,4,-9,-5,-11,9,366,92,W,-5.1622402709453405,49.50949276350671,1515.5135557015797,116.42355792144582,-4.688348027038387
2025-02-19 12:58:32.102,787,102,725,10,5,-20,-7,-14,8,0,99,W,-8.008361456690738,47.06819669085252,1519.164936550852,196.89304133187665,50.51514739597485
2025-02-19 12:58:32.204,995,-74,694,-8,-11,41,-6,-13,8,99,95,W,6.086351345582831,54.952594198220325,1813.6771940860822,-134.88654508780914,122.98294201433066
2025-02-19 12:58:32.319,779,138,583,9,-8,16,-5,-9,10,612,107,W,-13.317184393297985,52.436980906430506,1571.6832895242112,278.42399737399376,-10.240510645205404
2025-02-19 12:58:32.424,734,-160,667,7,1,-18,-6,-12,9,758,110,W,13.48923531887152,46.93927135887696,1464.6304308331146,-319.2654890099433,3.0619926897987852
2025-02-19 12:58:32.529,784,188,536,4,-1,12,-5,-8,11,669,114,W,-19.328129151109984,54.0763788038323,1593.7998292620211,382.186693751607,-17.638658781177583
2025-02-19 12:58:32.644,792,-15,580,-23,-15,-47,-4,-11,13,832,115,W,1.4814571708870747,53.77468445577383,1598.6992804128377,-30.278395462364355,-10.764624544754838
2025-02-19 12:58:32.749,882,405,439,-31,75,61,-4,-13,10,791,73,W,-42.693123530379246,55.89450892069273,1710.0066006286982,785.2071125335858,26.874265673471143
2025-02-19 12:58:32.854,750,5,624,12,-21,-11,-5,-9,11,720,58,W,-0.45909097219195694,50.23863937764694,1518.7150288259063,10.124766858839374,-15.570903983153812
2025-02-19 12:58:32.962,752,-24,618,-4,6,-1,-5,-11,9,629,65,W,2.223961240385479,50.565164549415904,1524.347518793269,-48.64938889765752,-16.72176411468115
2025-02-19 12:58:33.880,756,12,600,-4,-6,-5,-5,-10,9,710,75,X,-1.1457628381751033,51.557119602940766,1539.228368338784,24.432196322837836,-21.609816141891883
2025-02-19 12:58:33.975,816,26,604,1,-4,-3,-5,-11,10,740,86,X,-2.464852917991229,53.46593563905501,1619.5030754496984,51.6018136785443,9.250174544586116
2025-02-19 12:58:34.083,765,18,605,1,-4,-6,-5,-11,10,769,87,X,-1.704165104817636,51.648968347698364,1549.2240405165044,36.45233036509422,-15.20332616011126
2025-02-19 12:58:34.188,847,34,543,-2,0,-3,-6,-11,11,801,111,X,-3.5829034852085444,57.28567562639421,1688.3756915253477,67.77423082864442,3.6056664719434366
2025-02-19 12:58:34.301,779,177,594,23,26,41,-5,-13,10,492,112,X,-16.592993489746906,51.4925284290235,1561.526972102456,354.80137877039124,-2.6893728226687017
2025-02-19 12:58:34.404,902,91,611,-6,30,-36,-6,-12,9,341,106,X,-8.471144633014832,55.594502209384245,1727.0592833265023,174.23768822917037,52.11837903271328
2025-02-19 12:58:34.514,769,173,533,0,-8,-23,-6,-13,10,112,99,X,-17.98228278243534,53.919040757917315,1577.1856433193434,354.8154958312697,-27.159880220038985
2025-02-19 12:58:34.624,709,186,603,3,-25,38,-5,-11,10,464,117,X,-17.14278193667208,48.32979617976372,1455.9840286607207,381.9647804384965,-32.30517529254519
2025-02-19 12:58:34.727,750,-45,525,-64,92,10,-4,-8,9,371,62,X,4.899092453787765,54.90939918486776,1568.2440341431275,-94.09464204858764,-47.77082390018916
2025-02-19 12:58:34.836,708,-33,651,13,-30,-20,-3,-9,9,249,49,X,2.901910468883643,47.36509405837209,1443.684581721061,-67.29038304632064,-25.455738277416344
2025-02-19 12:58:35.852,769,-20,644,4,4,-9,-4,-11,8,481,67,Y,1.778800315673848,50.041873795597674,1535.5140105677178,-39.93534487822413,2.081894921183107
2025-02-19 12:58:35.945,778,13,652,6,-7,-7,-5,-9,9,520,73,Y,-1.1422491608414478,50.029829248193,1544.3789864699236,25.805818539985868,9.738947071478037
2025-02-19 12:58:36.054,774,16,637,0,-3,-3,-5,-13,7,557,81,Y,-1.438837921603695,50.536842201341614,1546.033433402139,31.959347460509335,1.618479228472097
2025-02-19 12:58:36.164,753,26,631,-1,0,-2,-5,-14,11,566,84,Y,-2.359505636972483,50.01369251218909,1519.198034253183,52.455709018038185,-11.059707322388249
2025-02-19 12:58:36.271,686,4,645,10,-12,-18,-6,-11,10,503,92,Y,-0.35531810860711366,46.76382610152714,1414.5362908626287,8.248025019607164,-39.99403441165521
2025-02-19 12:58:36.379,955,-59,730,-11,-11,37,-7,-13,8,398,102,Y,4.620711139128017,52.51574650664617,1748.5206152492826,-108.02378670126458,123.43450352672642
2025-02-19 12:58:36.488,838,107,557,10,-11,-29,-6,-10,9,679,112,Y,-10.874080871249761,55.908644940865074,1666.1449159115205,212.74165394096977,6.550455653082622
2025-02-19 12:58:36.595,611,-88,650,14,-52,-19,-3,-11,10,799,91,Y,7.710089070738507,42.968937478260386,1292.6017613622585,-186.16850245479333,-75.10825676835998
2025-02-19 12:58:36.702,696,-185,725,0,23,2,-5,-13,10,736,115,Y,14.314826910404873,42.92877605094014,1377.0886931170262,-366.0365060727728,15.532611336430932
2025-02-19 12:58:36.808,791,-7,620,-3,14,13,-5,-11,12,345,116,Y,0.6468603487518197,51.90824149744009,1578.0237690412823,-13.964812115409579,3.116641206580084
2025-02-19 12:58:36.918,828,159,536,-14,-14,46,-7,-10,11,279,119,Y,-16.52255744933214,55.97181543003577,1656.7623976983218,318.14640245656176,-0.493532809541648
2025-02-19 12:58:37.025,645,-91,577,-22,61,12,-5,-8,7,503,69,Y,8.962428007045206,47.83504358826611,1386.215299473813,-195.5745616311891,-86.0716710021552
2025-02-19 12:58:37.131,751,-51,648,10,-25,-21,-5,-8,8,515,62,Y,4.500113708420656,49.12322964482644,1507.1188610852173,-102.3476190617125,-4.416806901758832
2025-02-19 12:58:38.045,785,0,619,-1,-1,-3,-4,-12,10,697,85,Z,0.0,51.74298312278575,1570.2411060350119,0.0,-0.19012055499661074
2025-02-19 12:58:38.134,777,2,615,0,-1,-4,-7,-11,10,714,86,Z,-0.1863270814083769,51.63803385633127,1561.1056124751008,4.018289864800773,-5.6241334262377904
2025-02-19 12:58:38.253,753,-5,622,6,-9,-10,-6,-12,10,708,93,Z,0.4605670854643111,50.44138953952421,1523.9735064201527,-10.119345992165691,-14.846641425411804
2025-02-19 12:58:38.356,753,9,624,3,3,-5,-4,-12,9,658,100,Z,-0.8263241397292475,50.34903053076416,1522.9458951175952,18.202540579094762,-14.042813483903501
2025-02-19 12:58:38.464,834,41,575,-3,0,-9,-6,-12,11,119,106,Z,-4.07853535873877,55.34781429094898,1656.6188280274714,81.44049394379657,7.846731276023775
2025-02-19 12:58:38.573,639,0,711,9,-31,16,-2,-12,11,817,115,Z,0.0,41.94711748520758,1307.4444180943888,0.0,-32.76209900643232
2025-02-19 12:58:38.680,644,20,632,0,42,39,-4,-12,11,428,116,Z,-1.8125526855155918,45.524480943617455,1357.5498636919901,42.15993365503074,-68.25390349897157
2025-02-19 12:58:38.790,799,105,595,-20,-58,8,-6,-11,11,340,113,Z,-10.007979801441337,52.9038902707858,1596.624883623174,209.81929008815175,1.0240228338068391
2025-02-19 12:58:38.894,811,31,575,13,1,16,-5,-9,12,634,119,Z,-3.0860022245727055,54.62407175867689,1626.3710980184944,62.16708266161939,-3.0991138848758055
2025-02-19 12:58:38.999,643,-87,663,-3,7,0,-4,-9,7,409,61,Z,7.475737385548222,43.87824772192699,1336.12822189435,-180.78251213811578,-51.687420087020314
2025-02-19 12:58:40.022,757,-35,633,-1,-3,-3,-4,-8,7,207,61,a,3.1647905420716453,50.05474352712498,1523.6582478691525,-70.44655042988155,-8.076183489000641
2025-02-19 12:58:40.118,745,-24,635,-5,-1,-3,-4,-9,8,304,63,a,2.164479528545977,49.53722915778024,1505.8277978028177,-48.50988878827869,-13.490807523206968
2025-02-19 12:58:40.224,759,-20,622,-7,-2,-4,-5,-7,8,449,68,a,1.8416734947472604,50.65088982700103,1532.2970331138079,-40.37673341538361,-11.716409218430158
2025-02-19 12:58:40.330,777,-8,622,-6,-4,0,-4,-10,9,629,73,a,0.7368825782116466,51.31989906859701,1557.6475097073749,-16.037554797501933,-2.9198855057751416
2025-02-19 12:58:40.437,786,-36,636,-3,0,0,-4,-8,12,676,74,a,3.2397002961021295,50.97677078554844,1562.8907545722213,-71.58278265216282,7.370839811790461
2025-02-19 12:58:40.543,781,-34,630,0,-3,-1,-6,-10,8,694,75,a,3.08915637533654,51.06761285536679,1558.888060364187,-67.86452503506064,2.5102714091706275
2025-02-19 12:58:40.654,765,-49,637,3,-6,-2,-6,-10,9,698,81,a,4.398705354995532,50.13340437338556,1532.5389970022543,-98.16262856615745,-2.1141713600468393
2025-02-19 12:58:40.760,741,-53,612,6,-14,2,-4,-8,11,738,88,a,4.949540552839129,50.341192919552874,1510.8585996067286,-108.0641103632343,-23.83463287357347
2025-02-19 12:58:40.872,775,-95,609,-10,1,-23,-5,-9,12,700,119,a,8.866308657529464,51.50442343192446,1557.6562147984932,-190.9385037494927,-6.016302983590208
2025-02-19 12:58:40.977,935,166,527,-29,-29,60,-4,-10,10,556,117,a,-17.48393278870853,59.419591438342984,1795.9160358113195,318.8471250745231,41.75641617907428
2025-02-19 12:58:41.083,759,-339,652,-2,1,-32,-5,-9,13,722,121,a,27.471664649918,45.92563615135785,1477.4376017842085,-659.883197634844,34.84411546336787
2025-02-19 12:58:41.190,920,131,545,6,-10,9,-4,-9,14,715,120,a,-13.515612462398064,58.647548596731205,1773.9828785534764,252.59973596794066,39.10796868299502
2025-02-19 12:58:42.104,778,-6,606,-1,-1,-1,-6,-10,11,721,86,b,0.5672664098579344,52.08288955148943,1566.90060341191,-12.084066350220386,-8.49070137225874
2025-02-19 12:58:42.203,771,10,600,4,-1,-5,-7,-10,11,724,93,b,-0.9548412538721887,52.1057287170695,1560.1455001805919,20.23535019689483,-14.121011813689961
2025-02-19 12:58:42.312,1221,-9,596,8,0,-14,-6,-13,11,693,110,b,0.8651389688984853,63.97928867231834,2119.6355248012615,-15.623849077159175,157.35399444590342
2025-02-19 12:58:42.418,785,-108,614,10,-2,-29,-6,-12,12,689,110,b,9.976036422751454,51.54433634310916,1568.0896337620238,-215.7371725430555,1.49422276448081
2025-02-19 12:58:42.525,820,111,578,18,8,23,-4,-11,10,552,117,b,-10.870819802331283,54.33079168291455,1632.3970141342602,220.97081532793032,5.359177841948394
2025-02-19 12:58:42.635,927,-88,588,7,-13,-22,-5,-11,10,754,112,b,8.511705138424686,57.325167661183286,1768.7480059350023,-167.90703831961187,54.075698500775275
2025-02-19 12:58:42.737,779,0,549,1,13,30,-5,-10,13,529,121,b,0.0,54.82574506462427,1596.403827708551,0.0,-27.065085252881318
2025-02-19 12:58:42.849,645,-29,622,-26,49,17,-5,-9,7,526,60,b,2.669413515575482,46.00889939728788,1364.447688627777,-61.347260418923305,-71.79296484725148
2025-02-19 12:58:42.955,789,-47,645,11,-29,-18,-4,-9,8,637,59,b,4.167675238100056,50.659967256372866,1562.3974756405287,-93.07057205970196,12.7549153508985
2025-02-19 12:58:46.772,775,-10,629,0,-1,0,-6,-11,9,713,83,c,0.9108259617127253,50.9332275662482,1551.4120246407267,-20.018219672783566,-1.1460174180865579
2025-02-19 12:58:46.867,772,-1,631,-1,-1,0,-6,-10,9,710,83,c,0.09080147630133652,50.738860078031834,1546.2696136139846,-2.002939914007752,-1.8550857388917166
2025-02-19 12:58:46.979,769,-18,625,-1,-1,-1,-5,-9,10,692,85,c,1.649662452139926,50.88610158097022,1544.89339920441,-36.16135394756745,-5.602567623869959
2025-02-19 12:58:47.080,771,-6,625,-2,0,-1,-6,-9,9,681,84,c,0.5500225870469494,50.96925520839771,1547.8081576252234,-12.045199670235199,-4.708298982833185
2025-02-19 12:58:47.186,763,8,630,-5,-2,-2,-5,-10,8,693,83,c,-0.7275263513507163,50.45165105283165,1534.087555185955,16.084797433142384,-6.677797859962766
2025-02-19 12:58:47.297,748,-19,630,-1,-2,0,-4,-10,11,718,82,c,1.7274443487751676,49.881541884212936,1512.7138536490093,-38.42454975846413,-14.077176201705356
2025-02-19 12:58:47.404,779,-4,623,-2,-2,-2,-4,-11,10,729,85,c,0.36786511860971205,51.34858640445454,1559.960327901007,-8.010065868554594,-1.567759027378088
2025-02-19 12:58:47.510,774,-31,623,-2,-1,0,-5,-11,10,732,85,c,2.8486443314488503,51.13447100769134,1552.620810691057,-62.185071229228384,-3.719334703525192
2025-02-19 12:58:47.617,750,-28,623,1,-5,3,-5,-10,10,747,88,c,2.5733594631768235,50.25630101222108,1518.9121487112668,-56.706053551887294,-15.709691529492147
2025-02-19 12:58:47.724,781,-50,617,-2,1,0,-5,-9,9,754,94,c,4.63297002947556,51.599565452953,1564.6887463466478,-100.17213484933723,-2.1241440408214203
2025-02-19 12:58:47.829,790,-48,635,0,1,6,-4,-11,8,750,92,c,4.322798669952349,51.12803841772096,1568.5503570298697,-95.30432549042247,9.203194032952638
2025-02-19 12:58:47.944,781,-33,590,6,-12,-3,-5,-12,10,757,101,c,3.2013436003187348,52.88803141481323,1578.4579065731846,-66.6954045030923,-12.432989600741394
2025-02-19 12:58:48.051,758,-38,642,-4,1,-11,-6,-9,10,739,118,c,3.3873868054916945,49.68712548921131,1520.5229750959188,-76.22674545335741,-3.830804764617028
2025-02-19 12:58:48.155,943,102,569,-12,-26,68,-4,-11,11,488,116,c,-10.163003578558815,58.49121414663666,1795.560033319153,194.21752216177475,54.5708812740213
2025-02-19 12:58:48.264,1279,87,619,-12,111,43,-4,-9,10,744,87,c,-8.000474114892716,63.953913257577796,2177.4411449942463,148.11366662587918,184.17977423656095
2025-02-19 12:58:48.366,447,-157,736,-20,-4,6,-3,-3,7,399,32,c,12.041582354911817,30.709184719041293,957.6807487556517,-336.36661645332737,-104.85241853279581
2025-02-19 12:58:48.474,800,-58,659,4,-17,-17,-4,-8,6,412,41,c,5.029763784277952,50.411487753864876,1570.6410302421489,-113.87147469255581,24.184451338029817
2025-02-19 12:58:49.394,760,-60,635,-2,-1,-1,-6,-9,8,461,68,d,5.397748776480396,49.99501771851908,1525.98854520172,-120.47277988434631,-5.003587109331761
2025-02-19 12:58:49.492,781,-32,609,2,-11,-5,-5,-9,12,496,80,d,3.007849489930886,52.01567113274571,1569.179115462689,-64.29415069757496,-5.598055463223659
2025-02-19 12:58:49.599,772,-51,625,0,-2,-2,-5,-8,10,568,84,d,4.664999868746953,50.91386038440657,1548.1989507284181,-102.2773918227323,-3.3994095923075065
2025-02-19 12:58:49.705,750,-29,609,-3,-8,-9,-7,-9,11,626,90,d,2.726310993906266,50.891645015524816,1525.9544324158746,-59.00357138674716,-21.074999121690325
2025-02-19 12:58:49.815,787,-78,604,3,10,-19,-6,-11,10,430,116,d,7.358399088753703,52.26570199764434,1577.857323149116,-156.38230140486792,-2.96038523769505
2025-02-19 12:58:49.923,835,164,556,-1,-21,35,-4,-9,12,533,116,d,-16.434163206253434,55.23042992198706,1656.4522006142531,325.33911485118267,9.021049650868576
2025-02-19 12:58:50.032,755,-208,619,-15,6,-51,-7,-11,12,743,114,d,18.573679252809615,49.142918541245976,1511.3437036712842,-416.3701859120889,-1.1016590364569083
2025-02-19 12:58:50.140,898,281,513,-4,-20,65,-4,-11,11,448,119,d,-28.71208940433443,56.921499288324014,1735.9235733183514,543.2010290673237,34.31982949630941
2025-02-19 12:58:50.242,597,-116,593,-36,67,15,-3,-8,9,560,62,d,11.068179564752112,44.654714834347565,1299.8326848592767,-252.56380476327655,-105.12358814330162
2025-02-19 12:58:51.154,750,-22,628,0,2,1,-4,-9,10,427,71,e,2.0063565038998434,50.042143433020975,1516.5170329213095,-44.48449963235841,-13.830262232776477
2025-02-19 12:58:51.254,773,-18,624,2,0,2,-5,-10,7,474,73,e,1.6523046776513075,51.07634095480727,1550.9837785064,-36.11605176340906,-4.023127798180781
2025-02-19 12:58:51.364,766,-16,625,1,1,-1,-5,-11,11,587,77,e,1.4664516602477826,50.77887573143514,1540.7114143961257,-32.1819616584047,-7.107877281433957
2025-02-19 12:58:51.464,746,-27,638,5,2,-4,-6,-9,11,603,79,e,2.423297033450202,49.436693407039265,1505.6879209262129,-54.49540732574764,-11.706291623222228
2025-02-19 12:58:51.578,859,104,604,-8,0,-6,-6,-9,10,522,110,e,-9.769700050531238,54.492507476760906,1673.0395733347682,202.55659560746903,31.613617818160606
2025-02-19 12:58:51.685,698,-41,684,-7,-8,-8,-4,-11,10,721,115,e,3.4302917394019405,45.52903663185512,1411.6055677286604,-82.91665942245713,-15.292562072211581
2025-02-19 12:58:51.790,885,55,563,1,8,41,-4,-12,8,307,111,e,-5.579573993192207,57.4138321664419,1727.5824408001627,107.36388050170501,26.984277773455915
2025-02-19 12:58:51.898,902,-79,675,33,1,-12,-5,-8,10,710,113,e,6.675359853559034,53.003991468089374,1700.67743310766,-148.95068427439594,77.3201027187688
2025-02-19 12:58:52.008,538,-167,698,-10,10,-4,-4,-7,9,327,42,e,13.455366653306536,36.85585228363962,1137.8038717221182,-353.18447319255336,-80.18420531977392
2025-02-19 12:58:53.026,776,-37,618,-3,-3,2,-5,-8,9,491,79,f,3.426239981076774,51.41651119280883,1557.700226267644,-74.27178913905006,-4.539613187376403
2025-02-19 12:58:53.118,792,-40,619,0,-6,4,-4,-9,11,570,85,f,3.6973329249854316,51.93210253592891,1579.2806205067595,-79.76164750034138,3.688504932217029
2025-02-19 12:58:53.228,789,91,587,-4,-5,2,-5,-9,13,580,118,f,-8.812162747328632,53.02512898257987,1587.8993793572708,183.14175351268904,-7.364937493939124
2025-02-19 12:58:53.338,799,123,448,22,22,-129,-6,-9,11,634,118,f,-15.352468432981256,59.82415300707384,1663.486772960723,256.08119283375333,-36.71849097171946
2025-02-19 12:58:53.445,773,125,611,-14,-25,20,-6,-12,11,824,0,f,-11.562176414535834,51.10345763499481,1551.2810428677553,250.85398493980523,-4.174278385767934
2025-02-19 12:58:53.552,617,48,578,-2,18,-21,-5,-10,9,647,94,f,-4.747233965082746,46.77099374625285,1345.6219788782694,104.68371958858498,-104.5664567125441
2025-02-19 12:58:53.654,799,90,571,-28,-53,10,-5,-12,10,630,115,f,-8.957167730611088,54.1155417691272,1609.2006671014528,181.261652114056,-8.00448174584426
2025-02-19 12:58:53.764,985,73,537,4,33,30,-5,-11,13,698,0,f,-7.74135824969953,61.18076144117033,1861.1448692314425,137.93256391258404,59.34538601290899
2025-02-19 12:58:53.865,584,-95,683,0,-11,-3,-5,-8,9,460,56,f,7.918593054223863,40.26120178982097,1230.2731854345648,-200.13005584980078,-72.82976995172555
2025-02-19 12:58:54.695,785,-19,599,-2,-3,0,-6,-8,10,473,91,g,1.8167861999382742,52.64039825181505,1579.8426731110592,-38.238230304598886,-7.510523813406849
2025-02-19 12:58:54.784,789,-14,599,0,-2,0,-6,-9,10,506,95,g,1.338889650841538,52.787102233544076,1585.3937974494427,-28.131195392005317,-5.613288557941814
2025-02-19 12:58:54.895,804,-3,592,1,-3,-1,-5,-10,11,597,103,g,0.29034774863596025,53.63474889958688,1609.2535475993827,-6.004677416415608,-0.9230101726799376
2025-02-19 12:58:55.003,841,54,558,1,-6,-3,-4,-10,11,625,117,g,-5.527540151656172,56.312755552408035,1673.0776245230645,107.42710074226574,5.919958996587411
2025-02-19 12:58:55.112,812,-35,588,-9,3,-23,-6,-11,11,497,118,g,3.406443754994719,54.042131529731506,1621.4489940412097,-69.89004284660386,1.8472801770551541
2025-02-19 12:58:55.214,827,185,558,11,-14,33,-5,-9,11,594,119,g,-18.34248664469362,54.593101464166736,1642.058043113767,367.3285828005404,8.057571877289092
2025-02-19 12:58:55.325,812,-86,528,4,3,-22,-3,-10,11,695,0,g,9.251029572077664,56.622500763338905,1647.0639794965225,-174.4427367447056,-14.99726745586679
2025-02-19 12:58:55.430,818,131,465,-6,-6,40,-5,-8,11,245,124,g,-15.733612636363036,59.434441052537146,1679.0478612438997,268.89397288869304,-24.470972467498086
2025-02-19 12:58:55.540,509,-145,736,-20,35,15,-2,-5,8,387,51,g,11.145160751880196,34.1582020439843,1070.4798631736357,-304.9500592537862,-75.88443869508023
2025-02-19 12:58:55.644,812,-50,637,4,-13,-13,-3,-7,8,458,52,g,4.488111732274859,51.80094482710822,1597.8670908356623,-98.39083071648164,20.500816672023575
2025-02-19 12:58:56.565,740,-30,642,0,-4,-5,-8,-10,10,641,78,h,2.675426656029148,49.02521938664505,1494.9982789202386,-60.608038334604274,-13.012020360531437
2025-02-19 12:58:56.654,752,6,623,2,0,-4,-4,-11,10,654,83,h,-0.5517882006375755,50.35839216788505,1522.050146385326,12.144017125414832,-14.953778188906767
2025-02-19 12:58:56.767,789,40,626,2,1,-10,-6,-12,9,643,91,h,-3.6561017173739376,51.51433707573702,1571.7639036744454,79.6838480950289,4.947777312797598
2025-02-19 12:58:56.874,817,78,531,-3,-3,-5,-6,-11,11,657,107,h,-8.356566706497162,56.69855242289202,1652.7934900473151,157.79423772789545,-12.214618378365003
2025-02-19 12:58:56.984,751,173,593,1,-17,67,-6,-12,11,584,114,h,-16.263914853972324,50.56167930957663,1523.3088788275545,350.9087031120732,-16.825785811903984
2025-02-19 12:58:57.089,830,-62,520,16,4,-56,-6,-11,11,680,115,h,6.799321441958474,57.7503895278413,1675.7314494858517,-125.17512032303952,-9.855847870654088
2025-02-19 12:58:57.197,838,186,525,-2,-7,45,-4,-10,11,634,121,h,-19.508508986808124,56.39008770082655,1670.8254902589674,370.8514811314653,3.241787128928763
2025-02-19 12:58:57.304,645,-133,658,-38,57,16,-4,-8,9,569,57,h,11.427101593945135,43.85507275133928,1337.8366105624305,-275.8639832632608,-48.80075930244857
2025-02-19 12:58:58.419,788,-43,619,2,-1,-3,-5,-8,10,601,77,i,3.973775349890368,51.7821826462341,1573.6645478026317,-85.87255781156492,1.8345747591004056
2025-02-19 12:58:58.515,771,-47,618,0,-1,-2,-4,-9,9,633,79,i,4.349074077149132,51.20520341381948,1550.394867810078,-94.51174939957676,-6.728960190179464
2025-02-19 12:58:58.626,778,-36,616,1,-3,-3,-4,-10,10,651,83,i,3.344650318265879,51.581195623577706,1561.4895554875025,-72.25401542101554,-4.346486092932423
2025-02-19 12:58:58.737,765,-20,609,11,-23,-20,-4,-10,11,691,109,i,1.8809587766815703,51.46241162087719,1547.1995933585388,-40.44966257146506,-13.69222530111108
2025-02-19 12:58:58.844,786,-107,662,-6,-2,-29,-5,-12,11,645,117,i,9.181393939477584,49.530187841754,1546.7480394304716,-210.56239213620927,21.268190708686802
2025-02-19 12:58:58.950,897,183,392,38,43,-101,-5,-9,11,663,117,i,-25.02489456442046,64.25257044577855,1797.71772882171,366.75846641513147,-1.6246930859646795
2025-02-19 12:58:59.060,806,126,471,-11,-3,-1,-4,-12,11,662,117,i,-14.976835939542092,58.82958477886133,1661.6316302988976,259.7587908407706,-29.003099095261405
2025-02-19 12:58:59.162,714,96,583,-34,88,47,-5,-9,9,665,52,i,-9.350727898220576,50.391477445359314,1484.4184195759235,199.58566985894768,-46.067140914234415
2025-02-19 12:58:59.274,799,-32,662,34,-55,-19,-4,-9,9,656,58,i,2.767430392267381,50.32418885984041,1568.669158433926,-62.825297959806804,24.301648456496878
2025-02-19 12:59:00.289,780,-29,613,-2,-2,0,-5,-10,9,673,80,j,2.708547615305317,51.80516680906684,1565.9126567071867,-58.21982954424156,-4.646741745519876
2025-02-19 12:59:00.384,785,-22,608,-3,-3,-2,-5,-9,10,691,83,j,2.072298445619098,52.223271649355894,1575.4038897524918,-44.15144659178958,-4.1854330821847725
2025-02-19 12:59:00.494,783,-11,599,-1,-6,-2,-6,-9,12,709,91,j,1.052057998782162,52.57911901013573,1577.1932145035591,-22.15724822418793,-8.562880571688083
2025-02-19 12:59:00.600,699,-72,617,9,-30,-14,-6,-11,11,732,111,j,6.655951956237368,48.373172489781325,1446.487139439815,-148.9943834616119,-42.79909160853538
2025-02-19 12:59:00.707,767,61,639,-8,-26,57,-4,-9,13,488,125,j,-5.453025874571487,50.07391972282323,1533.8730930037927,121.98990700551678,0.10572825368478789
2025-02-19 12:59:00.818,1409,-42,435,4,85,-75,-5,-9,11,378,103,j,5.514911591245051,72.76792451239633,2364.1126683094635,-70.4703563300195,140.1284522962266
2025-02-19 12:59:00.924,1006,713,839,-12,-43,-26,-5,-11,12,729,116,j,-40.35858912013996,42.417360280833044,1680.5261042094949,1191.0687001007652,276.44791110162396
2025-02-19 12:59:01.030,812,75,484,-21,87,62,-4,-11,9,671,64,j,-8.808420924265585,58.90275427777801,1668.291913996059,154.091001908503,-26.400598982872737
2025-02-19 12:59:01.137,657,-77,648,27,-50,-16,-3,-8,8,623,53,j,6.776519421666666,45.19431008972926,1366.5007574572946,-160.15305681006342,-51.78156899897522
2025-02-19 12:59:01.239,788,-29,595,-4,3,4,-6,-8,9,619,77,j,2.7903592675461404,52.91172330689856,1585.7073346989023,-58.35724962724386,-7.329776834831023
2025-02-19 12:59:02.062,781,-18,611,-3,2,-3,-5,-11,9,568,84,k,1.6874399825494708,51.95078778906982,1568.4816620545366,-36.14938529703157,-5.070800915904897
2025-02-19 12:59:02.153,778,4,624,0,2,-8,-5,-9,9,533,84,k,-0.3672756073380945,51.267840501173644,1558.079342508156,8.010690706982807,-1.6677502893176097
2025-02-19 12:59:02.264,778,0,626,2,0,-8,-5,-11,11,540,88,k,0.0,51.17889657749716,1557.10711872177,0.0,-0.8908178918095473
2025-02-19 12:59:02.364,772,20,619,-2,0,-3,-5,-9,8,515,91,k,-1.8505930230075232,51.26230235038598,1552.018861223985,40.20774251875608,-6.429630955500556
2025-02-19 12:59:02.479,863,21,488,-6,-1,-13,-5,-13,9,478,109,k,-2.4640768100662234,60.49045897137408,1733.2736843378327,42.176995795010995,-4.113045141207806
2025-02-19 12:59:02.587,850,276,517,2,-10,35,-6,-10,11,445,116,k,-28.095490359092775,55.41447370931022,1673.2797874822545,543.3237898177673,16.25217631961692
2025-02-19 12:59:02.695,798,-93,651,-6,-1,-11,-5,-9,10,724,103,k,8.13010235415598,50.50902686438608,1569.7247869833104,-182.9378511145963,21.435042197825965
2025-02-19 12:59:02.804,730,-47,627,-3,18,-5,-5,-9,12,523,120,k,4.28688157990014,49.261224538874586,1487.6928488499975,-95.78296424102726,-23.785501683491134
2025-02-19 12:59:02.910,615,-40,601,-49,-48,59,-4,-9,10,419,120,k,3.807747304828162,45.5963312533243,1329.4278775287871,-86.46685382301052,-97.16447869073318
2025-02-19 12:59:03.013,1060,60,584,5,71,0,-6,-9,11,521,108,k,-5.86597114172653,61.02040903774237,1934.7923432141195,109.51654772910112,102.03893543674923
2025-02-19 12:59:03.124,721,-58,688,2,-11,-15,-4,-9,9,430,60,k,4.818773527945205,46.24033596351796,1443.2473147925405,-116.10033877665376,-1.1902254885824277
2025-02-19 12:59:04.035,771,-12,628,-1,-1,-4,-6,-10,9,585,77,l,1.0946905918530325,50.831147194775085,1546.2879586456988,-24.06673865596418,-3.4926563287921226
2025-02-19 12:59:04.135,766,-4,631,2,-2,-5,-6,-10,10,601,79,l,0.363201344275157,50.51911067105208,1537.8367006194635,-8.030478854409733,-4.808039283135258
2025-02-19 12:59:04.241,777,-1,627,2,0,-6,-5,-11,11,609,83,l,0.09138075108799634,51.09817633451496,1555.2231607162666,-2.0015742094160442,-0.9870293038597993
2025-02-19 12:59:04.356,1338,-11,688,-10,-11,-17,-5,-13,10,630,108,l,0.915988196778321,62.78478097185575,2227.294926582105,-18.311094314202656,230.7242828935067
2025-02-19 12:59:04.458,771,72,648,6,-15,72,-6,-11,10,492,116,l,-6.34019174590991,49.78083392679657,1534.5800731556174,143.30708854371522,6.236203106562925
2025-02-19 12:59:04.564,884,20,577,5,12,-13,-5,-10,11,602,113,l,-1.9851941038027638,56.851168858685185,1721.252989289178,38.942375323284566,30.512471923240014
2025-02-19 12:59:04.675,555,-141,714,1,-12,-10,-5,-8,7,526,54,l,11.170977743588796,37.32854699981433,1161.3846610550186,-295.05448145722096,-66.10567205996972
2025-02-19 12:59:05.594,781,-33,638,2,-2,-3,-5,-11,9,623,85,m,2.96093613416375,50.71705894377702,1555.0287549115974,-65.70544034837735,5.694819931371285
2025-02-19 12:59:05.692,689,-45,623,11,-17,-14,-4,-12,11,649,102,m,4.131364512535777,47.805657746101225,1429.870922596202,-93.38779610570259,-46.9021549745047
2025-02-19 12:59:05.794,775,-74,610,-5,-2,-14,-6,-9,10,605,114,m,6.916837202186336,51.590252631029465,1558.5877740380838,-148.81999390815253,-6.75940924287886
2025-02-19 12:59:05.895,830,127,515,8,0,12,-6,-9,9,436,116,m,-13.852855682381533,57.41857302901194,1672.627000953165,255.93208327837584,-7.834825892626441
2025-02-19 12:59:06.015,686,-180,693,-8,-12,-23,-4,-11,9,732,116,m,14.560275619356874,43.774367222434286,1377.8202061492552,-361.52716779426515,-5.879596007920782
2025-02-19 12:59:06.118,839,79,515,2,-7,22,-6,-9,12,487,121,m,-8.721080206877518,58.15947297039271,1688.5197487136033,158.990536529648,-6.457295098338136
2025-02-19 12:59:06.224,696,-252,646,-5,-10,-23,-6,-9,9,703,0,m,21.31040250690726,45.10672835438292,1404.4227247062186,-508.49788308328596,-11.530287586518853
2025-02-19 12:59:06.331,843,21,506,15,0,19,-6,-9,12,577,0,m,-2.376524255790069,59.004490514477816,1700.2076637988926,42.35392756794394,-8.527969018077783
2025-02-19 12:59:06.437,563,-163,696,-26,50,19,-3,-8,10,635,0,m,13.180855956164459,38.22387928345504,1181.7358648824547,-342.13667136028437,-68.90259672857599
2025-02-19 12:59:06.544,865,-15,589,7,-13,-7,-4,-8,9,529,65,m,1.458830162060979,55.739436779883356,1691.4859746916402,-29.33212672875677,26.225157117484287
2025-02-19 12:59:07.363,780,-35,622,-2,0,1,-5,-9,9,509,72,n,3.220642706328573,51.385729949370635,1561.365065123338,-70.06125292220108,-1.088551931687448
2025-02-19 12:59:07.461,781,-35,620,-2,-1,-1,-4,-10,10,612,75,n,3.231009900368214,51.51115996730608,1563.7293942702972,-70.07750166384173,-1.3728866166248963
2025-02-19 12:59:07.568,781,-43,628,5,-6,-5,-5,-8,11,664,83,n,3.9170048991635773,51.13187891167628,1559.592421650018,-85.86744446984733,1.9359272775785712
2025-02-19 12:59:07.677,721,-4,601,3,-17,-15,-6,-9,12,679,101,n,0.38133067242307417,50.185989240251,1489.1269721108565,-8.261453382029716,-39.28337064996492
2025-02-19 12:59:07.784,752,-176,686,0,-5,34,-5,-11,9,608,118,n,14.389432155674632,46.71741693817456,1479.9812010921478,-346.37857897901335,21.91076602498231
2025-02-19 12:59:07.891,863,83,497,25,-12,-68,-5,-8,11,631,0,n,-9.48101577327197,59.720472006360644,1726.5757651852286,166.05537486717725,-0.3315820359889585
2025-02-19 12:59:07.998,802,82,662,-21,-29,6,-4,-10,12,752,0,n,-7.061093973586118,50.24819012324719,1570.8216328934873,160.60769812626677,27.386632200139047
2025-02-19 12:59:08.104,951,-43,558,26,-7,2,-5,-8,10,683,0,n,4.406557318700397,59.52359782534615,1812.8381219797807,-81.96849552589966,52.315802245302166
2025-02-19 12:59:08.210,491,-162,730,-7,0,-3,-4,-8,9,647,0,n,12.512185783446345,33.29003936251329,1039.877508003006,-343.0960413370406,-86.05006281505973
2025-02-19 12:59:09.030,777,-30,605,1,-2,-1,-5,-8,9,681,0,o,2.8387878410053813,52.06028956377239,1565.65814787613,-60.450121539618934,-9.077451048981743
2025-02-19 12:59:09.124,789,-29,603,8,-8,2,-5,-8,9,716,98,o,2.7533969261052382,52.578883651116165,1583.1907183354563,-58.190786858971144,-3.967050895158536
2025-02-19 12:59:09.234,717,-6,579,6,-13,-4,-6,-8,12,755,108,o,0.5937173962125847,51.0765333626787,1494.9858883756883,-12.51034216213965,-49.248018646476226
2025-02-19 12:59:09.341,749,-24,616,-4,8,-25,-5,-11,9,704,0,o,2.2311746080312513,50.54377920701815,1521.1103799278076,-48.740519517045904,-19.00666760417812
2025-02-19 12:59:09.447,936,241,564,-47,-49,93,-4,-9,9,420,0,o,-23.13725915245214,56.76437796077232,1772.4237197285713,456.3612355284035,60.00109195842515
2025-02-19 12:59:09.557,815,-110,584,24,7,-50,-4,-11,11,703,0,o,10.66703651779442,53.901786445849375,1623.008254271786,-219.05632879741893,5.010036202794026
2025-02-19 12:59:09.661,792,57,592,-53,51,67,-4,-9,9,542,0,o,-5.499701142044431,53.09595974011116,1591.6423173637575,114.55001526481588,-5.7124392415965985
2025-02-19 12:59:10.579,761,-37,619,1,-3,-4,-5,-9,10,458,70,p,3.4207180141744953,50.824950402836656,1536.219642920232,-74.69136240216633,-11.566306133539342
2025-02-19 12:59:10.677,775,-16,614,7,-7,-2,-6,-9,11,474,79,p,1.4927118137042579,51.60222483735127,1558.7175763611538,-32.17997577003672,-6.906570175159231
2025-02-19 12:59:10.783,792,-11,622,-2,-4,-3,-5,-9,10,615,88,p,1.0131637973214966,51.85120388961371,1578.409236314376,-21.92235050436633,4.3907260258311
2025-02-19 12:59:10.890,805,11,593,1,-8,-13,-5,-9,10,691,109,p,-1.0627003388295968,53.61822598166903,1610.0825251884644,22.001127673382747,-0.060791846906226965
2025-02-19 12:59:11.004,743,-230,545,15,10,-19,-5,-11,10,706,116,p,22.880637176417697,51.47470739939187,1525.33327827207,-472.1758465714349,-28.851462527965168
2025-02-19 12:59:11.103,859,66,597,14,2,12,-6,-7,11,582,0,p,-6.3085890025548705,55.03766283145407,1678.5289022579293,128.9672963318083,27.432183180461266
2025-02-19 12:59:11.214,870,-57,633,-20,-29,-25,-4,-10,11,778,115,p,5.145458167938817,53.85074786862176,1677.4831052610186,-109.90406551710123,45.48643031008635
2025-02-19 12:59:11.319,810,58,568,13,14,36,-5,-9,10,552,0,p,-5.8304168307375175,54.82071915741223,1627.3532929244861,116.52653208595086,-5.1563831865533984
2025-02-19 12:59:11.425,601,-73,640,-34,41,16,-3,-7,7,614,59,p,6.5071770868883805,43.01524766928726,1283.1929652437384,-155.8620407034823,-86.46172671546162
2025-02-19 12:59:12.344,772,-27,619,-2,-2,-1,-4,-9,8,677,84,q,2.4975865421810974,51.250312929544734,1551.8879016567341,-54.27587220820185,-6.324625810257089
2025-02-19 12:59:12.441,783,-21,624,2,-5,-1,-5,-10,10,688,90,q,1.927495886671903,51.431630923639204,1564.8647746253985,-41.96955334244364,0.9047006816748535
2025-02-19 12:59:12.544,784,-6,610,0,-3,-2,-5,-9,10,714,96,q,0.5635468708140111,52.113555543832184,1573.229395791559,-12.04002088615989,-4.0687900929222
2025-02-19 12:59:12.659,804,40,628,-1,-2,-6,-7,-10,10,742,117,q,-3.6444895127715586,51.950517780158144,1591.4787575251403,79.17804763806666,12.904652082353323
2025-02-19 12:59:12.761,805,-9,541,22,17,10,-5,-9,10,411,0,q,0.953076623625031,56.09326792849625,1634.9467460932563,-18.278907720297276,-16.76545296453628
2025-02-19 12:59:12.864,728,5,625,2,-10,-31,-5,-8,12,697,0,q,-0.4583564580004315,49.352460035167454,1486.7310798530139,10.21106510888059,-26.38313861007373
2025-02-19 12:59:12.979,740,-165,755,-9,-10,69,-5,-9,11,661,0,q,12.327770711316907,43.75720490217627,1431.6038870521036,-319.2089748156718,49.377115237380735
2025-02-19 12:59:13.084,875,97,467,18,-25,-3,-6,-8,11,605,0,q,-11.733988888517722,61.40494603382013,1753.0242950278237,194.33526470594157,-1.6141094605641229
2025-02-19 12:59:13.188,560,-167,714,-44,65,38,-4,-6,9,594,0,q,13.16445965596823,37.36905361610074,1166.9466748725436,-348.0001691137764,-59.85701046249312
2025-02-19 12:59:14.204,759,-68,632,-1,-3,-6,-3,-5,10,524,59,r,6.141110616876804,50.05448265545609,1525.6553245383368,-136.68585252780883,-6.374394081988157
2025-02-19 12:59:14.305,768,-73,628,0,-5,-7,-5,-7,8,597,64,r,6.630421159787973,50.538299418858976,1540.0495980622527,-146.38492273247977,-3.311390082154503
2025-02-19 12:59:14.414,754,-69,634,5,-11,-11,-4,-8,8,641,72,r,6.211214451444406,49.77499433740615,1517.5142580656566,-138.87066817842214,-8.000052537965644
2025-02-19 12:59:14.522,808,-30,604,3,-5,-6,-5,-7,11,663,89,r,2.8434801138311885,53.18711959211643,1608.5966869008862,-59.72512451364676,5.534159791911748
2025-02-19 12:59:14.629,783,-27,618,3,2,-13,-6,-8,11,650,93,r,2.501622814281763,51.69038475001047,1567.672349547365,-54.0576672257712,-1.319938723207315
2025-02-19 12:59:14.739,810,-5,551,-8,-1,-13,-5,-11,10,636,114,r,0.519911133563117,55.773528059371344,1636.8207908269276,-10.10383204214153,-11.44229104399642
2025-02-19 12:59:14.846,830,173,544,-8,-17,38,-3,-8,11,583,118,r,-17.641429208309628,55.48112527203854,1653.9395548826208,344.73679878878715,3.9721471612704136
2025-02-19 12:59:14.944,803,-173,663,-1,-13,-44,-4,-11,12,745,0,r,14.624391872799462,49.52590082535444,1563.6994739248335,-336.8866861631335,34.92559002221094
2025-02-19 12:59:15.059,800,59,531,-31,56,31,-7,-9,11,768,0,r,-6.34019174590991,56.263627701794825,1631.6017301988877,120.33062760216797,-20.9756484195118
2025-02-19 12:59:15.159,745,-42,658,6,-5,-3,-3,-9,9,674,0,r,3.6522227803063356,48.49056492464577,1493.8465949172794,-84.21685501547077,-3.397395242375296
2025-02-19 12:59:15.269,746,-40,651,-5,4,1,-3,-8,9,647,0,r,3.5160576590323074,48.83680165100301,1498.8378364717655,-80.36664002529574,-5.967066411688165
2025-02-19 12:59:16.189,752,-36,617,-2,-1,-2,-5,-9,11,579,0,s,3.3392417678464827,50.58409914698858,1524.5573919090482,-72.98413046373102,-16.866902670056675
2025-02-19 12:59:16.288,780,-17,628,-2,-4,-1,-6,-8,10,632,0,s,1.5506217156415276,51.15122687472554,1558.804285119233,-33.973939547470465,0.9627037757968537
2025-02-19 12:59:16.390,852,13,589,1,-4,-5,-6,-9,9,681,0,s,-1.26438747098385,55.33680392040651,1674.5095478596904,25.55002831241311,20.387178768359604
2025-02-19 12:59:16.496,797,-14,604,0,-5,0,-6,-9,11,706,0,s,1.3278101117469612,52.836218570744656,1593.9119460946658,-27.998453256368038,0.06673093955032527
2025-02-19 12:59:16.607,868,23,643,-6,-8,-4,-4,-9,12,757,0,s,-2.048586820248758,53.452043557453514,1671.358713722448,44.28715485670081,47.88519248440775
2025-02-19 12:59:16.714,811,-30,512,15,13,-16,-7,-13,10,630,0,s,3.353340494317912,57.69065102423494,1656.1746314785837,-61.26416639254935,-21.575106432842176
2025-02-19 12:59:16.820,773,94,668,-1,-18,21,-5,-9,10,654,0,s,-8.009985591946036,48.889459221811514,1526.442441381211,185.62171990922877,16.900969155693474
2025-02-19 12:59:16.927,1178,56,550,8,50,4,-6,-7,10,589,0,s,-5.813717179334884,64.85900953417848,2083.2650871381074,99.0346730727793,127.33803232091765
2025-02-19 12:59:17.037,505,-135,731,-16,4,1,-3,-7,6,509,41,s,10.463407359710969,34.190096641584404,1066.9404117127428,-285.2216942202383,-82.42265537032722
2025-02-19 12:59:18.158,786,-36,495,-6,10,-23,-4,-9,10,239,49,t,4.1596422937126425,57.73028029339515,1631.5441154771665,-74.72721139590077,-37.49915669363554
2025-02-19 12:59:18.254,718,-30,642,-11,22,-11,-4,-9,9,346,65,t,2.675426656029148,48.16744530809094,1463.0971645780867,-61.132193506048196,-24.228941029431326
2025-02-19 12:59:18.361,686,-55,624,2,-18,-18,-5,-8,9,559,67,t,5.037091564999361,47.5993118471712,1424.4472418418004,-114.20495379198108,-47.707112112658024
2025-02-19 12:59:18.459,827,-4,637,-8,4,-8,-6,-12,9,659,79,t,0.3597803858618703,52.39405015836353,1619.2262789697897,-7.831807878934896,26.784595279617747
2025-02-19 12:59:18.575,682,-65,638,11,-36,-30,-6,-12,11,717,101,t,5.817272510602639,46.76154392155692,1410.5090053827578,-134.4326764660986,-43.50842439032181
2025-02-19 12:59:18.684,744,-286,713,29,9,37,-5,-11,12,621,113,t,21.85680785392105,44.08234492757076,1439.6914807350831,-553.429789637411,46.295664295545635
2025-02-19 12:59:18.787,751,25,596,-6,-7,-24,-4,-10,10,758,118,t,-2.40193838534025,51.53965948626145,1534.0388668785115,51.0665401757161,-25.42631778907173
2025-02-19 12:59:18.897,913,68,596,10,10,-23,-5,-11,9,258,111,t,-6.508956440502567,56.69396164238463,1748.749495639228,130.24640274202355,50.428587731675975
2025-02-19 12:59:19.004,708,19,628,-6,-41,8,-5,-11,11,734,119,t,-1.7329424147265524,48.41378100189316,1455.9577589598898,39.07231274044902,-35.44275794747273
2025-02-19 12:59:19.114,1257,144,636,-14,91,29,-5,-11,11,688,0,t,-12.75753216087668,62.58091693872163,2144.662060720273,245.68920981998355,186.872656628406
2025-02-19 12:59:19.214,566,-115,716,2,-23,11,-4,-7,7,459,42,t,9.124604453460288,37.97202413945269,1181.2766392492542,-240.01203801000753,-62.33581926230738
2025-02-19 12:59:22.833,750,-27,628,-2,0,0,-3,-9,8,652,86,u,2.461837461746976,50.03339576695184,1516.4189720729876,-54.591082994627556,-13.748152615781578
2025-02-19 12:59:22.926,772,-19,635,-2,0,0,-6,-9,11,657,86,u,1.7138505690048536,50.5487972167708,1544.1660335477382,-38.00408631788475,-0.1365690450954844
2025-02-19 12:59:23.038,763,-16,635,-2,0,-1,-5,-9,11,664,85,u,1.4433677805554912,50.222439398651694,1531.5341581178964,-32.11605049788511,-4.605754134815356
2025-02-19 12:59:23.141,762,-17,642,-2,0,0,-5,-10,9,671,83,u,1.5168235077612233,49.8753077948605,1526.6437381944766,-34.058981035834776,-2.227401470936911
2025-02-19 12:59:23.250,755,-16,634,-4,3,0,-5,-9,9,662,79,u,1.4456434205562043,49.969657942834715,1520.7039354562398,-32.22683836728456,-8.988470303650388
2025-02-19 12:59:23.357,754,-43,645,-9,8,4,-8,-8,8,699,69,u,3.8140748342903548,49.39230905361412,1513.1839455506852,-86.29563615209477,-4.4345422814216136
2025-02-19 12:59:23.468,733,-49,663,-1,-4,-1,-5,-10,8,714,65,u,4.22684497201581,47.79294727111155,1473.72190634351,-98.51619837766982,-6.984480089695694
2025-02-19 12:59:23.574,722,-55,661,3,-8,-1,-6,-10,9,721,70,u,4.756468061176448,47.42704850998789,1458.416548452011,-111.0982135247377,-13.19852981548388
2025-02-19 12:59:23.681,791,-6,624,5,-13,-3,-5,-10,9,729,88,u,0.5509039792185729,51.7296921374729,1576.0974504761875,-11.95522718439586,4.656372822830576
2025-02-19 12:59:23.787,759,-28,625,1,-3,-2,-7,-9,9,726,94,u,2.565135729697141,50.50199707199861,1530.6467537318047,-56.46654690973719,-10.413993520919576
2025-02-19 12:59:23.898,709,-28,617,4,-24,-18,-5,-9,12,728,114,u,2.59834989699989,48.93972396294882,1463.0189785773814,-57.77790042336625,-39.17730575774908
2025-02-19 12:59:24.000,779,-103,616,3,2,-23,-6,-8,11,688,0,u,9.492485816459325,51.279616001592245,1559.207916694509,-206.1597117067194,-0.9551690421277499
2025-02-19 12:59:24.107,876,92,545,17,-16,1,-4,-7,9,713,119,u,-9.581617233912247,57.75019857287328,1721.7296710736393,180.820924359332,18.8325676539572
2025-02-19 12:59:24.217,790,-109,573,-9,-7,-33,-4,-9,11,757,0,u,10.770512693513151,53.56069209091464,1594.4864914965092,-219.99876907989807,-10.507290667721122
2025-02-19 12:59:24.322,905,6,589,10,-12,15,-4,-8,11,740,0,u,-0.5836380078949758,56.941406297110085,1743.1131527307593,11.556551288822716,43.53188181390351
2025-02-19 12:59:24.430,524,-153,695,-26,24,0,-5,-6,9,569,49,u,12.415281698036345,36.3651645059439,1116.9294062991635,-326.12633428200763,-91.42354461434854
2025-02-19 12:59:24.537,824,-1,605,7,-17,-10,-4,-9,9,610,64,u,0.09470368154509652,53.712979854970875,1630.0623769461786,-1.9782310399832264,13.170220810147953
2025-02-19 12:59:24.647,758,-47,637,-1,-2,-2,-5,-8,10,610,68,u,4.219828622595397,49.88070984678728,1522.7044961606107,-94.41571414188483,-5.634253369800831
2025-02-19 12:59:24.750,772,-48,634,0,-3,2,-5,-8,9,608,71,u,4.329591058586769,50.525340835738206,1543.9058332321683,-95.99414507143015,0.07733384819357525
2025-02-19 12:59:24.860,776,-44,624,0,-1,-3,-4,-10,8,619,75,u,4.033411072770194,51.12700737784922,1554.539063537813,-88.14396752018527,-2.0417211953547394
2025-02-19 12:59:24.967,771,-45,618,2,0,-1,-6,-8,10,613,78,u,4.1646726518659225,51.21190570369193,1550.4681524480075,-90.49425014287982,-6.787701962216033
2025-02-19 12:59:25.073,778,-31,618,-1,-2,0,-6,-9,11,619,80,u,2.8716531930257205,51.503253332997645,1560.6435028262345,-62.18502389153377,-3.688540805415073
2025-02-19 12:59:25.183,782,-19,625,-2,-1,-2,-5,-11,10,627,79,u,1.7412554297861516,51.354100524966206,1563.0204336484298,-37.97619979452706,0.7829014958201697
2025-02-19 12:59:25.284,768,-42,619,-2,1,1,-5,-9,9,613,78,u,3.8816478247946833,51.067239727533824,1545.8839679938978,-84.54052949966629,-7.966375245081736
2025-02-19 12:59:27.208,758,-23,632,-1,-1,0,-3,-9,9,608,81,v,2.084211426357826,50.160912059638214,1525.8466535190832,-46.29877708567139,-8.209874701926765
2025-02-19 12:59:27.301,764,-30,639,-2,0,0,-6,-8,9,609,80,v,2.687968965603574,50.06026918820283,1530.720164754787,-60.10681275215132,-2.275111620823054
2025-02-19 12:59:27.408,774,-32,639,-1,0,0,-5,-10,9,611,79,v,2.866877266339404,50.42232131228771,1544.7615121862982,-63.86610903095807,2.6736352880560617
2025-02-19 12:59:27.514,755,-33,635,-2,2,0,-4,-11,8,614,77,v,2.974899740148437,49.89609866038659,1519.8775399804767,-66.4317335355705,-8.30759985112934
2025-02-19 12:59:27.621,770,-30,632,-6,6,2,-5,-9,9,615,72,v,2.7176963827077487,50.589937969530894,1542.6220930268164,-60.10215946857724,-2.152159471360733
2025-02-19 12:59:27.732,743,-42,647,-6,10,5,-4,-9,9,667,62,v,3.714143854084439,48.89117445111015,1496.462124640911,-84.5913987011013,-9.110356181251063
2025-02-19 12:59:27.839,722,-74,668,-3,-2,0,-5,-8,7,692,55,v,6.321363031663913,47.05053519598236,1453.9549434129585,-149.02031275977686,-9.210390858526466
2025-02-19 12:59:27.945,697,-113,669,9,-11,-1,-6,-8,9,701,58,v,9.587270402397412,45.7715651022334,1413.5645284765806,-229.17186760093773,-18.778578982542854
2025-02-19 12:59:28.051,809,-9,616,0,-3,0,-5,-9,9,717,74,v,0.837054104945107,52.71017905850872,1604.5811270399713,-17.850717111693125,10.217584355225881
2025-02-19 12:59:28.157,742,-59,653,9,-15,-8,-6,-8,8,728,83,v,5.162782526245367,48.5349376492904,1491.3596319963822,-118.58519984876892,-6.47687290247643
2025-02-19 12:59:28.268,702,-6,613,8,-11,-30,-6,-11,12,716,111,v,0.5607890692212485,48.87054873770228,1455.2253877567243,-12.437823826980548,-44.73100098984628
2025-02-19 12:59:28.374,1008,-86,696,-5,-22,6,-5,-10,9,725,0,v,7.043947029796928,55.17261130328251,1828.8763011503822,-156.0350812489413,129.20445872949824
2025-02-19 12:59:28.481,919,81,491,13,-32,-44,-5,-7,10,665,0,v,-9.367681099000658,61.564555562791284,1798.3541729058838,158.5056452724446,21.18182927444076
2025-02-19 12:59:28.584,893,69,579,0,6,9,-4,-11,11,791,0,v,-6.795944016018951,56.856907061025865,1730.30774897112,133.6967913538715,36.10953342186076
2025-02-19 12:59:28.694,653,-102,670,0,-3,4,-3,-8,10,642,0,v,8.656175696070408,43.93578494241018,1346.851724058782,-210.38112688207625,-41.915245205794804
2025-02-19 12:59:29.517,789,-33,616,-1,-1,-2,-5,-9,10,634,0,w,3.0664855011258934,51.979761681132516,1576.7932372430446,-65.94952703297905,0.942162051057835
2025-02-19 12:59:29.607,782,-24,607,0,0,-2,-4,-10,8,646,0,w,2.264222094205459,52.15917709149965,1571.7181191538275,-48.23687322211235,-5.990918575924866
2025-02-19 12:59:29.714,782,-18,604,1,-2,-1,-5,-9,9,664,0,w,1.7069849023547188,52.30596940911756,1573.2872411336366,-36.21377281381773,-7.173265530328081
2025-02-19 12:59:29.824,806,-13,609,0,-1,-1,-6,-9,12,686,0,w,1.2228768959372707,52.91964350216926,1603.7906880587875,-25.86759174288367,6.202817583372621
2025-02-19 12:59:29.931,795,-1,601,-10,17,2,-5,-10,9,687,0,w,0.09533398775028315,52.91159851008761,1592.7060211959774,-2.003403800246512,-2.045683948153851
2025-02-19 12:59:30.037,749,-31,616,2,-8,-2,-5,-9,8,701,0,w,2.880961060460356,50.52954538673939,1520.9524835977904,-62.949969281083455,-18.876808940239016
2025-02-19 12:59:30.144,752,-37,639,1,0,2,-6,-7,10,714,0,w,3.3138957428443088,49.596989117470685,1513.5042479053207,-74.46762921874583,-8.076082994015906
2025-02-19 12:59:30.251,792,-12,605,2,-5,-2,-5,-9,8,716,0,w,1.136296216836178,52.61875655857534,1586.6134107686512,-24.039597132858354,-1.996355448275267
2025-02-19 12:59:30.357,783,-4,618,-4,3,-8,-5,-9,9,712,0,w,0.37084129082806133,51.71637153466887,1567.953432408835,-8.009979220479362,-1.5417895640613324
2025-02-19 12:59:30.468,683,-10,588,1,-16,-27,-4,-11,9,677,0,w,0.9743240911534933,49.270487879320655,1440.7983503993723,-21.095144222538394,-64.39448028525737
2025-02-19 12:59:30.574,728,-89,738,-24,-37,75,-6,-9,9,663,0,w,6.876446196842209,44.402387403344655,1427.6931105885492,-174.53940500327042,28.69572030995971
2025-02-19 12:59:30.681,797,-40,507,28,0,-45,-5,-8,10,682,0,w,4.511032934455288,57.4575538603649,1639.9931694896186,-82.30831465443505,-29.257888244964192
2025-02-19 12:59:30.788,767,145,538,-8,-26,62,-5,-11,11,583,0,w,-15.083763978503208,54.00296629664029,1576.0474238989495,297.9489914802447,-29.493499423252615
2025-02-19 12:59:30.902,769,-218,581,9,-4,-25,-6,-10,11,750,134,w,20.566851665987407,51.09786125119096,1547.219707247823,-438.61364912877167,-6.965734604662089
2025-02-19 12:59:31.004,574,-47,627,-21,41,23,-5,-7,11,670,72,w,4.28688157990014,42.39324359306694,1248.2153030998206,-102.20578265799926,-109.46863248011789
2025-02-19 12:59:31.921,812,-3,580,-2,-1,-1,-5,-10,9,704,0,x,0.2963548373798868,54.461959705850944,1625.729793779808,-6.006390863718503,-1.2355669855770657
2025-02-19 12:59:32.016,815,-22,583,1,-3,-1,-4,-9,11,714,0,x,2.1610794882263713,54.403148823131446,1628.1327517439781,-43.94959575259818,1.3357125561482235
2025-02-19 12:59:32.122,813,-5,581,0,-3,-1,-6,-9,12,723,0,x,0.493066825481727,54.4479877807127,1626.5880298541488,-10.003616419767212,-0.4202279769500592
2025-02-19 12:59:32.233,765,-5,557,3,-11,-13,-6,-10,11,733,0,x,0.5143109570421978,53.94036740679111,1573.4047981797637,-10.283691491371005,-31.603232138729936
2025-02-19 12:59:32.342,808,-59,629,-12,-14,-14,-6,-10,12,706,0,x,5.358646800031588,51.97877160611277,1595.7825936435295,-116.52372899129732,15.738550245321903
2025-02-19 12:59:32.444,947,130,457,15,23,29,-4,-10,13,422,0,x,-15.879138885631567,63.35608344197344,1840.8107720063992,252.69841643171264,25.66787454390237
2025-02-19 12:59:32.555,824,-3,854,-6,-9,-26,-4,-11,10,537,0,x,0.20127240221974735,43.97557407812454,1518.3516436084437,-5.5279792849822,134.36856354173392
2025-02-19 12:59:32.663,746,131,575,-8,-24,35,-5,-10,12,580,0,x,-12.83441040347436,51.672644529062055,1530.4803719159372,268.7572771058817,-29.65980409070221
2025-02-19 12:59:32.769,761,-17,508,-46,90,25,-4,-9,10,527,0,x,1.9166631859864653,56.26038933649199,1592.5703391434947,-35.57647275353405,-47.108715223252716
2025-02-19 12:59:32.874,693,-39,649,11,-30,-14,-5,-5,7,515,0,x,3.4389083229029143,46.82635325602596,1422.2834084868093,-80.04192342133558,-33.979700011456316
2025-02-19 12:59:33.794,746,-15,625,5,-11,-2,-4,-11,8,647,91,y,1.3748347805694054,50.035549805279175,1512.4431203804224,-30.41105469933825,-17.127279139093616
2025-02-19 12:59:33.888,799,2,606,0,0,-2,-3,-9,10,685,0,y,-0.18909429534375977,52.82142178095869,1595.7559102322716,3.994382754023208,1.7020255309679442
2025-02-19 12:59:33.999,837,-17,641,5,-8,-17,-5,-10,11,695,0,y,1.5191887390230623,52.54428789169548,1630.823657272226,-33.12306113934032,33.065753510756394
2025-02-19 12:59:34.104,762,-165,663,16,7,15,-4,-11,9,637,0,y,13.975225621438183,48.120011718462074,1506.5447549550568,-326.22032095483513,15.187437617844466
2025-02-19 12:59:34.211,784,59,602,4,-13,-21,-5,-9,9,804,0,y,-5.597490906688871,52.34851788419419,1575.7410883825305,118.58255639613431,-5.944050008014528
2025-02-19 12:59:34.321,846,-115,572,-8,-8,19,-4,-9,10,763,0,y,11.367709711087945,55.4078250057205,1669.2139124782307,-226.90260039597695,15.406196291314586
2025-02-19 12:59:34.424,751,4,483,16,20,35,-3,-8,12,470,0,y,-0.47448836190715915,57.25231351469734,1592.060855988737,8.479684985292874,-57.921961974114424
2025-02-19 12:59:34.534,566,-78,659,-43,63,13,-5,-6,6,288,43,y,6.750189493760835,40.46163820244923,1214.9387808373444,-167.42972598111817,-96.56653104560087
2025-02-19 12:59:35.550,761,-53,616,3,-6,-6,-6,-9,10,678,0,z,4.917558793983186,50.90780425433459,1537.1323041772098,-107.05389240655995,-12.249013630960803
2025-02-19 12:59:35.650,791,-30,623,3,-5,-6,-5,-10,7,744,0,z,2.7568967041552193,51.743399256111886,1576.245603128165,-59.781754859475285,4.532224084896484
2025-02-19 12:59:35.752,760,0,627,9,2,-11,-6,-8,11,745,0,z,0.0,50.47736872882888,1531.373278540077,0.0,-9.382954795563705
2025-02-19 12:59:35.866,881,46,492,-11,-12,-15,-3,-11,9,454,114,z,-5.341394674311778,60.71228792268375,1753.1742076409887,91.5391754273388,4.928819342376244
2025-02-19 12:59:35.969,681,-4,707,19,-25,3,-4,-10,11,771,0,z,0.3241593673845391,43.926403448217286,1374.7338041210896,-8.074794737862492,-13.219969917195613
2025-02-19 12:59:36.074,818,-4,516,9,18,-7,-3,-9,12,230,0,z,0.4441444331119283,57.75521360276006,1663.776374206831,-8.135825790742452,-17.52152700577608
2025-02-19 12:59:36.181,818,-11,551,12,-5,9,-3,-9,11,647,0,z,1.1436839665997638,56.03073379610427,1647.3374076621003,-22.152459027240962,-7.636811273615308
2025-02-19 12:59:36.291,624,-189,676,33,8,-38,-5,-9,9,535,0,z,15.620237433619595,41.63662832726475,1288.4041329864594,-390.23779027955266,-43.77114406866451
2025-02-19 12:59:36.398,727,5,595,-12,-69,10,-6,-10,11,721,0,z,-0.48146580583835247,50.70101928075472,1500.851477326378,10.322224740896685,-38.34474416670548
2025-02-19 12:59:36.505,929,-39,434,28,58,11,-4,-9,12,718,0,z,5.134907030629473,64.87100717678247,1834.3540295947582,-77.00732739956467,11.046664322792992
2025-02-19 12:59:36.604,573,-81,690,3,0,2,-2,-6,7,590,0,z,6.695382776904855,39.51483211852243,1209.2779488809592,-170.94505036537123,-76.19857718649553
2025-02-19 12:59:42.530,780,-36,604,-1,-1,-3,-5,-9,10,569,76,0,3.4109449553557223,52.19807944564691,1570.1344672892353,-72.46774464411854,-7.8477156957667376
2025-02-19 12:59:42.624,777,-26,603,-1,-2,-1,-4,-7,11,583,0,0,2.4689355139242797,52.160552265925524,1566.7328430141683,-52.42606681900692,-9.881472763891225
2025-02-19 12:59:42.731,777,-24,603,-1,-1,-1,-5,-9,9,593,0,0,2.279226021426703,52.16436260490972,1566.77363757062,-48.394552511833815,-9.913131859824489
2025-02-19 12:59:42.837,776,-36,609,-1,1,0,-5,-9,9,585,0,0,3.3830057913306155,51.82685237213363,1562.146631564712,-72.47072002104335,-7.963013689316654
2025-02-19 12:59:42.937,783,-29,605,-2,0,0,-5,-7,11,580,0,0,2.7443087252172758,52.27602761040046,1573.967602563322,-58.29509639123413,-6.156321265401743
2025-02-19 12:59:43.054,798,-24,615,-1,-1,-1,-4,-8,9,577,0,0,2.234798858738865,52.358316303754435,1589.8455422889224,-47.81490352748639,4.743097108161351
2025-02-19 12:59:43.161,782,-28,606,-1,-1,-1,-6,-9,8,573,0,0,2.645448257000533,52.197020213232946,1572.1231357947663,-56.29085396707603,-6.294910858859794
2025-02-19 12:59:43.267,788,-32,611,-1,-1,-1,-4,-9,11,576,0,0,2.9980218195571067,52.1726841331203,1577.86271803838,-64.07564337211696,-1.4443156363581693
2025-02-19 12:59:43.374,782,-21,611,-2,-2,-3,-6,-8,8,581,0,0,1.9684745092731453,51.9820142168013,1569.817451791806,-42.15622312995898,-4.545349162139928
2025-02-19 12:59:43.480,799,-31,605,-6,-2,-6,-5,-9,9,588,0,0,2.9332515087503372,52.83096478573092,1595.8565496978672,-61.916837347476715,1.623013057309322
2025-02-19 12:59:43.587,769,-65,621,2,-9,-2,-3,-9,11,648,0,0,5.975384496302753,50.924995299530536,1545.3214657054605,-130.6188495069635,-5.912392981912831
2025-02-19 12:59:43.697,795,-21,593,1,-3,-6,-6,-8,11,714,0,0,2.0281766760193833,53.26309354704163,1596.3905242000496,-42.16880629962395,-4.766768365571579
2025-02-19 12:59:43.800,792,-7,596,1,-3,-5,-5,-9,11,727,0,0,0.6729060676707775,53.03571676764326,1591.0105114060011,-14.061961590709606,-5.275586866132244
2025-02-19 12:59:43.906,777,4,598,-5,1,-4,-5,-9,12,681,0,0,-0.3832436456347507,52.416536663718404,1569.4657099803567,8.07961755459643,-11.902824412166296
2025-02-19 12:59:44.017,827,29,558,0,3,-8,-5,-10,11,694,0,0,-2.9750610063346827,55.9555233083399,1655.603241098089,58.05622006268994,-1.081751551068578
2025-02-19 12:59:44.122,793,40,590,-2,-3,-7,-6,-11,11,775,0,0,-3.878524502847706,53.287443118744534,1594.644650107121,80.43604792469714,-6.43170688928285
2025-02-19 12:59:44.234,749,37,608,7,-21,-22,-3,-11,10,817,0,0,-3.482455045573152,50.880241908453854,1524.828876316873,75.3253249982968,-21.7783134855257
2025-02-19 12:59:44.340,675,25,561,6,24,-20,-5,-11,12,709,0,0,-2.5515996886778245,50.24171245288229,1443.7493323865756,53.472197495799094,-77.9161118057317
2025-02-19 12:59:44.451,849,313,535,-15,-28,46,-7,-8,12,507,0,0,-30.32962880582626,53.86774500685959,1656.6580643570865,610.7585090032605,26.051749786759274
2025-02-19 12:59:44.553,725,27,468,4,21,-53,-5,-12,13,708,0,0,-3.3018656744350037,57.1136702538578,1564.7494371375092,58.273427314086554,-74.07274011083337
2025-02-19 12:59:44.660,627,18,618,-50,61,63,-4,-8,9,522,57,0,-1.6683374482933075,45.402034004670845,1339.0509720308291,38.44165469944964,-83.83014468110423
2025-02-19 12:59:45.574,804,26,598,-2,-1,-2,-5,-9,12,614,80,1,-2.489552921999156,53.332914826116664,1606.1188308909022,51.939166173088864,1.3991780189559222
2025-02-19 12:59:45.675,793,7,611,2,-2,-1,-5,-10,10,680,81,1,-0.6563877423259966,52.38422531640105,1585.121628060483,13.992246401542726,0.6767783796278763
2025-02-19 12:59:45.782,783,9,597,-1,0,-2,-4,-11,11,707,82,1,-0.863690044599587,52.67307586892212,1578.1886301583513,18.140099197222426,-9.29324674908753
2025-02-19 12:59:45.889,776,-6,611,0,-3,-2,-6,-12,10,740,86,1,0.5626245948484775,51.78278281674959,1561.671028117065,-12.074775990595862,-7.614688375678725
2025-02-19 12:59:45.999,736,-7,607,8,-10,-6,-4,-9,10,761,96,1,0.6607128147752697,50.484764082974976,1507.4554121491465,-14.337211800331556,-29.24108040017927
2025-02-19 12:59:46.110,947,203,517,20,-12,-34,-4,-13,10,812,0,1,-21.437449216165604,59.60790599607363,1809.583486399892,387.9043798724161,46.08588968453648
2025-02-19 12:59:46.212,804,4,540,14,-10,-28,-4,-13,12,842,0,1,-0.4244054193614753,56.112312999089184,1634.132126676713,8.130010580481159,-17.55142836495645
2025-02-19 12:59:46.319,834,94,578,14,16,28,-4,-9,12,722,0,1,-9.237129399836755,54.92535982752553,1652.404141781825,186.24219343823924,10.80864034784804
2025-02-19 12:59:46.429,1021,-25,562,19,-18,-26,-4,-9,9,483,0,1,2.5470654602978366,61.14589115892533,1896.851332047802,-46.44591900214991,79.89574083167031
2025-02-19 12:59:46.535,706,61,624,-12,-43,13,-5,-10,12,517,0,1,-5.583289599456543,48.39281452127495,1453.7148214578322,125.6042551117957,-36.86975720918883
2025-02-19 12:59:46.642,1256,124,486,-9,79,26,-5,-9,11,644,0,1,-14.31330020360481,68.231256404554,2184.6882799572522,215.6857856008752,126.65087256431167
2025-02-19 12:59:47.558,788,1,605,-4,-1,-7,-6,-9,11,592,78,2,-0.09470368154509652,52.48411574340541,1581.1845413060357,2.006579367139639,-3.980517119481533
2025-02-19 12:59:47.654,725,4,577,7,11,-9,-6,-10,10,651,75,2,-0.3971914155544422,51.48437764856224,1507.438392007692,8.316901473145887,-45.71303750129414
2025-02-19 12:59:47.764,825,62,599,2,-8,-9,-4,-11,12,711,92,2,-5.909404528901281,53.872815198583844,1632.7102403305717,122.70064836423693,12.553413384227156
2025-02-19 12:59:47.871,726,34,617,3,-9,-8,-6,-13,10,742,101,2,-3.1541138830304596,49.59717846228591,1487.5063898690546,69.66283368532763,-30.175540701386467
2025-02-19 12:59:47.977,898,6,566,48,3,-26,-7,-13,10,771,0,2,-0.6073530048095278,57.77574613414173,1743.9675185609756,11.652344222010974,32.79552839029827
2025-02-19 12:59:48.084,686,52,700,19,7,53,-5,-11,11,752,0,2,-4.248454529361296,44.34246531830635,1384.9455361127848,104.98129428260175,-13.209730727331134
2025-02-19 12:59:48.191,899,26,602,19,8,16,-4,-11,7,362,0,2,-2.473031648087648,56.167746183866804,1729.6711791905414,50.023860577257054,45.755228172740544
2025-02-19 12:59:48.297,824,48,559,15,-3,12,-5,-9,11,525,0,2,-4.907813714998976,55.749267996918135,1650.5825587405639,96.15044031498431,-1.7520028349213135
2025-02-19 12:59:48.404,550,-135,691,-14,45,15,-4,-8,9,504,0,2,11.054576930145855,37.99620887480948,1165.6093331842849,-286.10410905432445,-82.4291804188016
2025-02-19 12:59:49.325,773,8,608,13,-11,-15,-4,-11,9,675,72,3,-0.753848333070767,51.81091392493198,1558.974675775641,16.134278662619828,-10.205178359106867
2025-02-19 12:59:49.419,834,51,587,8,-9,-5,-4,-10,10,713,91,3,-4.965528732270425,54.75923708879995,1650.7345905183724,100.94420157846162,12.152032812608354
2025-02-19 12:59:49.526,764,45,605,3,5,-7,-6,-10,9,703,0,3,-4.253836436119193,51.54788381702601,1547.1281378100325,91.12665733174276,-15.147281904541387
2025-02-19 12:59:49.635,671,9,624,9,-29,-38,-5,-12,9,701,108,3,-0.8263241397292475,47.07557681000517,1403.2526647087884,18.821570763605212,-56.962239609961216
2025-02-19 12:59:49.743,683,98,721,7,-23,14,-4,-12,11,811,0,3,-7.740341158837922,43.18787204071468,1367.3927877483006,196.19984363006364,-1.4702781354679928
2025-02-19 12:59:49.849,973,100,348,-5,13,4,-5,-11,11,558,0,3,-16.032339353935967,69.58823691698281,1910.2104063192594,196.32172726816646,12.800389106780756
2025-02-19 12:59:49.960,678,35,698,-13,-10,35,-3,-9,11,564,0,3,-2.8705932617134677,44.1313168374187,1374.3052074738716,70.94495908788421,-18.84518409551947
2025-02-19 12:59:50.067,1276,142,577,-10,56,22,-4,-9,12,511,0,3,-13.825770122569779,65.02922846453384,2182.523260597477,242.8826826056753,167.07529673609395
2025-02-19 12:59:50.173,529,-91,729,9,-26,-23,-5,-7,7,535,0,3,7.115342909940345,35.756271701414114,1113.3384985179055,-191.51947706073616,-76.26042612391927
2025-02-19 12:59:51.191,777,7,609,4,-24,-13,-7,-10,11,677,100,4,-0.658543177563603,51.90938958106726,1564.036130680754,14.090415591718507,-7.866156479510096
2025-02-19 12:59:51.287,762,12,608,-6,8,0,-5,-12,9,704,101,4,-1.1306909512379713,51.408184697429405,1543.609585594119,24.308812371560926,-15.646493492420177
2025-02-19 12:59:51.393,802,59,573,-7,2,-10,-5,-11,11,704,0,4,-5.878847663643436,54.31253188635067,1614.211141162558,118.75119367654732,-7.295491129857737
2025-02-19 12:59:51.500,833,72,559,-6,0,-6,-5,-12,11,723,114,4,-7.33937015775159,55.91724731174862,1661.2290619856772,143.58762600596486,3.2016258703561107
2025-02-19 12:59:51.610,885,226,546,-11,15,25,-5,-12,10,157,117,4,-22.485613171964644,56.268506808813456,1716.6490207479728,438.37590812321116,32.91484143684386
2025-02-19 12:59:51.717,768,108,629,-11,-50,9,-4,-10,11,724,0,4,-9.74274753472449,50.27357250264296,1537.104843574422,216.1553686276531,-0.9048783962388143
2025-02-19 12:59:51.823,1005,188,438,-4,54,-23,-5,-9,12,740,0,4,-23.230158433050658,64.62636777205653,1908.5325950508409,357.0190327060278,44.221615291275555
2025-02-19 12:59:51.934,869,-42,413,-34,-11,-30,-5,-15,11,742,0,4,5.806726905531578,64.46572144565383,1771.3275593941519,-85.61076811801424,-15.83921982713997
2025-02-19 12:59:52.036,875,150,408,37,12,26,-5,-10,12,495,0,4,-20.18580300946485,63.58181912097867,1770.5706252019954,303.5263928917707,-9.591788665616264
2025-02-19 12:59:52.144,431,-170,755,-32,54,18,-4,-8,8,530,0,4,12.689412136483993,29.11420946678687,917.5520627069618,-361.9114864505418,-97.31277805975913
2025-02-19 12:59:52.964,774,15,615,2,-1,-8,-3,-10,10,608,68,5,-1.3971810272963767,51.52197336237713,1556.8468383395507,30.171450355417647,-7.029464572123516
2025-02-19 12:59:53.060,773,5,621,14,-17,-17,-5,-11,9,693,83,5,-0.4613087073608528,51.22196825563504,1552.578159066101,10.042549541177884,-5.284653014293212
2025-02-19 12:59:53.166,798,47,592,-3,6,-3,-4,-12,10,726,0,5,-4.539299133349606,53.34378467424932,1600.2321072936786,94.24925945213396,-3.139608418368198
2025-02-19 12:59:53.274,762,49,605,-2,4,-8,-6,-11,11,734,0,5,-4.630377701768379,51.460467596450634,1544.1784538031839,99.29756461464044,-16.020950854233774
2025-02-19 12:59:53.374,805,14,492,12,7,-17,-5,-13,10,600,0,5,-1.6299278853841694,58.55723713717343,1658.1617026058998,28.83759482792869,-29.43547538149403
2025-02-19 12:59:53.486,817,45,632,10,-9,-1,-7,-11,12,813,0,5,-4.072731189387424,52.20569813375714,1607.2159628071418,88.52474703344112,20.71910833033826
2025-02-19 12:59:53.597,867,112,674,1,5,-8,-6,-13,11,646,109,5,-9.434749650234401,51.76000369399211,1652.425011102669,213.46205449077158,63.415850653749885
2025-02-19 12:59:53.699,802,86,532,19,6,7,-6,-13,9,595,0,5,-9.182662295850077,56.10075474047634,1632.0196320358718,175.00459894649,-18.586588831775202
2025-02-19 12:59:53.804,761,45,694,-12,-13,48,-5,-9,12,558,0,5,-3.709950624599586,47.57665087580814,1499.180488216704,88.65062019678275,20.810435187394887
2025-02-19 12:59:53.916,1024,56,564,-35,74,31,-5,-7,9,489,80,5,-5.6703573438938895,61.03592934370754,1898.9235521618336,103.84738175885028,82.10851228586517
2025-02-19 12:59:54.024,644,-33,681,4,-22,-15,-5,-8,6,542,52,5,2.7742773113007893,43.36691557216056,1330.6678486721562,-68.18639597233098,-45.119262338103226
2025-02-19 12:59:54.129,767,-29,613,-4,5,-4,-4,-8,9,507,61,5,2.708547615305317,51.33629350334193,1547.8263051539132,-58.52276773072161,-11.050228239046533
2025-02-19 12:59:54.234,765,-21,617,-2,-1,-4,-4,-8,10,469,59,5,1.949346972496708,51.09636727955763,1543.2033322624338,-42.36244441504719,-10.648962099243818
2025-02-19 12:59:54.346,770,-21,639,-3,-1,-4,-4,-7,8,458,59,5,1.882282443010753,50.29653524749076,1539.360926494886,-41.982570722587795,0.530348012685522
2025-02-19 12:59:54.453,774,-3,630,-3,-1,-7,-5,-9,8,460,59,5,0.272834983068092,50.85569554505176,1549.5584996053071,-6.0060406961446,-1.2685461903660098
2025-02-19 12:59:54.560,778,2,627,-1,-2,-2,-5,-9,9,477,60,5,-0.18276103728975313,51.13407914564634,1556.6165190588872,4.001584881899453,-0.49686047547857015
2025-02-19 12:59:54.665,775,-4,623,0,-1,-1,-6,-9,9,480,61,5,0.36786511860971205,51.20463233281684,1554.388622963891,-8.022650957232987,-3.5278865890375073
2025-02-19 12:59:54.772,762,0,629,-1,-1,0,-4,-9,10,490,62,5,0.0,50.46171322805365,1533.1993644462596,0.0,-7.593701098027964
2025-02-19 12:59:54.882,774,-13,626,-1,-1,-1,-5,-11,11,488,62,5,1.1896774563543087,51.0285295940875,1551.4592259712508,-26.05810069460757,-2.797771909564517
2025-02-19 12:59:54.984,764,-9,621,-1,-1,-2,-5,-9,9,479,63,5,0.8303154862580109,50.89190478307684,1539.957292278326,-18.140858155111168,-9.719212702670688
2025-02-19 12:59:55.091,760,3,612,-2,0,-1,-5,-9,9,486,63,5,-0.2808594146833859,51.15645091676113,1538.8614740379708,6.074453186991989,-15.18845014636588
2025-02-19 12:59:57.214,757,-17,635,0,-1,-1,-5,-9,9,492,62,6,1.5335364557993298,49.998707644309185,1523.0299442955475,-34.20278606740331,-7.574656047123767
2025-02-19 12:59:57.307,790,-3,622,1,-3,-3,-7,-8,9,556,64,6,0.2763440606082768,51.78484009211423,1575.6932408020439,-5.983645218235608,3.3908914191505346
2025-02-19 12:59:57.417,810,37,602,4,-10,-3,-3,-11,9,610,74,6,-3.5170772035375193,53.32817660638414,1612.0694441200917,73.63774004005357,5.894067456425773
2025-02-19 12:59:57.524,788,27,610,4,-5,-3,-4,-8,10,645,76,6,-2.534388480510829,52.228983598725016,1578.4649559529594,54.084459150672465,-1.9081511818594663
2025-02-19 12:59:57.631,748,31,624,5,-10,-6,-4,-9,11,657,78,6,-2.8440866975973766,50.12956459255111,1515.4960373472932,62.807990852628464,-16.264073936779255
2025-02-19 12:59:57.737,801,40,599,4,-4,3,-4,-11,11,698,87,6,-3.820423397091307,53.149147958379324,1601.1994008992,79.96002001993509,0.5987002014720701
2025-02-19 12:59:57.847,684,-5,609,7,-26,-17,-5,-11,11,747,0,6,0.47039812959785604,48.31874230326328,1430.8557490966546,-10.459471850121744,-55.963671344828526
2025-02-19 12:59:57.954,793,-3,622,-5,-1,-24,-5,-14,11,726,0,6,0.2763440606082768,51.890345273652706,1579.8310360714438,-5.976662179337114,4.8387081507717085
2025-02-19 12:59:58.061,897,395,432,-18,-26,79,-3,-12,9,356,0,6,-42.438293757536734,56.87242574959868,1734.4558017913614,763.7793107108002,28.676804488441235
2025-02-19 12:59:58.167,712,-97,497,13,20,-44,-5,-9,12,553,0,6,11.043648816425959,54.579405802542844,1526.9195282504927,-208.02134022513738,-71.84129991642544
2025-02-19 12:59:58.274,527,20,637,-53,74,62,-3,-8,6,506,0,6,-1.7983348063102058,39.587620065492644,1164.2574895976322,44.18434495626687,-133.27138685709974
2025-02-19 12:59:59.294,756,16,662,-20,-6,-7,-5,-8,9,405,71,7,-1.3845227066731605,48.78432791433957,1508.2347097550664,31.920311317567545,3.297119235642981
2025-02-19 12:59:59.389,809,28,673,-19,2,-14,-4,-11,8,472,66,7,-2.382402882092142,50.218866019977774,1577.4942535275345,54.598070579444936,33.69637500119836
2025-02-19 12:59:59.496,784,-12,666,0,-8,-3,-5,-11,9,536,73,7,1.032244691565731,49.64785031506298,1546.0793163481248,-23.664479331859056,18.62139708182235
2025-02-19 12:59:59.605,783,17,589,15,-23,-27,-6,-11,11,444,108,7,-1.6532392492256467,53.03677403976431,1582.0216073012152,34.34785098865985,-12.052013665920526
2025-02-19 12:59:59.712,617,-37,729,4,-10,0,-7,-13,10,796,0,7,2.9055230653172597,40.20706344149575,1262.5518438305303,-75.7121851243592,-33.73467447723908
2025-02-19 12:59:59.819,874,297,346,0,-6,51,-3,-12,10,539,0,7,-40.64218125522386,62.447809947214395,1760.5898638623444,598.2782489326273,-4.984087982118069
2025-02-19 12:59:59.929,365,-186,666,-13,7,-29,-6,-8,10,582,0,7,15.603947145056742,27.827297401760845,831.8080278978541,-423.8802553123311,-185.764785150605
2025-02-19 13:00:00.035,915,147,522,-19,-65,-1,-5,-11,11,549,0,7,-15.727707816500308,59.345569137434936,1775.2580504607,285.2053917133584,31.22983350766623
2025-02-19 13:00:00.142,843,67,498,23,10,21,-4,-9,12,756,130,7,-7.662457910256948,59.202108261475395,1701.9787375317946,135.2699589734641,-9.439396549031926
2025-02-19 13:00:00.248,562,-116,689,-10,7,21,-4,-7,9,576,0,7,9.556691641888477,38.811626690052336,1188.7619448569276,-245.36723416975732,-79.39676157726535
2025-02-19 13:00:00.351,846,14,558,7,-17,-4,-4,-8,8,643,0,7,-1.437226996321889,56.58388891597405,1680.693039776022,27.812887183054738,7.457782275389718
2025-02-19 13:00:00.454,757,-33,604,-3,-1,-2,-4,-9,10,591,0,7,3.1272893005584814,51.37247435413843,1538.220662282474,-67.05585449844338,-19.325336880600048
2025-02-19 13:00:00.568,808,-2,610,-5,0,-2,-6,-9,12,594,0,7,0.18785434166681775,52.948854024035676,1606.0979723047935,-3.9754900304574106,7.475540710489895
2025-02-19 13:00:00.675,784,-18,591,-3,-1,-3,-5,-9,10,606,0,7,1.744509841588911,52.97727507059275,1582.3967524488392,-36.33053768377437,-10.85265395059173
2025-02-19 13:00:00.781,799,-12,591,-2,-2,0,-4,-8,11,605,0,7,1.1632062452411367,53.50496233502987,1602.9083746594474,-24.07371776710059,-3.6306000297040555
2025-02-19 13:00:00.884,802,-5,589,-2,0,-2,-5,-10,11,601,0,7,0.48637014668859935,53.70493505590851,1607.9792711148648,-10.024808423409382,-2.9224322776250347
2025-02-19 13:00:00.994,785,1,591,-1,-1,0,-5,-10,11,594,0,7,-0.09694708093644566,53.02510437616471,1583.8991210503873,2.017705886688391,-10.46417903283907
2025-02-19 13:00:01.101,803,2,588,-1,-1,0,-5,-9,11,583,0,7,-0.19488285223860277,53.786237899548304,1609.8184289501469,4.009510408344077,-2.7960600531584987
2025-02-19 13:00:02.624,803,-12,600,0,-1,-1,-5,-10,8,592,0,8,1.1457628381751033,53.22749406673211,1604.018727402071,-23.97039194125137,1.4804029374313359
2025-02-19 13:00:02.718,793,-1,582,0,-1,-1,-6,-8,11,607,0,8,0.0984462596722401,53.72420190968228,1599.1782784907111,-2.016618257869749,-9.67182608019391
2025-02-19 13:00:02.824,791,-3,597,-1,-2,-1,-6,-8,12,621,0,8,0.28791606655709323,52.95630666868187,1589.1763382509907,-6.027217464921584,-5.416275519395185
2025-02-19 13:00:02.930,783,-6,583,0,-2,-1,-4,-10,9,625,0,8,0.5896441520813456,53.32820320600145,1585.0697213849344,-12.146128133217887,-14.198783611004728
2025-02-19 13:00:03.037,783,3,585,1,-5,-1,-4,-8,12,639,0,8,-0.2938219346507038,53.23525808906277,1584.0998403123622,6.0693480471738015,-13.522869198891158
2025-02-19 13:00:03.144,750,10,628,-5,4,-14,-5,-9,12,593,0,8,-0.9122760766042207,50.055864029454774,1516.6708040499525,20.222277387332696,-13.959019924493191
2025-02-19 13:00:03.254,843,173,539,3,-31,74,-3,-8,10,475,0,8,-17.79479915339848,56.118239716487246,1673.1897973457699,343.3710972014451,8.190627794341708
2025-02-19 13:00:03.362,727,8,577,12,17,-82,-5,-10,11,718,0,8,-0.7943446593165262,51.55924960300913,1510.251481083416,16.618998416323695,-44.64526077734638
2025-02-19 13:00:03.467,673,151,711,-5,-19,0,-4,-13,11,812,0,8,-11.990152618355767,42.7967094122443,1352.399163867774,303.43577079351246,-6.7604836701149225
2025-02-19 13:00:03.574,1145,80,550,-2,27,38,-4,-10,9,633,0,8,-8.2758928270752,64.10787220483634,2044.6177852363512,142.85539110821668,117.86918613101028
2025-02-19 13:00:03.680,437,-141,754,1,-18,1,-3,-7,8,565,0,8,10.592124672277375,29.670164477997336,932.0062804470915,-300.7159852243476,-100.08406283090858
2025-02-19 13:00:04.698,775,-2,605,1,-3,-4,-4,-10,10,602,0,9,0.1894068456228529,52.022641981090885,1563.2539873987862,-4.03420383844848,-10.346661130665439
2025-02-19 13:00:04.795,812,28,586,8,-13,-8,-5,-9,12,650,0,9,-2.7356016991131584,54.151955480484176,1622.5730263856485,55.950794013298236,1.0298110074013493
2025-02-19 13:00:04.905,749,25,596,6,-15,-16,-6,-11,12,699,0,9,-2.40193838534025,51.46522454062183,1531.2301797919035,51.109151528434694,-26.442172437883073
2025-02-19 13:00:05.012,794,-15,570,1,8,-28,-5,-12,11,577,0,9,1.507435758774968,54.31663784190557,1606.2529443362187,-30.34482892322832,-13.10349908267608
2025-02-19 13:00:05.123,811,164,586,-3,-16,29,-5,-12,10,694,0,9,-15.634992908758672,53.11806676378392,1610.873945943083,325.7500951105618,8.039294300065762
2025-02-19 13:00:05.229,799,-83,591,12,3,-23,-5,-10,12,788,0,9,7.994330618922362,53.24271748058829,1600.177756803899,-166.22622504971665,-1.61083137810283
2025-02-19 13:00:05.336,867,187,502,-7,-13,61,-4,-10,9,444,0,9,-20.430863466588168,58.2890705944037,1717.710858066695,370.48665566144405,9.431544694946979
2025-02-19 13:00:05.438,772,73,522,-37,94,54,-5,-7,8,464,0,9,-7.96099804918866,55.67686010639977,1597.8706373681598,151.0939851397353,-36.42548278002528
2025-02-19 13:00:05.547,583,-158,724,11,-14,-7,-4,-5,6,331,35,9,12.31076276245953,38.19327489921032,1201.3161510261393,-325.5711009642024,-43.857449987864356
2025-02-19 13:00:05.646,752,14,689,9,2,-3,-4,-6,5,71,40,9,-1.1640501395110545,47.497466381134814,1489.2474614962673,27.725351676792208,13.516621049297669
