Timestamp,Acc_X,Acc_Y,Acc_Z,Gyro_X,Gyro_Y,Gyro_Z,Mag_X,Mag_Y,Mag_Z,Force,IR_A,Letter,Roll,Pitch,Lin_Acc_X,Lin_Acc_Y,Lin_Acc_Z
2025-02-18 16:17:05.304,381,-107,645,-24,18,10,-7,6,8,0,11,noise,9.419101864566597,30.23079599100195,884.4844142547188,-248.39851004003916,-207.3555044469648
2025-02-18 16:17:05.398,589,-124,757,-12,-1,11,-7,5,8,71,12,noise,9.302690144928386,37.518432457109384,1198.0166248775445,-252.2140262900094,-25.725950818847537
2025-02-18 16:17:05.496,527,-159,812,-20,-7,3,-6,7,11,283,11,noise,11.079066633694096,32.493836954825994,1064.2088854749081,-321.08010017174655,-15.729819745020109
2025-02-18 16:17:05.616,557,-206,779,-8,-20,-2,-5,8,12,320,12,noise,14.812327872669172,34.65447787604212,1125.6261413819666,-416.29979376065546,-16.25989970655621
2025-02-18 16:17:05.721,628,-148,762,7,-10,-3,-6,6,11,212,15,noise,10.991465023732493,38.973845655646,1256.9655743555018,-296.2275557398316,-1.171604552376266
2025-02-18 16:17:05.828,668,-169,711,6,-16,16,-7,7,12,0,17,noise,13.37070676360764,42.429039494794885,1342.6765758226643,-339.68913370363805,-7.106355404063038
2025-02-18 16:17:05.930,710,-154,719,-12,-28,-7,-7,6,13,0,18,noise,12.089314848731254,43.99685001359635,1404.6188218088378,-304.6638007867057,15.576150872458697
2025-02-18 16:17:06.030,605,-204,646,4,15,-9,-8,5,12,0,21,noise,17.52556837372287,41.76680340212091,1271.1004371087352,-428.60246143831733,-65.24112788800483
2025-02-18 16:17:06.146,463,-141,629,-42,24,0,-7,6,14,96,16,noise,12.634857322969125,35.68831904276114,1046.375638816701,-318.6586718642653,-163.5340751959069
2025-02-18 16:17:06.255,613,-200,749,-3,-16,-15,-8,5,13,139,19,noise,14.950460228375471,38.33413703038254,1233.2464943310415,-402.3642722124116,-8.854199435481405
2025-02-18 16:17:06.363,682,-159,708,-1,-5,-3,-8,4,14,151,24,noise,12.65727336722329,43.2244993047845,1366.8587456099863,-318.66648174778277,-2.9677300467307077
2025-02-18 16:17:06.471,661,-191,729,12,-3,-8,-7,5,15,141,24,noise,14.681646578510486,41.25452412358031,1320.4051789565065,-381.5391666878861,1.758887353565683
2025-02-18 16:17:06.579,677,-145,725,11,-4,-6,-6,2,13,147,27,noise,11.309932474020213,42.479073039943344,1352.3208761729688,-289.6403649114926,1.7981754425368308
2025-02-18 16:17:06.687,674,-133,726,-2,-1,0,-8,2,14,133,27,noise,10.381222280853008,42.40163156010187,1348.3234156352946,-266.0638194057777,-0.34836758341816676
2025-02-18 16:17:06.794,667,-144,720,-3,-1,2,-9,4,14,131,28,noise,11.309932474020213,42.25197761872354,1339.392356372005,-289.16416689290656,-5.820834464532936
2025-02-18 16:17:06.897,664,-150,721,0,3,1,-8,4,12,132,27,noise,11.752421041789054,42.038998654356554,1333.636276502166,-301.273255233923,-6.120113491056486
2025-02-18 16:17:07.007,663,-142,731,1,-1,0,-7,3,13,103,27,noise,10.993050961805727,41.679759570482666,1327.966554151512,-284.4211925935365,-2.1682520132054606
2025-02-18 16:17:07.114,674,-143,721,1,0,1,-8,4,14,119,28,noise,11.218210386663918,42.519318281231776,1349.8387552497356,-286.3901216627777,-1.9669770549839996
2025-02-18 16:17:07.220,665,-144,732,0,0,1,-7,4,13,116,26,noise,11.129189289611187,41.71335396271542,1330.4043560067414,-288.08755979694854,-0.44509563448821154
2025-02-18 16:17:07.326,668,-145,730,1,0,0,-8,4,13,120,27,noise,11.234444007142086,41.909059754702454,1335.95023956066,-289.9891987070295,0.054378923230729015
2025-02-18 16:17:07.429,661,-147,731,0,-1,-1,-8,6,13,118,27,noise,11.370212072519402,41.55679454399725,1324.3621262543488,-294.52531400815326,-2.612275782040797
2025-02-18 16:17:07.544,666,-139,727,0,-1,-2,-9,4,12,97,27,noise,10.824129345355193,41.980710767504036,1334.880380848187,-278.6011605674144,-3.1441995144625707
2025-02-18 16:17:07.650,662,-136,727,-1,-1,0,-9,3,12,107,26,noise,10.595861349153743,41.83059920679644,1328.930501784112,-273.0129127532315,-5.414614497053549
2025-02-18 16:17:07.757,660,-137,730,-1,0,0,-7,3,13,115,26,noise,10.629132702172921,41.62418268589897,1324.241774770409,-274.8804896114334,-4.691659973331184
2025-02-18 16:17:07.864,665,-142,729,1,1,-1,-9,5,13,127,27,noise,11.022472564681856,41.840639807635505,1332.0610675089958,-284.44010764853743,-2.25942588580142
2025-02-18 16:17:07.969,630,-124,684,0,-1,-4,-8,4,14,96,26,noise,10.275358164878135,42.18540745394532,1301.531893516701,-256.1745314223348,-45.09177010384667
2025-02-18 16:17:08.079,620,-130,703,-2,-2,-1,-6,4,14,100,26,noise,10.476883823427793,40.93285145480686,1275.1740867893604,-267.37521174615625,-39.882875827290945
2025-02-18 16:17:08.187,675,-130,744,-3,-4,0,-8,5,12,110,26,noise,9.91130040636774,41.78771990153218,1341.372678449145,-258.33844177539095,9.50922553160899
2025-02-18 16:17:08.293,714,-137,769,5,0,-3,-7,2,13,74,27,noise,10.101461411557034,42.429994106041235,1388.6888735185037,-266.45710878436273,42.33929448777394
2025-02-18 16:17:08.400,711,-152,762,3,0,0,-8,4,13,75,27,noise,11.281009821498051,42.45987053735109,1386.0736593574743,-296.3195446165065,38.50333554093481
2025-02-18 16:17:08.507,649,-133,711,0,4,3,-8,6,12,55,23,noise,10.595325859565145,41.899596608481815,1316.8273151214862,-269.85829416203035,-20.625918415064348
2025-02-18 16:17:08.612,652,-127,721,1,0,1,-7,3,15,55,22,noise,9.989845356877368,41.68791006609715,1317.0727923554784,-256.546387468015,-14.45626271211654
2025-02-18 16:17:08.723,675,-134,746,-1,0,-1,-7,4,14,58,23,noise,10.183142140216125,41.68738488765725,1340.0659472860816,-266.027906572348,10.97896788827154
2025-02-18 16:17:08.830,660,-133,724,-3,0,-1,-6,4,13,52,22,noise,10.409273654799081,41.87938004097759,1327.5646447920926,-267.5243905414369,-8.298186105265472
2025-02-18 16:17:08.936,656,-138,738,-1,0,-2,-7,2,11,56,21,noise,10.591527747971378,41.145157267540625,1313.9689572744687,-276.41420137786076,-2.215076933777027
2025-02-18 16:17:09.043,663,-127,739,-1,-1,0,-8,3,13,65,21,noise,9.751248267809391,41.48300179570394,1325.397822895699,-253.88465084125758,0.6712049473279649
2025-02-18 16:17:09.150,658,-140,731,-4,0,2,-7,5,14,63,21,noise,10.841914118156774,41.47891022764884,1320.3443232436741,-280.9243240943988,-4.826292235753499
2025-02-18 16:17:09.255,647,-149,742,-1,0,-1,-9,2,13,55,21,noise,11.35447440299461,40.5271798472583,1296.8086949705676,-298.64682465319095,-3.221099950789835
2025-02-18 16:17:09.362,653,-129,745,0,0,0,-8,3,13,41,21,noise,9.82360848413058,40.81580694554633,1306.6294213730228,-258.12434204765685,-0.7180994225145696
2025-02-18 16:17:09.473,661,-129,745,-1,2,-1,-8,5,12,38,21,noise,9.82360848413058,41.161227486533264,1319.1801441368148,-257.44968017193514,3.1782036582039837
2025-02-18 16:17:09.580,643,-140,740,-3,-2,-1,-8,3,12,37,22,noise,10.713123022791034,40.489834032694795,1292.3131195809988,-281.3745516972625,-7.265487542673441
2025-02-18 16:17:09.678,651,-137,739,1,-1,-2,-9,3,13,29,20,noise,10.502581921488618,40.897861256776544,1305.712598678917,-274.7812995683742,-4.214455335974662
2025-02-18 16:17:09.793,659,-136,738,1,0,-2,-8,3,12,31,21,noise,10.441427329282218,41.28854281089747,1318.8514277284817,-272.1757119439659,-0.9534956959323608
2025-02-18 16:17:09.898,645,-125,736,1,-1,0,-9,4,12,19,21,noise,9.638965760490343,40.826576176472855,1298.771659621667,-251.69993403520675,-10.009211599297487
2025-02-18 16:17:09.995,650,-126,734,-3,0,1,-8,4,13,24,21,noise,9.740577669271229,41.11420459189725,1307.5620466884202,-253.46587366575528,-8.539295798923604
2025-02-18 16:17:10.112,651,-121,745,0,-1,-1,-8,4,13,16,21,noise,9.225203149929353,40.77853548952807,1304.1369678271815,-242.3971937128863,-2.445531538018713
2025-02-18 16:17:10.222,650,-128,738,0,-1,-1,-7,3,12,25,22,noise,9.839593617902864,40.9515389241043,1305.4204570105417,-257.06741307284517,-6.154303498122772
2025-02-18 16:17:10.329,648,-114,747,0,-1,-2,-7,5,13,26,21,noise,8.67698538157421,40.614452684190425,1298.9657204123428,-228.52174710957883,-3.418816586450589
2025-02-18 16:17:10.440,636,-124,718,-1,-1,-1,-8,4,12,22,22,noise,9.798439802449286,41.116809648728264,1293.5963007280498,-252.21059951301595,-24.380729438269782
2025-02-18 16:17:10.541,647,-98,736,4,2,-3,-8,4,12,32,22,noise,7.584444760740259,41.06841886334115,1303.9597857191325,-197.5085919636399,-11.329833522846343
2025-02-18 16:17:10.645,650,-111,745,-1,-1,-1,-7,4,14,16,22,noise,8.47434622998921,40.792794253243734,1303.325396092223,-222.56787533267197,-3.8114155210865874
2025-02-18 16:17:10.759,663,-114,744,-2,0,0,-8,4,11,30,21,noise,8.711437551950366,41.375169611175096,1323.9867260687686,-227.65382620186972,2.2592395246397246
2025-02-18 16:17:10.865,688,-122,774,-1,1,-1,-8,1,11,28,21,noise,8.957420728970728,41.2846949003419,1347.8009634490554,-238.99958944881507,31.723916119812657
2025-02-18 16:17:10.971,690,-133,769,-1,0,-1,-8,4,12,25,21,noise,9.812344735002698,41.48128789737723,1352.3754130809912,-260.6752607822781,30.7874019430692
2025-02-18 16:17:11.079,653,-116,750,-2,0,-1,-8,5,13,30,21,noise,8.792081531035164,40.70988519592782,1305.229194447212,-231.86307282676347,0.8853049993739432
2025-02-18 16:17:11.189,668,-121,757,-1,-1,-1,-9,2,11,27,21,noise,9.081420857286314,41.06789791471276,1324.952930797589,-239.99895902171903,12.518909260815803
2025-02-18 16:17:11.295,646,-112,752,0,-1,-2,-9,3,13,24,21,noise,8.471144633014832,40.353576303948344,1293.5026547537586,-224.2605221864102,-1.7492203944685798
2025-02-18 16:17:11.402,631,-120,731,1,0,-1,-7,4,14,25,21,noise,9.32245262909323,40.424363868583214,1279.4436711820686,-243.31733841814298,-20.208119863854108
2025-02-18 16:17:11.508,643,-120,739,-1,1,1,-8,2,11,20,21,noise,9.22327664493384,40.65748349161218,1294.5356484429908,-241.59296705001384,-9.810022083001854
2025-02-18 16:17:11.615,645,-105,741,-3,0,1,-7,4,11,34,21,noise,8.06514118072924,40.755945114097685,1297.8383552666796,-211.2760113224827,-9.004994190092248
2025-02-18 16:17:11.722,640,-111,731,-1,0,-1,-8,3,11,19,21,noise,8.634222064545348,40.879159518539694,1294.4658400351545,-224.50891913109712,-16.522701665153136
2025-02-18 16:17:11.828,650,-111,743,-1,-1,0,-7,2,11,24,21,noise,8.496824850697132,40.86733125139698,1304.3097368778658,-222.73597045145092,-4.926360769621965
2025-02-18 16:17:11.935,650,-121,750,0,0,-1,-8,6,14,25,21,noise,9.164748880954555,40.55040161530187,1300.116706424145,-242.02172534972547,-0.13466125862885292
2025-02-18 16:17:12.045,642,-115,745,0,-1,-2,-8,2,12,28,21,noise,8.775055744479678,40.41964669857944,1290.3809941188024,-231.14301296520605,-7.404736165899976
2025-02-18 16:17:12.145,646,-117,740,-1,-1,-1,-8,2,13,20,21,noise,8.984554124164053,40.7699497668592,1299.0234887712672,-235.2720560158487,-8.045482493402119
2025-02-18 16:17:12.248,655,-113,758,0,-1,0,-8,3,12,21,21,noise,8.47901125837566,40.51955957153659,1304.707597051974,-225.0869594914093,6.124643411608531
2025-02-18 16:17:12.364,654,-111,749,-1,0,-1,-8,2,11,26,20,noise,8.429741353191535,40.81818543146597,1307.6608380147782,-221.94243580984767,0.3884286344515431
2025-02-18 16:17:12.471,640,-115,746,0,-1,0,-8,1,10,23,20,noise,8.76347565229207,40.29439039429224,1286.7151065370208,-231.2066207058709,-7.827296057214767
2025-02-18 16:17:12.581,645,-123,745,0,-1,-1,-8,4,13,33,21,noise,9.375000164467444,40.50421709607528,1294.50401413163,-246.85890502045038,-5.202310896223821
2025-02-18 16:17:12.688,648,-114,751,0,-1,-1,-10,3,11,33,20,noise,8.631467631424796,40.4667317040335,1297.0064157668726,-228.17705462565348,-1.1663861742612198
2025-02-18 16:17:12.795,638,-108,738,0,-2,-1,-9,3,11,20,20,noise,8.325650330426836,40.543274305760654,1288.0221817841807,-218.03510287255722,-13.906536295807882
2025-02-18 16:17:12.901,654,-109,746,-1,0,0,-8,4,13,23,21,noise,8.312811967754646,40.94048748735007,1309.2747664690537,-218.21246107817564,-1.4540914157707903
2025-02-18 16:17:13.008,650,-111,749,-1,0,-1,-7,4,10,28,22,noise,8.429741353191535,40.64437875575543,1301.3621196912104,-222.23260813188367,-1.5695809980256854
2025-02-18 16:17:13.117,641,-117,746,-1,-1,-1,-9,2,11,24,22,noise,8.913457156226917,40.32701504106153,1288.1493067979895,-235.12241637342396,-7.156603543370011
2025-02-18 16:17:16.128,728,-104,674,-4,0,1,-11,0,16,246,51,A,8.771712218281072,46.86954468512552,1457.79898237475,-208.25699748210718,-1.6655413744252883
2025-02-18 16:17:16.232,715,-105,677,0,-1,-2,-10,-2,16,269,50,A,8.816104917263893,46.223645016953114,1437.0458026261986,-211.03469828776338,-6.671340388722115
2025-02-18 16:17:16.342,722,-102,677,-1,-1,-1,-11,2,16,216,49,A,8.56800827519396,46.52137096565171,1447.6310724781229,-204.51297699829433,-3.404759096522298
2025-02-18 16:17:16.444,721,-116,689,-2,-6,-1,-10,-1,16,259,51,A,9.556691641888477,45.900039507848355,1439.1267776241434,-231.53773398668605,2.7457007170113457
2025-02-18 16:17:16.560,700,-129,668,-3,-17,-10,-11,-1,16,343,63,A,10.930058268319318,45.81592418058766,1417.1043426253455,-261.1520859980993,-16.32242981961508
2025-02-18 16:17:16.666,754,-90,656,-11,-10,-4,-11,-3,18,481,84,A,7.811931710268178,48.71116079501523,1505.3926827038626,-179.68878175510298,2.2684352072494676
2025-02-18 16:17:16.772,767,-104,619,-3,-2,-5,-10,-2,19,420,87,A,9.537355925624786,50.704757880000415,1540.892803431269,-208.93461741440933,-5.56277095691712
2025-02-18 16:17:16.877,773,-105,651,-8,-5,-10,-9,-4,18,261,89,A,9.16234704572171,49.53391774266944,1533.7902901833759,-208.34150125388675,10.282692225902224
2025-02-18 16:17:16.985,713,-142,628,8,-7,26,-10,-2,20,243,95,A,12.741156324031778,47.9172987779471,1455.1782227830784,-289.8110906524504,-25.699753026329745
2025-02-18 16:17:17.087,833,-20,565,7,5,14,-10,1,20,0,98,A,2.0273227005001964,55.83541375929269,1660.4278325274017,-39.86621446644422,3.779441322950902
2025-02-18 16:17:17.194,909,9,522,7,-3,-7,-9,-1,17,240,93,A,-0.98776039963981,60.129405942654486,1776.1524738730352,17.585668058148862,24.031252627365973
2025-02-18 16:17:17.309,532,-223,703,-8,-23,-31,-11,0,19,673,70,A,17.59964929948812,35.80422611510871,1117.0174971576275,-468.2234997484039,-70.05883552972193
2025-02-18 16:17:17.415,749,-195,650,-2,1,-6,-11,-3,20,452,89,A,16.69924423399362,47.82233333842618,1490.0663701648064,-387.9345022458441,6.8849925138529215
2025-02-18 16:17:17.521,739,-239,602,0,-29,36,-10,-3,18,634,94,A,21.653570933821044,48.76657515703943,1491.0305188684763,-482.2142002835802,-10.614847576214629
2025-02-18 16:17:17.628,786,-129,573,18,-8,24,-10,1,21,710,103,A,12.687521373869984,53.2309372764945,1587.0547013915448,-260.47080977036796,-10.97499223582065
2025-02-18 16:17:17.735,590,-179,645,4,47,-30,-11,-1,19,531,73,A,15.510365508130375,41.39347376147714,1251.2264201200303,-379.6093715279414,-77.86617114816875
2025-02-18 16:17:17.841,787,-81,640,6,7,-6,-10,-3,18,79,85,A,7.213146684339993,50.658460680467535,1560.3808065937317,-160.59827869643237,11.075328818312187
2025-02-18 16:17:17.952,807,-52,630,-46,-46,17,-10,-1,20,563,89,A,4.718479498676494,51.92755300862749,1594.2316577841052,-102.72620347555575,15.432534815382382
2025-02-18 16:17:18.054,816,-98,574,4,8,8,-10,-2,20,768,96,A,9.688786560366802,54.48796631731672,1629.993536878639,-195.75902771336595,1.4114091074279713
2025-02-18 16:17:18.165,655,-141,656,2,11,3,-10,-1,16,556,51,A,12.130540842223029,44.30944509412317,1353.533256449848,-291.37128115943295,-43.599719436794544
2025-02-18 16:17:19.780,747,-71,645,-2,0,0,-9,-2,18,273,63,B,6.281686885869139,49.020155381518784,1501.9403205031408,-142.75470248423426,-6.856100032832387
2025-02-18 16:17:19.877,755,-75,650,-5,-1,0,-11,-3,18,320,64,B,6.5819446551780105,49.086514607729285,1510.6993454916023,-150.06947140645056,-0.6020855225716559
2025-02-18 16:17:19.983,740,-86,654,-7,1,0,-10,-2,16,247,62,B,7.491325104377153,48.28643892150929,1486.4807110145155,-172.75316371249772,-5.727547302017683
2025-02-18 16:17:20.090,755,-91,648,-5,0,0,-11,-3,20,255,64,B,7.993890470150502,49.08452768276968,1510.676633516117,-182.08155450326706,-0.5807397595281145
2025-02-18 16:17:20.200,758,-82,641,-4,3,-1,-10,-4,19,264,63,B,7.289974951216097,49.55115414555338,1518.9854950465678,-164.32296912113264,-2.5246732517808823
2025-02-18 16:17:20.308,732,-106,661,-1,-1,0,-10,-4,17,390,59,B,9.110559808468679,47.55574961631813,1469.9343466696864,-212.85934528276883,-5.358747470850744
2025-02-18 16:17:20.409,735,-99,643,-3,-4,-2,-10,-3,17,513,62,B,8.752858041362297,48.486727363251084,1483.8022039579787,-199.85907236985014,-12.074581149632877
2025-02-18 16:17:20.524,765,-98,640,-7,-6,-1,-10,-3,18,606,70,B,8.705794176576424,49.757009856919524,1528.3115141623148,-195.78369723909395,1.412589458978232
2025-02-18 16:17:20.630,771,-90,632,-2,-6,-16,-12,-3,18,622,80,B,8.104716543006717,50.37576959455626,1541.2436070517488,-179.911705103317,0.6200263855962476
2025-02-18 16:17:20.737,779,-83,620,-3,-4,-7,-11,-3,20,596,83,B,7.62490735242017,51.235805108517404,1558.729388126409,-166.07771401090108,-0.5805142982972029
2025-02-18 16:17:20.847,769,-119,625,-2,-6,-29,-10,-5,20,552,86,B,10.780085252357114,50.39753093917861,1539.485773394906,-238.22991811962783,-1.2075531493059088
2025-02-18 16:17:20.950,827,0,551,9,-3,26,-11,-2,18,586,97,B,0.0,56.3259234810047,1659.205076381881,0.0,-3.467952946090122
2025-02-18 16:17:21.058,831,-4,563,-8,26,-38,-10,-2,20,714,89,B,0.407067960789731,55.88180662127241,1658.8822707348122,-7.984992879589951,2.1122521977142696
2025-02-18 16:17:21.167,671,-145,653,9,-34,-43,-12,-2,18,662,84,B,12.51951700394462,45.0895811486286,1379.2114680258574,-298.04122632451464,-36.213246826951945
2025-02-18 16:17:21.273,769,-110,657,-16,-33,7,-11,-5,19,746,88,B,9.504742570101696,49.09931114004613,1524.8455972465213,-218.1183559130264,11.238546955833158
2025-02-18 16:17:21.375,901,42,487,35,4,12,-9,-4,21,628,97,B,-4.929123434417691,61.51942043373367,1779.9787953818723,82.97348435742356,11.902693284160136
2025-02-18 16:17:21.490,801,-65,639,-19,-25,21,-11,-3,18,777,94,B,5.808231087083648,51.27493892056986,1581.1568525857947,-128.30860851195587,16.627679397849192
2025-02-18 16:17:21.593,842,12,448,24,16,21,-11,-2,20,544,97,B,-1.5343414997007687,61.97553154046011,1724.747022087116,24.58071765444821,-21.68012576606651
2025-02-18 16:17:21.703,782,-51,614,-39,62,26,-9,-2,18,488,45,B,4.748196003133472,51.76648108298257,1567.4949802448557,-102.22793349422972,-2.7441404991577656
2025-02-18 16:17:21.810,694,-139,673,9,-20,-15,-9,2,15,527,32,B,11.669661522705933,45.28189262914889,1404.5771422733396,-281.32020572909823,-16.075528458151894
2025-02-18 16:17:22.827,756,-101,653,-1,-2,-2,-11,-1,16,480,50,C,8.792310044152755,48.84565186206549,1508.9394974985485,-201.59112334306002,2.6435292770474916
2025-02-18 16:17:22.924,740,-108,653,-1,-2,-2,-10,0,17,492,52,C,9.391165042034872,48.18991256840141,1485.3586391599706,-216.78207166118486,-4.728636988460266
2025-02-18 16:17:23.031,754,-94,651,2,-2,-3,-11,0,18,535,53,C,8.216335455372763,48.900200658924724,1507.565694529591,-187.9458558166864,0.3749772695445017
2025-02-18 16:17:23.125,732,-99,644,-3,-2,-2,-11,0,18,567,53,C,8.73947664070538,48.32720337774872,1478.9539418468755,-200.022459348143,-13.15620020408187
2025-02-18 16:17:23.248,766,-114,633,-4,-5,1,-10,-3,18,621,56,C,10.209234076060742,49.980991828034355,1531.831152844145,-227.9748713110085,0.13953035203178388
2025-02-18 16:17:23.354,744,-108,644,-5,-2,-2,-10,-1,18,675,56,C,9.520021865774144,48.72725765113217,1495.57803487112,-217.10003732000132,-6.559481797044896
2025-02-18 16:17:23.461,767,-103,632,-4,-1,-2,-11,-1,18,701,61,C,9.256381910509225,50.14281991906486,1534.6443239952314,-206.08652590809498,-0.5309162516118704
2025-02-18 16:17:23.567,793,-87,624,-4,-4,-4,-11,-3,17,729,68,C,7.937188000622947,51.53298184473169,1575.966372604721,-172.89921111804637,7.895313360219461
2025-02-18 16:17:23.678,757,-116,631,-4,-10,1,-11,-2,19,763,71,C,10.41667414123669,49.71800393854784,1519.8715315024065,-232.89973270050083,-4.894235638069176
2025-02-18 16:17:23.780,780,-94,616,1,-13,-12,-9,0,20,799,86,C,8.676255294422269,51.37914444277525,1561.2933296368408,-188.1558628023885,-1.0213987901203154
2025-02-18 16:17:23.891,797,-106,607,-2,-4,-7,-10,-2,20,810,94,C,9.905637162259557,52.291258890951895,1588.130228501816,-211.21932775557406,4.470453324212826
2025-02-18 16:17:23.997,807,-101,563,5,-2,-15,-12,-2,22,766,99,C,10.170454738263436,54.67163967266676,1622.851461516274,-203.10780373375917,-6.175183189172458
2025-02-18 16:17:24.107,767,-140,583,45,23,-15,-12,-3,19,354,90,C,13.503167050395758,51.984791171864394,1554.8473021243553,-283.80524419479764,-15.846124039764504
2025-02-18 16:17:24.210,836,59,596,14,-21,46,-9,-3,19,671,96,C,-5.653478240804291,54.382062287477034,1648.9184747160846,116.37104067972368,16.45525008279128
2025-02-18 16:17:24.316,927,-88,551,8,34,-1,-10,0,20,825,89,C,9.07405386483537,58.955281602724874,1783.7650610692417,-169.33260558154615,41.74698096100087
2025-02-18 16:17:24.423,551,-183,716,2,-5,-5,-8,1,15,635,27,C,14.337104658095974,36.70768812018114,1148.7327262647038,-381.5210324980777,-60.72709982854451
2025-02-18 16:17:25.537,745,-101,630,-1,0,-2,-10,-2,17,605,51,D,9.108011159303,49.42206721670211,1504.52189383332,-203.96873996934943,-12.280259214753983
2025-02-18 16:17:25.639,749,-95,635,-1,0,-2,-9,1,20,609,50,D,8.508703316270307,49.39575204146356,1508.223056286065,-191.29664932867308,-8.667077091657006
2025-02-18 16:17:25.741,769,-112,638,-1,-1,-2,-10,-1,18,613,51,D,9.956740520240523,49.8913695131172,1533.824367633119,-223.39184548102642,3.4643087777244546
2025-02-18 16:17:25.858,762,-100,635,-2,0,-3,-10,-1,16,623,53,D,8.949458084208882,49.84890717004846,1526.346707276874,-200.30796683423543,-1.9555893973948741
2025-02-18 16:17:25.958,760,-92,625,-6,-2,-6,-10,-2,19,634,55,D,8.373803550907079,50.26561939893689,1529.0161209296955,-185.0914251651737,-7.41457313297326
2025-02-18 16:17:26.069,770,-87,630,-8,0,-6,-9,-1,21,671,58,D,7.862545622155016,50.44511709468718,1541.0149381664132,-174.11467483178956,-0.8304039543381805
2025-02-18 16:17:26.174,752,-106,643,1,-1,1,-12,-3,18,673,58,D,9.36114409508518,49.08799824723417,1507.7163039611928,-212.5238407179341,-3.1776375625623814
2025-02-18 16:17:26.274,750,-87,627,-3,-5,-7,-12,-2,19,650,64,D,7.8996916142652305,49.83531703699112,1514.1937427089465,-175.64647415423778,-11.865968904679221
2025-02-18 16:17:26.392,723,-95,648,0,-17,-34,-11,-5,19,615,86,D,8.340429254728432,47.82826622745577,1464.135891910277,-192.38300101172382,-16.254575322073947
2025-02-18 16:17:26.500,559,-295,686,30,-8,28,-10,-5,20,582,88,D,23.269114560429138,36.818046658271285,1158.2757780445359,-611.2546592542719,-49.4260889777305
2025-02-18 16:17:26.606,803,23,582,19,9,23,-11,-1,20,647,94,D,-2.2630885696579717,54.044828134723936,1612.47662903738,46.18550743195484,-4.694144582509466
2025-02-18 16:17:26.717,560,-291,683,-15,-38,-46,-11,-5,17,665,75,D,23.076986636429545,37.02732236917285,1162.195796274389,-603.9267441354414,-51.46380152751351
2025-02-18 16:17:26.824,679,-168,729,-3,-21,26,-11,-3,20,803,95,D,12.97739533781742,42.22762053099547,1351.0776303426328,-334.28724874456896,7.432117054817127
2025-02-18 16:17:26.926,1036,3,290,31,28,19,-11,-2,20,478,97,D,-0.5926938186167044,74.36106055973815,1998.979580700297,5.788550909363794,20.44007876149999
2025-02-18 16:17:27.037,525,-194,784,-48,50,24,-9,1,15,640,28,D,13.898596214388412,33.02536988213855,1070.0103348533733,-395.3942951648655,-29.882100047704057
2025-02-18 16:17:27.143,805,-90,632,7,-14,-8,-9,0,15,583,30,D,8.104716543006717,51.585099844301496,1588.5318971380939,-177.59983943158812,16.854460880403167
2025-02-18 16:17:28.456,753,-76,641,-2,-3,-6,-11,-2,18,525,56,E,6.76169287063033,49.39602253663967,1512.2261288688928,-152.62840078889226,-5.300064548420096
2025-02-18 16:17:28.557,745,-70,636,-3,-3,-7,-11,-3,19,509,62,E,6.280858892234766,49.34248416945191,1503.617651296767,-141.27951086009892,-11.625270100327384
2025-02-18 16:17:28.657,709,-99,637,-2,-17,-16,-13,-4,19,486,79,E,8.834008063950984,47.721809960735534,1448.8872273853003,-202.31288506508426,-27.75058370160275
2025-02-18 16:17:28.773,735,-256,700,17,-11,10,-11,-5,19,516,87,E,20.08818807214766,44.59969179913815,1437.1492229116043,-500.5580966875792,31.28645436990064
2025-02-18 16:17:28.875,805,21,581,8,-4,18,-10,0,17,470,96,E,-2.070030653041098,54.16279117359199,1615.683766801828,42.14827217743898,-4.1021969091452775
2025-02-18 16:17:28.990,720,-35,564,-55,56,-18,-10,-1,17,625,60,E,3.551035434368363,51.873751469499695,1506.6522608918299,-73.24004046001953,-52.21093769860022
2025-02-18 16:17:29.097,790,-58,619,-1,-33,-35,-11,-6,19,603,87,E,5.352957673249282,51.79808980081029,1575.8362754571501,-115.6943088310313,3.2624626481316454
2025-02-18 16:17:29.199,812,25,582,1,-30,9,-12,-5,19,620,91,E,-2.4596468433943692,54.343975216791996,1624.531162729012,50.016353532297174,-0.3807102318780835
2025-02-18 16:17:29.307,632,-132,626,30,17,30,-12,-4,19,773,92,E,11.907107815037008,44.65014814474381,1334.775984936197,-278.78232596768675,-70.10406102857496
2025-02-18 16:17:29.420,688,-84,571,21,-43,-17,-11,-4,18,544,88,E,8.368774889761365,50.00757490562241,1454.1294174735635,-177.53905678456294,-64.84287409506499
2025-02-18 16:17:29.523,713,-75,635,-6,-19,4,-11,-3,18,786,95,E,6.736011214119352,48.11445038344916,1457.4799544484806,-153.31135565727357,-28.03614456491607
2025-02-18 16:17:29.629,611,-75,572,13,50,27,-11,-1,18,667,61,E,7.469944847180173,46.64448605428056,1338.1079259762248,-164.2522004062469,-108.69678176497655
2025-02-18 16:17:29.739,1003,96,616,-8,-28,15,-10,-3,20,683,92,E,-8.85795876362835,58.136117290489935,1852.304628299964,177.2893761882318,94.3931694588457
2025-02-18 16:17:29.846,1031,70,577,-21,77,26,-11,0,18,774,69,E,-6.9171580521346065,60.58768696398944,1902.1082943043957,129.1441130953518,89.48352491402864
2025-02-18 16:17:29.953,723,-69,637,9,-15,-18,-9,-2,15,542,42,E,6.182189307374617,48.452480272460285,1471.4059022923784,-140.4246296793556,-22.383900083326353
2025-02-18 16:17:31.169,758,-50,638,-2,-1,-2,-12,-5,17,516,69,F,4.481105748108875,49.82661919754656,1522.0958210846425,-100.40209901613736,-5.130783445912698
2025-02-18 16:17:31.267,755,-46,636,0,-2,-3,-13,-4,18,462,71,F,4.136830870927964,49.81607969254337,1518.9771421083306,-92.54695170461352,-7.562201829004266
2025-02-18 16:17:31.374,766,-65,647,3,-13,-6,-11,-1,19,489,81,F,5.736895712322077,49.672095700471765,1528.3532384706045,-129.69054895638288,3.0802280803118265
2025-02-18 16:17:31.480,775,-33,626,-4,-4,-7,-11,-4,18,415,83,F,3.0175913760185735,51.031868927752605,1552.4958803749641,-66.10627619661136,-2.016027244809493
2025-02-18 16:17:31.590,842,17,588,14,-15,55,-10,-3,20,441,91,F,-1.656049316275656,55.06072996178356,1661.7595393686393,33.55096457157585,15.531343053729529
2025-02-18 16:17:31.689,809,9,583,17,7,9,-10,0,19,498,93,F,-0.8844272014924328,54.21862777734063,1620.2539552479825,18.025074903871253,-1.6242965507709641
2025-02-18 16:17:31.807,496,-258,754,-28,-3,-44,-10,-4,18,655,56,F,18.889667684615155,31.89800841358259,1024.4088243677106,-532.8578159009462,-49.266640268656715
2025-02-18 16:17:31.907,776,-131,617,-2,2,-1,-11,-3,20,410,85,F,11.98690333974582,50.89486782401494,1551.9899121967119,-261.99829703320773,0.008020843593953941
2025-02-18 16:17:32.016,721,-51,662,1,-17,13,-11,-4,20,744,94,F,4.405323788547368,47.35834268958917,1456.6047650445062,-103.03306937208018,-13.409645574844717
2025-02-18 16:17:32.124,640,-10,605,3,53,14,-10,-4,19,586,68,F,0.946951446773465,46.60639392300363,1366.6513419832681,-21.353927218488565,-81.91259671855812
2025-02-18 16:17:32.230,775,-24,657,11,1,-2,-10,-3,17,272,83,F,2.0920662794801457,49.691812758384984,1537.5758993220597,-47.61525365642507,10.532431155363724
2025-02-18 16:17:32.336,748,-2,634,0,-10,5,-11,-3,19,778,96,F,0.18074318440902826,49.71546294386407,1510.8428570807705,-4.039686783638424,-12.580710413380302
2025-02-18 16:17:32.447,902,77,570,-21,61,24,-10,-3,16,738,65,F,-7.6933836996896,57.475608341897235,1745.1626330294243,148.97729794153622,37.1810412120044
2025-02-18 16:17:32.554,718,-53,631,4,-8,-5,-12,-2,17,592,45,F,4.8012126883005015,48.59013372528927,1467.9971812819422,-108.3619089247116,-28.120085499868082
2025-02-18 16:17:32.656,736,-71,648,0,-5,-2,-10,-3,16,564,48,F,6.252835890233632,48.46856334621283,1484.592046268097,-143.21472185466695,-11.086475518650559
2025-02-18 16:17:33.674,751,-69,637,-2,-4,-3,-10,-4,18,687,65,G,6.182189307374617,49.53038359121876,1511.7502568784532,-138.8958291938925,-8.270191253761254
2025-02-18 16:17:33.774,770,-54,613,1,-8,-3,-13,-3,20,718,73,G,5.034267516639472,51.368611791485804,1551.178576710166,-108.78395213292075,-8.899308471859513
2025-02-18 16:17:33.885,791,-35,603,-4,-5,-2,-10,-3,19,754,84,G,3.3218985261867457,52.634312620036425,1585.7782161306052,-70.16717770489404,-2.880233030031718
2025-02-18 16:17:33.991,822,-30,613,-6,-4,-5,-12,-5,19,784,94,G,2.8017994607843937,53.25370805000681,1623.2925331939584,-59.244253036275865,15.442429625430009
2025-02-18 16:17:34.098,766,-94,631,7,1,-18,-11,-4,21,721,96,G,8.473034647182484,50.21077330514384,1534.4038696116731,-188.29499183224186,-1.9802111291979827
2025-02-18 16:17:34.204,883,91,499,3,-11,53,-11,-3,19,556,93,G,-10.335156347536108,60.12525569845629,1750.116395658914,180.36307135329685,8.976125216536957
2025-02-18 16:17:34.306,810,-11,594,-11,-10,-12,-10,-2,18,790,98,G,1.0609116902642277,53.74147790870718,1616.3566448062481,-21.950522336874975,2.6717938087514312
2025-02-18 16:17:34.421,776,-108,685,9,-3,39,-10,-2,20,769,99,G,8.959740541304587,48.21487649602214,1521.6490356007062,-211.77589670731479,26.791766254531353
2025-02-18 16:17:34.527,752,-110,649,-5,30,-29,-11,-4,19,772,93,G,9.619727799698852,48.80302838829154,1504.4497231044948,-220.06578396475325,-0.3881253920441168
2025-02-18 16:17:34.635,793,27,524,-10,-33,9,-12,-4,19,762,100,G,-2.9496548467081003,56.50904946275877,1626.9729862052518,55.39504492754325,-27.074205260469057
2025-02-18 16:17:34.739,1040,23,610,13,63,18,-10,-2,20,791,82,G,-2.1593097890821022,59.58897323226267,1902.4162653149615,42.07266740600396,104.15969053641675
2025-02-18 16:17:34.848,579,-116,719,16,35,9,-10,0,15,1,24,G,9.164852436402395,38.48487409940929,1201.308008923425,-240.67656137325957,-53.77972092563482
2025-02-18 16:17:34.955,695,-167,687,44,-20,-24,-10,-1,14,0,24,G,13.66279427593085,44.50934800501346,1396.0256242534538,-335.4478838134199,-5.956264549817092
2025-02-18 16:17:35.055,829,46,651,36,-29,23,-9,-2,15,0,53,G,-4.041831804154141,51.78871227491381,1614.735046544548,89.59929088184464,33.97525295476407
2025-02-18 16:17:36.274,732,-62,646,1,-6,-9,-11,-4,17,692,58,H,5.482184309546492,48.44080222789941,1480.2707047527533,-125.3781198014627,-14.35911922169214
2025-02-18 16:17:36.375,766,9,646,-8,-7,-8,-11,-4,17,674,84,H,-0.7981867749175499,49.85491705899761,1530.4143382342404,17.981369509279585,1.337255222820886
2025-02-18 16:17:36.486,715,-88,662,24,-11,46,-10,-2,19,615,89,H,7.571965443983856,46.953956129588825,1445.805399952937,-177.94527999420762,-14.633810865516466
2025-02-18 16:17:36.592,843,-85,649,13,7,17,-11,-4,18,631,93,H,7.46159939481106,52.172650004836946,1632.8623527352493,-164.6421114857606,40.90905465578089
2025-02-18 16:17:36.692,643,-113,657,-11,-16,-32,-11,-2,17,703,83,H,9.75904245791101,43.96558637697867,1337.2261873786574,-235.00242484259454,-52.34153204942129
2025-02-18 16:17:36.809,806,-23,629,0,-30,14,-11,-5,18,821,97,H,2.094143191775357,52.01306158644014,1594.151084053019,-45.49066368885787,13.929240856886963
2025-02-18 16:17:36.916,739,-20,564,-20,41,-28,-12,-2,20,828,76,H,2.03091423685311,52.631997275944585,1533.7536904241986,-41.508895545986434,-42.550854396817385
2025-02-18 16:17:37.026,779,-142,601,-14,-2,-22,-10,-3,20,798,93,H,13.293645332983726,51.594589726943944,1562.6348006619767,-284.8448545494232,-3.5757576352348224
2025-02-18 16:17:37.129,823,71,520,27,17,30,-9,-4,19,683,99,H,-7.77499967138174,57.47445946044724,1666.1518518564726,143.73849511763012,-12.732640298136062
2025-02-18 16:17:37.239,560,-199,757,-19,35,8,-10,0,15,752,35,H,14.728659525709672,35.58198275279638,1141.8672534820666,-405.7706847195202,-29.559840867722528
2025-02-18 16:17:37.341,780,-89,633,0,-4,-12,-9,-1,17,703,38,H,8.003341986828309,50.66467412573895,1553.449549907206,-177.25257684838633,5.315942190690635
2025-02-18 16:17:38.562,734,-56,643,5,-7,-8,-11,-5,17,373,69,I,4.977430920603295,48.67361162920721,1484.9600808572823,-113.29395712262645,-14.85740053301447
2025-02-18 16:17:38.656,771,-47,607,6,1,-8,-10,-5,18,55,82,I,4.427576997557164,51.7037634297066,1555.8170785545176,-94.84228624132595,-10.878037201805228
2025-02-18 16:17:38.771,684,-16,652,-13,-32,15,-12,-4,21,789,100,I,1.4057492610463351,46.363478113101856,1407.7321321089998,-32.92940659904093,-37.87331891091799
2025-02-18 16:17:38.869,936,5,658,23,52,2,-10,-5,19,766,89,I,-0.4353698842664391,54.89233118667756,1754.0727479195455,9.37004673033945,82.90185028732844
2025-02-18 16:17:38.980,726,74,661,-18,-8,-19,-12,-5,18,665,86,I,-6.387755888655449,47.50545387288131,1463.3416415767506,149.15603509184513,-10.326205347427162
2025-02-18 16:17:39.086,763,34,569,29,-7,47,-11,-2,22,617,96,I,-3.4195833447790487,53.237670393489836,1564.125039335437,69.69888772923309,-28.431385821577237
2025-02-18 16:17:39.195,917,-17,677,11,48,14,-11,-1,17,593,77,I,1.4384395925802256,53.553772076609114,1721.4147475800028,-31.912814295376275,83.11910129589774
2025-02-18 16:17:39.303,841,-20,427,-5,-6,-5,-10,0,18,288,90,I,2.681683156420656,63.05642830259139,1732.4532089353215,-41.19983850024546,-25.6165519802405
2025-02-18 16:17:39.410,689,-46,650,2,-20,14,-9,-3,20,814,103,I,4.048029350742212,46.59689430019968,1415.5374265400728,-94.50612717103533,-35.41266654723847
2025-02-18 16:17:39.516,651,-80,562,-17,54,8,-10,-3,16,698,56,I,8.10155438466336,48.91190206695382,1404.6999327700119,-172.62057545560822,-88.65954257564783
2025-02-18 16:17:40.825,738,-68,651,-1,-4,-6,-12,-1,17,593,60,J,5.963187670969327,48.42976292295387,1486.1428733649295,-136.93457369758158,-8.947168781258938
2025-02-18 16:17:40.929,763,-94,651,3,-2,-4,-10,-2,19,605,66,J,8.216335455372763,49.236702719565166,1520.4134706351695,-187.31175129712443,4.766488357149115
2025-02-18 16:17:41.036,714,-48,649,6,2,-14,-12,-4,17,488,66,J,4.2298909362667425,47.652510512803836,1453.073015966991,-97.68558090534395,-22.790458491004642
2025-02-18 16:17:41.151,1134,-144,468,28,-16,-31,-11,-4,17,285,81,J,17.10272896905237,66.64566499357285,2052.0708628165294,-260.5804270243211,89.11361217095623
2025-02-18 16:17:41.253,777,-17,624,8,-1,2,-10,-3,20,828,101,J,1.5605566988954505,51.222065018467646,1556.5792167875968,-34.056430740526565,-2.0713401228575776
2025-02-18 16:17:41.364,642,-169,639,7,-20,-14,-11,-4,17,684,77,J,14.814156707433659,44.165865448326926,1338.7378722675871,-352.409190674801,-54.482087817738716
2025-02-18 16:17:41.469,736,-45,665,20,-12,61,-11,-2,19,664,99,J,3.8712562319856305,47.83604506775668,1477.2270325197774,-90.31958758612768,-4.722794328331247
2025-02-18 16:17:41.577,950,-160,520,34,39,-44,-10,-1,18,175,93,J,17.10272896905237,60.200513633147565,1817.7699085016486,-306.1507214318566,45.01015534646609
2025-02-18 16:17:41.683,498,-186,787,-18,32,30,-10,0,15,570,32,J,13.297316675821635,31.625492286575362,1022.3648081335006,-381.8470970137171,-41.66486747201782
2025-02-18 16:17:41.790,761,-61,659,4,-12,-12,-9,-1,16,525,36,J,5.288484822448023,48.987566439065944,1515.567193329987,-121.48436109478214,5.570590795714224
2025-02-18 16:17:43.109,738,-84,641,4,-12,-10,-12,-5,19,681,84,K,7.46579689772783,48.78197091611109,1490.2076038948753,-169.6171256465712,-12.340208803001588
2025-02-18 16:17:43.208,651,-244,708,26,4,15,-12,-5,19,617,88,K,19.015629408814718,41.00091008345423,1307.0710166790527,-489.9006575571258,-5.5150227477255385
2025-02-18 16:17:43.303,794,79,597,2,0,11,-11,-1,19,375,94,K,-7.53805806759651,52.82173122760089,1590.7591739688553,158.27452738481054,-2.074593021922624
2025-02-18 16:17:43.422,687,-210,704,-22,-16,-30,-8,-4,18,830,103,K,16.609602931103304,43.08017116692957,1370.02103935801,-418.7837238212258,4.077421094557394
2025-02-18 16:17:43.522,810,-58,610,4,6,-2,-9,-1,21,827,0,K,5.431466832327515,52.893116679529896,1607.511455709554,-115.10575855698039,9.404953107619917
2025-02-18 16:17:43.632,699,-27,613,1,0,-12,-10,-1,18,622,61,K,2.5220013282783933,48.72277734208358,1450.5264509410165,-56.02891870587617,-46.06396913711467
2025-02-18 16:17:43.743,867,-95,608,-15,-24,-2,-10,-4,19,742,95,K,8.880659150520245,54.63372353842759,1682.468611755232,-184.3535387736413,36.137351848695744
2025-02-18 16:17:43.850,826,-68,559,14,-5,26,-10,-1,21,784,105,K,6.935713801443513,55.716013965771936,1652.2557657453742,-136.02105577564822,-0.17309086157888487
2025-02-18 16:17:43.956,548,-257,713,-19,34,3,-10,2,17,683,43,K,19.821637612444903,35.86869827481349,1133.929728788981,-531.7882122240295,-49.35017632580946
2025-02-18 16:17:44.058,856,-28,591,2,7,-2,-9,-2,18,577,49,K,2.712492573196678,55.34796607128513,1678.620334265929,-54.90814177505375,23.04600753368686
2025-02-18 16:17:45.382,746,-53,617,0,-5,-4,-10,-3,17,616,86,L,4.90962767101078,50.3031363579093,1515.434519898863,-107.66491897404791,-19.382169943161557
2025-02-18 16:17:45.480,791,-72,620,-14,-7,-5,-11,-2,18,639,92,L,6.624032634517511,51.72354033572954,1576.0309444500551,-143.4566725668824,4.6786528962906
2025-02-18 16:17:45.587,717,-184,697,4,-4,17,-11,-3,17,559,95,L,14.788062832793338,44.84547444760682,1422.1971592471639,-364.9710980494814,11.473612279953613
2025-02-18 16:17:45.689,853,18,565,5,-5,17,-10,0,19,486,100,L,-1.8247350914505018,56.46739786407976,1686.5716268761344,35.59002260699933,12.868734835854525
2025-02-18 16:17:45.786,820,-33,576,-1,-30,14,-9,1,20,713,104,L,3.2789862588544216,54.87012978929782,1637.8498367417524,-65.9134690396071,1.5103585814033522
2025-02-18 16:17:45.905,859,-63,513,6,43,-16,-9,1,19,790,94,L,7.001267557495337,58.964988688696714,1715.8524201547464,-125.84249414406173,1.2825476840686179
2025-02-18 16:17:46.003,621,-149,688,-1,-4,-12,-8,2,17,689,41,L,12.21981959784053,41.41762545716613,1282.5425848918403,-307.72760893540124,-44.91674461447019
2025-02-18 16:17:46.119,775,-90,634,2,-4,-8,-10,1,18,688,53,L,8.079487721109253,50.43423509759251,1545.8939757124604,-179.52317137305994,3.3589927720000787
2025-02-18 16:17:47.539,769,-52,621,-1,-1,-5,-11,-3,17,618,88,M,4.786547784726936,50.97978288364992,1545.9238540804668,-104.53581327982349,-6.398847053276768
2025-02-18 16:17:47.635,784,-53,608,-4,-2,-8,-12,-2,19,578,91,M,4.981939971257346,52.10098686274562,1573.0946651684949,-106.3444097626661,-3.9509648245468725
2025-02-18 16:17:47.745,854,51,581,23,-14,49,-11,-2,18,456,98,M,-5.016547518636701,55.669115984291615,1679.794418314607,100.31559172604796,19.18904327776761
2025-02-18 16:17:47.852,847,96,509,-5,18,-45,-8,-1,17,628,91,M,-10.680810615314654,58.55256784799434,1700.119188464893,192.69355618964545,-3.677292713849397
2025-02-18 16:17:47.953,778,-91,536,-20,-9,-10,-13,-2,18,702,90,M,9.635577741374142,55.053975073302105,1597.6920142525921,-186.87657236116436,-28.723547094330797
2025-02-18 16:17:48.065,814,97,621,9,-21,35,-11,-5,20,742,100,M,-8.877844601251345,52.32647785279415,1605.506050838217,191.31951711462779,17.160617235217728
2025-02-18 16:17:48.175,731,-203,659,-19,-6,-23,-12,-2,20,828,105,M,17.12105579842407,46.67102539137507,1458.4258446814097,-405.0074507118005,3.22211813262777
2025-02-18 16:17:48.282,921,67,540,25,-16,64,-9,-3,22,592,107,M,-7.072774941438434,59.42476945734262,1781.9620095386708,129.6324154604679,35.201427632049786
2025-02-18 16:17:48.387,866,-44,524,-43,93,22,-10,-1,20,719,53,M,4.7998361139047,58.733446735371565,1720.7619567484385,-87.42901396874284,6.7999245540625
2025-02-18 16:17:48.499,730,-174,659,11,-26,-18,-10,2,16,662,39,M,14.790628285868397,46.96441339491105,1460.9299690598411,-348.2216638580992,-0.8395200142949761
2025-02-18 16:17:48.597,773,-80,624,-4,5,4,-9,-2,17,658,47,M,7.305759533310827,50.85952439176181,1548.6006834921325,-160.26915223721937,-2.0993874503112693
2025-02-18 16:17:49.819,760,-60,617,-2,-1,-7,-10,-5,18,506,77,N,5.5542487018331546,50.79684895617072,1534.9097283920405,-121.17708382042426,-12.10434528669623
2025-02-18 16:17:49.916,778,-66,605,-6,-3,-11,-13,-4,19,508,90,N,6.225829064425768,51.96575756943071,1565.6426670308824,-132.81801545506198,-7.498475004734928
2025-02-18 16:17:50.026,834,109,557,16,-12,37,-10,-1,20,368,97,N,-11.072356311709466,55.76339925106501,1660.7213446729106,217.0487129128864,4.861164289195244
2025-02-18 16:17:50.133,920,-58,642,-27,45,-29,-9,-2,19,551,78,N,5.1622402709453405,54.98229865816382,1738.9748006530501,-109.63102004117056,70.4980195442846
2025-02-18 16:17:50.235,802,-112,551,-8,-1,-5,-13,-3,18,636,93,N,11.489793067596539,54.96639585080928,1620.8154990930702,-226.34829912521678,-11.55279301780763
2025-02-18 16:17:50.335,784,170,562,17,-24,32,-10,1,20,719,103,N,-16.830098967850024,53.169924058685694,1584.4168186600737,343.55976935231183,-11.768178682348434
2025-02-18 16:17:50.456,848,-207,601,-47,-6,-81,-10,-2,19,803,108,N,19.005037267920898,53.14527147745198,1648.1588226485705,-402.3217880757712,33.906306118171415
2025-02-18 16:17:50.559,880,61,611,-23,48,35,-10,-2,21,828,76,N,-5.701308454464225,55.09382728237302,1700.0902314097773,117.84716376817774,41.5964416007115
2025-02-18 16:17:50.669,748,-120,620,7,-4,-4,-10,-2,18,719,54,N,10.954062643398334,49.826950933633526,1512.09955614392,-242.582816493677,-13.344551883997838
2025-02-18 16:17:50.772,758,-87,629,-3,8,3,-11,-1,17,688,48,N,7.874888988547371,50.046576853011494,1524.5667244896727,-174.9832520192632,-7.108799081799361
2025-02-18 16:17:52.588,783,-75,602,-1,-2,-1,-12,-2,19,738,83,O,7.10158728477602,52.232136865141754,1573.4986640205566,-150.71826283721805,-5.765256373403531
2025-02-18 16:17:52.688,789,-63,608,-2,0,-1,-11,-1,20,753,83,O,5.915786326548434,52.23428608528982,1579.5216375730179,-126.12149957807368,-1.172567356647619
2025-02-18 16:17:52.796,788,-79,607,-2,-2,0,-10,-3,18,762,83,O,7.415266041887483,52.15989981864866,1577.7258573806325,-158.1730237729314,-1.3294358249286233
2025-02-18 16:17:52.901,783,-85,593,-1,-4,1,-12,-2,21,781,84,O,8.15715418383286,52.5809680644192,1577.2128247169403,-171.21722873683257,-8.491960481667206
2025-02-18 16:17:53.001,806,-54,626,-3,-10,-3,-9,-2,20,811,98,O,4.93024274766301,52.061473191653405,1594.6708490314577,-106.83898988548226,13.459117253483441
2025-02-18 16:17:53.118,705,-71,620,1,9,-12,-11,-2,20,646,102,O,6.532832996772786,48.4853802143399,1453.7866200276335,-146.4097163432085,-38.50738215196134
2025-02-18 16:17:53.218,968,151,520,9,-17,61,-10,-1,20,579,97,O,-16.192484235140707,60.778199316806564,1840.7363865582133,287.13966360567167,51.17466837781939
2025-02-18 16:17:53.336,760,-45,613,-16,-3,-65,-9,-1,21,789,110,O,4.198521264845236,51.035822989741725,1537.5392789673156,-91.0385099388542,-14.146813167058326
2025-02-18 16:17:53.438,1237,93,612,6,67,29,-11,-2,19,755,83,O,-8.640606413823958,63.41546702832087,2131.2750770787607,160.23329197115984,169.56156251236746
2025-02-18 16:17:53.545,553,-119,705,2,-3,7,-8,1,16,618,28,O,9.580892288388261,37.7203768768896,1164.808395086335,-250.65497109452778,-74.9727279129587
2025-02-18 16:17:53.651,828,-66,636,4,-15,-1,-9,-2,16,636,40,O,5.924581981982492,52.32321677274671,1619.4712643410098,-129.08828918660222,28.05830420183304
2025-02-18 16:17:55.174,766,-61,617,-2,-1,-1,-11,-3,17,686,83,P,5.646226215999645,51.012945256090156,1543.2881285959827,-122.89892407879236,-9.092396010080051
2025-02-18 16:17:55.269,788,-61,618,-2,-1,-1,-12,-2,20,705,84,P,5.637148820074019,51.75923371447136,1573.4166930703886,-121.80002319453519,2.0259945209386387
2025-02-18 16:17:55.376,779,-58,617,-3,0,-4,-11,-4,18,717,82,P,5.370207957382144,51.496598192179135,1561.5711950690193,-116.26589128883585,-2.8285331933053612
2025-02-18 16:17:55.482,767,-51,615,-2,-2,-3,-11,-1,18,723,85,P,4.740510573891178,51.18062374199157,1546.1260158078994,-102.80629309804806,-9.722946182344117
2025-02-18 16:17:55.593,770,-71,614,-6,-1,-6,-10,-2,18,694,95,P,6.596111874896228,51.2454255816187,1549.8345077147533,-142.9068182438279,-7.8420619959199485
2025-02-18 16:17:55.700,901,108,555,14,-16,43,-10,-4,18,477,101,P,-11.011830171644371,57.890224582123594,1748.0312454263471,209.53093729860763,33.2437944377109
2025-02-18 16:17:55.800,918,24,573,-5,6,-18,-11,0,20,664,95,P,-2.398421334092505,58.005730973637114,1766.1010967489233,46.17257769278231,43.6297075848222
2025-02-18 16:17:55.916,602,-105,672,-6,-25,-50,-10,0,17,760,74,P,8.880659150520245,41.51185233849559,1264.7749647632813,-220.60028455173506,-67.84182113110444
2025-02-18 16:17:56.023,725,-49,646,4,-27,26,-10,-5,18,833,100,P,4.337658614083027,48.21621545535211,1470.6646072364306,-99.39664242011739,-18.41287762032323
2025-02-18 16:17:56.127,974,20,335,10,29,13,-12,-1,22,682,102,P,-3.4165881917713445,70.9883579740297,1919.452403339209,39.41380705008642,9.81873191105251
2025-02-18 16:17:56.236,477,-199,792,-23,41,24,-9,-1,15,755,31,P,14.10431089003324,30.289902188470027,981.375451098053,-409.4207856782234,-45.45357918167292
2025-02-18 16:17:56.342,799,-83,618,9,-21,-8,-8,-1,18,743,37,P,7.649291721627474,52.03111652515335,1587.3449943960009,-164.8931596181077,8.241293445896986
2025-02-18 16:17:56.434,720,-97,656,1,-12,-7,-10,1,18,716,44,P,8.411141458481872,47.35438088697159,1455.5579226879856,-196.09599791768693,-14.174996226831354
2025-02-18 16:17:57.764,817,-52,595,-1,-5,-1,-9,-2,20,806,84,Q,4.994671807621653,53.831324819172174,1624.2830881841576,-103.3815429444017,7.076575924634312
2025-02-18 16:17:57.866,807,-52,592,2,-10,-5,-10,-4,18,825,97,Q,5.019853642019552,53.63185734259691,1612.2236230315157,-103.88553704787958,1.3031166856787877
2025-02-18 16:17:57.967,803,-59,622,-3,-2,-10,-10,-2,20,825,103,Q,5.418596152111542,52.11450756876525,1592.2395995245497,-116.98896185796816,10.65874109057279
2025-02-18 16:17:58.076,834,-257,621,61,31,5,-10,-2,18,501,93,Q,22.48215073804419,51.13639741554423,1612.6419079789425,-496.94121145154463,41.21987427467218
2025-02-18 16:17:58.191,816,150,682,-37,-41,22,-9,-1,17,735,102,Q,-12.404213169109651,49.444385693816635,1575.7752189476673,289.6645623065565,46.991790046189976
2025-02-18 16:17:58.283,958,-117,517,8,27,-33,-10,-2,20,757,0,Q,12.751564886517444,61.04368689056035,1832.9891105403367,-223.8619268613981,44.798152244933135
2025-02-18 16:17:58.398,590,-32,668,-3,-2,24,-9,-1,17,702,56,Q,2.7426113574815973,41.41944214472721,1251.5663620141158,-67.88156539737577,-81.02767767021919
2025-02-18 16:17:58.509,1184,-103,599,2,-4,-4,-10,-3,16,758,93,Q,9.756779937681253,62.82688972855875,2073.6307979267176,-180.39186840071955,148.9249594948446
2025-02-18 16:17:58.616,734,-2,611,-3,-39,44,-11,2,19,735,107,Q,0.18754688995042107,50.22500369170802,1502.5627922174785,-4.094176545551713,-28.770934666048447
2025-02-18 16:17:58.726,1081,37,619,-23,101,12,-10,-2,18,736,71,Q,-3.4207180141744953,60.159693628222676,1948.4156279828146,66.68952658220547,122.30224447607588
2025-02-18 16:17:58.828,720,-120,668,5,-10,-10,-9,0,15,630,35,Q,10.184033196024098,46.69160583190539,1447.6722734318314,-241.27871223863855,-7.118164795087864
2025-02-18 16:17:58.935,708,-103,674,-2,-1,-3,-8,0,17,606,36,Q,8.688662057102306,46.078951595730395,1428.2963322253283,-207.78887319097288,-11.705830395298335
2025-02-18 16:18:01.054,784,-52,605,-1,0,-1,-12,-3,19,687,85,R,4.912522620789718,52.24118567017712,1574.595381446662,-104.43744876942147,-5.08954818269217
2025-02-18 16:18:01.150,785,-49,609,-1,-1,-2,-11,-2,17,685,84,R,4.60009566626328,52.10626043526164,1574.151200124278,-98.25911949820332,-3.2204851919556177
2025-02-18 16:18:01.257,769,-52,614,-3,-1,-4,-12,-3,18,638,88,R,4.840859675664153,51.29487937419998,1549.3745251725206,-104.76914864625627,-9.081870553872136
2025-02-18 16:18:01.368,797,-62,605,-11,-2,-6,-12,-4,20,564,94,R,5.851207497321026,52.65375305973739,1591.9840913474268,-123.8431790006781,1.5302694288667453
2025-02-18 16:18:01.475,720,-12,666,21,-11,52,-11,-3,18,519,98,R,1.032244691565731,47.22653917361051,1454.0445002479394,-24.234075004132322,-12.991162729343955
2025-02-18 16:18:01.581,772,-66,560,-2,28,-52,-10,-1,19,682,90,R,6.721709119960218,53.855265444210495,1579.5296136081083,-135.0375058265999,-25.772776710544576
2025-02-18 16:18:01.691,839,-40,622,-16,-28,-5,-10,-4,19,797,94,R,3.679549238450457,53.39170606807951,1641.7311594017438,-78.27085384513677,26.888222708123067
2025-02-18 16:18:01.798,784,-36,512,18,12,10,-10,-3,18,714,100,R,4.021990177020111,56.78829187555695,1620.652404006809,-74.4177124288841,-34.38524343301833
2025-02-18 16:18:01.904,722,-29,659,-16,-48,45,-9,-3,20,712,103,R,2.5197363932030834,47.58437382904736,1460.2714119338,-58.65356086714708,-14.851607291376808
2025-02-18 16:18:02.007,1140,42,554,17,81,5,-9,-1,20,755,87,R,-4.335430085840203,64.01727321516161,2038.9261631650802,75.11833232713454,117.15342597065393
2025-02-18 16:18:02.116,565,-177,713,2,-7,-15,-10,2,16,503,28,R,13.941664848790623,37.56326178827069,1174.6370202053977,-367.9836328785051,-56.32954939194417
2025-02-18 16:18:03.838,785,-84,621,-2,-5,-1,-10,0,18,727,61,S,7.703398276600374,51.4000828902459,1566.5213749894228,-167.62776496702102,2.7518804223802817
2025-02-18 16:18:03.933,747,-81,614,1,-17,-4,-12,-3,17,787,67,S,7.515167839786726,50.33868696895814,1516.8306852265432,-164.47561647034806,-18.765784108564276
2025-02-18 16:18:04.043,781,-75,589,2,-20,-16,-13,-2,20,815,100,S,7.256675522776524,52.75606000591909,1577.0660182453134,-151.44680072778297,-11.362208382188896
2025-02-18 16:18:04.149,790,-28,616,1,-1,-11,-11,-2,20,803,104,S,2.6025622024998065,52.026112594847966,1578.2912599416718,-55.93943706122381,1.3323846530762467
2025-02-18 16:18:04.252,855,5,482,27,19,-4,-10,-3,19,681,100,S,-0.5943332414715261,60.586869136807174,1726.10128449266,10.094159558436608,-9.07698143328895
2025-02-18 16:18:04.362,780,62,666,19,-21,36,-10,0,20,771,101,S,-5.318512697530538,49.38565573800417,1539.1083592227556,122.33938239975748,17.838247125185717
2025-02-18 16:18:04.469,711,-71,577,-6,46,-8,-10,2,19,622,102,S,7.0149968520299275,50.728718788170525,1485.1575866924368,-148.3068757456582,-51.25446908795482
2025-02-18 16:18:04.575,540,-161,707,-21,66,31,-9,-1,15,655,34,S,12.82878287145542,36.675972130589,1137.28885744341,-339.08056675627597,-75.00596706016847
2025-02-18 16:18:04.682,702,-108,699,8,-24,-3,-8,1,15,603,27,S,8.783115356117767,44.78476428491196,1406.4455006919543,-216.37623087568528,-2.4350498342963647
2025-02-18 16:18:04.781,738,-98,676,-5,-5,-5,-9,1,16,539,32,S,8.248726986964726,47.21374898369232,1471.8928855318854,-195.45461081588724,3.7620723312268183
2025-02-18 16:18:04.895,735,-83,678,-2,3,-4,-8,-1,14,506,33,S,6.979358243736786,47.09760138853355,1467.5144006733087,-165.71931327331242,2.2928385625806413
2025-02-18 16:18:05.005,736,-103,663,-3,-1,-2,-10,2,16,494,34,S,8.830563916368524,47.647041803363415,1475.0087170939892,-206.4210568759251,-2.7102981430907676
2025-02-18 16:18:06.624,751,-63,629,-2,1,-4,-11,-2,18,646,59,T,5.7196118340272495,49.91132179690446,1516.0486665090998,-127.17851663125607,-11.766459699366237
2025-02-18 16:18:06.717,765,-36,639,9,-8,-10,-11,-2,17,573,70,T,3.224522606519908,50.083518258378426,1531.9806002539658,-72.09320471783369,-1.6543837415479175
2025-02-18 16:18:06.823,836,-57,656,-3,0,-14,-12,-4,17,413,88,T,4.965971764853467,51.774419521217574,1621.5807180367867,-110.56232168432638,39.56345570319138
2025-02-18 16:18:06.934,1072,-30,564,2,-26,-19,-12,-4,19,400,89,T,3.0447784441939847,62.21690590755463,1956.7185504971064,-54.75891465943394,98.53240440264182
2025-02-18 16:18:07.041,748,-11,618,8,-15,2,-12,-4,21,811,109,T,1.0197201115743701,50.43191726192122,1518.8682074475882,-22.33629716834688,-18.893786367124903
2025-02-18 16:18:07.147,735,24,549,-21,59,9,-11,-2,19,733,71,T,-2.503139779584906,53.216292961159,1535.9016804063685,50.1518916051059,-49.224520466797685
2025-02-18 16:18:07.254,804,15,429,-15,-5,-7,-11,-4,19,741,94,T,-2.002533131826883,61.901877803267055,1686.1423024165165,31.457878776427556,-41.69533300582799
2025-02-18 16:18:07.364,791,126,552,23,-15,46,-11,-2,17,599,101,T,-12.858090172998182,54.40491054320507,1604.1506489954263,255.52842196387323,-15.457848603635057
2025-02-18 16:18:07.466,908,-25,561,-6,22,2,-9,0,20,723,89,T,2.5515996886778245,58.26509103943614,1758.4907941023591,-48.41659675391958,35.53156884204475
2025-02-18 16:18:07.573,705,-118,670,0,-3,-6,-10,-1,16,685,49,T,9.988464890917669,46.020987594135086,1424.5942072542302,-238.44271837730378,-13.869672142318109
2025-02-18 16:18:07.684,761,-62,634,-3,-1,-3,-10,-1,16,638,52,T,5.585297974342883,50.067687058439375,1527.803273266299,-124.47280281538833,-4.834790079938671
2025-02-18 16:18:07.781,780,-50,627,-5,5,-2,-9,0,18,649,53,T,4.559393011841242,51.117363963271885,1558.4334222202242,-99.89957834745027,1.2592875229735228
2025-02-18 16:18:09.506,780,-47,622,-1,-1,-2,-10,-4,19,686,74,U,4.321212032686706,51.3503518127664,1560.9795722259523,-94.05902550592276,-0.7811460571053885
2025-02-18 16:18:09.606,779,-44,620,-1,-1,-1,-11,-2,18,694,75,U,4.05934636479925,51.41384787467916,1560.671235679592,-88.15087852362265,-2.1260155601373754
2025-02-18 16:18:09.712,777,-44,615,-2,0,0,-11,-3,18,695,74,U,4.092237507876202,51.56698285374454,1560.3353859011004,-88.35876059156811,-5.014494632144988
2025-02-18 16:18:09.822,788,-40,618,-1,-2,-1,-10,-3,19,693,73,U,3.7032990291142185,51.83601759100244,1574.2454851949,-79.91093833476648,1.3760027278578946
2025-02-18 16:18:09.929,802,-48,624,-3,-2,-4,-11,-2,19,706,74,U,4.398705354995532,52.03318198777219,1590.3671725094096,-95.18407017512678,10.607087723352038
2025-02-18 16:18:10.030,768,-50,613,-1,-1,1,-11,-2,18,752,72,U,4.663068592067396,51.31128207700346,1548.5535083577697,-100.8172857003756,-10.019922686605241
2025-02-18 16:18:10.141,781,-64,630,-1,-3,1,-10,-4,20,766,73,U,5.800624143716974,50.96452222941815,1557.7561348522863,-127.65223128110925,3.4233483265808218
2025-02-18 16:18:10.248,774,-45,612,-3,-2,-2,-11,-2,19,764,78,U,4.205357001708586,51.59148360806681,1557.601121834513,-90.5582047578205,-7.591584706358958
2025-02-18 16:18:10.359,887,-68,645,-15,-7,-8,-11,-3,19,752,95,U,6.018253924408499,53.82572059563902,1694.225359072419,-129.88424398751354,58.009744530202624
2025-02-18 16:18:10.463,764,-223,662,24,-3,22,-11,-4,20,676,97,U,18.616510214561345,47.56228513121403,1502.0113220470805,-438.4142994980353,22.518985346639738
2025-02-18 16:18:10.571,810,40,588,10,-23,28,-12,1,20,668,105,U,-3.8916762940807565,53.96022659074527,1618.60877251103,79.93129740795209,1.0099281031042437
2025-02-18 16:18:10.681,741,-171,617,-20,-2,-41,-11,-1,20,831,111,U,15.490579485107853,49.171489834322855,1497.669822298778,-345.61611283817956,-13.047611819630333
2025-02-18 16:18:10.784,742,-337,805,17,13,73,-10,-3,20,730,0,U,22.715820769368943,40.37255886225689,1389.7550969542472,-631.1960480776029,102.24682877605255
2025-02-18 16:18:10.891,921,-14,509,23,10,-25,-10,0,20,706,0,U,1.5755181264423657,61.063147394429045,1796.153499036178,-27.30309336211345,25.337534191732402
2025-02-18 16:18:10.998,555,-179,701,-9,8,-1,-9,1,17,698,36,U,14.324352569156613,37.49224130103997,1163.653991609924,-375.304620717435,-67.7683749883904
2025-02-18 16:18:11.098,780,-107,627,-4,-1,-8,-10,-1,19,688,42,U,9.684455158839441,50.80388284043147,1554.9873185075653,-213.3123629234737,4.029424738149373
2025-02-18 16:18:12.420,744,-42,649,-1,-1,-1,-10,-2,17,425,69,V,3.7027300004619503,48.84210635736667,1496.8987729827106,-84.50235008773365,-7.76250492712245
2025-02-18 16:18:12.521,747,-45,645,-2,1,0,-11,-2,18,426,69,V,3.9909130984297803,49.12208572486196,1503.1057950423979,-90.54854187002395,-7.862433470343262
2025-02-18 16:18:12.628,756,-36,655,-3,0,-1,-11,-3,16,439,68,V,3.145915828493418,49.05150522462888,1511.299030124855,-71.96662048213595,0.60732178335968
2025-02-18 16:18:12.738,750,-38,651,-2,-1,-2,-12,-2,17,446,68,V,3.340663375883038,48.99377530535597,1504.6383005868124,-76.23500722973182,-4.026044909353118
2025-02-18 16:18:12.844,750,-35,650,-1,-1,-1,-12,-2,19,452,68,V,3.0821808245281446,49.04456272184576,1505.219612452751,-70.24358191446171,-4.523664125717346
2025-02-18 16:18:12.951,756,-38,650,-3,0,0,-12,-5,15,455,68,V,3.3457911911976312,49.26311436106865,1513.71437392164,-76.08617223415649,-1.4739987421505703
2025-02-18 16:18:13.057,746,-43,646,-1,-2,0,-11,-2,17,504,69,V,3.808188080020193,49.046332699354465,1501.2398608860985,-86.5325925175633,-8.00127363595118
2025-02-18 16:18:13.164,750,-35,649,-1,0,0,-11,-2,18,547,67,V,3.0869207696404364,49.08810032115071,1505.7174706797678,-70.26681529838916,-4.947517961559015
2025-02-18 16:18:13.263,750,-40,652,1,-3,1,-11,-5,16,599,68,V,3.510678430267298,48.94518470661929,1504.0815784348456,-80.21768418319175,-3.548252186025479
2025-02-18 16:18:13.380,770,-18,651,0,-2,-2,-11,-3,16,645,71,V,1.5838115708619434,49.776204635019006,1533.527899376007,-35.8487041412573,5.471866891194281
2025-02-18 16:18:13.482,775,-21,642,-4,3,-6,-11,-4,19,609,70,V,1.8734930135999257,50.347036733740495,1544.9236895224676,-41.86244836125397,4.205150098807508
2025-02-18 16:18:13.594,759,-9,641,1,-1,-1,-11,-4,16,585,72,V,0.8044120658459503,49.81504479016136,1522.9654873061377,-18.05887929612021,-4.1935143125616605
2025-02-18 16:18:13.696,811,-30,611,-4,-3,-6,-11,-3,17,394,83,V,2.8109559685406142,52.97280563841745,1609.3497799467436,-59.53205104611874,9.530560360714844
2025-02-18 16:18:13.796,757,-99,662,-2,-27,61,-9,-5,17,693,92,V,8.50537042234625,48.51594144020281,1506.140052983649,-196.97208090539132,6.873560006373168
2025-02-18 16:18:13.914,796,37,583,13,-2,8,-10,-2,17,622,101,V,-3.6313970399058375,53.725591720853004,1602.1926303285768,74.47377804291123,-7.465205378844757
2025-02-18 16:18:14.024,708,-215,707,0,-6,-33,-10,-1,19,784,108,V,16.91461296766051,43.77393553191669,1399.8147657518068,-425.0849924246306,16.162373747842594
2025-02-18 16:18:14.130,758,-29,592,-32,66,48,-10,-3,18,794,0,V,2.804477083902039,51.97675589498625,1545.7609234253196,-59.1386105268262,-23.243359720038143
2025-02-18 16:18:14.237,764,-84,639,13,-16,-8,-11,0,17,649,47,V,7.488899201640063,49.849587210881836,1528.3543603881008,-168.03896108979117,-0.2963825759113661
2025-02-18 16:18:15.547,767,-68,636,0,-1,-2,-10,-2,20,536,58,W,6.102779653655784,50.17423364062339,1534.9955835860728,-136.08826555913032,-0.825542582453977
2025-02-18 16:18:15.651,767,-66,636,-1,-1,-1,-9,-3,18,549,57,W,5.924581981982492,50.1834668706076,1535.0987831278585,-132.09454978675183,-0.9111161268813248
2025-02-18 16:18:15.762,764,-68,634,-3,0,-1,-11,-2,18,591,58,W,6.121885363932559,50.15154242040832,1531.7418797508121,-136.33304688881572,-3.1051724633700815
2025-02-18 16:18:15.864,769,-64,634,-2,0,-1,-12,-3,20,615,57,W,5.764274364309307,50.35358673739455,1538.9966356397185,-128.0829449687152,-0.8216735963346764
2025-02-18 16:18:15.972,768,-58,632,-1,0,-2,-9,-2,19,651,58,W,5.243469505898692,50.430532254068794,1538.8528091839041,-116.21544652690946,-2.3476242242545595
2025-02-18 16:18:16.079,813,-50,637,-1,3,1,-9,-2,17,714,58,W,4.488111732274859,51.83520990644132,1599.2367745308525,-98.35404517409916,20.9694644819765
2025-02-18 16:18:16.187,666,-133,676,0,-2,0,-10,-3,17,751,49,W,11.130526975908877,44.029233939336606,1361.0253076853269,-271.7963452284512,-29.46112311603747
2025-02-18 16:18:16.294,805,-18,611,5,-7,-5,-10,-2,19,743,70,W,1.6874399825494708,52.78930708211664,1601.4170698619785,-35.80808354970884,6.514497284883419
2025-02-18 16:18:16.402,724,-73,641,3,-3,-15,-12,-3,19,663,81,W,6.497112351883042,48.296341821588356,1470.595707629573,-148.2782964875122,-20.005315732812505
2025-02-18 16:18:16.510,782,-56,637,0,2,-20,-11,-3,17,415,87,W,5.024075258539548,50.72645717264311,1556.1326001895334,-111.43660564017117,6.408610843052884
2025-02-18 16:18:16.617,854,-169,635,2,-11,5,-12,-4,16,565,88,W,14.903333767234338,52.42377213207791,1646.5427255876398,-325.83808035633615,45.697153690689674
2025-02-18 16:18:16.723,791,61,605,16,-6,14,-9,1,18,585,100,W,-5.757472344444181,52.44934706013214,1583.8148483536243,122.13995669983701,-1.3880951377277597
2025-02-18 16:18:16.829,693,-236,681,-21,-1,-51,-9,-4,20,808,105,W,19.113717438707123,43.87615497598888,1386.1018934680603,-472.03469965146064,-0.10012907900295431
2025-02-18 16:18:16.941,731,-91,621,22,-11,61,-10,0,19,690,104,W,8.336665783729245,49.35081647723587,1489.7123936936355,-185.44983286747032,-23.542266051638194
2025-02-18 16:18:17.046,900,100,462,-3,-25,-18,-10,-1,21,610,111,W,-12.213276546439406,62.290614890314025,1785.3174722548533,198.3686080283171,7.53703090917503
2025-02-18 16:18:17.154,843,28,580,26,5,-8,-10,-3,21,827,0,W,-2.7638573709125587,55.440142560382,1666.5340090750071,55.35344276880214,13.392971217670265
2025-02-18 16:18:17.262,607,-144,658,-5,12,14,-10,0,19,650,52,W,12.344280876890025,42.02406840891973,1276.4427223742712,-302.81343001959647,-67.68914550621139
2025-02-18 16:18:17.362,880,-39,581,-3,2,5,-10,-1,18,684,0,W,3.8402552206396865,56.50687388287844,1713.952032988374,-75.95923782562113,30.40212367472111
2025-02-18 16:18:17.470,775,-66,618,-2,7,0,-11,-2,20,590,65,W,6.0958615445958175,51.271994118409765,1555.1246987336676,-132.4364259566736,-4.086533957943743
2025-02-18 16:18:18.991,768,-72,626,-1,-2,-1,-10,-2,18,682,67,X,6.561099720548422,50.63188103094681,1541.0866362935535,-144.47687215252063,-4.146138437193258
2025-02-18 16:18:19.090,771,-82,625,-3,1,2,-11,-3,20,703,68,X,7.4745140142428905,50.73116194363107,1545.1845775072056,-164.33869695926182,-2.5815317016907784
2025-02-18 16:18:19.197,753,-76,632,-2,-2,3,-10,-1,20,751,64,X,6.857072334099267,49.7902852656945,1516.6865776590723,-153.0785921674495,-8.969345392474906
2025-02-18 16:18:19.303,772,-83,613,0,-3,-1,-10,-3,18,771,65,X,7.710936319754053,51.29525665902568,1552.3786427517446,-166.90081262745437,-6.652989646138849
2025-02-18 16:18:19.412,769,-101,615,4,-12,-9,-11,0,20,796,76,X,9.326299774142855,50.97686035503505,1545.8917388692662,-203.03649626241338,-6.3113386275664425
2025-02-18 16:18:19.521,802,-62,597,-1,-8,-10,-11,-3,19,816,97,X,5.929060734045871,53.18909323140298,1602.6173268947177,-123.89311005919262,1.029246688096805
2025-02-18 16:18:19.627,802,-80,596,-3,-4,-6,-10,-2,21,808,103,X,7.645013271670719,53.1371827092991,1602.0741391971235,-159.80789418425172,1.4311883273247759
2025-02-18 16:18:19.734,954,131,560,23,9,43,-11,-1,17,262,101,X,-13.166361739386467,58.91635474931704,1810.4144911698754,248.59989344156574,57.28289826506244
2025-02-18 16:18:19.844,882,129,535,-18,32,-51,-10,-3,16,581,85,X,-13.55647512620682,58.03749070253114,1730.394659939942,253.08493325652213,20.384191533028456
2025-02-18 16:18:19.951,804,-77,543,-7,-1,-11,-11,-2,20,540,93,X,8.071004098153983,55.700938783894536,1630.1075276858855,-156.11726322364825,-14.930830265467534
2025-02-18 16:18:20.057,820,-6,543,6,-16,30,-10,-1,21,554,108,X,0.6330767714311314,56.48605830087499,1653.7514953537975,-12.100620697710713,-9.106173142819557
2025-02-18 16:18:20.164,924,-85,514,-41,80,7,-10,-1,17,609,56,X,9.390001918868322,60.58430318918667,1795.0792899292078,-165.1317528614531,29.438576814271812
2025-02-18 16:18:20.274,689,-123,645,10,-27,-14,-10,1,17,531,39,X,10.79654317182435,46.37831848935474,1412.9108480781506,-252.23227041162917,-32.68141801220179
2025-02-18 16:18:20.377,744,-113,648,-3,5,2,-10,-1,17,524,46,X,9.891925100730312,48.51973699595956,1493.1839327624589,-226.7873446265562,-4.5150382124637645
2025-02-18 16:18:22.590,756,-75,632,1,0,-1,-10,-2,20,527,74,Y,6.767690062801115,49.90782817114959,1521.009398690423,-150.89378955262134,-7.531666630089262
2025-02-18 16:18:22.691,752,-67,625,3,0,-2,-11,-4,18,531,77,Y,6.118740433098137,50.10846066393263,1519.2598640359477,-135.3595889500113,-12.682732742642656
2025-02-18 16:18:22.794,807,2,587,4,4,-3,-11,-4,18,501,90,Y,-0.19521484771613457,53.96824710959716,1615.6911239858568,4.004191137511416,-1.23009885960073
2025-02-18 16:18:22.908,771,-24,608,-3,-2,-4,-12,-3,18,470,91,Y,2.260501911141272,51.7194844710802,1555.9870922739833,-48.43539586845084,-11.030028667421561
2025-02-18 16:18:23.010,768,-8,634,-1,0,-1,-12,-4,18,446,92,Y,0.7229367684375153,50.45737781925817,1539.1511930024476,-16.032824927108827,-2.6013754733744463
2025-02-18 16:18:23.121,774,-30,621,-1,0,-2,-9,-4,19,448,92,Y,2.765761834249503,51.226436008292005,1553.6269940735383,-60.21810054548599,-4.514681291560009
2025-02-18 16:18:23.227,740,-175,578,-10,-36,48,-10,-4,18,721,97,Y,16.84464161771619,50.782235640200945,1514.7484929438806,-358.21754900699887,-27.14139043454452
2025-02-18 16:18:23.334,840,22,577,17,7,14,-11,-2,17,782,99,Y,-2.1835300782335265,55.49521690093715,1664.0789016892522,43.58301885376612,10.936278244406708
2025-02-18 16:18:23.445,531,-94,718,10,-48,-16,-10,-3,20,830,80,Y,7.458698171306003,36.252473623653415,1122.3444643463758,-198.6824475490759,-81.59571638549482
2025-02-18 16:18:23.551,645,-92,672,-5,10,-15,-12,-4,19,754,105,Y,7.795602020615929,43.559826159906734,1334.1116097271583,-190.2918885192226,-45.95814222736499
2025-02-18 16:18:23.658,810,-71,607,0,-5,28,-11,-2,19,584,103,Y,6.671497222943829,52.965749427636304,1608.2756112244883,-140.97230666288726,8.78605430461198
2025-02-18 16:18:23.760,838,-41,530,14,-1,13,-10,0,19,378,107,Y,4.423505142588226,57.61108950909473,1682.4316181302474,-82.31467344074002,-4.067729843712641
2025-02-18 16:18:23.869,556,-207,645,-38,62,7,-11,0,17,663,47,Y,17.79300616691745,39.37854905622695,1190.4411653139264,-443.20381514385383,-90.99739501345755
2025-02-18 16:18:23.981,804,-100,624,9,-11,-14,-10,1,16,607,44,Y,9.104600865402178,51.83185921489694,1590.2006365415773,-197.7861488235793,13.814431340865212
2025-02-18 16:18:24.088,741,-123,652,-2,-1,-1,-10,-1,17,599,44,Y,10.68331133311907,48.15834127216916,1485.9911789415387,-246.66250338705703,-3.511806572042019
2025-02-18 16:18:26.692,754,-82,631,-1,-1,-1,-10,-2,18,571,61,Z,7.404233336948086,49.838752115437075,1518.2324105035368,-165.11280856935016,-8.563197649511494
2025-02-18 16:18:26.804,765,-86,632,-1,-1,-1,-10,-1,18,572,61,Z,7.748983056134844,50.18009183091717,1533.061062720744,-172.3441194692601,-2.5288779601440865
2025-02-18 16:18:26.909,775,-73,625,-2,-1,-1,-13,-2,20,585,63,Z,6.66196178263318,50.92568455632078,1551.3290484799395,-146.12518779230402,-1.071813290274008
2025-02-18 16:18:27.016,766,-85,617,0,-3,-1,-11,-3,18,603,62,Z,7.8438860361970475,50.88576295562515,1541.8896707041536,-171.09741776743218,-7.965961911831187
2025-02-18 16:18:27.123,781,-56,640,4,-9,-1,-10,-2,20,732,68,Z,5.000644597558433,50.559516513694106,1553.2848990239827,-111.37510159454932,7.14169606229359
2025-02-18 16:18:27.226,763,-83,621,4,-3,-2,-10,-2,18,766,71,Z,7.612773031369909,50.609557405506315,1535.8394409968196,-167.07034548196071,-8.008247521657722
2025-02-18 16:18:27.336,734,-85,631,-4,7,-8,-10,-3,18,737,72,Z,7.671949510955891,49.0603971435879,1489.4007316402503,-172.47828636160938,-18.397631696182543
2025-02-18 16:18:27.442,799,-56,642,4,4,-10,-10,-2,17,574,79,Z,4.985144889457956,51.11190166060344,1577.3735742081108,-110.55434312347208,16.573423477337883
2025-02-18 16:18:27.543,804,-132,532,32,7,-13,-10,-4,17,375,93,Z,13.934835114501356,55.71557724745538,1630.2514721886664,-267.6532267772438,-14.723610950709713
2025-02-18 16:18:27.659,738,-70,633,20,-18,10,-10,-4,18,777,108,Z,6.3103864185240095,49.207377746710726,1495.0791877146373,-141.80967905152386,-16.364669137351598
2025-02-18 16:18:27.762,929,27,483,5,19,-1,-11,-1,19,624,99,Z,-3.199539709562572,62.49285372516005,1815.9532342097682,52.77797343774354,21.86069739147672
2025-02-18 16:18:27.876,837,65,575,-2,-44,15,-10,-2,19,590,105,Z,-6.449534703842278,55.34184983973243,1659.5596334061809,128.8785856289149,9.920204051906808
2025-02-18 16:18:27.976,860,-28,535,-5,15,9,-10,-1,19,682,0,Z,2.995924231979273,58.079387557306184,1708.7815243659136,-55.63474730493673,6.978935423530402
2025-02-18 16:18:28.075,758,-93,604,-5,4,-7,-9,0,18,688,0,Z,8.753290376416553,51.123404833706545,1536.4996011022838,-188.51512256268126,-16.334774493112604
2025-02-18 16:18:28.192,769,-32,621,-21,26,7,-10,0,16,653,0,Z,2.949830456266846,51.040521774266956,1546.590846594745,-64.35748646428067,-6.937471697446881
2025-02-18 16:18:28.298,774,-56,619,2,-8,-4,-9,0,17,522,45,Z,5.169390695411781,51.23526761606207,1553.723514483471,-112.41410440707284,-4.5773326424657625
2025-02-18 16:18:28.409,775,-75,638,-3,-3,-3,-9,-1,17,531,49,Z,6.704626205778475,50.34485365965436,1544.8993748150815,-149.5063911111369,4.198966281262074
2025-02-18 16:18:29.725,790,-75,618,-1,-4,1,-10,-2,18,671,63,a,6.919533262705705,51.76124861331135,1575.438459574681,-149.5669423646849,3.568394914996361
2025-02-18 16:18:29.822,823,-78,592,14,-17,2,-13,0,17,733,84,a,7.505871758217959,54.03775085683958,1632.4040967774247,-154.7114453810925,9.779799158887613
2025-02-18 16:18:29.933,787,-71,592,-9,0,-8,-10,-3,20,748,102,a,6.838957001558646,52.851912745185125,1584.0773870208418,-142.90914164991074,-7.580448686579757
2025-02-18 16:18:30.042,838,-105,520,18,13,-7,-10,-1,18,449,101,a,11.415839524407016,57.66418576412288,1682.9276571048501,-210.86802386158627,-4.298784838331812
2025-02-18 16:18:30.149,800,-15,583,3,-13,-11,-11,0,19,555,108,a,1.473837263204874,53.90828141785636,1608.0750367257856,-30.151406938608485,-5.884683013916401
2025-02-18 16:18:30.256,757,-251,713,3,-4,61,-10,-2,21,614,106,a,19.39378448417152,45.04202990701533,1464.625296324663,-485.6287310138579,46.50483978932027
2025-02-18 16:18:30.362,1007,-24,524,23,53,-14,-10,1,20,708,95,a,2.622401460541092,62.48485718257568,1893.8887657259825,-45.137368795852616,62.50078129055123
2025-02-18 16:18:30.469,726,-86,653,0,-13,-17,-11,-2,17,714,48,a,7.502666677034963,47.785184930245045,1466.6308835581326,-173.7331349669413,-13.159734109449573
2025-02-18 16:18:31.685,754,-217,657,11,2,18,-10,-5,21,646,99,b,18.277830991398407,47.458917297797925,1490.7927299450462,-429.0477750637599,14.993602687141788
2025-02-18 16:18:31.780,861,18,549,13,0,18,-9,-2,19,409,102,b,-1.8778774472853594,57.46321209343861,1704.046287980585,35.62466107276484,11.447837280672275
2025-02-18 16:18:31.891,800,-147,697,7,-7,-19,-10,-1,19,594,95,b,11.909370850349232,48.31762056757052,1546.8427298685142,-284.23235161333946,46.313271602057284
2025-02-18 16:18:31.992,746,61,716,2,-19,14,-10,-2,21,689,107,b,-4.869585459063642,46.072023080505645,1466.2124450597746,119.89136615100031,24.75052189973394
2025-02-18 16:18:32.108,1124,0,610,-20,74,33,-8,-2,20,688,444,b,0.0,61.511111326296316,2002.9096311659432,0.0,133.01167703627635
2025-02-18 16:18:32.208,638,-123,679,9,-26,-6,-9,1,17,713,515,b,10.267713758791096,42.75553670993239,1316.871702751244,-253.87965429216771,-43.498254181966445
2025-02-18 16:18:32.321,750,-62,639,-3,-8,-3,-9,-1,17,698,606,b,5.5418676781174945,49.436440148569446,1509.6850465203215,-124.8006305123466,-8.251659635314013
2025-02-18 16:18:34.428,792,-62,600,-1,-2,0,-10,-1,19,747,651,c,5.899625046527686,52.706752251545936,1587.5448904707578,-124.27750405200376,-2.6855230839073556
2025-02-18 16:18:34.536,894,-31,621,2,-8,-7,-10,-1,21,785,681,c,2.857803525092561,55.18154790939687,1714.9653684005357,-59.46747921746824,50.73210986942672
2025-02-18 16:18:34.643,819,-64,575,-6,3,-11,-10,-1,19,751,696,c,6.351128141942979,54.76218814165609,1635.7643088563757,-127.82529397656658,1.569624429284545
2025-02-18 16:18:34.750,920,-34,534,16,-8,42,-10,-2,17,484,618,c,3.6431282122060358,59.81728442824775,1784.426508743757,-65.94619706226929,32.256787316123564
2025-02-18 16:18:34.856,882,-110,626,43,7,-11,-9,0,20,758,637,c,9.966203812115982,54.222543763473816,1693.293915344003,-211.1817808252158,50.183683667408104
2025-02-18 16:18:34.962,475,-189,720,-14,8,10,-8,2,18,482,537,c,14.708303899682747,32.54210062302576,1012.919182627274,-403.03521161379956,-95.37223471923642
2025-02-18 16:18:35.067,774,-94,624,0,-12,-10,-9,0,16,459,541,c,8.566682094516821,50.809718622783215,1549.0516836085585,-188.12772384910144,-0.8478689557372263
2025-02-18 16:18:36.985,797,-70,608,4,-7,0,-11,-1,18,647,521,d,6.567636806926768,52.47933967357984,1590.1337749955032,-139.66043193185098,2.9493912204943626
2025-02-18 16:18:37.084,860,55,549,-6,-9,-2,-12,-2,20,709,606,d,-5.720926010158241,57.31708453227652,1701.6718341150208,108.82784985619318,11.700189617271576
2025-02-18 16:18:37.195,797,-85,583,-14,11,-15,-12,-2,18,527,605,d,8.295140148832301,53.52719260102771,1601.1390732185132,-170.76138171088286,-5.222182793467027
2025-02-18 16:18:37.296,797,144,555,-6,-23,24,-10,0,20,532,504,d,-14.545202741174348,54.26804732751975,1608.7579717497797,290.66643404262027,-10.276881205932114
2025-02-18 16:18:37.408,745,-320,664,-3,6,-29,-10,-3,20,767,643,d,25.7307056015312,45.305937413401196,1455.8723610296538,-625.3411483617303,30.41711714940925
2025-02-18 16:18:37.508,855,110,493,10,-13,58,-10,0,18,514,617,d,-12.578020305606875,59.425964618592126,1715.9726199372694,220.76840724339144,-3.4438615544723916
2025-02-18 16:18:37.623,719,-36,542,-21,64,12,-10,1,19,648,567,d,3.80004206956651,52.92947275911903,1516.8941114796478,-75.95019195169309,-59.472334383823636
2025-02-18 16:18:37.731,799,-123,648,3,-16,-9,-9,-1,18,575,564,d,10.747726098372054,50.460505431724954,1570.1859448652879,-241.71823681906187,22.557581636161785
2025-02-18 16:18:37.838,779,-84,634,-2,0,-1,-11,-1,17,565,591,d,7.547281710014798,50.6148191323658,1551.8977160324057,-167.34198735137622,4.966428800327208
2025-02-18 16:18:37.939,766,-78,616,0,-4,-2,-10,0,18,506,495,d,7.216579642130546,50.97181724045771,1542.8363161162558,-157.1034368891226,-8.714322098712046
2025-02-18 16:18:38.051,783,-63,597,0,-7,-3,-9,-2,18,513,540,d,6.0239930823196195,52.52313296031919,1576.5990608105917,-126.85279799625451,-8.081276250221094
2025-02-18 16:18:39.773,865,-140,617,3,-10,-10,-10,-2,19,610,571,e,12.784196085894267,53.817271393197615,1672.138309231712,-270.6351020721846,41.27244301044357
2025-02-18 16:18:39.865,776,-15,626,5,-16,9,-10,0,19,717,586,e,1.3726393997857649,51.09880952530571,1554.230100728078,-30.043107617166456,-1.7990245564133147
2025-02-18 16:18:39.972,806,-106,617,-19,17,-21,-10,-2,19,693,650,e,9.748196886893433,52.16267317489778,1595.7555504906993,-209.86363319108455,12.43526718019666
2025-02-18 16:18:40.073,843,100,529,12,-23,33,-10,0,19,541,605,e,-10.704644389274309,57.436297051055554,1685.7935408706326,199.97550900007502,0.12955738960295093
2025-02-18 16:18:40.189,828,7,496,-24,101,35,-10,1,18,652,585,e,-0.8085561132376181,59.07445019464453,1685.8358178774156,14.25223517529216,-17.87266384927284
2025-02-18 16:18:40.290,668,-133,638,1,-23,-13,-9,1,15,417,522,e,11.775461214578547,45.70696290694692,1383.7776037914214,-275.5126067429028,-45.63190302234557
2025-02-18 16:18:41.815,802,-96,595,-3,-7,0,-11,0,17,545,509,f,9.165374563790918,53.07551321352238,1601.4279808417502,-191.69212738255365,1.908168826881024
2025-02-18 16:18:41.914,832,-131,579,-3,-2,-1,-9,-1,20,519,465,f,12.748651572660325,54.492025403032294,1646.0346865069403,-259.171326841838,12.502303500578819
2025-02-18 16:18:42.016,932,97,385,5,24,-78,-9,0,18,544,540,f,-14.141244778929442,66.92602222819643,1851.9995915934123,192.75103045553755,4.957250253794257
2025-02-18 16:18:42.124,798,53,651,-8,-33,-1,-11,-3,20,828,679,f,-4.654368244995147,50.70006642439749,1571.8409440199116,104.39545116924225,19.708703562703818
2025-02-18 16:18:42.223,803,38,594,3,72,21,-9,-2,20,737,671,f,-3.6603985478754284,53.452746211933444,1606.3660165998358,76.0173208353596,-0.27075200535807653
2025-02-18 16:18:42.339,819,-82,595,10,-2,-12,-11,-2,17,676,714,f,7.846796122968268,53.74507761612618,1625.39380081184,-162.73784086272389,9.158349837552123
2025-02-18 16:18:42.440,841,49,588,9,11,10,-9,-2,20,781,689,f,-4.763641690726178,54.94684121279678,1659.6195299554133,96.69602493200387,15.647700815953726
2025-02-18 16:18:42.555,549,-161,683,-1,10,6,-11,-1,16,635,646,f,13.263896404919521,38.038350234481804,1165.1887828060187,-341.70381426551734,-83.58823070402707
2025-02-18 16:18:42.659,813,-58,612,-1,1,3,-9,-1,15,567,654,f,5.413822572912674,52.90559757549338,1610.6428561003086,-114.9044103983,11.560359245524069
2025-02-18 16:18:44.578,782,-37,599,-1,-2,-1,-11,-1,18,523,494,g,3.534647400065365,52.49576011301229,1575.3082897807267,-74.53504695893464,-8.66197644329327
2025-02-18 16:18:44.672,804,-41,608,0,-1,1,-10,-1,19,611,528,g,3.8578550306155357,52.84018850017082,1600.9538009545092,-81.64067890439661,5.328468929923474
2025-02-18 16:18:44.781,784,-42,604,-2,-2,1,-10,-1,17,686,658,g,3.977740645712265,52.322221531758125,1575.460647424942,-84.3996775406219,-5.747743679419386
2025-02-18 16:18:44.891,791,-35,606,4,-7,1,-11,-1,19,745,648,g,3.3054900397724265,52.497527356008305,1584.3270679788402,-70.10296760968319,-1.7828106133717938
2025-02-18 16:18:44.988,810,-41,595,0,-6,-1,-11,-4,18,771,703,g,3.941881402398033,53.63542023327928,1615.2604949023255,-81.76009912468561,3.4814883124894322
2025-02-18 16:18:45.104,877,-24,600,-3,-5,-3,-10,-2,19,788,798,g,2.2906100426385296,55.60065048025502,1702.1199123080348,-46.58024845540803,35.493788614799314
2025-02-18 16:18:45.205,795,-63,624,-10,-6,-6,-11,1,18,780,715,g,5.765134557972361,51.73023700853485,1580.1033405432827,-125.21573642041108,7.767944026404734
2025-02-18 16:18:45.321,770,-180,575,7,24,-16,-11,-4,20,541,607,g,17.382388881227914,51.95725560430475,1557.5512321587967,-364.10288543971865,-13.106439599101122
2025-02-18 16:18:45.427,844,23,576,-4,-22,22,-10,-2,18,595,649,g,-2.2866375140785022,55.66659902855149,1669.7696427315323,45.50320116448488,12.44157083724815
2025-02-18 16:18:45.534,825,-144,568,-3,3,-11,-11,0,20,734,629,g,14.225963898751797,54.61512440643195,1640.2806805780751,-286.30353697362773,6.691604159579697
2025-02-18 16:18:45.640,855,-14,535,-8,-4,40,-10,-1,20,195,389,g,1.4989867154553986,57.95568970434676,1702.6380239396788,-27.879453023573696,4.606616599148424
2025-02-18 16:18:45.750,931,30,490,-45,105,37,-10,1,15,564,509,g,-3.503531644784458,62.19726036253764,1815.5586736029718,58.50350183468224,24.442803366856765
2025-02-18 16:18:45.858,684,-109,655,10,-29,-11,-8,2,15,524,465,g,9.448136573377845,45.84969864509818,1401.5150623655618,-223.34085058164658,-32.09410211906879
2025-02-18 16:18:45.955,702,-121,655,-7,4,-7,-8,0,15,308,415,g,10.466415984071697,46.50388882629901,1427.4210899097002,-246.03696848870902,-21.85301124053217
2025-02-18 16:18:48.581,755,-86,651,-1,1,-2,-8,0,15,358,399,h,7.525452564532306,48.98511514466673,1509.539117355955,-171.94750210942007,0.3973968228782496
2025-02-18 16:18:48.672,741,-76,641,-4,0,-2,-9,0,17,410,345,h,6.76169287063033,48.94067362697932,1495.0298656512418,-153.33639647705047,-11.27144923407036
2025-02-18 16:18:48.786,775,-78,639,-3,-4,-3,-10,-1,17,460,411,h,6.95942207149897,50.285754675604885,1544.240715822074,-155.42035591499587,4.748622696380153
2025-02-18 16:18:48.887,775,-71,643,-2,-3,0,-12,-1,18,549,536,h,6.301068652288662,50.147570929751964,1542.6974633027571,-141.33099341225258,6.058749801712565
2025-02-18 16:18:48.987,781,-73,625,-4,-4,-5,-10,-1,17,618,517,h,6.66196178263318,51.14173779032969,1559.7003891349545,-145.78505557855533,1.8402775808621072
2025-02-18 16:18:49.104,814,-64,608,-8,8,-4,-10,-1,18,707,637,h,6.009005957494525,53.0914191081,1613.5947276943466,-126.86739873763905,10.759711992428947
2025-02-18 16:18:49.204,675,-140,669,-9,-1,-7,-11,0,18,729,691,h,11.819580198618647,44.64185557117913,1377.6730131014092,-285.7395879025145,-27.427030762729828
2025-02-18 16:18:49.321,750,-71,629,-4,-8,-9,-8,-4,19,755,676,h,6.440149389637582,49.83588087930658,1514.2000899253114,-143.34427517959614,-11.909142084028076
2025-02-18 16:18:49.430,843,-52,592,2,-19,-15,-10,-4,20,791,772,h,5.019853642019552,54.81777988977709,1660.3237360908079,-102.41617351924319,18.031255319385195
2025-02-18 16:18:49.535,777,-27,590,-3,1,-3,-11,-1,20,777,729,h,2.6201821848806404,52.76061021457784,1573.1140791501787,-54.664195800585354,-14.513908235013332
2025-02-18 16:18:49.642,813,-19,588,-5,1,-8,-11,-3,19,790,736,h,1.8507502769254731,54.10957158899854,1623.1395860117098,-37.93315145660822,2.068786500756005
2025-02-18 16:18:49.737,790,-45,610,-13,2,-20,-11,-5,18,817,825,h,4.219095349248455,52.251168547853204,1580.7020597554176,-90.03999074556177,-0.5420967731706696
2025-02-18 16:18:49.859,813,-39,581,-12,-5,-6,-11,-5,20,834,760,h,3.8402552206396865,54.38804384839146,1625.9792692929461,-77.999005538038,0.01481493333119488
2025-02-18 16:18:49.966,908,174,540,25,-12,66,-10,-2,20,583,652,h,-17.860094070679057,58.00182456466494,1756.0649708256585,336.5146529996306,35.64418034597389
2025-02-18 16:18:50.071,798,-125,602,-11,-7,-39,-11,-2,20,740,759,h,11.730276743931451,52.38657609993995,1590.1466699352802,-249.0831249898622,4.415670048823699
2025-02-18 16:18:50.178,911,11,445,16,9,35,-10,-1,21,665,639,h,-1.4160118042848013,63.95878214869953,1809.4784551565726,21.84880681308705,6.116451652387582
2025-02-18 16:18:50.287,494,-215,750,-44,69,20,-9,0,16,662,639,h,15.995832313522914,32.34052828262213,1028.950113283756,-447.82241772471167,-62.17122462108716
2025-02-18 16:18:50.396,742,-106,633,12,-44,-26,-9,1,17,655,675,h,9.506350718452326,49.14090853280238,1498.320753938664,-214.04582199123774,-12.217031325032963
2025-02-18 16:18:51.611,793,-94,553,-2,-3,-14,-11,-2,23,676,595,i,9.647038324999924,54.72614245955414,1609.401165367969,-190.77390863125987,-16.318845458369196
2025-02-18 16:18:51.710,885,57,492,20,10,15,-10,-4,19,487,533,i,-6.608464338316861,60.76641374009716,1757.6359484565728,113.20367125652503,6.873574417362931
2025-02-18 16:18:51.820,825,44,605,-49,-33,-17,-11,-4,21,691,650,i,-4.1596422937126425,53.67406466823626,1630.6602208218574,86.96854511049906,14.182504730637788
2025-02-18 16:18:51.921,1092,16,496,12,28,22,-11,-2,22,754,655,i,-1.8476102659945959,65.56063902291356,2002.3996520123844,29.339189040474494,82.48513974529061
2025-02-18 16:18:52.030,619,-146,680,11,-19,-2,-10,-2,16,641,676,i,12.11777205047323,41.66943746492995,1283.8319906347908,-302.8101302628101,-50.34855190897849
2025-02-18 16:18:52.136,843,-36,594,-3,2,3,-9,-1,20,660,639,i,3.468229258917148,54.78099690773017,1659.953670089539,-70.88770121378815,18.352929972495872
2025-02-18 16:18:52.247,791,-65,602,-2,-1,2,-10,-2,19,644,612,i,6.162547184426799,52.566470625807426,1585.0590494174637,-130.25137574226946,-2.328126105326305
2025-02-18 16:18:52.353,787,-83,616,-2,0,-1,-9,-2,19,612,656,i,7.673831616455061,51.69859120655862,1571.7611311169414,-165.76388041004589,1.7524056314666723
2025-02-18 16:18:53.864,825,-37,565,-2,-1,-5,-11,-3,20,772,655,j,3.7467630942133514,55.5375908906585,1649.4976217526837,-73.97746909678702,0.3440529814953379
2025-02-18 16:18:53.967,814,-51,560,-5,-1,-2,-10,-4,21,765,672,j,5.203653795678455,55.36298211307829,1636.7693219980679,-102.54942926523523,-6.032948794739696
2025-02-18 16:18:54.074,732,3,645,7,-24,76,-10,-1,19,440,578,j,-0.2664900760584054,48.61488209509401,1482.2828145000271,6.074929567623062,-16.109857038958353
2025-02-18 16:18:54.184,973,80,372,27,60,-106,-11,-2,18,616,553,j,-12.13682445529227,68.64133860890149,1904.3188302216872,156.57297679109445,15.935657921410723
2025-02-18 16:18:54.294,1015,454,854,-24,-46,-38,-11,-4,22,776,664,j,-27.995823123844556,46.38206874129344,1738.9560029869915,777.8187441931963,244.878397486807
2025-02-18 16:18:54.401,834,113,465,-25,83,50,-11,-4,19,742,749,j,-13.658729856684303,60.153624324544694,1701.3629143442884,230.52039486919014,-18.601624904189464
2025-02-18 16:18:54.508,660,-87,622,20,-40,-9,-10,-1,17,656,624,j,7.962382695029781,46.42070208635789,1384.4209871973662,-182.49185740328915,-60.7119000556994
2025-02-18 16:18:54.610,830,-25,580,-5,6,5,-9,-2,20,659,638,j,2.4681179138285407,55.029364486865994,1649.4458986220961,-49.68210538018363,7.375155179739977
2025-02-18 16:18:54.717,803,-46,594,-3,0,1,-11,-2,18,581,654,j,4.428208843383264,53.426771653636855,1606.0959757039877,-92.00549798553354,-0.0709957262373564
2025-02-18 16:18:57.436,790,-55,613,2,-7,-1,-11,-2,18,608,527,k,5.127002308071954,52.079042944901595,1578.8593451950383,-109.92058732370518,0.8850903739767091
2025-02-18 16:18:57.535,786,-57,621,-5,-1,0,-10,-1,19,597,542,k,5.2443381107151605,51.57160281516711,1569.3855051043029,-113.81039922512123,2.065650547363475
2025-02-18 16:18:57.641,785,-74,603,-3,-2,-1,-9,-2,18,584,612,k,6.996340866041997,52.26315696166999,1575.830137758227,-148.54959260396026,-4.478437029568113
2025-02-18 16:18:57.748,791,-76,597,-2,-3,-2,-11,-1,20,586,536,k,7.254911751799747,52.73496280851576,1586.8431166222276,-152.4653310534631,-3.6552978804929808
2025-02-18 16:18:57.853,784,-65,605,-1,-2,-1,-11,-1,20,557,540,k,6.132222497679305,52.1840801642702,1573.9846834762802,-130.49617911474263,-4.618282529527505
2025-02-18 16:18:57.960,801,-63,601,0,-3,-2,-11,-1,18,562,605,k,5.984191849252493,52.968251135660005,1599.3019083787208,-125.78779054664093,2.024410816965087
2025-02-18 16:18:58.068,793,-66,594,-1,-1,-1,-12,-1,20,559,512,k,6.34019174590991,52.99598829136641,1591.5933704916906,-132.46552642175482,-4.189737795793576
2025-02-18 16:18:58.178,787,-65,590,-2,-1,-2,-10,-3,18,558,532,k,6.286893361736462,52.97573748768605,1585.3805934238258,-130.93994736029055,-8.531829885714387
2025-02-18 16:18:58.285,803,-51,592,-1,0,-3,-10,-3,18,584,606,k,4.923797191183503,53.49981619917494,1606.8549524634775,-102.05429959606147,-0.6303011934977576
2025-02-18 16:18:58.386,805,-41,585,-3,5,-1,-10,-1,20,672,578,k,4.009046108193264,53.92701108250605,1613.267560308691,-82.16642232628115,-2.3745624603529905
2025-02-18 16:18:58.486,695,-134,653,-7,-5,-6,-11,-1,18,782,700,k,11.596493265478125,46.19458743924614,1416.6948401845186,-273.1469188269432,-25.081626820849806
2025-02-18 16:18:58.608,806,-48,595,0,-9,-8,-10,-3,19,806,764,k,4.612192431493878,53.47592057072959,1609.6068062443305,-95.85747729494774,1.7666876980438246
2025-02-18 16:18:58.702,806,-40,591,-3,5,-5,-10,-2,20,807,738,k,3.8719818348567214,53.68678635200601,1611.7917297533097,-79.98966400760844,0.1527142875854679
2025-02-18 16:18:58.819,805,-13,586,-3,6,-15,-11,-3,18,818,810,k,1.2708583269404754,53.940535666618125,1613.4065267899568,-26.055012233875075,-2.4797822346764633
2025-02-18 16:18:58.927,721,-189,610,30,9,1,-11,-5,17,784,754,k,17.21486654768992,48.4678443323037,1469.583725728496,-385.2306853851397,-23.33713272452485
2025-02-18 16:18:59.033,815,-47,610,38,2,20,-9,-3,20,497,582,k,4.405887977436668,53.105005567853745,1614.7371103316668,-93.11980881667282,11.423757911267671
2025-02-18 16:18:59.144,813,-27,591,10,-1,-9,-11,-2,20,766,737,k,2.615754875421869,53.956787128062665,1621.5734526314175,-53.85299289181829,3.2178222568662704
2025-02-18 16:18:59.250,784,16,582,-6,35,6,-10,-2,20,767,684,k,-1.574745065753176,53.401408134765234,1586.8321281217454,32.38432914534174,-13.979972661805846
2025-02-18 16:18:59.357,742,-30,623,2,0,-8,-11,-2,19,760,713,k,2.7568967041552193,49.94974066183116,1507.480301007799,-60.9493383156792,-19.714592355604736
2025-02-18 16:18:59.467,858,-115,553,-17,3,-13,-11,-3,17,694,752,k,11.747600054638212,56.642645184870354,1693.2573541824004,-226.95174327619588,14.658138854466756
2025-02-18 16:18:59.571,825,18,560,13,3,16,-10,-3,21,692,646,k,-1.8410162069244937,55.81806678620854,1652.2577720408933,36.049260480892215,-1.5325482944246005
2025-02-18 16:18:59.681,480,-234,759,-20,60,25,-10,0,17,724,677,k,17.134551114912817,31.146324427600753,997.2254637058867,-486.14741355661977,-58.86276448493334
2025-02-18 16:18:59.788,845,-32,618,9,-20,-9,-9,2,15,678,706,k,2.9641245470437694,53.783162664267955,1651.7867178189404,-62.55286978722616,27.94770223419505
2025-02-18 16:19:00.989,782,-69,627,0,-1,-1,-8,-1,17,509,509,l,6.280007125699781,51.109285955876665,1560.344912593977,-137.67749228770387,2.93061355956047
2025-02-18 16:19:01.098,775,-61,630,-3,0,0,-9,-3,18,511,510,l,5.530446648864306,50.76131930874348,1549.5176257319768,-121.96203247696849,0.3921235985221756
2025-02-18 16:19:01.209,771,-72,628,-1,-1,-1,-11,1,17,514,543,l,6.54038582819662,50.6529616643549,1544.319959879639,-144.21664994984954,-1.8896690070209843
2025-02-18 16:19:01.315,768,-73,627,-1,0,-1,-10,0,18,513,476,l,6.6409016134702865,50.58249799959607,1540.5396478845032,-146.4315029890218,-3.7061969057076567
2025-02-18 16:19:01.419,766,-65,626,-1,-1,-2,-10,-2,18,500,515,l,5.927999004507587,50.59258395723053,1538.651411084521,-130.5644147787126,-5.435748484217015
2025-02-18 16:19:01.532,759,-65,621,-2,-3,-4,-10,0,18,526,510,l,5.975384496302753,50.55752529315171,1531.262820573514,-131.1358146736211,-10.851398651056797
2025-02-18 16:19:01.639,769,-73,638,-1,-4,-4,-11,-3,18,698,583,l,6.5273999895462795,50.1360223675263,1536.568285271792,-145.86408949914284,1.1878205417380059
2025-02-18 16:19:01.745,780,-67,620,-5,-3,-6,-10,-3,17,782,731,l,6.1677063006708694,51.35767975761999,1561.0594446030505,-134.09100357487742,-0.8421226331940943
2025-02-18 16:19:01.851,763,-79,636,-3,-4,-11,-13,-2,19,815,721,l,7.08066119653692,49.971164347586374,1528.7208458487107,-158.28171274187173,-2.267965871271258
2025-02-18 16:19:01.958,873,-17,591,2,-7,-6,-10,-4,19,815,758,l,1.6476476200729195,55.891944730568795,1700.9815056569623,-33.12335119836008,30.476437751128742
2025-02-18 16:19:02.065,769,-38,605,-5,3,-8,-10,-3,17,812,833,l,3.5940218964090622,51.75176932562801,1554.3360484727527,-76.80724296744421,-12.852157771151383
2025-02-18 16:19:02.175,772,-64,617,0,-1,-1,-11,-3,19,808,748,l,5.921981804412813,51.21774364588133,1551.5319773848373,-128.62441263293988,-6.019728039436018
2025-02-18 16:19:02.282,811,-36,606,-2,5,5,-11,-6,19,782,756,l,3.3997141591232594,53.183567252254676,1611.5595347234232,-71.53655147970807,7.801383424914434
2025-02-18 16:19:02.389,792,-73,619,0,0,1,-11,-4,19,778,815,l,6.725947721057996,51.797895055562556,1577.834173426957,-145.4316851769796,4.818998293830418
2025-02-18 16:19:02.498,721,-29,621,-1,3,-19,-11,-3,19,788,730,l,2.6737058553475093,49.23069494532939,1478.3450026262524,-59.46186557026535,-31.304086866716602
2025-02-18 16:19:02.605,797,-31,591,-11,0,-7,-11,-5,18,796,762,l,3.002610634039371,53.40426138398129,1599.8618173037048,-62.228000422101445,-4.3467177245790936
2025-02-18 16:19:02.711,822,174,528,4,-18,76,-10,-4,18,449,604,l,-18.239400846651154,55.928886560389216,1650.342884259673,349.3426543323395,-4.074261422271547
2025-02-18 16:19:02.817,904,-60,535,18,21,-9,-10,-1,19,753,643,l,6.398956627368915,59.22517346309622,1763.1847850763493,-117.02553883250107,26.52227874353207
2025-02-18 16:19:02.925,600,-152,721,2,-17,-8,-10,0,15,690,698,l,11.904676989238713,39.155209050361435,1231.4232970973458,-311.9605685979942,-37.76032867864376
2025-02-18 16:19:04.044,797,-27,600,0,-1,-2,-11,-4,18,746,681,m,2.5765718302688305,52.998871368994905,1595.6236551431816,-54.05500462843902,-1.2223250764227487
2025-02-18 16:19:04.141,806,-36,558,-8,-6,-6,-8,-2,21,763,679,m,3.6913859864512752,55.24913670717694,1627.6383495354387,-72.69848707602455,-10.826549678380616
2025-02-18 16:19:04.249,760,-79,635,13,-8,37,-12,-3,18,634,685,m,7.091698395972045,49.9037108470218,1524.9631169462398,-158.51590294572753,-4.146814816924007
2025-02-18 16:19:04.352,813,-5,424,2,0,-55,-10,-2,19,701,656,m,0.6756264604619192,62.455189907898266,1699.6494359041703,-10.452948560296253,-38.41003791312221
2025-02-18 16:19:04.451,837,26,616,-8,-16,25,-10,-3,20,726,668,m,-2.4168938069939783,53.62400694892753,1642.1423693873426,51.01039618168568,23.445998156985638
2025-02-18 16:19:04.567,816,-69,573,16,3,12,-12,-2,20,626,689,m,6.86642980249771,54.72904035257305,1632.4303722391523,-138.03639177022245,-0.30220991793430585
2025-02-18 16:19:04.670,743,-6,634,-5,-27,38,-11,-2,20,730,645,m,0.5422151649463538,49.52469155126733,1503.685773881869,-12.142819169974716,-15.0912256273283
2025-02-18 16:19:04.783,895,-71,548,30,15,-4,-11,-1,21,731,683,m,7.38223473095229,58.308479112948596,1745.8888638363114,-138.50068081829954,27.00882974044839
2025-02-18 16:19:04.891,543,-165,701,0,-4,-5,-9,-2,15,692,731,m,13.245075515043476,37.016378493980575,1145.0432954261641,-347.94133286430406,-76.22348083561917
2025-02-18 16:19:07.305,760,-78,605,-1,-2,-1,-10,1,20,350,406,n,7.346369418181242,51.24803342284509,1539.8629989079705,-158.03857094055485,-15.811992551739422
2025-02-18 16:19:07.401,788,-58,607,0,-4,-5,-8,-3,18,349,352,n,5.458149267316229,52.266826885868774,1578.8693384058126,-116.21119495880345,-2.210264482650018
2025-02-18 16:19:07.501,780,-60,618,0,-2,-2,-11,-2,17,428,444,n,5.545317308862041,51.479050842813315,1562.3804934179134,-120.18311487830104,-1.8860832465006752
2025-02-18 16:19:07.616,791,-52,603,0,-1,-1,-10,-1,20,423,373,n,4.928736097944118,52.57839287521428,1585.1855132266828,-104.20941427027498,-2.4284000956886302
2025-02-18 16:19:07.722,777,-60,603,-1,-2,0,-11,-2,18,430,402,n,5.6823686178550545,52.04954147211141,1565.5427979285087,-120.8913357473752,-8.957924261120638
2025-02-18 16:19:07.833,788,-56,601,-1,0,-1,-11,-3,17,430,471,n,5.323337748674694,52.54809842976277,1581.8641012729931,-112.41673816153249,-4.472493483589915
2025-02-18 16:19:07.933,783,-53,596,-2,1,-2,-10,-1,20,433,387,n,5.08172741385768,52.613708784391704,1577.559920618227,-106.78247227684038,-8.799122207488267
2025-02-18 16:19:08.049,784,-58,604,-2,-3,-2,-10,-2,17,441,414,n,5.4850943496431865,52.261848358902846,1574.8161590074324,-116.50425666126412,-5.251224541440251
2025-02-18 16:19:08.155,787,-55,606,-1,-2,-3,-12,-3,17,452,482,n,5.185904018716761,52.28960838657589,1578.1126085987048,-110.28741229088789,-3.166760877782849
2025-02-18 16:19:08.266,785,-23,602,-5,-1,-8,-10,-1,20,512,437,n,2.1879772295120485,52.49597945400874,1578.3106204738988,-46.243495886496405,-6.373240159601323
2025-02-18 16:19:08.372,808,-24,612,-14,11,-1,-10,-4,18,709,597,n,2.2457425658950716,52.83758410993743,1604.926343369555,-47.67107950602638,8.387472596327257
2025-02-18 16:19:08.479,711,-65,635,-4,4,2,-10,-2,17,757,692,n,5.8445658773868665,48.08329467663096,1455.1167994038365,-133.02755550105394,-29.576888356450127
2025-02-18 16:19:08.585,748,-76,643,6,-1,6,-10,-2,18,782,694,n,6.740855001702063,49.12022668083785,1504.084560091521,-152.82142589165187,-6.9496953727915525
2025-02-18 16:19:08.692,808,-23,611,6,-8,-10,-10,-4,16,789,776,n,2.1557790676753554,52.88434392553917,1605.4190724400728,-45.69881023034861,8.001171706826085
2025-02-18 16:19:08.802,751,-38,643,-1,-8,-20,-11,-3,18,812,755,n,3.382130946432213,49.3807838476433,1510.0530046420658,-76.40747560106324,-6.8949160916752135
2025-02-18 16:19:08.900,725,-166,693,5,-14,42,-10,-4,19,766,738,n,13.470714656977654,45.494015751225575,1438.1772389049593,-329.29299539065266,11.300928881190998
2025-02-18 16:19:09.015,823,-112,456,7,3,-59,-11,-3,18,825,829,n,13.799485396019369,60.29358843948785,1691.5760657670394,-230.2023321578473,-25.252352356949814
2025-02-18 16:19:09.122,774,98,577,-14,-16,62,-9,-2,19,619,639,n,-9.639359165579894,52.905105617860904,1571.6376774270184,198.9928842220256,-17.621369348048688
2025-02-18 16:19:09.228,824,0,536,-24,85,29,-10,-1,20,782,710,n,0.0,56.95658424314913,1662.2576281228262,0.0,-9.274379458537624
2025-02-18 16:19:10.437,784,-37,622,3,-5,-2,-12,-2,17,635,663,o,3.404258269537648,51.52338369648197,1566.8621538948155,-73.94630063024,0.9027299456951141
2025-02-18 16:19:10.543,783,-42,609,-1,-1,0,-10,-2,18,650,592,o,3.945186229037563,52.05912179809385,1571.6456166035005,-84.30283000938317,-4.391035136055848
2025-02-18 16:19:10.648,777,-45,600,-1,-2,-4,-10,-5,20,681,634,o,4.289153328819018,52.24689040698898,1567.656345933503,-90.79090806564689,-10.545440875291888
2025-02-18 16:19:10.749,769,-49,604,0,-2,-1,-11,0,18,683,709,o,4.638010472000457,51.76132363073396,1554.4392699524672,-99.04749574469557,-12.91198836318631
2025-02-18 16:19:10.866,784,-38,605,-1,-1,-1,-11,-1,17,700,637,o,3.5940218964090622,52.28864831787155,1575.1023591160354,-76.34424699797108,-5.480774572960627
2025-02-18 16:19:10.966,798,-49,591,0,-1,0,-11,-3,19,744,690,o,4.739571206420476,53.38238583876269,1600.6341427598657,-98.28455262560576,-3.4320530965919716
2025-02-18 16:19:11.075,778,-42,622,-4,2,3,-11,-1,18,820,788,o,3.862982871505047,51.29457919040873,1558.3712490278745,-84.12801087297008,-1.8957800711284563
2025-02-18 16:19:11.183,808,-21,606,-1,-4,-4,-12,-3,19,841,759,o,1.9847031121535643,53.11359782864999,1607.8271318244188,-41.787586346921785,6.129651131685705
2025-02-18 16:19:11.297,807,-48,612,4,-11,-3,-10,-3,20,835,816,o,4.484606009544626,52.739996110672664,1602.8963055832792,-95.33955720941438,8.420645579966731
2025-02-18 16:19:11.399,754,-59,604,-2,3,-1,-12,-2,20,830,808,o,5.579073297472364,51.170325780936565,1533.0133342731488,-119.95727681978221,-20.037206765227893
2025-02-18 16:19:11.510,774,-92,607,-1,-4,-1,-10,-5,19,845,787,o,8.618444327810963,51.57874851160951,1557.4630144672826,-185.124802753217,-7.421252947855805
2025-02-18 16:19:11.616,809,-10,595,-3,-6,-4,-11,-2,20,824,837,o,0.9628636256362129,53.66255260787666,1614.5411819986125,-19.95724576018062,2.543877269253244
2025-02-18 16:19:11.726,756,-94,564,3,10,-17,-12,-3,20,731,726,o,9.462322208025617,52.898969801139806,1553.5730827982848,-193.16913992465442,-31.0148395479265
2025-02-18 16:19:11.833,749,20,663,-9,-28,2,-11,-2,20,754,725,o,-1.7278554936517105,48.472448088272294,1497.6369990618462,39.990307051050635,0.3213212576716842
2025-02-18 16:19:11.940,899,-17,491,15,24,-12,-10,-3,20,829,832,o,1.9829721392682262,61.34385150785401,1776.5134473563435,-33.59369144055377,11.735147216947098
2025-02-18 16:19:12.046,565,-98,674,-3,11,26,-9,1,15,656,660,o,8.272865628921254,39.6776016768237,1203.46699158853,-208.74294721358572,-87.64026961180377
2025-02-18 16:19:13.554,809,-7,574,-1,-2,-2,-11,-3,20,730,639,p,0.6986943829834713,54.64160552796094,1624.5482278054153,-14.056659573100008,-4.646084994200692
2025-02-18 16:19:13.661,821,-1,575,-1,-3,-5,-10,-4,20,751,749,p,0.09964473347489744,54.993890265430295,1640.0908763173165,-1.9976746361964877,1.3370841870195136
2025-02-18 16:19:13.765,814,-12,577,-3,0,-2,-11,-3,20,763,687,p,1.1914215815001452,54.66341682701896,1629.7684634892848,-24.02607071482975,-1.2535668713970836
2025-02-18 16:19:13.873,811,-3,577,-4,0,-2,-11,-3,21,745,709,p,0.297895649392632,54.56902617249143,1625.8145199731034,-6.014110431466474,-2.7139063187183865
2025-02-18 16:19:13.980,800,-93,593,-3,-6,-26,-11,-4,18,733,771,p,8.913077930798327,53.118723642477796,1599.880826634586,-185.9861460962706,0.08833725711326679
2025-02-18 16:19:14.081,860,98,512,21,5,19,-9,0,20,399,488,p,-10.835711869836835,58.77758137988496,1715.1615017351526,195.44863624423834,2.8805943158159835
2025-02-18 16:19:14.197,821,-154,591,-5,-6,-31,-10,-5,18,820,672,p,14.605086765909862,53.354759624992674,1623.3464496935549,-304.5010392847838,13.427829757745485
2025-02-18 16:19:14.303,688,41,637,7,-9,52,-10,-4,19,703,714,p,-3.682717504065489,47.14521145645867,1421.0798198651505,84.68644275359183,-41.7381471716584
2025-02-18 16:19:14.410,836,76,474,-44,98,37,-8,-2,19,713,652,p,-9.109133520277464,60.13437393373921,1703.1956548057663,154.83596861870603,-17.687488490350745
2025-02-18 16:19:14.520,694,-81,674,24,-48,-14,-9,-1,17,689,701,p,6.852829420164687,45.63226833513352,1408.8666087849524,-164.43543993023223,-20.265265592302512
2025-02-18 16:19:16.031,818,-8,579,2,-8,-2,-11,-2,19,810,720,q,0.791601158786793,54.70564651017741,1634.1945340977431,-15.98234263176277,1.277952026169487
2025-02-18 16:19:16.130,806,3,576,1,-7,-2,-10,-5,19,816,716,q,-0.29841281999488256,54.44850803778089,1619.5933094273578,6.028262938315227,-5.426484156523657
2025-02-18 16:19:16.231,809,5,557,-3,-1,-4,-11,-4,19,809,784,q,-0.5143109570421978,55.45134237452885,1632.644879062244,10.090512231534266,-10.083062592916917
2025-02-18 16:19:16.347,785,-55,566,0,3,-19,-12,-3,20,709,728,q,5.55018542497263,54.079854322288114,1594.8354169281963,-111.74006105866341,-17.90681016733629
2025-02-18 16:19:16.447,791,139,514,2,-15,26,-9,-4,18,603,616,q,-15.1324298552187,56.053457033663584,1620.5589393199361,284.77584395129094,-25.05599849614066
2025-02-18 16:19:16.564,801,-43,543,-1,1,-24,-10,-3,19,832,776,q,4.527786025406151,55.78332366055253,1627.9169409252668,-87.39129645416537,-17.569162200274263
2025-02-18 16:19:16.670,827,-5,567,2,-3,-8,-11,-5,21,815,742,q,0.5052406914942601,55.56401111194118,1651.7584658634707,-9.986447798449035,1.5368196558794125
2025-02-18 16:19:16.777,905,229,414,-3,-2,27,-9,-2,18,354,509,q,-28.948740533317444,62.400418419750835,1791.2069625669378,453.2446347268826,8.597035908605108
2025-02-18 16:19:16.888,776,-68,538,27,-1,-13,-10,-2,18,742,700,q,7.203647286975261,55.053576080983916,1595.6880253770014,-139.82833212066507,-30.28886295467362
2025-02-18 16:19:16.994,612,-150,725,-34,48,29,-8,2,17,536,529,q,11.689369175439191,39.57818612404221,1249.1305907066935,-306.15945850654253,-29.770716114955576
2025-02-18 16:19:17.097,792,-58,608,2,-9,-10,-9,-1,17,431,469,q,5.449226128964661,52.361961323787654,1583.8843933172475,-115.99153385404088,0.08874856453724078
2025-02-18 16:19:17.207,779,-34,627,-5,5,-8,-9,-1,17,536,556,q,3.1039081949808263,51.12908249142714,1557.5617930310805,-67.98087415026538,0.3527031701061105
2025-02-18 16:19:17.314,723,-54,642,-1,-6,-4,-11,2,17,537,478,q,4.807953963030471,48.29569193480856,1469.588161556404,-109.761771402553,-20.94550445257437
2025-02-18 16:19:17.420,799,-48,596,-2,-5,-8,-10,-1,17,589,547,q,4.604487156981521,53.19074142843962,1599.6345627393011,-96.09819650999557,-1.2192733324450273
2025-02-18 16:19:17.527,790,-37,615,-3,3,-8,-11,0,18,635,619,q,3.4429132403565776,52.04973732682399,1578.5449001155316,-73.9318497522464,1.132767631580009
2025-02-18 16:19:17.629,749,-42,620,1,-7,-1,-10,0,18,636,577,q,3.875406195486407,50.31860895913531,1518.6069783334851,-85.1555314953356,-17.057845883525488
2025-02-18 16:19:17.744,811,-18,599,2,-4,1,-11,-2,17,642,647,q,1.7212249886520845,53.53827715440228,1615.254059926261,-35.850275066180885,4.98251307542489
2025-02-18 16:19:17.846,795,-41,612,0,-1,1,-9,-1,20,637,612,q,3.8327156902142834,52.34848873701643,1586.74077763088,-81.83191431807055,2.508986276605583
2025-02-18 16:19:17.957,795,-28,609,0,-2,0,-12,0,19,583,564,q,2.6324348689864845,52.51731479321105,1588.5372718576346,-55.94848253083494,1.1205049543402765
2025-02-18 16:19:18.063,783,-37,605,0,-2,0,-11,-2,17,578,620,q,3.4996806043605564,52.25608622530444,1573.7546018616722,-74.36643712500879,-5.991742179197445
2025-02-18 16:19:18.170,793,-36,603,-1,-1,2,-10,0,19,567,531,q,3.4165881917713445,52.701391807653465,1588.4882010638414,-72.11295742534463,-1.8920368745224323
2025-02-18 16:19:19.686,824,6,552,-3,-3,-3,-10,-4,20,744,617,r,-0.6227556872063182,56.18018923068562,1654.792073079771,12.049456842813864,-4.5500295388757195
2025-02-18 16:19:19.786,797,-8,567,-3,-3,-4,-13,-3,18,751,732,r,0.8083524224313525,54.5685816827491,1611.8100225777503,-16.178770615585954,-12.670367379654408
2025-02-18 16:19:19.895,844,-3,566,-3,-2,-3,-12,-2,19,757,690,r,0.3036850334157586,56.153185624744296,1674.5296622753006,-5.9521196526373235,9.033425535758283
2025-02-18 16:19:19.997,815,-14,560,-9,-3,-4,-11,-3,20,747,705,r,1.4320961841646465,55.498042800679606,1639.1068399464148,-28.156436514416942,-6.2574605766776585
2025-02-18 16:19:20.097,811,-164,586,16,-4,-32,-11,-4,20,740,771,r,15.634992908758672,53.11806676378392,1610.873945943083,-325.7500951105618,8.039294300065762
2025-02-18 16:19:20.214,1045,16,562,-16,-27,-11,-11,-2,19,583,592,r,-1.6307560745014122,61.71899538628915,1925.6344805460865,29.48339874520324,88.39561907473637
2025-02-18 16:19:20.325,926,134,522,10,-6,4,-10,-3,19,810,714,r,-14.397238201944889,59.8009250315799,1790.2829230210177,259.0690190980738,34.79083605078705
2025-02-18 16:19:20.430,793,-43,566,-13,37,14,-9,-1,20,789,798,r,4.344513983965107,54.40483426043298,1606.1498740573861,-87.09261612164893,-14.381877322169657
2025-02-18 16:19:20.537,804,-36,594,5,-13,-8,-11,-1,18,667,657,r,3.468229258917148,53.49257732411396,1607.7797945003285,-71.99014005225351,0.1626891378170967
2025-02-18 16:19:21.749,795,-26,571,0,-4,-2,-10,-2,19,753,668,s,2.607113821453775,54.28449980784515,1606.9256321304379,-52.5535426860269,-12.156648989283099
2025-02-18 16:19:21.852,818,-17,555,0,-6,-3,-10,-1,21,765,770,s,1.7544572981146804,55.83124816977515,1645.387002225224,-34.19508439832373,-6.368931827627534
2025-02-18 16:19:21.962,849,-24,581,-1,-11,-5,-12,-3,21,806,724,s,2.365434373649887,55.592049747320445,1674.035096595423,-47.322546900223976,16.400010457077997
2025-02-18 16:19:22.063,726,-53,600,-2,-2,-15,-11,-4,20,732,739,s,5.048024859659978,50.3187171796978,1495.6081843679854,-109.18351759160224,-36.03982179172351
2025-02-18 16:19:22.171,733,117,631,18,-17,48,-10,0,20,753,763,s,-10.50448252329041,48.79723821671736,1485.383157732961,237.09390102968132,-16.68591068144383
2025-02-18 16:19:22.279,1146,-27,306,19,56,-1,-11,-1,20,656,642,s,5.042451069170913,74.99444481467457,2111.9007276186258,-49.75682342556969,48.08933451021011
2025-02-18 16:19:22.379,463,-77,788,4,-3,12,-8,0,14,669,677,s,5.580981189275338,30.318167173084703,967.8013613073849,-160.95184626494307,-71.14356956850838
2025-02-18 16:19:22.496,845,-48,568,2,-13,-8,-11,1,18,653,620,s,4.830419958289941,55.99697724062674,1674.0080700034025,-95.09158267474947,10.74960501546434
2025-02-18 16:19:23.617,783,-41,608,-1,-1,-1,-10,-1,19,667,585,t,3.8578550306155357,52.10765693364359,1572.1661700654217,-82.32287735974748,-4.788034993328665
2025-02-18 16:19:23.712,784,-40,604,0,-1,-1,-11,-2,17,669,669,t,3.788889877884649,52.32842278645976,1575.5267965567973,-80.38402023248966,-5.798705510593891
2025-02-18 16:19:23.818,788,-40,610,-1,-1,-1,-11,-2,17,668,621,t,3.7517290705259754,52.19661295526662,1578.118778944029,-80.10755223066135,-1.6401715175855998
2025-02-18 16:19:23.924,783,-42,603,-2,-1,-2,-9,-2,18,674,633,t,3.984316002372223,52.332550977366886,1574.5708270601272,-84.4597378499685,-6.6005219888335205
2025-02-18 16:19:24.031,789,-41,603,-4,0,-7,-11,-3,19,685,711,t,3.889746081747664,52.54704968007251,1582.8529704830485,-82.25218224309884,-3.708924209478141
2025-02-18 16:19:24.141,793,-42,614,-7,-2,-8,-10,-1,19,724,652,t,3.9131595249873983,52.185524589933806,1583.0001401362226,-83.84111713205718,2.3227162123068865
2025-02-18 16:19:24.248,750,-23,609,3,-11,-7,-10,-4,20,750,696,t,2.162852089145061,50.9034187155146,1526.0840367494434,-46.79991046031627,-21.180237840548102
2025-02-18 16:19:24.350,837,3,575,2,-7,-8,-11,-4,18,772,787,t,-0.2989317894025211,55.51145440958412,1661.2394064793125,5.954263105660617,8.76623808171496
2025-02-18 16:19:24.462,774,-12,601,-5,-4,-13,-11,-3,19,811,729,t,1.1438569177608944,52.16563727013813,1563.7872837139241,-24.24476408858797,-12.258601436780737
2025-02-18 16:19:24.572,859,-28,608,3,-9,-11,-10,-5,20,861,796,t,2.6367584261404478,54.68052334228831,1674.941110745197,-54.596450641286964,30.477071789197225
2025-02-18 16:19:24.674,845,98,540,31,6,68,-10,-4,20,679,758,t,-10.286171182754284,56.996607425452495,1683.6383175287551,195.2621954057018,4.065453886949285
2025-02-18 16:19:24.784,720,13,617,17,6,-50,-10,-3,20,849,753,t,-1.20702583928898,49.39897690035254,1479.25968669173,26.708855454156243,-33.64337040110763
2025-02-18 16:19:24.895,820,75,716,-26,-9,-22,-11,-6,20,724,758,t,-5.9798456825226785,48.71854993991242,1571.4777746346022,143.7327232897502,59.83160166051823
2025-02-18 16:19:24.997,777,80,577,23,-8,13,-11,-5,21,842,785,t,-7.8936316764971135,53.140980688475715,1577.1139032307772,162.37980985645066,-17.164378589650596
2025-02-18 16:19:25.108,654,-116,654,-32,63,26,-9,-2,18,672,676,t,10.057949943588588,44.55632784113089,1355.6101264749125,-240.4446095888224,-47.61012647491248
2025-02-18 16:19:26.320,806,0,579,-2,0,-1,-11,-5,19,713,681,u,0.0,54.30795887894004,1618.1645779741007,0.0,-4.428400306456751
2025-02-18 16:19:26.419,801,2,583,-2,0,-3,-12,-2,19,726,679,u,-0.19655421870312026,53.951206177436084,1609.5161355891087,4.018766880372307,-5.470545628527248
2025-02-18 16:19:26.529,807,-16,580,-8,-2,-5,-10,-6,20,690,652,u,1.5801724728000146,54.28444308459637,1618.9250542024154,-32.09764667563648,-3.5396919918226786
2025-02-18 16:19:26.636,876,176,531,6,-22,34,-11,-4,19,615,679,u,-18.337782529107628,57.4379717407017,1718.8092725576669,345.3315433449194,20.119036840044316
2025-02-18 16:19:26.742,787,-148,570,0,4,-26,-10,-2,21,786,679,u,14.55538377053093,53.19302445230396,1587.658436123219,-298.56854961402337,-9.89238702698185
2025-02-18 16:19:26.848,868,132,476,11,-3,27,-10,-2,20,627,634,u,-15.499275376500838,60.35655552459121,1737.1201485922456,264.17034517762255,-0.61427503445708
2025-02-18 16:19:26.959,649,-124,666,-15,27,3,-10,-3,19,708,727,u,10.546918562130088,43.771498298913656,1340.7840496861947,-256.17445633449637,-43.90474128044025
2025-02-18 16:19:28.774,798,-6,599,-2,0,-2,-12,-4,18,794,657,v,0.5738951257459131,53.10575355563823,1597.7449477471728,-12.013119907873477,-1.3098041360357229
2025-02-18 16:19:28.872,800,-1,594,-3,4,-3,-12,-4,19,796,712,v,0.09645745014202581,53.40607474755133,1602.8806850311316,-2.003600856288914,-2.1389086356151665
2025-02-18 16:19:28.978,767,-16,614,0,-1,-1,-11,-4,17,800,808,v,1.4927118137042579,51.312488630601116,1547.5666715163125,-32.28300748925815,-10.860412400281348
2025-02-18 16:19:29.078,769,-10,606,-1,-1,0,-13,-3,17,799,733,v,0.9453891044644397,51.75681115420121,1554.3905214043061,-20.21314072047212,-12.916327660610591
2025-02-18 16:19:29.191,788,-7,599,-2,-1,-2,-10,-4,20,802,758,v,0.6695362279876288,52.75775098475099,1584.0838795449513,-14.07181111270896,-6.14497950180953
2025-02-18 16:19:29.298,794,11,593,-1,0,-1,-11,-5,19,800,828,v,-1.0627003388295968,53.2410091328853,1595.1599135902388,22.09919275754739,-5.347391384145567
2025-02-18 16:19:29.405,820,-15,586,4,1,1,-11,-4,20,822,752,v,1.4662953237051406,54.44022819981138,1633.5092775991689,-29.88126727315553,4.638491862057208
2025-02-18 16:19:29.511,820,22,581,-1,6,6,-10,-5,20,853,797,v,-2.1685115703603968,54.66166789118717,1635.7508082823013,43.885997295378814,3.0107077902231367
2025-02-18 16:19:29.622,772,-4,607,3,-10,0,-11,-3,18,851,862,v,0.37756145089282445,51.82250784310234,1558.0997655940328,-8.073055780279962,-11.086214657484106
2025-02-18 16:19:29.728,787,-5,591,-6,2,-8,-11,-4,19,804,761,v,0.48472430269343314,53.094188452800424,1586.6237533698663,-10.08020173678441,-9.479845287917101
2025-02-18 16:19:29.827,816,-7,585,-6,-3,-7,-11,-5,20,769,774,v,0.6855578057985653,54.360873684126894,1628.7030495903205,-13.97171733717187,2.363622536350931
2025-02-18 16:19:29.944,824,188,584,0,-20,45,-10,-2,20,606,687,v,-17.84429160827534,53.33023781607543,1626.0909289161496,371.00132844203415,15.527788243894065
2025-02-18 16:19:30.045,730,-215,644,10,-6,-34,-11,-3,20,807,709,v,18.461635257654134,47.07544558816789,1462.2511049687732,-430.66299666888517,-1.9859063012188471
2025-02-18 16:19:30.162,714,-53,570,-25,47,35,-10,-3,20,793,785,v,5.312228067020965,51.27865416666016,1494.1974158592086,-110.91381378226617,-52.84667652625865
2025-02-18 16:19:31.473,823,-3,601,0,0,-2,-11,-3,20,708,670,w,0.2859998517950752,53.860679686531704,1630.5853465068276,-5.943810497594755,11.256630315184111
2025-02-18 16:19:31.572,774,5,594,2,-3,-7,-12,-4,20,698,638,w,-0.4822763160802398,52.4948772991864,1567.2989089810746,10.124669954658106,-14.810790613382892
2025-02-18 16:19:31.677,806,8,591,-1,1,-3,-11,-5,18,643,675,w,-0.7755300222620457,53.74674119445445,1612.4109711113565,16.004079117730583,-0.3013448223468913
2025-02-18 16:19:31.788,801,27,584,-1,-1,-5,-11,-2,20,654,629,w,-2.6470637698719557,53.87551132388017,1608.7379828518121,54.2271230174768,-4.912586748387184
2025-02-18 16:19:31.891,803,9,569,4,1,-12,-9,-4,20,644,613,w,-0.9061845668110524,54.675508522765234,1618.890506287341,18.14447640919809,-9.134119648190335
2025-02-18 16:19:31.993,816,156,560,6,-8,20,-10,-3,20,556,625,w,-15.566317824856815,54.533731319296336,1630.4572501965881,311.705062537583,1.058749865086611
2025-02-18 16:19:32.112,796,-80,598,-7,-5,-27,-11,-2,22,769,647,w,7.619745570496018,52.83972686879813,1592.948934183865,-160.09537026973516,-0.712892766270329
2025-02-18 16:19:32.218,794,125,529,11,-9,43,-10,-4,20,601,603,w,-13.294840136520834,55.60468233595002,1619.1596658575672,254.90548895742558,-20.760029267825075
2025-02-18 16:19:32.327,818,-55,527,-21,-22,-35,-11,-5,20,707,717,w,5.958066326974726,57.06671614901954,1657.304185899505,-111.43243303725276,-13.725312920585566
2025-02-18 16:19:32.428,745,114,489,-35,103,66,-10,-2,18,612,580,w,-13.122909858996271,56.02095340315737,1574.2420172422458,240.8907247860618,-55.294424740212435
2025-02-18 16:19:32.542,792,-37,627,16,-30,-8,-11,-1,16,478,516,w,3.3771741598481495,51.58403964238856,1575.5203995058416,-73.60385704762139,6.7130170578753905
2025-02-18 16:19:32.644,746,-49,617,-5,6,4,-9,-2,16,545,566,w,4.540702039528656,50.31812235298621,1515.6015554502349,-99.55023621590014,-19.52032133082423
2025-02-18 16:19:33.767,791,-18,597,-2,-3,-3,-10,-3,19,633,537,x,1.7269877504876419,52.94413699222736,1589.0483648589309,-36.16039262637264,-5.319688774692622
2025-02-18 16:19:33.860,794,-16,593,-2,-3,-2,-9,-2,19,661,600,x,1.5455482450692615,53.23573873479007,1595.104861269052,-32.143171007940595,-5.306275481798139
2025-02-18 16:19:33.968,799,-18,585,-2,-3,-2,-11,-3,17,680,673,x,1.7623910236605127,53.77678691211931,1605.7209650993725,-36.17393913865921,-5.653022006424067
2025-02-18 16:19:34.077,806,-22,589,-1,-2,-2,-10,-3,21,715,640,x,2.1390856518044292,53.822786313315675,1613.1951299471157,-44.03262141294856,-0.8733641921228354
2025-02-18 16:19:34.177,796,2,586,-1,-1,-2,-12,-3,20,746,723,x,-0.19554797627085738,53.64004981223398,1601.3084011331207,4.023387942545529,-6.8526671658402165
2025-02-18 16:19:34.276,815,-25,586,7,-4,4,-11,-2,18,781,740,x,2.442877854589992,54.258475128771806,1626.6603946548776,-49.89755811824778,2.4012377082719922
2025-02-18 16:19:34.397,797,-15,590,-3,6,-1,-12,-4,19,832,750,x,1.4563586343396875,53.47948814503697,1600.643862905566,-30.125041334483676,-4.9182924896912255
2025-02-18 16:19:34.504,779,-35,587,-3,-4,-2,-11,-1,18,799,810,x,3.412233195743874,52.95199682049148,1577.1310210413073,-70.85954523292139,-14.415801477852938
2025-02-18 16:19:34.610,848,17,554,0,-3,-7,-10,-2,19,807,754,x,-1.7576222039362217,56.830992003296544,1685.0603748233725,33.780691476411945,7.1468777686930025
2025-02-18 16:19:34.721,804,-8,572,0,-10,-8,-10,-2,20,814,768,x,0.8012873301070143,54.56767866236605,1618.8008855687024,-16.10747149819604,-7.6842121210169125
2025-02-18 16:19:34.827,815,-11,594,0,-8,-11,-11,-2,19,829,849,x,1.0609116902642277,53.90947314842715,1623.0872891834397,-21.906699608610836,5.038221135014737
2025-02-18 16:19:34.934,751,164,465,9,10,28,-12,-3,19,504,585,x,-19.427143439145652,56.712887670742525,1586.9308331818577,346.5468131049596,-52.58700057198905
2025-02-18 16:19:35.044,447,-100,600,1,-14,-41,-10,-4,18,725,656,x,9.462322208025617,36.310807350477155,1039.1651855615241,-232.4754330115267,-194.8525980691602
2025-02-18 16:19:35.147,800,59,534,0,-18,58,-11,-2,20,249,481,x,-6.304860334450064,56.11619724196286,1630.1699237936414,120.22503187978104,-20.13842413225541
2025-02-18 16:19:35.258,678,-108,616,-30,80,10,-10,-1,18,675,524,x,9.944294263185931,47.311162368085675,1413.04670032036,-225.08708500678304,-51.830040409058824
2025-02-18 16:19:35.368,804,-46,630,10,-25,-11,-10,-3,16,517,527,x,4.176090527604563,51.844410481597095,1590.3359910493027,-90.98937262222377,13.841201043456977
2025-02-18 16:19:36.578,797,-33,601,1,-5,-3,-10,-2,17,700,641,y,3.1428685125510305,52.93939808104331,1594.9985218682432,-66.04134406731747,-0.7529631653877686
2025-02-18 16:19:36.679,792,-35,585,-4,-2,-4,-12,-2,18,729,620,y,3.423871244930679,53.50014482980056,1595.8583641820378,-70.52404387168096,-8.759018998096053
2025-02-18 16:19:36.785,824,-25,588,4,-11,-8,-10,-5,17,785,717,y,2.434578761167995,54.46417343698041,1637.7522506115492,-49.68908527340865,7.3127143694285905
2025-02-18 16:19:36.892,798,-20,584,-4,8,-7,-11,-1,20,805,778,y,1.9614176677703405,53.78622595964707,1604.8183058330783,-40.2210101712551,-6.453497000648895
2025-02-18 16:19:36.993,795,-15,585,-3,2,-7,-11,-3,20,823,750,y,1.4688007143858246,53.64355314058901,1600.344649586667,-30.195182067672956,-7.612100639245341
2025-02-18 16:19:37.109,796,39,672,-15,-6,-16,-11,-4,18,800,808,y,-3.3214757633460423,49.78074838852778,1559.5791091538322,76.41153926758727,27.37040031234244
2025-02-18 16:19:37.209,837,143,587,7,-26,46,-11,-2,20,640,675,y,-13.691230900674903,54.17732203581661,1647.8322262080578,281.52928118011016,18.35183179912815
2025-02-18 16:19:37.318,764,-139,609,8,5,-27,-10,-1,20,848,743,y,12.857118184949467,50.72988817846392,1538.1705057335762,-279.85039305885743,-8.10711779024598
2025-02-18 16:19:37.427,694,3,721,-12,-12,88,-10,-5,21,495,649,y,-0.23839992592027406,43.90660849073221,1387.484931972284,5.997773481148202,0.5351066973822753
2025-02-18 16:19:37.539,1458,-52,604,-33,115,29,-10,-2,18,738,632,y,4.920616036363993,67.42252988890148,2381.361258626236,-84.93195161081226,221.48271590518067
2025-02-18 16:19:37.645,654,-44,676,12,-25,-10,-10,3,17,708,665,y,3.724057972748287,43.99181610637645,1348.5556158329687,-90.72851238019973,-41.91987202306859
2025-02-18 16:19:38.662,781,-34,597,-1,-3,-4,-11,-1,18,667,680,z,3.259555179050051,52.56076864748226,1574.9985542223465,-68.56587816076797,-9.936154764072853
2025-02-18 16:19:38.759,799,-18,593,1,-5,-1,-9,-3,18,679,612,z,1.7386297831624882,53.405391380752775,1601.8735748148088,-36.08726451397566,-2.874880932642668
2025-02-18 16:19:38.859,791,-22,588,-1,-2,-2,-10,-1,18,684,644,z,2.1427201644785763,53.35506934401567,1593.3496760705902,-44.315667349624505,-8.436927344509627
2025-02-18 16:19:38.973,797,-25,586,-2,-2,-3,-11,-3,19,687,714,z,2.442877854589992,53.649681389535886,1602.4080504901149,-50.26374060508516,-6.182079783196173
2025-02-18 16:19:39.079,798,-35,595,-2,2,-1,-11,-2,20,670,620,z,3.3664606634298013,53.243839376823864,1599.1894743086443,-70.13988922406334,-2.378116809076573
2025-02-18 16:19:39.186,792,4,583,13,-12,0,-10,-3,20,783,717,z,-0.3931038112359202,53.6421587586763,1597.3302224707304,8.06732435591278,-9.812524874287647
2025-02-18 16:19:39.292,805,4,579,-5,3,-5,-10,-3,19,791,774,z,-0.39581946820944247,54.273599527903635,1616.8145593967818,8.033861164704504,-4.901403590976997
2025-02-18 16:19:39.403,786,-24,588,-9,4,-6,-11,-2,20,728,695,z,2.33730585912382,53.17727006072856,1586.4936679281823,-48.44255474589868,-10.842591274517758
2025-02-18 16:19:39.509,816,-2,575,-1,6,-5,-10,-3,19,728,744,z,0.1992888641887829,54.82913523188543,1633.4379118073155,-4.0035242936453805,-1.013234423047038
2025-02-18 16:19:39.616,747,23,592,-8,0,-21,-13,-2,19,667,666,z,-2.224899469564557,51.582022523229874,1530.4985235977076,47.123783189755386,-28.925202101529976
2025-02-18 16:19:39.726,714,94,577,21,-31,25,-9,-4,20,822,727,z,-9.252861630000972,50.69017550286401,1487.7315926451265,195.8638231213472,-48.27048873422689
2025-02-18 16:19:39.832,886,91,467,-34,16,13,-10,-4,19,529,660,z,-11.026526148045907,61.76412301644278,1767.0073814929244,181.48721412624838,2.6315494839780627
2025-02-18 16:19:39.939,769,15,590,21,-11,9,-12,-3,19,659,597,z,-1.4563586343396875,52.49455146932316,1562.2954466580063,30.47390338084538,-18.640199646584847
2025-02-18 16:19:40.050,591,-132,606,8,-63,-30,-9,-5,17,729,662,z,12.28832316327534,43.61851754128466,1280.8535543143041,-286.0789664458344,-101.36252777405798
2025-02-18 16:19:40.152,812,65,533,18,-5,14,-11,-2,20,784,784,z,-6.952957468173915,56.52465225816288,1646.123222976138,131.77094765203077,-14.521770746652237
2025-02-18 16:19:40.259,585,-126,695,-8,36,30,-10,-1,18,686,651,z,10.27582492913677,39.632426134356116,1222.8599540731254,-263.3852208772886,-62.799432616790114
2025-02-18 16:19:41.876,797,-16,583,-3,-1,-2,-11,-3,20,511,511,0,1.5720453158649943,53.804508768418266,1604.0067860908146,-32.20088905577545,-7.319894969817938
2025-02-18 16:19:41.975,799,-12,583,-2,-2,-2,-12,-2,19,549,591,0,1.179163432832101,53.877410405793974,1606.7575229028039,-24.131527252607818,-6.390032355863013
2025-02-18 16:19:42.075,807,-48,602,1,-2,-5,-10,-3,20,580,516,0,4.558789666561097,53.1910123775733,1607.6373960975366,-95.6215551582178,4.7463290573517725
2025-02-18 16:19:42.175,793,2,575,-2,0,0,-11,-2,21,598,558,0,-0.1992888641887829,54.054171659436676,1602.5723682605485,4.041796641262417,-12.016534362944867
2025-02-18 16:19:42.299,829,-4,567,-2,-3,-5,-11,-3,19,676,669,0,0.40419632475931566,55.62890282809599,1654.3983906131502,-7.982621908869241,2.463344417785038
2025-02-18 16:19:42.405,786,-11,575,1,-2,-3,-11,-2,21,743,644,0,1.0959594889497175,53.8075876250722,1593.0385184090924,-22.294432191475842,-15.390773645328181
2025-02-18 16:19:42.507,815,3,604,2,-1,0,-11,-2,18,808,743,0,-0.28457934615061586,53.45735881344363,1618.4139536105467,5.957351976480538,8.586468735251401
