Timestamp,Acc_X,Acc_Y,Acc_Z,Gyro_X,Gyro_Y,Gyro_Z,Mag_X,Mag_Y,Mag_Z,Force,IR_A,Letter,Roll,Pitch,Lin_Acc_X,Lin_Acc_Y,Lin_Acc_Z
2025-02-19 14:14:55.119,371,-211,910,4,-30,-6,-12,3,10,0,13,noise,13.054381283895314,21.660796231182587,740.1109258887973,-420.92562092327825,4.6335780086104705
2025-02-19 14:15:01.991,684,-135,718,-1,3,3,-1,0,1,407,51,A,10.648560905341448,43.11396737142954,1367.4517498678983,-269.89179273708515,0.5755023316507959
2025-02-19 14:15:02.085,671,-131,714,-5,0,-3,-2,-1,1,410,49,A,10.396621295855661,42.748649375332114,1349.7834352718787,-263.51956783996434,-8.282224715530674
2025-02-19 14:15:02.192,666,-143,719,1,-3,-1,-1,1,3,405,50,A,11.248620801849642,42.25491199646228,1338.4302642421408,-287.3806723522915,-6.941981967116249
2025-02-19 14:15:02.302,668,-125,716,-4,1,-5,-1,2,3,405,50,A,9.902950595038197,42.58487979713387,1344.6816920642975,-251.62456812580413,-9.30552622460607
2025-02-19 14:15:02.405,685,-135,717,1,-3,2,0,-2,1,399,52,A,10.663072125268394,43.19421497541071,1369.4735001345903,-269.8962372528025,0.55109547955999
2025-02-19 14:15:02.508,676,-111,720,-2,2,-4,-1,1,2,406,52,A,8.764100827877993,42.85905349405647,1356.1971824038287,-222.6891823177884,-4.470371791059847
2025-02-19 14:15:02.623,682,-123,713,1,-2,2,-1,2,2,405,51,A,9.787788938565184,43.30747731691275,1367.9133241968698,-246.70577547832113,-4.091202569454822
2025-02-19 14:15:02.728,687,-116,722,-2,0,-2,0,-1,1,410,53,A,9.127413642107573,43.212567923325125,1371.7069899243747,-231.61282508184493,2.4098300940340778
2025-02-19 14:15:02.836,674,-125,719,0,-2,1,-1,-1,3,409,51,A,9.862443922631984,42.72432483663378,1352.4716156235809,-250.8293055681715,-4.770165628122413
2025-02-19 14:15:02.942,675,-120,720,1,-3,-1,0,0,3,418,53,A,9.462322208025617,42.76092929633306,1353.940806821078,-240.70058787930276,-4.203527275816441
2025-02-19 14:15:03.052,661,-152,708,-3,0,0,-3,-1,0,400,52,A,12.116861929122589,42.390337238832785,1335.1778397193596,-307.0303050489299,-14.114841938436598
2025-02-19 14:15:03.155,683,-109,731,1,0,3,-1,0,1,406,51,A,8.48093320572935,42.74162803258722,1361.693440259538,-217.31271594185887,4.609216940377792
2025-02-19 14:15:03.268,667,-146,711,-1,-2,-3,-1,-1,2,384,47,A,11.604071962602323,42.58118139376596,1343.634164562716,-294.1088276254221,-10.269701655309063
2025-02-19 14:15:03.372,692,-119,724,0,-2,1,-1,-2,1,402,49,A,9.333942903456832,43.324079361905355,1378.124149150312,-236.9895574405883,6.147566495916408
2025-02-19 14:15:03.479,679,-140,721,-1,1,1,0,-1,1,406,49,A,10.988651096493982,42.75278358598639,1357.8364201317477,-279.96627219211297,0.17369821061834045
2025-02-19 14:15:03.588,676,-136,717,1,-1,2,-1,-2,0,409,49,A,10.740227024760015,42.80897650878182,1355.556249111492,-272.7154584011285,-3.7719387765379224
2025-02-19 14:15:03.688,671,-140,712,-1,-2,-4,0,-1,1,397,49,A,11.124108975782233,42.75984560931223,1349.9269202415762,-281.653902881998,-8.411277514161384
2025-02-19 14:15:03.798,659,-131,708,-5,-1,-3,0,-1,2,391,50,A,10.48278310017642,42.46648699056442,1334.1588494481948,-265.21215368393564,-17.360342047529798
2025-02-19 14:15:03.908,677,-121,710,-6,-6,-5,-1,0,1,383,52,A,9.671573154481585,43.227577427280146,1361.8978915457983,-243.4115877061176,-8.282870011103114
2025-02-19 14:15:04.016,717,-107,728,1,8,-4,0,1,1,326,52,A,8.361354484898362,44.257774312714865,1414.8876465331869,-211.1478077811032,19.405569489316463
2025-02-19 14:15:04.121,733,-161,727,-12,-8,0,-1,-3,4,181,46,A,12.487077360002276,44.54966646423418,1434.5272772782926,-315.0871645863644,31.21510152616827
2025-02-19 14:15:04.233,664,-170,708,-28,-18,-9,-3,0,3,530,43,A,13.501854624737595,42.36272163259729,1337.8217835112932,-342.51461324837317,-10.472624587342352
2025-02-19 14:15:04.339,694,-102,663,-40,-19,-22,-3,-1,5,681,39,A,8.74616226255521,45.97385583304927,1413.0227516020077,-207.67769548041036,-23.905020622667507
2025-02-19 14:15:04.449,719,-271,585,-20,-10,-41,-3,-4,7,655,64,A,24.85583005439715,48.11767077153634,1463.517479167478,-551.6178537613165,-20.761787639742238
2025-02-19 14:15:04.554,773,-234,654,-12,-10,-25,-4,-5,8,601,74,A,19.687116198125864,48.0577816605252,1516.8192524452825,-459.1665007402279,24.688497931158054
2025-02-19 14:15:04.663,785,-183,593,-18,-1,-11,-4,-5,8,536,81,A,17.15024352475086,51.67127689131726,1569.465568760324,-365.87541284476333,0.4037168472967778
2025-02-19 14:15:04.769,795,-85,589,-3,-6,-8,-2,-7,7,547,92,A,8.211797801899994,53.18310560752685,1595.5547063820586,-170.59389942449684,-4.115373659160241
2025-02-19 14:15:04.879,838,-115,593,-4,3,-10,-3,-7,10,633,106,A,10.975090821376833,54.21514433416652,1649.2184057871768,-226.32472155790612,18.951653184014503
2025-02-19 14:15:04.978,824,-106,570,-6,0,-4,-3,-8,8,663,119,A,10.53466477765463,54.86950342792176,1641.8435460341939,-211.2080289801269,4.258712087996969
2025-02-19 14:15:05.084,797,61,625,5,0,66,-3,-7,7,1,118,A,-5.574412647192546,51.764828633438384,1582.4771313401595,121.11807404234594,9.036126615307921
2025-02-19 14:15:05.199,894,-148,545,29,46,-52,-2,-6,9,209,113,A,15.192831034383897,57.71948069333302,1739.4434653569106,-287.9615580232917,29.601019441257222
2025-02-19 14:15:05.306,784,-155,567,5,6,-18,-3,-9,7,420,113,A,15.28931492669842,53.13925256947732,1584.095810628554,-313.18220745845133,-11.640720186722092
2025-02-19 14:15:05.412,806,-34,632,3,-27,59,-4,-6,9,1,125,A,3.0793994085001786,51.85911944072707,1592.494566372516,-67.17719014474632,15.294583191774336
2025-02-19 14:15:05.523,611,-338,520,-50,1,-48,-4,-5,9,32,105,A,33.02386755579665,44.57202229399403,1312.805284782075,-726.2327107305094,-77.28109343155302
2025-02-19 14:15:05.629,739,-107,631,73,-34,1,-3,-7,7,357,121,A,9.624215836937102,49.10593907154421,1494.9213331517142,-216.45004417758244,-14.448391364995587
2025-02-19 14:15:05.736,951,11,583,-41,66,40,-3,-6,7,623,87,A,-1.0809241866606887,58.48553884183636,1803.508261264485,20.86076853197617,60.379267805262884
2025-02-19 14:15:05.838,628,-226,647,0,-4,0,-3,-3,5,315,40,A,19.254537201863457,42.50025212156144,1303.5934518884528,-469.1275798197299,-49.03338116533291
2025-02-19 14:15:05.948,782,-152,625,14,-13,-8,-3,-4,5,322,56,A,13.668967860588385,50.561711542514004,1554.3092361990075,-302.1163732765334,7.7451756721487754
2025-02-19 14:15:06.054,738,-156,621,2,1,-2,-2,-4,7,339,60,A,14.101352280256776,49.05484166105559,1493.3371928210727,-315.664772466243,-14.588613471390317
2025-02-19 14:15:06.161,764,-149,618,1,-1,-5,-2,-5,9,229,61,A,13.555328722576307,50.23687295531123,1532.6953099297061,-298.91570835016523,-3.7980386604167506
2025-02-19 14:15:06.268,752,-161,625,1,2,1,-4,-3,7,188,60,A,14.445338286146882,49.362168151237725,1510.841441933171,-323.464723605373,-5.686038840733886
2025-02-19 14:15:06.378,763,-147,634,4,-1,-3,-3,-5,8,132,63,A,13.05400431131658,49.536703300115875,1523.8218417065816,-293.5803548242038,1.8098982411889892
2025-02-19 14:15:06.482,751,-146,619,2,0,-4,-2,-5,7,138,64,A,13.271471085047551,49.74037369763181,1514.1239032874898,-294.3569772036931,-9.992937596479692
2025-02-19 14:15:06.590,770,-133,627,0,-1,-1,-3,-4,6,149,71,A,11.976132444203357,50.225877499667426,1538.5725492155248,-265.75344031904524,1.1623527816440173
2025-02-19 14:15:06.698,752,-140,622,0,-1,0,-1,-5,8,166,72,A,12.68476725458962,49.708040191440425,1514.759084781509,-282.0030211029405,-8.899136614492818
2025-02-19 14:15:06.801,767,-128,611,0,2,2,0,-5,7,181,72,A,11.83193424377558,50.85775518640261,1542.5811919020603,-257.4320633161195,-6.835864735539303
2025-02-19 14:15:08.029,738,-182,651,28,-20,10,-1,-2,6,514,52,B,15.619392138710781,47.51224629675916,1475.4217194027883,-363.8573887958096,0.5101093072964886
2025-02-19 14:15:08.120,886,-2,593,26,-27,-28,-3,-1,7,440,75,B,0.1932396703826922,56.20544521437001,1717.0373341429965,-3.8759307768464932,36.78652466501478
2025-02-19 14:15:08.230,689,-202,687,11,39,-3,-1,-1,3,503,53,B,16.385024944374884,43.89581156094493,1382.349152658265,-405.2750781378368,-4.336528122246932
2025-02-19 14:15:08.332,675,-86,717,12,0,-14,0,-3,5,589,47,B,6.839622349579996,43.06758545341036,1357.8605819398765,-173.00149636567315,-8.349684816135436
2025-02-19 14:15:08.443,772,-106,654,-4,-5,-5,-1,-4,3,531,54,B,9.20641223950482,49.36363046418565,1530.858063651547,-210.19553723712946,11.133194782238888
2025-02-19 14:15:08.549,766,-237,640,-62,-6,-9,-2,-3,5,638,63,B,20.32022101391416,48.30035005171888,1512.642246532927,-468.0107211857751,16.173579920269844
2025-02-19 14:15:08.659,690,-181,654,-34,-12,4,-3,-5,7,703,66,B,15.469875045914243,45.477896361387494,1402.9799984189015,-368.02808654176977,-21.781041979654333
2025-02-19 14:15:08.767,764,-208,614,-7,-13,-13,-2,-4,8,694,84,B,18.714438213466757,49.68449545351687,1526.4932769763614,-415.58979268466396,1.210900440463206
2025-02-19 14:15:08.870,710,-226,624,-8,3,-6,-3,-4,6,671,80,B,19.909347835156364,46.93188263077608,1440.54237594899,-458.5388407950306,-18.054144496013464
2025-02-19 14:15:08.980,738,-191,620,-8,2,-22,-2,-5,7,581,86,B,17.12220849442823,48.68227705530565,1489.0599433827865,-385.3800124473065,-10.971768153560447
2025-02-19 14:15:09.090,785,-173,534,-10,-5,-10,-4,-6,9,608,116,B,17.950770662441062,54.43284971495213,1598.4343792614395,-352.2664300792727,-19.342622325616276
2025-02-19 14:15:09.193,823,159,630,-22,-34,71,-5,-6,8,0,114,B,-14.164565267959912,51.7090765485314,1607.874543387749,310.6343285524327,29.184735924323377
2025-02-19 14:15:09.303,607,-230,560,18,26,-66,0,-6,6,431,109,B,22.32865637801915,45.075970989250415,1315.04374324211,-498.2867560884436,-93.21992786751468
2025-02-19 14:15:09.410,670,-204,689,21,-11,-8,-3,-6,7,613,113,B,16.49303530737562,42.99686201566339,1351.9583041441877,-411.64103588867806,-12.297420231858723
2025-02-19 14:15:09.508,883,30,474,6,3,19,-2,-6,8,332,113,B,-3.6214847041173397,61.725061877015065,1763.6846412719115,59.92133549055191,1.2428992492797306
2025-02-19 14:15:09.619,570,-266,782,23,-5,-8,-3,-6,7,649,111,B,18.78591398616363,34.60841648175274,1137.9646538047627,-531.050171775556,2.7923521485532774
2025-02-19 14:15:09.728,882,-122,462,-7,19,23,-1,-3,9,464,111,B,14.792387519593364,61.5527124128474,1761.2557292024767,-243.62040698719065,1.4374751796549958
2025-02-19 14:15:09.835,433,-367,727,-38,58,39,-2,0,5,317,33,B,26.785297459953107,27.99920048530216,902.459241944762,-764.9019440963687,-61.21447781487734
2025-02-19 14:15:09.938,787,-172,723,50,-44,-25,0,-2,3,595,35,B,13.38178358953395,46.64043068374573,1514.059332341352,-330.8998794951875,55.06620421499679
2025-02-19 14:15:10.859,815,-83,621,-3,-6,4,-2,-6,6,156,58,C,7.612773031369909,52.44912014051489,1607.8124345743013,-163.7404074474442,16.906108134182546
2025-02-19 14:15:10.958,779,-153,648,-31,-17,-13,-3,-6,8,529,70,C,13.28486648490219,49.47922342918696,1539.1704130404817,-302.30176276661575,15.66312240021557
2025-02-19 14:15:11.065,792,-69,612,-7,-3,-1,-3,-5,6,612,85,C,6.432653924138303,52.13054197052313,1581.411422316583,-137.7744799745508,2.000264573549657
2025-02-19 14:15:11.175,696,-94,599,-1,-22,-26,-2,-7,10,659,99,C,8.91858791235282,48.938763445633754,1450.0079668693224,-195.8344093185579,-49.92352321081046
2025-02-19 14:15:11.282,722,-195,584,18,15,-29,-2,-10,7,295,2,C,18.464376544788962,49.5436524314782,1482.9005454659682,-400.5063800081216,-31.465261152528228
2025-02-19 14:15:11.388,867,147,566,20,-19,51,-2,-5,8,340,109,C,-14.559044034740902,56.000960588604705,1696.046947550194,287.56505339086334,24.776733202526316
2025-02-19 14:15:11.488,897,25,593,-33,58,27,-3,-7,8,661,78,C,-2.414075504356909,56.508200083911305,1730.9648058998177,48.243166273685,41.67209598819204
2025-02-19 14:15:11.602,626,-187,657,1,-15,-12,0,-3,5,506,41,C,15.887789063795816,42.50270263355338,1301.6249841283761,-388.82407672844465,-52.08245139351925
2025-02-19 14:15:12.519,764,-77,629,-2,0,-5,-2,-6,9,514,80,D,6.979225875982576,50.32618117042516,1533.6913581487331,-154.57360546786973,-4.685686224546089
2025-02-19 14:15:12.609,735,-90,604,-4,-7,-19,-3,-8,5,506,91,D,8.475093614986186,50.27879159464434,1504.1630582810576,-184.183231626252,-28.074132247291004
2025-02-19 14:15:12.723,761,-201,687,-5,-25,67,-4,-8,7,288,5,D,16.308231335381596,46.75307839886918,1489.407782477052,-393.39154307212544,29.422934872884753
2025-02-19 14:15:12.834,804,33,536,41,41,-56,-3,-4,8,372,102,D,-3.5230917098599446,56.25989045654943,1635.5655030205853,67.13141990009865,-18.37700201372354
2025-02-19 14:15:12.941,866,-101,549,17,-19,-28,-3,-6,7,525,108,D,10.424193377339432,57.19465696047464,1706.5160835828983,-199.02785732317864,16.155508213613075
2025-02-19 14:15:13.039,786,63,651,5,-13,60,-3,-8,7,401,107,D,-5.527540151656172,50.2356978805519,1554.6821919501735,124.61193141585358,14.343375369512955
2025-02-19 14:15:13.152,1004,-69,571,15,31,5,-1,-5,8,168,99,D,6.890249534492517,60.193224898799315,1871.7066812132468,-128.63322809134863,77.51343130202804
2025-02-19 14:15:13.259,558,-196,686,-9,9,-1,-3,-4,5,299,48,D,15.945395900922856,38.029468624138005,1174.0666871278454,-412.3961840090639,-71.38664403172368
2025-02-19 14:15:14.078,772,-90,621,1,-5,-8,-4,-5,7,442,84,E,8.24632081446853,50.89550969373187,1547.9969782237768,-180.4659689639118,-3.2151858509914746
2025-02-19 14:15:14.173,778,-60,620,2,-3,-10,-2,-9,7,474,96,E,5.527540151656172,51.31790491355473,1558.625757366936,-120.20250056814416,-2.092505870823061
2025-02-19 14:15:14.284,870,-99,593,-11,0,-13,-5,-8,8,397,114,E,9.477989634354577,55.353872429950876,1692.6789433342792,-192.6151901035559,32.25446735950845
2025-02-19 14:15:14.386,824,234,541,0,-21,45,-2,-4,9,0,110,E,-23.390043731291257,54.42244893522012,1637.3287789698393,464.9695804356097,7.006226428782611
2025-02-19 14:15:14.501,712,-120,593,-60,33,-64,-2,-7,7,337,95,E,11.439938881891198,49.64388143898993,1474.0344633543948,-248.43277472265083,-41.6719617544328
2025-02-19 14:15:14.601,820,108,575,43,-37,6,-5,-8,9,479,112,E,-10.637703085148656,54.49285107726788,1634.0430564110334,215.21542694194096,4.1771250776292845
2025-02-19 14:15:14.708,766,-63,633,22,31,37,-3,-7,8,607,107,E,5.683706335384477,50.29194689220894,1535.3097665571895,-126.2722131763746,-2.7350942959543545
2025-02-19 14:15:14.816,793,-94,570,30,9,-8,-2,-9,6,288,80,E,9.364492286853677,53.92673828229953,1601.264756795354,-189.809441536902,-10.97214548972488
2025-02-19 14:15:14.923,755,-68,676,7,4,5,-1,-6,9,597,107,E,5.744158323767166,48.016497866530706,1498.3374655330454,-134.94959954469812,10.442216290942156
2025-02-19 14:15:15.028,854,46,412,14,7,-4,-2,-5,8,235,103,E,-6.370716931894014,64.10652127420337,1753.6074889060742,94.45660947269252,-22.00267614672441
2025-02-19 14:15:15.139,757,23,606,5,-5,16,-3,-7,6,561,110,E,-2.173549033378074,51.30161576619965,1537.4480391460975,46.71242391064761,-18.770821297932685
2025-02-19 14:15:15.238,664,-146,667,-12,29,3,-2,-4,6,457,56,E,12.346772485225435,44.200592276202975,1361.172513644015,-299.29395631329254,-33.32238945867209
2025-02-19 14:15:15.353,802,-57,616,-8,-2,-9,-3,-5,6,481,58,E,5.286665557844058,52.354805145195556,1593.808115014126,-113.27563909701394,7.8281809866564345
2025-02-19 14:15:16.069,769,-45,617,2,-6,-6,-3,-7,6,509,82,F,4.17139871906697,51.18430271761533,1548.166265502115,-90.59490500337472,-8.15680860182681
2025-02-19 14:15:16.168,760,-35,629,-6,1,-9,-2,-9,6,516,90,F,3.1848750947136675,50.344261570655966,1529.8927800359718,-70.45558855428817,-8.187577161350191
2025-02-19 14:15:16.279,754,-147,595,21,7,-2,-1,-10,8,447,107,F,13.877529803208006,50.894019229715106,1529.980570291209,-298.28533664828615,-17.345410243062815
2025-02-19 14:15:16.381,811,25,585,13,-1,26,-4,-6,7,117,102,F,-2.447048642323615,54.17108977394318,1621.7685586100606,49.99286555518065,0.16694600877281118
2025-02-19 14:15:16.488,642,-183,554,-51,9,-60,-1,-10,8,373,95,F,18.279676087830094,47.73579150605337,1382.0513678446127,-393.94922167533355,-84.61130496248529
2025-02-19 14:15:16.602,813,212,581,57,-35,17,-4,-10,7,488,106,F,-20.04642549544656,52.738823849046796,1608.8839183642176,419.5367659203125,12.231787737256695
2025-02-19 14:15:16.702,800,-47,665,12,39,35,-3,-8,7,613,101,F,4.042753642027797,50.194760005738026,1568.2249790503424,-92.13321751920762,26.412986164403037
2025-02-19 14:15:16.808,792,-28,577,36,8,-7,-2,-10,7,192,103,F,2.778205057496604,53.89326367676204,1599.9206058970872,-56.56284970343238,-11.598724245731319
2025-02-19 14:15:16.918,777,15,661,-8,-2,20,-2,-7,8,631,104,F,-1.2999836777855651,49.604647044876806,1538.590871595984,29.70252647868695,13.108666505861834
2025-02-19 14:15:17.028,618,-158,654,1,-6,-11,-2,-5,7,422,59,F,13.58185243592964,42.56837243127231,1294.4695371517466,-330.94852244332674,-61.8755296071879
2025-02-19 14:15:17.748,800,-17,605,-14,-2,-9,-1,-8,8,529,86,G,1.6095405300744126,52.89072745952916,1597.4862973950833,-33.94658381964552,1.9009875949682282
2025-02-19 14:15:17.838,796,-4,583,-2,-10,-5,-3,-10,7,574,96,G,0.3931038112359202,53.77986003710647,1602.7526592857275,-8.054033463747373,-7.875377341179842
2025-02-19 14:15:17.950,797,-128,606,1,2,-23,0,-10,9,563,111,G,11.9267726387043,52.148236991609245,1586.6009683515122,-254.8116988067673,5.625863461710878
2025-02-19 14:15:18.051,873,181,495,-1,-17,70,-3,-7,6,322,99,G,-20.085271039112826,58.879466372648245,1729.081914709729,358.4923557416506,9.592728772833937
2025-02-19 14:15:18.167,797,-167,612,-9,1,-38,-1,-9,9,644,105,G,15.26304014355937,51.48179159505239,1579.4102842900106,-330.9429328437036,11.20314430930182
2025-02-19 14:15:18.270,863,216,521,-14,-14,49,-2,-6,9,268,109,G,-22.518276792946722,56.83397037444819,1700.0888138013543,425.51469731296936,15.642790277513882
2025-02-19 14:15:18.384,1680,-401,754,-26,1,-33,-2,-6,8,329,107,G,28.005395889803648,63.05423570410123,2571.4358685348893,-613.7772519538635,353.91509233612703
2025-02-19 14:15:18.487,770,35,593,32,-12,23,-3,-8,9,668,108,G,-3.3777884172389268,52.3508872865374,1561.7663490002024,70.98937950000919,-16.762915528727262
2025-02-19 14:15:18.588,664,-128,613,-33,50,19,-2,-6,6,548,58,G,11.794413894813546,46.67719077501493,1391.4996784005084,-268.2409018603389,-58.62244406552952
2025-02-19 14:15:19.408,781,-4,614,2,0,-6,-2,-8,8,539,79,H,0.37325712687132734,51.82598645426025,1567.1372909631266,-8.026311349363004,-4.038792127220972
2025-02-19 14:15:19.502,750,33,612,-1,-3,-18,-3,-9,6,533,93,H,-3.086489263781074,50.74480718743603,1524.3352977570223,67.07075310130898,-19.857602969730124
2025-02-19 14:15:19.617,835,-245,695,25,3,32,-1,-11,8,509,105,H,19.418470742061114,48.57037199479669,1584.7690008630775,-464.9921020496455,70.94077173671997
2025-02-19 14:15:19.719,866,98,585,21,1,29,-1,-7,9,370,106,H,-9.509962811941021,55.591479727424364,1691.0294747148268,191.36361261207048,27.676394101416122
2025-02-19 14:15:19.834,583,-224,553,15,-66,-40,-1,-10,6,376,105,H,22.05106271907673,44.33729732448623,1281.8810255607884,-492.52375596160647,-109.91802253021604
2025-02-19 14:15:19.936,782,41,627,17,-16,25,-2,-7,7,636,105,H,-3.741287518570765,51.218030135285545,1561.5351093021122,81.87076660023862,1.9763254061069802
2025-02-19 14:15:20.047,602,-186,610,14,-36,-38,-2,-8,9,698,99,H,16.957409111271133,43.34927218941356,1288.4439561259412,-398.09065754057326,-85.56613494489079
2025-02-19 14:15:20.154,792,226,579,-9,-19,69,-2,-7,7,417,109,H,-21.3221013289736,51.87596301628304,1578.6760910463256,450.4808037581687,3.8921001062846017
2025-02-19 14:15:20.258,771,-69,495,-38,64,8,-2,-6,8,535,71,H,7.935550370088819,57.04744991712209,1610.121327078859,-144.09646117826364,-43.73548236580439
2025-02-19 14:15:20.367,736,-70,640,8,-28,-26,-1,-6,6,544,63,H,6.241914347415049,48.82215569969708,1488.6695612020212,-141.58542022301833,-14.495270610453417
2025-02-19 14:15:21.082,762,-27,627,5,3,-7,-2,-7,9,578,84,I,2.465758994997765,50.5252256752794,1533.9045554445004,-54.350948814962614,-8.149811369687427
2025-02-19 14:15:21.177,727,10,625,4,9,-10,-2,-8,6,512,87,I,-0.9166542563852879,49.310812389543905,1485.2573813594936,20.42995022502742,-26.871889064213747
2025-02-19 14:15:21.287,1036,-8,539,70,-2,-23,-2,-12,7,365,98,I,0.8503387423494999,62.51079660842421,1923.0978276598448,-14.850176275365598,77.46937344724279
2025-02-19 14:15:21.394,798,59,600,2,-2,17,-1,-8,8,727,102,I,-5.616030127944141,52.92873117012739,1595.88630930081,117.99159429667642,0.08548172871439874
2025-02-19 14:15:21.505,1252,-95,747,22,-2,-33,-2,-10,6,554,103,I,7.247705196740877,58.97515480146825,2108.9438838931496,-160.02369726026296,235.70840154298503
2025-02-19 14:15:21.609,807,112,554,14,-7,52,-1,-9,5,438,104,I,-11.429215673329944,54.9933097438805,1626.0850639066944,225.67723315681502,-8.296314007817159
2025-02-19 14:15:21.717,457,-127,573,-3,-6,-30,-2,-4,7,250,81,I,12.497041432875927,37.906477824431725,1071.3744095180537,-297.73424509582674,-197.32064913313934
2025-02-19 14:15:21.824,771,110,625,23,-36,15,-2,-8,6,545,107,I,-9.981829287733165,50.54237765955352,1543.0948346213445,220.15620208605435,-0.8875118525813832
2025-02-19 14:15:21.931,701,-52,478,-47,66,4,-2,-7,5,520,63,I,6.208598547085466,55.55353851878844,1525.6550920117033,-113.17270297376405,-84.31830810498468
2025-02-19 14:15:22.750,743,11,644,13,5,-5,-3,-9,8,542,96,J,-0.9785594609003244,49.07854498303714,1498.608241485219,22.186663063711187,-10.92827391181845
2025-02-19 14:15:22.848,771,-81,503,44,6,-20,-2,-12,6,248,102,J,9.148021310425019,56.54309990698877,1605.300772572612,-168.65027571774525,-41.29739118550435
2025-02-19 14:15:22.949,726,58,662,-3,-3,11,-3,-8,7,756,101,J,-5.0070864271058975,47.53092422992214,1463.6418654583208,116.93006638647745,-10.615585307725269
2025-02-19 14:15:23.059,580,-125,605,-9,6,-11,-3,-11,6,569,76,J,11.673710312884788,43.19347322698751,1264.4640619894826,-272.5138064632506,-108.96682328213274
2025-02-19 14:15:23.166,761,-1,631,10,-11,69,-3,-8,8,635,101,J,0.09080147630133652,50.335387935324185,1530.7939342601362,-2.0115557611828327,-7.291685306367754
2025-02-19 14:15:23.278,671,-174,556,33,57,-55,-2,-6,8,192,102,J,17.3774920850875,49.034093892332784,1426.0998349526656,-369.8083029534482,-69.68630139147831
2025-02-19 14:15:23.381,645,-84,659,-7,31,22,-2,-8,4,209,59,J,7.264083501812918,44.15410204019703,1341.590583273508,-174.71877363561967,-52.71037887944476
2025-02-19 14:15:23.491,787,-39,668,-3,-19,-6,-2,-4,6,453,59,J,3.3413199105399713,49.62753933637475,1548.849739744323,-76.75367198224725,21.3473619450981
2025-02-19 14:15:24.301,793,-8,622,-1,1,-5,-2,-8,8,331,84,K,0.7368825782116466,51.88836774640794,1579.8097344271257,-15.937550914775542,4.855416376201674
2025-02-19 14:15:24.405,722,-25,636,3,-7,-13,-3,-9,7,345,92,K,2.2510336863177343,48.601672741170795,1472.1303762055181,-50.974043497420986,-24.77966657438992
2025-02-19 14:15:24.512,774,-94,601,6,3,-23,-1,-11,8,277,106,K,8.889383510342132,51.83527669027761,1560.237494782762,-189.48620737671786,-9.502240780930038
2025-02-19 14:15:24.615,824,116,529,10,2,26,-1,-6,8,0,106,K,-12.368155033195253,56.68532397465212,1659.6667045214099,233.64240015107225,-7.48991103376909
2025-02-19 14:15:24.728,529,-249,586,11,-13,-45,-2,-10,6,530,79,K,23.021351092876444,39.72102924813706,1168.0501669105242,-549.8005511544814,-121.90812440371883
2025-02-19 14:15:24.831,728,-8,646,0,4,12,-1,-10,7,619,102,K,0.7095089882746495,48.41316685077191,1475.9506442471086,-16.219237848869327,-17.703456296197828
2025-02-19 14:15:24.933,856,82,503,2,17,7,-1,-9,7,128,102,K,-9.259015456580805,59.2315348842436,1715.2415888382425,164.31052603356997,-1.9048121327522836
2025-02-19 14:15:25.044,775,19,610,3,-9,25,-1,-6,8,0,112,K,-1.784045847581452,51.78032863326816,1560.6445286356588,38.260962637519384,-8.378274151938058
2025-02-19 14:15:25.149,611,-167,691,-32,48,-2,0,-5,6,142,50,K,13.586644054527135,40.678445883730035,1262.8131549143718,-345.15515036121127,-46.15693951854473
2025-02-19 14:15:25.968,768,-31,628,6,-2,-5,-1,-10,5,404,84,L,2.8260009552497234,50.692676510481775,1541.7592452925264,-62.232469536547285,-4.70938286940941
2025-02-19 14:15:26.068,727,21,612,11,-1,-21,-2,-7,9,499,100,L,-1.9652605719205243,49.892192007193515,1491.8336157508913,43.09285547561035,-31.848931003501434
2025-02-19 14:15:26.178,808,-202,694,12,-6,46,-1,-11,6,515,101,L,16.228497030578676,48.18563004757656,1553.3088079066974,-388.32720197667436,53.84614766429695
2025-02-19 14:15:26.281,892,-98,574,47,-3,11,-2,-6,6,253,102,L,9.688786560366802,56.863130067051294,1729.367125643446,-189.99773353481802,35.15613215320866
2025-02-19 14:15:26.382,875,17,636,1,10,10,-2,-5,7,665,100,L,-1.5311263836448818,53.97847203445037,1683.796086439766,32.71375253654403,48.12078745635279
2025-02-19 14:15:26.498,613,-105,685,-24,6,-17,-1,-5,3,366,48,L,8.714732874861157,41.494654781695544,1275.550174010889,-218.4873870654867,-55.370096570079795
2025-02-19 14:15:27.317,758,-13,628,-1,0,-7,-2,-7,7,461,65,M,1.1858897583419412,50.35235639015507,1527.9829342692683,-26.205512065304077,-9.927813616227695
2025-02-19 14:15:27.411,762,-11,630,1,-4,-7,-1,-8,8,425,71,M,1.000300856228831,50.412733705418106,1532.6548880948071,-22.124939329452594,-7.155616141375845
2025-02-19 14:15:27.517,786,7,624,3,-1,-8,-3,-7,6,429,78,M,-0.6427141570123379,51.552425098602114,1569.1774241993844,13.974862556483068,2.240823536366406
2025-02-19 14:15:27.628,680,24,619,-5,-12,-28,-1,-7,7,406,90,M,-2.2203720101574156,47.667165972682405,1419.2452957337941,50.09101043766333,-53.9306442047332
2025-02-19 14:15:27.733,742,76,662,-2,-17,68,-1,-11,6,274,98,M,-6.549091574195314,48.07478188802267,1486.0175349357385,152.20664778317536,-1.8000109534484636
2025-02-19 14:15:27.841,850,21,650,18,34,-57,-3,-7,7,478,95,M,-1.850450768670028,52.58022107238083,1644.204902564916,40.621532886897924,42.666839215064215
2025-02-19 14:15:27.952,832,-42,573,-6,-12,-21,-3,-11,8,534,100,M,4.192193627875302,55.37299974538854,1654.8686845632171,-83.53904417266241,6.288754501534299
2025-02-19 14:15:28.058,829,169,612,23,-10,24,0,-9,8,408,104,M,-15.437160213556544,52.5526112188362,1622.9119942307257,330.8469566043336,25.903328746436728
2025-02-19 14:15:28.161,805,-81,604,23,0,-39,-2,-9,9,694,99,M,7.638133975787736,52.87327910469036,1602.3025254357847,-161.22547150347646,5.775496443212546
2025-02-19 14:15:28.271,829,153,557,20,6,30,-2,-7,9,418,104,M,-15.359514177291594,55.13195270034745,1649.4708225319664,304.4258574757429,5.730701869354334
2025-02-19 14:15:28.378,572,-124,696,-24,25,-3,-2,-6,3,550,47,M,10.101876438970507,38.9762686518909,1200.9984508675254,-260.35630753072235,-69.3547583982479
2025-02-19 14:15:29.088,755,-18,627,2,-2,-4,-1,-7,7,532,68,N,1.6444032646950881,50.28000362991233,1524.1765766309509,-36.33798460842003,-11.77313052663078
2025-02-19 14:15:29.189,810,7,627,0,-1,-3,-1,-8,7,535,74,N,-0.6396392257743791,52.25574661652245,1600.7509735554117,13.83365038875047,14.900172321922128
2025-02-19 14:15:29.296,734,-6,640,1,-1,-6,-3,-7,5,583,73,N,0.537132197009115,48.912453156879934,1487.7062540838488,-12.16108654564454,-17.182564868750774
2025-02-19 14:15:29.408,701,-28,626,5,-23,-34,-1,-10,7,515,99,N,2.5610435289603726,48.206380320698166,1446.550218519118,-57.77946664555678,-39.783790004233765
2025-02-19 14:15:29.513,747,52,684,-4,-16,67,-2,-8,7,298,101,N,-4.347456907559677,47.438589252582645,1483.5528025379185,103.27275198389793,9.56610851949631
2025-02-19 14:15:29.619,862,16,697,18,40,-58,-3,-6,5,450,94,N,-1.3150236688516486,51.03414755703944,1639.520890375174,30.431942280745695,68.30851439501578
2025-02-19 14:15:29.729,877,-25,642,-7,-21,24,-1,-10,8,574,99,N,2.2300173279507547,53.77364903359353,1683.6886006930126,-47.99568417026832,51.470830507509504
2025-02-19 14:15:29.836,940,286,661,-17,-15,-4,-2,-6,8,43,112,N,-23.39706188221236,52.54096734913473,1733.788411085758,527.5143463516241,102.81474497054705
2025-02-19 14:15:29.943,987,93,624,-2,23,23,-2,-7,7,672,95,N,-8.476878224461029,57.41321098296879,1829.5766017662909,172.39171627585114,91.30719402009572
2025-02-19 14:15:30.048,606,-85,654,-6,-6,0,0,-7,6,524,48,N,7.4051890767097746,42.57919308770272,1282.608612041854,-179.90384822369236,-76.20137339170378
2025-02-19 14:15:31.068,771,-35,619,-2,-1,-2,-4,-7,5,367,64,O,3.2362185399376577,51.1959924424899,1550.294135175477,-70.37651716101385,-6.658974933359332
2025-02-19 14:15:31.158,768,-52,625,1,-2,-3,-3,-5,10,389,67,O,4.756054855559571,50.76444687724868,1542.5521533121996,-104.44363538051351,-5.332156015787291
2025-02-19 14:15:31.269,770,-38,623,-1,0,-6,-2,-7,5,446,68,O,3.490442305349901,50.971962587390465,1546.8379135322602,-76.33745547302064,-5.532493676101694
2025-02-19 14:15:31.379,766,-21,619,-3,-3,-3,-2,-8,5,471,72,O,1.9430534335394025,51.0424200726691,1543.6116783173318,-42.318335828543034,-9.38332751753046
2025-02-19 14:15:31.482,792,-14,616,6,-2,3,-2,-8,7,560,75,O,1.3019526725788753,52.11784689397335,1581.2753884431245,-27.951837674499675,2.1191423220143406
2025-02-19 14:15:31.589,769,-28,618,0,-1,1,-2,-7,7,589,74,O,2.5941511955853165,51.184522070674106,1548.1686652245132,-56.370250489319076,-8.17195722854251
2025-02-19 14:15:31.700,784,-23,620,1,-3,0,-2,-7,5,608,75,O,2.1245143874414523,51.643307262984315,1568.1627306516673,-46.00477398595453,-0.1286900561655102
2025-02-19 14:15:31.806,790,-27,605,1,-3,-4,-2,-7,8,615,80,O,2.5553061905230656,52.52676618403525,1583.6376415072773,-54.12432445657784,-2.7857887492439204
2025-02-19 14:15:31.913,759,-29,594,8,-15,-5,-2,-8,8,646,88,O,2.7950493991182084,51.91985106411387,1546.1487569417282,-59.07551245231899,-22.029461954395742
2025-02-19 14:15:32.023,794,-110,654,-9,-4,-23,-3,-7,8,618,104,O,9.5475414503597,50.129775699064204,1561.4983993067904,-216.32849360673418,21.828774374507702
2025-02-19 14:15:32.130,847,305,500,-9,-36,85,-1,-8,7,482,102,O,-31.38319105635903,55.3369261045164,1669.5107607285095,601.1815608290382,14.456457657314388
2025-02-19 14:15:32.240,833,-181,564,15,-7,-51,-2,-8,8,671,102,O,17.792577784054686,54.58402844705425,1647.9662858509196,-358.08150989077603,12.210101776808301
2025-02-19 14:15:32.341,614,-8,674,-33,43,38,-4,-7,7,564,50,O,0.6800366654427403,42.330860985784454,1287.4108002634414,-16.774082088123016,-65.21641592436401
2025-02-19 14:15:33.158,833,45,595,2,1,-2,-2,-9,6,628,89,P,-4.32506043473846,54.38500409072276,1645.9483753238183,88.91677897907782,14.32258905441563
2025-02-19 14:15:33.252,754,25,612,-1,-4,-9,-3,-8,9,608,92,P,-2.33921330234547,50.911386634895706,1530.1717286366015,50.735136891134005,-17.996151094960396
2025-02-19 14:15:33.367,793,-65,582,-6,-2,-20,-3,-10,8,504,102,P,6.3726049686522295,53.55469438215817,1597.4243103496055,-130.93641888111523,-8.384550597062344
2025-02-19 14:15:33.473,812,208,532,8,-4,29,-3,-7,5,285,104,P,-21.354377364898106,54.87482920360459,1629.8970310443262,417.51056952859597,-3.863572063524316
2025-02-19 14:15:33.579,850,19,538,-3,5,-71,-2,-9,7,569,99,P,-2.022616295096531,57.652457203578244,1694.81814827601,37.884170373228464,3.279807326478249
2025-02-19 14:15:33.680,694,88,666,-1,-5,42,-2,-10,9,635,97,P,-7.527011159775447,45.931699071562186,1412.511203798019,179.1080488965788,-23.522279149107817
2025-02-19 14:15:33.797,1176,44,560,-18,53,14,-4,-9,8,502,90,P,-4.492581479915314,64.46814908342422,2078.3458223329135,77.76123825055119,130.311513174803
2025-02-19 14:15:33.899,507,-165,724,-10,5,6,0,-7,5,481,40,P,12.838466371326428,34.32407389739793,1070.873099891499,-348.50899700610904,-81.2152353480177
2025-02-19 14:15:34.818,734,-84,631,6,-10,-1,-2,-8,5,416,72,Q,7.582747639599477,49.06630987094753,1489.4683485160915,-170.45686822255,-18.455760100345856
2025-02-19 14:15:34.915,768,-32,639,6,4,-5,-2,-6,8,397,100,Q,2.866877266339404,50.20320269926989,1536.3193030193938,-64.01330429247474,-0.2656700903550018
2025-02-19 14:15:35.021,821,-86,520,46,18,-29,-3,-9,6,0,98,Q,9.390836556393491,57.30044818648422,1662.5150078575252,-174.14895332003312,-12.99367123740933
2025-02-19 14:15:35.131,692,90,741,-36,-29,-10,-2,-8,6,456,96,Q,-6.92508173839268,42.832373074379554,1371.8557654395304,178.4205475282626,13.00415868397124
2025-02-19 14:15:35.234,890,-76,683,8,21,36,-3,-7,8,544,93,Q,6.349398845222123,52.32639836151018,1681.505202921618,-143.58920833937415,75.58645663430855
2025-02-19 14:15:35.345,1425,-72,691,7,0,-14,-3,-7,5,259,98,Q,5.948571947420651,64.00902972943811,2323.863121776313,-117.41624194238213,255.13023358074935
2025-02-19 14:15:35.452,805,80,609,-6,-26,48,-1,-7,8,264,104,Q,-7.483688797097208,52.65560184587032,1600.0036653185466,159.00657543538352,7.562444498142895
2025-02-19 14:15:35.558,665,-108,561,-4,57,0,0,-4,8,248,61,Q,10.8968907553255,49.33414223843052,1423.5227834073603,-231.1886625684134,-78.8966638970362
2025-02-19 14:15:35.668,834,-41,637,7,-13,-16,-2,-4,5,196,61,Q,3.682717504065489,52.570661313117604,1628.103505541823,-80.03866154342296,30.47250236194077
2025-02-19 14:15:36.481,773,-31,623,2,-4,-6,-3,-5,6,267,71,R,2.8486443314488503,51.098275222261655,1551.2242445698312,-62.209510454935014,-4.2104843040166315
2025-02-19 14:15:36.578,768,-13,616,3,-1,-9,-3,-9,6,329,79,R,1.2089847157209792,51.26125518584217,1548.007424483446,-26.20325067484999,-9.630955054430501
2025-02-19 14:15:36.688,795,1,590,-15,-7,-16,-3,-7,5,273,99,R,-0.09711139770835238,53.41943313305875,1598.019651886295,2.0100876124355906,-5.951691336998579
2025-02-19 14:15:36.795,782,275,545,-2,-11,49,-3,-6,8,0,99,R,-26.77492488864554,52.02342495066574,1570.2623963275646,552.2022493479286,-4.3644577986221975
2025-02-19 14:15:36.901,824,-179,604,10,6,-45,-1,-9,5,414,94,R,16.5075911325697,52.601303250569856,1618.4284357089123,-351.5760800872516,21.67624372793341
2025-02-19 14:15:37.013,693,134,678,-28,-11,51,-3,-7,7,290,97,R,-11.179862823424411,45.07802828593727,1401.0690988988774,270.9137940150787,-14.742927927040114
2025-02-19 14:15:37.118,842,41,663,-22,-60,70,-2,-7,7,121,100,R,-3.5386716462129724,51.72955831792947,1627.096003873382,79.22914033112669,44.806828303975976
2025-02-19 14:15:37.220,849,47,568,-58,76,15,-1,-7,7,0,74,R,-4.730247680511784,56.12618797729028,1679.267124952457,92.96296215873434,12.532712634869995
2025-02-19 14:15:37.332,745,-71,620,24,-17,-22,-2,-5,6,136,59,R,6.532832996772786,50.048647136398955,1511.5899274930514,-144.05756355974046,-17.967456437170085
2025-02-19 14:15:38.048,776,-33,607,-8,-4,-6,-4,-7,8,422,83,S,3.111863628003922,51.92585887605093,1563.2134239966974,-66.47685952563275,-8.771325213911496
2025-02-19 14:15:38.147,769,-42,594,-2,-10,-7,-3,-8,5,437,93,S,4.0444855741811025,52.24722483322476,1559.6599195841518,-85.18298650524625,-16.73080914562547
2025-02-19 14:15:38.253,767,-44,612,-8,2,-11,-3,-8,9,424,104,S,4.112228844718459,51.341118203344216,1547.8789104928273,-88.79618260975803,-11.074176299361625
2025-02-19 14:15:38.360,842,-97,527,56,19,15,-2,-7,8,213,100,S,10.429173620263972,57.52714114605928,1685.6458712707158,-194.1896074979328,-1.0301355815524857
2025-02-19 14:15:38.468,744,-70,627,-8,-13,34,-2,-7,8,216,104,S,6.370278796975898,49.702799263160124,1506.6999285789716,-141.7594018824301,-15.759214004052637
2025-02-19 14:15:38.573,1174,-9,623,-9,72,26,0,-5,6,117,75,S,0.8276503183599851,62.044224134686154,2057.3096946082196,-15.7715393964855,154.25899510994822
2025-02-19 14:15:38.679,543,-186,707,-1,-15,-2,0,-4,4,198,38,S,14.739573713068904,36.60347618935852,1139.2735815669234,-390.2484091555208,-69.36357673630755
2025-02-19 14:15:39.499,718,-90,653,8,-9,-9,-2,-4,6,415,62,T,7.847374992468147,47.44594763836159,1454.639662640422,-182.33644796328412,-16.95222800027227
2025-02-19 14:15:39.596,766,-60,639,0,10,-11,-2,-9,4,402,74,T,5.3641577623300485,50.041267301142135,1532.507212336965,-120.03972942587191,-0.4231183855359859
2025-02-19 14:15:39.703,1030,-16,611,12,8,-25,-2,-9,4,218,95,T,1.5000376638458126,59.31479953060121,1889.9841164208192,-29.3589765657603,100.85408239502857
2025-02-19 14:15:39.810,890,147,643,35,-42,9,-4,-9,6,428,93,T,-12.877421042720412,53.45742911621833,1693.4146842002228,279.698829862284,62.55545849354678
2025-02-19 14:15:39.912,777,72,596,5,-4,1,-1,-10,6,685,95,T,-6.888258276994688,52.30926175995858,1568.322374878516,145.3271698729127,-10.986017281332693
2025-02-19 14:15:40.018,645,-78,567,1,4,-23,-2,-9,5,483,84,T,7.832795566234643,48.415793486834865,1392.981072248757,-168.45352501612876,-90.5275472326282
2025-02-19 14:15:40.129,675,-142,676,-5,-21,60,-1,-8,8,528,96,T,11.86302616860612,44.33915400441116,1373.9042026065156,-289.028735955741,-23.939616240006558
2025-02-19 14:15:40.228,908,44,636,4,10,7,-2,-6,6,443,95,T,-3.9575531141278533,54.92674082001453,1726.4179920890017,83.65902164307937,62.746868977307145
2025-02-19 14:15:40.348,566,-148,704,-12,-2,-12,-1,-5,2,232,44,T,11.872250313984544,38.19493199098182,1184.338881189823,-309.68578518744494,-65.09995116190021
2025-02-19 14:15:41.163,738,-38,637,3,-5,-5,0,-7,6,272,70,U,3.4139127567139584,49.15074638315569,1494.4330709809224,-76.94912831609085,-15.91038782499652
2025-02-19 14:15:41.258,773,-2,637,3,-1,-1,-3,-6,7,242,81,U,0.17989196622793371,50.509219837794696,1544.7269288944876,-3.9967061549663323,1.0490896432231693
2025-02-19 14:15:41.366,776,32,639,3,8,-15,-2,-7,6,54,89,U,-2.866877266339404,50.494913368287705,1547.5681102949995,63.81724166164947,3.6494555689373556
2025-02-19 14:15:41.476,753,-53,627,-2,-1,-16,-1,-9,6,0,93,U,4.831697883560457,50.1165591506309,1520.350506221308,-107.0100621908756,-11.949226295830272
2025-02-19 14:15:41.583,840,164,615,-3,-23,28,-1,-6,6,371,95,U,-14.931417178137556,52.84778708371591,1637.0339019474918,319.61138085641505,31.457321788443664
2025-02-19 14:15:41.694,756,-310,657,-6,-2,-17,-2,-9,6,573,94,U,25.259892832365992,46.141412003382136,1477.0520974942983,-605.6695108772917,30.37139146328809
2025-02-19 14:15:41.800,841,210,510,-14,-13,48,-1,-7,6,374,99,U,-22.380135051959574,56.74239960753674,1677.2134163663006,418.80477697612736,2.902684486547855
2025-02-19 14:15:41.906,657,-155,641,-43,58,6,-1,-3,5,405,44,U,13.593732454229373,44.89232489960307,1362.7766781357855,-321.5074354810453,-47.58881382806476
2025-02-19 14:15:42.618,775,-127,633,5,-6,-4,-1,-8,7,108,61,V,11.3447415702923,50.2039809085417,1543.3279965361876,-252.90665233560753,5.449520248507383
2025-02-19 14:15:42.718,780,-34,631,7,-3,-2,-1,-7,4,59,68,V,3.084270182947737,50.98741181743443,1557.0076777186116,-67.8695654390164,2.420711999430978
2025-02-19 14:15:42.824,748,-14,650,-2,9,-9,-1,-7,5,29,69,V,1.2338721670000639,49.0033041503856,1502.7474127788146,-28.12628847446979,-5.863393457525831
2025-02-19 14:15:42.928,745,18,619,-6,-7,-37,-1,-9,6,0,84,V,-1.6656437538141016,50.26583786659953,1514.018558292977,36.58031416009877,-19.9563591722856
2025-02-19 14:15:43.044,751,-122,652,-59,-54,96,-2,-7,6,368,96,V,10.598430687567516,48.547655853123615,1500.5065969064594,-243.75739656802665,1.296536374152538
2025-02-19 14:15:43.152,683,-90,500,50,21,-84,-1,-6,8,430,103,V,10.203973721731684,53.35704753709704,1485.37028257181,-195.72961263757378,-87.38673687540995
2025-02-19 14:15:43.254,827,14,644,-9,10,-2,-2,-8,7,632,95,V,-1.2453642667683475,52.084895130318486,1615.922113587087,27.355392491196156,29.651945404976914
2025-02-19 14:15:43.360,694,-22,657,-1,-4,10,-1,-6,5,521,64,V,1.9178635285373675,46.552745924458534,1420.007755922912,-45.01465508689346,-30.30129054950021
2025-02-19 14:15:44.278,758,-7,650,-4,3,-2,-1,-8,6,114,70,W,0.6170076196569482,49.38461615198155,1517.0965478723238,-14.010126431538609,-0.9403115000136495
2025-02-19 14:15:44.376,756,-3,650,-1,-2,-3,-1,-10,3,119,74,W,0.26444018162005223,49.3111386365505,1514.2610936358635,-6.008972593793109,-1.94406198850686
2025-02-19 14:15:44.478,749,20,653,5,2,-14,-1,-7,7,0,81,W,-1.7542993518988794,48.903828856694005,1502.6073204796567,40.12302591400952,-4.0167960924108
2025-02-19 14:15:44.586,781,4,625,-12,1,-8,-2,-9,5,0,93,W,-0.3666879824251568,51.33067384052649,1561.765025085853,7.998796543333436,0.18804010415078665
2025-02-19 14:15:44.700,739,113,639,-16,-29,65,-3,-9,5,111,94,W,-10.028438925554143,48.713694296906176,1490.421859418333,227.8994182872417,-10.740958279180859
2025-02-19 14:15:44.798,739,86,550,10,-2,-57,-3,-6,7,291,100,W,-8.887014755542772,53.009565495826585,1537.7359715720775,178.9516827539901,-44.45843621737845
2025-02-19 14:15:44.911,875,-35,669,0,-8,33,-2,-9,6,530,97,W,2.9948067172283275,52.561715546883605,1669.0086009053834,-66.76034403621536,61.9237097077696
2025-02-19 14:15:45.019,874,97,622,-21,-22,17,-3,-8,8,93,106,W,-8.863798359546925,54.23583559026369,1685.429521542837,187.05567916436516,44.52956247180259
2025-02-19 14:15:45.127,786,-64,600,11,6,-10,-2,-8,9,630,103,W,6.088528154195175,52.48694148094429,1579.2145743416768,-128.58744625682863,-5.507308657768249
2025-02-19 14:15:45.228,584,-136,679,-27,21,21,-1,-6,5,494,51,W,11.326158975855746,40.14221523397397,1228.6870450053166,-286.132599521786,-70.55908143597594
2025-02-19 14:15:45.953,779,-8,631,11,5,-7,-3,-6,6,384,73,X,0.726373501367963,50.98983125920925,1556.0342586889801,-15.979812669463211,1.5922756960893594
2025-02-19 14:15:46.048,758,-6,635,3,6,-12,-2,-9,4,361,75,X,0.5413613336561415,50.04479323097937,1524.5467334827304,-12.067652243926627,-7.15986248223453
2025-02-19 14:15:46.153,725,16,625,1,-8,-18,-2,-9,6,225,90,X,-1.4664516602477826,49.227112729774646,1482.3041736995883,32.71291969543918,-27.848425603093233
2025-02-19 14:15:46.261,1085,-249,629,16,-13,34,-2,-8,5,288,93,X,21.5969510806287,58.056653656750946,1933.5716618741371,-443.74133069738264,137.06306422227448
2025-02-19 14:15:46.371,791,-3,600,12,-10,23,-1,-7,6,47,105,X,0.2864765102770745,52.81811956128015,1587.7210802436273,-6.021698155159143,-4.339631031828617
2025-02-19 14:15:46.477,473,-218,694,-1,-4,-33,-3,-6,8,462,59,X,17.438600926417088,33.03316879717218,1018.1244540752449,-469.2412917302397,-105.82319477424949
2025-02-19 14:15:46.584,752,19,603,-10,-3,-3,-2,-8,9,524,101,X,-1.8047425466963034,51.26133430708193,1532.0082886252126,38.707656228562556,-22.45877399069559
2025-02-19 14:15:46.690,919,278,405,-25,1,38,-3,-10,5,0,100,X,-34.46647325139418,61.874205207872635,1800.914725170773,544.7816034792982,16.34334744922404
2025-02-19 14:15:46.798,892,90,649,-66,69,20,-1,-6,7,109,62,X,-7.895132851049673,53.70118855466832,1697.9405629103371,171.31687293938376,62.61499402599907
2025-02-19 14:15:46.908,546,-183,719,13,-31,-20,-2,-5,5,172,40,X,14.279735017337286,36.350290213205604,1138.720337933663,-381.6590143623815,-61.52366845110555
2025-02-19 14:15:47.726,748,-47,647,3,-3,-4,-3,-7,7,215,62,Y,4.154837347576274,49.0664543445877,1503.4700005897016,-94.46937169480742,-6.461350777455436
2025-02-19 14:15:47.821,785,-11,638,5,-7,-3,-1,-7,6,264,72,Y,0.98776039963981,50.89373116339053,1560.977399021707,-21.873568648711817,7.33301837471447
2025-02-19 14:15:47.926,738,-43,641,4,-3,-13,-1,-10,6,301,80,Y,3.8378047064117293,48.959914146141564,1492.2503968858182,-86.94683884294062,-14.114504612207838
2025-02-19 14:15:48.029,752,30,649,-7,4,-17,-3,-7,8,244,97,Y,-2.6466112275538007,49.174511199320555,1508.7042977822493,60.187671454079094,-4.059959123244425
2025-02-19 14:15:48.144,701,75,607,-8,-30,49,-2,-7,6,220,99,Y,-7.04367986803086,48.895608816150535,1454.5130084446187,155.6183675226054,-45.47132114961994
2025-02-19 14:15:48.251,544,-134,543,-8,19,-19,-1,-8,7,527,73,Y,13.862319259472743,44.20602830376164,1241.2405278483334,-305.74674766852326,-152.95883570155343
2025-02-19 14:15:48.353,737,-87,625,2,1,4,-2,-8,8,510,96,Y,7.924649968889912,49.42955909096326,1496.6069429486888,-176.6686621934002,-19.171423803162156
2025-02-19 14:15:48.462,858,121,497,12,21,30,0,-8,7,1,100,Y,-13.683073387192783,59.1976991942712,1716.9393343194674,242.13247022454027,-0.5441132363348515
2025-02-19 14:15:48.568,600,-172,691,-23,17,-2,0,-6,5,130,52,Y,13.977698754466545,40.117357209313816,1244.3553258358343,-356.7151934062724,-51.082550254268995
2025-02-19 14:15:48.676,858,-6,628,16,-21,-6,-1,-7,7,145,70,Y,0.5473952508777505,53.79706097554168,1664.9300155784233,-11.642867241807156,37.379895357517626
2025-02-19 14:15:49.798,756,-46,643,8,-3,-8,-2,-7,6,335,76,Z,4.091949204740548,49.545679802547234,1516.923504748297,-92.2995783312456,-4.187584065019905
2025-02-19 14:15:49.894,1056,-158,625,16,0,-24,-2,-9,5,0,98,Z,14.187134938720144,58.59696528960561,1909.523200444357,-285.705175824061,119.83712094912602
2025-02-19 14:15:50.000,711,62,653,5,-38,24,-2,-9,5,454,93,Z,-5.42376896735961,47.306754838318255,1445.9945411132644,126.09235098315388,-22.03718051612077
2025-02-19 14:15:50.098,786,144,543,-34,15,22,-1,-9,8,125,96,Z,-14.852578865990482,54.44586820888916,1599.5665197276808,293.0503547592698,-19.044046071413163
2025-02-19 14:15:50.213,829,53,585,44,-36,18,-3,-6,4,137,97,Z,-5.176766830762477,54.68015289043095,1644.9373727356656,105.16487425209927,9.217897406074144
2025-02-19 14:15:50.319,790,40,609,-13,0,8,-1,-6,6,481,97,Z,-3.757871907835316,52.31222346186548,1581.3539779288117,80.06855584449679,-1.0437627324636196
2025-02-19 14:15:50.429,735,-33,678,7,-14,-13,-3,-8,5,267,67,Z,2.7865335694932476,47.27625718693857,1469.6335092954896,-65.98354531530771,0.3380689764054523
2025-02-19 14:15:50.536,816,44,609,-15,18,12,-4,-6,6,351,79,Z,-4.132416122728433,53.19363335561104,1616.6648031579216,87.17310213106441,11.445018231403992
2025-02-19 14:15:50.639,740,1,644,4,-7,9,-1,-8,5,330,65,Z,-0.08896853022227957,48.96788393127979,1494.341720162267,2.019380702921983,-12.481172681756789
2025-02-19 14:15:50.749,770,-11,630,-8,3,-1,-4,-7,7,228,61,Z,1.000300856228831,50.70631336096257,1543.9099965927599,-22.05585709418228,-3.199088121348723
2025-02-19 14:15:52.268,774,-44,633,1,-2,-1,0,-5,5,284,69,a,3.9762492672047904,50.65500331573149,1547.342551620979,-87.96262567354404,0.5376806510596452
2025-02-19 14:15:52.363,758,-42,628,0,-3,-1,-1,-6,6,293,72,a,3.8261855463300494,50.29556292458151,1527.350085553841,-84.62889656103076,-9.403500960174142
2025-02-19 14:15:52.469,794,-29,611,2,-4,-1,-2,-6,6,293,78,a,2.717400297319773,52.38978632276844,1586.1808648892252,-57.93355803751578,1.399863416477956
2025-02-19 14:15:52.579,719,-49,633,19,-23,-8,-1,-7,7,345,94,a,4.426391160771683,48.55474870780713,1468.588542184172,-100.08461553132744,-26.929829210821822
2025-02-19 14:15:52.685,785,-34,633,-3,-3,-5,-4,-6,8,340,99,a,3.074543979203993,51.07802281857116,1563.0022208682544,-67.69691147709636,5.642795147000129
2025-02-19 14:15:52.793,788,-11,610,0,-1,-2,-3,-6,6,330,98,a,1.0330906104742075,52.25161911839621,1578.7068740437962,-22.03778631279411,-2.0954228004004563
2025-02-19 14:15:52.899,787,-9,617,-1,-2,0,-1,-8,6,355,98,a,0.835697645794393,51.900955247063344,1573.9453092014496,-17.999374565200817,0.04287703012153088
2025-02-19 14:15:53.010,731,-41,645,-20,3,-16,-1,-7,8,160,100,a,3.637163767705306,48.51901568290587,1480.1755940371431,-83.01942456295879,-16.037288856302894
2025-02-19 14:15:53.109,867,57,622,14,-16,48,-2,-5,7,83,97,a,-5.235953599343381,54.2301745635439,1678.371771816573,110.34278084607229,39.908601995491836
2025-02-19 14:15:53.223,768,17,582,14,-8,-14,-1,-7,6,439,98,a,-1.6731123353193622,52.832934559816266,1564.8773199637685,34.63921150961467,-21.88359403504319
2025-02-19 14:15:53.329,791,-110,541,8,6,-27,-1,-7,8,477,95,a,11.493115514385085,55.087309657100434,1611.0251321598228,-224.03636477570228,-19.851575851408597
2025-02-19 14:15:53.432,868,-14,579,2,1,2,0,-5,8,301,98,a,1.3851202815659802,56.28697209490775,1699.8279401885898,-27.416579680461123,24.128597500929345
2025-02-19 14:15:53.543,563,-169,699,-12,17,-1,-1,-6,3,419,42,a,13.591799455305036,38.05667462804452,1179.4406418261879,-354.04168466896226,-66.34992653020481
2025-02-19 14:15:54.460,785,-38,610,11,-8,-5,-2,-5,6,502,86,b,3.564638972115678,52.09651743940724,1574.0467458026865,-76.19589342739118,-3.1446050186481216
2025-02-19 14:15:54.555,781,0,615,-2,3,-5,-2,-9,6,525,88,b,0.0,51.78126601715282,1566.6546503745435,0.0,-3.665313675216453
2025-02-19 14:15:54.661,795,20,559,-3,-5,-8,-2,-7,8,472,98,b,-2.0490644217251117,54.86998990637379,1612.848431870233,40.57480331749014,-16.0657527238493
2025-02-19 14:15:54.772,809,274,584,0,-18,49,-1,-9,5,213,99,b,-25.134940431248992,51.43173318186678,1590.8658873185504,538.8099544193853,19.587542405397585
2025-02-19 14:15:54.881,878,-118,515,8,16,-49,-1,-8,7,467,95,b,12.90520651201129,58.96214153922888,1734.8267997334638,-233.1543990530168,12.419360065223373
2025-02-19 14:15:54.989,746,104,695,-8,-18,24,-2,-6,8,549,95,b,-8.510608075065932,46.71044101591938,1473.8977223231452,205.47635807185938,16.864722500555217
2025-02-19 14:15:55.091,974,43,562,9,31,-20,0,-7,5,242,94,b,-4.375316141634349,59.94252628507963,1839.52341538286,81.21099267090653,62.59121206861687
2025-02-19 14:15:55.198,540,-105,712,0,-11,-2,-2,-5,4,357,46,b,8.389051844483395,36.881335696762896,1140.1596933619367,-221.69771815370996,-79.32166976610927
2025-02-19 14:15:55.308,827,2,631,-7,-8,-3,-1,-5,7,383,60,b,-0.18160249650140664,52.65627342854635,1622.0107754762635,3.9226379092533588,24.40773963056529
2025-02-19 14:15:56.028,771,-55,625,11,-14,-4,-1,-6,8,474,81,c,5.029073581785447,50.86239752796716,1546.632335671573,-110.33045196100713,-3.7551359205355084
2025-02-19 14:15:56.124,759,-17,595,5,-8,-6,-3,-7,7,525,96,c,1.6365770416167182,51.89482132135285,1545.8792479635636,-34.62443638390063,-21.85527343652211
2025-02-19 14:15:56.228,734,-93,628,1,9,-24,-2,-7,7,385,99,c,8.423662478345316,49.14292726996381,1490.343803331393,-188.8310268526152,-19.11704154239078
2025-02-19 14:15:56.336,864,141,574,11,-35,70,0,-6,5,322,96,c,-13.801136951983201,55.623883325135935,1689.3489289350114,275.6923599303664,25.677910638082835
2025-02-19 14:15:56.443,946,12,625,0,28,-10,-2,-4,6,629,90,c,-1.099943818839033,56.54333991144754,1780.303081928242,22.583125774988268,73.79553255269411
2025-02-19 14:15:56.553,567,-137,686,-5,-10,-8,-1,-4,6,392,44,c,11.293869738384656,39.02564358059176,1196.6681512721548,-289.14204007810446,-75.82072623050828
2025-02-19 14:15:57.468,781,-43,609,-1,-2,-1,-1,-7,5,447,78,d,4.038811975753012,51.98487427678854,1568.8481954158797,-86.37704533019568,-5.34001409509699
2025-02-19 14:15:57.570,746,-33,627,9,-20,-17,-4,-5,6,506,96,d,3.0127875041833403,49.91449617458192,1511.0843435618349,-66.84421358919647,-16.040058194732637
2025-02-19 14:15:57.676,757,-81,638,5,9,-19,-1,-10,7,416,100,d,7.235519161771795,49.64991007108247,1519.1025925859747,-162.54598414724433,-4.300467727677415
2025-02-19 14:15:57.783,819,146,616,1,-23,43,-1,-7,5,325,99,d,-13.333801673510088,52.296915824860896,1610.1906139254932,287.042527024569,20.91646132099652
2025-02-19 14:15:57.889,774,-81,621,-14,7,-61,-1,-7,9,558,96,d,7.431407971172507,51.02292091302484,1551.3976559919352,-162.3555686503188,-2.7260263191107015
2025-02-19 14:15:57.994,852,-97,757,12,-4,75,-1,-9,6,529,94,d,7.301940833002359,48.14721989111455,1596.8616826367625,-181.8023277180352,95.19214347883883
2025-02-19 14:15:58.098,936,21,573,12,35,-3,-1,-5,8,397,93,d,-2.098905933203546,58.508761019235266,1788.7200489264542,40.13153955924737,50.982277740536006
2025-02-19 14:15:58.208,600,-147,686,-3,1,-13,-1,-5,6,443,48,d,12.094757077012103,40.537749076524214,1249.9488975201416,-306.23747989243464,-57.1082394980283
2025-02-19 14:15:58.315,804,-38,627,2,-9,-4,-1,-6,4,380,62,d,3.468229258917148,52.00014089923507,1592.0122676116828,-75.24436090701982,12.46804503417286
2025-02-19 14:15:58.424,771,-35,630,-3,-3,-2,-1,-5,8,373,65,d,3.179830119864234,50.703770101019636,1544.881884940754,-70.1308248676088,-2.354847616958523
2025-02-19 14:15:58.532,757,-42,630,0,-3,-3,-3,-6,6,341,66,d,3.8140748342903548,50.16919546727932,1524.939263659097,-84.60693404713615,-9.104010707042221
2025-02-19 14:15:58.638,775,-30,629,0,0,-1,-2,-6,6,405,70,d,2.7306387965653878,50.90491584186178,1551.1005146972007,-60.042600568923916,-0.8931919284380001
2025-02-19 14:15:58.743,765,-24,626,-1,0,0,-1,-6,7,412,70,d,2.195568004805615,50.68589074164866,1538.6842143166195,-48.27244593934493,-7.1062982512468125
2025-02-19 14:15:59.958,760,-59,639,-8,0,-2,-2,-6,4,194,50,e,5.275263757478342,49.823396578588024,1524.0595358702135,-118.31514817939814,-3.4132150277188202
2025-02-19 14:16:00.059,746,-67,655,-2,1,-2,-2,-5,6,260,50,e,5.840476048267058,48.56845405510988,1495.7468504686653,-134.33651337989352,-3.2897949825412525
2025-02-19 14:16:00.166,744,-58,650,-2,-1,0,-1,-4,6,260,51,e,5.099042015538548,48.745121679928005,1495.7836662398265,-116.60679118536282,-6.800246042859158
2025-02-19 14:16:00.272,775,-58,634,-1,-6,-3,-3,-6,5,251,56,e,5.227020360142905,50.597559214826376,1547.7065334428871,-115.82835992217736,1.8762036093029337
2025-02-19 14:16:02.292,780,-46,625,-1,-1,0,0,-5,6,396,75,f,4.209379640095126,51.21988537772036,1559.555390438476,-91.97377943611525,0.3562576614774571
2025-02-19 14:16:02.385,777,-49,617,0,-1,0,-2,-7,5,361,76,f,4.540702039528656,51.45987449565722,1559.1720041745762,-98.3261624254237,-4.106984009927032
2025-02-19 14:16:02.496,775,-54,620,-1,-1,0,-3,-7,6,354,77,f,4.977716198480992,51.23453919323538,1554.7155542704297,-108.32856765239124,-3.7724434163440037
2025-02-19 14:16:02.603,785,-44,610,-2,-1,0,-1,-5,8,353,77,f,4.125665081593352,52.07823762312961,1573.8507069652082,-88.21583580441931,-2.992269106722233
2025-02-19 14:16:02.709,777,-42,621,-2,-1,-1,-3,-5,4,344,78,f,3.869184576365422,51.30340061808834,1557.4675153547505,-84.18743326241895,-2.7713346657659486
2025-02-19 14:16:02.816,783,-55,606,-1,-1,0,-1,-5,7,427,81,f,5.185904018716761,52.148241868225604,1572.6010205786115,-110.46367322071984,-5.108835850112996
2025-02-19 14:16:02.923,782,-56,621,-1,-2,0,-2,-4,7,502,80,f,5.152831862979091,51.43324482767526,1563.8823355620807,-111.99157390214388,0.09343940658300198
2025-02-19 14:16:03.029,778,-70,613,-2,-3,2,-2,-6,6,480,82,f,6.5145295382361095,51.58423635741891,1561.52253285284,-140.49688598933008,-4.3513015922764
2025-02-19 14:16:03.131,768,-49,617,0,-2,4,-2,-5,8,441,84,f,4.540702039528656,51.13414138156205,1546.6172006625657,-98.67739952143972,-8.529704178128668
2025-02-19 14:16:03.246,756,-95,613,2,-12,4,-2,-6,8,435,92,f,8.809363856680623,50.630231256979165,1529.0683719339359,-192.14483509751835,-13.839830681881608
2025-02-19 14:16:03.353,793,30,581,-6,21,-55,-3,-6,6,286,106,f,-2.9558489038427025,53.73485574159008,1599.288282804707,60.502709311653476,-9.735803669022175
2025-02-19 14:16:03.459,780,40,681,0,-12,-21,0,-7,8,580,101,f,-3.36152860012847,48.82765154877413,1532.7327117551888,78.6016775259071,23.80644012143148
2025-02-19 14:16:03.558,737,83,553,8,55,22,-2,-5,8,468,79,f,-8.535831997724571,52.810822513319536,1533.644105628202,172.71704310331177,-44.75331127869174
2025-02-19 14:16:03.671,788,23,628,38,4,-9,-2,-8,5,308,95,f,-2.097474838626924,51.42803779212841,1569.8256754290846,45.81978494272709,4.920654607277811
2025-02-19 14:16:03.779,801,22,638,9,-1,19,-1,-7,8,592,96,f,-1.9749340108819768,51.4459333368042,1583.0203779857052,43.47871200460114,15.117351866566878
2025-02-19 14:16:03.888,550,-165,646,-16,15,14,-1,-5,5,354,42,f,14.328034656889047,39.51957646332698,1186.3418270024647,-355.90254810073935,-101.41240044289486
2025-02-19 14:16:06.098,778,-44,632,0,-1,0,-1,-6,6,308,70,g,3.9825205718290317,50.84387913021591,1553.4282917505398,-87.85455634578888,2.089099760486988
2025-02-19 14:16:06.198,770,-36,623,-1,-1,-1,-1,-6,6,285,71,g,3.3071538647516157,50.97728739591949,1546.8964316810516,-72.32243057210111,-5.5798401783052896
2025-02-19 14:16:06.310,763,-47,622,-2,-1,-1,-3,-6,7,290,72,g,4.321212032686706,50.73306992091292,1537.2056549501253,-94.6902565958793,-9.134885162487649
2025-02-19 14:16:06.416,766,-45,631,-3,-1,0,-1,-7,6,253,71,g,4.0791638258954945,50.44833769887727,1537.0507325287977,-90.29671405195285,-4.160590372939055
2025-02-19 14:16:06.522,760,-62,625,-3,-1,1,-2,-7,5,284,72,g,5.665206756377232,50.42950832245577,1530.8414250101332,-124.88443204030037,-8.91564556754372
2025-02-19 14:16:06.628,769,-39,625,-1,-1,1,-3,-5,6,331,74,g,3.570627055610602,50.84322619364526,1544.4210959272496,-78.32564725768886,-5.218706052706011
2025-02-19 14:16:06.731,759,-49,621,1,-3,2,-1,-7,7,375,77,g,4.511575496136482,50.623422597455466,1531.9929876720016,-98.90336811057719,-11.448808095274103
2025-02-19 14:16:06.838,776,-49,619,2,-4,-2,-2,-6,5,457,81,g,4.526092006664241,51.334051846379836,1556.8018617246357,-98.30321034085975,-3.8303510406566375
2025-02-19 14:16:06.952,770,-25,605,1,-8,-6,-2,-5,8,476,91,g,2.3662479914557863,51.81902707616835,1556.062214069264,-50.521500456794286,-12.620311054421563
2025-02-19 14:16:07.059,756,-87,596,-4,7,-19,-3,-9,6,255,102,g,8.3049891398961,51.45515028362718,1538.1206281044792,-177.0059452977377,-20.592452844271975
2025-02-19 14:16:07.168,779,103,584,14,-11,33,-2,-7,6,428,100,g,-10.002382870765278,52.71980753130066,1574.6829275284358,208.2058299556212,-12.506841690123906
2025-02-19 14:16:07.272,917,-147,712,5,-10,-16,-2,-5,8,582,93,g,11.66541831684273,51.591893781342414,1700.6055693670992,-272.6161599748785,103.57342923732335
2025-02-19 14:16:07.381,771,67,608,-17,-14,52,-3,-5,6,99,103,g,-6.288471431818363,51.57292633120936,1554.399862201099,135.07754963355853,-9.778360853784875
2025-02-19 14:16:07.485,987,55,556,-17,82,16,-2,-4,3,0,60,g,-5.649368819381381,60.4869866309354,1857.2438312307024,103.49383051437553,65.77145880013109
2025-02-19 14:16:07.588,518,-135,712,2,-33,-5,0,-3,4,190,35,g,10.736218538951707,35.55691462862531,1099.5113688234799,-286.5521907165439,-87.29747992725413
2025-02-19 14:16:08.413,752,-90,645,1,-5,-5,-1,-5,5,466,65,h,7.943471810590412,49.10670563009115,1507.9300917938508,-180.47035673064704,-3.3708899029704753
2025-02-19 14:16:08.509,772,-55,635,2,-6,-4,-2,-5,6,476,73,h,4.950272234291744,50.45629114916223,1543.139118139329,-109.93866774308688,0.7081087843604337
2025-02-19 14:16:08.608,771,-37,628,-3,1,-6,-2,-6,6,487,76,h,3.371808911291901,50.787650523877836,1545.8082437283897,-74.18275618411212,-3.101915773578412
2025-02-19 14:16:08.723,736,-19,628,-14,0,-23,-2,-6,7,491,79,h,1.7329424147265524,49.514228399907005,1496.567221160825,-38.634208154966956,-20.96224849048656
2025-02-19 14:16:08.833,785,-226,634,15,7,8,-2,-7,8,432,99,h,19.619467208575493,49.389476264051396,1544.1517643274306,-444.55834234140036,20.87615467058481
2025-02-19 14:16:08.938,805,61,583,13,1,12,-2,-7,6,125,103,h,-5.973192902368216,53.93875024676002,1613.3881839993014,122.25674437758681,-2.4538028218541967
2025-02-19 14:16:09.050,729,-193,704,-6,-16,-8,-1,-8,9,580,96,h,15.330842986090762,44.96167022718592,1435.6335821785206,-380.0785752543957,21.599393890701776
2025-02-19 14:16:09.155,917,-45,582,27,10,34,-3,-5,8,569,101,h,4.421289421430608,57.52028567172347,1760.5816248215897,-86.397135351114,46.597049458925426
2025-02-19 14:16:09.259,496,-227,708,-28,36,14,0,-3,3,421,34,h,17.776965819968908,33.70782949778402,1050.9581092265757,-480.98284434361426,-84.15794623470867
2025-02-19 14:16:10.079,758,-95,630,0,-4,-4,-2,-5,6,411,60,i,8.575232639835226,49.95191033922295,1523.5046669859723,-190.94055852726567,-6.237388128182715
2025-02-19 14:16:10.177,744,-102,636,3,-8,-3,-1,-4,8,450,68,i,9.111357044783997,49.115213326817575,1500.0272910323383,-205.64890280282054,-10.281393946998719
2025-02-19 14:16:10.281,798,-64,614,5,-6,-8,-3,-5,6,449,80,i,5.950709440884552,52.27474716593516,1588.9539285797491,-127.4349015402305,5.42141334841358
2025-02-19 14:16:10.389,706,-93,606,1,-11,-20,0,-6,7,479,92,i,8.724846869374478,49.0287565661322,1461.038759054539,-192.4597798754563,-42.09275918845708
2025-02-19 14:16:10.500,791,12,609,-6,-21,37,-1,-8,6,185,105,i,-1.1288347966606407,52.401536410557604,1583.30600437093,24.019812961379465,-1.0055077900078686
2025-02-19 14:16:10.606,954,-31,634,-8,68,-37,-4,-6,7,462,84,i,2.7992992085817088,56.36162811449126,1786.5504389150387,-58.053525792836695,80.71176281746887
2025-02-19 14:16:10.713,827,-30,491,-2,-8,-10,-2,-8,6,520,100,i,3.4964138619505927,59.254997204585536,1686.451002026077,-61.17718266116363,-19.266556221044652
2025-02-19 14:16:10.819,732,29,537,-35,68,45,-1,-7,6,579,57,i,-3.091182775158142,53.696185810591984,1537.8888700486884,60.92729129974313,-54.2053595848987
2025-02-19 14:16:10.929,645,-122,677,17,-33,-11,-1,-5,5,526,44,i,10.215449927844425,43.15634627126659,1328.9915051520015,-251.37513740859566,-40.92596742310866
2025-02-19 14:16:11.032,794,-52,625,2,-3,1,-1,-8,5,541,61,i,4.756054855559571,51.69573141849017,1578.7301943204582,-103.39290945171766,7.296761397624209
2025-02-19 14:16:11.848,759,-79,643,0,-2,-1,-1,-6,5,540,61,j,7.004347644553606,49.51800491323242,1519.610013864929,-158.16757720069748,-1.3639511398540662
2025-02-19 14:16:11.941,767,-71,633,2,-4,2,-2,-4,8,539,62,j,6.399792049842545,50.29143458740215,1536.3040540773814,-142.21328271120478,-1.9015205097553007
2025-02-19 14:16:12.055,758,-77,623,4,-9,-3,-3,-6,6,553,69,j,7.045769124867488,50.370024308432185,1528.17965335613,-155.23724710873617,-10.010453879774445
2025-02-19 14:16:12.158,770,-62,606,1,-5,-3,-2,-6,5,559,75,j,5.841618866818893,51.65173008829319,1554.2539475435492,-125.14772045155848,-11.21804183297479
2025-02-19 14:16:12.268,756,-82,607,7,-18,-13,-2,-5,9,574,92,j,7.693546331335885,50.985495598383174,1532.986624374324,-166.27632698240024,-16.85037168679196
2025-02-19 14:16:12.379,760,-73,704,21,-20,44,-2,-5,6,417,103,j,5.9200242682148305,47.03779813452901,1491.8034580545693,-143.2916479447152,26.118902012609396
2025-02-19 14:16:12.487,972,53,461,50,67,-112,-2,-5,8,242,105,j,-6.558356439337725,64.48000640999697,1874.4350008410652,102.20684675367946,32.99327635007114
2025-02-19 14:16:12.593,505,-46,720,39,-30,-60,-3,-8,8,610,99,j,3.655595302494041,34.99055105876548,1078.4413379816065,-98.23426048941367,-97.57972939951821
2025-02-19 14:16:12.698,830,-2,565,-24,57,60,-3,-7,6,607,66,j,0.2028160715146305,55.755818035088424,1656.6468942549927,-3.9919202271204632,2.28253583846913
2025-02-19 14:16:12.806,631,-123,676,10,-18,1,-1,-5,5,382,41,j,10.31230491437778,42.562932784210524,1307.3996137661643,-254.84968699403836,-48.637304129836934
2025-02-19 14:16:12.908,831,-46,610,2,-7,0,-3,-5,7,385,59,j,4.312503143938897,53.64174573752103,1636.3259490132841,-90.57881306210719,18.846174611187394
2025-02-19 14:16:14.132,771,-59,616,0,-2,-2,-3,-5,7,385,69,k,5.471055979078845,51.248819606360435,1550.8715878050552,-118.67888933916765,-7.088064964869204
2025-02-19 14:16:14.222,762,-50,624,2,0,-4,-1,-4,8,402,72,k,4.581220085277059,50.596132543021206,1534.6907275175238,-100.70149130692413,-8.754611510412929
2025-02-19 14:16:14.334,729,-34,633,1,3,-19,-2,-6,5,395,78,k,3.074543979203993,48.99093945671649,1483.6058240311513,-69.1942359630441,-22.233863664908995
2025-02-19 14:16:14.438,766,-50,569,-9,-5,-15,-2,-8,7,322,98,k,5.021879134448055,53.28875922668612,1567.6583816303478,-102.3275706025031,-26.487753456485393
2025-02-19 14:16:14.548,779,239,599,-9,-24,69,-3,-7,8,29,102,k,-21.751917031474946,50.379251491552935,1549.2823620452443,475.32539734122383,6.7032928560958
2025-02-19 14:16:14.658,953,-88,667,-13,30,-14,-3,-7,5,553,89,k,7.515855390240931,54.77943086641077,1769.9379069967736,-163.43602918752998,95.22918786269895
2025-02-19 14:16:14.764,768,23,625,-1,-1,11,-1,-7,8,465,99,k,-2.1075336606115265,50.84224994296252,1543.410336765694,46.221924147930935,-6.0305474981231555
2025-02-19 14:16:14.870,804,-105,554,5,21,-12,-3,-7,8,123,98,k,10.732012037158357,54.95719088272741,1622.7232622870965,-211.92281410465813,-10.14513346648198
2025-02-19 14:16:14.978,842,-37,597,25,-7,15,-2,-5,9,186,104,k,3.546458593205525,54.61052632308996,1657.2342069269985,-72.82383094572322,18.977646632519964
2025-02-19 14:16:15.087,564,-243,689,-25,35,7,0,-4,5,152,38,k,19.42698438891063,37.66716568079842,1175.073515717413,-506.2816743250556,-57.5064757611658
2025-02-19 14:16:15.903,752,-84,653,1,-2,-3,-1,-7,5,278,48,l,7.330105866864773,48.79765557148951,1504.3879560127743,-168.0433355120652,-0.3368820164114368
2025-02-19 14:16:16.000,757,-76,649,2,-4,-4,-2,-3,7,341,51,l,6.679101479719059,49.19957065133067,1513.9901591918954,-151.9990120192656,0.008436835482143579
2025-02-19 14:16:16.107,737,-92,644,2,-7,-3,-1,-5,5,393,54,l,8.13010235415598,48.56566537484171,1486.7146423430013,-185.58717380672476,-11.11021664707323
2025-02-19 14:16:16.214,779,-59,637,6,-11,-6,-3,-5,6,428,65,l,5.291732713730225,50.60664589469934,1551.8071924329665,-117.53096836141853,5.063951758921917
2025-02-19 14:16:16.320,750,-62,640,-3,0,-4,-1,-5,6,427,69,l,5.533262290807535,49.39258583968715,1509.187089812655,-124.75946609117946,-7.839649973465271
2025-02-19 14:16:16.426,753,-31,640,-1,3,-12,-1,-8,6,440,72,l,2.7730969366397518,49.60454062035589,1514.5896678537151,-62.3536251042034,-7.300647312586193
2025-02-19 14:16:16.537,711,-19,607,3,-3,-19,-2,-7,6,461,79,l,1.7928574672422408,49.49786021987499,1471.3817106475622,-39.319623772579014,-42.15850683976112
2025-02-19 14:16:16.644,718,-134,627,18,7,-11,0,-9,9,441,99,l,12.063550228511366,48.2358074451231,1463.892408750275,-273.2055470369594,-24.357298449056543
2025-02-19 14:16:16.750,791,116,584,17,-2,18,-3,-7,5,106,101,l,-11.234444007142086,53.03014139534806,1589.9519943001,233.1661584561462,-5.871004641287755
2025-02-19 14:16:16.857,891,40,609,-1,-2,5,-2,-7,5,465,97,l,-3.757871907835316,55.58985387368762,1716.0134391143824,77.03764036428205,45.10192545380585
2025-02-19 14:16:16.958,533,-172,701,-8,0,0,0,-4,5,281,41,l,13.785961076782032,36.44360444134203,1127.0312719320668,-363.69489450715855,-80.26814563673338
2025-02-19 14:16:17.070,778,-76,649,-1,1,-1,-1,-5,5,275,45,l,6.679101479719059,49.97342097101675,1543.7461769530773,-150.8029684427171,10.22201948258703
2025-02-19 14:16:17.890,757,-50,644,2,-3,-4,-2,-6,6,326,58,m,4.439523998894662,49.526312585441346,1517.7041387377353,-100.24465909760471,-3.1512091771487576
2025-02-19 14:16:17.987,765,-47,635,3,-3,-4,-2,-8,4,367,62,m,4.233071185192096,50.22817120427891,1533.5981600239509,-94.22106342630809,-2.9867079937370136
2025-02-19 14:16:18.091,766,-43,640,5,-6,-5,-2,-5,6,444,71,m,3.8437833142127644,50.057435383487814,1532.6884119132928,-86.03864453299164,-0.575174444526624
2025-02-19 14:16:18.200,751,-20,638,2,-5,-8,-2,-5,6,408,81,m,1.79551794621144,49.6370844289834,1512.9576406093038,-40.291814663363624,-9.308887761299616
2025-02-19 14:16:18.303,775,-97,586,-2,4,-15,-1,-9,5,223,98,m,9.398889320005733,52.532796869725026,1568.7016734739555,-196.3407255831918,-14.140878265468132
2025-02-19 14:16:18.413,783,21,621,6,1,14,-2,-7,8,70,102,m,-1.9368003862210483,51.56600300299296,1566.324755430644,42.0087099157644,-0.257564651889993
2025-02-19 14:16:18.520,693,-128,725,-9,-13,-10,-3,-7,7,541,95,m,10.012488085287025,43.268175191523135,1378.4140074547422,-254.59883543175616,7.936283687318564
2025-02-19 14:16:18.629,841,50,551,4,-5,17,-1,-7,8,337,100,m,-5.185053064337381,56.6605062035429,1676.4287231777985,99.66877070022582,3.6501468835111837
2025-02-19 14:16:18.736,659,-148,699,-4,-7,-13,-2,-6,8,575,98,m,11.954738344230229,42.686213988461816,1336.9828214888666,-300.26321332375153,-20.135041306096696
2025-02-19 14:16:18.843,932,-21,566,7,8,16,0,-5,10,488,99,m,2.1248404847116094,58.712364404996066,1786.5709222408025,-40.25535339812967,47.02237984088606
2025-02-19 14:16:18.949,547,-191,694,-9,9,-1,-2,-4,5,446,42,m,15.387763745810618,37.23227989397693,1152.0477762207938,-402.2689675652133,-73.64745282857609
2025-02-19 14:16:19.770,765,-62,632,1,0,-2,-3,-5,4,348,64,n,5.602860679980772,50.303608286893926,1534.4397808740703,-124.35982537802923,-3.6678974018464032
2025-02-19 14:16:19.858,763,-53,637,3,-2,-1,-1,-7,5,347,65,n,4.756197780216796,50.045504664842625,1529.5547073908172,-106.24691938625597,-2.967691491416076
2025-02-19 14:16:19.969,781,-51,649,7,-11,-8,-3,-6,6,350,77,n,4.493208204404335,50.187180477176334,1549.140284375409,-101.16024904372071,10.686242561279641
2025-02-19 14:16:20.078,1151,-115,646,16,-2,-15,-1,-9,7,226,96,n,10.093971460343523,60.31362004007042,2019.7492676258594,-201.79944898086345,158.41353007271488
2025-02-19 14:16:20.186,761,89,629,-2,-13,43,0,-8,6,87,100,n,-8.053571972892819,50.14564746537361,1528.6759502920233,178.78076159788446,-5.517966798531802
2025-02-19 14:16:20.288,833,115,515,7,-4,-54,-4,-5,6,145,99,n,-12.58769338164879,57.6468155978528,1677.7654603500764,231.62428324160715,-7.273964081979784
2025-02-19 14:16:20.399,731,26,681,-2,-17,14,-1,-8,7,464,98,n,-2.186442122403482,47.007227657677355,1462.439727454031,52.01564010096418,-0.40965033679242424
2025-02-19 14:16:20.506,951,-59,586,15,3,16,0,-7,7,415,99,n,5.749313036665659,58.22970346739145,1801.1657649301087,-111.74424829745155,62.13339826598974
2025-02-19 14:16:20.617,446,-239,704,-26,24,10,-1,-2,6,262,37,n,18.751766152711102,30.959353008262923,960.4298504410439,-514.6698077475548,-108.01483118945032
2025-02-19 14:16:21.931,763,-80,625,-1,-2,0,0,-5,7,239,62,o,7.294196308540855,50.449489829987996,1534.0635369253068,-160.84545603410817,-6.605125266470054
2025-02-19 14:16:22.028,763,-75,632,7,-6,-1,-2,-6,6,244,66,o,6.767690062801115,50.167792875464706,1530.92358353324,-150.4839695478283,-4.078250056366528
2025-02-19 14:16:22.135,783,-55,612,2,-7,-3,-1,-5,7,257,73,o,5.135335005513132,51.876624605516305,1569.6832196633081,-110.25871913343798,-2.8788383575282523
2025-02-19 14:16:22.246,716,-22,634,16,-24,-13,-3,-5,7,510,92,o,1.9873842018014218,48.45880640487432,1464.4791273877217,-44.99796201470653,-28.759450787451783
2025-02-19 14:16:22.353,721,-112,611,1,4,-30,-3,-6,7,436,100,o,10.387345734304727,49.25333027135601,1478.6029242428413,-229.685891144519,-31.018566868759876
2025-02-19 14:16:22.458,833,233,548,17,-11,40,-1,-7,7,475,100,o,-23.034347273634776,54.44059761665825,1646.5130271618036,460.54926209928,12.819761242895197
2025-02-19 14:16:22.566,791,-97,549,2,13,-41,-3,-7,8,567,99,o,10.01988665486783,54.82350109411329,1608.3812656805467,-197.23512360431485,-18.310132564627224
2025-02-19 14:16:22.673,782,23,623,-31,39,36,-2,-5,7,525,58,o,-2.114293288225949,51.43751971269085,1563.92884771214,45.99790728565118,0.056685262578980655
2025-02-19 14:16:22.779,702,-63,637,6,-18,-7,-1,-4,4,437,47,o,5.648247373735263,47.64036243736339,1440.9301746779656,-129.31424644545842,-33.51071405963535
2025-02-19 14:16:23.498,772,-44,625,4,-10,-4,-1,-5,4,439,64,p,4.026978863715694,50.93758787122432,1548.4599836219077,-88.25419595772532,-3.610738035870895
2025-02-19 14:16:23.594,732,-50,623,2,-7,-3,-1,-5,6,514,70,p,4.588542192154618,49.50832238655684,1492.500291885921,-101.94674124903833,-24.25639596301744
2025-02-19 14:16:23.700,810,-14,609,1,-5,-6,-2,-6,6,540,85,p,1.3169124057932624,53.05498623582356,1609.2126985605664,-27.81355281462707,8.110452563722333
2025-02-19 14:16:23.807,740,-39,600,0,-6,-8,-2,-5,8,515,91,p,3.718993973158042,50.90538726055999,1516.1057032028111,-79.90286814176977,-29.274894488765653
2025-02-19 14:16:23.913,774,-11,611,-1,-1,0,0,-6,6,515,96,p,1.0314001566909623,51.70772188561369,1558.8598924688772,-22.154339557051223,-8.572860850754523
2025-02-19 14:16:24.025,798,-92,601,-9,-5,-17,-2,-7,7,497,98,p,8.703174315503516,52.696014363341284,1593.4313248728279,-183.70386201541373,1.9345535732211374
2025-02-19 14:16:24.126,844,77,518,14,0,38,-1,-6,8,0,103,p,-8.455027677177453,58.18090314242145,1693.717009813046,154.52157553981579,-3.5087809042154277
2025-02-19 14:16:24.237,789,-56,604,3,7,-55,0,-7,7,459,96,p,5.297048104596794,52.44658539208574,1581.7854712150715,-112.26867729790116,-2.8978765702195233
2025-02-19 14:16:24.343,705,18,698,7,-16,9,-3,-6,8,538,99,p,-1.4772141914932053,45.276341881361994,1415.50897312759,36.14065463304485,-5.454274103627995
2025-02-19 14:16:24.452,898,31,443,32,39,-10,-1,-7,7,334,100,p,-4.00288588678609,63.686459902549196,1794.3816990859705,61.94413437824619,0.7983377560302642
2025-02-19 14:16:24.562,488,-157,775,-22,18,12,0,-3,3,285,37,p,11.452034810415283,31.680450625982914,1013.1813229375921,-325.96202397787283,-59.04820753408569
2025-02-19 14:16:24.667,820,-25,622,6,-16,-8,-2,-4,4,266,44,p,2.3016461477052075,52.7960843025158,1616.4885967640732,-49.28318892573394,17.83425952773962
2025-02-19 14:16:25.484,762,-63,637,2,-6,-1,-1,-4,8,313,55,q,5.648247373735263,49.96851503738521,1527.6911052314035,-126.30517011755695,-3.0856089664093815
2025-02-19 14:16:25.580,739,-68,631,1,-19,-8,0,-5,5,389,66,q,6.150768421649026,49.34400473232036,1497.634942033838,-137.80673350243705,-16.76542411820276
2025-02-19 14:16:25.688,819,-16,603,-3,-4,-12,-1,-5,8,477,99,q,1.5199293869051431,53.62750436744609,1624.1785704581112,-31.729984282453948,10.176217355016888
2025-02-19 14:16:25.798,799,-150,602,20,13,-20,-3,-8,5,283,101,q,13.99144615139951,52.17142949647621,1588.8492884446196,-298.28209420111756,6.894528606181439
2025-02-19 14:16:25.904,752,-22,623,-2,-16,-3,-1,-6,8,445,103,q,2.0224455646276494,50.342157051558345,1521.8693389103462,-44.522773212802676,-14.803986889821317
2025-02-19 14:16:26.007,783,-84,584,6,5,-27,0,-6,8,548,99,q,8.185035970605453,53.00105722486904,1581.646614635179,-169.67856402216478,-11.670016535050422
2025-02-19 14:16:26.116,954,-3,542,30,-19,10,-2,-5,6,264,104,q,0.3171320723431988,60.397236039260974,1823.4711006315338,-5.734185851042559,48.023756244977676
2025-02-19 14:16:26.228,569,-100,648,-34,55,21,-1,-3,6,562,49,q,8.772737297529416,40.95189387406826,1224.4251358941387,-215.18895182673793,-98.42440783726181
2025-02-19 14:16:26.334,759,-100,646,-7,-15,-13,0,-2,6,282,46,q,8.799473044577788,49.26309151334267,1516.7141136910018,-199.83058151396594,1.0944434197800774
2025-02-19 14:16:27.648,779,-55,620,-1,-1,-1,-1,-6,5,459,67,r,5.069420132612497,51.374528638324946,1560.243043832545,-110.15836638098841,-1.7852210220511324
2025-02-19 14:16:27.747,767,-52,620,0,-1,-2,-2,-6,8,468,68,r,4.794232066630602,50.951647300309375,1543.6145926119602,-104.65183678725155,-7.771900155691469
2025-02-19 14:16:27.854,755,-45,626,0,-1,-2,-2,-6,4,478,70,r,4.11163370610731,50.263978378348064,1523.9978123097312,-90.83430669395747,-11.60613312038629
2025-02-19 14:16:27.958,752,-24,604,7,-16,-19,-2,-7,6,482,93,r,2.2754564382542033,51.206798144946596,1531.4123059955623,-48.8748608296456,-22.01733087941409
2025-02-19 14:16:28.067,732,-201,660,24,11,9,0,-7,7,381,99,r,16.93787583840791,46.694762190183745,1459.7100591414637,-400.8220244363855,3.8679794626146986
2025-02-19 14:16:28.178,790,-27,629,-3,-9,18,-1,-2,7,131,105,r,2.457928374630774,51.447406695364116,1572.0364046482398,-53.727826487977815,6.340634780072378
2025-02-19 14:16:28.283,761,20,644,-14,-17,-3,-2,-7,5,541,101,r,-1.778800315673848,49.74664809062605,1524.1946690252391,40.05767855519683,-1.8572494773377457
2025-02-19 14:16:28.390,667,-115,581,-34,69,32,-1,-4,6,540,52,r,11.196099949263823,48.3960811879092,1414.7526787368552,-243.92287564428537,-70.34078912460677
2025-02-19 14:16:28.500,780,-70,656,12,-22,-18,-2,-5,6,375,47,r,6.0908310392225955,49.77545062406984,1543.519400929978,-138.52097187833135,13.860606397351944
2025-02-19 14:16:29.516,761,-74,629,0,-3,-1,-1,-5,7,355,60,s,6.709836807756933,50.231269983313126,1529.632758092482,-148.74221300767888,-6.308810565270619
2025-02-19 14:16:29.611,762,-67,627,0,-3,-1,-2,-7,5,397,61,s,6.099370272936638,50.391592516180985,1532.419699984384,-134.74031482802326,-6.928020853292196
2025-02-19 14:16:29.722,803,-47,595,11,-22,-7,-1,-5,8,463,79,s,4.516506843104167,53.37733542025787,1605.5815627940692,-93.975508656689,0.3100499844690603
2025-02-19 14:16:29.824,789,-13,591,-4,-5,1,-2,-4,9,558,102,s,1.2601100459417198,53.158325328612484,1589.2954532299018,-26.186110129263277,-8.460852799584245
2025-02-19 14:16:29.934,767,-66,555,6,6,-19,-1,-7,6,412,104,s,6.781703536468549,53.91929132288468,1575.1882188010993,-135.54422743268913,-29.803730683976596
2025-02-19 14:16:30.041,729,95,697,9,-14,11,-2,-5,9,532,104,s,-7.761497679899514,46.022080644230755,1448.6074543177438,188.77600570670188,8.980252867671538
2025-02-19 14:16:30.143,1041,5,555,1,42,-9,1,-4,6,354,98,s,-0.5161642297648367,61.935118632722094,1923.4154003263607,9.238306437686653,84.54798541678178
2025-02-19 14:16:30.254,515,-155,724,-12,8,13,-3,-4,3,133,38,s,12.083947572468512,34.82109822001961,1086.0159035542335,-326.8591554386528,-78.74857121022342
2025-02-19 14:16:31.368,759,-72,644,-1,-2,-3,-2,-3,6,228,54,t,6.379248167613142,49.51025442919133,1519.522187445171,-144.14439722800043,-1.2915529837815711
2025-02-19 14:16:31.466,755,-71,643,-2,0,-5,1,-5,5,245,56,t,6.301068652288662,49.408980000403275,1514.3732942254437,-142.4112634304722,-3.724540644980493
2025-02-19 14:16:31.577,765,-64,655,-3,-4,-6,-2,-3,5,308,57,t,5.5806513142138545,49.2950290195731,1523.0777573028324,-127.42088427108663,5.926887538097617
2025-02-19 14:16:31.684,773,-49,638,-4,-1,-3,-1,-4,8,396,60,t,4.391837827818414,50.382504434916186,1543.318566117221,-97.83002553653796,2.21313689160786
2025-02-19 14:16:31.788,791,-47,642,-9,-1,-5,-1,-5,4,526,59,t,4.187081253013432,50.86120319867975,1566.6191784657622,-93.08609530706804,12.48354920983661
2025-02-19 14:16:31.892,761,-45,632,0,-4,-4,-2,-5,6,573,60,t,4.072731189387424,50.21961571693427,1529.5026257819486,-90.44365067041747,-6.230827193418577
2025-02-19 14:16:32.006,786,-42,623,6,-16,-10,-2,-3,8,610,74,t,3.8568009855898424,51.535668222409434,1568.9955379225385,-83.83945622486848,2.3813993311175636
2025-02-19 14:16:32.109,786,-41,605,-6,0,-6,-2,-7,5,628,82,t,3.876926695337786,52.35033172884418,1577.7604262228426,-82.30048024826533,-4.433915858549312
2025-02-19 14:16:32.218,800,-85,618,-4,1,-3,-1,-6,7,655,84,t,7.8313512804609156,52.053870543152115,1588.5892614317158,-168.7876090271198,8.81479554399948
2025-02-19 14:16:32.322,810,-36,602,0,1,1,-1,-5,5,660,85,t,3.4222501097837537,53.330930686207985,1612.0981507398446,-71.64880669954864,5.872732413103336
2025-02-19 14:16:32.432,783,21,601,2,-5,-2,-1,-6,5,633,86,t,-2.001201415122188,52.47468906369054,1576.084336941196,42.27046114401674,-7.740340359717379
2025-02-19 14:16:32.539,816,20,582,-9,-3,-6,-1,-7,7,619,99,t,-1.9681526427620166,54.48620870784219,1629.975717564995,39.950385234436155,1.4437896779080575
2025-02-19 14:16:32.649,744,-242,637,27,7,28,-2,-7,7,297,100,t,20.802075051941063,47.51384037002886,1481.4405108865997,-481.86640273461984,5.616121727467657
2025-02-19 14:16:32.750,854,50,577,20,-17,30,-3,-6,8,137,104,t,-4.9526004161504265,55.85582048310945,1681.627792086606,98.45595972404014,17.818224784576728
2025-02-19 14:16:32.863,631,-64,625,2,23,-36,-2,-6,6,422,80,t,5.846708923984534,45.12429220229078,1339.639048711571,-135.87464202462843,-76.90080102176216
2025-02-19 14:16:32.974,799,128,569,-38,-44,13,-2,-5,7,447,97,t,-12.677987381938602,53.87291773333555,1606.711295422758,257.3955517072754,-6.203663448747534
2025-02-19 14:16:33.076,965,84,608,-16,70,27,-1,-5,7,463,78,t,-7.866068372896871,57.54215148925019,1808.7864993401681,157.44877299955868,76.37078590795636
2025-02-19 14:16:33.998,783,-59,617,-1,0,-2,-2,-5,6,332,74,u,5.462242461873639,51.63523668276102,1567.0753125794604,-118.08102610752,-0.8473408193193563
2025-02-19 14:16:34.088,786,-60,621,0,0,-2,-1,-4,7,348,75,u,5.51869411505623,51.55901816276015,1569.2489697653175,-119.78999769200897,2.1735238877072334
2025-02-19 14:16:34.198,766,-50,605,0,0,-7,-1,-5,8,333,81,u,4.724451697170886,51.6028262660181,1549.7240961311632,-101.15692533493231,-13.998796552681029
2025-02-19 14:16:34.309,724,-85,636,6,-16,-13,-2,-7,5,336,100,u,7.6123454626254325,48.45059486792112,1472.3840769364415,-172.86277146353248,-21.42026648007834
2025-02-19 14:16:34.416,799,121,548,-8,-26,47,-1,-5,8,262,102,u,-12.451291239903936,54.91665927768168,1617.3168709329411,244.92533339535152,-13.248617360765593
2025-02-19 14:16:34.518,780,-188,584,1,9,-31,-1,-5,8,471,103,u,17.84429160827534,51.81293154741989,1565.9964467459881,-377.44529742082796,-4.489647307252881
2025-02-19 14:16:34.629,848,129,494,14,-7,33,-1,-5,8,325,104,u,-14.635037414392869,58.94861901989088,1704.7050868093183,259.3242408000024,-5.071123683730207
2025-02-19 14:16:34.734,608,-213,686,-32,52,8,-1,-4,5,346,46,u,17.24934016265807,40.24573453086198,1254.0671578812614,-439.33602734984976,-42.95077353050203
2025-02-19 14:16:34.841,771,-90,639,10,-25,-14,0,-3,5,326,51,u,8.017093073655328,50.07154616953761,1537.8465049847357,-179.5151562238991,3.4423908103163967
2025-02-19 14:16:35.658,767,-83,621,1,-2,-1,-1,-2,6,327,68,v,7.612773031369909,50.756412775245195,1541.463454169539,-166.8076488866646,-6.042770585767698
2025-02-19 14:16:35.755,767,-78,616,2,-2,0,-1,-5,6,332,71,v,7.216579642130546,51.00837813238983,1544.2379761487473,-157.04115011682177,-8.222416307207823
2025-02-19 14:16:35.865,746,-84,640,7,-19,-12,-1,-5,5,355,81,v,7.4773303066608,49.13145481450664,1502.2128014570883,-169.1499669201011,-8.76165272457979
2025-02-19 14:16:35.972,778,-91,608,-3,6,-19,-1,-6,8,261,101,v,8.512332157833196,51.68435832669768,1562.6071424214158,-182.7728148590602,-5.163422355039643
2025-02-19 14:16:36.078,887,-56,702,-25,-26,55,-2,-6,5,56,103,v,4.560945203161308,51.55232354027642,1670.1763220437806,-105.44517929475954,82.16935955497854
2025-02-19 14:16:36.185,777,-91,507,28,-4,-42,-2,-5,8,90,110,v,10.175510843043206,56.45813536891683,1610.4823125858002,-188.61504561815678,-36.85525415830216
2025-02-19 14:16:36.296,1117,13,598,-18,52,35,-2,-5,10,422,88,v,-1.2453642667683475,61.831437398330515,1998.5626014314848,23.259904940563384,126.04437273408439
2025-02-19 14:16:36.398,541,-172,664,-1,-1,1,0,-3,4,149,38,v,14.522476034193005,38.26379657105412,1160.2830322137008,-368.888505620622,-96.08120774472684
2025-02-19 14:16:37.318,765,-87,618,0,-1,0,-1,-5,7,231,62,w,8.013251844141568,50.792131158320906,1539.857680264166,-175.12106952023845,-7.963459350659491
2025-02-19 14:16:37.410,732,-74,609,5,1,1,-1,-5,6,295,66,w,6.928084602825933,50.03407630905239,1498.4266015528372,-151.48028485643434,-28.641803750925988
2025-02-19 14:16:37.520,771,-49,642,9,2,-6,-1,-4,8,360,73,w,4.364580415901888,50.13451863245552,1538.551462741685,-97.78083226244172,2.87154464311061
2025-02-19 14:16:37.631,660,-83,622,23,-22,-34,-1,-5,7,231,96,w,7.600677043749541,46.445385618172985,1384.717901457373,-174.13876639539694,-60.99171925225164
2025-02-19 14:16:37.732,727,-63,630,-10,-26,40,0,-5,5,333,98,w,5.710593137499642,48.947489103077366,1481.1079930911446,-128.34911081807718,-23.491108180771562
2025-02-19 14:16:37.844,781,-16,537,15,-9,-30,-3,-3,7,296,103,w,1.7066319175994091,55.476494589007146,1604.8937529232583,-32.878745258351,-29.492887733405496
2025-02-19 14:16:37.951,800,-62,585,3,-3,-21,-1,-4,6,373,102,w,6.049789493279853,53.67126807897208,1605.631306078897,-124.43642622111449,-4.117892570193362
2025-02-19 14:16:38.055,864,-62,577,-8,-13,12,0,-5,7,2,106,w,6.133033788328374,56.111991510456264,1694.1289981371542,-121.56944199595318,22.619870457016304
2025-02-19 14:16:38.164,760,-171,638,6,2,-9,-2,-4,7,199,109,w,15.004056610027973,49.005977247024965,1514.778017926234,-340.8250540334027,4.383716530345623
2025-02-19 14:16:38.270,813,-73,562,3,0,1,-3,-5,8,206,108,w,7.400896718325054,55.12064439210304,1633.357974006535,-146.66067909283768,-5.086323974997072
2025-02-19 14:16:38.378,564,-154,639,-49,81,50,-1,-3,3,86,39,w,13.54998099949394,40.631637175591024,1215.193367060227,-331.80811795616125,-98.78822970121462
2025-02-19 14:16:38.489,804,-114,631,17,-38,-19,-1,-2,5,53,41,w,10.24090923263242,51.42653948401151,1585.8093704574876,-224.8535674529274,17.41578015090215
2025-02-19 14:16:39.204,779,-67,590,1,-5,-3,0,-4,8,351,86,x,6.478715770904267,52.683570846384434,1574.2996853296395,-135.40189848149663,-12.345076180343312
2025-02-19 14:16:39.298,811,-50,582,3,-2,-1,-1,-5,8,374,95,x,4.910261221582573,54.23570027994402,1622.4281412965997,-100.02639588758322,-0.30724813146866836
2025-02-19 14:16:39.409,811,-47,564,1,-3,-3,-1,-5,8,396,100,x,4.763641690726178,55.090805196906146,1631.0600475791134,-94.52505824441224,-6.300698932946716
2025-02-19 14:16:39.515,808,-47,553,-8,-4,-4,-1,-5,9,377,107,x,4.857948589646128,55.51586355824564,1632.2829786760628,-94.94715346259275,-11.144167336463624
2025-02-19 14:16:39.621,792,74,483,1,13,23,-1,-6,6,0,107,x,-8.710502843158759,58.32688884462633,1643.0576189755518,153.51800985377628,-36.01619945099924
2025-02-19 14:16:39.731,793,-47,684,1,46,-37,-1,-6,7,168,88,x,3.9308119745691683,49.15392415256301,1549.469346261608,-91.83487928662747,31.50941633929392
2025-02-19 14:16:39.838,852,49,674,-52,-50,47,0,-8,7,269,103,x,-4.158104812375784,51.5796877664732,1635.4732016578246,94.05890479018004,54.21016676364604
2025-02-19 14:16:39.945,975,4,552,20,44,-8,-2,-4,7,310,100,x,-0.41517954114486444,60.48281841471464,1845.2079911783926,7.5700840663728926,59.328398840540785
2025-02-19 14:16:40.056,570,-161,683,-1,-1,-14,-1,-3,3,175,46,x,13.263896404919521,39.086631021803825,1200.4947132711131,-339.0871032221916,-72.48752484942156
2025-02-19 14:16:40.868,782,-45,605,-1,0,-2,-2,-4,7,370,86,y,4.253836436119193,52.19588925781734,1572.1110367213112,-90.46674763741561,-6.275162680809672
2025-02-19 14:16:40.965,782,-47,606,-2,0,-4,-1,-5,7,319,88,y,4.434854106989741,52.143388805663605,1571.5490429037839,-94.45371485483099,-5.850025575054929
2025-02-19 14:16:41.076,839,-33,561,-13,2,-6,-2,-6,7,139,104,y,3.3664606634298013,56.18546846019467,1669.8433530669263,-65.6791783685442,5.453967734748744
2025-02-19 14:16:41.178,862,63,525,15,-10,34,-2,-4,6,0,103,y,-6.84277341263094,58.47428951442968,1714.4056163649784,125.29878634686034,5.843447109496992
2025-02-19 14:16:41.288,542,-150,627,9,-3,-33,-1,-5,6,556,91,y,13.454252180703461,40.054111665899434,1185.5107957656967,-328.0933936620932,-117.43038550754943
2025-02-19 14:16:41.396,708,13,676,-9,-24,71,-1,-5,7,162,107,y,-1.101706115206375,46.319231211919934,1431.1989984574536,26.27907765529223,-14.512038075195733
2025-02-19 14:16:41.502,996,-49,561,57,61,-48,-1,-2,6,153,101,y,4.991775870287167,60.51629274160441,1866.4956872898726,-91.82559104136924,70.69068215901746
2025-02-19 14:16:41.608,455,-202,777,-19,7,13,1,-1,4,105,33,y,14.572834777952375,29.54224281361245,948.0651187357007,-420.89923952661877,-65.00351045635034
2025-02-19 14:16:42.628,748,-112,649,-2,0,-2,-2,-2,4,81,48,z,9.791275889821137,48.63697924788606,1498.5377304167619,-224.3799810249697,-2.2018543321904644
2025-02-19 14:16:42.727,750,-109,640,-1,-3,-1,0,-2,6,105,49,z,9.665446430019001,49.11985138964253,1506.0802732271377,-218.88366637567734,-5.188499820490847
2025-02-19 14:16:42.833,749,-109,642,0,-3,-2,-1,-4,3,124,52,z,9.635901417998577,48.996008657152885,1503.6638759587847,-218.8242489713051,-4.854750821815401
2025-02-19 14:16:42.939,744,-90,636,-3,-4,-5,-1,-2,3,135,54,z,8.054414446381754,49.19414057393284,1500.9282288008148,-181.56389864525988,-11.051550426503127
2025-02-19 14:16:43.046,766,-121,637,-18,2,-4,0,-3,6,233,54,z,10.755362695317064,49.753335704385854,1529.270085196777,-241.56877324909922,2.270177192758524
2025-02-19 14:16:43.148,765,-106,634,18,-17,7,0,-3,5,400,56,z,9.49162950956838,49.960953979119736,1530.606217326541,-212.08399874067098,-0.5024075621264501
2025-02-19 14:16:43.258,785,-98,628,2,-2,-5,0,-3,6,581,61,z,8.86952619049071,51.003525061440854,1562.184678248851,-195.02432925909227,6.252257400919007
2025-02-19 14:16:43.368,810,-74,597,-3,-1,-14,0,-3,7,508,74,z,7.06594855589677,53.39955806085365,1612.8128763099608,-147.34339857646557,5.297176349325241
2025-02-19 14:16:43.468,757,-62,628,-2,4,-7,-2,-4,5,422,76,z,5.638318461847497,50.18461423736343,1525.1116058192529,-124.91006547000485,-9.21808250262984
2025-02-19 14:16:43.580,1306,-103,660,13,-8,-29,-2,-6,8,348,104,z,8.870065985951678,62.911307100215275,2196.302687299049,-173.21529616523895,210.0767430188572
2025-02-19 14:16:43.688,693,-85,713,19,-13,1,-1,-5,6,615,104,z,6.798407220547818,43.982999956398096,1387.4449069223674,-170.17722523578823,-1.4866069778470319
2025-02-19 14:16:43.791,950,9,445,-7,7,-4,-3,-4,6,0,104,z,-1.1586330880851192,64.89611842439122,1855.5400590025292,17.578800558971324,20.8259723619733
2025-02-19 14:16:43.901,755,-42,590,14,-5,5,-1,-4,6,64,109,z,4.071813894307644,51.92362710009024,1542.1894025542776,-85.7906687513638,-25.1546324596344
2025-02-19 14:16:44.012,515,-181,527,-2,32,-33,0,-4,5,130,71,z,18.955214019526046,42.74526200831219,1193.7400194733782,-419.5474631547214,-167.5553208980009
2025-02-19 14:16:44.118,789,32,566,-2,-42,16,-1,-5,8,389,107,z,-3.235892508541238,54.30240141719812,1601.1079839293798,64.93720593883415,-16.576830043129235
2025-02-19 14:16:44.225,1114,-2,615,-21,79,13,-1,-5,8,373,87,z,0.1863270814083769,61.09833598885924,1989.450490915146,-3.571724400206725,131.6947469364319
2025-02-19 14:16:44.335,691,-127,673,-1,-5,-12,-1,-5,4,183,46,z,10.686463491789151,45.25493335214421,1401.245990938065,-257.537251590643,-18.744648192934733
2025-02-19 14:16:44.439,714,-90,655,-7,1,0,-1,-3,5,228,46,z,7.823710731885269,47.2007325199244,1447.7385510215222,-182.4880526497717,-18.107494284449558
2025-02-19 14:16:44.545,800,-59,628,-3,-7,-4,0,-4,4,228,52,z,5.367129887479976,51.74574847470249,1585.2709900194552,-116.91373551393482,11.56227283472765
2025-02-19 14:16:44.651,741,-62,629,-4,-6,-7,1,-5,6,278,55,z,5.629412144025527,49.536928988045666,1501.824397955636,-125.65872155634202,-16.827997724824627
2025-02-19 14:16:44.762,794,-52,607,-5,-5,-8,-3,-2,6,382,63,z,4.896415206020307,52.50156027987322,1587.3699178011077,-103.95873517085342,0.48168752484582456
2025-02-19 14:16:44.868,795,-38,606,-3,-4,-8,-1,-6,5,490,70,z,3.588106673889239,52.628808498322684,1589.7199105885786,-75.98661207844778,0.21350211738536018
2025-02-19 14:16:44.975,777,-42,613,0,-3,-6,-2,-5,8,535,73,z,3.919523264732508,51.66370862155461,1561.3836425878299,-84.39911581555839,-5.825190355649852
2025-02-19 14:16:46.788,768,-30,620,0,-1,0,-2,-5,4,551,62,0,2.770215797200193,51.05360284775126,1545.7343795628235,-60.3802492016728,-7.8584835012377425
2025-02-19 14:16:46.888,785,-25,628,0,-2,-1,-2,-5,5,551,63,0,2.2796792104316057,51.31806113994306,1565.6274615261373,-49.86074718236105,3.4980307790903
2025-02-19 14:16:46.994,776,-34,622,-1,-1,-1,0,-3,7,552,63,0,3.128809848832137,51.24448923475204,1555.824277541551,-68.16755855207828,-3.065335864490521
2025-02-19 14:16:47.104,770,-28,618,-1,-1,-1,0,-6,6,553,64,0,2.5941511955853165,51.22088207233918,1549.5662857656616,-56.34786493693314,-7.677876108024407
2025-02-19 14:16:47.211,770,-23,619,-4,0,-1,-2,-5,6,559,63,0,2.127943406608913,51.185032087962796,1549.1742447693555,-46.27403588272101,-7.375139626273949
2025-02-19 14:16:47.318,787,-22,610,-9,2,-2,-2,-5,6,586,62,0,2.0655099193031954,52.20287202556582,1577.185734147256,-44.08905483003765,-2.469247560134818
2025-02-19 14:16:47.425,744,-58,624,2,-8,4,-3,-5,5,643,59,0,5.310311574511053,49.89173077177222,1508.828429642377,-117.62372166566917,-17.46900550650969
2025-02-19 14:16:47.530,749,-65,618,1,-9,-3,-1,-4,5,652,66,0,6.0041798305253895,50.31915580110161,1518.6130724363038,-131.78885141303036,-17.007848819273136
2025-02-19 14:16:47.641,829,-12,588,4,-13,-8,-2,-5,8,666,85,0,1.169139327907419,54.64673872244521,1644.6000699523827,-23.80603237566778,9.504413592278752
2025-02-19 14:16:47.744,801,-24,587,0,-3,-3,-3,-8,7,678,88,0,2.3412832135662933,53.741956315004785,1607.3615830762726,-48.160646683933265,-3.929150144534333
2025-02-19 14:16:47.850,831,-9,579,-2,0,-3,-2,-5,7,675,88,0,0.8905362533605713,55.12986358048906,1651.449977072613,-17.885739823891114,7.350737996338239
2025-02-19 14:16:47.958,801,-24,593,0,-2,1,-2,-6,8,657,84,0,2.31761997104325,53.46411859188296,1604.4841960062772,-48.07443283913939,-1.8391114004024303
2025-02-19 14:16:48.067,762,-23,601,4,-9,-4,-2,-6,7,690,93,0,2.191614243532463,51.71627638426085,1546.9524035206455,-46.692789082644154,-18.10287994213627
2025-02-19 14:16:48.178,797,-84,635,-7,3,-18,-1,-6,7,592,103,0,7.535532918590878,51.21190641605796,1576.4681602366422,-166.1522276786423,13.96827885788241
2025-02-19 14:16:48.279,986,232,459,-3,-22,69,0,-5,7,61,103,0,-26.814161692230904,62.453322424695195,1872.6343627170838,440.61985005107846,46.25641735584037
2025-02-19 14:16:48.391,746,-49,684,6,-1,-89,-2,-3,8,529,111,0,4.097522396325724,47.40954361896115,1482.2098224955776,-97.35694544541997,8.976516639443844
2025-02-19 14:16:48.496,1028,99,601,-33,73,53,0,-7,7,481,71,0,-9.354071201447448,59.352873463736394,1888.3230425976897,181.85212180658684,98.02903832566989
2025-02-19 14:16:48.599,649,-77,663,10,-27,-7,-1,-4,3,260,46,0,6.624582756739203,44.196781140925516,1346.1248259394204,-159.7097251114567,-49.162957777867064
2025-02-19 14:16:49.518,791,-22,596,-2,-1,0,-3,-5,7,538,81,1,2.113985092302651,52.98408052571231,1589.468266578397,-44.20771411469626,-5.627164198135006
2025-02-19 14:16:49.620,808,-17,584,-1,-2,-2,-1,-7,8,527,89,1,1.6673857385860202,54.13011942813735,1618.3497745979157,-34.04943832693634,-1.698351937107077
2025-02-19 14:16:49.718,779,-26,594,-2,-4,-4,-3,-6,6,482,93,1,2.506296281988089,52.64745553149965,1573.9174102329166,-52.531261445514545,-12.137280716755527
2025-02-19 14:16:49.828,813,-45,501,8,4,0,-1,-6,10,451,103,1,5.132554439872967,58.25421800961271,1663.3909615897514,-92.06961042009695,-23.041662677079444
2025-02-19 14:16:49.939,703,-135,667,4,-2,-11,-2,-8,9,678,104,1,11.442026256153317,45.930681540101865,1421.4988518362732,-272.9763086741066,-14.705169523178029
2025-02-19 14:16:50.045,861,159,503,-7,-8,55,-1,-6,7,0,109,1,-17.54192146418732,58.50432953244589,1713.6796443128487,316.46348832258184,4.860788514096441
2025-02-19 14:16:50.153,680,-161,582,-2,41,5,-1,-4,7,346,87,1,15.46316346596542,48.39405545035211,1427.7292028253805,-338.0358847865974,-57.96822947701685
2025-02-19 14:16:50.264,1019,111,549,-46,-71,6,-2,-3,6,173,107,1,-11.430301581627543,61.20393246475022,1895.3397428819571,206.45997199204834,76.86013852581505
2025-02-19 14:16:50.362,851,3,527,24,9,14,0,-3,8,161,111,1,-0.32615840961300285,58.230833965092906,1701.176153385537,5.997095722863232,0.5101846836921595
2025-02-19 14:16:50.468,622,-159,662,-9,22,-4,1,-4,3,272,45,1,13.505553169784399,42.41467226471938,1296.4914686198629,-331.4182371552382,-55.867125765834544
2025-02-19 14:16:51.295,788,-34,606,4,-3,-4,-2,-5,5,545,70,2,3.2112480181116068,52.39491801534347,1580.2355219705232,-68.18275094796675,-3.2572668961131512
2025-02-19 14:16:51.389,767,-21,605,8,-3,-3,-2,-5,7,560,75,2,1.9879809831062194,51.717290928872735,1551.963373966068,-42.49182640585063,-14.169284549506187
2025-02-19 14:16:51.495,756,-11,615,2,4,-5,-2,-6,5,553,80,2,1.0246932979969405,50.86743347593049,1531.6878099679745,-22.286462843449364,-16.015877156487022
2025-02-19 14:16:51.606,843,66,540,-4,-7,-11,-1,-8,6,499,99,2,-6.968256741378543,57.164384203970776,1683.2297083037824,131.78310883517156,1.774564075868966
2025-02-19 14:16:51.708,749,-1,645,7,-25,6,0,-7,8,708,102,2,0.08883059473771729,49.26663912749348,1506.754518802777,-2.0116882761051764,-7.53893808783846
2025-02-19 14:16:51.819,779,88,599,4,22,32,-1,-5,6,469,104,2,-8.357624692842162,52.14607047894554,1568.5777650845696,177.19492083111953,-8.133608839097747
2025-02-19 14:16:51.925,1077,8,605,17,-25,14,-1,-6,4,348,98,2,-0.7575859893788349,60.67295352782327,1948.8381622968684,14.476049487813324,115.24875748411745
2025-02-19 14:16:52.032,822,11,561,16,-4,12,-1,-5,9,34,108,2,-1.123302714075429,55.68204928438251,1647.9217017565984,22.052480193823094,-2.676489884977741
2025-02-19 14:16:52.143,600,-145,680,-22,44,5,-1,-2,3,158,42,2,12.037202320365749,40.79262063990362,1253.3231020510393,-302.8864163290012,-60.43284899117805
2025-02-19 14:16:53.061,768,-35,614,-1,-1,-4,0,-4,6,572,65,3,3.262515412171047,51.31305586692727,1548.5728597846005,-70.57298189122528,-10.051739463209287
2025-02-19 14:16:53.154,800,11,601,5,1,-4,-2,-6,6,595,75,3,-1.0485577567858284,53.079685255829226,1599.4717237282578,21.992736201263547,0.39686754914635003
2025-02-19 14:16:53.261,694,-8,617,9,-19,-25,-2,-5,7,556,91,3,0.7428534074995935,48.35894539261187,1441.3221701610669,-16.614664785718347,-47.40602159852767
2025-02-19 14:16:53.372,965,-67,551,40,-4,-22,-1,-6,9,618,97,3,6.932964175951099,60.09290839956418,1831.8350435822858,-127.18440198965092,56.050664234363296
2025-02-19 14:16:53.478,722,22,663,18,-7,28,-2,-8,6,679,103,3,-1.9005200837979697,47.42357765847573,1458.3755645080942,44.43803659165938,-13.200830012280335
2025-02-19 14:16:53.588,1051,-38,632,15,-8,11,-2,-6,8,523,102,3,3.4408569222297065,58.93448134654429,1907.5777860071876,-68.97046229141117,116.91231136389865
2025-02-19 14:16:53.691,796,17,554,-15,-7,40,-2,-4,7,82,107,3,-1.7576222039362217,55.150216010705854,1616.6530093254564,34.5265089931316,-17.15799895264172
2025-02-19 14:16:53.796,806,31,523,-39,86,23,0,-3,5,267,58,3,-3.392148076868165,56.97523631247608,1644.4350923354887,63.24750355136496,-21.046592173028102
2025-02-19 14:16:53.908,679,-97,645,9,-34,-37,-1,-2,5,221,45,3,8.552483363253065,46.15100809700076,1400.1681334414259,-200.02401906306082,-40.056621604888846
2025-02-19 14:16:54.621,791,-15,618,3,-11,-7,-2,-6,6,596,76,4,1.3904012640440198,51.99167615343463,1578.9213028977229,-29.94161762764329,2.405353741096633
2025-02-19 14:16:54.718,787,-11,606,-1,-2,-3,-3,-6,6,615,81,4,1.0399081978750682,52.398709609262795,1579.2759017290696,-22.073741955552435,-4.062511369524941
2025-02-19 14:16:54.829,867,33,589,-1,-8,-6,-2,-7,6,628,100,4,-3.2067674848344216,55.76786458007558,1693.7651891251517,64.46857121237602,27.33368351244019
2025-02-19 14:16:54.936,750,-64,636,10,2,-3,-1,-9,8,462,102,4,5.74626920979624,49.55961955476968,1511.0813418661264,-128.94560783924277,-9.3969779024751
2025-02-19 14:16:55.038,804,-9,539,2,11,0,-3,-5,7,145,104,4,0.9566124300907684,56.15848473915447,1634.5811716108697,-18.297550428479887,-17.819964550073223
2025-02-19 14:16:55.149,764,-17,607,14,-12,4,-2,-6,8,556,110,4,1.6042400422208645,51.52182586702843,1546.8452365830622,-34.41933118051316,-14.972589798322929
2025-02-19 14:16:55.259,426,-199,567,-26,31,-35,0,-5,6,567,64,4,19.3395438566547,35.33387915000512,1004.340107707761,-469.16357144094945,-202.76253772371012
2025-02-19 14:16:55.366,754,-156,678,16,3,69,-1,-6,9,578,103,4,12.957580094093133,47.30228674133805,1488.9416607074427,-308.05689531878124,17.137339576066324
2025-02-19 14:16:55.472,1078,-5,595,24,7,7,-3,-5,7,378,104,4,0.48146580583835247,61.102727895819584,1953.4875354511155,-9.060702854597011,111.77636030295588
2025-02-19 14:16:55.579,516,-169,709,-18,24,4,-1,-2,5,362,35,4,13.407063859834413,35.29664233426932,1093.8097958332855,-358.24390599966137,-84.928576057751
2025-02-19 14:16:56.398,770,-55,605,0,-4,-5,-1,-5,8,612,69,5,5.194428907734806,51.72817184686781,1555.081015728862,-111.07721540920443,-11.849369501248702
2025-02-19 14:16:56.491,778,-23,598,2,-1,-5,-1,-5,7,610,76,5,2.2025981617658053,52.432305307174275,1570.633537972796,-46.43261101976131,-11.247886513794015
2025-02-19 14:16:56.599,798,-23,607,3,-1,-3,-1,-4,6,642,79,5,2.169971653706253,52.72170044745286,1593.7029384217183,-45.93379396453574,1.74726363160039
2025-02-19 14:16:56.708,717,-32,614,13,0,-13,-1,-6,8,582,89,5,2.9834000322281042,49.38664366431226,1476.1195834050895,-65.8798140431839,-36.068931953591004
2025-02-19 14:16:56.815,846,182,593,-23,-47,-3,-2,-6,7,654,100,5,-17.061982895907285,53.750534317697095,1652.4501185514853,355.4916330689956,27.722316429041825
2025-02-19 14:16:56.918,704,38,537,11,26,9,-3,-4,8,663,99,5,-4.047702691071903,52.59516275579131,1498.363339489946,80.87756662019595,-68.92771776434802
2025-02-19 14:16:57.024,813,-20,618,-2,2,7,0,-9,5,503,96,5,1.8535854228728283,52.74535742016482,1608.9529539763475,-39.580638474202885,12.958271147130631
2025-02-19 14:16:57.135,985,-43,567,8,-11,18,-1,-7,6,463,98,5,4.336880960848137,60.00269797976188,1851.0489471392925,-80.8072129208016,68.47233195129053
2025-02-19 14:16:57.246,745,56,639,-14,-12,41,-1,-5,7,335,104,5,-5.008430559161997,49.27136618436168,1502.8083525168613,112.96277549120029,-10.985956051374842
2025-02-19 14:16:57.352,1093,77,635,-26,74,28,0,-5,5,311,72,5,-6.913921742524227,59.66274102368126,1956.0672778907474,137.80162890904626,133.58396938643665
2025-02-19 14:16:57.459,598,-136,692,-1,-23,-13,0,-2,3,274,39,5,11.118734809385437,40.295986045994475,1244.7363478866914,-283.0838516932944,-56.39724538058613
2025-02-19 14:16:58.278,779,-34,631,0,-5,-6,-1,-5,6,465,58,6,3.084270182947737,50.951455171310776,1555.6124801193587,-67.89579502446495,1.9339217518416945
2025-02-19 14:16:58.372,775,-45,616,2,-10,-9,-2,-5,7,497,65,6,4.178146508414096,51.44667002271832,1557.0283914537767,-90.408100148929,-5.586437594227959
2025-02-19 14:16:58.478,768,-37,600,-3,-7,-5,-2,-5,7,555,71,6,3.528771219366493,51.948503530995225,1555.4570893702908,-74.93738581601662,-15.20085107053967
2025-02-19 14:16:58.589,884,77,616,-3,-10,-7,-2,-6,9,625,102,6,-7.125016348901798,54.921340374809155,1702.3638270141205,148.2828220362978,45.73742370961759
2025-02-19 14:16:58.694,793,-48,600,7,14,-14,-1,-7,7,432,102,6,4.573921259900861,52.800129430274275,1589.5312838021555,-96.21374731715443,-2.671841464430372
2025-02-19 14:16:58.802,822,86,579,-6,-18,48,-2,-5,7,224,105,6,-8.448485868255263,54.54506231532599,1636.5719811315046,171.22285933979242,5.2321446774437845
2025-02-19 14:16:58.909,803,-66,577,9,21,-37,-3,-4,7,552,103,6,6.525402785855194,54.12400804663146,1613.2872707548254,-132.59895376067055,-5.236307877377612
2025-02-19 14:16:59.010,702,-12,650,-27,45,33,-2,-4,4,399,50,6,1.0576480892474176,47.197731374485095,1435.702961459659,-24.541930965122376,-29.354593944128737
2025-02-19 14:16:59.126,694,-73,650,-7,-16,-13,-1,-4,3,356,41,6,6.4079057877573895,46.69589559192686,1421.7236268940683,-149.54729792977952,-31.58552951173533
2025-02-19 14:17:00.043,750,-45,624,8,-13,-9,-1,-5,7,607,73,7,4.124766606142382,50.166465280046694,1517.9087413976772,-91.07452448386064,-14.90007284286753
2025-02-19 14:17:00.131,844,36,592,-3,6,0,-2,-6,6,614,88,7,-3.4799175042697157,54.903614992592225,1662.1859949037496,70.898928692577,18.106505944289324
2025-02-19 14:17:00.244,867,45,509,-10,0,-16,-3,-6,6,469,97,7,-5.05230642934774,59.48610307279761,1728.5060331221543,89.7148460098004,3.2254084669244207
2025-02-19 14:17:00.354,713,-39,673,11,-12,1,-2,-6,6,715,101,7,3.316551460449447,46.60515537038624,1439.6364909184986,-78.74589501517733,-12.871470390111426
2025-02-19 14:17:00.457,934,276,436,-10,-7,32,0,-6,9,0,105,7,-32.33493623495764,61.08026595698937,1809.2980210122655,534.6533766588707,27.40263687221875
2025-02-19 14:17:00.568,597,-81,638,-30,18,-28,-3,-5,5,266,90,7,7.235519161771795,42.87009690011368,1277.3384565970916,-173.3072277795049,-89.0618681891865
2025-02-19 14:17:00.674,807,41,547,-22,-46,17,-2,-7,7,396,107,7,-4.286549330297288,55.79525148017321,1634.0339874782885,83.01783579505555,-13.57941902183859
2025-02-19 14:17:00.778,842,37,477,-53,95,27,-2,-4,7,312,64,7,-4.435445189339985,60.39432665383711,1711.446015825375,75.20606007783715,-15.54839613860321
2025-02-19 14:17:00.891,706,-67,616,21,-36,-11,-1,-4,5,387,52,7,6.207444677487597,48.72764063162158,1457.5824440945375,-138.32581268319268,-39.77165093801011
2025-02-19 14:17:01.698,790,-29,592,0,-5,-2,-3,-3,7,291,79,8,2.804477083902039,53.12036170368496,1589.8979845864149,-58.36334373798232,-7.417223892604511
2025-02-19 14:17:01.800,789,-24,578,1,-3,-1,-1,-5,7,370,94,8,2.377697660337365,53.750976676276146,1595.4546837427456,-48.530940950349674,-12.78682788758806
2025-02-19 14:17:01.909,777,-15,609,-7,8,-9,-2,-4,8,364,104,8,1.4109408203827345,51.90279120700756,1563.9650803944455,-30.192376069390843,-7.810468417268112
2025-02-19 14:17:02.018,914,-4,543,15,12,32,-1,-5,7,81,102,8,0.4220607230971245,59.28511340154782,1773.7195932342534,-7.762448985707893,32.24755019015345
2025-02-19 14:17:02.124,737,37,591,19,-8,-43,-1,-4,6,48,108,8,-3.582369956931529,51.2191822379114,1516.5477039519892,76.13604483883799,-34.11898647981752
2025-02-19 14:17:02.235,912,65,557,-17,-20,-36,0,-8,8,641,101,8,-6.656116434331214,58.413051342839175,1763.8462702203192,125.71272759245699,36.738626630791714
2025-02-19 14:17:02.341,835,141,460,-7,1,42,-1,-6,7,186,108,8,-17.041440719721574,60.049571046725006,1701.457668595728,287.3120134993983,-17.329973118604528
2025-02-19 14:17:02.447,600,-38,631,-31,64,25,-2,-4,4,233,47,8,3.4462968117322874,43.5056517979078,1288.4261250731197,-81.60032125463091,-92.9948082018974
2025-02-19 14:17:03.359,792,-12,590,0,-2,-3,-2,-6,7,404,69,9,1.1651772381887442,53.31007368884923,1593.8807057294039,-24.149707662566726,-7.360626742864042
2025-02-19 14:17:03.459,796,-23,597,1,-6,-5,-1,-6,7,463,73,9,2.2062839629516557,53.109705469732226,1595.7863536379596,-46.10940469054405,-2.8397652284695596
2025-02-19 14:17:03.559,791,10,596,7,-15,-8,-1,-4,8,586,93,9,-0.9612483860247474,52.99895436257649,1589.6245269009669,20.09639098484155,-5.744902696556437
2025-02-19 14:17:03.673,780,8,596,-6,1,-11,-1,-7,6,567,104,9,-0.7690246825780402,52.61397211319415,1574.5627112079774,16.149361140594635,-11.127404974300589
2025-02-19 14:17:03.783,940,126,512,-4,-10,50,1,-8,7,218,104,9,-13.825404384595899,60.71054126259924,1812.1592941285487,242.9064585746778,36.951533410833065
2025-02-19 14:17:03.888,789,-9,622,2,18,-38,-2,-6,8,671,100,9,0.828980760339528,51.74696985196954,1574.284188342799,-17.957614315697327,2.9293217373623293
2025-02-19 14:17:04.000,787,-147,623,-4,-16,51,-1,-7,6,665,103,9,13.276397042315972,50.87675857359882,1562.7905162622578,-291.9062336601676,8.873581154527756
2025-02-19 14:17:04.102,894,-48,422,17,25,26,-1,-5,8,0,110,9,6.489166395927557,64.5885648977939,1797.2496679201686,-96.49662646551242,-4.366174342629961
2025-02-19 14:17:04.209,561,-128,712,-27,68,18,2,-2,5,124,35,9,10.191501850027691,37.79319926406091,1173.8132617018582,-267.82192067350786,-65.75943374638723
