Timestamp,Acc_X,Acc_Y,Acc_Z,Gyro_X,Gyro_Y,Gyro_Z,Mag_X,Mag_Y,Mag_Z,Force,IR_A,Letter,Roll,Pitch,Lin_Acc_X,Lin_Acc_Y,Lin_Acc_Z
2025-02-19 11:22:30.073,29,444,898,-1,-1,0,-2,-2,0,0,8,noise,-26.309268146338724,1.6581812986081053,57.936683466513045,887.0306020390274,1.960629209354579
2025-02-19 11:22:30.166,28,448,898,-1,-1,0,0,-1,1,0,8,noise,-26.513985433457634,1.598195797158223,55.89016170696469,894.242587311435,3.5226709694896954
2025-02-19 11:22:30.271,31,442,895,-1,0,0,-1,1,0,0,9,noise,-26.282681789925743,1.7788130184198327,62.04115681726226,884.586816555804,-1.188237143539709
2025-02-19 11:22:30.371,30,442,887,-1,-1,-1,-2,0,1,0,8,noise,-26.487484735954084,1.7339083153311785,60.25779012179252,887.7981077944098,-7.621994600998619
2025-02-19 11:22:30.481,31,441,892,-1,-1,0,-1,-1,0,0,8,noise,-26.307543789499103,1.7844093174187516,62.138783444171395,883.9743064154704,-3.993381683899429
2025-02-19 11:22:30.591,66,438,866,-3,2,-2,0,-1,-1,0,8,noise,-26.829085158337097,3.890621647198158,133.85198566453255,888.2904503191705,-24.300296749775725
2025-02-19 11:22:30.701,33,445,893,-2,0,-1,-1,-1,1,0,8,noise,-26.488006248822558,1.8943635157775083,66.05685710545409,890.7667094523354,-1.5385877324391686
2025-02-19 11:22:30.801,70,524,836,-8,-12,-25,0,1,1,0,9,noise,-32.07924966416844,4.058185050612133,140.76948455191177,1053.7601415028826,-9.189844077117755
2025-02-19 11:22:30.913,79,382,918,-22,-18,-39,-3,-2,1,0,10,noise,-22.593269353704347,4.542736186961198,158.20266168462547,764.9799590319864,-2.3549800821033386
2025-02-19 11:22:31.021,66,460,990,-35,11,-24,-3,0,1,0,11,noise,-24.921770522585216,3.459830144547886,126.34873603652994,880.612402678845,84.76895945205104
2025-02-19 11:22:31.131,17,312,947,-90,-25,-42,-2,2,2,0,12,noise,-18.235059505555032,0.9767937279017697,34.047440849029144,624.8706791115936,-2.6427343547410374
2025-02-19 11:22:31.238,59,270,982,-79,-20,-29,-6,5,2,0,11,noise,-15.373539022579072,3.3155320402146295,116.83466057339692,534.667090759613,19.39598842244436
2025-02-19 11:22:31.350,77,177,1015,-109,-17,-3,-7,7,3,0,13,noise,-9.892009642569082,4.2740118362551645,151.526416869496,348.3139712454648,32.60632308391655
2025-02-19 11:22:31.461,-3494,1436,1496,-25,-42,91,-9,12,7,0,15,noise,-43.82767154933549,-59.311085598180426,-4353.95103544179,1789.4315074111073,1127.8011594101554
2025-02-19 11:22:31.563,294,-60,959,20,10,-89,-12,12,9,0,14,noise,3.5800539140412746,17.012595636835062,586.5819272318192,-119.71059739424882,4.625618315256588
2025-02-19 11:22:31.662,184,13,946,12,69,-15,-9,10,7,0,20,noise,-0.7873131631463837,11.00576926621669,374.907837091637,26.48805370756131,-35.51529287330766
2025-02-19 11:22:31.778,152,-22,906,-24,-11,-4,-11,14,9,0,20,noise,1.391014886606333,9.521087147333892,317.4105873758915,-45.941006067563244,-79.9341589641956
2025-02-19 11:22:31.891,247,-135,867,-108,-26,9,-10,16,11,0,20,noise,8.850417530023881,15.721823020632872,517.9670998009175,-283.0994270166958,-84.12743128500188
2025-02-19 11:22:31.993,145,-144,903,22,42,-31,-10,20,10,0,22,noise,9.060578450234363,9.010497373962778,301.6154204869966,-299.53531413881035,-72.33603241212347
2025-02-19 11:22:32.100,77,-86,1030,10,-43,-9,-10,16,10,0,20,noise,4.772848790038392,4.260553696453873,151.29217918157224,-168.97568064435342,36.22149925948827
2025-02-19 11:22:32.201,188,-129,953,16,33,-13,-9,14,7,0,23,noise,7.708817449987381,11.061194678791853,379.8573119147344,-260.646772537238,-19.5532885890525
2025-02-19 11:22:32.313,133,-108,947,23,-21,-13,-10,13,7,0,22,noise,6.506150555081017,7.9437035562744915,271.200037825986,-220.2225871068157,-37.025833242171075
2025-02-19 11:22:32.421,166,50,1028,-14,-12,31,-10,13,8,0,16,noise,-2.784565301834111,9.162213719847866,325.23014153831195,97.96088600551565,41.92418372659847
2025-02-19 11:22:32.530,162,-79,995,-1,-13,5,-11,13,9,0,13,noise,4.5395891147390515,9.218905970985913,322.2069057587275,-157.12558984530537,11.0131405559639
2025-02-19 11:22:32.631,298,-3,1027,-11,-18,-1,-11,12,9,0,13,noise,0.1673679159074999,16.180841668603037,576.6699913235807,-5.805402597217254,66.61717755262669
2025-02-19 11:22:32.747,473,-138,958,-19,1,19,-12,14,11,0,13,noise,8.197075765515256,26.04442189524948,912.0678574790829,-266.10013600869655,68.72514278020822
2025-02-19 11:22:32.847,206,-81,918,33,27,12,-10,17,7,0,14,noise,5.042451069170913,12.600323242635799,424.1487471721899,-166.77693456770578,-54.13859176733206
2025-02-19 11:22:32.956,26,-14,951,29,2,-7,-8,14,6,0,17,noise,0.843410067912557,1.565886435088571,53.326471917584286,-28.71425410946846,-48.518261293178966
2025-02-19 11:22:33.062,190,-1,988,-4,-37,-4,-8,12,6,0,15,noise,0.05799165986614405,10.885521612092088,378.8473003686362,-1.993933159834927,5.994038083091937
2025-02-19 11:22:33.171,241,101,863,15,-34,6,-12,15,8,0,11,noise,-6.675165796348541,15.502170660647932,508.2748831950623,213.01146557137463,-94.08806720887435
2025-02-19 11:22:33.278,348,37,918,21,-42,10,-11,13,12,0,9,noise,-2.308057749785794,20.74555678961489,702.218518458852,74.66116431890093,-16.4040228311095
2025-02-19 11:22:33.386,372,59,899,-10,-10,7,-14,11,11,0,11,noise,-3.7548500389938684,22.435967727199312,753.6506898661752,119.53062016694713,-23.322500509923316
2025-02-19 11:22:33.496,311,-82,977,-19,4,-2,-13,11,12,0,10,noise,4.797613434720117,17.5993449976955,613.3589939056614,-161.72166398798788,27.145540045559073
2025-02-19 11:22:33.601,377,-31,912,-27,2,11,-14,14,13,0,11,noise,1.946804358182667,22.447408543417072,758.8352477234974,-62.39759331413374,-11.696938789999308
2025-02-19 11:22:33.701,334,-18,935,1,3,-1,-13,16,12,0,12,noise,1.10288411963717,19.654343245207833,670.3449306024872,-36.12637350552326,-6.564401536903006
2025-02-19 11:22:33.811,357,-46,946,14,0,-1,-14,13,11,0,12,noise,2.783859969644833,20.65308554505113,709.7087728483762,-91.44706877037899,11.371150939597328
2025-02-19 11:22:33.921,371,-39,926,4,-1,-2,-13,12,12,0,12,noise,2.4116799041074364,21.815884266514868,742.6252279547181,-78.06572477152022,-1.5605420109675379
2025-02-19 11:22:34.028,354,-27,927,-4,0,-1,-14,12,10,0,12,noise,1.6683374482933075,20.89261292277942,710.6175504748576,-54.19964368028575,-6.8544330231442245
2025-02-19 11:22:34.136,346,-19,944,-3,2,0,-15,13,12,0,11,noise,1.1530432692564114,20.125420723185627,690.0763136883896,-37.89436404647226,5.248438954220319
2025-02-19 11:22:34.242,354,-27,940,2,0,-1,-13,12,11,0,12,noise,1.6452774666588863,20.628369432490818,706.3050857785422,-53.87072688141424,4.500619684097046
2025-02-19 11:22:34.346,347,-25,928,0,0,1,-13,14,11,0,12,noise,1.5431553027117795,20.49507963729112,697.1269418111716,-50.22528399215933,-8.362541788954445
2025-02-19 11:22:34.452,338,-31,932,-1,1,-1,-12,14,11,0,11,noise,1.9050585614365478,19.923580102488494,678.7664973560386,-62.2537320060272,-7.628329987656571
2025-02-19 11:22:34.562,341,-50,932,7,5,-5,-14,12,12,0,12,noise,3.0708640712532516,20.070000561888943,684.1679481106723,-100.31788095464404,-5.925300994564964
2025-02-19 11:22:34.671,348,-21,931,1,0,0,-13,13,10,0,11,noise,1.292166886249932,20.490543257473036,698.052777533484,-42.123874506330935,-5.491769780671234
2025-02-19 11:22:34.778,337,-16,934,-1,-1,0,-12,13,11,0,12,noise,0.9814162888463948,19.837455128371708,676.3529159880112,-32.11171114483139,-6.521138079532648
2025-02-19 11:22:34.885,336,-21,937,0,-1,0,-14,13,12,0,12,noise,1.2838953836989164,19.722818835062895,673.4701853190348,-42.09188658243968,-4.099891797427517
2025-02-19 11:22:34.991,339,-16,937,0,-1,0,-13,13,11,0,11,noise,0.97827469251155,19.887095199722868,679.1677593071563,-32.0551154835236,-3.227700503850997
2025-02-19 11:22:35.098,336,-18,929,0,0,0,-13,12,10,0,11,noise,1.1100053837944344,19.880565737203526,676.0605925472136,-36.21753174360072,-11.227054989170597
2025-02-19 11:22:35.201,348,-14,937,0,-1,0,-12,11,12,0,11,noise,0.8560098511503605,20.372812907086,696.1272637766174,-28.0051198071053,-0.34266137554743636
2025-02-19 11:22:35.315,337,-12,938,-1,0,-1,-13,12,12,0,12,noise,0.7329550623651573,19.76060520791454,675.0909199374314,-24.038845813795778,-3.036447778370075
2025-02-19 11:22:35.421,343,-14,933,0,-1,0,-13,13,12,0,12,noise,0.8596792258861514,20.182918744666708,688.0183962270909,-28.082383519473098,-5.49027311917132
2025-02-19 11:22:35.527,330,-17,935,0,0,-1,-13,11,12,0,11,noise,1.0416266760099742,19.437063269174995,662.7712105192359,-34.14275932977881,-7.851763137834837
2025-02-19 11:22:35.631,338,-10,937,-1,1,0,-12,13,9,0,11,noise,0.611457890571218,19.834636529772443,677.306640955994,-20.03865801644953,-3.622256141321145
2025-02-19 11:22:35.741,350,-5,936,3,-1,1,-13,12,12,0,11,noise,0.30606428702437644,20.502091621162116,700.2415748775486,-10.003451069679269,-0.6460402439588506
2025-02-19 11:22:35.851,341,-10,933,-1,-1,0,-13,12,12,0,12,noise,0.6140791603095913,20.07567404635623,684.2609542697726,-20.066303644274853,-6.186130010844067
2025-02-19 11:22:35.957,335,-10,941,-1,0,-1,-14,14,10,0,11,noise,0.6088589032768572,19.59492351349491,670.3681008207661,-20.010988084201976,-1.033978723405994
2025-02-19 11:22:36.062,338,-14,937,0,-1,0,-13,12,11,0,11,noise,0.8560098511503605,19.83363691033993,677.2902292621702,-28.053441448728947,-3.5767598185015004
2025-02-19 11:22:36.171,345,-3,930,0,0,0,-12,11,11,0,11,noise,0.1848244541214891,20.35313193913471,692.8052322682099,-6.02439332407139,-7.561930462131045
2025-02-19 11:22:36.278,351,0,936,0,-1,1,-14,13,10,0,10,noise,0.0,20.556045219583464,702.1234415883916,0.0,-0.329177569044532
2025-02-19 11:22:36.381,342,2,935,1,-1,1,-13,13,12,0,11,noise,-0.1225576302204692,20.09123428973338,685.5160180600379,4.00886560269028,-4.144669257706028
2025-02-19 11:22:36.494,339,-15,938,-1,0,-1,-13,13,12,0,11,noise,0.9161657180197379,19.867881691816386,678.8523992306762,-30.037716780118412,-2.3585559834048127
2025-02-19 11:22:36.594,338,-8,936,0,0,0,-13,14,10,0,12,noise,0.48969559312922417,19.85454586044508,677.6334896716066,-16.038662477434478,-4.523509859833666
2025-02-19 11:22:36.708,336,-1,935,0,0,-1,-12,13,12,0,12,noise,0.06127888520511668,19.766310275516233,674.184627011028,-2.0065018661042497,-6.079244807473856
2025-02-19 11:22:36.811,333,-5,935,-1,0,0,-12,12,12,0,11,noise,0.3063916222707099,19.603084285387823,668.5022810977906,-10.037571788255114,-7.025924403706085
2025-02-19 11:22:36.921,331,-4,939,0,-1,-1,-14,14,12,0,10,noise,0.24407000190622574,19.417526832169056,663.449649025278,-8.0175184172239,-4.112448443310882
2025-02-19 11:22:37.027,340,3,937,-1,-1,0,-12,12,12,0,12,noise,-0.18344370459738896,19.943724954533423,681.0970266657813,6.009679647051012,-3.023276428932604
2025-02-19 11:22:37.131,329,7,936,0,-2,1,-14,12,11,0,12,noise,-0.42848608927328663,19.365855725545938,660.5989782484403,14.055297409541286,-7.394053618663293
2025-02-19 11:22:37.244,333,-7,945,9,-1,0,-12,15,10,0,12,noise,0.4244054193614753,19.410994152429065,665.3421152534443,-13.98617059091324,1.8669702267123967
2025-02-19 11:22:37.344,331,29,939,3,3,0,-12,13,12,0,11,noise,-1.7689559403422346,19.40912800542542,663.3113960054018,58.11489572252765,-3.720244257015679
2025-02-19 11:22:37.451,319,-6,941,-16,0,-4,-13,12,12,1,11,noise,0.3653241427977296,18.72635935065546,640.0487277931925,-12.038534065075723,-6.043425872709122
2025-02-19 11:22:37.567,335,-1,947,-21,2,-8,-14,15,10,0,28,noise,0.06050238460077166,19.481155990556818,668.4968158170975,-1.9955128830361126,4.249299764801776
2025-02-19 11:22:37.677,290,-103,958,-33,-6,-19,-12,14,12,0,39,noise,6.136620205403407,16.750711538961397,578.2081599010571,-205.3635878269272,5.919251085473547
2025-02-19 11:22:37.780,362,-127,969,-18,8,19,-15,14,13,0,33,noise,7.4667944548143295,20.32529331649176,709.3496503736113,-248.86023645704043,39.21599112699073
2025-02-19 11:22:37.887,302,-152,944,4,-3,14,-14,17,13,0,17,noise,9.147080384875153,17.52856838904824,603.1812972509381,-303.58793768921385,2.559123824882363
2025-02-19 11:22:37.994,386,-181,950,0,-5,34,-13,17,13,0,12,noise,10.787069260590965,21.758720917304842,756.6988061307222,-354.82508784886204,37.65837869381812
2025-02-19 11:22:38.104,385,-178,888,-3,-71,44,-13,19,16,0,12,noise,11.334746582262246,23.0304554740042,776.220366053837,-358.8759095002156,-14.347233911187686
2025-02-19 11:22:38.211,544,-161,796,8,-52,-23,-15,22,19,0,14,noise,11.434458241634392,33.81626025972523,1100.5314223903715,-325.7087481706799,-18.33641952708797
2025-02-19 11:22:38.321,482,-253,893,-38,-21,-32,-16,19,22,0,18,noise,15.818204058253112,27.443481418141797,942.8734098890577,-494.910731746746,39.1411721350031
2025-02-19 11:22:38.428,590,-115,813,20,-21,-48,-17,18,21,0,21,noise,8.051155412022784,35.69929593992065,1173.531232294457,-228.73913849807212,8.91374261797705
2025-02-19 11:22:38.534,971,-233,831,53,6,33,-17,15,20,0,25,noise,15.662703755103344,48.36857636868459,1718.4338504882885,-412.35333384528445,191.3321011784061
2025-02-19 11:22:38.641,515,-263,800,0,24,-3,-17,18,19,0,25,noise,18.19827965652685,31.44789366551204,1036.7229346843596,-529.4332656737602,-10.44339368444173
2025-02-19 11:22:38.751,575,-53,809,-52,-20,14,-16,18,19,163,19,noise,3.748260872984979,35.34554862600752,1153.5062494683566,-106.32318473360506,-4.933140556348917
2025-02-19 11:22:38.859,512,-201,826,-20,-15,-1,-16,19,21,272,17,noise,13.676617049654274,31.059679783678284,1027.93062829036,-403.54307868430146,-6.341208921557268
2025-02-19 11:22:38.961,578,-121,762,6,-10,26,-15,18,22,614,17,noise,9.022814940694232,36.83849982844734,1177.5615136990823,-246.51374248717815,-28.42538657214652
2025-02-19 11:22:39.071,531,-230,792,-1,-11,11,-16,20,20,679,17,noise,16.19351065034114,32.775640091585586,1072.35078552587,-464.483391094068,-15.438459767399308
2025-02-19 11:22:39.176,517,-278,798,6,-22,8,-14,18,19,268,15,noise,19.20685124429789,31.458600399686265,1038.882345263695,-558.6253229851202,-7.535999072395498
2025-02-19 11:22:39.287,541,-198,790,-6,-19,-7,-15,18,20,0,17,noise,14.070368407020123,33.59467152343577,1094.314085624599,-400.5068187683375,-17.981751651447553
2025-02-19 11:22:39.393,660,-189,846,4,-8,-17,-19,18,21,426,21,noise,12.59332995610312,37.2846772581651,1265.7756432991355,-362.47211603566154,69.5057663165627
2025-02-19 11:22:39.501,622,-111,760,10,3,2,-17,17,21,149,21,noise,8.309447791563262,39.00156449738721,1251.3416112757286,-223.31015892541137,-8.970457507321157
2025-02-19 11:22:39.601,617,-106,805,3,11,23,-17,16,21,434,21,noise,7.50138101177378,37.23120369593412,1222.0328211343108,-209.94405030832567,15.613580205640005
2025-02-19 11:22:39.711,624,-76,833,-1,-29,-19,-16,20,20,522,20,noise,5.213033446375153,36.72298208396035,1221.9467015517575,-148.82684185566276,34.77948334517009
2025-02-19 11:22:39.824,634,-118,850,15,22,-7,-16,15,21,603,23,noise,7.9034887190254945,36.45688819507346,1228.2177620013945,-228.59573488354027,53.33580804229473
2025-02-19 11:22:39.931,615,-49,816,-9,-5,-23,-17,17,21,591,23,noise,3.436428896138828,36.954923259430764,1216.1865204326455,-96.89941382308882,18.3281289869293
2025-02-19 11:22:40.037,576,-95,800,-5,1,6,-16,15,19,626,24,noise,6.772159966113562,35.56387720055537,1157.6102255420576,-190.92529761544353,-7.791979919524465
2025-02-19 11:22:40.140,581,-85,816,0,4,1,-18,17,20,669,23,noise,5.946863053973501,35.30528879274155,1158.9329570090563,-169.55129319409605,4.30758533667813
2025-02-19 11:22:40.251,567,-81,834,-10,11,4,-16,17,18,691,22,noise,5.5472995874217625,34.085118267308644,1127.423899209968,-161.06055702999544,9.67278317263947
2025-02-19 11:22:40.351,534,-94,824,-2,1,1,-16,18,18,697,21,noise,6.508035093926785,32.77676197485102,1075.3672486923892,-189.29685651139437,-11.368188993499643
2025-02-19 11:22:40.464,584,-91,824,0,12,2,-17,17,20,700,22,noise,6.302030182675167,35.16297275030663,1159.9041180547867,-180.73848414894795,11.422956717218653
2025-02-19 11:22:40.574,491,-142,841,0,8,2,-16,18,19,701,20,noise,9.583804981771822,29.928188895756993,989.9141831086326,-286.2888268868144,-13.555657829654024
2025-02-19 11:22:40.678,541,-99,842,2,-7,-1,-15,18,18,696,21,noise,6.705888642140727,32.54284841112778,1078.9301848349123,-197.43824084779357,4.777789961190251
2025-02-19 11:22:40.791,519,-115,840,-1,-3,-2,-15,15,19,698,20,noise,7.795602020615929,31.47276202958983,1041.0931671503047,-230.68538385796734,-5.006282092978722
2025-02-19 11:22:40.894,542,-99,829,0,-3,0,-16,17,19,695,22,noise,6.810067234366349,32.991109099802635,1086.5088873487057,-198.45826540133186,-3.8373941182231874
2025-02-19 11:22:41.001,551,-106,833,-1,-3,1,-14,14,20,695,22,noise,7.251963953973604,33.27181542296396,1099.6116065241977,-211.5405268449455,3.6107654543434364
2025-02-19 11:22:41.109,547,-95,825,1,-3,-1,-17,15,20,701,22,noise,6.568764121821126,33.37200493778028,1097.0727627080332,-190.53366079938422,-4.63442273149451
2025-02-19 11:22:42.632,601,-196,696,-10,-20,-30,-19,14,29,855,32,A,15.727707816500308,39.732571542191515,1240.2051030386683,-404.4595677131098,-44.24417922614498
2025-02-19 11:22:42.728,704,-184,660,-23,-6,-23,-21,13,29,857,40,A,15.577825774311025,45.776647342031346,1420.6263970211203,-371.300081039611,-11.837247207300038
2025-02-19 11:22:42.832,668,-182,673,-7,-7,-25,-21,12,28,866,46,A,15.132584199757014,43.775724186542824,1359.8373070893222,-370.49459564409676,-24.01573004657746
2025-02-19 11:22:42.941,757,-148,659,-2,-11,-14,-22,12,31,873,57,A,12.657624083272408,48.25984450311942,1503.1717751657516,-293.882989068073,9.426420298242533
2025-02-19 11:22:43.047,728,-173,654,0,-3,-5,-21,12,31,879,63,A,14.816847594619393,47.10019872539144,1460.5452598036672,-347.080123552245,-4.083241636810612
2025-02-19 11:22:43.154,750,-147,663,3,-5,-12,-20,10,30,890,72,A,12.501354055520359,47.84017232978886,1491.2753839461234,-292.28997525344016,7.712560591627039
2025-02-19 11:22:43.261,764,-124,642,3,-5,-6,-23,10,32,896,82,A,10.931861431872406,49.441606720614324,1523.7436825897867,-247.30918408525338,3.57664368763983
2025-02-19 11:22:43.371,727,-137,643,-4,-3,-3,-22,10,32,898,85,A,12.027801453114416,47.87666689947313,1468.7027553036414,-276.77067053177285,-13.003950014087195
2025-02-19 11:22:43.475,755,-112,634,-3,2,-2,-20,7,30,899,90,A,10.01829036089691,49.54453147065262,1515.9105004002504,-224.87678946334842,-4.963254640740274
2025-02-19 11:22:43.585,764,-139,617,5,-10,-9,-20,9,32,907,107,A,12.695850324832405,50.38096381817058,1534.3014199248287,-279.14646252559055,-5.088973944527993
2025-02-19 11:22:43.691,765,-128,625,2,-1,-3,-21,8,32,906,110,A,11.57412878558353,50.17354710357138,1532.9879093848508,-256.499937779426,-2.441102438603366
2025-02-19 11:22:43.797,770,-98,622,-1,-1,-2,-21,7,32,899,111,A,8.95370462763415,50.72517442044238,1544.1184277081416,-196.52416352649078,-3.326833810992298
2025-02-19 11:22:43.904,764,-75,622,0,2,0,-24,10,33,909,109,A,6.875461967918993,50.647108975428694,1537.2551919441028,-150.9085594185965,-7.534986111560102
2025-02-19 11:22:44.010,763,-93,634,2,1,-2,-21,8,32,910,110,A,8.345071164859995,49.97569921741084,1528.7717495750967,-186.3378410360209,-2.303131363841544
2025-02-19 11:22:44.121,758,-112,641,-7,-2,-3,-20,8,30,910,110,A,9.911067242679199,49.35529591681994,1516.7633204712301,-224.1127861382292,-0.6454992375438451
2025-02-19 11:22:44.231,725,-124,636,6,-11,44,-23,12,32,759,113,A,11.032473240897692,48.21095989028201,1470.603484487586,-251.52390631235951,-18.074229150489145
2025-02-19 11:22:44.338,781,-180,633,38,13,11,-21,10,30,789,110,A,15.873641674799703,49.88146550729448,1545.7129946846007,-356.2462727826224,13.20060738111124
2025-02-19 11:22:44.444,420,-369,735,-4,0,-16,-20,11,28,877,66,A,26.65851892371389,27.052659724460177,874.8092191208615,-768.5823853704712,-60.916133461507684
2025-02-19 11:22:44.551,816,-42,608,4,3,-22,-22,10,35,902,106,A,3.9516544813823,53.24491406951915,1617.2006985138573,-83.23827124703675,11.026930519087045
2025-02-19 11:22:44.657,859,-67,690,-26,-37,28,-21,8,32,877,111,A,5.546115967622973,51.095166921057036,1637.190175101237,-127.6970218064993,64.91126796291769
2025-02-19 11:22:44.761,807,-59,621,29,-11,30,-21,11,33,858,111,A,5.427269690739431,52.29662384998754,1598.1874974035536,-116.84394342851259,12.167985269384303
2025-02-19 11:22:44.874,1004,20,715,-10,51,-8,-19,12,31,892,93,A,-1.6022613462709752,54.53279020524349,1818.4477196019736,36.22405815940186,134.9899208013835
2025-02-19 11:22:44.981,725,-150,636,11,-4,-12,-22,9,31,866,86,A,13.27064387640368,47.97136550038447,1467.8103237590442,-303.6848945708368,-15.623952980347894
2025-02-19 11:22:45.092,878,-188,633,32,-9,-23,-21,11,30,837,103,A,16.54133633516788,53.053835105657036,1677.2006227308852,-359.12724040251305,56.81094055962376
2025-02-19 11:22:45.194,673,40,683,10,-9,-2,-21,11,32,924,98,A,-3.351707652122573,44.52843307922683,1374.2631291215826,81.67982936829614,-28.683086463656537
2025-02-19 11:22:45.301,750,-99,611,-38,63,30,-21,10,29,879,68,A,9.203617923188924,50.46743817494264,1521.262968512357,-200.8067118436311,-17.322231681400012
2025-02-19 11:22:45.401,738,-53,662,13,10,7,-21,11,29,823,48,A,4.577361208234449,48.01629582465436,1481.335106730528,-106.38314452129808,-4.785691945270287
2025-02-19 11:22:46.627,731,-76,662,-3,0,-1,-21,12,31,855,62,B,6.549091574195314,47.64904053010358,1470.0322180950088,-152.83508697020613,-7.274047029953294
2025-02-19 11:22:46.722,721,-78,671,-3,0,-2,-20,9,28,861,62,B,6.630555316178344,46.86534437205142,1450.7488616513037,-156.94647879168053,-8.142144477149259
2025-02-19 11:22:46.826,742,-66,679,-1,0,-1,-20,11,29,866,63,B,5.551810024333556,47.404345738589214,1478.1484243164718,-131.47950944054872,5.354743785870028
2025-02-19 11:22:46.938,730,-75,665,-2,0,-2,-20,12,30,867,64,B,6.434739151036719,47.487450680494334,1467.1293466679322,-150.73246712341768,-6.494541827636908
2025-02-19 11:22:47.042,734,-72,671,-3,0,-5,-21,9,28,875,64,B,6.1245483640706855,47.40405065837182,1470.1449386008726,-144.21040269654335,-1.9608362413971463
2025-02-19 11:22:47.151,685,-48,668,-4,2,-8,-21,12,28,879,59,B,4.109997961274774,45.64611681419622,1400.0356003368904,-98.10468440316899,-29.290191277434815
2025-02-19 11:22:47.259,719,-59,673,7,-6,1,-19,13,30,894,59,B,5.0101493624725855,46.78326569757629,1447.7686615658222,-118.801600879532,-9.14368460889898
2025-02-19 11:22:47.366,742,-63,680,0,-8,0,-20,10,27,905,67,B,5.293175347639793,47.37456470508942,1477.7965292898064,-125.47329022271938,5.685121405568339
2025-02-19 11:22:47.471,761,-45,658,-6,0,-6,-20,11,30,905,74,B,3.912312584895816,49.08546090188985,1516.6873009922879,-89.6858456565742,4.593634621648334
2025-02-19 11:22:47.581,742,-43,656,-1,-5,-2,-20,11,30,904,78,B,3.7503033767989606,48.45923914494315,1490.4841360283035,-86.37576529544077,-5.732605437421967
2025-02-19 11:22:47.685,745,-48,659,2,-5,1,-21,9,28,906,88,B,4.165932139669544,48.42995340405963,1493.1450793066851,-96.20263598217565,-2.7820231719533695
2025-02-19 11:22:47.792,746,-37,640,-4,0,-9,-22,8,31,908,94,B,3.308729293882041,49.32616979544229,1504.4321024622325,-74.61660561810001,-10.66561069145962
2025-02-19 11:22:47.901,762,-21,644,-1,2,-2,-20,8,28,912,97,B,1.8676788394341726,49.782354262068736,1525.5972067923967,-42.04401751002668,-1.3498703074847072
2025-02-19 11:22:48.011,689,-153,668,11,-14,53,-20,8,29,887,99,B,12.90061745672887,45.15435013595717,1398.0091008159538,-310.4432400941088,-19.399244332448575
2025-02-19 11:22:48.119,792,-45,601,18,9,19,-20,12,32,878,99,B,4.282043201097947,52.730224121563545,1587.7930353674726,-90.21551337315185,-2.8783008280945523
2025-02-19 11:22:48.225,450,-389,730,-9,-3,-52,-20,9,28,901,68,B,28.052114379638173,28.547044390286924,927.880178055046,-802.1008650298065,-45.22784440040789
2025-02-19 11:22:48.331,718,-29,622,-6,-8,6,-20,7,30,927,92,B,2.669413515575482,49.06698315249938,1473.4760475313851,-59.51365651589159,-32.46532251326096
2025-02-19 11:22:48.434,742,138,561,7,4,26,-20,9,32,874,97,B,-13.819761703945137,52.09554120555998,1531.0362783757164,284.74798708335425,-35.562469230157376
2025-02-19 11:22:48.541,800,-49,605,5,-9,13,-20,9,29,883,95,B,4.630377701768379,52.8114524129254,1596.6507507809592,-97.79485848533378,2.53286972189926
2025-02-19 11:22:48.651,796,107,584,-9,4,29,-21,11,29,842,98,B,-10.382529761872672,53.28144025358535,1597.582014255115,214.75034613730816,-4.0953471419435346
2025-02-19 11:22:48.766,613,-116,642,-27,70,20,-18,12,28,843,45,B,10.242004948021968,43.21678536264574,1297.7606350854412,-245.5795002771797,-75.15551015473591
2025-02-19 11:22:48.868,737,-50,717,7,-18,-6,-20,14,26,835,39,B,3.9890637139846947,45.71859874354299,1452.9194080980378,-98.56983772713963,20.508526992817792
2025-02-19 11:22:49.986,727,-75,695,-2,-3,-2,-19,12,25,836,51,C,6.159163029143084,46.12344245115265,1447.8347553032118,-149.36397062962982,5.893872165430253
2025-02-19 11:22:50.084,708,-91,690,-2,0,-2,-19,15,28,839,52,C,7.513041003267339,45.490730411929405,1421.1370433325824,-182.6602696938771,-5.00644053599126
2025-02-19 11:22:50.191,708,-79,672,0,-2,-2,-19,13,27,844,54,C,6.704889840102754,46.29796248373798,1430.9425767292314,-159.66732141470237,-14.182784692151927
2025-02-19 11:22:50.298,724,-78,689,-2,-1,-1,-20,13,27,844,56,C,6.458816378718656,46.236713557220085,1446.2035861742606,-155.80646370385682,1.709570615931284
2025-02-19 11:22:50.404,724,-82,674,-6,0,-5,-21,12,27,853,54,C,6.936612930173943,46.838353561360684,1453.4266971086863,-164.61462591562469,-5.051925208915236
2025-02-19 11:22:50.511,691,-84,682,-2,-2,-5,-20,13,27,875,51,C,7.0215944765448,45.15991311873215,1400.0775669451607,-170.19756240722648,-17.84211383010063
2025-02-19 11:22:50.621,741,-42,676,-3,-2,-10,-20,13,28,897,55,C,3.555227070918824,47.571446325359744,1479.119206543793,-83.83671616037694,2.6280922758379575
2025-02-19 11:22:50.728,720,-49,689,4,-8,-7,-20,11,29,910,58,C,4.067887297452641,46.18818739968642,1441.6175144540446,-98.11008084478914,-1.5478714706064238
2025-02-19 11:22:50.834,720,-74,663,-6,-5,-12,-20,11,27,906,64,C,6.3686452013658075,47.18331263856562,1453.5319465133698,-149.3907833916519,-12.46066741439472
2025-02-19 11:22:50.941,709,-43,677,-1,-6,-7,-21,11,28,910,69,C,3.634288706923993,46.26500042076904,1431.5449800742722,-86.82148680281199,-12.933641058225703
2025-02-19 11:22:51.047,797,-7,630,-6,0,-9,-21,9,30,916,81,C,0.6365935759634864,51.6731699070321,1581.486058428581,-13.890090851944873,9.891823324961138
2025-02-19 11:22:51.154,766,-33,648,3,-5,-3,-20,10,29,922,82,C,2.91532211664252,49.7337573471188,1529.0492708688253,-65.87287981549768,2.496178168409074
2025-02-19 11:22:51.260,794,-35,700,8,-2,-2,-20,9,30,932,91,C,2.8624052261117474,48.56472371495806,1543.7037661522857,-68.04739523341308,39.052095331738315
2025-02-19 11:22:51.371,761,13,644,-3,-2,-4,-19,9,30,927,92,C,-1.156434761718486,49.75451141703369,1524.2833426249936,26.039005852989376,-1.932289948089192
2025-02-19 11:22:51.477,643,-168,700,31,12,-4,-21,9,30,903,94,C,13.495733280795813,41.77145760648662,1309.16102217366,-342.05140237196713,-25.21417654986294
2025-02-19 11:22:51.584,801,40,604,35,-16,32,-19,11,28,904,90,C,-3.788889877884649,52.92132374254747,1598.8083692083403,79.84061768830662,2.4066729065700656
2025-02-19 11:22:51.690,1189,17,691,-19,65,14,-19,12,29,925,76,C,-1.409307973534031,59.82900048353768,2053.529296751814,29.36080575675427,188.56960129898806
2025-02-19 11:22:51.801,480,-128,745,7,-4,-4,-20,14,25,832,30,C,9.748923325406935,32.415187560977046,1016.0505846410476,-270.946822570946,-86.99517824495933
2025-02-19 11:22:52.915,721,-59,685,-1,-1,-1,-20,14,28,857,47,D,4.922815448255701,46.360969645602815,1444.7019189669181,-118.22110016511536,-2.567010391593385
2025-02-19 11:22:53.011,724,-61,687,0,-1,-1,-20,11,27,859,49,D,5.074091401270447,46.38975277236124,1448.0485128755986,-122.00408741078937,-0.04603362643103992
2025-02-19 11:22:53.124,716,-63,687,-1,-1,-2,-19,14,26,858,48,D,5.239543685429243,46.06427432731362,1436.1186143676348,-126.36239204631426,-3.9517989812362657
2025-02-19 11:22:53.225,714,-56,682,-4,0,-2,-20,12,27,858,48,D,4.694108011861394,46.21698217075916,1435.9653440254433,-112.62473286474065,-7.608353817019861
2025-02-19 11:22:53.332,727,-44,681,-4,2,-6,-19,11,30,861,48,D,3.696791503630679,46.811665079059395,1456.1079820212558,-88.12758075506912,-1.974602140956108
2025-02-19 11:22:53.439,695,-71,697,8,7,6,-20,13,27,862,45,D,5.816379856331763,44.76981424774805,1399.260281402395,-142.94601435909362,-9.286929694200467
2025-02-19 11:22:53.553,655,-64,700,5,-23,-15,-19,11,28,880,51,D,5.223947596268426,42.97892791888092,1336.7293387314899,-130.61172164704635,-28.565705514569345
2025-02-19 11:22:53.655,803,21,637,-7,0,-11,-19,10,28,898,75,D,-1.8881880067409302,51.56075166431922,1586.267779380179,41.48396434244553,15.653081612485607
2025-02-19 11:22:53.767,709,-21,664,-1,-5,-9,-21,11,27,889,71,D,1.8114615140003865,46.86290441341744,1438.7197447607837,-42.6137018899527,-19.404669282313762
2025-02-19 11:22:53.869,762,1,657,4,-12,-12,-21,8,28,904,88,D,-0.08720812065066638,49.23190003565359,1519.358737187974,1.9939091039212253,4.001718723754834
2025-02-19 11:22:53.974,740,8,671,1,1,-5,-21,8,28,914,90,D,-0.683076780377418,47.797592444233096,1480.776370084688,16.00839319010474,-0.7039788200348767
2025-02-19 11:22:54.083,744,-39,660,0,-3,-15,-21,11,29,919,89,D,3.381727324276359,48.374293972521116,1491.5001415524443,-78.18347516202329,-3.1049642803941424
2025-02-19 11:22:54.192,851,260,540,6,-8,25,-19,10,28,850,94,D,-25.709953780811265,54.84414868339168,1668.5888197997278,509.7921188577311,21.200983910866057
2025-02-19 11:22:54.303,961,67,645,-36,64,-47,-19,10,28,910,70,D,-5.9303855974660165,55.98902662407199,1789.9304598649087,124.79223809672098,88.64188697932786
2025-02-19 11:22:54.406,789,71,557,9,0,-11,-20,9,27,927,86,D,-7.264237098682616,54.56171800769766,1603.7405689452828,144.31632496212305,-18.171732449331444
2025-02-19 11:22:54.511,603,-45,749,12,-13,38,-18,8,28,921,88,D,3.4382036586637517,38.78620646271829,1229.4161733282704,-91.7474756215127,-29.0857609002893
2025-02-19 11:22:54.622,904,9,492,18,32,15,-20,11,28,845,93,D,-1.0479766460064828,61.43883070038884,1782.3071945264637,17.744208795064353,13.983252536482098
2025-02-19 11:22:54.733,395,-81,834,-17,18,1,-19,14,24,867,33,D,5.5472995874217625,25.239331003246246,821.4003147092103,-168.43905187707855,-66.29838599362381
2025-02-19 11:22:55.941,741,17,665,-1,-1,-1,-19,9,28,899,73,E,-1.4643851950116218,48.08475458647311,1485.133821220584,34.071896033400705,-2.8124036594982726
2025-02-19 11:22:56.041,735,14,666,0,-1,1,-19,9,28,896,73,E,-1.2042384288299293,47.813271997937775,1475.960173809819,28.11352712018703,-5.400647288897289
2025-02-19 11:22:56.151,732,0,661,0,-1,-1,-19,11,28,901,74,E,0.0,47.91779119743375,1474.183982705329,0.0,-9.196192033090938
2025-02-19 11:22:56.256,739,0,665,-2,0,-1,-20,10,27,903,75,E,0.0,48.01707130077447,1482.3441602242174,0.0,-3.9091563587339806
2025-02-19 11:22:56.361,749,24,660,-3,1,0,-19,7,27,906,73,E,-2.0825652797308845,48.595528515714925,1499.0594571641245,48.03394789310946,-0.9335670605103132
2025-02-19 11:22:56.470,708,-5,670,-3,-2,0,-21,8,29,912,69,E,0.4275725068334077,46.578802915313034,1434.3204271006061,-10.129381547320662,-17.337127340968777
2025-02-19 11:22:56.581,728,-11,665,-2,-4,-2,-20,8,29,915,75,E,0.9476633105466226,47.58559909146097,1466.285835935705,-22.155417850676862,-9.395715518191992
2025-02-19 11:22:56.687,775,28,623,-4,0,-3,-19,10,28,915,88,E,-2.5733594631768235,51.176976927351745,1554.0861147994146,56.14762737339821,-3.2847090581100247
2025-02-19 11:22:56.798,745,-20,661,-8,-1,-6,-21,8,30,917,89,E,1.7330803146887965,48.405997784818695,1492.8675869227236,-40.07698219926775,-2.544261685799256
2025-02-19 11:22:56.900,752,-50,654,7,0,-13,-19,8,29,913,89,E,4.371906582621858,48.90445155077305,1505.614464282714,-100.10734469964854,-1.4040686714029107
2025-02-19 11:22:57.011,794,176,593,-4,-20,50,-19,9,28,791,94,E,-16.5306755331918,52.07957288656703,1582.8650294936551,350.86176976181775,3.835059836602568
2025-02-19 11:22:57.121,1092,88,636,-11,58,-40,-19,12,30,898,82,E,-7.877699671866829,59.54590712144599,1954.0355390033037,157.46806541418562,133.93534541565845
2025-02-19 11:22:57.227,647,10,668,31,-79,-34,-19,7,29,908,89,E,-0.8576571862624771,44.08188010326413,1342.6856530190958,20.752483045117394,-50.26586741384199
2025-02-19 11:22:57.334,745,119,695,44,-19,14,-21,10,29,929,88,E,-9.716137244090705,46.57554034114865,1471.2812860280414,235.01003092259992,17.46242444363918
2025-02-19 11:22:57.437,778,55,608,8,6,12,-19,10,29,930,88,E,-5.168937683176293,51.87936128509901,1564.7127062425097,110.61593681662987,-6.8089015365630985
2025-02-19 11:22:57.551,571,-24,614,20,-43,-13,-19,10,25,879,73,E,2.2384348968430463,42.900014190603855,1251.7210503898186,-52.611742923565046,-117.98375646120587
2025-02-19 11:22:57.654,723,28,691,13,-14,12,-21,11,29,930,86,E,-2.32041192491988,46.27295372040254,1445.6409366595585,55.98609436579201,0.3431711870613299
2025-02-19 11:22:57.764,618,14,600,-38,46,17,-20,12,29,833,63,E,-1.3366589783291134,45.838880927327125,1335.383538923043,30.2514070306191,-96.48887274081846
2025-02-19 11:22:57.871,973,230,662,42,-28,17,-19,10,27,891,88,E,-19.158864192287087,54.23616010298613,1784.4328317483687,421.8083774944756,109.92545260285704
2025-02-19 11:22:57.978,949,202,616,-61,75,21,-20,13,29,867,66,E,-18.155459432377267,55.6624929339351,1774.7292210842718,377.7611197671474,80.01559516553061
2025-02-19 11:22:58.082,672,-37,684,5,-16,-16,-19,11,26,765,43,E,3.096315397955936,44.45112575627604,1372.3005949877784,-75.55821728355329,-28.805962755417454
2025-02-19 11:22:59.101,724,-16,685,4,-6,-5,-20,11,27,838,50,F,1.3380522768598846,46.57769598214859,1450.3071474974654,-32.05098668502686,-2.182867452712344
2025-02-19 11:22:59.198,741,2,679,0,-4,-3,-20,11,28,850,54,F,-0.16876469459265794,47.49993503938164,1478.2765708412312,3.9899502586807865,3.411887177873041
2025-02-19 11:22:59.304,726,-3,673,-2,-1,-2,-18,11,29,854,55,F,0.25540297183898064,47.169283601093724,1459.3655090385487,-6.030435987762598,-6.8278065880761005
2025-02-19 11:22:59.411,730,5,669,-1,0,-2,-20,10,25,855,56,F,-0.42821160488597493,47.49586496700017,1467.2285775850085,10.04951080537677,-6.624545759411831
2025-02-19 11:22:59.517,742,4,670,-5,0,-5,-19,11,28,860,56,F,-0.34206029135853433,47.9185616969542,1484.192995271418,8.00104040577584,-0.174267967453261
2025-02-19 11:22:59.628,729,14,668,-5,-2,-6,-20,11,27,873,56,F,-1.2006339815250384,47.49396540170448,1466.2061771218553,28.15759462236759,-7.519514838682198
2025-02-19 11:22:59.734,719,8,680,-5,-2,-6,-18,9,26,888,57,F,-0.6740368979845054,46.59484469721471,1445.5128459517946,16.08359216636211,-7.105334140779291
2025-02-19 11:22:59.845,736,0,675,-15,-4,-11,-20,10,28,905,61,F,0.0,47.47545541855895,1472.9878572959847,0.0,-0.9059832537903958
2025-02-19 11:22:59.941,724,26,661,5,-19,-6,-21,10,30,910,76,F,-2.252530562132967,47.58238465670821,1462.2479943326166,52.511668304762466,-13.00818267107661
2025-02-19 11:23:00.054,752,30,642,-3,2,-3,-21,7,29,906,88,F,-2.675426656029148,49.480979032014666,1512.190320901149,60.3267415253118,-6.992268641672581
2025-02-19 11:23:00.161,750,24,649,-9,0,-5,-21,8,29,902,89,F,-2.117831121716959,49.10989897736894,1505.9665772913702,48.19093047332385,-5.163078216132362
2025-02-19 11:23:00.275,717,-235,769,-8,-16,53,-19,8,29,886,91,F,16.992716178420874,41.72255181114965,1382.5241824117313,-453.1285674571226,55.20907074669242
2025-02-19 11:23:00.378,774,-11,604,21,7,15,-21,12,29,828,96,F,1.043350842586237,52.02827680344305,1562.3145009249065,-22.203436059656298,-11.170489093854712
2025-02-19 11:23:00.488,830,-35,619,-23,36,-14,-18,12,29,891,76,F,3.2362185399376577,53.24121208619922,1631.1620334180857,-68.78394116823253,21.506869053259038
2025-02-19 11:23:00.595,746,-13,663,0,-13,-13,-20,11,28,898,74,F,1.123302714075429,48.365760145872834,1493.401195891057,-26.024417622766407,-1.2452987610869286
2025-02-19 11:23:00.697,764,6,641,0,0,2,-22,9,28,897,89,F,-0.5362942862440349,50.001938091482934,1530.0661856642726,12.016226588986433,-1.7335405900506657
2025-02-19 11:23:00.806,804,46,638,-7,5,-7,-20,8,29,899,87,F,-4.123907560315601,51.4945148234388,1586.5485572065184,90.77267864614407,17.022413560001723
2025-02-19 11:23:00.911,684,-14,670,-12,0,-16,-21,9,28,905,70,F,1.1970510438887476,45.58615054178815,1398.3035370869652,-28.620247835113318,-29.68328925185176
2025-02-19 11:23:01.022,780,-62,562,-8,0,-2,-21,8,29,889,92,F,6.29542942727223,54.06224163902596,1589.6550406674178,-126.35719554023066,-21.3668369937036
2025-02-19 11:23:01.127,705,93,693,0,-4,6,-19,8,28,942,86,F,-7.6433780714795745,45.23614829631086,1415.0151537943252,186.66157347925144,-4.929789474422137
2025-02-19 11:23:01.231,645,192,521,-10,23,31,-19,9,27,895,76,F,-20.22995556025836,49.27628369393012,1402.8643497123949,417.59682968182915,-91.16639720954674
2025-02-19 11:23:01.348,1061,57,659,75,-25,-17,-19,10,28,921,87,F,-4.943477194058768,58.05929914064782,1909.5960898865742,102.58904535677166,131.92665105065748
2025-02-19 11:23:01.455,1028,116,655,-31,43,16,-19,10,29,929,80,F,-10.042907120688158,57.09412917427393,1867.564203627187,210.7368167517059,120.06366403131585
2025-02-19 11:23:01.556,568,-60,734,1,7,0,-19,11,25,830,35,F,4.673188347606479,37.64190343200558,1178.7244439670626,-124.51314548947843,-55.21081315461947
2025-02-19 11:23:02.677,729,9,676,-1,-1,-1,-21,11,27,859,54,G,-0.7627685672325123,47.15777963029608,1462.2289956005543,18.05220982222907,-3.921537758538989
2025-02-19 11:23:02.771,740,13,675,-2,0,-1,-19,10,27,863,55,G,-1.1033378692432727,47.62482295047875,1478.7474075737414,25.97799499791708,1.1425674158439278
2025-02-19 11:23:02.872,727,1,672,-3,-1,-2,-21,10,27,869,56,G,-0.08526151372126455,47.25132353989872,1461.3381896245578,2.010093795907232,-6.783030849660008
2025-02-19 11:23:02.987,728,10,673,-3,-2,-3,-22,11,26,871,57,G,-0.8512862315855467,47.24499208824661,1462.2631763579607,20.086032642279683,-5.789996825422463
2025-02-19 11:23:03.092,746,12,670,-5,-3,-8,-19,10,29,888,58,G,-1.0260833582009725,48.06768157033013,1489.9347282041317,23.966778469771555,1.8548687710880358
2025-02-19 11:23:03.199,719,13,638,-25,5,-9,-20,9,25,890,51,G,-1.1673073285631006,48.41005648798647,1466.91461052904,26.52279546158208,-25.657192653028233
2025-02-19 11:23:03.311,706,9,664,6,-17,-4,-21,10,29,892,58,G,-0.7765518682338494,46.75333660032407,1434.4108700468164,18.28569097793392,-21.07764548312491
2025-02-19 11:23:03.411,818,73,620,-5,2,0,-20,7,29,904,79,G,-6.715198568878573,52.64978203759891,1612.9420454640886,143.94226078102503,17.476689257047838
2025-02-19 11:23:03.522,778,50,629,0,-6,-4,-20,8,29,913,84,G,-4.544956571303199,50.956785761667824,1554.6710876708994,99.91459432332259,1.0744034126017823
2025-02-19 11:23:03.622,767,51,624,1,-2,-2,-21,9,30,916,89,G,-4.67244275538945,50.776199018724654,1541.68187340766,102.51078949646762,-6.2496597214860685
2025-02-19 11:23:03.736,572,0,622,1,1,-7,-20,9,29,908,92,G,0.0,42.602080261673045,1248.9026950193052,0.0,-114.07251101749603
2025-02-19 11:23:03.847,924,114,546,17,5,43,-21,10,28,812,91,G,-11.793429684910475,58.88264894818503,1780.1106220108027,219.62403778055352,40.11645062998042
2025-02-19 11:23:03.954,811,103,610,5,-11,-3,-20,10,28,897,93,G,-9.584130750556623,52.663433741515675,1606.0865761123905,203.9789363003406,11.969406376623851
2025-02-19 11:23:04.054,784,-46,616,1,-7,-20,-20,9,30,909,92,G,4.270654409609338,51.765355302665554,1569.4828202194901,-92.0870022067558,-1.1650730295991707
2025-02-19 11:23:04.171,907,51,668,-11,-3,-9,-21,11,28,897,93,G,-4.3659086902815245,53.54904225544994,1711.3657039513437,96.22894255955735,75.58953667089588
2025-02-19 11:23:04.272,795,2,372,-2,-2,-10,-20,8,29,872,93,G,-0.3080388573998619,64.923635482032,1700.7437114212714,4.278600531877413,-51.819698929198864
2025-02-19 11:23:04.383,747,-22,645,-20,-3,1,-19,9,30,931,91,G,1.9535173163813975,49.17443005306203,1503.7033718850416,-44.28577534333456,-8.378413475035927
2025-02-19 11:23:04.489,584,-82,670,-36,67,32,-19,11,27,874,48,G,6.977618490831699,40.8659051882507,1238.2909145737153,-173.86961471754222,-80.64197391162543
2025-02-19 11:23:05.605,747,-15,658,-1,0,-1,-19,10,29,862,58,H,1.3059086072232662,48.6171870641636,1497.3094101669597,-30.06645401941686,-2.915116318419564
2025-02-19 11:23:05.701,748,-1,657,0,0,0,-19,11,28,862,55,H,0.08720812065066638,48.70576315703621,1499.3305166739844,-2.0044525623983747,-2.925333495732275
2025-02-19 11:23:05.806,744,-4,666,-2,0,-1,-20,11,29,863,55,H,0.3441146582671129,48.16581298560592,1489.0781631001678,-8.005796575807354,-0.9651298719243186
2025-02-19 11:23:05.911,747,-9,660,-4,0,-3,-19,11,27,863,56,H,0.7812576616086434,48.535661502761926,1496.3679974594183,-18.028530089872515,-2.0922065906509033
2025-02-19 11:23:06.021,738,5,655,-9,2,-9,-19,9,28,854,54,H,-0.4373638675207325,48.40903049078404,1485.9027238135127,10.067091624752797,-8.789002842616355
2025-02-19 11:23:06.131,722,22,656,-5,5,-12,-20,10,29,867,52,H,-1.9207849126889665,47.72608669391744,1461.9374400287686,44.54657019478242,-16.29772944442118
2025-02-19 11:23:06.239,695,-27,666,2,-5,-6,-20,9,26,885,51,H,2.3215305898327188,46.197164195734196,1416.7259701960795,-55.03827510114266,-25.610785828185612
2025-02-19 11:23:06.349,744,24,652,12,-18,-4,-19,7,28,890,65,H,-2.1080953123570025,48.751258954445404,1495.8542950372746,48.25336435604112,-6.883065005783806
2025-02-19 11:23:06.455,745,37,644,-4,2,-2,-19,10,29,888,72,H,-3.2882234164081967,49.112183267881385,1500.9926749462625,74.54594493021705,-9.502392839453819
2025-02-19 11:23:06.556,744,30,649,-4,2,-3,-19,7,27,886,73,H,-2.6466112275538007,48.87113111462166,1497.232073475572,60.3722610272408,-8.053246889309435
2025-02-19 11:23:06.669,718,20,651,2,-18,-15,-19,8,29,892,86,H,-1.7596855211474445,47.78841871699824,1458.6688052503662,40.63144304318568,-20.553471055694104
2025-02-19 11:23:06.779,759,-55,651,14,-4,-22,-21,9,28,902,90,H,4.829189140917505,49.279343772726925,1516.8991929539973,-109.92023137347803,0.9441704702871903
2025-02-19 11:23:06.881,819,186,540,6,0,15,-21,10,30,850,97,H,-19.00598419603678,55.1097233385385,1639.2489596621144,372.2836465166706,-0.8234898871083942
2025-02-19 11:23:06.991,523,-61,623,-19,-1,-30,-20,11,29,898,83,H,5.592194778977568,39.87845202270107,1164.1610683254703,-135.7816924815558,-140.75400681982387
2025-02-19 11:23:07.099,774,88,596,20,-19,15,-22,10,30,926,91,H,-8.399094647852461,52.103731055520754,1563.124084924501,177.71953420330243,-11.645936195093668
2025-02-19 11:23:07.209,577,-138,599,-40,25,-31,-19,8,28,922,69,H,12.973657478311804,43.18844447239347,1261.4000721541975,-301.6866723696347,-111.49504890877688
2025-02-19 11:23:07.316,666,-33,676,10,-12,64,-20,11,29,897,95,H,2.7947647003000062,44.53897460919744,1367.3942802013548,-67.75377064060768,-35.92572585002392
2025-02-19 11:23:07.420,847,-28,625,18,15,8,-21,13,28,894,94,H,2.565135729697141,53.548994292961176,1651.3652065990764,-54.590585342118224,31.460148613432352
2025-02-19 11:23:07.521,471,-161,759,-11,1,-9,-19,11,27,869,40,H,11.976132444203357,31.25969650771949,989.9179325838628,-338.3795905435285,-77.2180697052055
2025-02-19 11:23:08.742,752,-17,655,-1,0,0,-21,9,29,858,57,I,1.4867322620401353,48.93423405004212,1505.9560374308658,-34.04421893128287,-1.7037294111930805
2025-02-19 11:23:08.843,750,-26,664,-1,0,0,-21,10,29,860,57,I,2.2423638785824953,48.458678561568334,1498.47764768951,-51.94722511990302,1.3477892455538267
2025-02-19 11:23:08.950,744,-23,663,0,0,-1,-20,11,30,862,56,I,1.9868396272328233,48.277726393726375,1490.3795190600304,-46.07356040104933,-2.120458517204611
2025-02-19 11:23:09.057,737,-24,651,0,-1,-2,-20,9,26,862,57,I,2.1113306255760196,48.5261874026359,1486.2584972826667,-48.399191227658065,-10.828062050224958
2025-02-19 11:23:09.167,744,-22,661,-1,-1,-1,-19,12,30,862,57,I,1.9062662865393634,48.36505492927893,1491.3930184983146,-44.100331192154464,-3.0144962733683087
2025-02-19 11:23:09.270,762,-9,654,-3,1,-2,-20,11,27,862,59,I,0.7884242624401321,49.35889161753212,1520.8041966603332,-17.96225429126378,2.7428548348319737
2025-02-19 11:23:09.380,728,-12,671,-3,-2,-6,-20,10,30,877,57,I,1.0245544990727404,47.32856841118579,1463.2526428977476,-24.119549058754078,-6.684784868665702
2025-02-19 11:23:09.487,735,-13,654,2,-7,-5,-21,10,29,896,62,I,1.1387569653749892,48.331822501638875,1482.0075409874078,-26.212378275967755,-10.684260960223924
2025-02-19 11:23:09.589,748,8,647,1,-3,-7,-22,9,27,904,68,I,-0.7084124865354066,49.13890392570627,1504.2978649501165,16.088747218717824,-7.17743131380405
2025-02-19 11:23:09.691,799,7,633,-1,-2,-7,-20,10,29,901,78,I,-0.6335767913244145,51.61061100244099,1582.8084785473548,13.866907822066937,12.035335518804231
2025-02-19 11:23:09.806,729,21,660,1,-4,-13,-21,10,29,899,85,I,-1.8224326876328818,47.82946568908185,1470.1499462666309,42.34999845212517,-10.999951352505263
2025-02-19 11:23:09.911,780,-14,567,60,5,-17,-19,8,28,887,92,I,1.414423211402155,53.977427208289775,1588.7853621128365,-28.516660345615016,-20.924743997408086
2025-02-19 11:23:10.019,770,81,642,-3,-2,0,-18,9,30,935,88,I,-7.190911408420399,49.95710703680997,1535.5630226366527,161.5332530306089,3.6994019055442777
2025-02-19 11:23:10.134,658,-109,654,10,-29,-9,-21,10,29,915,89,I,9.462322208025617,44.78222349735591,1362.4140257001557,-225.6886455947066,-46.1318735682396
2025-02-19 11:23:10.236,735,110,595,18,-7,55,-19,9,28,853,95,I,-10.474234828225821,50.53736485109166,1507.0392311222217,225.54328629040054,-29.98413947989377
2025-02-19 11:23:10.343,604,-9,599,-26,43,0,-18,12,30,857,69,I,0.8608067061489858,45.23490251839879,1313.9998425535587,-19.579467852619253,-105.12236041321489
2025-02-19 11:23:10.453,838,202,517,22,-45,19,-19,10,29,886,95,I,-21.34136627534398,56.48093173739365,1671.7020890733907,402.96398805826357,2.6515751182064378
2025-02-19 11:23:10.559,835,67,569,-10,7,-16,-19,10,30,904,92,I,-6.7156791427538245,55.544229242882125,1659.5631780102358,133.16255440321652,7.112037978653802
2025-02-19 11:23:10.670,563,-119,695,-4,-1,-6,-19,13,28,786,40,I,9.716137244090705,38.60569453941301,1186.9572677457822,-250.8843958467994,-75.24920263466879
2025-02-19 11:23:11.785,750,-14,649,-1,1,-2,-21,11,30,848,58,J,1.2357727676760302,49.1226769048627,1506.1125476356656,-28.114100889199094,-5.289391220729499
2025-02-19 11:23:11.880,750,-9,651,2,-1,-1,-20,10,28,859,58,J,0.7920570921623958,49.03930907697426,1505.1595068356403,-18.061914082027684,-4.4784519333359185
2025-02-19 11:23:11.985,745,-12,650,-1,-2,0,-20,11,29,864,58,J,1.0576480892474176,48.89101184723498,1498.4602586952838,-24.136272623279737,-7.3814337609858285
2025-02-19 11:23:12.095,756,-6,656,-1,-1,-1,-18,11,29,862,60,J,0.5240321514303962,49.049824646604414,1511.279806433285,-11.994284178041944,0.6249298674140391
2025-02-19 11:23:12.202,745,-9,651,-5,1,-5,-20,10,27,866,60,J,0.7920570921623958,48.84949752844552,1497.9836664836764,-18.096446977655148,-6.976331383722481
2025-02-19 11:23:12.303,772,-12,646,-8,4,-9,-21,12,31,884,59,J,1.0641954923877,50.07296166076402,1538.862361162851,-23.920140328956226,4.299112291189658
2025-02-19 11:23:12.411,711,2,669,7,-5,-5,-20,11,29,905,56,J,-0.17128732084778162,46.74311870398861,1439.2886732806417,4.048631992350609,-16.26740144127882
2025-02-19 11:23:12.522,772,7,645,9,-8,-4,-18,10,27,914,67,J,-0.6217902503770318,50.119845603303794,1539.3872854184383,13.958174867783768,3.8538871827814773
2025-02-19 11:23:12.631,758,27,637,-1,-2,-3,-21,10,29,917,74,J,-2.427096721623868,49.93200494409215,1523.2810836445697,54.25935258364562,-6.1187998437874285
2025-02-19 11:23:12.736,737,70,663,-7,5,-2,-21,9,29,911,80,J,-6.026999449723304,47.86772530901567,1478.5980722171912,140.43672327707378,-4.1363933242845405
2025-02-19 11:23:12.845,783,68,651,-2,1,-7,-21,8,27,900,87,J,-5.963187670969327,50.1063656012677,1550.2364125841705,134.63100390258438,13.106124403199374
2025-02-19 11:23:12.953,748,-21,625,-24,-10,-8,-21,9,28,875,92,J,1.9244142139771439,50.10326301619675,1515.201681369007,-42.539084637365164,-16.044185635868075
2025-02-19 11:23:13.058,682,67,728,7,-9,8,-20,10,29,940,86,J,-5.258287954433914,43.01089870334316,1364.137464550056,134.013504581897,-0.1467363525523524
2025-02-19 11:23:13.164,670,8,627,1,5,-13,-21,9,28,894,80,J,-0.7310069618353912,46.896529583417404,1400.1208892551422,16.717861364240502,-56.26238442234944
2025-02-19 11:23:13.276,735,-70,790,20,-16,86,-18,8,31,897,93,J,5.063616853030085,42.82277465717787,1414.73290288217,-134.73646694115905,59.402730235490935
2025-02-19 11:23:13.386,914,-227,576,8,41,-49,-20,11,29,859,96,J,21.50926197273272,55.88746002721964,1741.9376112027244,-432.62564304487785,54.236253771587485
2025-02-19 11:23:13.491,414,-101,774,-11,18,11,-20,11,24,876,41,J,7.434572609640048,27.940902070685933,882.5605938741478,-215.3106762833066,-102.00458854731983
2025-02-19 11:23:13.599,812,49,620,-2,-5,-10,-20,11,29,873,50,J,-4.5188221172054766,52.55049667001254,1605.889553733598,96.9071282425447,13.828173257597655
2025-02-19 11:23:14.711,744,20,659,0,-1,-2,-19,7,29,904,76,K,-1.7383368202635647,48.45390518060836,1492.4223964256716,40.11888162434601,-3.917149522201157
2025-02-19 11:23:14.813,736,26,627,-2,-1,-1,-20,9,28,904,77,K,-2.3745411289512472,49.547952195526314,1496.9492376873727,52.88135894004306,-21.254309823346148
2025-02-19 11:23:14.919,745,35,640,-1,-1,-2,-21,9,30,904,78,K,-3.130244862219096,49.29313921628232,1503.0562463705355,70.6133807019715,-11.216104264621436
2025-02-19 11:23:15.025,748,42,645,-2,0,-4,-21,10,30,905,79,K,-3.725628193348981,49.16886223859861,1504.6398382347866,84.48512460676608,-7.450127889621854
2025-02-19 11:23:15.132,790,8,608,-11,-5,-8,-18,9,30,905,90,K,-0.753848333070767,52.414993588863055,1582.449283583146,16.02480287172806,-1.8850182513325535
2025-02-19 11:23:15.241,702,-240,769,13,-6,37,-20,8,28,892,91,K,17.3328102638921,41.06956425521162,1358.9748572088938,-464.6067887893654,49.32241425407517
2025-02-19 11:23:15.341,769,19,621,4,4,8,-21,10,28,793,95,K,-1.7524642743453978,51.064557001160686,1546.8545435684207,38.21877285799739,-7.150418148230415
2025-02-19 11:23:15.452,839,41,584,-33,44,-8,-19,12,28,865,73,K,-4.015888471313693,55.09343466134455,1659.0863101384994,81.07573148471809,13.165190559137613
2025-02-19 11:23:15.561,783,6,623,10,-37,-9,-20,9,29,872,88,K,-0.5517882006375755,51.49092246501207,1565.5095202480315,11.996241534467675,0.39025400443983926
2025-02-19 11:23:15.671,955,255,534,18,-30,-28,-21,10,29,893,97,K,-25.52578594769377,58.21578368591067,1805.0378250898518,481.9734506784422,58.69089152043887
2025-02-19 11:23:15.778,782,-21,651,13,-1,-13,-20,9,29,921,93,K,1.8476102659945959,50.20861659617615,1550.3797797057819,-41.63423960846729,11.338572137514006
2025-02-19 11:23:15.881,587,12,706,-2,4,3,-19,9,28,859,53,K,-0.973772172497545,39.73758360415579,1226.2723735690229,25.068600481819885,-62.86932834706977
2025-02-19 11:23:15.991,785,-9,635,4,-46,57,-20,11,30,896,94,K,0.8120117968208123,51.027195167852376,1562.4445778201384,-17.91337732532643,6.111710935302085
2025-02-19 11:23:16.098,807,25,561,4,4,17,-19,10,29,885,100,K,-2.5515996886778245,55.16759517889003,1627.8262988787328,50.428324004917364,-9.611590670345777
2025-02-19 11:23:16.202,527,-108,740,-5,15,-1,-20,11,27,818,46,K,8.303462731363046,35.17222332778632,1103.036101188386,-226.04914407655733,-68.85524645048542
2025-02-19 11:23:17.421,877,57,624,2,-16,-5,-19,13,30,648,47,L,-5.2192645279882255,54.454995232869614,1690.6591359057302,109.88320495624473,45.06807205795246
2025-02-19 11:23:17.523,715,-73,702,-15,29,-6,-21,14,30,634,47,L,5.936770142035427,45.37159133819019,1426.6778136661783,-145.66081174493846,3.261782945934101
2025-02-19 11:23:17.628,690,-54,673,-34,8,-2,-19,11,26,642,39,L,4.58745596218571,45.62268556625367,1404.749646803222,-109.93692888025217,-24.139872896476163
2025-02-19 11:23:17.740,720,-48,690,-14,-10,-3,-20,13,29,664,43,L,3.979382452678205,46.14978337722279,1441.1533252581066,-96.07688835054043,-1.1052700390188193
2025-02-19 11:23:17.846,740,-82,689,-10,-2,1,-21,12,27,744,50,L,6.787022285373407,46.842979687015664,1469.4819264224593,-162.834483738705,9.793179317466866
2025-02-19 11:23:17.952,739,-99,685,-6,-1,0,-21,10,28,810,54,L,8.22376108481375,46.876321235086515,1468.8798360755802,-196.77821890593026,8.453737873108935
2025-02-19 11:23:18.052,696,-128,672,1,-8,-16,-21,11,29,848,60,L,10.784297867562598,45.4947835301874,1409.1866322130895,-259.1607599472348,-16.59398972298277
2025-02-19 11:23:18.166,744,-74,653,-2,4,-10,-21,11,29,860,65,L,6.4653545670921915,48.545649798954564,1493.48341844687,-148.5453937702532,-4.812731513180324
2025-02-19 11:23:18.272,782,-71,655,-1,1,-12,-21,8,29,871,69,L,6.186532631866145,49.88578276837543,1546.761546142413,-140.43487183645948,14.438858410127523
2025-02-19 11:23:18.383,682,-102,683,9,-20,-25,-22,9,29,883,79,L,8.49384294460112,44.64208099638411,1384.6758124809762,-207.09227693997005,-20.706128921564073
2025-02-19 11:23:18.489,756,-44,634,-2,0,-13,-21,7,28,876,96,L,3.96999765089818,49.94819753247009,1521.4629706407231,-88.55075490501562,-7.93587749499784
2025-02-19 11:23:18.592,785,81,601,1,-19,50,-20,9,29,794,98,L,-7.675807652719215,52.31293841595706,1576.3616065803365,162.65642055160163,-4.870478413735555
2025-02-19 11:23:18.701,800,0,575,54,-17,-6,-20,12,30,893,99,L,0.0,54.293308599397115,1612.0153713427135,0.0,-8.636048152575313
2025-02-19 11:23:18.809,827,44,622,-11,22,-2,-19,10,30,912,94,L,-4.0463372297895805,52.98386874944867,1625.4660413283254,86.48186918796412,21.460849206507305
2025-02-19 11:23:18.919,651,-106,727,-8,-1,-6,-20,10,27,856,51,L,8.29553725392975,41.5438837348466,1314.1934907203795,-213.98542245216618,-13.617001157781488
2025-02-19 11:23:19.026,748,-74,665,3,-5,-3,-21,11,28,823,58,L,6.349648055365735,48.18657506411067,1493.3198044420342,-147.73484696351676,2.3827941792073943
2025-02-19 11:23:19.132,730,-64,672,-2,-3,-3,-21,10,27,820,60,L,5.440332031005506,47.24002696364309,1464.2043446789821,-128.36860008144498,-3.870300855172559
2025-02-19 11:23:20.250,738,-63,651,-1,0,0,-21,9,29,846,70,M,5.527540151656172,48.45152105334324,1486.3947985174136,-126.8873608490475,-9.169395440157587
2025-02-19 11:23:20.345,749,-52,666,0,-1,0,-19,10,30,847,70,M,4.464486932881132,48.270491393916735,1495.295474788609,-103.8122358998767,2.4048248208099494
2025-02-19 11:23:20.452,749,-57,665,-1,0,-1,-20,11,29,847,70,M,4.899092453787765,48.29557684334108,1495.5868251772558,-113.8163538519407,2.1425383940251095
2025-02-19 11:23:20.551,741,-60,659,0,-1,-1,-21,9,27,852,69,M,5.202267979995796,48.2345967301335,1486.8783339583438,-120.39500679824647,-4.3384913340736375
2025-02-19 11:23:20.667,755,-54,657,-3,-1,-3,-19,11,29,859,72,M,4.69868051729944,48.874715193291856,1508.2732171813047,-107.87649500369595,1.5026441216992907
2025-02-19 11:23:20.775,731,-49,646,-8,-2,-4,-21,10,27,865,73,M,4.337658614083027,48.450728474541314,1479.38562358719,-99.16538379722614,-15.364039449144684
2025-02-19 11:23:20.881,749,-37,655,-10,0,-4,-20,10,29,873,75,M,3.233119491041413,48.78509407442646,1501.2435204456208,-74.16022731173294,-2.836456464461321
2025-02-19 11:23:20.984,720,-73,668,12,-5,-4,-22,9,30,899,78,M,6.23661690809278,46.97591500719888,1451.0669505265682,-147.12206581727702,-10.26767076631586
2025-02-19 11:23:21.093,774,-20,648,-2,-1,-2,-20,8,29,909,89,M,1.7678270558560691,50.050190306773025,1540.6072221492977,-39.80897214856067,6.189302386634495
2025-02-19 11:23:21.205,757,-30,651,-5,0,-6,-21,10,28,907,89,M,2.6384918254112053,49.27529264806061,1514.8530648170981,-60.033807060122776,-0.7336132046640387
2025-02-19 11:23:21.311,754,-22,659,4,-4,-3,-21,10,30,907,91,M,1.9120473288868538,48.830557364364125,1506.766098494308,-43.963997568799435,1.0784364618715472
2025-02-19 11:23:21.418,759,-20,652,-1,-1,-6,-20,9,29,910,94,M,1.7569883099082007,49.3232779920941,1517.3992065988973,-39.984168816835236,0.5160965711712606
2025-02-19 11:23:21.524,758,-43,637,2,0,-6,-20,7,28,910,94,M,3.8618312554152956,49.8931713451301,1522.8446272143965,-86.3882836018721,-5.752015218430984
2025-02-19 11:23:21.630,781,0,669,1,-15,43,-21,8,29,867,98,M,0.0,49.416835017774005,1540.4624892605666,0.0,18.448904845942366
2025-02-19 11:23:21.742,784,-21,611,11,-1,10,-20,9,29,788,102,M,1.9684745092731453,52.05300448760937,1572.5799665010716,-42.12267767413584,-3.569336137952405
2025-02-19 11:23:21.848,484,-177,693,0,10,-42,-19,9,28,889,72,M,14.327674217664882,34.085799018907274,1044.43373938049,-381.9520079965841,-109.4392177493379
2025-02-19 11:23:21.951,756,-36,657,-2,3,-5,-22,8,31,898,94,M,3.136358368332587,48.96527731132184,1510.3118533251143,-71.91961206310069,1.4670798484124816
2025-02-19 11:23:22.060,750,10,654,-2,1,-3,-20,8,28,891,94,M,-0.8760139891179738,48.90825440441761,1503.65809025492,20.04877453673226,-3.1898547022898356
2025-02-19 11:23:22.167,752,-82,650,-1,0,-13,-20,8,30,896,95,M,7.190100508162686,48.93720889430992,1505.9901444976144,-164.21701043723988,-1.7202046854380342
2025-02-19 11:23:22.274,769,-34,632,4,-4,6,-20,8,30,882,99,M,3.0793994085001786,50.544424891877185,1541.1175414056706,-68.13783668113498,-2.5621406610974873
2025-02-19 11:23:22.381,772,-6,627,13,2,2,-19,8,30,884,100,M,0.5482682363041987,50.91603539008914,1548.2228841328076,-12.032820343001095,-3.4297258436145057
2025-02-19 11:23:22.491,684,-99,700,10,-2,-12,-19,8,31,926,99,M,8.049872269248128,44.05408305939302,1379.3370654759212,-199.64089105572543,-11.602259989977824
2025-02-19 11:23:22.597,656,-171,773,9,-15,55,-19,7,30,925,98,M,12.47385904034342,39.64545734325293,1294.0350991051869,-337.3170761386996,21.169006694650534
2025-02-19 11:23:22.700,791,-21,627,9,10,15,-21,10,29,889,100,M,1.918280325146823,51.58164458273752,1574.494424678045,-41.800736938355186,5.949425697681022
2025-02-19 11:23:22.815,495,-155,755,-32,20,9,-19,11,29,836,49,M,11.601511532012758,32.70998033118159,1035.3868947407109,-324.21205794911157,-69.22647581664
2025-02-19 11:23:23.833,754,-37,638,-3,0,-1,-20,10,32,867,78,N,3.319078333367746,49.716203992802555,1516.8512197678915,-74.43434367561272,-7.489493649754422
2025-02-19 11:23:23.929,756,-42,634,-5,1,-1,-19,11,29,867,78,N,3.7900816281915493,49.95420787985692,1521.5304677012173,-84.52947042784541,-7.992482172713949
2025-02-19 11:23:24.035,761,-36,637,-6,2,-1,-20,9,31,868,76,N,3.2346252322357705,50.023794220300104,1527.3113187050958,-72.25125817790203,-4.445873870099831
2025-02-19 11:23:24.142,765,-53,620,-7,0,-5,-21,10,30,871,76,N,4.8859866899116,50.87463402072373,1540.7671183199043,-106.74595721693453,-8.72629197168692
2025-02-19 11:23:24.249,775,-56,648,-2,2,-3,-22,11,28,884,78,N,4.939215542126199,49.995096328012,1540.9894271934375,-111.34891344881613,7.534001520841912
2025-02-19 11:23:24.355,743,-51,645,14,-6,-5,-20,9,31,904,79,N,4.520957899581423,48.95026862067965,1497.1398523060707,-102.76464665896313,-9.670531275121903
2025-02-19 11:23:24.461,729,-33,646,9,-6,-8,-20,8,30,908,86,N,2.924332239223076,48.41732804035022,1476.9988484023577,-66.86003017459231,-16.83574220565572
2025-02-19 11:23:24.568,779,18,626,-1,8,-9,-21,8,29,895,89,N,-1.6470286612587415,51.20327676828683,1558.3737993766981,36.00863721281202,-0.30038306779579216
2025-02-19 11:23:24.671,769,-18,620,-2,-1,-4,-21,8,29,903,94,N,1.6629587413422697,51.11099176634288,1547.3636042154615,-36.21917409086906,-7.5493297966010005
2025-02-19 11:23:24.785,722,-1,685,-30,-30,81,-20,9,30,828,99,N,0.08364341432221031,46.50633438508322,1447.4504682221227,-2.0047790418588955,-3.2736436733432583
2025-02-19 11:23:24.895,827,130,541,43,22,-70,-22,11,30,882,97,N,-13.51175447003588,56.06759934012198,1656.6967485458854,260.423914523537,-1.7641365941037748
2025-02-19 11:23:24.998,778,8,404,-9,-4,-7,-19,7,32,908,95,N,-1.1344216309770068,62.553447342446745,1665.4411811176733,17.125359188870675,-56.83063903796915
2025-02-19 11:23:25.101,772,190,627,6,-23,53,-20,9,30,872,103,N,-16.85839876773828,49.680488923147564,1534.448032518434,377.649127174226,7.757880325054202
2025-02-19 11:23:25.216,753,-155,674,26,-1,-66,-19,10,31,928,96,N,12.951149751746605,47.434069521170464,1489.499444551082,-306.60347132193584,14.769421477517653
2025-02-19 11:23:25.326,763,135,557,-73,71,39,-17,7,29,899,61,N,-13.624050726524159,53.08800091078257,1562.5588987780675,276.4684814351758,-26.688475254762352
2025-02-19 11:23:25.431,713,-34,674,18,-22,-2,-19,10,27,870,50,N,2.887843634761296,46.5742844066614,1439.2662179656613,-68.63261067437936,-12.54057630975558
2025-02-19 11:23:26.341,743,-24,654,0,0,-2,-20,11,28,859,58,O,2.101654327671294,48.62614816537209,1493.4127954455407,-48.2394442674199,-6.5248562871919376
2025-02-19 11:23:26.444,735,-7,653,-1,-2,0,-19,10,27,859,58,O,0.614173192794239,48.37934492966865,1482.5586971865241,-14.119606639871659,-11.157590833742006
2025-02-19 11:23:26.549,750,-11,658,-1,-2,-2,-19,9,29,866,59,O,0.9577429671468132,48.73447547412629,1501.6611274363952,-22.024363202400465,-1.4573624708641546
2025-02-19 11:23:26.661,746,-13,657,-1,-3,-3,-20,12,28,868,61,O,1.1335585217546345,48.624160463593704,1496.3898646804948,-26.076498982367873,-3.8661408781301816
2025-02-19 11:23:26.763,732,0,659,-1,-3,-4,-19,9,29,872,63,O,0.0,48.00413973736152,1475.1931695937153,0.0,-10.076910877402156
2025-02-19 11:23:26.871,761,-36,627,-7,-6,-3,-20,7,28,876,67,O,3.2861019790753,50.468067824878915,1532.2699634428218,-72.4858326990034,-8.46158617430899
2025-02-19 11:23:26.979,735,-32,645,14,0,3,-21,10,30,896,65,O,2.8402525132065293,48.696478996545,1486.2235729343126,-64.70633242707211,-14.237012983172235
2025-02-19 11:23:27.087,736,6,660,-1,-2,-4,-21,10,27,914,66,O,-0.5208563745019587,48.11500151763407,1480.486376560371,12.06918241761172,-7.610065937289164
2025-02-19 11:23:27.193,835,-19,612,3,-11,-7,-20,9,28,912,83,O,1.7782193816546532,53.74787887086387,1641.4227130252777,-37.349738380215896,20.945269016203497
2025-02-19 11:23:27.304,738,32,650,12,-9,-5,-22,10,29,925,84,O,-2.8184397808481085,48.59333045690215,1488.0340842190242,64.52180310976799,-10.599125667162411
2025-02-19 11:23:27.410,775,41,618,-4,2,-18,-20,8,29,926,93,O,-3.7956141606149996,51.369120024608115,1556.1841145013225,82.3271596058764,-4.931332595893082
2025-02-19 11:23:27.515,738,-219,694,48,23,23,-21,8,31,891,92,O,17.51371407468241,45.40128694971195,1450.0418172290474,-430.2969620232539,24.41054043772499
2025-02-19 11:23:27.627,836,158,636,41,-18,5,-19,13,29,920,93,O,-13.951423723059245,51.90746013547665,1623.0153557844967,306.742136619558,37.26582980988053
2025-02-19 11:23:27.734,840,-66,443,-18,22,-34,-19,8,29,913,92,O,8.47383672433048,61.93338163691567,1722.4011369795999,-135.33151790553998,-22.36155200233651
2025-02-19 11:23:27.840,513,-89,722,-34,34,31,-18,11,26,859,38,O,7.027325429905808,35.19106129340378,1089.3048264934105,-188.98270868988993,-89.0956817314667
2025-02-19 11:23:29.061,754,18,645,-2,-1,-2,-21,10,31,901,80,P,-1.598537092675968,49.44405726012279,1513.7714919078812,36.1377809739282,-4.9371515657603595
2025-02-19 11:23:29.151,750,27,633,1,-1,-1,-21,8,29,901,80,P,-2.442415310657095,49.809965456983676,1513.9082815597815,54.500698136152124,-11.738589636455572
2025-02-19 11:23:29.258,762,29,645,-2,0,-1,-19,8,29,900,79,P,-2.5743555477286795,49.72499937925233,1524.9504653628355,58.03617256630215,-0.804527767754621
2025-02-19 11:23:29.366,750,31,636,-1,-1,-1,-21,10,31,901,80,P,-2.7905103166091,49.66851858582378,1512.3128331434518,62.50893043659599,-10.441282505646882
2025-02-19 11:23:29.475,755,17,652,2,-3,-5,-19,8,29,904,82,P,-1.493569963172687,49.17726092857153,1511.7356719192803,34.039081354473865,-1.4988848892328406
2025-02-19 11:23:29.581,762,30,636,-2,1,-4,-19,9,30,903,88,P,-2.7006293373952883,50.11875702594087,1529.3751032614448,60.21161823863956,-4.486306659158458
2025-02-19 11:23:29.687,702,-67,645,23,5,17,-21,8,30,909,91,P,5.9303855974660165,47.269882395346436,1436.5580180790005,-137.10738918987607,-29.914418320449045
2025-02-19 11:23:29.799,796,83,563,2,1,19,-19,10,28,837,101,P,-8.38639389309043,54.43784074443416,1609.4850442302322,167.82318928531316,-12.366934549774783
2025-02-19 11:23:29.905,684,10,607,-36,50,-48,-21,11,29,887,67,P,-0.9438319085069526,48.40942835482976,1431.9073333055533,20.934317738385275,-56.713086719986336
2025-02-19 11:23:30.011,781,33,559,29,9,-12,-21,8,30,908,88,P,-3.378477395534035,54.35966026069895,1593.690709315168,67.33904405557047,-22.682594759512085
2025-02-19 11:23:30.117,651,11,722,1,-6,41,-19,8,30,921,91,P,-0.8728598570533973,42.03647471157689,1320.6035595673225,22.314345860584556,-20.63251921291362
2025-02-19 11:23:30.220,1266,156,676,-22,73,20,-21,10,30,887,76,P,-12.994616791916505,61.27730983221202,2142.955917714793,264.06091877054325,207.73601866097925
2025-02-19 11:23:30.335,541,-69,743,11,-24,-7,-19,10,27,878,38,P,5.305655711984581,35.942472073514004,1127.9726612379689,-143.86342629467626,-63.13805415861498
2025-02-19 11:23:30.437,739,14,640,-5,1,2,-19,9,27,869,48,P,-1.2531453191430126,49.09950275311759,1494.8477869086305,28.319173229662823,-14.590776213157596
2025-02-19 11:23:31.861,735,-12,662,-1,-1,-1,-20,10,29,899,61,Q,1.0384804578201168,47.98658042905607,1477.9880842040116,-24.130417701289986,-7.194709854497432
2025-02-19 11:23:31.953,738,-9,661,-1,-1,0,-18,10,28,899,62,Q,0.7800758748511656,48.14770259685825,1482.8673037992335,-18.08374760730773,-6.1507964922675455
2025-02-19 11:23:32.064,746,-1,654,1,-4,-3,-21,11,27,900,64,Q,0.08760815727925762,48.75971225465256,1497.951562927547,-2.0079779663908135,-5.217590019591967
2025-02-19 11:23:32.170,736,-11,657,0,-2,-2,-21,10,28,904,64,Q,0.9592004468474515,48.241899894721364,1481.963229580204,-22.14890696383457,-8.893806839937497
2025-02-19 11:23:32.271,713,20,651,20,-30,-9,-19,9,29,924,82,Q,-1.7596855211474445,47.5891045145968,1451.327100520848,40.71043760226782,-23.124743953817642
2025-02-19 11:23:32.383,732,2,698,0,-2,-17,-20,10,30,928,90,Q,-0.16417083871702723,46.361903191867604,1455.7131631917214,3.9773583693762875,7.9019290876753985
2025-02-19 11:23:32.491,669,-162,704,26,21,6,-19,7,31,899,92,Q,12.95894812282868,42.80219436773516,1348.4694048407125,-326.53519220358066,-11.017131551362695
2025-02-19 11:23:32.599,767,189,700,5,-13,17,-20,11,29,916,92,Q,-15.109575122340463,46.6098462970811,1493.6927364386547,368.0677016778432,36.78629008206212
2025-02-19 11:23:32.706,858,3,552,-5,13,-36,-21,9,30,920,91,Q,-0.3113870402748284,57.24414285084811,1698.9837066228752,5.940502470709353,10.947545389479046
2025-02-19 11:23:32.813,599,73,688,0,1,28,-18,9,28,887,60,Q,-6.056687409238285,40.88534647988725,1253.5474811392291,152.76955947105796,-63.80077967243676
2025-02-19 11:23:32.924,834,-105,445,-18,3,0,-19,10,29,886,93,Q,13.276397042315972,61.26733432518399,1710.872234427672,-215.39758347110975,-22.875472806131768
2025-02-19 11:23:33.030,750,148,602,10,-5,16,-19,11,31,915,96,Q,-13.812082719954915,50.42396267058636,1520.7797636223772,300.1005400214824,-16.679223600894716
2025-02-19 11:23:33.131,692,-49,617,-42,68,14,-18,10,29,866,54,Q,4.540702039528656,48.18972969497762,1437.3565113367122,-101.77813447326432,-47.573652449062706
2025-02-19 11:23:33.243,822,-35,639,2,-11,-6,-20,11,27,832,50,Q,3.135133759370603,52.097905096901165,1611.0616242241504,-68.59751441343705,25.605379708963483
2025-02-19 11:23:34.861,747,-40,667,0,-2,-4,-21,12,28,859,49,R,3.4319185076702405,48.1870768515506,1492.325643329751,-79.91034234697463,1.4950413641983005
2025-02-19 11:23:34.959,732,-28,664,0,-2,-2,-20,13,27,864,49,R,2.4146565208507904,47.763378888484596,1472.375108756558,-56.32035935134374,-7.59709318900866
2025-02-19 11:23:35.065,749,-21,671,-1,-2,-4,-20,9,27,869,51,R,1.7925763961524455,48.130134248016695,1493.6626843578715,-41.87839301937957,3.8856325712528132
2025-02-19 11:23:35.172,746,-29,666,-3,-2,-8,-20,11,29,874,54,R,2.4932862757120637,48.21579211806529,1491.65968401365,-57.98677055817138,0.30382097440906364
2025-02-19 11:23:35.279,729,1,653,7,-2,-13,-20,11,30,885,59,R,-0.08774231963823739,48.14764937435065,1473.8666840197625,2.0217649986553665,-14.212544121954465
2025-02-19 11:23:35.381,778,38,638,6,-13,-13,-22,9,28,910,74,R,-3.4085744224852057,50.59673481952562,1550.6974001249228,75.74100411921218,4.348404524806256
2025-02-19 11:23:35.491,798,66,603,0,-8,-11,-22,9,29,913,90,R,-6.246315620990129,52.75965100087306,1594.103948015182,131.8431836704286,1.4327310110841154
2025-02-19 11:23:35.601,712,-242,763,0,-11,74,-20,8,29,902,91,R,17.59741707831928,41.652797858873264,1376.6150239710169,-467.8944323047557,50.7791245928571
2025-02-19 11:23:35.708,779,29,623,18,11,21,-20,9,29,887,95,R,-2.6651349255444248,51.31891353603253,1559.6367595882937,58.060932000077685,-1.3089874499448797
2025-02-19 11:23:35.819,646,-100,668,5,-17,-36,-19,9,29,919,85,R,8.513987929750348,43.72358338399753,1337.179931387253,-206.99379742836732,-46.71856682149371
2025-02-19 11:23:35.921,716,112,679,8,-11,20,-19,7,28,929,91,R,-9.366509957012124,46.13521409668464,1436.977141666732,224.778547299824,-4.719943005182813
2025-02-19 11:23:36.031,909,-39,461,-11,5,-4,-18,8,28,879,94,R,4.8356341957558815,63.025621506022965,1800.2094504024544,-77.23670909317462,9.022489949910323
2025-02-19 11:23:36.139,753,150,610,6,-15,33,-20,12,31,900,100,R,-13.815025341261613,50.164267797888314,1520.8841732721432,302.96497475540696,-12.057564005321638
2025-02-19 11:23:36.247,678,-84,636,-30,92,15,-19,11,27,862,48,R,7.523820438638627,46.583477501046225,1404.3765039585728,-173.993549163009,-45.37972937706809
2025-02-19 11:23:36.356,779,-10,664,8,-16,-9,-18,11,25,829,42,R,0.8628230170810314,49.55335381101296,1540.0104016348832,-19.769068056930465,15.333881019817227
2025-02-19 11:23:37.771,734,-32,666,-1,-2,-3,-20,12,28,871,48,S,2.7508347958812327,47.747875760143415,1474.1931989924337,-64.27000322582818,-5.619442137548845
2025-02-19 11:23:37.867,740,-24,671,0,-3,-3,-20,12,28,875,50,S,2.0484541926645568,47.78139237168745,1480.5864063027975,-48.01901858279343,-0.5317278772663485
2025-02-19 11:23:37.971,741,-16,657,0,-3,-4,-21,10,27,880,53,S,1.3950552609814286,48.430099092536665,1489.1467665041132,-32.154316145837804,-6.3366067384646385
2025-02-19 11:23:38.079,745,-25,664,2,-6,-6,-20,10,29,893,55,S,2.1562021447690176,48.270016479252504,1491.289957598658,-50.043287167740196,-1.149707175179742
2025-02-19 11:23:38.191,770,-10,665,13,-16,-8,-21,10,29,916,66,S,0.8615257345672586,49.181711897254345,1526.7864533348372,-19.828395497855027,11.411699392640571
2025-02-19 11:23:38.296,714,21,645,7,-14,-10,-19,10,29,925,76,S,-1.8647852593390069,47.89146321575307,1455.8759425310786,42.81988066267877,-25.182048925133813
2025-02-19 11:23:38.404,743,13,673,-6,2,-14,-20,8,31,924,93,S,-1.1066159194886598,47.824796900006,1484.0952392071797,25.9666730951458,1.725308228221138
2025-02-19 11:23:38.510,907,87,552,50,-2,50,-19,7,28,924,89,S,-8.95663560791191,58.36226350242022,1758.3816386234664,168.6650524368705,33.84932246951132
2025-02-19 11:23:38.616,663,13,604,-31,4,15,-19,10,29,910,93,S,-1.2329969367780786,47.659543589995366,1402.155698145405,27.493248983243234,-69.37864506760877
2025-02-19 11:23:38.727,772,123,517,-55,96,32,-20,12,27,878,47,S,-13.382508949892555,55.457213852706495,1595.7029898377407,254.23765252596132,-34.62492972294308
2025-02-19 11:23:38.834,619,-61,756,12,-22,-6,-17,11,23,843,30,S,4.6130782895353475,39.21893875836077,1251.285421143259,-123.30922567001423,-16.225813221815656
2025-02-19 11:23:40.251,746,-9,684,-2,-2,-2,-20,11,26,865,49,T,0.753848333070767,47.480127465809346,1483.0429699819183,-17.89193931613574,8.212611973683579
2025-02-19 11:23:40.349,725,-10,670,-3,-3,-6,-20,11,28,866,49,T,0.8550973962667232,47.254623334948604,1459.377281117947,-20.129341808523403,-8.665901171068072
2025-02-19 11:23:40.456,639,-56,650,8,-7,-18,-20,10,28,878,53,T,4.924092792332526,44.40515655276549,1338.727639380528,-117.32198404586788,-61.77302910382332
2025-02-19 11:23:40.562,798,9,660,2,-12,-15,-19,8,27,880,79,T,-0.7812576616086434,50.40433334723229,1568.5614496985345,17.69054266577295,22.693537843317245
2025-02-19 11:23:40.661,741,66,652,0,9,-8,-20,9,29,890,83,T,-5.780190163109491,48.51082087781594,1490.0808498177735,132.71975180563166,-7.11027541320982
2025-02-19 11:23:40.775,758,61,654,-3,2,-8,-20,6,28,884,84,T,-5.328684795956532,49.08970451256713,1513.735806488049,121.8177891764789,1.9535389931608051
2025-02-19 11:23:40.886,749,49,658,-14,-7,-10,-20,7,27,831,89,T,-4.258846122170349,48.62197517873881,1499.3646534914897,98.08927639663949,-1.1988544691588459
2025-02-19 11:23:40.992,654,131,670,-5,-24,8,-18,8,30,927,87,T,-11.063040381718897,43.77056514530949,1345.7722889661663,269.5660089519385,-38.69638166258619
2025-02-19 11:23:41.097,870,39,643,-8,44,37,-20,8,30,919,83,T,-3.470919580533853,53.482321332576674,1673.6732892168047,75.02673365454642,49.02077590068325
2025-02-19 11:23:41.209,660,-29,648,18,-56,-20,-20,8,26,908,78,T,2.562453157939891,45.49697931153513,1373.2134955541005,-60.338168744043806,-52.24597745311678
2025-02-19 11:23:41.311,711,-3,705,-3,-16,44,-20,8,29,902,92,T,0.24381035610408458,45.242517911134065,1421.0934343370432,-5.9961748284263425,0.8989153198094755
2025-02-19 11:23:41.418,776,66,612,-3,0,20,-20,9,29,891,96,T,-6.155168343274003,51.57740067200154,1559.4483953847127,132.633497545607,-5.874249968355912
2025-02-19 11:23:41.529,663,-20,657,-38,77,17,-20,12,25,896,46,T,1.7436252993769519,45.24716653822135,1373.1505589476687,-41.422339636430436,-46.7238570567398
2025-02-19 11:23:41.635,768,-32,676,5,-16,-14,-19,13,26,874,42,T,2.710203100174587,48.613691884883345,1518.2690808970442,-63.261211704043504,15.606902752080941
2025-02-19 11:23:44.355,744,-23,662,-2,-1,-3,-19,9,27,885,62,U,1.9898384846920552,48.32063035166486,1490.8776617521326,-46.08895997352022,-2.5605001074081883
2025-02-19 11:23:44.449,740,-12,657,-1,0,-6,-20,9,29,886,63,U,1.0463819070981581,48.395374635122046,1487.744490728695,-24.125586336140998,-6.875851903719649
2025-02-19 11:23:44.555,708,-44,675,4,-6,-16,-21,10,28,868,66,U,3.729559535896595,46.30621608649476,1431.04209629984,-88.93481954405786,-14.340981641796589
2025-02-19 11:23:44.662,773,35,635,-3,-1,-6,-19,7,28,879,79,U,-3.154842864791977,50.55512903848328,1545.236249909308,69.96541881866207,0.6274014328453177
2025-02-19 11:23:44.769,738,39,614,-2,1,-4,-19,8,29,888,91,U,-3.6344259900031775,50.18355553724885,1506.099774055626,79.59063846635422,-25.042359444653584
2025-02-19 11:23:44.875,747,-10,658,11,7,-3,-21,7,28,878,91,U,0.8706894984343678,48.62128799877093,1497.3567254097125,-20.044936083128682,-2.956794269867032
2025-02-19 11:23:44.986,801,123,589,29,-12,32,-20,10,27,893,92,U,-11.795478304028347,53.08636651115431,1600.5417662957807,245.77607647238577,1.0722842094697853
2025-02-19 11:23:45.092,763,27,569,-1,-3,-55,-20,11,30,921,95,U,-2.7167425605427993,53.25573195834465,1564.3136659992342,55.35579158843949,-28.572052363780244
2025-02-19 11:23:45.202,767,-84,616,10,-3,-27,-21,9,30,928,92,U,7.765166018425334,50.97309665472396,1543.8503771757782,-169.07878967766015,-7.911124302841245
2025-02-19 11:23:45.305,798,-3,602,13,8,18,-20,8,29,893,95,U,0.2855247768566811,52.96926835109712,1596.3126005866775,-6.001175190175481,-0.2358214952129174
2025-02-19 11:23:45.412,488,-150,765,-41,43,5,-21,12,29,856,43,U,11.093723011557849,32.04608777192616,1018.6012485034172,-313.0946460563782,-66.78269488752869
2025-02-19 11:23:45.521,811,25,638,1,-10,-6,-19,11,27,845,50,U,-2.243984379461565,51.7871071317659,1596.7177171677185,49.22064479555236,19.889144817503848
2025-02-19 11:23:47.042,751,-3,641,-1,-2,-2,-20,10,27,848,59,V,0.2681530164434638,49.51798445047195,1511.6097820047041,-6.038387944093358,-8.202224054614362
2025-02-19 11:23:47.136,756,-15,649,-1,-2,-2,-21,9,26,848,60,V,1.324011877489561,49.34748275749801,1514.6744896024243,-30.053065269889373,-2.295957343880218
2025-02-19 11:23:47.243,725,-54,672,5,-3,-5,-20,10,29,851,63,V,4.59425333126639,47.080728203332235,1457.313892597404,-108.54475889691005,-6.77922182821419
2025-02-19 11:23:47.349,769,14,650,-4,0,-2,-21,8,29,863,75,V,-1.2338721670000639,49.787163955842615,1532.6514067864546,27.902626391430903,4.520917540708183
2025-02-19 11:23:47.455,746,-6,653,-1,3,-6,-20,9,28,863,72,V,0.5264395146450921,48.802003113527064,1498.437936829589,-12.051779652784898,-5.635352211423196
2025-02-19 11:23:47.561,729,8,666,-1,4,-16,-21,9,29,864,69,V,-0.6882044930396946,47.583736118073084,1467.26390455588,16.10166150404258,-8.463320211544556
2025-02-19 11:23:47.668,719,24,620,5,1,-9,-19,8,29,863,74,V,-2.2167943407401904,49.207298440802354,1476.078283417222,49.27104144925359,-32.835237439051184
2025-02-19 11:23:47.778,854,81,702,-11,-6,-10,-22,8,27,876,89,V,-6.5819446551780105,50.393333517113334,1624.4390719559915,154.07443188341372,68.68825701041442
2025-02-19 11:23:47.886,919,-13,648,4,-12,30,-19,8,29,877,88,V,1.1492981961759283,54.80636147994038,1736.2088938695679,-24.560082285423704,71.77435992657229
2025-02-19 11:23:47.994,768,87,605,10,-6,20,-19,10,30,859,96,V,-8.183129437130784,51.48498933277166,1550.4450401471045,175.6363522041642,-11.379230845049733
2025-02-19 11:23:48.101,786,29,568,-3,-6,-83,-19,9,30,901,99,V,-2.9227748019940787,54.11096817163803,1596.1538752782385,58.89117351535485,-17.454708852467434
2025-02-19 11:23:48.209,956,125,694,-3,4,43,-20,10,29,917,92,V,-10.21037101739393,53.586670061462826,1760.7557158888221,230.22433523650915,109.79449076690116
2025-02-19 11:23:48.312,558,-85,709,3,-2,5,-18,8,26,866,46,V,6.836400133512279,38.005075898149975,1173.7312836768137,-178.79419195793753,-73.35390703738472
2025-02-19 11:23:50.135,752,8,647,-2,0,-1,-21,9,28,852,63,W,-0.7084124865354066,49.29004248406564,1510.020995629518,16.064053144994865,-5.180298101460039
2025-02-19 11:23:50.229,756,7,648,-1,0,-1,-20,9,29,855,62,W,-0.6189118162553683,49.39705359984885,1515.2378406678986,14.029980006184244,-2.775292001055618
2025-02-19 11:23:50.336,756,6,652,-2,0,0,-19,9,28,854,62,W,-0.5272468916673372,49.22320340291588,1513.2596130867137,12.009996929259632,-1.0863329795465688
2025-02-19 11:23:50.442,755,3,653,-2,0,-1,-19,9,27,852,61,W,-0.26322531277396705,49.1431512239465,1511.346360319295,6.0053497761031585,-1.1644679317874989
2025-02-19 11:23:50.552,720,-7,653,-11,3,-3,-19,9,30,848,61,W,0.614173192794239,47.79207966275283,1460.7117332665425,-14.201364073424717,-18.784391420905763
2025-02-19 11:23:50.655,736,2,662,2,5,-2,-21,9,29,865,62,W,-0.17309850512015207,48.029866019018804,1479.4935157657815,4.0203628145809285,-6.740091626287267
2025-02-19 11:23:50.761,727,28,667,6,-10,-8,-20,10,28,871,74,W,-2.403808765252978,47.43945357376985,1463.5630058165734,56.36831384162869,-8.77376187022628
2025-02-19 11:23:50.870,730,20,663,6,0,-12,-21,9,29,872,80,W,-1.7278554936517105,47.74070038990298,1470.1089866771104,40.27695853909891,-9.181175571128733
2025-02-19 11:23:50.978,771,0,645,-7,-1,-9,-20,7,27,867,89,W,0.0,50.08496060472182,1537.9967532215578,0.0,3.349019678463492
2025-02-19 11:23:51.093,700,178,614,-17,-32,61,-20,10,28,867,93,W,-16.166994287016177,47.59584880829671,1438.4064841560385,365.76622025682116,-33.68797324543948
2025-02-19 11:23:51.194,775,-69,669,15,0,-64,-20,8,29,903,96,W,5.888608746045655,49.04839152849396,1530.2634128574928,-136.24280708021547,17.037131352693336
2025-02-19 11:23:51.302,717,-119,650,-19,-21,80,-21,8,28,903,94,W,10.374643675119405,47.33563823861232,1452.3362713938072,-241.04325843216603,-16.62284017569675
2025-02-19 11:23:51.411,885,155,460,14,-19,-52,-21,11,28,903,101,W,-18.621579366487577,61.2557444860962,1761.7749753292999,308.55945895597904,4.275154066126618
2025-02-19 11:23:51.519,1120,198,499,-9,34,39,-19,8,32,924,86,W,-21.642860518472578,64.39029866902388,2021.7593526467003,357.4181712714703,97.23400270472888
2025-02-19 11:23:51.626,603,-89,693,12,-25,-3,-20,12,27,833,39,W,7.318273171619375,40.79556174984315,1256.3619636195338,-185.43319197701243,-57.87867460752386
2025-02-19 11:23:53.241,751,-15,646,-1,-2,-3,-22,12,28,852,61,X,1.3301583355201136,49.2906954010566,1509.028428102405,-30.140381386865613,-6.045758394345512
2025-02-19 11:23:53.341,762,-12,634,3,-13,-8,-21,9,29,865,69,X,1.0843332292884909,50.233787616202065,1530.6608659713127,-24.10489552710729,-5.541980348834954
2025-02-19 11:23:53.449,756,-12,636,-3,-1,-4,-21,10,32,875,73,X,1.0809241866606887,49.92208669443195,1521.1696444233874,-24.145549911482334,-7.7141453085637295
2025-02-19 11:23:53.550,771,10,616,0,-7,-5,-19,9,30,887,79,X,-0.9300445967184363,51.372779321585895,1552.2239849846796,20.132606809139816,-8.168579443012504
2025-02-19 11:23:53.661,1085,48,602,5,-4,-7,-20,8,29,902,98,X,-4.558789666561097,60.89970421287397,1958.7697123372461,86.65524994671688,117.19874025159243
2025-02-19 11:23:53.768,782,-1,617,-8,-8,-9,-19,7,30,904,101,X,0.09286179796542801,51.72643316890598,1567.0622194783605,-2.003915881685883,-2.4160990001897744
2025-02-19 11:23:53.877,966,229,476,-10,-2,24,-22,10,30,816,100,X,-25.691855424121812,61.32962280942531,1843.3943294812875,436.9951360778622,43.660765183133606
2025-02-19 11:23:53.985,883,137,592,-9,-6,-3,-20,11,29,864,94,X,-13.029954014223355,55.46579894476593,1706.787942028434,264.81307820826214,39.69823139203504
2025-02-19 11:23:54.091,597,-96,671,-1,-38,-41,-18,7,28,882,78,X,8.142056407709438,41.371936349229614,1257.944379279839,-202.2825132510294,-71.87048324417424
2025-02-19 11:23:54.201,820,-131,644,-1,-44,61,-20,8,29,876,92,X,11.498011050832366,51.28958206703988,1600.3167082968375,-255.6603521791289,31.16590226443509
2025-02-19 11:23:54.308,793,-42,592,18,-2,15,-19,11,31,839,107,X,4.058103802731542,53.1885036231032,1593.6111609679638,-84.40311319124145,-5.681976409879553
2025-02-19 11:23:54.414,531,-200,698,-27,52,12,-19,13,28,799,46,X,15.988752517326088,36.178608083135316,1121.304340258603,-422.33685132150765,-77.95561111206177
2025-02-19 11:23:54.521,832,-8,614,9,-8,-6,-20,13,29,793,54,X,0.7464825746891965,53.571064314267645,1636.5940045464276,-15.736480812946422,20.22509760636217
2025-02-19 11:23:54.628,747,-45,656,-4,-2,-3,-20,11,27,794,51,X,3.9242031570138596,48.64437233174608,1497.6229931689581,-90.21825260053966,-3.18163791008908
2025-02-19 11:23:58.941,743,-40,654,-1,-1,-1,-19,10,30,863,58,Y,3.4999691390679097,48.592213135923686,1493.0211861774233,-80.3779911804804,-6.180155800854209
2025-02-19 11:23:59.039,736,-44,656,0,0,0,-21,10,28,859,58,Y,3.837262117327651,48.22536166478669,1481.7709636093364,-88.58413369403641,-8.708902347451954
2025-02-19 11:23:59.144,739,-33,657,-1,0,-1,-19,11,30,862,57,Y,2.8754536839852474,48.32580215884196,1485.9376814988013,-66.35445668397895,-7.0569103446719055
2025-02-19 11:23:59.251,742,-38,648,-1,-2,-2,-20,10,29,865,58,Y,3.3560941392959354,48.82005640121147,1494.6454371941547,-76.54518411506453,-9.296823856889773
2025-02-19 11:23:59.361,736,-38,652,-1,-2,-4,-21,9,27,862,59,Y,3.3355512367323548,48.41502022639931,1483.9721146541751,-76.61812548486229,-10.605732003426738
2025-02-19 11:23:59.470,717,-24,642,8,-10,-9,-21,9,31,870,68,Y,2.1409013663230994,48.13893138056202,1461.7651537552392,-48.92937753155613,-24.860848969126437
2025-02-19 11:23:59.572,783,0,621,0,2,-7,-20,8,31,874,79,Y,0.0,51.581944655178006,1566.4976790895337,0.0,-0.3947110020441187
2025-02-19 11:23:59.681,783,21,644,-1,0,-5,-20,7,28,875,82,Y,-1.8676788394341726,50.54852954166171,1555.16306497272,41.70935423298482,8.913136855132166
2025-02-19 11:23:59.789,769,47,582,-8,0,-6,-20,8,31,865,93,Y,-4.61695960025222,52.79092907340746,1565.43418940063,95.67673199197608,-20.762936581491203
2025-02-19 11:23:59.899,785,-117,622,-7,-23,51,-19,8,31,887,95,Y,10.653021736236303,51.12241005328122,1563.4887036891168,-233.029526537104,5.159269178814725
2025-02-19 11:24:00.005,802,-7,582,16,2,11,-21,11,30,856,100,Y,0.6890912690362975,54.0301715726082,1611.3264059556623,-14.063946186645431,-5.316668661091512
2025-02-19 11:24:00.111,620,-67,699,-5,-3,-9,-19,9,29,902,69,Y,5.475143477178875,41.442401984751534,1281.8668070592762,-138.5243162467282,-47.20144860392554
2025-02-19 11:24:00.222,735,-3,617,-5,-6,-14,-19,8,30,916,87,Y,0.2785834424783925,49.98769387911728,1500.9063660317397,-6.126148432782611,-25.94452767562359
2025-02-19 11:24:00.325,777,-17,638,-7,-6,-15,-20,8,29,912,99,Y,1.526328888468362,50.60037631965726,1549.7377424015222,-33.90674597274888,3.499768787424614
2025-02-19 11:24:00.434,897,135,447,6,3,38,-20,11,31,729,102,Y,-16.805020937537844,62.50037865863895,1784.0138847815515,268.49707296043425,4.9763584198955755
2025-02-19 11:24:00.541,1005,155,612,-42,76,12,-20,11,27,854,68,Y,-14.212334437163715,57.86368879022454,1851.7849773480075,285.5986780984489,96.34586454031796
2025-02-19 11:24:00.652,589,-90,695,22,-40,-20,-21,13,25,807,40,Y,7.378535842673822,40.04585301238594,1232.4004584543468,-188.31246394039255,-64.19069376192022
2025-02-19 11:24:00.759,715,-97,668,-10,6,0,-19,13,28,819,49,Y,8.262147704841341,46.64809341913319,1442.1511483043844,-195.64847746227315,-11.352401492767513
2025-02-19 11:24:02.570,754,-44,645,-1,0,-1,-20,11,29,827,60,Z,3.9025032744908126,49.389362121408496,1513.1504675985457,-88.30055779089653,-4.405903980187986
2025-02-19 11:24:02.671,759,-47,651,-1,0,-1,-20,13,26,830,60,Z,4.129396976300058,49.30644712193601,1517.2077077959673,-93.95093842741827,0.6795549734192718
2025-02-19 11:24:02.778,750,-50,654,-1,0,-1,-20,12,29,833,58,Z,4.371906582621858,48.82885274987085,1502.7465133432665,-100.1831008895511,-2.394959635328405
2025-02-19 11:24:02.885,748,-43,654,0,0,0,-19,10,28,831,58,Z,3.761739314935469,48.77452952034753,1500.1220182887514,-86.23696094440683,-3.6040106428389436
2025-02-19 11:24:02.991,751,-42,651,-1,0,0,-21,11,29,837,58,Z,3.6913859864512752,49.0209046250337,1505.9488960968686,-84.22084372312713,-3.423077708470487
2025-02-19 11:24:03.102,756,-47,651,-2,-1,-1,-19,9,29,839,58,Z,4.129396976300058,49.19423648823678,1512.9293227687663,-94.0577753573175,-0.80025016199329
2025-02-19 11:24:03.208,740,-51,655,-2,-2,-1,-20,10,28,834,58,Z,4.452215289952338,48.40087669182206,1487.808249251417,-102.5381360970571,-6.911355756321768
2025-02-19 11:24:03.315,745,-47,657,-1,-2,-2,-20,11,30,841,59,Z,4.091814268270131,48.519044987988806,1494.1759328202902,-94.26344811081024,-3.6826682723900603
2025-02-19 11:24:03.422,750,-40,654,-2,-2,-4,-20,9,29,849,61,Z,3.4999691390679097,48.85857983970853,1503.0879669207147,-80.16469156910479,-2.6927071548632284
2025-02-19 11:24:03.528,738,-30,650,-4,0,-4,-20,10,29,860,62,Z,2.642545294064724,48.597491867340906,1488.0821198704657,-60.49114308416527,-10.64143349024755
2025-02-19 11:24:03.639,756,-27,649,3,-1,-3,-19,12,30,882,65,Z,2.382271930187913,49.330558418954254,1514.482021792353,-54.08864363544117,-2.1307303481971758
2025-02-19 11:24:03.741,750,-27,644,0,-1,-8,-21,10,29,888,68,Z,2.400746272393172,49.323544675424415,1508.4022403502229,-54.302480652608025,-7.214723714057868
2025-02-19 11:24:03.851,746,-23,645,-2,-2,-7,-19,8,27,883,72,Z,2.042240000281649,49.134925398455884,1502.2524346204323,-46.31609382878008,-8.86437041578938
2025-02-19 11:24:03.957,765,-47,647,-5,2,-5,-20,11,31,881,74,Z,4.154837347576274,49.702714881360684,1527.6989760796937,-93.85862990293542,1.9460947404422768
2025-02-19 11:24:04.061,948,-62,689,0,-7,-11,-20,7,29,873,93,Z,5.14193965967944,53.88065354958383,1755.790890235785,-114.83020590149647,101.90303441724075
2025-02-19 11:24:04.171,766,62,661,17,0,-9,-21,6,27,833,92,Z,-5.358510195140837,49.084135396893274,1521.6721493001387,123.16406430366658,8.912153149619144
2025-02-19 11:24:04.273,783,1,612,7,-8,-6,-20,9,30,918,94,Z,-0.09362047144048438,51.988452618623114,1570.8866572977304,2.006240941631839,-3.8194562786856068
2025-02-19 11:24:04.384,774,107,632,29,19,34,-19,9,30,885,99,Z,-9.609271820447086,50.369896499496555,1544.178230561948,213.47166753246563,3.1206179390813986
2025-02-19 11:24:04.493,1219,137,647,31,-33,8,-19,12,28,853,92,Z,-11.955587118499242,61.518785360279374,2097.973509743591,235.78537394165048,180.47345299089153
2025-02-19 11:24:04.602,765,31,596,-3,-3,5,-21,11,30,871,101,Z,-2.9774664644841007,52.040849147738506,1553.4494904532348,62.9502407896082,-18.269145503435197
2025-02-19 11:24:04.711,669,-33,673,-35,73,26,-18,11,26,828,48,Z,2.8072029061532353,44.79482551663491,1373.5701244996658,-67.7545801322705,-35.782800879335014
2025-02-19 11:24:04.811,810,-11,655,3,-18,-12,-20,13,28,789,46,Z,0.9621287534529822,51.03559207983404,1587.536744671592,-21.55914097702162,26.251150913712763
2025-02-19 11:24:06.935,712,-64,675,-1,-7,1,-20,15,28,616,46,a,5.416296887545157,46.400048580116696,1436.172446153886,-129.09415246327066,-11.539889261057851
2025-02-19 11:24:07.029,726,-85,668,0,0,0,-19,13,29,600,46,a,7.251659972856594,47.15317852174511,1459.1743876428684,-170.83997651466086,-6.601227197570097
2025-02-19 11:24:07.138,708,-75,687,-2,-1,1,-18,14,25,578,44,a,6.230324614005642,45.69280902030765,1423.6050725683979,-150.8056220941099,-7.3794983820467905
2025-02-19 11:24:07.246,764,-65,713,-1,3,-8,-18,14,27,555,39,a,5.208919494050306,46.859319151639475,1493.6769581613357,-127.07984591686755,32.031844019591176
2025-02-19 11:24:07.353,645,-73,584,5,-1,-8,-17,13,27,582,35,a,7.125016348901798,47.62040598625223,1383.6954476925553,-156.6042909791574,-84.8343278332593
2025-02-19 11:24:07.460,682,-66,650,-32,16,9,-19,12,25,701,37,a,5.797854385159653,46.2294379168065,1404.11574807181,-135.88216916823967,-38.233484232663386
2025-02-19 11:24:07.571,696,-85,685,-14,-18,-16,-19,13,27,795,43,a,7.073537674961373,45.237506274619356,1406.0318436523535,-171.71365906673856,-13.810076008422584
2025-02-19 11:24:07.676,732,-86,678,-15,-1,-8,-21,12,26,842,51,a,7.229001315519443,46.96520898777176,1462.9394453298887,-171.87539931471372,0.9823170305129452
2025-02-19 11:24:07.783,763,-64,645,-6,-2,-12,-21,12,26,867,58,a,5.666614193486234,49.652146359536715,1525.127862610445,-127.92684561870047,0.7372589990342249
2025-02-19 11:24:07.889,727,-124,655,-6,-2,-9,-19,13,28,891,57,a,10.719970305495133,47.48024331413093,1464.044336496621,-249.71320182335765,-9.049574147574617
2025-02-19 11:24:07.997,761,-85,660,0,-8,-6,-20,12,28,894,64,a,7.338606336236236,48.83216118685572,1513.7845249882976,-169.08237138502662,7.125116304499102
2025-02-19 11:24:08.103,738,-86,644,-1,0,-5,-21,12,28,891,66,a,7.60629832764816,48.64011132400052,1488.5738534628672,-173.46524579648587,-10.972305731824576
2025-02-19 11:24:08.207,737,-77,656,0,-5,0,-20,12,28,894,72,a,6.694633611710131,48.13312363116217,1481.697506797067,-154.8042171280518,-6.851512155869841
2025-02-19 11:24:08.321,786,-69,637,-3,-4,3,-20,11,28,891,80,a,6.182189307374617,50.81400283384358,1561.0989307115547,-137.04303590215937,8.834581598905629
2025-02-19 11:24:08.423,846,-12,624,0,-11,-6,-20,11,29,896,99,a,1.101706115206375,53.58287532255369,1650.7163991812888,-23.414417009663673,30.4503154974891
2025-02-19 11:24:08.532,775,-139,632,-9,2,-25,-20,12,30,865,102,a,12.403959577269834,50.1389857712936,1542.60143580665,-276.6730317124185,6.033409767996545
2025-02-19 11:24:08.641,799,112,607,10,-14,23,-20,13,30,841,102,a,-10.45429172198087,52.31306930107516,1590.3630031279292,222.92948229077354,5.801823656254101
2025-02-19 11:24:08.750,791,-131,555,-12,-3,-25,-18,10,30,897,102,a,13.280792070076544,54.21126447012144,1602.1788072165104,-265.3418757842767,-14.158328704378278
2025-02-19 11:24:08.856,893,-7,550,15,1,-17,-19,12,29,888,100,a,0.7291796420020736,58.368951974073326,1744.442866235635,-13.674244192216626,25.595099182979425
2025-02-19 11:24:10.171,755,-48,629,-1,0,-1,-21,12,29,868,77,b,4.3638750981838115,50.120067227586354,1522.3897655589878,-96.78769370441246,-10.322069584904966
2025-02-19 11:24:10.264,750,-50,640,-1,-1,-1,-20,11,29,866,77,b,4.467159061389273,49.43867221921743,1509.7103793259453,-100.6473586217297,-8.286190358139947
2025-02-19 11:24:10.377,770,-43,635,-2,1,-1,-21,11,32,866,78,b,3.873957525188083,50.424091597834376,1540.781197229804,-86.04362529984618,-0.6442340791240895
2025-02-19 11:24:10.482,744,-45,635,0,-2,-2,-21,10,29,867,79,b,4.0535542318314075,49.44854370885963,1503.8224016173308,-90.95700009782246,-13.504334713716617
2025-02-19 11:24:10.592,770,-33,633,-1,-2,-3,-21,11,29,870,81,b,2.9842821435933766,50.53898337577253,1542.057184904962,-66.0881650673555,-1.691166292001185
2025-02-19 11:24:10.700,718,-34,619,2,-12,-18,-20,8,31,880,91,b,3.1439433621562585,49.19213174544105,1474.9053162564778,-69.84231302607276,-33.540934209971624
2025-02-19 11:24:10.811,771,-105,629,4,0,-28,-21,10,30,871,100,b,9.477092968078153,50.40542609990288,1541.5736054814095,-209.9419307075849,0.3478627136104251
2025-02-19 11:24:10.911,811,39,557,23,2,29,-19,12,30,775,102,b,-4.0051965731662325,55.453059379909114,1634.661873380444,78.60889403432469,-8.69625582356025
2025-02-19 11:24:11.022,881,-151,531,16,-3,-25,-21,10,30,874,96,b,15.874114798717025,57.92790436892273,1728.3806242974924,-296.2377687501945,20.263210553951694
2025-02-19 11:24:11.132,600,-57,699,-14,-1,31,-20,12,29,875,104,b,4.661873095238831,40.5479590345902,1250.0843132769216,-118.75800976130756,-58.34822496761376
2025-02-19 11:24:11.240,1055,122,562,-25,81,35,-20,11,30,848,64,b,-12.247842351460578,61.40481939608713,1933.0232371667246,223.53444069605723,94.27577318701503
2025-02-19 11:24:11.347,635,-82,683,20,-36,-16,-18,13,25,847,44,b,6.846081292051841,42.7098829818225,1313.2864256182163,-169.5897431506988,-46.55847038935701
2025-02-19 11:24:12.761,761,-60,635,-1,-2,-1,-21,11,30,855,71,c,5.397748776480396,50.032112139587525,1527.404581178737,-120.42611678150357,-4.509735937579421
2025-02-19 11:24:12.859,756,-60,629,-1,-2,-1,-19,12,29,855,72,c,5.4489291919452745,50.11155052499143,1523.2944490660138,-120.89638484650904,-9.397101140903033
2025-02-19 11:24:12.961,763,-58,638,0,-2,-1,-20,11,29,855,74,c,5.194428907734806,49.982469644799885,1528.847738415326,-116.21647290706278,-2.38120197769058
2025-02-19 11:24:13.072,766,-56,632,0,-2,-2,-21,12,29,856,76,c,5.063616853030085,50.365120069623174,1536.1250556584,-112.30157064865588,-3.4034401776877985
2025-02-19 11:24:13.181,766,-55,629,-1,-2,-1,-20,12,28,863,78,c,4.997254649065411,50.50185449995688,1537.6451710101169,-110.40533212213631,-4.6355255422499795
2025-02-19 11:24:13.288,773,-47,627,0,-3,0,-19,12,30,863,83,c,4.28688157990014,50.87505379893145,1548.7717414695871,-94.16852761846133,-2.248230144154263
2025-02-19 11:24:13.391,809,27,533,-7,-3,-1,-19,12,30,868,100,c,-2.899934036744753,56.587848281944346,1643.73109440972,54.85876334865567,-16.952624623462043
2025-02-19 11:24:13.505,770,-101,665,-5,2,-22,-20,12,32,859,102,c,8.636065387580727,48.861470433017224,1523.1211582619726,-199.78602205773927,14.577181501023574
2025-02-19 11:24:13.610,887,149,540,25,-24,56,-19,11,29,813,100,c,-15.425561258178847,57.725791351014124,1732.5022830768098,291.02913210647654,25.263548070487673
2025-02-19 11:24:13.719,1090,63,657,-16,72,32,-20,13,27,891,77,c,-5.477368728828878,58.804377924772055,1945.4038396937367,112.44077238596827,141.40337368918813
2025-02-19 11:24:13.828,574,-124,682,-3,-14,-7,-20,14,26,688,38,c,10.304846468766033,39.627015753911216,1211.7872265474216,-261.77981897540127,-75.78900436470678
2025-02-19 11:24:15.141,754,-77,643,-1,-3,-3,-18,11,28,817,62,d,6.828718272593212,49.34144400687927,1512.6058230153476,-154.47035593127558,-3.927777452080363
2025-02-19 11:24:15.238,753,-78,641,0,-4,-2,-18,11,29,827,64,d,6.937919770023022,49.385562020554765,1512.1072944537439,-156.6326281107464,-5.198905371646447
2025-02-19 11:24:15.341,751,-69,628,-1,-4,-4,-21,14,29,834,69,d,6.270086824315154,49.92775403869902,1516.2333242360626,-139.3077222001176,-11.90216727063546
2025-02-19 11:24:15.455,763,-70,630,-1,-3,-3,-18,11,28,835,72,d,6.34019174590991,50.28123900267112,1532.1903549196968,-140.56792246969695,-5.1113022272725175
2025-02-19 11:24:15.561,774,-51,618,3,-8,-3,-20,11,29,848,82,d,4.717602504561685,51.2995550114038,1554.425551357612,-102.42338904294343,-5.130478990961478
2025-02-19 11:24:15.661,825,-66,642,-2,5,-4,-21,12,31,866,102,d,5.869600443014707,51.964526491052844,1612.6294284015466,-129.01035427212375,29.081099352977958
2025-02-19 11:24:15.771,717,-101,576,16,15,-8,-20,10,30,803,103,d,9.945547575071483,50.799181075008,1491.9354550697426,-210.16106131386888,-46.542290265232396
2025-02-19 11:24:15.881,860,138,587,-6,-14,20,-21,13,31,826,103,d,-13.22963855941392,54.96314266010328,1678.7829034674282,269.3860938122152,28.13306472630211
2025-02-19 11:24:15.995,756,-157,640,-11,-1,-18,-20,11,30,907,101,d,13.783190511132569,48.92260701961873,1509.822712166612,-313.547838373225,1.843206631439557
2025-02-19 11:24:16.098,854,301,468,2,-11,53,-19,10,30,774,103,d,-32.74759983406038,56.91299776304167,1691.8425803472296,596.3051717617285,8.854417327279236
2025-02-19 11:24:16.203,615,-88,659,-33,67,15,-19,13,29,874,50,d,7.606033047302979,42.769480840149264,1294.050379471515,-185.16493234714358,-68.6328456450866
2025-02-19 11:24:17.521,751,-55,636,-2,-1,-1,-21,15,30,853,70,e,4.9425273730802814,49.63441306300828,1512.9274447409184,-110.80027890912187,-9.254134294572737
2025-02-19 11:24:17.618,768,-50,650,-1,0,-1,-19,12,28,848,70,e,4.398705354995532,49.67358858380193,1530.3701004673753,-99.63347008251141,4.764888927351649
2025-02-19 11:24:17.721,757,-53,640,-2,-1,-1,-21,11,27,848,69,e,4.734004667887419,49.69083987274975,1519.564914834037,-106.38961755112807,-4.704815711735137
2025-02-19 11:24:17.835,753,-57,635,-1,-1,-1,-19,12,29,846,69,e,5.129338586956995,49.74594100751832,1516.186694646392,-114.77110437562331,-8.590373307382379
2025-02-19 11:24:17.941,695,-71,628,-6,2,-2,-21,11,29,827,68,e,6.450318043047799,47.71806966837426,1434.8433096540246,-146.5811150869579,-40.520285557881266
2025-02-19 11:24:18.051,1569,-31,572,2,-5,-24,-20,11,30,841,98,e,3.1021560207278487,69.94294196577708,2508.351553935126,-49.55952719693365,229.5467884952888
2025-02-19 11:24:18.157,724,-42,704,6,-10,5,-19,12,32,897,100,e,3.414167379726432,45.751536783514226,1440.3206592554056,-83.55451338221965,7.467204259937262
2025-02-19 11:24:18.264,932,-138,572,-32,18,-23,-20,9,29,805,0,e,13.563906439477861,57.73403186313914,1777.579072329419,-263.20376822045046,53.03945346306034
2025-02-19 11:24:18.371,803,22,583,27,-15,13,-19,13,32,831,101,e,-2.1610794882263713,53.999939444163346,1612.0163731450084,44.164832140959135,-4.368051735417112
2025-02-19 11:24:18.481,572,-94,696,-53,76,32,-19,14,27,802,39,e,7.69168166790918,39.16091106396712,1203.5004647499177,-197.77804840295852,-72.39916689850145
2025-02-19 11:24:19.892,755,-69,638,-2,-1,0,-19,12,28,812,64,f,6.172574214847028,49.63677000790684,1516.954086626888,-138.6355390427222,-5.876433467489392
2025-02-19 11:24:19.990,757,-58,645,-1,0,0,-20,11,27,810,64,f,5.13835868145779,49.4534925629863,1516.8785530405735,-116.22054963851159,-2.4526640834478712
2025-02-19 11:24:20.100,758,-66,638,-1,0,0,-19,14,30,817,64,f,5.9061411137704996,49.76275661121683,1521.3763070519399,-132.46812172220058,-4.525176647938906
2025-02-19 11:24:20.203,762,-64,643,-1,-2,0,-20,12,28,820,64,f,5.68412450086403,49.70200205023927,1524.690929596882,-128.05803083228403,-0.5830285181036743
2025-02-19 11:24:20.310,764,-59,627,-4,-3,4,-19,12,28,830,67,f,5.37563979709669,50.50103592296167,1535.6360837253224,-118.58969756517543,-6.266785989237178
2025-02-19 11:24:20.420,720,-117,640,9,-24,-4,-21,14,30,848,84,f,10.359983990457481,47.898391477945715,1461.957019122343,-237.56801560738077,-19.517350330971567
2025-02-19 11:24:20.530,781,113,628,-1,18,-44,-20,11,29,822,102,f,-10.200438799965921,50.75080718154861,1555.4015575426224,225.04529577761377,5.305789837686348
2025-02-19 11:24:20.637,770,-71,671,1,-12,-33,-19,8,28,902,98,f,6.040118393858738,48.772131662849674,1522.0944371458738,-140.34896758098319,15.603419058595591
2025-02-19 11:24:20.740,707,-18,692,9,10,42,-20,10,30,903,97,f,1.490016657840765,45.60461248421373,1421.5290023408343,-36.19168605676806,-7.369263960194303
2025-02-19 11:24:20.849,802,-22,333,-4,4,-5,-20,9,28,864,96,f,3.779813857999281,67.40696887557867,1725.2569520564284,-47.32625055516389,-50.347337948616996
2025-02-19 11:24:20.953,709,37,669,7,-13,20,-20,11,28,908,101,f,-3.1655998578388225,46.61901523647927,1435.8026605149932,74.92905280543687,-16.798279103709774
2025-02-19 11:24:21.070,651,-150,668,-31,57,15,-19,11,29,817,50,f,12.655889394482026,43.55747104456423,1340.0818225421672,-308.7746134889786,-39.07627873758486
2025-02-19 11:24:21.177,809,-12,634,11,-21,-7,-20,11,27,837,57,f,1.0843332292884909,51.9098024800223,1596.0405763667632,-23.67427307342541,17.20923928735749
2025-02-19 11:24:22.392,768,-43,622,-2,-1,-1,-21,12,29,844,76,g,3.954670191571739,50.92931137289521,1544.3689466090286,-86.46857383357843,-6.777974988041478
2025-02-19 11:24:22.487,764,-45,633,-2,-1,0,-18,12,30,840,75,g,4.066318774805974,50.2861298381676,1533.2448995959505,-90.30892733222223,-4.345577806592473
2025-02-19 11:24:22.594,766,-45,630,0,-2,0,-21,13,27,845,76,g,4.085616779974877,50.49272248248041,1537.5437846438945,-90.32567925453688,-4.559509563516485
2025-02-19 11:24:22.703,761,-37,625,-1,-2,-2,-19,12,29,848,77,g,3.387955983941897,50.55499135734534,1533.2347232027932,-74.54623489947878,-9.226940869574037
2025-02-19 11:24:22.810,743,-45,619,2,-11,-7,-19,11,30,864,84,g,4.15796820227373,50.127736011028716,1510.4755778765245,-91.48237012711118,-20.39082463737384
2025-02-19 11:24:22.918,746,-45,658,-5,8,-22,-19,11,30,875,103,g,3.912312584895816,48.5201724836332,1495.1889671516274,-90.19236397027242,-2.8127887208723905
2025-02-19 11:24:23.024,929,-56,576,20,1,62,-20,9,29,750,0,g,5.552971033036803,58.079367790392425,1777.78134195048,-107.16442965471137,49.73729498011153
2025-02-19 11:24:23.134,711,-39,607,21,0,-43,-18,12,31,890,104,g,3.676224362165559,49.45342635851996,1470.877801899042,-80.68106086366055,-41.72830626261407
2025-02-19 11:24:23.241,745,-74,751,-26,5,64,-21,12,29,866,102,g,5.627490140046499,44.631809724676124,1447.548250536939,-143.78331616071608,42.79364274732745
2025-02-19 11:24:23.348,711,-76,603,28,41,-8,-21,12,29,721,103,g,7.183481409745688,49.475818730445965,1471.1318030324178,-157.25178204003342,-41.66874434394924
2025-02-19 11:24:23.458,409,-216,821,-20,29,15,-18,14,26,707,33,g,14.740127631755561,25.723743433359427,843.0324546389695,-445.22007384356334,-50.248521414654874
2025-02-19 11:24:24.971,727,-71,662,-6,2,-15,-19,11,29,806,49,h,6.121615442043662,47.51612264176089,1464.467414096844,-143.02226465044834,-9.531538008405619
2025-02-19 11:24:25.072,740,-62,667,-4,-4,-15,-20,12,27,838,54,h,5.310584538939753,47.84744141956538,1481.360532951284,-124.1139905986211,-1.2263182141978177
2025-02-19 11:24:25.178,752,-37,650,-2,-3,-10,-21,11,29,859,61,h,3.2579362717209537,49.11526521734838,1508.0278838232114,-74.19818045406757,-3.4815485174033256
2025-02-19 11:24:25.285,744,-27,663,-1,-5,-5,-19,11,28,865,67,h,2.3320236816230584,48.27126090450308,1490.3044142564768,-54.08362793672698,-2.0535304462958948
2025-02-19 11:24:25.392,761,-8,643,4,-14,-10,-21,11,28,871,82,h,0.7128189538216674,49.80198079281614,1524.8183425259915,-16.029627779511074,-2.381332778202818
2025-02-19 11:24:25.498,762,-70,641,-9,-1,-10,-19,8,30,866,97,h,6.232253258317623,49.761819149024774,1525.365737977844,-140.12546149402766,-1.1488688238819122
2025-02-19 11:24:25.608,868,151,596,6,-17,64,-20,12,30,762,101,h,-14.217057950948767,54.6888947902851,1684.025572956704,292.9583658023759,35.687509813138604
2025-02-19 11:24:25.715,807,-99,621,9,-9,-38,-20,13,30,873,100,h,9.057888128617657,52.0730683699969,1595.7952556084924,-195.76670421962916,14.008855349598889
2025-02-19 11:24:25.821,832,54,547,-3,-3,32,-19,11,29,834,104,h,-5.637988097327036,56.54934162749818,1666.3608264981517,108.15322671983196,-1.5521299212607573
2025-02-19 11:24:25.921,744,-61,620,-41,75,23,-21,13,28,854,55,h,5.619081029541799,50.058643285453634,1510.7019467095902,-123.86131552323252,-18.918288924658555
2025-02-19 11:24:27.247,776,-52,623,0,-1,-1,-21,12,30,839,75,i,4.771252713464763,51.144151030316294,1554.7268137247127,-104.18272463103744,-2.1891816372369703
2025-02-19 11:24:27.341,766,-53,631,-1,-1,0,-19,11,30,841,75,i,4.8012126883005015,50.420806195161376,1536.7446639546174,-106.32828614829599,-3.9084633882030175
2025-02-19 11:24:27.447,775,-52,627,-1,-1,0,-20,12,29,839,77,i,4.740953289253774,50.92996910578221,1551.3761819082329,-104.09233736674597,-1.1133755567251455
2025-02-19 11:24:27.558,742,-55,647,-1,-4,-1,-20,13,29,835,78,i,4.858902522974225,48.81042304550204,1494.5347229012095,-110.78087568674732,-9.185937624100234
2025-02-19 11:24:27.664,709,-79,629,7,-25,-17,-19,9,29,861,98,i,7.158647207598524,48.198990654893855,1454.4642576676515,-162.06301319569033,-32.34981392517989
2025-02-19 11:24:27.771,783,-59,617,-3,-1,-8,-21,10,30,855,104,i,5.462242461873639,51.63523668276102,1567.0753125794604,-118.08102610752,-0.8473408193193563
2025-02-19 11:24:27.882,826,62,562,-5,-12,36,-20,11,30,653,107,i,-6.29542942727223,55.60776531396436,1651.1900608453054,123.93920553560405,0.5510724030731353
2025-02-19 11:24:27.988,804,-125,620,-48,62,-38,-19,10,29,879,76,i,11.39876306875793,51.809257257480276,1589.9567989288057,-247.19477595286156,13.913911273806548
2025-02-19 11:24:28.095,796,-6,577,10,14,12,-20,10,30,863,103,i,0.5957751940446785,54.06113451063161,1605.6436997096343,-12.102841957610309,-9.889968256858083
2025-02-19 11:24:28.201,556,-98,688,-30,57,28,-21,12,29,871,45,i,8.106782949862364,38.6620361675077,1180.7254107164804,-208.11347167304876,-85.04151541895442
2025-02-19 11:24:28.302,847,-8,614,22,-38,-8,-19,11,28,875,63,i,0.7464825746891965,54.058902850273256,1656.6208386003902,-15.646950069425174,27.09658217161791
2025-02-19 11:24:29.624,772,-40,627,0,-1,-1,-19,10,28,858,76,j,3.6502863924766933,50.86036512616492,1547.6099457248438,-80.18704381994009,-2.9319118775608786
2025-02-19 11:24:29.721,767,-45,631,1,-1,0,-18,12,29,862,76,j,4.0791638258954945,50.48503422445982,1538.4584121266107,-90.26157567887545,-3.6678722971203115
2025-02-19 11:24:29.831,767,-44,625,-1,-1,-1,-19,10,29,867,75,j,4.026978863715694,50.75530434348881,1541.4512155210302,-88.42744913028075,-6.0717206005788285
2025-02-19 11:24:29.938,773,-40,623,-1,-2,-1,-19,11,28,870,77,j,3.6736592465910407,51.07529894318424,1550.9723520630282,-80.25730152978153,-4.007471326347172
2025-02-19 11:24:30.044,760,-42,620,-2,-4,-5,-19,12,31,873,79,j,3.875406195486407,50.72853616679065,1534.1555691221033,-84.78228145148466,-11.547964283821102
2025-02-19 11:24:30.150,780,-66,589,-3,6,2,-19,11,29,869,102,j,6.393569576110347,52.7704624560365,1576.2181247849517,-133.37230286641898,-12.24676345940577
2025-02-19 11:24:30.261,822,164,615,-1,-19,65,-19,12,30,611,106,j,-14.931417178137556,52.24865956739263,1612.675250727216,321.7502933324372,23.436400003360404
2025-02-19 11:24:30.367,1366,-96,415,-24,89,-68,-20,13,31,812,82,j,13.024862669546762,72.68098782993843,2320.662070533961,-163.09191710926814,124.9672333297263
2025-02-19 11:24:30.478,808,194,1142,-6,-16,-20,-20,8,30,896,102,j,-9.641218468752779,34.897212973996396,1380.105978301301,331.3620789485798,333.40466928207195
2025-02-19 11:24:30.581,764,0,568,-20,68,54,-20,11,29,870,57,j,0.0,53.370839506877786,1566.5139245958735,0.0,-28.63338896656535
2025-02-19 11:24:30.691,746,-61,658,24,-45,-9,-18,12,29,862,55,j,5.296476358902553,48.46484645355742,1494.5490325438798,-122.20843295600088,-2.2483423778454608
2025-02-19 11:24:30.794,782,-45,624,-3,4,3,-19,10,28,870,76,j,4.124766606142382,51.339276262133986,1562.858827837108,-89.93433152515328,0.9106028512080684
2025-02-19 11:24:32.011,778,-11,604,-1,0,-1,-20,10,29,863,80,k,1.043350842586237,52.17143467866517,1567.8493439153972,-22.167535710886074,-9.199233579562588
2025-02-19 11:24:32.108,790,-16,619,-2,1,-2,-20,12,31,869,82,k,1.4806597570432096,51.910438146902315,1577.0474205167175,-31.940200921857564,2.3134768356355835
2025-02-19 11:24:32.215,775,-15,616,1,-2,-4,-21,11,29,868,85,k,1.394913773151975,51.51269126319651,1557.7460273391687,-30.149923109790358,-6.156842375390738
2025-02-19 11:24:32.321,756,10,600,5,-4,-10,-21,8,29,867,93,k,-0.9548412538721887,51.558824058824385,1539.2468635672403,20.36040824824392,-21.624494894635177
2025-02-19 11:24:32.431,745,-50,622,1,2,-10,-20,9,30,859,101,k,4.595887691864774,50.050711307049696,1511.6130609906,-101.45054100608053,-18.04473011564164
2025-02-19 11:24:32.538,845,43,555,13,-1,22,-21,10,28,636,0,k,-4.430281973189134,56.62418267378413,1680.0801288046487,85.49520182082827,6.515418359077103
2025-02-19 11:24:32.649,476,-125,643,-7,-1,-11,-20,12,28,814,85,k,11.001155813266385,36.00500723506777,1063.855952258294,-279.37393704261933,-151.09953214723373
2025-02-19 11:24:32.756,896,267,636,19,-40,-17,-18,11,30,868,104,k,-22.773215614350207,52.40968270457427,1688.3927435689961,503.1259626483504,73.54265077022148
2025-02-19 11:24:32.862,953,41,587,-23,38,22,-20,11,30,845,98,k,-3.9954309804195556,58.3067323353483,1803.8728472147243,77.60628198930084,62.905182250741746
2025-02-19 11:24:32.969,853,-40,519,45,0,-6,-18,11,32,831,102,k,4.407147343959503,58.60657165295704,1706.6105498928482,-80.02863071009838,-0.3714834635263742
2025-02-19 11:24:33.075,1050,97,517,-5,45,12,-19,11,33,864,96,k,-10.626346363303636,63.390399334112175,1944.0791963278634,179.5958876607645,76.77243380809023
2025-02-19 11:24:33.183,766,-42,610,12,-24,-16,-21,12,29,786,76,k,3.9387390838511944,51.40208212667931,1547.5431436661097,-84.85223503130105,-12.377699264134208
2025-02-19 11:24:34.700,770,-54,617,-1,0,-1,-21,11,29,735,72,l,5.001796549376065,51.188131952602504,1549.2081556912772,-108.64576676276491,-7.378483196776756
2025-02-19 11:24:34.799,772,-52,614,-1,-1,-1,-19,11,31,735,72,l,4.840859675664153,51.40369383116776,1553.5606920102405,-104.64398443592293,-7.603970070320884
2025-02-19 11:24:34.901,781,-50,612,-1,0,-1,-20,11,29,731,72,l,4.670654302234627,51.824805060876,1567.124547057465,-100.3280759959965,-4.0156501909970075
2025-02-19 11:24:35.011,781,-58,611,-3,0,-2,-20,12,30,732,72,l,5.422630392729428,51.83806388972184,1567.2675532851852,-116.39118833615971,-4.1209667826478835
2025-02-19 11:24:35.116,778,-46,623,-6,0,-3,-20,11,30,746,71,l,4.2228440916870404,51.23724043609653,1557.745072850657,-92.10317911456326,-1.3974040950635072
2025-02-19 11:24:35.221,764,-64,624,-6,1,-5,-20,12,30,791,70,l,5.856013585428958,50.61268458711792,1536.8740761572947,-128.74337810741736,-7.247936547319114
2025-02-19 11:24:35.333,783,-58,615,-5,-3,-9,-20,11,30,821,74,l,5.387569452553753,51.72918022229435,1568.0919165981627,-116.15495678504911,-1.6430762552619171
2025-02-19 11:24:35.442,778,-52,605,-1,-2,-12,-19,9,31,829,81,l,4.912522620789718,52.02788885677108,1566.3103349295122,-104.68912264310364,-8.017676905340409
2025-02-19 11:24:35.550,773,-19,618,-3,1,-7,-20,11,30,853,86,l,1.7609660390927333,51.34507313860431,1553.9220283623104,-38.19471997268292,-6.333523322002179
2025-02-19 11:24:35.650,674,-65,628,1,-19,-19,-20,9,30,876,0,l,5.9092538306421645,46.87115089998051,1403.8181476833279,-135.38305578548415,-52.00860051206223
2025-02-19 11:24:35.766,789,-129,692,19,-11,24,-19,7,32,847,107,l,10.559654481773173,48.261653570447436,1535.1927954145265,-251.00110343279334,37.54446840703099
2025-02-19 11:24:35.866,810,4,572,15,5,15,-21,12,31,784,107,l,-0.40066325579215395,54.77063986373697,1626.8494092477426,8.03382424319873,-4.836866777418209
2025-02-19 11:24:35.970,623,-143,635,-39,55,13,-20,10,27,837,58,l,12.691118265088202,43.74524374630587,1314.4530883151629,-301.7123461140743,-69.77160687019023
2025-02-19 11:24:36.084,796,-74,629,12,-20,-14,-19,12,29,829,56,l,6.709836807756933,51.49246244307078,1578.5262550516488,-146.74741567063066,10.646966799639245
2025-02-19 11:24:37.403,782,-51,615,-2,0,0,-20,13,30,851,84,m,4.740510573891178,51.72145718840695,1567.008421866524,-102.19620142607766,-2.3659583732892315
2025-02-19 11:24:37.501,777,-50,622,-2,-1,-1,-20,11,30,850,85,m,4.595887691864774,51.23215504935362,1556.689499437356,-100.17306946186332,-2.152984105579776
2025-02-19 11:24:37.600,786,-51,620,0,-3,-1,-19,11,29,856,87,m,4.702452789131307,51.63950379252725,1570.121534553909,-101.87811483746738,1.4817411915728371
2025-02-19 11:24:37.716,811,-29,607,0,-3,-3,-20,12,32,861,98,m,2.7352802767874578,53.155324487961984,1611.2640480453629,-57.61610036167142,8.035416567774064
2025-02-19 11:24:37.821,730,-37,601,6,0,-11,-20,12,30,871,98,m,3.5229145193877636,50.482606302184294,1501.4314489283993,-76.09995015116546,-34.11000110406587
2025-02-19 11:24:37.925,727,-74,622,5,7,2,-19,10,29,848,1,m,6.784649385384344,49.251665180465565,1484.5839551436138,-151.11308484267872,-26.166740164137423
2025-02-19 11:24:38.031,781,-39,635,-11,0,0,-20,12,29,869,99,m,3.514538774422308,50.83400831466242,1556.319497629011,-77.71633854997621,4.618590276028385
2025-02-19 11:24:38.141,889,86,636,-18,-16,27,-20,11,30,800,103,m,-7.700833942146779,54.1736759705856,1699.7949798658935,164.4346099757782,55.94869831866356
2025-02-19 11:24:38.251,838,19,481,20,3,-61,-18,10,29,835,101,m,-2.2620668137577975,60.125505419776175,1705.1185666234933,38.66020616449449,-16.713640269570817
2025-02-19 11:24:38.361,766,52,604,-14,-10,50,-22,11,30,811,106,m,-4.920616036363993,51.64090196151668,1550.1366787846018,105.23121057023404,-14.300984315795517
2025-02-19 11:24:38.470,852,-22,536,15,-4,-47,-20,9,29,855,105,m,2.350373164548711,57.80393579847888,1698.2297688104213,-43.8510034199874,3.6300984948524047
2025-02-19 11:24:38.571,819,81,554,-6,-8,56,-19,10,31,748,110,m,-8.318241393462129,55.64245062157146,1644.5318575854099,162.64600789306252,-4.418374972304036
2025-02-19 11:24:38.682,911,51,591,-24,53,7,-20,13,32,861,84,m,-4.932087428264856,56.929890872910214,1749.0035008063396,97.91347809124406,47.35557741323089
2025-02-19 11:24:38.789,773,-33,601,5,-15,-8,-20,11,29,845,70,m,3.1428685125510305,52.09348270450328,1562.0142058544243,-66.68365949960673,-12.450889674655741
2025-02-19 11:24:40.009,774,-42,611,-3,0,-1,-21,11,29,812,81,n,3.9323129428388435,51.6465406034659,1558.197748847926,-84.55336621655414,-8.050160912251727
2025-02-19 11:24:40.100,780,-40,614,-3,-1,0,-20,12,31,814,81,n,3.727356963945518,51.73192294580166,1565.1215651091757,-80.2626443645731,-4.03159099619711
2025-02-19 11:24:40.211,772,-47,611,-1,-1,0,-19,12,30,814,82,n,4.398705354995532,51.55784415061328,1555.2362305657987,-94.68407103185562,-8.89292341412306
2025-02-19 11:24:40.317,777,-39,616,2,-3,-3,-19,10,29,817,84,n,3.6226573801750788,51.53706980859146,1560.0107539032242,-78.3016980723626,-4.765282373727246
2025-02-19 11:24:40.423,819,-10,615,5,-3,-8,-18,12,30,816,92,n,0.9315565980774848,53.09290067847125,1618.610256358705,-19.763250993390784,14.560063906466894
2025-02-19 11:24:40.532,796,-40,620,-9,1,-5,-20,11,30,843,102,n,3.6913859864512752,52.02747076335561,1584.3058451605143,-79.61335905329217,5.9929346739713765
2025-02-19 11:24:40.640,753,-33,622,-2,-5,30,-20,10,31,802,0,n,3.0369608971938264,50.40275520171506,1523.5438939099784,-66.76885590840541,-14.491768940247539
2025-02-19 11:24:40.751,914,104,482,30,-5,-64,-21,12,31,841,103,n,-12.175912517799759,61.65365883909875,1794.0936202507276,204.14194366091428,17.88060726383958
2025-02-19 11:24:40.857,731,38,609,-9,-17,29,-19,10,29,843,107,n,-3.5704771086598446,50.147383866058,1498.6953711245765,77.90755691208467,-30.571109459462377
2025-02-19 11:24:40.964,835,-53,548,26,13,19,-19,12,30,793,107,n,5.524198705371218,56.60115091707817,1669.8589207625796,-105.99104526996014,0.0925885294687987
2025-02-19 11:24:41.071,468,-176,716,-4,0,-1,-17,12,29,809,48,n,13.810077091898918,32.40477941853812,1003.8972240709218,-377.5339987959022,-103.87694964696584
2025-02-19 11:24:42.580,792,-36,597,-2,0,-1,-19,12,32,843,90,o,3.450843193751159,52.941461880843654,1590.0202292035865,-72.27364678198121,-4.537975801188395
2025-02-19 11:24:42.682,787,-40,599,-2,0,-1,-20,11,29,844,90,o,3.820423397091307,52.66312978698194,1582.0833586357094,-80.41084414921013,-6.152391134421691
2025-02-19 11:24:42.791,792,-25,594,-2,-2,-2,-21,11,32,848,91,o,2.410016200184429,53.105762924871506,1591.7450459171282,-50.24447745950532,-5.808784437846384
2025-02-19 11:24:42.897,807,-29,593,0,-2,0,-20,10,32,849,94,o,2.79975531133189,53.65813861374949,1612.495531094838,-57.94593606164847,1.1055143256022575
2025-02-19 11:24:43.003,804,-25,593,-1,-1,-1,-20,11,30,849,95,o,2.414075504356909,53.56461312327258,1608.527137969631,-50.016391106020876,-0.38879703481495653
2025-02-19 11:24:43.110,799,-30,595,1,-2,0,-20,11,32,863,96,o,2.88641854386461,53.29080101383742,1600.679683641416,-60.10061390393301,-1.9955090946712062
2025-02-19 11:24:43.220,795,-9,561,-7,0,-1,-22,12,33,864,106,o,0.9191047837142363,54.787423575933865,1612.0183517529629,-18.249264359467507,-15.537478406807963
2025-02-19 11:24:43.331,774,-153,538,-6,6,-23,-21,10,30,811,109,o,15.87504257243866,54.1461676197096,1584.5138627660926,-313.2178565932973,-25.380436909764626
2025-02-19 11:24:43.438,781,134,629,-10,-16,28,-20,11,32,803,109,o,-12.026310804767066,50.53022413569228,1552.9600140685338,266.4489652819252,7.280603266187086
2025-02-19 11:24:43.544,791,-147,521,14,15,-29,-19,11,32,881,111,o,15.756397567478768,55.613222087223456,1616.2438531522873,-300.3639019132569,-22.55505371977449
2025-02-19 11:24:43.650,584,-83,712,-5,11,15,-20,13,28,796,57,o,6.6491322555998975,39.169971298216396,1215.6230676937612,-172.76834694962702,-58.06100033896905
2025-02-19 11:24:45.160,794,-26,605,-2,0,-1,-20,11,30,826,78,p,2.4607837933221925,52.668391941682884,1589.1390574254306,-52.03729910964886,-0.8679215899062456
2025-02-19 11:24:45.263,792,-35,606,-1,0,-1,-19,10,30,826,78,p,3.3054900397724265,52.53248357938717,1585.6983472699894,-70.07505322531519,-1.2994929868857525
2025-02-19 11:24:45.371,779,-39,599,-1,0,-1,-21,12,32,828,76,p,3.72518517675194,52.38349756072865,1571.1138753254684,-78.65653547842524,-10.083711578890188
2025-02-19 11:24:45.477,789,-41,608,-2,0,0,-19,12,30,824,77,p,3.8578550306155357,52.319447417677324,1580.4310527928928,-82.1263284721275,-1.8733588061834325
2025-02-19 11:24:45.584,788,-33,605,-1,-1,-1,-19,9,30,829,77,p,3.1221304621157078,52.44303613914701,1580.74771346762,-66.19882556399929,-3.6451353399872914
2025-02-19 11:24:45.695,792,-49,601,-2,-1,-1,-22,12,30,834,78,p,4.661060181594082,52.715939381419794,1587.6420328240056,-98.22532778835388,-2.763714302054723
2025-02-19 11:24:45.797,788,-30,602,3,-3,1,-20,10,29,846,80,p,2.852911310786362,52.58735780747636,1582.2805850043192,-60.239108566154286,-4.798111894162616
2025-02-19 11:24:45.908,800,-50,611,-2,-1,1,-19,11,30,846,81,p,4.6782646779699695,52.536945260763694,1593.7457147100345,-99.60910716937715,4.7767103902111785
2025-02-19 11:24:46.013,788,-49,598,-4,-2,-2,-20,13,31,835,80,p,4.68433962439231,52.713389633256824,1583.6150744921238,-98.47352620572852,-5.77895246991136
2025-02-19 11:24:46.120,779,-54,600,-4,-3,-8,-21,11,32,849,87,p,5.142764557884242,52.284095803141874,1570.0537544446247,-108.83556192555807,-9.284021395089553
2025-02-19 11:24:46.231,814,-79,580,-10,-6,-8,-21,9,30,860,108,p,7.756349248546003,54.27971474686636,1625.8768764686274,-157.79394747054243,1.5127907225997888
2025-02-19 11:24:46.338,748,-261,726,22,-6,70,-19,11,32,702,111,p,19.7737208843808,44.114323071061406,1444.0922954681332,-503.88781967537795,50.38100733975341
2025-02-19 11:24:46.444,815,-31,589,27,12,26,-19,12,31,770,0,p,3.0127875041833403,54.10675326534503,1625.1107486026258,-61.814028474455704,3.5334589853416674
2025-02-19 11:24:46.550,805,-173,611,4,-8,-24,-19,9,31,870,106,p,15.809066161524678,51.73205767861166,1590.1230215082765,-341.7283015166855,15.08675013471202
2025-02-19 11:24:46.657,736,4,631,-2,-4,42,-19,12,32,844,111,p,-0.363201344275157,49.391726155605156,1495.177323829948,8.125963716467107,-19.870776272686044
2025-02-19 11:24:46.767,1074,90,456,-28,88,44,-19,12,29,813,0,p,-11.164880177548591,66.59840811086218,1991.7435910892173,166.90588752144276,66.34350322468998
2025-02-19 11:24:46.878,605,-125,681,17,-41,-21,-18,15,29,785,42,p,10.401067168087405,41.147004354543306,1262.9932334105297,-260.94901516746484,-59.650234632348315
2025-02-19 11:24:48.194,761,-61,607,0,-2,-1,-19,11,30,846,74,q,5.738628910590635,51.2825139461804,1541.2395536826664,-123.54219812699426,-15.346135460418395
2025-02-19 11:24:48.288,782,-48,617,-1,-1,-1,-20,12,30,850,74,q,4.448410443107835,51.64238202418551,1566.152709535761,-96.13213562367844,-1.6984933293664426
2025-02-19 11:24:48.394,774,-52,618,0,-1,-1,-20,10,30,852,74,q,4.809674712031758,51.295810994915854,1554.3846925545204,-104.42894575301688,-5.0978552954695715
2025-02-19 11:24:48.500,773,-59,629,0,-6,-1,-19,13,31,856,78,q,5.358646800031588,50.74139831825407,1547.2976487804865,-118.09904434417686,-1.055913431987051
2025-02-19 11:24:48.611,1149,18,611,-2,-4,-9,-21,10,30,875,106,q,-1.6874399825494708,61.987136002532374,2031.842165267822,31.83042556555334,141.53388774705047
2025-02-19 11:24:48.721,773,-113,651,-5,-2,-25,-19,11,28,864,109,q,9.847234567879719,49.477289833814346,1533.1484859869202,-224.1213181326287,10.823202616448839
