Timestamp,Acc_X,Acc_Y,Acc_Z,Gyro_X,Gyro_Y,Gyro_Z,Mag_X,Mag_Y,Mag_Z,Force,IR_A,Letter,Roll,Pitch,Lin_Acc_X,Lin_Acc_Y,Lin_Acc_Z
2025-02-19 16:48:27.627,625,-102,767,9,16,0,1,-2,2,0,22,noise,7.575070125006433,38.92960595603431,1253.3651086958644,-204.54918573916504,-4.129661391564468
2025-02-19 16:48:27.721,602,-163,770,0,2,0,1,-2,1,0,17,noise,11.952394975234782,37.411230769763264,1209.5315443700133,-327.49774374138235,-7.075231170947291
2025-02-19 16:48:27.829,612,-186,754,-10,-12,-9,0,-1,0,7,18,noise,13.857306574617947,38.239791562066195,1230.9540188962628,-374.1134763312171,-8.567533084611227
2025-02-19 16:48:27.937,672,-141,737,-18,-19,-15,-1,0,1,513,20,noise,10.830731691551266,41.846425418111416,1339.1362929894294,-280.97949004688917,5.33415486129536
2025-02-19 16:48:28.052,674,-177,682,16,-24,-27,-1,-1,3,607,28,noise,14.549031933508346,43.728682173512176,1365.2442406653881,-358.52853204417465,-17.448920079814002
2025-02-19 16:48:28.155,652,-123,720,13,8,0,0,-3,3,575,29,noise,9.69444428519418,41.75286745996258,1317.9190028150088,-248.62582415068414,-15.370677955224096
2025-02-19 16:48:28.262,622,-131,726,3,-7,2,-2,-4,4,495,28,noise,10.228433617046882,40.13536029114574,1266.5955809886123,-266.758876381846,-26.37362025358925
2025-02-19 16:48:28.366,696,-81,719,13,-27,-9,-2,-2,4,401,0,noise,6.427639448938064,43.888239524113516,1389.2539140506651,-161.6804124110688,2.836833042488138
2025-02-19 16:48:28.466,733,-72,717,3,5,-7,-2,-4,4,399,0,noise,5.734327924672677,45.48851406341158,1446.109925357699,-142.04626824795952,19.455912030736386
2025-02-19 16:48:28.581,709,-85,715,-12,3,-1,-4,-5,4,419,0,noise,6.779567945149955,44.5575821998098,1410.6257261838978,-169.1159192180978,7.4366795183539125
2025-02-19 16:48:28.688,696,-95,713,0,8,4,-1,-4,4,425,29,noise,7.589379631397885,44.056786399601215,1391.3709737744207,-189.91414153530167,0.6443903718937918
2025-02-19 16:48:28.799,672,-103,731,-3,-2,-1,-1,-4,4,459,29,noise,8.020340458710498,42.3114925364361,1345.1608570982255,-206.1779289897578,-1.2627775875045018
2025-02-19 16:48:28.905,686,-110,721,-3,-1,-2,-2,-3,4,483,31,noise,8.674490314724926,43.24594670884228,1371.1314612631343,-219.86072994015274,0.9128519377260318
2025-02-19 16:48:30.027,733,-104,648,-6,-6,-15,-4,-7,7,837,49,A,9.117862753795789,48.16027832573838,1478.013730939293,-209.704540269695,-10.620597065022707
2025-02-19 16:48:30.122,738,-85,648,-9,-8,-16,-3,-7,8,864,60,A,7.472984161160155,48.47284446279686,1486.6415855672903,-171.22565687428138,-9.343831229815805
2025-02-19 16:48:30.233,709,-104,653,-29,-14,-12,-4,-9,10,867,65,A,9.049207137870216,46.99668404741311,1440.3142302231843,-211.27317340368285,-20.55175223658557
2025-02-19 16:48:30.335,828,-92,618,1,-8,-10,-5,-9,10,870,86,A,8.467285031840941,52.96172640795369,1626.2333193374375,-180.69259103749306,22.21716020466613
2025-02-19 16:48:30.439,788,-70,607,-2,0,-7,-4,-11,9,878,94,A,6.578361877574309,52.20964988771917,1578.2582283921247,-140.20060404498565,-1.7395236472327724
2025-02-19 16:48:30.547,795,-76,594,9,-2,-16,-6,-11,11,885,102,A,7.291159402943134,53.01072364042398,1593.7481334633585,-152.3583121298305,-2.8004921726223984
2025-02-19 16:48:30.658,668,-355,760,54,5,27,-4,-11,11,848,101,A,25.037525734865063,38.53218173022019,1290.9541115388192,-686.0609425094025,51.249813219307384
2025-02-19 16:48:30.765,868,34,583,-11,-5,4,-4,-9,10,851,98,A,-3.3376543413154334,56.067325698366965,1697.6940825326315,66.499537795057,25.728513690640398
2025-02-19 16:48:30.875,759,-68,584,13,-11,-37,-4,-10,9,869,99,A,6.641519138011537,52.23749622258674,1549.5559494631411,-138.8271469874751,-24.28020353949205
2025-02-19 16:48:30.978,776,13,600,24,-9,67,-3,-9,9,828,98,A,-1.2412143533643065,52.282445842162375,1567.036137494561,26.251894055965586,-11.625879506104184
2025-02-19 16:48:31.087,1493,-606,653,-16,4,-25,-5,-9,9,697,101,A,42.86207170619847,59.17562935173509,2351.7420227996454,-954.5583829983825,277.4082110594988
2025-02-19 16:48:31.195,702,1,683,37,-32,5,-4,-10,10,873,99,A,-0.08388834344361831,45.785927087383726,1418.7393492684143,2.02099622402908,-14.340421011861622
2025-02-19 16:48:31.301,859,-64,552,-49,84,27,-4,-10,9,800,64,A,6.613460482314756,57.10067063612965,1698.6262222298415,-126.55655206369015,12.449738450672385
2025-02-19 16:48:32.217,759,-76,646,-1,-4,-5,-3,-9,9,791,76,B,6.709836807756933,49.40376254842389,1518.3140412975445,-152.0314455054194,-0.26728679606515016
2025-02-19 16:48:32.310,754,-72,635,3,0,-11,-3,-8,9,801,83,B,6.468901592246632,49.716342385490954,1516.8527815058733,-144.84535844618418,-7.455591851763188
2025-02-19 16:48:32.424,761,-65,640,-5,0,-15,-3,-10,9,760,95,B,5.799217629098415,49.7913283792047,1524.6983309411992,-130.23047504753998,-2.269292775778581
2025-02-19 16:48:32.530,739,182,670,17,-23,58,-3,-10,8,764,95,B,-15.197214953682309,46.787136370519,1467.814919539574,361.49163106387346,9.234105424201971
2025-02-19 16:48:32.637,792,-138,658,9,32,-60,-5,-8,9,806,90,B,11.844766689616144,49.672636071575816,1554.3593419783938,-270.8353398901746,24.625698204819628
2025-02-19 16:48:32.744,692,20,702,-7,-18,5,-4,-12,9,855,93,B,-1.6319169538260114,44.57736944237798,1393.8717637919954,40.285311092254204,-10.01441933812248
2025-02-19 16:48:32.849,965,47,354,15,13,10,-4,-9,9,746,96,B,-7.562835944298045,69.69257949762758,1902.8439943472347,92.67737589048707,9.961892229097373
2025-02-19 16:48:32.960,631,-64,792,-8,-19,24,-4,-9,10,790,94,B,4.619923481660399,38.45409345115457,1252.8873952512895,-127.07574214910068,11.437690904879332
2025-02-19 16:48:33.067,836,-70,560,49,28,2,-4,-8,9,573,94,B,7.125016348901798,55.977917271609066,1664.8219889153343,-139.39897036372417,4.808237090206603
2025-02-19 16:48:33.177,464,-186,736,-20,-2,-16,-2,-8,6,755,41,B,14.182686035974015,31.43405670012617,985.5168916874464,-395.05634020229536,-91.23369026284615
2025-02-19 16:48:33.989,768,-70,631,-4,0,-1,-4,-10,8,816,79,C,6.330225529361774,50.42100066218504,1538.7468264746572,-140.2503617880547,-2.2568326894644315
2025-02-19 16:48:34.086,750,-68,631,-2,-5,-3,-4,-9,8,832,80,C,6.150768421649026,49.76194713804351,1513.3671809551997,-137.2119577399381,-11.246254910307925
2025-02-19 16:48:34.193,743,-35,638,7,-3,-18,-3,-9,8,842,93,C,3.1400379363058493,49.30538612702136,1501.1956337823335,-70.71581047426874,-13.048202359527181
2025-02-19 16:48:34.298,844,-78,625,52,19,6,-3,-10,9,706,94,C,7.113733210112427,53.267275881310816,1645.4341837032707,-152.06619233276672,31.52089476949743
2025-02-19 16:48:34.406,725,2,708,13,-25,9,-3,-8,7,840,85,C,-0.16185205398401867,45.67956651294779,1440.4436112165536,3.973637548183596,9.332307943006867
2025-02-19 16:48:34.516,848,86,570,-56,71,22,-4,-8,9,847,55,C,-8.579912775380109,55.793021142839855,1675.0121041156617,169.87151055889962,14.107430016595345
2025-02-19 16:48:34.617,655,-106,681,1,-15,-7,-3,-7,7,801,37,C,8.84729094653047,43.542547551767385,1343.8930451332456,-217.4849813498077,-35.23841791716063
2025-02-19 16:48:35.447,757,-18,632,-11,15,4,-2,-10,8,823,60,D,1.6314008035322296,50.13092715731347,1524.5112821827852,-36.24993801755632,-8.775601505310533
2025-02-19 16:48:35.536,760,-37,653,3,-12,-8,-5,-9,7,825,63,D,3.243000744227113,49.285085640823475,1517.964566252468,-73.9009065149228,1.748866101497697
2025-02-19 16:48:35.647,728,-41,654,0,-6,-9,-4,-11,8,825,72,D,3.587242662255004,48.00913920179581,1471.2515484854775,-82.85894709877002,-13.701253721843727
2025-02-19 16:48:35.757,766,-49,644,-10,-4,-13,-4,-11,7,803,91,D,4.351077951573885,49.86371425126015,1530.5133203275022,-97.9048990810021,1.2498977925439476
2025-02-19 16:48:35.859,791,232,604,2,-13,55,-3,-10,8,666,90,D,-21.012080144041185,50.71744328557312,1565.0330020862352,459.023585946911,12.955836586490364
2025-02-19 16:48:35.967,718,-115,649,30,15,-78,-4,-9,8,810,88,D,10.048265102950497,47.44867408377785,1454.6718431533632,-232.9906155468479,-16.877473825254583
2025-02-19 16:48:36.077,617,24,770,12,-16,14,-3,-10,8,872,83,D,-1.7852645022302165,38.691577777432485,1242.1279298121199,48.31615934439365,-10.143445632629437
2025-02-19 16:48:36.178,864,85,535,-10,26,30,-4,-10,9,730,87,D,-9.027612950715096,57.91313264003186,1711.2436998323835,168.35152139554702,10.375718275086456
2025-02-19 16:48:36.290,540,-155,774,-36,26,3,-3,-8,5,773,41,D,11.324167450003864,34.37572033856458,1104.6173025855949,-317.0660775940133,-35.284800372685936
2025-02-19 16:48:37.110,740,-57,654,-3,0,-2,-3,-10,7,782,62,E,4.9810819353084,48.42267396100878,1488.0607709584162,-114.62089722247262,-7.123978657843736
2025-02-19 16:48:37.197,748,-47,654,-1,-1,-3,-3,-9,7,788,65,E,4.11051986631851,48.76263393769038,1499.9851774643096,-94.25040553585903,-3.48436639259171
2025-02-19 16:48:37.310,743,-49,655,0,-3,-5,-4,-9,6,793,67,E,4.278280026578678,48.522527078464954,1492.2161863382437,-98.40995037762308,-5.479948925369513
2025-02-19 16:48:37.416,680,-24,653,0,-9,-22,-4,-9,8,775,77,E,2.10486989482592,46.14105064027918,1401.0477274971042,-49.44874332342721,-39.41789125824869
2025-02-19 16:48:37.527,753,-46,659,4,-1,-9,-5,-10,8,690,93,E,3.9929252416954353,48.7396689026026,1504.7209075159176,-91.92186154811715,1.1194182563216373
2025-02-19 16:48:37.627,762,4,642,1,0,1,-3,-11,10,719,92,E,-0.35697843073228097,49.88465459458711,1526.74885923934,8.014429707293122,-2.3159680205461655
2025-02-19 16:48:37.740,763,2,640,-10,2,10,-4,-11,9,798,89,E,-0.17904872813898814,50.010132050229906,1529.1581001823488,4.008278113190953,-2.648996221105108
2025-02-19 16:48:37.847,776,6,644,0,-1,-4,-4,-11,7,784,92,E,-0.5337961658327812,50.309602441835764,1545.5065980391537,11.949793283807889,5.3888542046199746
2025-02-19 16:48:37.950,759,4,641,0,0,-2,-4,-10,8,788,92,E,-0.3575353249147018,49.817278580135174,1522.9906433578008,8.02630115076575,-4.2147594102111725
2025-02-19 16:48:38.059,762,-3,631,-4,1,6,-5,-12,8,801,90,E,0.27240260451268994,50.3720704694968,1532.202431101297,-6.032293035831877,-6.7923018699715385
2025-02-19 16:48:38.166,748,0,643,-2,0,-1,-3,-11,8,804,84,E,0.0,49.31680029382284,1506.325512185921,0.0,-8.876075314902664
2025-02-19 16:48:38.267,774,-5,645,0,-2,-3,-3,-11,8,804,92,E,0.4441444331119283,50.193582279469354,1542.2118198602411,-9.962608655427914,4.8234834497991415
2025-02-19 16:48:38.383,755,-21,638,1,0,-12,-4,-11,9,784,94,E,1.885230601699954,49.78578938769838,1518.6359174544182,-42.24020432654673,-7.297636206514767
2025-02-19 16:48:38.487,791,233,593,-1,-8,38,-4,-9,8,541,90,E,-21.45072562013301,51.14934077427985,1569.7836359065068,462.40150084224535,9.158412019521506
2025-02-19 16:48:38.597,612,-90,653,-28,30,-55,-3,-10,10,816,76,E,7.847374992468147,42.874740669536024,1292.3978550668003,-190.05850809805887,-72.98006431147155
2025-02-19 16:48:38.706,1017,312,651,29,-33,15,-5,-10,8,803,86,E,-25.6066609883091,54.63147637744185,1832.4459103338909,562.1662969755889,129.01839957978075
2025-02-19 16:48:38.811,606,-160,635,9,29,41,-2,-12,9,875,83,E,14.142346642032694,42.78137627059181,1285.2027728574722,-339.32746478085073,-76.70587584900125
2025-02-19 16:48:38.918,766,-107,697,67,7,-18,-4,-11,7,717,84,E,8.727629935596184,47.367912789690685,1501.717902572973,-209.7699942236398,27.554336692738843
2025-02-19 16:48:39.026,738,35,697,-13,6,12,-3,-11,8,880,80,E,-2.874704856587518,46.60056127678743,1464.581401733286,69.45846756187669,10.784231696341294
2025-02-19 16:48:39.127,1141,59,678,17,3,-16,-3,-8,7,783,85,E,-4.973387353583555,59.18556182226024,1999.8308380633634,103.40930713912223,167.66931796059544
2025-02-19 16:48:39.243,768,104,628,21,-16,10,-2,-10,9,878,81,E,-9.403132374212689,50.34652093504509,1537.9179447452857,208.25972168425744,-1.5683194010929355
2025-02-19 16:48:39.350,674,-132,662,-22,57,-2,-3,-8,5,839,44,E,11.27664033394766,44.956175459045085,1380.5657207687682,-270.3778562929932,-31.98591565122331
2025-02-19 16:48:40.067,739,-13,648,1,-4,-3,-3,-10,7,845,72,F,1.1492981961759283,48.74803745815589,1490.8172225864614,-26.225472115864676,-11.238917775408481
2025-02-19 16:48:40.161,760,13,645,1,-3,-1,-3,-11,6,847,77,F,-1.1546423253669917,49.67351892529251,1522.369313691643,26.040527734199152,-2.0107991198808577
2025-02-19 16:48:40.271,727,22,644,-5,-2,-14,-5,-11,6,838,83,F,-1.9565483725634953,48.44785897097894,1475.3524048785393,44.64615255478386,-18.914647512763963
2025-02-19 16:48:40.382,743,-212,789,12,-14,39,-4,-11,7,852,84,F,15.03983766753325,42.284671811918265,1415.814617880977,-403.9740228677889,74.53064130808775
2025-02-19 16:48:40.484,890,111,627,-13,-8,-9,-3,-9,7,858,84,F,-10.039254787152355,54.41821467749479,1703.285780396133,212.43227148760764,54.04473673216239
2025-02-19 16:48:40.591,809,-158,479,34,-6,-37,-2,-12,7,791,85,F,18.255338817174934,58.05777308699898,1657.5819987505624,-323.7304768882433,-23.436066009294564
2025-02-19 16:48:40.697,687,0,786,7,-6,48,-2,-11,9,899,79,F,0.0,41.15494610437969,1345.0976034851737,0.0,33.06737068508505
2025-02-19 16:48:40.804,789,2,468,18,3,-21,-3,-12,8,762,85,F,-0.24485226804434326,59.325221776338665,1649.0769308237554,4.180169659882777,-42.15970041256975
2025-02-19 16:48:40.914,712,88,725,-20,2,21,-3,-11,8,895,78,F,-6.920667458274935,44.27223641652159,1410.0684031241599,174.27811724006472,14.1859659199215
2025-02-19 16:48:41.017,579,-61,697,2,-2,-3,-2,-9,4,848,43,F,5.0016643312959,39.6091112620447,1216.5465098769841,-128.16811243954407,-70.47826836659385
2025-02-19 16:48:41.738,738,24,667,2,-6,-3,-3,-10,7,850,65,G,-2.060728215664684,47.874473601886635,1479.6770790872963,48.119579807716946,-3.3233221561335995
2025-02-19 16:48:41.827,776,19,623,-2,-4,1,-4,-8,6,862,72,G,-1.7468418770596847,51.22827956467517,1555.6471437827886,38.089298623547656,-2.928054866852108
2025-02-19 16:48:41.942,739,66,658,3,-2,-16,-3,-12,8,864,81,G,-5.727835321605421,48.17590243514626,1484.1956022994787,132.55332848682755,-5.516517338371841
2025-02-19 16:48:42.049,836,96,546,9,11,61,-3,-11,7,746,82,G,-9.972057687331088,56.45051261325258,1669.408793264417,191.70244515955028,1.6923431550576424
2025-02-19 16:48:42.156,731,61,611,4,-11,-35,-3,-9,8,857,80,G,-5.701308454464225,49.96985753818566,1496.7061760768568,124.89613781215905,-29.00885579064243
2025-02-19 16:48:42.259,819,292,551,-4,-1,44,-3,-9,9,805,81,G,-27.921154222358464,52.714185910047505,1614.6234936472854,575.6655191025732,15.727051282473326
2025-02-19 16:48:42.375,387,-242,603,-18,-26,-52,-2,-9,7,819,72,G,21.86690906286366,30.778668788633844,898.723038732057,-561.9921844267643,-194.33589755925163
2025-02-19 16:48:42.477,725,147,648,-1,-19,29,-3,-10,8,887,83,G,-12.781333995463402,47.494658821929285,1462.2143543151428,296.47656563355315,-10.917105649948326
2025-02-19 16:48:42.590,644,-138,679,-28,58,14,-3,-8,7,849,41,G,11.488322380082892,42.905973284963835,1324.7972354130845,-283.8851218742325,-38.79708516379583
2025-02-19 16:48:43.307,756,16,647,0,-2,-2,-3,-11,8,835,70,H,-1.4166084467989133,49.4337712678443,1515.6547546409756,32.07734930457091,-3.127812503586142
2025-02-19 16:48:43.401,742,7,632,-1,-2,-8,-3,-11,8,822,75,H,-0.6345792043323766,49.57550129468404,1503.261112833013,14.181708611632198,-16.40569179307829
2025-02-19 16:48:43.507,762,-29,611,5,0,-15,-4,-12,8,813,87,H,2.717400297319773,51.244596071622055,1541.8254448114803,-58.67839619361276,-14.293106010255087
2025-02-19 16:48:43.613,851,329,515,0,-5,43,-2,-10,8,767,86,H,-32.5718624825832,54.31718197028079,1663.2584838525174,643.0223750734174,23.445218350121593
2025-02-19 16:48:43.727,513,-114,572,-14,-19,-44,-4,-9,8,800,83,H,11.271401357089642,41.33340325645001,1173.439540363955,-260.7643423031011,-164.39652453836698
2025-02-19 16:48:43.831,777,132,647,1,-11,34,-3,-11,9,888,80,H,-11.531150600685079,49.64068880848634,1538.9983801999742,261.45146227335465,12.491696281360078
2025-02-19 16:48:43.937,950,-199,856,4,-8,-36,-4,-11,8,879,82,H,13.087462749944127,47.22867013819685,1684.0697571149344,-352.76829649039155,194.56451358906963
2025-02-19 16:48:44.043,821,180,508,7,6,65,-3,-10,7,777,86,H,-19.510799443713285,56.71702154275378,1656.9704292601596,363.28218911915803,-9.263067069623617
2025-02-19 16:48:44.154,650,-128,673,-32,44,-9,-3,-8,5,828,45,H,10.768648628071084,43.49552506638517,1338.2979201691874,-263.5417442794707,-39.65307734440455
2025-02-19 16:48:44.966,737,0,662,12,0,-7,-3,-9,8,754,71,I,0.0,48.06867322578137,1480.9462939711998,0.0,-6.239411952420824
2025-02-19 16:48:45.068,765,12,715,21,2,-14,-3,-12,8,600,84,I,-0.9615172162199928,46.930907340045465,1495.530752051382,23.45930591453148,32.216355925832545
2025-02-19 16:48:45.174,691,104,649,-7,-31,8,-2,-13,9,839,81,I,-9.104049116822468,46.43264822697523,1415.564702206338,213.051706265498,-31.524590060656124
2025-02-19 16:48:45.284,657,167,581,-17,44,-6,-3,-12,6,834,64,I,-16.036527488829506,47.38194819202781,1392.8837916869677,354.05113122027944,-69.75872598193052
2025-02-19 16:48:45.387,749,86,666,-5,-13,37,-4,-11,9,802,80,I,-7.357838700467842,48.12160647395444,1493.5633357034676,171.4905832716932,3.9450179192131145
2025-02-19 16:48:45.491,904,31,751,27,61,1,-4,-9,6,776,72,I,-2.3637302150193307,50.257843201415064,1672.929357475458,57.36815274528673,112.21023510611838
2025-02-19 16:48:45.604,975,253,622,-12,-47,15,-3,-10,7,729,80,I,-22.13415225267359,55.44468925652325,1798.5790218434568,466.70819746296877,96.59881888550763
2025-02-19 16:48:45.708,825,37,659,-5,7,19,-2,-8,8,872,81,I,-3.213536348145959,51.338587766753506,1605.851320975722,72.01999863769905,35.265429669089826
2025-02-19 16:48:46.527,739,11,671,-4,-2,-7,-4,-10,7,790,66,J,-0.93919094573558,47.757230312615185,1479.3029694166544,22.01939467331962,-1.183075072496763
2025-02-19 16:48:46.624,718,3,673,7,0,-10,-4,-11,8,719,75,J,-0.25540297183898064,46.85263558097637,1447.5971886424404,6.0484562199544865,-10.870345343122949
2025-02-19 16:48:46.734,761,-41,554,61,10,-22,-4,-12,5,408,86,J,4.232585239256403,53.871288857862325,1568.6945338359174,-84.51573703978005,-33.99312975702787
2025-02-19 16:48:46.837,762,61,682,5,-1,9,-4,-11,7,885,82,J,-5.111095160514537,48.05757769162295,1505.8168730523637,120.54439534933617,16.27413724184794
2025-02-19 16:48:46.946,607,-136,638,51,-63,-10,-3,-12,6,762,83,J,12.033412582772295,42.938322442977494,1288.2106800317288,-288.62710458701,-78.0006818125911
2025-02-19 16:48:47.054,737,260,645,-10,-14,39,-4,-9,7,806,83,J,-21.95440185841738,46.662229683192194,1464.3204968599075,516.5852499098723,8.471206954355125
2025-02-19 16:48:47.158,962,-69,538,18,9,4,-2,-11,6,705,83,J,7.308446070539273,60.5842918614293,1833.0791928270628,-131.4786531237706,50.847603179875534
2025-02-19 16:48:47.267,585,-41,731,-9,-15,-9,-3,-6,5,813,42,J,3.2102165445168116,38.6254773741162,1209.22704908794,-84.74924617539408,-49.01704766373348
2025-02-19 16:48:48.086,750,9,655,3,0,-8,-4,-11,8,688,79,K,-0.7872207128731061,48.86552452627122,1503.167706303525,18.038012475642297,-2.76646350507815
2025-02-19 16:48:48.180,762,-20,658,-4,2,-8,-4,-11,8,637,90,K,1.7409770449283295,49.175745076472104,1518.718376413292,-39.861374709010285,4.560772073561566
2025-02-19 16:48:48.291,722,-244,787,10,-7,33,-3,-13,7,696,90,K,17.225428764377195,41.22676835756513,1381.0409134359975,-466.7229679756002,68.62714837378098
2025-02-19 16:48:48.398,949,49,622,20,-6,27,-4,-10,7,672,89,K,-4.504352032155433,56.676784104210284,1784.5848321090098,92.14400081490143,74.33533659451643
2025-02-19 16:48:48.507,532,-179,767,39,-68,-27,-3,-11,8,854,87,K,13.136383753022075,34.03748945553518,1091.7352349790913,-367.33196816025816,-39.986701558200934
2025-02-19 16:48:48.608,819,61,639,15,12,-1,-3,-10,7,638,90,K,-5.453025874571487,51.91183129555565,1606.0624200443249,119.6212547285761,24.918331613768373
2025-02-19 16:48:48.721,714,64,696,-1,-39,46,-3,-10,7,773,91,K,-5.253802751262255,45.61082139739395,1428.6048116142485,128.054212805759,-0.5895642626287554
2025-02-19 16:48:48.824,988,61,687,-21,69,5,-4,-8,7,804,73,K,-5.074091401270447,55.08188523037814,1807.9709438890186,111.62573641420053,116.8380177613808
2025-02-19 16:48:48.934,682,-50,683,7,-17,-18,-3,-9,5,756,52,K,4.1869512822771195,44.88146572219678,1387.6423970247638,-101.73331356486537,-23.67706329606108
2025-02-19 16:48:49.747,740,-30,664,0,-1,-3,-5,-10,6,738,69,L,2.586905479426447,48.069416418926494,1483.9549617538642,-60.160336287318806,-3.5487764926564296
2025-02-19 16:48:49.848,731,-28,655,3,-1,-3,-3,-11,7,730,71,L,2.4477949240495653,48.11262054987876,1475.4586317497265,-56.515515306419054,-12.059375918017281
2025-02-19 16:48:49.948,748,-8,652,1,-1,-4,-4,-11,7,720,75,L,0.7029804227355816,48.920576735355,1501.7994280438802,-16.06202596838375,-5.055116423275422
2025-02-19 16:48:50.061,704,0,652,1,-3,-17,-4,-11,7,643,78,L,0.0,47.19610719322973,1437.6837000076832,0.0,-27.49115398438846
2025-02-19 16:48:50.167,737,-122,713,25,4,15,-4,-14,6,456,89,L,9.709734263579563,45.53504573548432,1450.6790362973197,-240.1395419650923,22.561529335157275
2025-02-19 16:48:50.277,911,-24,605,36,-8,22,-4,-9,6,322,87,L,2.2716992969019945,56.39088639518201,1743.833206379724,-45.94072113404322,51.910988079327126
2025-02-19 16:48:50.377,738,41,668,-9,0,19,-3,-9,9,870,0,L,-3.512251136349023,47.79661238321389,1478.764879467274,82.15360441484856,-2.5026280272890062
2025-02-19 16:48:50.494,580,-153,691,-17,15,-4,-4,-9,6,785,38,L,12.484902905857584,39.33512666936324,1213.855176453866,-320.2066241335199,-64.16194298210632
2025-02-19 16:48:51.308,741,-1,670,3,2,-2,-4,-10,6,703,64,M,0.0855160253251065,47.880600546951854,1482.7488025033667,-2.0010105296941516,-0.6770548950818238
2025-02-19 16:48:51.398,720,14,664,7,0,-5,-3,-12,6,665,67,M,-1.2078645800532561,47.31071685630567,1455.0414282810407,28.29247221657579,-13.871539414737526
2025-02-19 16:48:51.506,786,101,635,-6,-6,-10,-4,-12,8,570,85,M,-9.037482741237278,50.71534396768893,1560.009803118819,200.45927495547167,9.686736666093907
2025-02-19 16:48:51.621,794,317,594,-12,-10,53,-2,-11,6,540,0,M,-28.087504176339,49.70280508867261,1556.6999943371247,621.5036501320762,23.41587325409057
2025-02-19 16:48:51.727,727,-35,666,9,3,-51,-3,-9,7,749,83,M,3.0082721145234403,47.468046007724624,1463.900443908376,-70.47663760219142,-9.069732658842554
2025-02-19 16:48:51.838,705,112,633,-19,-27,55,-4,-12,6,815,65,M,-10.033795686651654,47.64086350268743,1443.936067034873,229.39126171334152,-30.470255933439148
2025-02-19 16:48:51.940,721,-46,644,30,-5,-27,-4,-10,7,863,68,M,4.085616779974877,48.15620448359987,1465.9663005566144,-93.52905662358427,-21.40679273017963
2025-02-19 16:48:52.051,786,330,550,-10,-4,55,-5,-10,8,821,87,M,-30.96375653207352,50.78429864862216,1560.7712581217706,655.2856427228808,7.8572621285320565
2025-02-19 16:48:52.157,630,-61,629,-51,53,8,-4,-10,8,851,0,M,5.539184451772878,44.91142209855266,1336.0127664841011,-129.3599662786193,-75.8921112992058
2025-02-19 16:48:52.976,730,37,658,-6,-5,-1,-4,-12,5,655,69,N,-3.218409883085467,47.92447309519671,1472.2621366861392,74.62150555806458,-11.05272046504058
2025-02-19 16:48:53.067,735,38,651,3,0,-11,-3,-11,6,545,77,N,-3.340663375883038,48.41985848900424,1483.0281597591638,76.67356472224247,-11.53922721525953
2025-02-19 16:48:53.181,808,-210,732,-29,-9,31,-4,-13,7,608,85,N,16.007404296099843,46.695991660106614,1535.724776896233,-399.136390034912,72.724583306878
2025-02-19 16:48:53.288,930,164,610,13,-6,-13,-4,-11,7,714,0,N,-15.048275632280454,55.81542943768196,1757.231910239161,309.8774551389488,67.4070266173245
2025-02-19 16:48:53.390,760,-136,589,-6,0,-20,-4,-13,7,717,0,N,13.001721042284696,51.50156925146357,1542.625206366265,-276.04872113922636,-17.534534933855298
2025-02-19 16:48:53.497,712,173,657,20,-1,21,-4,-9,8,811,89,N,-14.752147759917593,46.34237103286001,1435.4778654111883,348.788863365359,-10.59123254936901
2025-02-19 16:48:53.607,793,67,583,4,12,-7,-4,-12,7,868,69,N,-6.555831599066156,53.49775187570833,1596.8335208351027,134.91531638833783,-7.964618722402292
2025-02-19 16:48:53.706,553,-87,709,-10,1,8,-4,-11,7,832,40,N,6.995680723178972,37.74578851229014,1165.1591592756915,-183.30713717357173,-75.84781903519956
2025-02-19 16:48:54.537,729,-4,644,12,-13,-4,-3,-10,10,853,78,O,0.3558698306218785,48.54201077908655,1478.4413699417041,-8.112161151943507,-18.057945462904513
2025-02-19 16:48:54.628,754,-3,665,10,3,-22,-4,-12,8,805,79,O,0.2584754473547752,48.58861386921865,1503.9796353076567,-5.984003854009244,3.54581236128422
2025-02-19 16:48:54.738,1013,146,537,-6,8,82,-3,-12,7,757,82,O,-15.209968373937789,61.21772289058785,1889.4556555110794,272.3203610114685,72.38332970439336
2025-02-19 16:48:54.839,697,47,662,-10,-18,-57,-2,-10,9,860,82,O,-4.0610131187869625,46.403354019237675,1421.2122296136718,95.83497100694774,-25.845761842540583
2025-02-19 16:48:54.951,1076,84,659,-19,58,21,-3,-13,7,828,72,O,-7.264083501812918,58.30844804354871,1926.8885789604615,150.42624594115125,137.8702848188252
2025-02-19 16:48:55.057,593,-24,720,8,-15,1,-4,-9,5,771,39,O,1.9091524329963763,39.459638100685574,1228.5344930749325,-49.72146346340368,-51.64390390211031
2025-02-19 16:48:55.877,744,41,650,1,-2,-3,-3,-12,7,772,68,P,-3.609259826509349,48.80135029371741,1496.430432068205,82.46458026182313,-7.365296833781144
2025-02-19 16:48:55.970,727,52,656,5,-4,-7,-2,-11,7,764,73,P,-4.532261708701458,47.84958704219573,1468.3856641655216,105.02896084815286,-12.98073685362067
2025-02-19 16:48:56.081,768,1,625,-10,-6,-23,-3,-13,7,741,86,P,-0.09167316899321425,50.861195970866376,1543.6190988402732,2.0099207016149387,-6.200438509336891
2025-02-19 16:48:56.188,779,271,568,-1,-4,35,-4,-10,8,773,84,P,-25.506401043290396,51.066018530600516,1556.8705739887423,541.6070931334393,0.8235095948576827
2025-02-19 16:48:56.294,791,31,578,39,7,-67,-4,-12,8,824,82,P,-3.070015631401645,53.80442308467338,1598.0059029556824,62.627285703699314,-11.695843120587256
2025-02-19 16:48:56.405,680,145,717,-12,-12,33,-1,-12,7,873,78,P,-11.432818675969575,42.90985197608498,1360.846819221941,290.180571745855,-0.8928961501933372
2025-02-19 16:48:56.507,900,16,591,-1,26,7,-4,-11,7,818,79,P,-1.5507759770693261,56.69879737822679,1735.7958373546435,30.858592664082543,42.160733470450964
2025-02-19 16:48:56.617,552,-48,731,3,-13,0,-3,-10,5,834,42,P,3.7568467070720493,36.99829007264521,1153.7911885158483,-100.3296685665955,-65.9372442121105
2025-02-19 16:48:57.331,733,16,646,-1,-4,-2,-3,-11,5,807,57,Q,-1.4188004434890655,48.60124541063228,1483.1254440692433,32.37381596876929,-15.092819739060133
2025-02-19 16:48:57.432,679,15,655,7,-23,-17,-4,-11,8,828,71,Q,-1.3118877825041106,46.02319210569455,1398.6209242466352,30.897369460529497,-39.1851331097879
2025-02-19 16:48:57.539,693,-48,686,13,6,-28,-3,-12,7,740,78,Q,4.002510651644255,45.220884067265146,1402.8275255593207,-97.1655428958837,-16.657550553670944
2025-02-19 16:48:57.647,800,422,589,-17,-15,59,-3,-10,5,823,78,Q,-35.62040868516317,47.832380368739464,1541.1840968572205,812.974611092184,43.30320868887122
2025-02-19 16:48:57.753,785,104,584,-8,22,-15,-4,-10,7,845,79,Q,-10.097504384075286,52.9233544352083,1582.8297372474067,209.69973589010226,-9.544670767497337
2025-02-19 16:48:57.858,973,9,858,23,9,-18,-3,-10,5,758,80,Q,-0.600982638847937,48.59230374371601,1723.022232139122,15.93751293859414,196.62376652069224
2025-02-19 16:48:57.966,730,92,624,-2,-11,48,-3,-9,7,857,81,Q,-8.38703237865949,49.17183445900444,1486.6737547676248,187.36162388852256,-22.800579417805352
2025-02-19 16:48:58.077,557,-190,686,-17,43,1,-2,-6,5,790,38,Q,15.481024992307752,38.042995091199316,1173.2526298495295,-400.2118486021734,-72.97541126889973
2025-02-19 16:48:58.889,735,14,661,0,-1,-3,-2,-10,6,768,59,R,-1.2133449324381589,48.02794062518105,1478.4710425925218,28.161353192238515,-7.61817571926133
2025-02-19 16:48:58.985,729,17,663,2,0,-6,-5,-10,7,766,62,R,-1.4688007143858246,47.70520499894946,1468.6922313238233,34.24933872771604,-9.72421038092557
2025-02-19 16:48:59.089,727,37,656,6,-8,-19,-3,-11,7,698,55,R,-3.228201386981834,47.89359190657729,1468.9008542607044,74.75836534751866,-13.445612647898315
2025-02-19 16:48:59.202,733,-294,665,26,2,-5,-4,-13,7,725,81,R,23.850473908076925,45.2318839456536,1442.9627413754727,-578.759953566697,20.90010502770906
2025-02-19 16:48:59.309,831,133,699,-6,-6,10,-6,-9,8,748,84,R,-10.772997667949785,49.428334866967354,1590.5930462235453,254.57145023794413,60.064332959977946
2025-02-19 16:48:59.420,760,9,740,-18,-28,-12,-4,-12,7,843,77,R,-0.696806206230111,45.761780596704554,1476.4454011188586,17.484221855354903,42.40842522637456
2025-02-19 16:48:59.522,819,15,555,6,13,-1,-3,-13,7,713,82,R,-1.548157698977968,55.86653174167592,1646.7327065839277,30.159939681024323,-5.917768197899818
2025-02-19 16:48:59.627,731,138,658,0,-12,45,-3,-8,7,793,82,R,-11.844766689616144,47.39463045483092,1467.0336496148138,276.9502649067638,-4.530973251090927
2025-02-19 16:48:59.739,631,-150,669,-16,52,-1,-3,-8,6,699,35,R,12.637579822451805,42.624864499702944,1308.1953480646284,-310.98146150506227,-48.977318312577836
2025-02-19 16:49:00.457,746,-6,666,6,-13,-8,-4,-12,7,807,61,S,0.5161642297648367,48.24159789822063,1491.9597192627102,-11.99967602624164,0.035961087178179696
2025-02-19 16:49:00.555,745,13,656,8,-9,-2,-3,-10,7,830,71,S,-1.13528605539855,48.629311359005406,1495.449285199289,26.0950881981084,-4.798296766085514
2025-02-19 16:49:00.661,731,30,666,0,0,-14,-3,-12,6,830,83,S,-2.5791475002834177,47.63504195244639,1469.867604108464,60.32288388954024,-7.168022347793453
2025-02-19 16:49:00.766,871,61,526,43,15,12,-3,-12,6,691,74,S,-6.61501819476919,58.70245145194522,1725.4810574475723,120.8431050566038,9.975848200432779
2025-02-19 16:49:00.877,721,111,751,-9,-20,21,-4,-10,7,844,80,S,-8.407613274106781,43.5232321345307,1409.6486418966897,217.0194164362449,33.69746176919
2025-02-19 16:49:00.984,1142,26,701,-11,60,20,-4,-9,7,737,62,S,-2.124119442061122,58.43936412175841,1994.0867289883722,45.39952272653036,177.95902187316221
2025-02-19 16:49:01.087,541,-105,731,1,-13,-9,-2,-7,5,776,33,S,8.173990342135422,36.22514389128316,1131.9597401788087,-219.69643755780942,-67.50567480722555
2025-02-19 16:49:02.007,722,-17,678,1,-6,-5,-4,-9,5,652,45,T,1.4363188896523085,46.79114710631021,1450.8628478796638,-34.16159060104471,-6.444613382842022
2025-02-19 16:49:02.107,726,24,678,3,-17,-13,-3,-10,5,697,56,T,-2.0273227005001964,46.94017176523453,1456.6411605608628,48.15342679540043,-4.334306970062016
2025-02-19 16:49:02.213,750,27,669,2,-1,-8,-3,-12,7,725,71,T,-2.3111314527614013,48.24387633354202,1495.986202605507,53.85550329379826,3.580307275887776
2025-02-19 16:49:02.319,831,-48,513,6,0,-16,-3,-12,6,380,81,T,5.345445372767093,58.200055236407884,1680.8932010019896,-97.09130402899578,-11.66331180989232
2025-02-19 16:49:02.425,703,57,698,2,-5,5,-3,-10,8,885,79,T,-4.668522495153691,45.10927783835382,1411.45412939263,114.44222670751054,-5.415337576181855
2025-02-19 16:49:02.538,631,-147,629,30,-33,-13,-4,-12,6,818,81,T,13.154177612695529,44.329283600356916,1329.7809813473327,-309.7904980317875,-67.56614463941708
2025-02-19 16:49:02.638,767,214,583,-11,-6,46,-4,-11,7,744,83,T,-20.15651459736505,51.00310989398258,1544.180118494756,430.84034596854985,-7.737951867591391
2025-02-19 16:49:02.747,727,-18,581,-40,56,10,-3,-8,5,765,50,T,1.7745167935941484,51.355632336599705,1508.0371296207977,-37.337920678369144,-43.18510634069287
2025-02-19 16:49:03.667,737,24,655,6,-4,-6,-4,-12,6,756,51,U,-2.098448565857734,48.35220042133132,1484.2439432315655,48.33358838203198,-9.104182926289582
2025-02-19 16:49:03.761,704,15,652,5,-8,-13,-3,-12,7,698,66,U,-1.3179219518958663,47.18854997211809,1437.5940698362224,30.63055546526042,-27.408144223319596
2025-02-19 16:49:03.871,720,-38,658,2,0,-14,-2,-14,7,519,75,U,3.3052036167273577,47.5286530351467,1457.6151003777786,-76.92968585327165,-16.09824451191446
2025-02-19 16:49:03.976,801,262,623,1,-15,39,-2,-9,6,818,79,U,-22.808980765455896,49.843746105081344,1565.2886216607199,511.99203355194584,28.553294263884595
2025-02-19 16:49:04.087,744,-140,672,-12,0,-30,-4,-12,7,850,81,U,11.768288932020644,47.30478370376691,1478.9712130759117,-278.3010347185855,8.155033350789495
2025-02-19 16:49:04.187,819,305,534,-7,2,45,-4,-11,7,825,80,U,-29.73332506887927,53.09813748536095,1618.6651401966174,602.7995943345156,12.60661188645463
2025-02-19 16:49:04.302,631,-119,692,-28,48,8,-3,-8,5,842,40,U,9.757451217888283,41.94473204851854,1299.413451928877,-245.05578570449507,-41.03028325639127
2025-02-19 16:49:05.621,703,-26,696,-2,-2,-4,-2,-8,5,798,42,V,2.139364792103529,45.26670715527386,1413.3906325084772,-52.27333775991523,-7.317041573115375
2025-02-19 16:49:05.706,694,-37,692,0,-7,-4,-3,-9,7,812,45,V,3.0605882951139276,45.04178635924504,1401.6222928177417,-74.72626056809284,-13.583035489736403
2025-02-19 16:49:05.819,727,-4,676,5,-13,-4,-4,-11,5,817,56,V,0.3390243244514502,47.08132356093208,1459.320968454499,-8.029276305114163,-4.94769556429344
2025-02-19 16:49:05.927,757,35,652,6,-3,-5,-4,-10,7,794,70,V,-3.0727444277758296,49.22109131318397,1514.2355368836534,70.01089008048595,-0.20286664219543127
2025-02-19 16:49:06.028,637,3,675,13,-18,-31,-3,-11,6,592,84,V,-0.2546462322728535,43.34069991773302,1323.335151463826,6.232347652105931,-52.27822172383446
2025-02-19 16:49:06.137,814,-94,615,16,-3,-17,-4,-12,4,496,84,V,8.690147831408522,52.609228639553905,1608.5124403450068,-185.74959384819488,14.723401950639868
2025-02-19 16:49:06.252,699,135,650,10,-4,16,-2,-9,7,810,83,V,-11.733084156412238,46.476504234723514,1424.0920306418172,275.0392333857587,-24.26297556106033
2025-02-19 16:49:06.362,714,-84,706,-17,-12,-48,-2,-12,9,878,80,V,6.785164001186024,45.121444247164796,1422.603976577982,-167.36517371505667,5.335563775833293
2025-02-19 16:49:06.465,1004,89,625,-17,55,32,-3,-12,8,872,68,V,-8.10443220376197,57.838735822001034,1850.553233118771,164.04306548562812,98.01218057845438
2025-02-19 16:49:06.570,713,-1,666,12,-12,-2,-3,-9,5,802,48,V,0.08602963431716694,46.952005233571064,1443.7821577815994,-2.024939912737166,-16.609981882952525
2025-02-19 16:49:07.387,703,44,659,2,0,-3,-4,-11,5,580,67,W,-3.8198453831189725,46.78673638184228,1431.8101394743185,89.6154283597013,-24.19471111461712
2025-02-19 16:49:07.484,724,41,676,9,2,-6,-3,-11,6,348,70,W,-3.470788248621256,46.91118338218683,1454.2956287602765,82.3565204132201,-5.878239008214223
2025-02-19 16:49:07.594,689,56,648,11,-12,-18,-3,-10,4,150,82,W,-4.939215542126199,46.65007228814402,1416.174857275567,115.10274601949459,-35.90320393986576
2025-02-19 16:49:07.697,758,-48,627,-6,1,-27,-4,-14,4,0,86,W,4.377740928740087,50.320996350551276,1527.6335833272292,-96.73669129248945,-9.623030008143473
2025-02-19 16:49:07.808,803,168,683,2,-16,18,-3,-10,6,741,71,W,-13.818915691357239,48.784451317785916,1555.2361288795553,325.379414261227,43.17773844989256
2025-02-19 16:49:07.914,744,-97,680,16,0,-33,-2,-11,7,843,77,W,8.118305817465945,47.28585727086394,1478.7471777366413,-192.79365086082555,8.456880563284699
2025-02-19 16:49:08.019,851,265,628,-22,-22,1,-2,-11,7,840,80,W,-22.87850568986652,51.30644822854653,1631.5007689668992,508.04665543622593,52.02528447566078
2025-02-19 16:49:08.127,844,52,664,5,0,11,-5,-11,10,900,79,W,-4.477879573849643,51.721663799619705,1629.0106557531126,100.36558542554724,46.40867841224315
2025-02-19 16:49:08.236,503,-104,746,-9,-2,-7,-2,-6,5,853,37,W,7.936463581218835,33.735177698170716,1058.3551149308082,-218.82491441909355,-77.64794381388253
2025-02-19 16:49:08.338,770,22,658,3,1,-1,-3,-10,5,806,50,W,-1.9149510140425727,49.468797559198364,1530.0521729819686,43.71577637091339,8.500870360863246
2025-02-19 16:49:08.447,725,2,685,5,3,10,-4,-10,7,695,47,W,-0.1672864721291498,46.62485444715171,1451.8726556217716,4.005165946542819,-1.7693366909155657
2025-02-19 16:49:08.557,712,30,692,2,-3,-5,-2,-10,5,625,46,W,-2.4823666960851156,45.78923871008505,1428.7796534979348,60.2013898945759,-4.645393568217401
2025-02-19 16:49:08.664,734,36,631,19,-11,0,-3,-12,6,648,53,W,-3.265316123810232,49.269213293832976,1491.7838351326095,73.1665096250326,-20.446321483210454
2025-02-19 16:49:08.774,741,73,637,-17,-7,-2,-3,-11,7,747,63,W,-6.5375584454964155,49.131162273869435,1497.2094605925276,147.4983679126242,-13.074799456734468
2025-02-19 16:49:11.089,746,7,642,4,-7,-2,-3,-10,5,833,67,X,-0.6246955825692269,49.28336466711634,1503.9449731271734,14.112084198244254,-10.279722181830039
2025-02-19 16:49:11.186,771,14,634,1,-2,-2,-3,-11,8,848,74,X,-1.2650009030250364,50.562390524520474,1543.3167641184277,28.023910113693894,-1.082786577280558
2025-02-19 16:49:11.294,782,70,626,2,-4,-4,-3,-11,8,861,83,X,-6.38037110784609,51.14853037069291,1560.7747632693208,139.71129594482414,2.58183912200127
2025-02-19 16:49:11.401,663,-61,646,8,-3,-23,-3,-11,8,821,87,X,5.3942877996372225,45.61694170310637,1377.6795307997447,-126.75482862561752,-50.354414625391996
2025-02-19 16:49:11.507,840,147,507,-20,10,34,-4,-11,7,0,86,X,-16.169031687609625,57.85353959022103,1686.69073865695,295.1708792649663,-4.038338689373404
2025-02-19 16:49:11.618,649,-31,659,-27,27,-27,-4,-11,6,603,51,X,2.693263684225309,44.53030961595949,1350.286477547142,-64.49750509084961,-53.09212435064205
2025-02-19 16:49:11.718,715,53,640,10,-24,-25,-3,-12,6,401,76,X,-4.734004667887419,48.07080320684365,1458.9711353792504,108.14751073440598,-25.932205094713595
2025-02-19 16:49:11.828,737,-84,645,44,5,-35,-3,-13,7,152,84,X,7.420014895261208,48.56966250731195,1486.760807049715,-169.45442034216558,-11.167870484485661
2025-02-19 16:49:11.937,740,69,663,9,-10,21,-4,-10,9,812,85,X,-5.941519793752762,47.987951012669306,1483.0040945594947,138.2801115197367,-2.6915063418175578
2025-02-19 16:49:12.036,678,-28,615,-26,42,2,-4,-9,5,770,59,X,2.6067881782638707,47.759946187795,1418.334834991789,-58.57429997016238,-56.542660058923616
2025-02-19 16:49:12.149,769,-9,644,2,-6,-4,-2,-10,6,725,55,X,0.800665293634201,50.052714419248694,1535.6355092448243,-17.97232715631134,1.9801457039441175
2025-02-19 16:49:12.256,741,-6,662,-5,0,-3,-4,-9,6,732,53,X,0.5192828765891615,48.22163333992173,1486.7276112097868,-12.038280252710823,-4.223587882427637
2025-02-19 16:49:13.269,732,-6,670,2,-3,-4,-4,-10,5,778,60,Y,0.5130828175104619,47.53097089235046,1469.6424153433718,-12.046249306093213,-5.164505847075361
2025-02-19 16:49:13.374,732,-12,662,7,-7,-9,-4,-10,6,775,69,Y,1.0384804578201168,47.87002264350261,1473.6249698349031,-24.157786390736117,-8.704549222275887
2025-02-19 16:49:13.481,718,17,673,-1,4,-9,-4,-12,7,740,77,Y,-1.4469853866579998,46.84380186818689,1447.4917415902457,34.272088589184094,-10.771507089464421
2025-02-19 16:49:13.587,799,25,622,-5,-3,-17,-3,-12,5,254,87,Y,-2.3016461477052075,52.07778527456234,1587.8458548103677,49.68228582009911,7.904728795934034
2025-02-19 16:49:13.698,741,153,612,-10,-14,50,-5,-9,7,831,82,Y,-14.036243467926477,49.59126901471801,1502.4395353070217,310.2203089095469,-16.881235638187604
2025-02-19 16:49:13.806,521,-196,748,16,-36,-18,-1,-10,6,888,65,Y,14.683219752396035,33.97118347818894,1079.7758739670141,-406.21126928509545,-54.23484400638495
2025-02-19 16:49:13.906,659,-79,713,1,5,8,-4,-11,8,825,84,Y,6.322551420262525,42.571887678358856,1335.514720291825,-160.0996402170776,-18.949917402232018
2025-02-19 16:49:14.020,720,-99,700,-23,-10,52,-4,-11,8,580,85,Y,8.049872269248128,45.52332666812846,1433.5357492346147,-197.1111655197595,6.284688244124709
2025-02-19 16:49:14.119,917,84,696,21,12,4,-3,-9,7,756,81,Y,-6.88172363063695,52.60192429423068,1711.4350189690072,156.77267349334414,93.02641962657731
2025-02-19 16:49:15.037,752,17,647,-2,0,-3,-4,-11,5,812,0,Z,-1.5051069460496282,49.28243266496208,1509.9343620840518,34.13415446200649,-5.10576099518812
2025-02-19 16:49:15.135,701,7,644,0,-6,-6,-5,-11,7,799,0,Z,-0.6227556872063182,47.42501001957175,1437.3924782087488,14.353419896521029,-32.51463047993468
2025-02-19 16:49:15.246,801,-98,554,32,3,-13,-4,-12,8,694,75,Z,10.031577732361185,54.91681547524726,1619.3184378386768,-198.11886006016272,-11.978045646225837
2025-02-19 16:49:15.352,686,-7,763,20,-10,29,-3,-15,6,877,76,Z,0.5256346064576132,41.9569590685628,1354.5721627856665,-13.82216492638435,19.384023024105886
2025-02-19 16:49:15.459,826,54,586,13,10,-9,-3,-11,8,568,82,Z,-5.264946754605815,54.53206967840193,1640.4404227297337,107.24428913729494,8.200862324910418
2025-02-19 16:49:15.566,661,83,684,14,-11,9,-3,-10,6,893,76,Z,-6.918731805435626,43.811089929333136,1353.282861768775,169.92810518427885,-32.371372843936456
2025-02-19 16:49:15.676,657,-38,542,-37,52,3,-2,-9,4,831,50,Z,4.010484670516751,50.409693482658206,1427.621073171023,-82.57169068569081,-93.7330618853797
2025-02-19 16:49:15.783,775,49,673,5,-11,-10,-4,-9,7,817,51,Z,-4.164261555172071,48.954375410593386,1529.1869216512869,96.684076336662,18.073808682172853
2025-02-19 16:49:15.885,760,57,669,-5,3,2,-3,-9,6,800,51,Z,-4.869941716281102,48.54093315455709,1509.4289175194713,113.20716881396037,9.305334446675715
2025-02-19 16:49:15.997,742,48,662,-8,1,-2,-2,-10,4,761,47,Z,-4.147119310574952,48.186556881861414,1487.3195928690816,96.21474455217775,-2.96168528211831
2025-02-19 16:49:16.806,731,65,660,-5,-1,0,-3,-9,6,465,56,a,-5.624628041445912,47.78440216833401,1471.6217039784476,130.855555073323,-8.687174590664085
2025-02-19 16:49:16.909,735,19,657,-16,-4,0,-2,-10,7,653,53,a,-1.6564938843056165,48.19528564626961,1480.421154204776,38.269390380803735,-9.31523579937118
2025-02-19 16:49:17.018,759,9,662,-11,-3,-1,-4,-10,6,680,65,a,-0.7788976577856492,48.90243172924777,1512.5912917339988,17.935865119375478,4.717476774825855
2025-02-19 16:49:17.118,755,5,657,-11,-1,-1,-4,-9,7,707,68,a,-0.4360325221470275,48.96943080501253,1509.359443613509,9.995757904725227,0.5574113191051993
2025-02-19 16:49:17.233,740,-24,655,-22,-3,2,-3,-10,7,744,67,a,2.098448565857734,48.467753038860494,1488.5826692582882,-48.27835684080932,-7.596822113754683
2025-02-19 16:49:17.338,712,-43,667,0,-7,7,-4,-9,7,840,67,a,3.6886264729190894,46.80974639805069,1441.0850629479828,-87.03182262185852,-16.005248576270446
2025-02-19 16:49:17.436,758,-50,634,-3,-3,1,-6,-11,8,859,72,a,4.509261473479929,50.00305933390352,1524.0787639603113,-100.532899997382,-6.757171966803867
2025-02-19 16:49:17.550,764,-30,638,1,-3,-2,-3,-9,8,861,76,a,2.692175889506985,50.10433519485778,1531.2136838946985,-60.12619177596982,-2.6836784356249836
2025-02-19 16:49:17.656,714,-50,625,6,-14,-4,-3,-10,8,866,83,a,4.573921259900861,48.71211828308023,1465.4037096517868,-102.61930739858451,-32.74134248230621
2025-02-19 16:49:17.769,695,-140,665,-6,4,-30,-3,-10,8,749,91,a,11.888658039627973,45.642838793100566,1409.9956027591095,-284.02789120327384,-19.13248321555068
2025-02-19 16:49:17.875,780,87,657,-10,-21,32,-3,-8,8,732,90,a,-7.543226290398895,49.64675597267218,1542.0669493499176,171.9997751197985,15.10514650910784
2025-02-19 16:49:17.981,768,-72,574,15,0,-37,-3,-11,7,831,84,a,7.149585721114991,53.01101509968698,1566.7511940797522,-146.88292444497677,-22.98331432523139
2025-02-19 16:49:18.092,1060,19,600,-15,47,-1,-2,-9,8,872,58,a,-1.8137602471258893,60.47619093514077,1930.150995876566,34.59704615250448,107.4617004472268
2025-02-19 16:49:18.907,803,43,734,4,-7,-13,-4,-11,7,727,75,b,-3.352732739521961,47.521551765073525,1540.531407402845,82.49420986092446,59.84302237398731
2025-02-19 16:49:19.005,699,-184,711,40,-8,63,-4,-11,6,746,0,b,14.509282418473282,43.58438858315485,1388.4222025797667,-365.47880582929486,9.74222312701852
2025-02-19 16:49:19.107,763,45,651,-15,3,0,-3,-8,9,749,86,b,-3.9542477155210967,49.46138358614383,1522.9680756122468,89.82118401382843,2.586871266615276
2025-02-19 16:49:19.216,683,-10,733,15,-22,-1,-3,-10,8,851,75,b,0.781612896152089,42.97502510074351,1364.6795024284122,-19.9806662141788,1.417166500693952
2025-02-19 16:49:19.317,804,90,506,-27,12,27,-4,-9,8,666,87,b,-10.085476299962469,57.41202996826377,1646.5655001275054,184.31703359636256,-24.271322219549575
2025-02-19 16:49:19.433,575,-50,656,-24,33,-1,-3,-9,5,697,49,b,4.358629041051181,41.153113517431734,1233.0735208423025,-107.2237844210698,-94.77605160443568
2025-02-19 16:49:19.543,813,12,654,12,-20,-8,-3,-10,7,772,58,b,-1.0511807495437469,51.181115625366914,1592.131397425473,23.50009442694425,27.244853731538342
2025-02-19 16:49:19.645,745,0,657,-8,1,-6,-4,-9,6,738,64,b,0.0,48.591599680012635,1495.0141044922734,0.0,-4.421834431441312
2025-02-19 16:49:19.750,754,-13,653,-5,2,-4,-4,-11,6,710,63,b,1.1405003902047424,49.100256073177206,1509.8563954063488,-26.03200681735084,-1.6077270561612522
2025-02-19 16:49:19.862,754,-12,654,-1,-2,-3,-3,-9,5,723,63,b,1.0511807495437469,49.057707675712216,1509.3699727123976,-24.021803279242402,-1.1882787187107624
2025-02-19 16:49:19.967,744,-19,661,0,-2,-1,-4,-10,6,735,66,b,1.6464752499510171,48.36905565247605,1491.4394076880694,-38.08783433612005,-3.055710325018481
2025-02-19 16:49:20.075,754,-7,659,-1,-2,0,-2,-9,7,738,67,b,0.6085817501210645,48.844767761413145,1506.929342776612,-13.990060211453958,0.9357600931202796
2025-02-19 16:49:20.997,724,-40,678,-2,-6,-8,-5,-8,5,751,46,c,3.3763682855881973,46.829550052649466,1453.3215826903934,-80.2940100933919,-4.983471082992764
2025-02-19 16:49:21.087,738,-43,669,-6,-6,-5,-2,-9,5,744,51,c,3.6776294970366,47.74878823221433,1478.203907208664,-86.1284119376322,-1.9978508436263382
2025-02-19 16:49:21.197,753,-26,650,-4,-2,-3,-3,-9,7,754,58,c,2.2906100426385296,49.17613052143787,1509.722774297386,-52.12854200761226,-3.213550190306364
2025-02-19 16:49:21.304,748,-16,647,-2,0,-1,-4,-9,8,765,62,c,1.4166084467989133,49.132404901726225,1504.223651481112,-32.1759069835532,-7.113238647432468
2025-02-19 16:49:21.408,725,-38,654,0,-4,-3,-5,-9,7,770,64,c,3.3253737005815474,47.89933539714608,1466.968064306758,-76.88936061194042,-15.306364216027305
2025-02-19 16:49:21.517,769,-12,644,-1,0,-1,-4,-11,5,772,67,c,1.0674996837402058,50.05057287845678,1535.6115096298802,-23.962728368736755,2.000244211127665
2025-02-19 16:49:22.937,759,-10,640,0,-1,-1,-3,-12,8,817,81,d,0.8951737102110744,49.858472658761826,1523.4543464307992,-20.071862271815533,-4.599185396194116
2025-02-19 16:49:23.032,761,-3,643,0,-3,-3,-3,-10,6,818,84,d,0.26731896008579226,49.80385938593175,1524.8395042808233,-6.011193840791682,-2.3992132096838077
2025-02-19 16:49:23.136,756,-2,658,0,0,-8,-3,-10,8,758,86,d,0.17415076920659175,48.96452365484144,1510.303217584521,-3.9955111576310083,1.476829139398319
2025-02-19 16:49:23.242,754,3,664,-1,0,-5,-4,-10,6,710,86,d,-0.2588647123134489,48.63138311088406,1504.4731831339209,5.985967572150878,3.1058440306055672
2025-02-19 16:49:23.351,877,92,567,10,5,34,-3,-11,6,544,84,d,-9.216348706935129,56.77609933220366,1713.5358272122285,179.7551836984322,26.160987423792903
2025-02-19 16:49:23.456,698,49,673,16,-7,-61,-2,-8,8,855,0,d,-4.164261555172071,45.96898039850061,1416.9636109369885,99.47165750130719,-20.21276527305622
2025-02-19 16:49:23.566,781,-117,643,31,2,-22,-1,-12,8,848,0,d,10.312687686660569,50.07666687247774,1547.903864323675,-231.88828697294497,11.60539723415718
2025-02-19 16:49:23.666,835,62,670,-2,-3,30,-4,-9,7,840,0,d,-5.286940850235303,51.13731985062467,1613.6520098263045,119.81607737632437,45.21335738488165
2025-02-19 16:49:23.785,552,-94,712,-20,18,-6,-2,-8,5,804,38,d,7.52083581711124,37.546290854727516,1161.402202496787,-197.77501274401806,-74.04052206107292
2025-02-19 16:49:24.499,729,-31,675,-1,-3,0,-4,-10,7,808,51,e,2.6295140489489244,47.17250599391616,1462.403742702045,-62.18726477882497,-4.077539538930637
2025-02-19 16:49:24.597,731,-32,671,0,-1,0,-3,-8,7,825,54,e,2.7303679067022246,47.418112103010344,1467.3110215476781,-64.23249341932382,-4.875096386446103
2025-02-19 16:49:24.704,738,0,660,2,-5,-2,-3,-10,5,834,59,e,0.0,48.1934492732833,1483.3997889871985,0.0,-6.617697468226311
2025-02-19 16:49:24.807,738,3,664,2,2,-4,-3,-10,7,832,62,e,-0.2588647123134489,48.02107651851297,1481.3909179920267,6.021914300780597,-4.850365239438702
2025-02-19 16:49:24.916,722,2,667,-1,1,-5,-4,-9,8,831,62,e,-0.17180092293381896,47.267418379972824,1456.5288364110843,4.034705918036245,-11.574423665087465
2025-02-19 16:49:25.017,675,6,679,1,1,-10,-3,-9,6,763,63,e,-0.5062823707096508,44.82961833208577,1380.000919461058,12.266674839653849,-30.178702687494024
2025-02-19 16:49:25.132,776,245,577,1,-25,27,-4,-11,6,835,0,e,-23.006565159680136,51.06838142611029,1553.896489746845,490.59876287110444,-1.4101476597031706
2025-02-19 16:49:25.240,685,8,660,-4,5,-38,-4,-11,7,831,80,e,-0.6944602875497745,46.06275177058271,1405.1001759755695,16.409929062488402,-33.81914765529325
2025-02-19 16:49:25.351,781,252,587,24,-10,45,-2,-12,7,846,76,e,-23.233921925108035,50.719123063803124,1555.051564091364,501.7579950717334,5.2224479876687155
2025-02-19 16:49:25.457,953,138,672,-21,58,17,-2,-11,7,880,60,e,-11.604762356378805,54.251524870504205,1764.5895309045968,255.52293312154706,99.71441262551014
2025-02-19 16:49:26.476,750,-2,665,-4,-1,3,-4,-11,5,817,59,f,0.17231761432785248,48.437536362092345,1498.2328900331818,-3.9952877067551507,1.5668375039124385
2025-02-19 16:49:26.571,735,-19,658,-4,-4,3,-4,-10,5,827,62,f,1.653977815804786,48.15201792713143,1479.9175539547473,-38.256372143047884,-8.87857211186872
2025-02-19 16:49:26.677,727,-73,651,8,-23,5,-4,-10,7,849,82,f,6.398144301514218,47.97883633040234,1469.8976141892513,-147.5963216448629,-14.235690285010378
2025-02-19 16:49:26.781,851,28,589,53,3,-100,-5,-10,6,748,82,f,-2.7216892483719577,55.28158138965126,1672.960994887282,55.04454507267203,20.09867686414907
2025-02-19 16:49:26.894,707,226,651,-18,-16,11,-4,-13,8,889,82,f,-19.14486478480544,45.73402513678626,1423.1073618637106,454.9112641883996,-8.385986666584927
2025-02-19 16:49:27.000,571,101,634,-3,1,-24,-3,-14,6,785,68,f,-9.05150163606624,41.65039484135408,1235.5836859828473,218.55333149609038,-103.90903137149792
2025-02-19 16:49:27.107,709,221,645,-1,-22,27,-3,-12,7,856,76,f,-18.913288373168047,46.11994139603239,1429.792401699005,445.6757697820594,-10.727925382028502
2025-02-19 16:49:27.214,672,73,564,-54,61,21,-2,-11,6,842,50,f,-7.374941828156325,49.75920573908217,1435.3362729657897,155.92194631920034,-76.65722909628767
2025-02-19 16:49:28.031,743,34,648,1,-3,-1,-2,-12,6,794,72,g,-3.003505829306962,48.86799861928914,1496.1961113416148,68.46657844631885,-8.892436271018028
2025-02-19 16:49:28.127,745,73,641,-2,2,-12,-4,-11,8,774,81,g,-6.497112351883042,49.10860635387513,1500.9518087416864,147.0731302525411,-9.422965642175768
2025-02-19 16:49:28.231,906,106,561,2,6,34,-4,-13,6,545,82,g,-10.69979780336686,57.782443132201635,1752.0298397103688,204.9836236305729,37.13384097404332
2025-02-19 16:49:28.340,648,-54,702,1,0,-40,-3,-11,6,861,76,g,4.398705354995532,42.62516269839964,1325.1991775797205,-110.43326479831003,-31.63244237803042
2025-02-19 16:49:28.455,726,231,743,-16,-11,61,-3,-12,7,832,76,g,-17.270560782798135,43.0168433525836,1408.2133280712872,448.0678771135913,44.81197967360026
2025-02-19 16:49:28.557,889,21,607,28,31,-24,-1,-9,6,434,82,g,-1.9814360285019417,55.65918300006629,1714.6966339990154,40.50464489761453,43.22288319752283
2025-02-19 16:49:28.664,599,-71,775,-50,45,1,-1,-9,2,568,27,g,5.234421302016938,37.584760630822835,1208.9344113661127,-143.29606545408012,-14.14719333679011
2025-02-19 16:49:29.487,703,-15,678,-6,-5,-16,-2,-10,4,738,48,h,1.2673989852332606,46.030097317589174,1422.7046032336054,-30.356428234002962,-16.110556176933983
2025-02-19 16:49:29.578,718,2,664,-1,-5,-8,-3,-11,4,777,55,h,-0.17257712723883567,47.2374963104948,1452.1743568905772,4.045053918915257,-14.957901079865337
2025-02-19 16:49:29.687,729,45,672,-3,-4,-9,-6,-10,5,783,64,h,-3.831051361056691,47.265924733601075,1463.511146293395,90.34019421564165,-5.080233620248691
2025-02-19 16:49:29.798,675,27,677,-10,-20,-36,-4,-11,7,774,79,h,-2.2838502763280952,44.89247811926709,1380.7785726197262,55.23114290478905,-30.86976839045144
2025-02-19 16:49:29.898,730,-80,625,20,-1,-27,-4,-12,6,610,93,h,7.294196308540855,49.20089497631017,1487.0052621743794,-162.95948078623337,-23.120943642448083
2025-02-19 16:49:30.009,778,125,586,15,4,21,-4,-12,7,611,89,h,-12.041328227117758,52.39801434020351,1570.268497504781,252.29249638572958,-10.7472230563003
2025-02-19 16:49:30.116,720,-43,760,-6,-19,3,-3,-13,7,852,72,h,3.2382823996062653,43.40613087510637,1407.1652532353357,-84.03903595711031,34.65889936270128
2025-02-19 16:49:30.217,1061,-11,576,2,28,11,-6,-11,9,866,0,h,1.094057244375989,61.49878936322748,1939.807030293132,-20.111100219815697,98.90966121692361
2025-02-19 16:49:30.331,477,-168,759,-22,22,1,-2,-8,5,753,30,h,12.480841391756988,31.533568509398343,999.9980206959005,-352.20056074824174,-73.1918190947348
2025-02-19 16:49:30.437,784,-56,707,12,-25,2,-1,-5,4,636,35,h,4.528824236932539,47.867186844414974,1525.5917676014292,-108.9708405429592,38.24313814514005
2025-02-19 16:49:30.539,792,-57,749,9,-23,22,-4,-7,7,540,40,h,4.351904646994392,46.51576958912558,1517.5638002271671,-109.21860683453096,62.82918387607572
2025-02-19 16:49:30.647,816,-21,564,2,8,6,-3,-9,9,517,40,h,2.132368436554014,55.33011799043052,1638.4431738220064,-42.165816973360464,-4.4533701416810345
2025-02-19 16:49:30.761,855,-46,674,-25,21,10,-3,-9,9,527,67,h,3.904339871094183,51.68639966075627,1639.6292310432902,-88.21397032513607,55.47356523604958
2025-02-19 16:49:30.867,597,-80,653,1,13,-13,-3,-8,6,625,44,h,6.984585797964484,42.22240026167295,1269.0101616999445,-170.05161295811652,-82.04629077062611
2025-02-19 16:49:30.975,703,-43,687,1,-3,-7,-3,-8,5,668,51,h,3.581526561617763,45.60349796904609,1417.5153935017402,-86.70435550579634,-11.253307732141366
2025-02-19 16:49:31.080,751,-4,665,3,-1,-3,-4,-9,6,685,57,h,0.3446321114468984,48.47504477732506,1499.6670450650706,-7.987574141491721,2.06579897700135
2025-02-19 16:49:31.181,739,6,681,3,-4,-4,-4,-9,6,704,59,h,-0.504795568555829,47.33784185360839,1474.3623355134328,11.970465511611094,3.3521644321409667
2025-02-19 16:49:31.294,730,0,662,-1,-2,-2,-3,-10,7,719,61,h,0.0,47.796708503275845,1470.766006425934,0.0,-9.76314555338115
2025-02-19 16:49:31.401,742,-1,663,1,-2,-3,-5,-10,6,719,64,h,0.08641890809153593,48.21819216151715,1487.6875949037785,-2.004969804452532,-3.2949803520288015
2025-02-19 16:49:31.507,737,-17,668,0,-4,-2,-4,-9,7,725,67,h,1.457811459176475,47.80232569316904,1477.8318614890413,-34.08838757844465,-3.4731119059426874
2025-02-19 16:49:31.617,742,-11,668,-1,-1,-2,-4,-11,6,728,70,h,0.9434081085273278,48.0003939609148,1485.1494263450586,-22.01704001320168,-1.0347935289745465
2025-02-19 16:49:31.716,745,3,666,-2,0,-1,-3,-10,5,733,70,h,-0.2580873513361871,48.20427943597416,1490.5257810788685,6.002117239243766,-0.4700271121160995
2025-02-19 16:49:31.830,744,-6,655,-1,0,0,-3,-10,7,732,71,h,0.524832155798528,48.63888060916712,1494.5596595770226,-12.052900480459861,-5.774969116868078
2025-02-19 16:49:31.936,738,2,660,0,-1,-1,-4,-9,5,733,71,h,-0.17362304283848734,48.193318557214404,1483.3982681464533,4.02004950717196,-6.616337366746848
2025-02-19 16:49:32.040,744,8,668,-1,0,1,-4,-10,6,732,71,h,-0.6861441978352363,48.07889347221282,1488.0654806435718,16.000704092941632,-0.058791760626377254
2025-02-19 16:49:32.763,722,-2,670,-2,-1,1,-3,-9,4,748,67,i,0.17103166964991307,47.139237512430164,1455.008900815742,-4.030495570126709,-10.216015992447524
2025-02-19 16:49:32.858,730,-19,670,1,-4,0,-4,-10,7,765,66,i,1.6243703479684553,47.44255918274442,1466.5996660289388,-38.17177212952032,-6.057227725190273
2025-02-19 16:49:32.964,731,-11,660,3,-5,1,-4,-9,6,769,73,i,0.9548412538721887,47.91802150172292,1473.186676598586,-22.168335762769416,-10.100145766165156
2025-02-19 16:49:33.067,744,25,646,-1,0,-1,-4,-10,5,748,79,i,-2.2162229827474587,49.01165973246545,1498.8430730803252,50.36435057393565,-9.414818830497211
2025-02-19 16:49:33.180,756,-82,656,-5,2,-13,-3,-10,5,639,81,i,7.125016348901798,48.83102847703635,1508.7715112210876,-163.6498200001709,2.8014399986328726
2025-02-19 16:49:33.287,803,161,574,-1,1,45,-4,-9,6,721,85,i,-15.668160421752487,53.40959436914231,1605.9173037763471,321.98341956163375,0.0591128672188006
2025-02-19 16:49:33.397,312,-324,597,4,-71,-73,-3,-11,6,533,85,i,28.48928442291636,24.6706405851831,729.4014826045179,-757.4553857816147,-201.68168306056805
2025-02-19 16:49:33.505,794,-12,666,-33,-11,40,-3,-11,7,788,82,i,1.032244691565731,50.0058021949688,1560.1095326248133,-23.57848160138257,23.39427112326746
2025-02-19 16:49:33.612,485,-129,762,6,-11,-3,-2,-9,6,753,38,i,9.60857786869409,32.11048101395428,1016.5535331165298,-270.3822799423348,-73.14183965937275
2025-02-19 16:49:34.427,734,-31,661,0,-3,1,-3,-9,7,777,67,j,2.685126570642003,47.9642408613711,1476.7270665177675,-62.36858182840707,-7.859115760550935
2025-02-19 16:49:34.516,740,-25,666,0,-2,-5,-3,-10,6,775,68,j,2.1497331475183046,47.9927290090413,1483.0599049916204,-50.103375168635836,-2.7539144924585344
2025-02-19 16:49:34.630,819,-156,671,16,-1,18,-3,-10,8,793,81,j,13.088125216424544,49.93139140653169,1584.2741907399873,-301.7665125219023,44.01711601156126
2025-02-19 16:49:34.738,798,45,583,-34,-1,28,-3,-7,8,275,93,j,-4.413735727030889,53.76792001498492,1604.629504756273,90.4866262080605,-6.304512873317208
2025-02-19 16:49:34.849,172,-382,640,-54,-18,-54,-3,-8,4,752,58,j,30.831921100879498,12.994591683323351,396.8590796936012,-881.3963281567189,-196.6849476971205
2025-02-19 16:49:34.946,845,-43,661,-6,-16,41,-5,-10,6,832,83,j,3.722015014716204,51.90703278077776,1632.0107542126652,-83.0490679658516,45.36200173423458
2025-02-19 16:49:35.062,468,-146,706,-11,11,6,-3,-7,5,802,39,j,11.684001889317834,32.98978086812583,1012.4894431688949,-315.8620912449971,-115.38792067786278
2025-02-19 16:49:36.379,743,11,659,-1,-2,-2,-4,-11,7,620,74,k,-0.9562899095193499,48.42478197896321,1491.0851866386593,22.0752854011107,-4.510279939268344
2025-02-19 16:49:36.467,748,13,662,0,-1,-3,-3,-11,7,602,77,k,-1.1249991102115162,48.48483053519949,1496.7802611748325,26.013560688867415,-0.6905520023251484
2025-02-19 16:49:36.585,709,58,655,-1,-1,-21,-3,-12,6,400,84,k,-5.0603208982382375,47.15558074209597,1442.202898828798,117.97992684354057,-22.359518664121993
2025-02-19 16:49:36.692,789,-169,725,20,-5,-3,-2,-11,4,222,84,k,13.12153031263074,46.6646077388553,1516.3489809625537,-324.79464864723906,56.65017592160757
2025-02-19 16:49:36.794,809,75,656,24,6,28,-3,-10,6,613,85,k,-6.522265026785007,50.78005272562464,1583.7244035148565,146.82241070904107,27.79331433158734
2025-02-19 16:49:36.896,683,93,745,4,-11,-21,-3,-10,5,798,80,k,-7.115550665936026,42.293349133517495,1355.9266529545548,184.6283729498881,10.987765078853386
2025-02-19 16:49:37.011,903,33,479,15,12,-15,-5,-12,5,1,84,k,-3.941081064645857,61.99991191242605,1785.9468710837605,65.26716140173211,10.637263290009741
2025-02-19 16:49:37.118,681,70,687,-13,-19,37,-4,-9,7,761,87,k,-5.817919400105216,44.60076895929593,1383.162608942014,142.17530488390747,-21.349063646348895
2025-02-19 16:49:37.229,587,-103,600,-18,56,10,-4,-8,5,658,43,k,9.740830419865711,43.95668494055171,1281.1143580191115,-224.79519399653915,-109.48656697013098
2025-02-19 16:49:38.146,719,-38,675,1,-7,-3,-3,-9,5,706,65,l,3.2221391059071394,46.762638162934465,1447.522088150394,-76.5032536157371,-8.939373437435393
2025-02-19 16:49:38.240,750,-10,661,2,-3,-2,-4,-10,6,714,75,l,0.8667384105232707,48.605945551163984,1500.1796895560506,-20.002395860747338,-0.15836639539907083
2025-02-19 16:49:38.347,724,16,660,-3,7,-15,-2,-10,6,661,76,l,-1.3887165895513243,47.63924982691228,1462.917090557375,32.32965945983149,-13.598452718049089
2025-02-19 16:49:38.457,753,-106,654,-1,-6,-25,-4,-11,6,453,87,l,9.20641223950482,48.65674598185173,1503.7656676937868,-211.6854724774786,1.9405754691413222
2025-02-19 16:49:38.561,779,266,564,-6,-7,44,-4,-11,6,376,73,l,-25.250027508226342,51.32315421897429,1559.6830150147366,532.5746880538125,-1.2185115125947732
2025-02-19 16:49:38.666,658,-47,608,-41,56,14,-4,-9,5,707,52,l,4.4203236835557655,47.176606167096224,1391.4523878682503,-99.3894562763036,-69.7189237445233
2025-02-19 16:49:38.777,675,-42,692,8,-21,-13,-3,-9,5,674,46,l,3.4732288906246223,44.23485601171989,1372.6011079428024,-85.40629116088549,-23.17032103173233
2025-02-19 16:49:39.695,715,14,688,2,-1,-2,-3,-11,6,497,68,m,-1.1657416063011854,46.096565576508624,1435.5095464949823,28.10787923206958,-5.301493690276516
2025-02-19 16:49:39.791,720,37,668,11,-7,-9,-3,-11,5,280,75,m,-3.1703291201149733,47.10176676211965,1452.5638890226292,74.64564429699624,-11.65649703766178
2025-02-19 16:49:39.895,700,-43,658,2,4,-21,-4,-12,6,0,85,m,3.738936661519543,46.710541378047736,1427.8989234031337,-87.71379100904966,-26.22498799894595
2025-02-19 16:49:40.001,743,56,685,19,5,20,-3,-11,6,2,74,m,-4.673641144441503,47.230749101763855,1477.0943966708328,111.32878359834002,8.21041491316214
2025-02-19 16:49:40.116,682,31,762,-47,-20,18,-4,-11,6,727,82,m,-2.329645995598187,41.80541893961652,1348.6029731495341,61.30013514316064,17.20312970682562
2025-02-19 16:49:40.217,795,-50,600,26,-1,-13,-4,-9,7,649,86,m,4.763641690726178,52.86215176747663,1592.1852899522019,-100.13743961963534,-1.649275435623963
2025-02-19 16:49:40.329,734,-20,720,-33,-9,-9,-4,-11,7,804,81,m,1.5911402711945875,45.540615552438055,1447.747127044129,-39.44815060065747,19.866578376331177
2025-02-19 16:49:40.428,768,26,612,16,1,16,-4,-10,8,700,87,m,-2.432671582497174,51.42435455089481,1549.785592498998,52.46669974605982,-10.985394022638843
2025-02-19 16:49:40.540,718,-28,638,-45,54,11,-3,-8,5,766,49,m,2.5129357718150347,48.34899539444935,1465.2067682929992,-57.13898260752643,-25.952532271494988
2025-02-19 16:49:40.647,744,-36,675,18,-24,-6,-3,-9,7,740,44,m,3.052882514792428,47.74336331142258,1484.1402408840695,-71.81323746213238,3.501797585017698
2025-02-19 16:49:40.746,714,-42,673,2,-3,-8,-2,-9,6,715,53,m,3.5710341178882254,46.637597416420554,1441.0253804443173,-84.76619884966571,-12.277424424405467
2025-02-19 16:49:40.862,735,-48,666,3,-2,-3,-3,-10,7,653,61,m,4.122297811783643,47.74570789427099,1475.1677574866633,-96.33748620321066,-4.682621069547736
2025-02-19 16:49:40.967,725,-18,667,10,1,-4,-2,-10,6,671,67,m,1.5458377500172937,47.37555209383092,1460.80819953927,-36.26834150580257,-9.94354357612815
2025-02-19 16:49:41.074,711,3,683,8,3,-3,-3,-11,6,602,70,m,-0.2516635917147345,46.150416935211055,1432.1609856987934,6.042873357378874,-9.760834363257004
2025-02-19 16:49:41.178,723,-1,673,3,1,-2,-6,-11,6,516,73,m,0.08513482518020717,47.05123271458206,1454.9632381479714,-2.0123972865117166,-8.343373822385274
2025-02-19 16:49:41.288,723,8,679,0,0,-1,-3,-9,7,496,72,m,-0.6750294967667472,46.79558134547547,1451.9158329329907,16.06545873231525,-5.555809905256638
2025-02-19 16:49:41.399,735,20,679,-1,-1,0,-3,-11,5,515,72,m,-1.6871640105941756,47.2555711380167,1469.3885089520759,39.98336078781159,0.5649012537963927
2025-02-19 16:49:42.316,729,31,673,-1,0,-1,-4,-12,7,548,73,n,-2.6373173384687503,47.25708176259236,1463.4064036487916,62.22990193842598,-4.991096921312305
2025-02-19 16:49:42.409,728,19,682,0,0,-1,-5,-10,5,536,73,n,-1.5958039624881077,46.85747173451333,1457.6549099259323,38.0431913304845,-1.5503414416015175
2025-02-19 16:49:42.516,727,25,673,-2,2,0,-4,-11,6,503,72,n,-2.127394020236124,47.18919114818626,1460.6016748096122,50.22701770321912,-6.111316570658687
2025-02-19 16:49:42.627,685,34,678,9,-3,-8,-4,-10,5,313,71,n,-2.870834794906758,45.258278517927074,1395.2870894633882,69.25512560840174,-25.02868124989368
2025-02-19 16:49:42.728,726,6,703,-16,3,-20,-4,-11,6,235,83,n,-0.4889990471877206,45.92106294384994,1444.3820791084736,11.937041976103085,7.376581799921837
2025-02-19 16:49:42.837,747,120,631,18,3,17,-3,-12,3,63,81,n,-10.767606941077325,49.309358352989356,1505.2408359722085,241.80575678268409,-9.495271082280397
2025-02-19 16:49:42.954,684,-121,750,-23,-14,-21,-4,-13,7,790,78,n,9.164748880954555,41.99853711843922,1353.1116320929095,-239.36623901058778,16.324964810406414
2025-02-19 16:49:43.058,861,10,613,14,-4,31,-4,-10,6,805,82,n,-0.9345953962296406,54.54694542402972,1675.5910452845299,19.460987750110682,33.041450918215105
2025-02-19 16:49:43.161,484,-180,742,-19,18,0,-3,-9,6,734,38,n,13.63583475483229,32.370833539559186,1019.3969197953427,-379.1145569486812,-78.79445142178554
2025-02-19 16:49:43.270,790,28,647,7,-18,-2,-2,-9,5,708,54,n,-2.4780238230509126,50.65667929860884,1563.3610963508672,55.41026670610668,13.627051469606272
2025-02-19 16:49:43.377,727,-29,665,1,-7,0,-3,-9,6,707,61,n,2.4970308362758145,47.523173615285515,1464.5505229352914,-58.420859924516435,-9.6507534414975
2025-02-19 16:49:43.478,729,-22,669,-2,-2,0,-3,-8,7,704,63,n,1.8834873931233629,47.442112936145506,1465.5943984367386,-44.229186235402274,-6.969345067459926
2025-02-19 16:49:43.594,748,-19,670,-3,-3,0,-3,-11,7,709,66,n,1.6243703479684553,48.137053644317795,1492.7432832723712,-37.91727591199873,2.917112576886666
2025-02-19 16:49:43.697,736,-38,671,-4,-2,1,-3,-9,7,675,68,n,3.241306254548694,47.599372101003695,1474.4479509658313,-76.12638877269237,-2.2317596441205296
2025-02-19 16:49:43.806,715,-37,664,-3,0,0,-4,-9,6,675,67,n,3.1893881779143793,47.07373418987764,1447.2307624510877,-74.8916618331332,-16.001715059471394
2025-02-19 16:49:43.911,718,-34,671,-2,0,-1,-3,-9,7,673,65,n,2.9007330051142826,46.90134730147391,1448.1783434969475,-68.57669036057968,-11.381153880851798
2025-02-19 16:49:44.937,724,-38,669,-3,-1,-2,-3,-10,6,642,63,o,3.250975504879343,47.21504296429877,1457.9082260211678,-76.52004501216072,-9.155529293040104
2025-02-19 16:49:45.027,720,-40,673,-1,-5,1,-3,-11,7,667,66,o,3.4013940670439387,46.88203477246825,1449.9479986192944,-80.55266658996078,-9.29861537609031
2025-02-19 16:49:45.133,742,-33,651,0,-4,2,-2,-8,6,690,71,o,2.901910468883643,48.70117929391855,1493.2777178694478,-66.4126208755954,-8.13988454583614
2025-02-19 16:49:45.243,1066,1,706,18,1,-12,-5,-10,7,748,83,o,-0.08115544078765778,56.483905677658406,1899.7307506699303,1.7821113983770447,153.82935274580632
2025-02-19 16:49:45.351,655,-78,694,8,7,-28,-4,-11,5,277,85,o,6.412672136738494,43.16455085980766,1339.0959589757047,-159.46486229023657,-30.82839012082286
2025-02-19 16:49:45.460,737,239,673,-18,-18,35,-3,-10,5,733,84,o,-19.551288629155263,45.90099579865639,1455.138392594944,471.8834136094865,17.223693057805804
2025-02-19 16:49:45.566,787,19,548,22,22,-31,-4,-12,7,674,81,o,-1.9857370613817786,55.133780362474894,1607.4890582438043,38.80850331211218,-23.31893763355106
2025-02-19 16:49:45.674,528,-71,701,-35,33,34,-3,-8,5,672,41,o,5.783416430529036,36.84700182149139,1127.6802660867284,-151.63882365938963,-95.16641387650873
2025-02-19 16:49:46.595,723,-32,677,-18,-6,-1,-3,-10,4,643,66,p,2.7062058015554222,46.849999463494406,1452.5657234151063,-64.29059909997704,-6.14798720888939
2025-02-19 16:49:46.690,709,-46,650,-14,-11,-15,-4,-11,7,654,78,p,4.048029350742212,47.414595980706395,1445.269495978779,-93.76924797605616,-25.000243139924123
2025-02-19 16:49:46.797,742,-116,654,2,1,-16,-3,-11,7,499,86,p,10.057949943588588,48.16640705061649,1487.0850785396963,-232.48230338356436,-2.7191932142335418
2025-02-19 16:49:46.897,825,131,558,-6,-12,41,-5,-8,7,0,90,p,-13.211900647081327,55.21025363591163,1646.2513307166898,261.40475675622594,2.5354635879842817
2025-02-19 16:49:47.010,694,-118,682,3,14,-74,-4,-9,7,654,82,p,9.816163378753748,45.07717504232981,1402.0585829999045,-238.39036425646793,-13.81549510941636
2025-02-19 16:49:47.112,659,62,749,1,-13,8,-5,-12,6,810,82,p,-4.731986567144183,41.24560730832843,1318.2881719104512,124.02711177306219,-0.3275277100577796
2025-02-19 16:49:47.217,873,23,500,40,23,16,-5,-10,6,472,84,p,-2.633749233537388,60.172484605648464,1740.5266894082138,45.85580052278225,3.134771243863952
2025-02-19 16:49:47.327,496,-102,799,-21,2,-1,-3,-10,4,679,38,p,7.275004957889255,31.623871976347232,1020.3407278957919,-209.82813355921525,-45.653712880519606
2025-02-19 16:49:48.446,771,-36,653,-1,-3,0,-3,-9,6,741,82,q,3.155531656726751,49.6941201024545,1533.6019498023381,-71.60787314252163,7.112745498149366
2025-02-19 16:49:48.538,769,-19,648,0,-3,2,-3,-9,7,774,85,q,1.679487657485791,49.86861086631366,1533.568407053792,-37.890506806270544,3.734294186141483
2025-02-19 16:49:48.647,742,0,655,4,5,-16,-4,-9,8,727,87,q,0.0,48.56356736698345,1491.6904100327545,0.0,-6.788704274196903
2025-02-19 16:49:48.756,870,20,645,26,11,28,-4,-11,5,0,84,q,-1.7760442533587346,53.43435488969924,1673.1748308285587,38.46378921444962,49.54279783399977
2025-02-19 16:49:48.867,674,-98,666,29,-3,-41,-4,-10,8,763,86,q,8.370839506877783,45.03523229520064,1381.5414612581192,-200.87694837284226,-33.143343023601346
2025-02-19 16:49:48.975,820,149,615,-24,-15,58,-4,-9,7,420,87,q,-13.618995263045896,52.342708707643375,1611.6791499941316,292.85389432820193,21.24063750440132
2025-02-19 16:49:49.083,744,-92,696,13,-2,-10,-3,-8,7,823,85,q,7.529926777687562,46.66151986153768,1471.3119944473724,-181.9364294209116,15.611360033103665
2025-02-19 16:49:49.189,486,-173,704,-36,19,18,-3,-6,5,678,32,q,13.806218155038097,33.837735839702695,1042.8427933520652,-371.217702160303,-102.6200134153371
2025-02-19 16:49:50.096,750,-56,654,-1,-3,-6,-5,-8,8,681,60,r,4.894122744414065,48.80788058650943,1502.5054993637289,-112.1870772858251,-2.1847954451716305
2025-02-19 16:49:50.200,742,-32,661,0,-1,-5,-4,-9,6,692,64,r,2.771610601706297,48.27090307920915,1488.3002573873068,-64.18545584419653,-3.830822281684391
2025-02-19 16:49:50.310,768,-36,655,-1,1,-3,-3,-10,6,706,67,r,3.145915828493418,49.49764476571855,1528.3792683610786,-71.64277820442555,6.499452113923894
2025-02-19 16:49:50.417,736,-30,665,-3,3,-1,-5,-10,5,728,64,r,2.583020668635057,47.8721843296026,1477.6502781673923,-60.23031025138827,-5.1052105724401144
2025-02-19 16:49:50.517,737,-45,659,0,-1,0,-4,-9,5,755,64,r,3.9063942380027616,48.1317855750507,1481.6819204281946,-90.4690453450051,-6.868908496852441
2025-02-19 16:49:50.630,726,-37,674,0,-2,0,-4,-11,7,784,65,r,3.142163411829754,47.084165957698325,1458.3547494030317,-74.32386463899749,-5.899588288765017
2025-02-19 16:49:50.737,729,-44,659,2,-3,1,-3,-10,7,792,67,r,3.8198453831189725,47.82371337010596,1470.0825421205495,-88.72926180151464,-10.922352890867046
2025-02-19 16:49:50.846,748,-30,657,-1,-1,-4,-5,-11,7,791,73,r,2.6144295965954436,48.676208623031656,1498.9900110626647,-60.11992022978602,-2.626253032313798
2025-02-19 16:49:50.946,817,0,589,0,2,-19,-3,-11,6,702,86,r,0.0,54.21102654081667,1628.176378747386,0.0,4.198424623977644
2025-02-19 16:49:51.059,723,188,655,-8,-14,50,-5,-9,7,755,87,r,-16.014691306982556,46.694731828899116,1450.7096956879577,377.2246511609074,-4.266736757416652
2025-02-19 16:49:51.171,803,-150,665,18,-4,-51,-4,-12,7,797,85,r,12.711132565529491,49.670384399716106,1565.3339088299501,-292.4035944265162,33.67739804244479
2025-02-19 16:49:51.277,1086,97,669,-23,49,23,-3,-11,7,867,72,r,-8.24996782680239,58.099235804507586,1934.9646393871337,172.8283333522578,146.0190204880364
2025-02-19 16:49:52.392,754,-19,651,0,-2,0,-4,-9,7,822,74,s,1.6717524850654866,49.18076458749202,1510.775645793521,-38.06994332901445,-2.396479325705627
2025-02-19 16:49:52.487,751,-19,638,2,-4,1,-5,-10,7,828,75,s,1.7057964829444119,49.63843763559444,1512.9729359902913,-38.27761089722441,-9.321881706798763
2025-02-19 16:49:52.596,783,11,664,-1,-6,-4,-4,-11,6,836,85,s,-0.9490902534636001,49.69749660625187,1545.6400691289634,21.713972874097827,17.265637418095025
2025-02-19 16:49:52.707,741,-45,671,-12,-1,-20,-3,-12,7,792,87,s,3.836743786426236,47.77414810621982,1481.5014401136264,-89.96972308382345,0.4514624612102125
2025-02-19 16:49:52.808,911,-64,655,51,3,41,-3,-10,6,714,83,s,5.5806513142138545,54.15512071846775,1721.6053780080981,-120.94702984908704,72.18274138824984
2025-02-19 16:49:52.909,722,11,650,-12,-5,24,-3,-8,7,753,0,s,-0.9695283365560804,47.99994082274907,1465.1441343735669,22.32214055139783,-19.03557803714466
2025-02-19 16:49:53.024,966,35,713,-15,56,24,-3,-9,6,548,64,s,-2.8102999495580496,53.53619241805408,1770.232436006276,64.13885637703896,119.39986866203469
2025-02-19 16:49:54.142,739,-33,672,-2,-1,-1,-3,-9,7,636,56,t,2.8113735945265317,47.684246375025864,1478.4460204660802,-66.01991701675325,-0.4055828866116826
2025-02-19 16:49:54.237,736,-40,669,-1,-1,-2,-4,-7,6,653,57,t,3.421683074670401,47.67929784244442,1475.3878732758665,-80.18412354760144,-3.079466333634059
2025-02-19 16:49:54.342,736,-39,666,-2,0,-3,-2,-7,5,660,59,t,3.3513310679237622,47.80953413009982,1476.9163616536184,-78.26051372892817,-4.448772909388708
2025-02-19 16:49:54.446,729,-40,660,-2,-1,-4,-2,-9,6,679,60,t,3.468229258917148,47.79162589222431,1469.7064125464783,-80.64232716304409,-10.598398190227272
2025-02-19 16:49:54.559,735,-37,659,-3,-2,-4,-3,-10,6,725,60,t,3.213536348145959,48.075820803106204,1479.029650218837,-74.4545538205401,-8.095972100970698
2025-02-19 16:49:54.668,732,-27,673,0,-4,-10,-3,-9,7,775,62,t,2.297409921494936,47.38164631101033,1467.8802241189078,-54.1431230207794,-3.5674738142419073
2025-02-19 16:49:54.775,742,-3,666,-2,1,-4,-3,-9,6,799,64,t,0.2580873513361871,48.08938266182192,1486.1877790651656,-6.008845467918459,-1.9636938778980948
2025-02-19 16:49:54.882,741,6,652,-3,-1,-6,-4,-9,7,815,64,t,-0.5272468916673372,48.654505976520554,1491.73984188019,12.078865116438786,-8.570009319681276
2025-02-19 16:49:54.991,739,-10,666,-1,-2,-3,-3,-10,7,823,62,t,0.8602323469173488,47.971047655027554,1481.8066097205256,-20.051510280386005,-3.430584673707699
2025-02-19 16:49:55.095,765,23,662,1,-2,-6,-3,-11,8,826,67,t,-1.9898384846920552,49.11131378623784,1520.9827413987596,45.728892878655515,7.803170188263039
2025-02-19 16:49:55.200,708,-7,662,3,-8,-6,-4,-9,7,830,69,t,0.6058240328054,46.92147956169536,1438.4183771775272,-14.221650621811708,-20.961815948478943
2025-02-19 16:49:55.311,749,36,637,-4,1,-12,-4,-11,6,820,78,t,-3.2346252322357705,49.57483354350256,1510.2535555017455,72.58895593866868,-10.421248136998543
2025-02-19 16:49:55.418,672,-138,653,26,2,-32,-3,-12,7,757,79,t,11.932871148772604,45.19580193412989,1381.5191060328502,-283.70481641746034,-36.458297975373625
2025-02-19 16:49:55.524,813,174,648,8,-4,44,-3,-11,6,797,77,t,-15.030430523433274,50.46774447964214,1584.2663713355391,339.06807947402683,33.26370402776206
2025-02-19 16:49:55.628,538,-7,617,-3,2,-42,-3,-11,5,574,71,t,0.6500052676296924,41.08533574484218,1195.182357601393,-15.550699820092479,-136.6831127138654
2025-02-19 16:49:55.740,701,149,629,5,-28,22,-3,-11,8,802,76,t,-13.326801030915194,47.32018905226884,1436.1535095480406,305.2594478211955,-30.645588453234495
2025-02-19 16:49:55.847,876,141,595,-70,69,26,-4,-9,6,793,55,t,-13.331729525538128,55.08361624205437,1695.9882369350075,272.98440799981284,38.04451943341394
2025-02-19 16:49:56.867,725,31,681,-1,-1,-1,-3,-11,7,601,73,u,-2.6063786135720997,46.76286092346242,1453.524751446322,62.150713510118585,-3.3108354964762157
2025-02-19 16:49:56.958,733,33,666,0,-2,0,-4,-12,5,619,75,u,-2.8366601011254517,47.70691159402951,1472.7122751452143,66.3021897405076,-6.098738399335161
2025-02-19 16:49:57.069,722,26,663,-5,2,-3,-4,-12,6,625,72,u,-2.2457425658950716,47.41735161449509,1458.3020403777484,52.515031924960475,-13.133314086491964
2025-02-19 16:49:57.174,707,39,669,-3,1,-6,-4,-12,6,538,69,u,-3.336336702213327,46.533369745654554,1432.7751538832918,79.03568741364693,-17.76602255717421
2025-02-19 16:49:57.282,751,-18,609,1,0,-23,-4,-11,7,361,83,u,1.6929784376289005,50.94851639674687,1527.5801666806358,-36.613106524968636,-20.743437428105494
2025-02-19 16:49:57.391,784,148,668,2,-12,25,-4,-10,7,799,84,u,-12.49247557736109,48.88871355338346,1537.4338841891647,290.2298658928525,26.04357826739556
2025-02-19 16:49:57.496,747,-42,625,6,-3,-27,-2,-11,6,804,0,u,3.8444962923603043,50.01791034745011,1513.245337581343,-85.08206717324819,-16.102190078098033
2025-02-19 16:49:57.605,827,40,616,-6,-7,27,-3,-10,6,848,78,u,-3.7152891054287682,53.26124846172418,1628.3712619458988,78.7603996104425,19.0898459991854
2025-02-19 16:49:57.712,509,-133,720,-14,8,-7,-3,-9,4,764,37,u,10.465828567607739,34.806381807437994,1079.8050266596747,-282.1494470446694,-87.42557798618031
2025-02-19 16:49:57.818,760,-11,670,1,-11,-5,-1,-9,5,725,48,u,0.9405924716156135,48.597448080082735,1510.0816144495786,-21.856444419664953,8.743839893134577
2025-02-19 16:49:57.924,734,-13,672,-2,-3,-2,-3,-9,7,731,52,u,1.1082622589558977,47.519581876774225,1471.508189011622,-26.062134137808027,-3.2118569697686326
2025-02-19 16:49:58.034,744,-8,669,-4,-2,-2,-3,-11,6,728,53,u,0.6851186690671791,48.03628943338408,1487.5684837064805,-15.99536003985463,0.3880166671565348
2025-02-19 16:49:58.141,735,-26,680,-5,4,1,-3,-11,5,731,50,u,2.18965435095854,47.205061016053804,1468.7898776376574,-51.95719295044774,1.1195689882899842
2025-02-19 16:49:58.246,711,-43,686,-1,-2,0,-2,-9,5,728,48,u,3.5867338266506588,45.969091300207765,1429.9649562699542,-86.48170621604507,-7.684894516439726
2025-02-19 16:49:58.347,721,-37,679,-2,-3,0,-3,-9,6,718,48,u,3.119071097556832,46.675962482663614,1448.484969624034,-74.3327931707202,-6.1072044032164285
2025-02-19 16:49:58.458,727,-35,676,0,-2,-2,-4,-10,5,722,49,u,2.963850985712279,47.043576771371086,1458.8721894466032,-70.234562077897,-4.530398990239178
2025-02-19 16:49:58.566,731,-36,675,0,-2,-1,-3,-10,6,720,50,u,3.052882514792428,47.24028615691627,1465.207415992175,-72.15795755912214,-2.9617042335402175
2025-02-19 16:49:58.679,725,-35,676,-1,-1,-1,-4,-10,7,719,51,u,2.963850985712279,46.9648499953118,1455.9351694046243,-70.28652541953359,-5.534033817277191
2025-02-19 16:49:58.781,730,-30,674,-2,0,0,-4,-7,5,724,51,u,2.548575079347835,47.25582980230633,1464.3915730977333,-60.18047560675616,-4.054685298454956
2025-02-19 16:49:58.891,737,-27,667,-1,0,0,-4,-11,6,723,51,u,2.3180538338641865,47.830926922837186,1478.1670674258635,-54.15266054341697,-3.77128083181924
2025-02-19 16:49:58.996,732,-32,676,-1,-1,0,-2,-8,6,726,51,u,2.710203100174587,47.245647374887795,1466.2709404266152,-64.09927608422362,-2.097207279223994
2025-02-19 16:49:59.104,730,-26,671,0,-1,-1,-4,-9,7,729,52,u,2.2189946183675144,47.39004478726939,1465.9794679701458,-52.21296735236136,-5.496195901325791
2025-02-19 16:49:59.207,729,-37,671,0,-1,0,-4,-8,7,727,53,u,3.156183493260849,47.328984784452075,1464.2575684583528,-74.31759949651448,-5.7597097881407535
2025-02-19 16:49:59.316,731,-28,677,-1,-1,0,-3,-9,5,729,53,u,2.3683427224167364,47.17193697583396,1464.3969914759768,-56.09181362698679,-2.2199223382164064
2025-02-19 16:49:59.424,725,-37,674,-2,0,0,-5,-8,5,708,53,u,3.142163411829754,47.04478134382871,1456.8865157532716,-74.3514497694773,-6.402084989937748
2025-02-19 16:49:59.526,725,-38,670,-1,-1,0,-4,-9,5,709,52,u,3.246133686992798,47.21194127561147,1458.871454038027,-76.46498655647589,-8.198447179969662
2025-02-19 16:49:59.640,727,-44,673,0,-3,-1,-2,-9,6,707,53,u,3.740611502058342,47.147965840157276,1460.112515557826,-88.36994592096883,-5.658491018455152
2025-02-19 16:50:00.756,733,-18,665,0,-1,-1,-3,-9,7,633,54,v,1.5504846201281761,47.77428301454516,1473.5030225280213,-36.18424884789138,-6.806971324876031
2025-02-19 16:50:00.857,737,-13,669,1,-2,-2,-3,-10,7,637,57,v,1.113230797002376,47.76352177956586,1477.3767851520684,-26.059563374459824,-3.0652228856632746
2025-02-19 16:50:00.960,749,1,661,2,-2,-5,-4,-8,7,633,61,v,-0.08668038699147607,48.57124216886993,1498.7790502758337,2.0010401205284825,-0.687519669326889
2025-02-19 16:50:01.071,747,-21,659,6,-3,2,-4,-10,5,567,65,v,1.8251962702624445,48.56698321461552,1496.7298630790492,-42.076743138768464,-2.4082727832577575
2025-02-19 16:50:01.173,725,20,662,3,0,1,-3,-10,6,541,68,v,-1.7304639615293858,47.58767394328803,1463.3102606817615,40.36717960501411,-12.153644925967
2025-02-19 16:50:01.284,776,-88,712,26,8,-25,-4,-12,7,197,81,v,7.045769124867488,47.24639428345371,1510.2797899472193,-171.26884215896303,38.279367986571856
2025-02-19 16:50:01.394,656,108,688,-19,-27,62,-4,-11,6,735,83,v,-8.921301654441667,43.2878893839316,1341.6645081896154,220.88379098243666,-31.11155736959654
2025-02-19 16:50:01.501,742,-110,711,19,-2,-49,-3,-10,5,746,78,v,8.794599980710863,45.883645715376844,1459.927629867674,-216.4313197917037,23.06665116453337
2025-02-19 16:50:01.607,942,58,702,-33,40,30,-3,-12,5,781,65,v,-4.723111789790267,53.21225127881974,1742.8594389551533,107.30981683587991,105.18118243469485
2025-02-19 16:50:02.520,730,9,677,3,0,2,-3,-9,6,138,58,w,-0.7616420108873256,47.15471918096904,1463.1926733832465,18.039361726642767,-2.9608765485724007
2025-02-19 16:50:02.618,726,-68,656,6,-3,-3,-4,-10,7,82,59,w,5.918060352107625,47.747275719372084,1466.1861571772451,-137.32873097527911,-12.81834587916319
2025-02-19 16:50:02.724,716,29,628,3,-9,-2,-3,-9,6,90,68,w,-2.6439459291516694,48.71590803542786,1467.4473524206555,59.435716787987445,-31.09069458124543
2025-02-19 16:50:02.835,745,43,666,-11,0,-3,-4,-10,6,354,72,w,-3.694149626209555,48.145347388864735,1489.8398766379341,85.99075798044453,0.1431438377661607
2025-02-19 16:50:02.942,748,19,657,-10,-2,-5,-4,-11,7,507,75,w,-1.6564938843056165,48.69392128541888,1499.1941073333635,38.08113374242501,-2.8055194091172098
2025-02-19 16:50:03.045,750,5,660,-4,0,1,-3,-11,5,583,76,w,-0.43405063213940953,48.651407392434145,1500.7041153170226,10.004694102113483,-0.619621478979866
2025-02-19 16:50:03.155,731,11,656,-2,1,-2,-4,-11,6,615,74,w,-0.9606623688365987,48.09116774053095,1475.2085896585659,22.19876126709196,-11.85339920112051
2025-02-19 16:50:03.256,748,19,657,-2,0,-2,-4,-10,7,612,74,w,-1.6564938843056165,48.69392128541888,1499.1941073333635,38.08113374242501,-2.8055194091172098
2025-02-19 16:50:03.368,747,8,659,-2,1,0,-4,-11,5,629,72,w,-0.6955139933457052,48.57931408879349,1496.8722625245264,16.030760508964143,-2.5338969259211126
2025-02-19 16:50:03.479,750,11,664,-1,-1,-2,-3,-11,7,591,73,w,-0.9490902534636001,48.47656145791342,1498.684593697843,21.980707374235028,1.1645730461766561
2025-02-19 16:50:03.582,637,48,618,-2,-18,-15,-3,-10,8,560,81,w,-4.441241189432813,45.781244344361426,1353.6823536804482,102.004321784398,-77.30564297412411
2025-02-19 16:50:03.691,736,38,664,5,1,-2,-4,-12,6,414,83,w,-3.275402640920103,47.89745317037824,1477.9460394023567,76.30699659957821,-5.364361634735019
2025-02-19 16:50:03.798,750,44,662,0,0,2,-2,-12,6,499,82,w,-3.8025858070705523,48.50357082285008,1498.997015549109,87.94115824554771,0.885300941986543
2025-02-19 16:50:03.905,691,11,664,-6,4,-1,-4,-10,5,598,75,w,-0.9490902534636001,46.137608620747876,1412.006101401084,22.477665868902925,-28.833648813776676
2025-02-19 16:50:04.011,747,30,641,-4,1,-5,-5,-13,6,413,83,w,-2.679594409888934,49.33615724923472,1505.5457004164814,60.463682747649855,-9.907354708118532
2025-02-19 16:50:04.121,702,74,655,-27,-19,56,-3,-10,6,738,85,w,-6.4457794257850045,46.802384679319616,1430.9971179867653,150.84585004418892,-25.189618634374938
2025-02-19 16:50:04.228,731,-46,684,19,-5,-38,-3,-11,7,818,83,w,3.8474315816451856,46.837911279929216,1460.4214166528768,-91.90066370182261,1.4770875642028614
2025-02-19 16:50:04.335,764,257,551,2,-14,39,-4,-8,8,790,0,w,-25.0055071945629,51.48735034064295,1546.4707001161041,520.2133114264905,-13.321146287923057
2025-02-19 16:50:04.446,769,-105,613,5,-2,-25,-3,-9,7,868,79,w,9.71979556125073,51.03584952506782,1546.5395701985462,-211.1660011324413,-6.807225658919265
2025-02-19 16:50:04.552,518,-161,728,-33,45,37,-3,-7,5,770,31,w,12.470461721668892,34.78969729146056,1088.5659025397108,-338.33805078936956,-73.8764035693232
2025-02-19 16:50:05.467,753,-22,654,-1,-3,-3,-4,-9,7,612,51,x,1.9266544524641436,49.00879862672089,1507.8103190321954,-44.052891127102654,-1.5723089602333857
2025-02-19 16:50:05.564,753,-39,649,-2,-2,-3,-2,-10,7,633,55,x,3.4389083229029143,49.19134239570547,1509.8963127390539,-78.20180105819801,-3.35817658385929
2025-02-19 16:50:05.670,761,-6,657,-5,-5,0,-3,-9,8,666,60,x,0.5232345821841841,49.19353685004001,1517.9213428700034,-11.967842387936951,3.521258520903757
2025-02-19 16:50:05.776,762,-6,641,0,-1,-2,-4,-9,6,703,64,x,0.5362942862440349,49.927970237455725,1527.2357533555032,-12.025478372877977,-2.7219395024637834
2025-02-19 16:50:05.882,765,-9,646,-1,-1,-2,-3,-9,7,733,65,x,0.7981867749175499,49.81802535086453,1528.9990529328834,-17.988224152151567,0.8452441900097938
2025-02-19 16:50:05.994,761,-5,638,-3,0,-1,-3,-10,6,747,64,x,0.4490172927183358,50.0236556262383,1527.309764618975,-10.03488675833755,-4.45155036387132
2025-02-19 16:50:06.096,769,6,633,9,-1,4,-2,-9,7,798,63,x,-0.5430716937237866,50.539337613869826,1541.0611142740408,12.023883856494468,-2.5197468601663786
2025-02-19 16:50:06.207,709,-51,666,7,-8,-1,-5,-10,6,829,60,x,4.378968607752393,46.70761775098538,1436.863934091366,-103.3569261476159,-17.719859104160264
2025-02-19 16:50:06.307,761,-6,644,-3,1,3,-3,-9,5,834,65,x,0.5337961658327812,49.75904060892107,1524.3344111447568,-12.018405344111091,-1.9755069345904985
2025-02-19 16:50:06.419,796,18,629,-5,0,-7,-2,-10,7,816,71,x,-1.6391774945497617,51.67276572455092,1580.4816837005837,35.73953556106848,9.101785115995995
2025-02-19 16:50:06.530,738,-11,626,8,-14,-2,-3,-9,8,836,74,x,1.0066912438023023,49.689745050115604,1500.5525533380155,-22.365959467097788,-20.826420582110472
2025-02-19 16:50:06.637,557,-82,666,-4,-2,-24,-3,-10,7,772,84,x,7.019109298514996,39.69499259715584,1195.7005728892298,-176.02773245406974,-97.68865627329808
2025-02-19 16:50:06.739,820,101,612,-20,23,28,-3,-8,7,203,79,x,-9.371207872671738,52.89479830987757,1617.5291623244314,199.23225048142388,16.770917874936572
2025-02-19 16:50:06.850,774,-98,560,26,4,-40,-4,-11,6,418,79,x,9.926245506651705,53.70236516717208,1579.952719838936,-200.04569320958103,-23.11824691189156
2025-02-19 16:50:06.956,783,17,635,12,-1,27,-3,-9,8,782,83,x,-1.5335364557993298,50.94847961229242,1559.5797622024304,33.86060786390973,5.20670625984269
2025-02-19 16:50:07.067,505,-182,732,-17,23,-1,-2,-8,5,583,33,x,13.962551187644284,33.80258349393936,1061.3330844195843,-382.500240325474,-74.40755999036787
2025-02-19 16:50:07.980,732,-12,654,-1,-1,-1,-3,-9,7,644,64,y,1.0511807495437469,48.216248955767206,1477.6649968294953,-24.224016341467138,-12.208890609958985
2025-02-19 16:50:08.078,749,-10,651,1,-5,-4,-4,-10,7,662,69,y,0.8800502864934805,49.00082639409477,1503.7190426790671,-20.076355710000897,-4.970756721058365
2025-02-19 16:50:08.185,747,-8,657,-1,0,-4,-3,-9,5,681,72,y,0.6976310263985913,48.6656817926996,1497.8686803972591,-16.041431650840792,-3.4025743253001792
2025-02-19 16:50:08.296,781,-61,756,-9,-1,-22,-3,-10,7,573,84,y,4.6130782895353475,45.83894986810613,1498.3843771963936,-117.03130218819464,61.5792712413911
2025-02-19 16:50:08.402,791,232,609,13,-12,39,-4,-9,8,772,79,y,-20.854458039578347,50.515362730446014,1562.7951074466275,458.36721229787304,14.786067718083245
2025-02-19 16:50:08.506,748,-173,706,4,-4,-14,-4,-10,7,830,79,y,13.768597462371822,45.82012494101411,1465.1554402114261,-338.8661646478298,29.11264600365405
2025-02-19 16:50:08.615,698,140,669,-10,-6,72,-3,-9,8,607,85,y,-11.819580198618647,45.601689994218276,1412.4933165663188,283.3081150706083,-15.808064158835464
2025-02-19 16:50:08.721,1059,59,657,-34,82,20,-3,-9,6,0,58,y,-5.131518387297891,58.081504393346975,1907.801058624566,106.28919967785589,130.4067086720113
2025-02-19 16:50:08.831,549,-109,712,8,-34,-26,-2,-8,4,437,36,y,8.703828466523182,37.31420139487163,1155.1855485803053,-229.35377922632654,-74.16413586371095
2025-02-19 16:50:09.846,743,-28,661,0,-1,-1,-4,-9,6,608,61,z,2.425602567639754,48.31703135865136,1489.835891204092,-56.144555792348015,-3.412549240786916
2025-02-19 16:50:09.942,741,-31,661,1,-3,-1,-3,-9,7,635,63,z,2.685126570642003,48.23456422650135,1486.8779560928501,-62.204071037622604,-4.351321157049597
2025-02-19 16:50:10.049,758,-6,659,8,-6,-1,-4,-10,7,705,67,z,0.5216467047203078,48.99535195131389,1512.6563557685736,-11.973533159117997,2.90694135687329
2025-02-19 16:50:10.159,745,-10,686,-5,8,-5,-3,-11,7,713,67,z,0.8351562922208998,47.3579294374733,1480.599879124154,-19.87382388086113,8.655681772926414
2025-02-19 16:50:10.266,990,-2,814,31,5,-38,-4,-10,5,44,84,z,0.14077558775908172,50.572112963109305,1762.424545556361,-3.560453627386588,178.8953736536588
2025-02-19 16:50:10.372,659,58,728,15,-17,6,-3,-12,6,796,78,z,-4.555152169227044,42.061846973142345,1328.9323916571057,116.96218318074675,-12.077057854890313
2025-02-19 16:50:10.483,896,121,498,-13,20,11,-2,-12,7,596,84,z,-13.656627199257235,60.2315505449238,1764.0389859135098,238.22401483876638,15.540831490035941
2025-02-19 16:50:10.588,759,108,638,15,-33,4,-4,-10,5,770,79,z,-9.607890440327358,49.551140194077774,1519.9853370718486,216.28249855567805,-1.6688340603943743
2025-02-19 16:50:10.696,869,161,730,-31,71,-2,-2,-9,5,779,69,z,-12.437360663376953,49.29676415817807,1627.0975070179534,301.4530479055127,93.16319893773755
2025-02-19 16:50:10.806,837,-53,368,16,-6,-17,-4,-10,5,589,79,z,8.195483588059194,66.04911674522525,1750.8937964775632,-110.86902176022801,-33.80754731630009
2025-02-19 16:50:10.909,731,102,654,-10,3,11,-3,-10,6,840,79,z,-8.864623388410795,47.839769616503595,1472.2706662755027,205.43311622448874,-9.188804027604192
2025-02-19 16:50:11.019,595,-63,705,-16,27,13,-2,-11,5,706,41,z,5.1064845723283785,40.05114441181263,1238.4711541789206,-131.13223985423866,-57.43220789267059
2025-02-19 16:50:12.529,748,28,647,-2,-1,-1,-4,-11,7,494,71,0,-2.4780238230509126,49.11454683301565,1504.0196770361508,56.30020181418745,-6.936806206403048
2025-02-19 16:50:12.633,751,24,647,-2,-2,-1,-4,-10,7,517,71,0,-2.1243717513433644,49.23502994855318,1508.39440762272,48.204348579154825,-5.508897113048988
2025-02-19 16:50:12.737,745,20,647,-3,-1,-1,-5,-10,6,549,72,0,-1.7705576628041266,49.013563775124624,1499.864869590487,40.264828713838575,-8.567208892677854
2025-02-19 16:50:12.837,757,29,649,-2,0,0,-5,-10,6,563,73,0,-2.558510098602749,49.36423415557737,1515.8649255052383,58.071443645511096,-1.5988595150587344
2025-02-19 16:50:12.948,783,23,649,-2,5,2,-3,-9,6,649,70,0,-2.0296635649875734,50.32824175076608,1552.7143175937736,45.609743684108295,11.012015174509543
2025-02-19 16:50:13.059,682,-22,670,-11,-1,0,-2,-9,6,796,50,0,1.8806782381866374,45.49309579640155,1395.1659836491558,-45.00535431126309,-30.617608570285142
2025-02-19 16:50:13.166,753,16,648,0,-6,-6,-3,-9,6,828,56,0,-1.414423211402155,49.277470456801105,1510.8778629104136,32.10364648946429,-4.197682823303808
2025-02-19 16:50:13.277,754,26,643,6,-12,-6,-4,-10,7,839,69,0,-2.315519702369135,49.5198391561316,1514.6307969800396,52.22864817172551,-5.654645169980995
2025-02-19 16:50:13.378,772,34,640,1,0,0,-4,-11,5,840,78,0,-3.040979619103375,50.30106586848132,1541.4114378567874,67.88599596778599,2.1459582534403125
2025-02-19 16:50:13.485,749,45,630,2,-4,1,-4,-11,7,851,76,0,-4.085616779974877,49.860253938529056,1513.4743885784633,90.92970291859925,-13.01584086038963
2025-02-19 16:50:13.587,720,50,648,0,-5,-3,-3,-11,7,859,78,0,-4.4122280782547305,47.92821602017781,1462.3059109284945,101.54902159225657,-20.07531983564479
2025-02-19 16:50:13.706,678,-58,664,28,17,-35,-3,-12,8,708,81,0,4.99208116609164,45.48884277746088,1391.1139473824983,-119.0038480061724,-34.38888062238743
2025-02-19 16:50:13.806,727,358,644,-30,-9,35,-4,-9,7,651,79,0,-29.069709761662324,44.61573639573953,1429.348585828945,703.860789170237,21.837016129517792
2025-02-19 16:50:13.919,799,109,561,2,13,-38,-4,-12,9,752,81,0,-10.99533972873002,54.42545673047646,1612.3593202096254,219.9589060110753,-10.082075891864633
2025-02-19 16:50:14.026,608,67,656,-51,49,44,-3,-11,4,705,39,0,-5.831634290341218,42.677069177675804,1285.8654892574273,141.6989930596178,-75.38118577775037
2025-02-19 16:50:15.038,731,13,664,5,1,-1,-3,-12,7,618,64,1,-1.1216114256054808,47.74426304397259,1471.1508005137418,26.16273653444411,-8.312081451606787
2025-02-19 16:50:15.139,751,25,666,5,-3,-3,-3,-11,6,629,71,1,-2.1497331475183046,48.41279917211593,1498.946384785228,49.89834836169201,2.7079996445248753
2025-02-19 16:50:15.247,714,24,661,10,-6,-4,-4,-11,8,576,79,1,-2.079417419419623,47.188583547044544,1447.594468069869,48.658637582180475,-18.139976742553813
2025-02-19 16:50:15.352,796,57,620,48,5,-5,-4,-12,7,479,80,1,-5.252749442572157,51.96822160948609,1583.6691634496883,113.40344512139728,6.488842539187544
2025-02-19 16:50:15.463,746,-33,670,10,-14,-36,-3,-10,8,793,80,1,2.8197522305568072,48.03773972444324,1489.5854088215547,-65.89318832588648,2.168600656244166
2025-02-19 16:50:15.566,777,161,618,4,8,25,-3,-10,6,773,81,1,-14.60200186167479,50.58272469458767,1549.5421601705148,321.0763034587553,3.545617779436043
2025-02-19 16:50:15.680,957,255,391,-21,-8,-19,-5,-10,7,449,82,1,-33.11134196037203,63.997874873897146,1855.7777862989226,494.4862439981456,23.78775920284346
2025-02-19 16:50:15.783,666,42,659,13,-15,15,-2,-10,7,769,81,1,-3.646695678534379,45.2446301391157,1376.1193910103539,86.78230393758989,-43.65567368742245
2025-02-19 16:50:15.887,616,-59,631,-39,62,14,-3,-8,5,597,37,1,5.341760587466541,44.1861871697794,1312.9922502418433,-125.7573746173194,-82.96446412760247
2025-02-19 16:50:16.806,731,29,680,-1,-3,-5,-3,-12,6,534,58,2,-2.4420167063652634,47.04406940291517,1462.8780484861522,58.03483366087333,-0.8167892894438182
2025-02-19 16:50:16.902,729,57,670,0,1,-4,-4,-12,6,544,60,2,-4.862708025644563,47.31195525848306,1464.056083013621,114.47352089406913,-5.565947351338764
2025-02-19 16:50:17.012,728,54,672,-3,-4,-6,-3,-11,5,499,63,2,-4.59425333126639,47.19869670764685,1461.7144092365434,108.42387101479854,-5.2748392952707945
2025-02-19 16:50:17.120,824,280,480,-6,-5,-8,-4,-12,7,272,85,2,-30.256437163529263,56.004648301464606,1653.0829361209626,561.7272113032398,-2.960933662696732
2025-02-19 16:50:17.224,669,84,734,9,-12,-4,-4,-14,7,773,77,2,-6.5286076809679745,42.161898664737976,1340.2278104099762,168.27972507389836,-2.444264336207084
2025-02-19 16:50:17.335,854,280,514,-38,12,26,-3,-12,5,431,83,2,-28.57921026654777,55.57392669680019,1678.8563161507404,550.4446938199148,17.540812059156224
2025-02-19 16:50:17.436,696,129,679,-1,-34,10,-3,-10,7,777,79,2,-10.757152661025657,45.20051643887206,1405.577087769512,260.51644299176303,-13.245463499279708
2025-02-19 16:50:17.547,784,146,527,-59,85,14,-2,-9,7,668,50,2,-15.48485195272291,55.103731498433646,1604.1891362407682,298.73930343259207,-24.326115814904256
2025-02-19 16:50:18.467,703,40,666,5,-7,-11,-3,-13,7,636,63,3,-3.437059194254513,46.49665399569147,1428.3341706997278,81.27079207395323,-21.158688031321162
2025-02-19 16:50:18.564,694,86,659,5,-4,-10,-3,-13,6,607,74,3,-7.435124855988122,46.240206379613355,1416.2457505437292,175.50019387141313,-26.821253037921565
2025-02-19 16:50:18.668,748,84,636,9,4,-7,-3,-16,7,380,85,3,-7.523820438638627,49.38191538268708,1507.0658616702717,169.2426903479984,-9.408941206273653
2025-02-19 16:50:18.777,683,54,728,2,-10,-1,-3,-15,8,816,79,3,-4.242192793322907,43.094897979102804,1366.2087521655521,108.01650456360149,-0.2225059685532642
2025-02-19 16:50:18.879,889,71,489,8,8,-1,-4,-14,6,580,82,3,-8.261288798094172,60.933645126001615,1763.0576573690182,140.80662955365614,8.219128848762807
2025-02-19 16:50:18.988,642,-23,774,-7,-1,45,-3,-10,6,729,77,3,1.7020868852682272,39.66183488057808,1280.2551734190515,-45.86583954616539,4.514790924695035
2025-02-19 16:50:19.097,994,63,721,-1,-4,12,-4,-9,7,602,81,3,-4.993743985823392,53.94104219930659,1802.4117305899524,114.23736320640543,134.61684330447122
2025-02-19 16:50:19.206,507,-84,718,-9,-7,-13,-1,-9,5,562,36,3,6.672794123722554,35.04369897384323,1081.2010293364337,-179.13389835159853,-95.16832162437777
2025-02-19 16:50:20.116,735,20,669,3,-7,-5,-2,-12,5,533,62,4,-1.7123682995179044,47.67867011434398,1474.3804968313566,40.11919719268997,-3.9871460954793747
2025-02-19 16:50:20.219,734,42,658,-1,-1,-5,-5,-12,6,553,65,4,-3.6522227803063356,48.067214252593395,1477.9292777579185,84.56816030767382,-8.90117815355643
2025-02-19 16:50:20.329,668,-8,661,14,-30,-20,-5,-13,8,633,82,4,0.6934097695034298,45.29968295254234,1378.7955816120325,-16.51252193547344,-42.34712491849314
2025-02-19 16:50:20.436,697,-24,686,17,3,-12,-4,-13,7,519,83,4,2.003699838123186,45.43818582926886,1409.493850678157,-48.53350418403984,-15.24932792713878
2025-02-19 16:50:20.538,770,118,583,18,9,8,-3,-11,7,0,82,4,-11.44216780025759,52.31406186974895,1561.3735937269262,239.2754338438666,-16.18286382181543
2025-02-19 16:50:20.649,727,95,648,2,-5,9,-3,-13,7,759,78,4,-8.340429254728432,47.98551076094609,1469.9755886719063,192.08759411806204,-14.239589352675807
2025-02-19 16:50:20.759,605,-96,707,17,-36,-25,-4,-12,8,746,71,4,7.732615711636969,40.2961811757118,1251.738945423252,-198.6230392737722,-48.77592465163502
2025-02-19 16:50:20.866,705,173,637,-27,-12,93,-3,-11,7,538,81,4,-15.194214362974838,46.884972794845005,1434.9830464223137,352.13059153341885,-22.57333414328218
2025-02-19 16:50:20.972,1043,52,707,-28,89,14,-3,-9,7,654,58,4,-4.206542366229956,55.796706105746715,1870.0482591279247,93.2334702537412,146.38339481932644
2025-02-19 16:50:21.076,612,-96,721,4,-6,-10,-4,-7,6,521,31,4,7.584232579296901,40.077106040992646,1255.8179349082338,-196.9910486130563,-37.48485468764147
2025-02-19 16:50:21.996,734,53,674,14,-7,-11,-4,-13,5,544,60,5,-4.496202333233841,47.35211501995418,1469.5311306379685,106.11055847930835,-1.405970095355201
2025-02-19 16:50:22.090,739,43,667,7,-2,-2,-4,-11,7,553,66,5,-3.6886264729190894,47.87240108423737,1480.6528158033984,86.15435870033306,-2.3943547237709026
2025-02-19 16:50:22.201,588,22,626,22,-16,-22,-2,-11,7,401,76,5,-2.0127613246067195,43.189497119207324,1272.413467297876,47.6073065995804,-102.64426960624223
2025-02-19 16:50:22.311,802,299,630,-21,-42,3,-3,-14,7,570,80,5,-25.389164377686413,48.9924774089063,1556.6234371152245,580.3371667050524,37.216003263601806
2025-02-19 16:50:22.414,685,91,718,5,25,16,-3,-14,5,761,78,5,-7.223209533852546,43.42462951436738,1372.3997771469988,182.31880251149914,-2.515386848970934
2025-02-19 16:50:22.524,772,97,725,-10,-2,21,-2,-15,5,543,82,5,-7.620524557324003,46.54456880169075,1497.9096034814356,188.20884914209748,43.28437496885908
2025-02-19 16:50:22.631,871,107,568,-5,-15,10,-3,-12,4,737,79,5,-10.668370987245575,56.43198168673445,1704.2300062049048,209.3600581675371,24.630719260176875
2025-02-19 16:50:22.738,766,165,619,-22,-1,33,-4,-10,7,655,83,5,-14.925655913248665,50.093909862502755,1533.0969659072362,330.23629161187205,-0.886451562113848
2025-02-19 16:50:22.844,754,89,600,-45,68,24,-2,-10,5,568,49,5,-8.437351199341144,51.184617941660726,1533.169714049492,180.97096094218142,-20.02895017200956
2025-02-19 16:50:23.863,740,32,661,0,-2,-4,-3,-11,7,619,62,6,-2.771610601706297,48.19407251878623,1485.407040201144,64.23381795464405,-4.829802125616311
2025-02-19 16:50:23.958,738,36,655,0,-4,-5,-5,-10,6,645,64,6,-3.145915828493418,48.36695651059722,1485.4150681703898,72.45927161806779,-8.35619193984428
2025-02-19 16:50:24.064,746,30,645,0,-5,-4,-4,-10,7,645,67,6,-2.6630007660671438,49.12230578082494,1502.1083085813748,60.40650034509551,-8.739757419553257
2025-02-19 16:50:24.167,741,72,582,-6,-4,-7,-5,-12,8,660,83,6,-7.052306007841189,51.64146614892828,1525.142789633509,148.19201194819522,-33.88542991457791
2025-02-19 16:50:24.276,677,-59,679,48,18,3,-4,-13,7,0,83,6,4.966099432944372,44.807750424594275,1381.7301874535144,-120.4166633083565,-27.81210824362813
2025-02-19 16:50:24.391,748,234,709,-10,-16,30,-3,-11,5,677,80,6,-18.265076192079093,45.053015532535476,1455.7607611822664,455.411788926003,38.14120363873417
2025-02-19 16:50:24.495,895,152,527,4,24,-8,-4,-11,7,522,81,6,-16.088886158194192,58.4988017611318,1747.6292370436122,296.8040715426023,24.949041427951386
2025-02-19 16:50:24.600,530,-37,758,-31,25,24,-2,-9,4,568,37,6,2.794541598491063,34.9295600043656,1102.5689295481423,-76.97179319487032,-60.88160112734306
2025-02-19 16:50:25.522,738,22,674,1,-2,-2,-4,-10,6,524,63,7,-1.8695248870384273,47.58000871887122,1476.220022354879,44.00655893198825,-0.20094182545835793
2025-02-19 16:50:25.613,704,21,671,2,0,-7,-5,-12,6,486,65,7,-1.7925763961524455,46.36082767631458,1427.7002089817097,42.58764827928395,-18.77676168569178
2025-02-19 16:50:25.727,795,141,544,-5,-1,-15,-5,-11,9,124,87,7,-14.530799847402298,54.74396713342799,1611.5807810641584,285.82753475477523,-14.767226287927201
2025-02-19 16:50:25.831,630,44,739,10,-11,6,-3,-11,7,804,80,7,-3.4073634894802103,40.39766121312898,1278.0888148863216,89.26334580158436,-21.21846698570107
2025-02-19 16:50:25.937,858,338,534,-1,-2,60,-3,-11,8,631,82,7,-32.332125137937375,53.625582818889896,1663.1586812695148,655.1837229243542,32.887254314777635
2025-02-19 16:50:26.046,645,-17,754,-13,25,-41,-2,-11,7,630,77,7,1.2915958300718928,40.5377342276676,1294.9487005631504,-34.1304308675559,-5.784992596302914
2025-02-19 16:50:26.156,706,236,695,-27,-45,11,-3,-13,7,654,79,7,-18.7558610783406,43.88698564820994,1399.2381420402887,467.73399648938823,12.56301881303034
2025-02-19 16:50:26.260,768,152,659,4,5,17,-2,-12,7,745,78,7,-12.988266821919996,48.63278519618091,1518.4893558183612,300.534351672384,15.025409525650844
2025-02-19 16:50:26.366,629,-23,703,5,-9,-2,-3,-9,6,539,47,7,1.8738734560845525,41.80494052172978,1295.5967489524637,-47.3747618853842,-42.01989588804747
2025-02-19 16:50:27.284,750,21,646,0,-1,0,-3,-10,6,542,60,8,-1.8619006282246078,49.24562052797017,1507.5150876918824,42.21042245537271,-6.472995531941251
2025-02-19 16:50:27.378,759,28,639,3,-3,3,-2,-11,7,589,62,8,-2.5090081944307396,49.87899027174829,1523.6851564912843,56.2097290932226,-4.786317520330044
2025-02-19 16:50:27.493,650,14,656,15,-27,-20,-3,-10,7,695,79,8,-1.222590191977099,44.73025249851932,1353.7699109214636,29.15812115830845,-54.266248560738745
2025-02-19 16:50:27.599,774,-23,597,18,14,-16,-3,-12,5,201,82,8,2.2062839629516557,52.33580749944327,1565.6055576092435,-46.52316256461576,-13.579480481548217
2025-02-19 16:50:27.706,707,143,694,8,-10,18,-3,-11,7,649,81,8,-11.642951522054314,44.93606691192514,1413.317321066356,285.861919253874,0.6701261385417183
2025-02-19 16:50:27.813,883,-15,553,3,-2,-48,-3,-12,7,753,80,8,1.5537540829719971,57.93267460632405,1730.424829311898,-29.395665277099063,22.279806784281163
2025-02-19 16:50:27.919,714,139,663,-6,10,55,-4,-12,8,703,80,8,-11.840740953966343,46.50618627538957,1439.4486890291892,280.2288064076432,-10.630925527104296
2025-02-19 16:50:28.026,732,108,589,-44,62,19,-4,-10,5,694,51,8,-10.390426359586423,50.714785889678055,1506.003635781933,222.1972577383181,-33.798007480271735
2025-02-19 16:50:29.045,762,61,631,0,-2,-2,-3,-12,7,638,64,9,-5.521736284221295,50.241426039389,1530.746135356008,122.54004495632083,-5.586366679318871
2025-02-19 16:50:29.140,757,72,625,0,-5,-3,-3,-12,7,645,68,9,-6.571505730324534,50.27044007714886,1526.0699008631036,145.14799585487907,-9.965241795825136
2025-02-19 16:50:29.246,778,71,621,5,-9,-5,-4,-11,8,655,79,9,-6.52240385799577,51.22158683517998,1557.5739897099659,142.14364173445705,-1.2563593957439707
2025-02-19 16:50:29.353,748,55,665,5,2,-14,-4,-13,9,609,80,9,-4.727987818842203,48.26471093640398,1494.2283184339972,109.86972929661744,1.5750912318073915
2025-02-19 16:50:29.459,840,233,551,11,17,15,-4,-13,7,0,80,9,-22.921922964871957,54.54193396737676,1654.5403085219282,458.9379665304872,16.70034524335449
2025-02-19 16:50:29.570,668,117,690,2,-10,-41,-3,-12,6,752,79,9,-9.623832081891912,43.66615489673556,1358.4552277352718,237.93302641471084,-23.194771163679093
2025-02-19 16:50:29.676,840,22,663,7,-3,0,-3,-13,7,772,77,9,-1.9005200837979697,51.70113925230356,1624.7886938805796,42.55398960163423,43.57749518711387
2025-02-19 16:50:29.783,859,201,549,-13,-6,37,-6,-9,6,377,86,9,-20.108699875134178,55.76066239344793,1685.6944693618668,394.44073148048335,20.646957299575206
2025-02-19 16:50:29.893,575,-60,600,-44,76,24,-4,-8,5,218,37,9,5.710593137499642,43.63874141074675,1265.1090458445458,-132.0113786968222,-120.1137869682218
