Timestamp,Acc_X,Acc_Y,Acc_Z,Gyro_X,Gyro_Y,Gyro_Z,Mag_X,Mag_Y,Mag_Z,Force,IR_A,Letter,Roll,Pitch,Lin_Acc_X,Lin_Acc_Y,Lin_Acc_Z
2025-02-19 16:56:56.625,731,-82,666,-1,-1,0,-1,-3,2,651,59,noise,7.019109298514996,47.44929903048029,1467.6792192279472,-164.6370669995782,-5.1742270941350625
2025-02-19 16:56:56.715,734,-74,669,0,-1,0,0,-2,2,652,59,noise,6.311990380092297,47.479081856991655,1471.030636133687,-148.30554097260602,-2.7622555496409404
2025-02-19 16:56:56.825,731,-75,670,0,-2,0,-1,-1,1,653,59,noise,6.387117025764512,47.315357662983345,1466.096343875368,-150.42028151936057,-3.754514906287909
2025-02-19 16:56:56.931,730,-77,662,-1,-2,0,0,-1,2,654,60,noise,6.634500535192886,47.60507433302007,1468.515056524047,-154.8981634963721,-7.721873176601662
2025-02-19 16:56:57.039,730,-76,666,-1,-1,-1,-1,-2,1,660,60,noise,6.510096360115514,47.440303858718984,1466.5730432344185,-152.68431682988466,-5.99677643030509
2025-02-19 16:56:57.149,737,-78,666,-2,-1,-1,-1,-2,1,665,61,noise,6.679886063222551,47.70282362380234,1476.6642611682842,-156.28197065281708,-2.40759557405363
2025-02-19 16:56:57.252,731,-82,664,-2,-1,0,-1,-2,2,664,60,noise,7.040039355942983,47.533846924858175,1468.676306490292,-164.748915365532,-6.064387837966592
2025-02-19 16:56:57.355,734,-86,666,-1,0,0,0,-2,3,665,60,noise,7.357838700467842,47.5449028614315,1471.806572262579,-172.44600165474355,-3.4539197913862836
2025-02-19 16:56:57.465,736,-77,671,-1,0,-1,0,0,2,662,59,noise,6.546290783294036,47.45839538900109,1472.7865711312104,-154.08229072975976,-0.7171049307637531
2025-02-19 16:56:57.575,735,-105,660,0,-1,-1,-2,-3,1,660,58,noise,9.03948280335512,47.721263839392556,1474.880815139192,-210.69725930559883,-4.382772778049912
2025-02-19 16:56:57.675,738,-76,672,0,-1,0,0,-3,1,663,58,noise,6.452462888002506,47.49866824975619,1475.2616335795847,-151.92396226564827,0.6723336511100797
2025-02-19 16:56:58.795,684,-77,612,-16,-16,-2,1,0,2,0,31,A,7.171101824193896,47.95614868676155,1426.632488901062,-160.6004410020201,-52.46064796410781
2025-02-19 16:56:58.895,883,-107,665,-27,8,-25,0,-1,3,119,38,A,9.140674884291704,52.66357635962164,1678.0880857726686,-203.347027381286,66.20772702284864
2025-02-19 16:56:59.006,738,-104,681,-29,0,-33,0,-1,3,493,38,A,8.682928892892933,46.970972058153784,1469.0080847885847,-207.01468945530198,6.4518892398016305
2025-02-19 16:56:59.111,743,-93,678,-4,8,-14,-1,-3,3,562,47,A,7.810414403500711,47.35302609449493,1478.5419034978945,-185.06648321036903,6.805638530858232
2025-02-19 16:56:59.216,701,-60,672,-14,7,-12,0,-3,3,701,49,A,5.10216525235819,46.096355773131314,1421.5070072611186,-121.66964398811285,-18.700012666863927
2025-02-19 16:56:59.325,731,-40,635,11,-24,-16,0,-4,4,772,61,A,3.6044205391757043,48.963858488328505,1485.2955956940154,-81.27472479857815,-20.236256177428004
2025-02-19 16:56:59.431,760,-50,631,4,-14,-11,-1,-6,4,800,87,A,4.5306110726124595,50.21024724682251,1528.3979937706927,-100.55249959017713,-6.972544828035552
2025-02-19 16:56:59.542,799,-40,639,2,-3,-7,-3,-6,4,809,101,A,3.581916582648539,51.29427771526462,1579.3679587681079,-79.06723197837837,14.900969145405384
2025-02-19 16:56:59.646,712,-195,681,1,-3,-6,0,-8,3,736,103,A,15.978726775297405,45.14648762235402,1420.9123219284675,-389.1543578315325,2.9532426498788027
2025-02-19 16:56:59.755,862,195,434,1,13,44,-1,-4,5,287,106,A,-24.194800934706137,61.1027735151332,1737.4879202105756,393.0512116485641,-6.790901822958006
2025-02-19 16:56:59.865,752,-426,937,24,2,-30,-1,-7,2,759,97,A,24.448561661448103,36.15179911136196,1341.9265918778885,-760.1871384840167,201.94519070534363
2025-02-19 16:56:59.968,800,70,594,9,-5,45,-2,-2,5,745,103,A,-6.721029575638208,53.216815424441904,1600.907140615703,140.07937480387397,-0.673551907159208
2025-02-19 16:57:00.082,770,146,681,-14,-12,-22,0,-6,1,272,103,A,-12.100502742808434,47.87026098945238,1511.6277603651658,286.6203285887198,25.092850897820767
2025-02-19 16:57:00.180,676,-22,693,8,2,22,0,-5,5,830,94,A,1.8183029644518336,44.27412369281232,1374.091988225719,-44.71897003101452,-22.647555976957392
2025-02-19 16:57:00.288,631,-141,725,-3,54,27,-1,-4,0,540,37,A,11.005656101850551,40.50851510176527,1280.5610500779171,-286.14755635655524,-21.326087648953944
2025-02-19 16:57:01.106,701,-55,665,0,-8,-9,1,-4,0,655,53,B,4.727987818842203,46.41212075264481,1425.3177322064737,-111.82949396769763,-22.12024524579863
2025-02-19 16:57:01.205,744,-38,664,0,-7,-6,-1,-4,1,674,62,B,3.275402640920103,48.205406348622915,1489.53888942415,-76.07859919101841,-1.3734174430586563
2025-02-19 16:57:01.310,742,-36,665,-7,-7,-3,0,-6,1,708,68,B,3.0987017173348796,48.090795356217065,1486.2042484314456,-72.10694466783295,-1.97550566969187
2025-02-19 16:57:01.421,670,-85,636,4,-10,-20,-1,-5,2,714,78,B,7.6123454626254325,46.23797985819809,1392.2188729136228,-176.62478238456407,-49.5689599597971
2025-02-19 16:57:01.528,705,-39,686,-3,-21,65,-1,-6,3,745,95,B,3.253837705427771,45.736362904607276,1421.1358404840753,-78.61602521826802,-10.835725634150094
2025-02-19 16:57:01.634,805,-44,594,40,29,-64,-2,-4,2,741,96,B,4.236394799058841,53.50189791875494,1608.876563640086,-87.93859478281216,0.8289704320359306
2025-02-19 16:57:01.745,682,-9,708,-11,-21,-4,-1,-8,4,803,92,B,0.7282969530764213,43.92609252925649,1375.7298957317516,-18.154793345433667,-12.177076507448533
2025-02-19 16:57:01.847,946,63,431,4,8,0,-1,-6,4,606,99,B,-8.316126958663508,65.27657439051093,1854.3372549668343,123.49180450624792,17.159242187415146
2025-02-19 16:57:01.955,635,-22,816,-7,-14,35,-1,-5,2,775,94,B,1.5443650346879434,37.879475299582495,1249.002492149391,-43.27252728706551,26.982624261570322
2025-02-19 16:57:02.056,1059,16,662,-1,16,17,-1,-4,3,650,90,B,-1.3845227066731605,57.982233701384224,1906.8837378082153,28.810330316271433,131.9725831642695
2025-02-19 16:57:02.171,458,-151,758,1,-21,-23,1,-2,2,715,40,B,11.26631732422621,30.650053060202247,967.7931576454843,-319.07591005342385,-85.71880675824684
2025-02-19 16:57:02.888,761,-58,638,-1,-3,-2,-1,-5,4,770,71,C,5.194428907734806,49.908395901712886,1526.0157800885995,-116.30606471108904,-3.3667118219793792
2025-02-19 16:57:02.982,764,-42,637,0,-1,-3,0,-6,3,772,74,C,3.772283609379837,50.11854450379964,1531.3727249157632,-84.18541157913882,-2.812075616938614
2025-02-19 16:57:03.087,775,-38,634,1,-3,-2,-2,-5,2,773,78,C,3.4300284400617875,50.66426330986427,1548.4450050696137,-75.92375508728428,1.2720861753097097
2025-02-19 16:57:03.195,720,-43,627,23,-28,-1,-2,-5,2,835,88,C,3.9232326225476606,48.882980954187374,1473.368093379046,-87.99281668791528,-29.05804798425288
2025-02-19 16:57:03.305,732,-100,635,6,-1,-27,0,-6,4,779,94,C,8.949458084208882,48.71113099736994,1483.3923395347738,-202.6492267124008,-16.822589623745102
2025-02-19 16:57:03.416,922,221,457,15,-12,63,-1,-6,3,635,91,C,-25.80788231201946,61.16384207640364,1798.0024829551692,430.97456478643426,22.799203133934668
2025-02-19 16:57:03.518,932,5,705,7,18,26,0,-3,3,879,82,C,-0.40634623330903463,52.89406918094526,1729.521485094203,9.278548739775767,101.72462769161689
2025-02-19 16:57:03.629,563,-144,718,-14,6,-4,0,-3,1,725,35,C,11.340621158559012,37.55354925705783,1172.50263966288,-299.8941032175039,-59.30532020949886
2025-02-19 16:57:04.445,751,-39,644,3,-2,0,-2,-5,3,745,68,D,3.4655430995420375,49.334312592749505,1509.5247209079575,-78.39076446792322,-6.45262352160421
2025-02-19 16:57:04.541,746,-21,644,-1,7,-1,0,-4,2,793,64,D,1.8676788394341726,49.18185561699619,1502.7880929673927,-42.303686263157175,-9.313045403486399
2025-02-19 16:57:04.653,749,-2,633,10,-14,-23,-2,-5,3,795,78,D,0.18102871676682517,49.7978095449004,1512.7713518071964,-4.039442861968482,-12.483665813024686
2025-02-19 16:57:04.756,736,-84,646,11,-1,-24,-1,-7,2,738,95,D,7.408656504659613,48.48774865267442,1484.8140180428713,-169.46246945054506,-11.247086488715581
2025-02-19 16:57:04.862,807,208,546,1,5,37,-1,-5,4,747,90,D,-20.854458039578347,54.0950269208112,1616.990742264271,416.77084806811433,-2.023476178800138
2025-02-19 16:57:04.970,827,-120,541,22,-4,-35,-2,-5,2,718,94,D,12.506378358364154,56.1750986228422,1657.742618596269,-240.54306436705235,-2.4483151881274807
2025-02-19 16:57:05.079,599,-10,741,0,-11,49,-1,-5,1,794,91,D,0.7731754603203252,38.94838277918818,1227.6200123872482,-20.494491024828847,-36.64178493981774
2025-02-19 16:57:05.188,1072,30,609,11,22,-12,-2,-3,4,488,89,D,-2.8201724724484905,60.369392095743656,1941.230937404412,54.32549265124287,115.19249917976987
2025-02-19 16:57:05.295,448,-145,758,-3,-14,-8,-1,-4,1,672,37,D,10.829445459968417,30.135305788438416,950.0437501673701,-307.49183878184976,-91.44009514925563
2025-02-19 16:57:06.105,745,-45,654,-2,-1,-2,0,-5,2,693,67,E,3.936166112689998,48.65454875513226,1495.7403351006799,-90.34673165037663,-5.039166652140466
2025-02-19 16:57:06.209,735,-38,650,-7,-4,-1,-2,-5,1,681,69,E,3.3457911911976312,48.463432173637194,1483.5326649682306,-76.69964798475206,-11.967662897074547
2025-02-19 16:57:06.316,740,-23,647,-4,-5,-6,-2,-5,3,683,77,E,2.035932369091649,48.81807963593071,1492.622720348244,-46.39232779460758,-11.03635143961344
2025-02-19 16:57:06.426,806,-28,612,-8,-4,-19,-1,-6,4,475,102,E,2.619548795394677,52.761552922692154,1602.1240357371028,-55.6569143928522,7.498871127659072
2025-02-19 16:57:06.533,779,189,695,16,-15,60,-2,-7,3,478,91,E,-15.213256231564124,47.24444624640557,1513.256708956813,367.14443901519604,39.91859727216263
2025-02-19 16:57:06.635,856,19,686,10,45,-53,-1,-5,3,703,87,E,-1.5865037525307786,51.280528379341135,1636.217877377685,36.31792017543927,60.73193471835066
2025-02-19 16:57:06.742,799,28,541,58,2,-22,0,-6,3,504,96,E,-2.962757244693716,55.862626176565364,1626.6944557559132,57.00556290508832,-19.428911844742174
2025-02-19 16:57:06.853,686,-110,733,8,-4,44,-2,-5,4,856,89,E,8.534587876754543,42.78476719789134,1365.2462089577796,-218.91703059089758,7.2165143352007135
2025-02-19 16:57:06.955,939,117,675,44,0,-17,-1,-6,2,370,92,E,-9.833563964207116,53.88668197672724,1746.8529072928254,217.6589884486268,94.27506664253781
2025-02-19 16:57:07.065,661,-37,732,-7,-3,13,0,-6,2,845,88,E,2.893635463265856,42.045850385905446,1330.7250864068124,-74.48839364153113,-9.662274205426456
2025-02-19 16:57:07.176,1036,212,717,36,3,-13,-1,-5,1,440,89,E,-16.471706464646868,54.18187450300514,1846.8787272808136,377.93271253236725,155.80304299194677
2025-02-19 16:57:07.283,697,39,666,-22,-5,20,-1,-5,2,852,90,E,-3.3513310679237622,46.25392209182461,1419.4112967980782,79.42186596144195,-24.281095649239433
2025-02-19 16:57:07.387,602,-107,696,-11,50,-2,0,-3,0,648,38,E,8.739976149481311,40.52709636092709,1251.8075874227438,-222.49736188410895,-55.27255954523196
2025-02-19 16:57:08.205,758,-61,658,-3,-5,-6,0,-4,2,650,70,F,5.296476358902553,48.91820825031823,1511.7722641014848,-121.6597732324414,3.669987099238824
2025-02-19 16:57:08.302,742,-49,651,-2,-2,-5,-1,-6,2,678,76,F,4.304468960507983,48.65738085534202,1492.7729871660622,-98.57934820907958,-7.697054777771541
2025-02-19 16:57:08.405,789,-10,627,0,-6,-16,-2,-6,3,685,96,F,0.9137308158871255,51.523099736819454,1571.8590702665438,-19.92216819095746,4.880054426967263
2025-02-19 16:57:08.519,757,-150,606,15,-2,-28,-1,-5,3,589,101,F,13.902687114220553,50.48802601625953,1528.4916354510879,-302.8715261792116,-11.600965764014973
2025-02-19 16:57:08.621,812,174,538,9,4,30,-1,-5,3,646,98,F,-17.92224859707346,55.148496047995685,1632.6358552862298,349.8505404184778,-5.721785891615241
2025-02-19 16:57:08.737,514,-594,847,36,-25,-41,-1,-6,3,528,100,F,35.04192940153902,26.420285302319783,958.952273863739,-1108.20554606043,113.78098061753519
2025-02-19 16:57:08.835,692,36,711,2,-7,19,-2,-7,4,833,95,F,-2.8985767992817095,44.18746344981173,1389.0082232031004,72.2605434036295,-5.14573222168292
2025-02-19 16:57:08.945,699,-50,394,30,-13,-8,-1,-7,3,506,96,F,7.232378708277655,60.39549804028334,1568.4561158231531,-112.19285520909536,-96.07969904767145
2025-02-19 16:57:09.052,729,115,599,27,-27,20,0,-7,5,861,94,F,-10.86778732536211,50.08146865411462,1495.9576457137389,235.9878316283676,-31.188792568627605
2025-02-19 16:57:09.163,652,-53,545,-25,70,14,-1,-5,1,792,51,F,5.554417494360702,49.975357156861385,1417.7679101268352,-115.24800496429796,-95.09740953853566
2025-02-19 16:57:09.975,757,-13,646,-4,0,-2,-1,-6,1,776,66,G,1.1528554361041623,49.517873072106454,1517.608519992782,-26.061969299743943,-3.079397510352692
2025-02-19 16:57:10.072,772,0,621,6,-6,-3,-1,-6,3,827,68,G,0.0,51.186656764777254,1551.1920181810096,0.0,-5.785289236278459
2025-02-19 16:57:10.178,859,6,720,10,-5,-12,-2,-7,4,857,90,G,-0.4774537773095774,50.02982253743322,1625.3789112302352,11.353054094739711,77.63350863123469
2025-02-19 16:57:10.290,671,-112,673,21,5,-21,0,-7,3,741,91,G,9.448515996361966,44.523448607026076,1372.2011071902289,-229.04101938197556,-30.291125393478296
2025-02-19 16:57:10.400,841,167,557,-18,-17,54,-1,-5,2,724,95,G,-16.689806615974366,55.33868390310452,1663.528209220925,330.3319987394703,12.233992228233774
2025-02-19 16:57:10.506,765,-122,635,10,-7,-32,-2,-4,3,844,92,G,10.875486906482344,49.793954970707084,1528.7279249414153,-243.797133127912,1.0559054407859776
2025-02-19 16:57:10.605,828,94,636,-22,7,-13,0,-6,3,849,91,G,-8.407378489016475,52.1720848676499,1617.856303565647,183.66967697484395,29.298781319140744
2025-02-19 16:57:10.719,784,-1,588,50,-5,-20,0,-6,3,692,93,G,0.09744170794908412,53.130062582041404,1583.9995835071973,-2.0204076320244866,-11.999687630398057
2025-02-19 16:57:10.825,781,42,625,-11,7,12,0,-6,4,887,88,G,-3.8444962923603043,51.26826144216394,1561.083939241274,83.9507368093899,0.733083193602738
2025-02-19 16:57:10.925,611,-82,696,-3,8,-1,0,-5,2,808,49,G,6.719389288414187,41.08333565752907,1268.1560458556237,-170.19442841270236,-52.577099698059214
2025-02-19 16:57:11.849,747,6,651,0,-1,-6,-1,-5,2,762,72,H,-0.5280567489001813,48.927101939389296,1500.8742583605967,12.055214926591137,-5.990819535138598
2025-02-19 16:57:11.945,697,-28,680,6,-2,-5,-2,-6,2,751,70,H,2.3579059707169034,45.683060805776705,1412.486219643098,-56.742631492118704,-18.03533623716862
2025-02-19 16:57:12.055,653,-2,631,11,-14,-25,-2,-6,2,656,86,H,0.18160249650140664,45.98146352132944,1372.1150250256776,-4.202496248164403,-63.88756629586908
2025-02-19 16:57:12.155,733,-58,755,-2,-13,50,-1,-8,2,648,93,H,4.3929020754131205,44.06870308310497,1428.520427614967,-113.0343585288787,38.604470874079084
2025-02-19 16:57:12.268,746,23,626,-4,0,-32,-1,-4,2,715,91,H,-2.1041700221130695,49.979541604113244,1511.8148764527825,46.61091442146648,-16.62749686252255
2025-02-19 16:57:12.378,893,231,602,-6,-34,11,-3,-8,2,684,88,H,-20.992853373114194,54.16850496723462,1703.7421499036182,440.72165355849467,55.45266042331684
2025-02-19 16:57:12.484,448,-55,546,-20,20,-31,0,-6,1,850,66,H,5.752149452615673,39.22755859314148,1080.4019686856684,-132.63863454846376,-224.7398993356585
2025-02-19 16:57:12.587,764,12,634,-3,-7,62,0,-7,3,807,87,H,-1.0843332292884909,50.30761305865964,1533.484423212423,24.086142772969996,-4.5512098385813715
2025-02-19 16:57:12.695,1138,14,545,-1,57,-14,1,-4,2,820,79,H,-1.4714945777301691,64.40239370516525,2039.8505773122429,25.094822567988928,113.09440717471682
2025-02-19 16:57:13.717,754,-12,637,-2,-1,-2,-2,-5,3,718,62,I,1.0792276900658841,49.80294289372969,1517.8291803898146,-24.156432579148245,-8.3039627431192
2025-02-19 16:57:13.806,767,-15,639,0,0,-4,-1,-5,4,714,65,I,1.3447243887023312,50.194016026827626,1535.216666324622,-30.023793995918297,-1.0136242261194184
2025-02-19 16:57:13.918,735,-12,647,1,3,-8,-1,-7,2,618,68,I,1.0625510544844694,48.63855070677123,1485.5558547399833,-24.253973138611975,-13.693385056828902
2025-02-19 16:57:14.028,1512,-88,596,27,0,-22,-1,-6,2,522,91,I,8.399094647852461,68.27501981699419,2440.9712786596147,-142.0671114563797,229.818199681792
2025-02-19 16:57:14.125,706,-18,719,1,-4,11,-2,-7,5,851,84,I,1.434087141822928,44.468343106634606,1406.5150743220383,-35.8601577022616,5.585922892995086
2025-02-19 16:57:14.245,579,-174,625,12,-39,-13,-1,-6,3,750,81,I,15.557202614905757,41.74762453319045,1244.8507341008392,-374.10022061061477,-93.75079242318543
2025-02-19 16:57:14.348,804,166,554,-1,-2,45,-1,-5,2,699,90,I,-16.680265838028852,54.27167408628065,1615.794936290711,333.60940226897765,-5.37113769285304
2025-02-19 16:57:14.455,729,-153,580,25,-9,-22,1,-6,3,367,89,I,14.777595115590362,50.55153291449909,1501.1963720626043,-315.06590524770706,-34.36748394555616
2025-02-19 16:57:14.555,692,100,661,19,-32,21,1,-5,4,790,91,I,-8.602809081722919,45.9886541816475,1411.202228674884,203.93095790099483,-25.983631725575606
2025-02-19 16:57:14.668,719,-62,533,-41,76,7,0,-5,4,669,51,I,6.6349811776025245,53.26580557693456,1520.4188356419077,-131.10704841418396,-61.097690399355656
2025-02-19 16:57:15.685,744,-32,635,-1,-2,-5,0,-5,1,706,61,J,2.884905923789904,49.483539171700095,1504.2193506209824,-64.69760647832183,-13.843128554198756
2025-02-19 16:57:15.782,754,-21,647,0,3,-11,-1,-5,2,714,67,J,1.8590249046548335,49.35252252595303,1512.7317903193184,-42.13178726353539,-4.060302833685682
2025-02-19 16:57:15.891,702,-32,634,15,-4,-22,-2,-6,2,398,79,J,2.8894485435716186,47.87747940219113,1443.712266730904,-65.81024577690732,-35.86549445497599
2025-02-19 16:57:16.002,1131,316,564,17,-44,-27,1,-8,3,212,89,J,-29.26119856255055,60.2472386218471,1999.174898256645,558.5669919090185,131.06397646618228
2025-02-19 16:57:16.105,587,39,627,-19,11,2,-1,-7,5,827,86,J,-3.5592668212832135,43.05765982175957,1269.734015121942,84.36052229941353,-102.25762773672523
2025-02-19 16:57:16.215,827,-28,693,-20,-15,48,-1,-8,2,752,87,J,2.3137224978242164,50.0150447910849,1593.2132006112354,-53.94192214886892,50.937426815494405
2025-02-19 16:57:16.322,725,-81,597,25,36,-27,-1,-4,4,609,96,J,7.7266176190972296,50.27365625824917,1494.1057778501558,-166.92768000808638,-36.318826726266366
2025-02-19 16:57:16.425,602,-33,645,-24,31,24,-1,-4,0,548,53,J,2.9288581996931056,42.98771081033749,1283.841478644944,-70.37669235096868,-85.5444414052971
2025-02-19 16:57:17.435,738,-30,651,4,0,-4,-1,-5,2,629,60,K,2.6384918254112053,48.553887404685675,1487.5785919764635,-60.47067447058795,-10.213636011758354
2025-02-19 16:57:17.539,755,2,652,7,-3,-7,0,-6,5,609,66,K,-0.17575337363989946,49.18675863476934,1511.844026394054,4.004884838129945,-1.5924572303619016
2025-02-19 16:57:17.645,708,44,640,11,-9,-25,0,-6,2,456,80,K,-3.9328962722305385,47.82063508633223,1449.0464685405173,90.05373533302648,-29.87251393493068
2025-02-19 16:57:17.756,763,-141,750,8,-6,49,1,-8,3,299,89,K,10.647327710377812,44.9947848072973,1470.042415783321,-271.65921445012884,55.00417845676179
2025-02-19 16:57:17.855,882,19,496,9,6,-55,-1,-6,1,698,84,K,-2.1937254123960686,60.63046475674117,1753.4747065423971,37.773264653407644,5.918985889989926
2025-02-19 16:57:17.968,780,132,629,0,-15,-11,-1,-5,3,779,85,K,-11.851927037679776,50.51229423426324,1551.7610520224162,262.6057164961012,6.64397215115423
2025-02-19 16:57:18.075,982,39,356,8,12,-1,0,-6,2,214,90,K,-6.2518541971679715,69.96337234823179,1921.473784504316,76.31107698133232,15.416835760146114
2025-02-19 16:57:18.185,730,121,666,-8,-19,37,-1,-3,5,761,94,K,-10.297275673419886,47.16135746289566,1463.2714556061646,242.54225497033684,-2.98464305987045
2025-02-19 16:57:18.288,574,-125,638,-12,59,0,0,-4,0,564,41,K,11.085244294395713,41.441295923400034,1235.8523359342548,-269.13160625745974,-97.64771833807424
2025-02-19 16:57:19.105,755,-3,645,0,-2,-1,-2,-6,3,631,61,L,0.2664900760584054,49.492275411077124,1515.3184004219224,-6.021132716908301,-4.5435341352847445
2025-02-19 16:57:19.206,749,0,647,-1,-2,-2,-1,-5,2,650,63,L,0.0,49.17894179895957,1505.7548496247377,0.0,-6.69878198558763
2025-02-19 16:57:19.312,754,1,647,3,-6,-4,-1,-6,1,645,70,L,-0.08855600291994539,49.367396548235675,1512.900869441172,2.0064998268450553,-4.205387968751097
2025-02-19 16:57:19.417,691,54,639,7,0,-23,-1,-5,2,631,78,L,-4.830419958289941,47.137362522570754,1423.986640427397,111.28115569186605,-38.82700902041495
2025-02-19 16:57:19.529,755,-129,729,14,2,25,-2,-8,2,614,90,L,10.034879226466442,45.56225477856753,1469.011601539889,-250.99668423661677,39.576877453537804
2025-02-19 16:57:19.636,986,28,621,29,-16,25,0,-5,1,610,84,L,-2.581636060437913,57.77031845491739,1831.9170010020252,52.021983801274544,88.22671640744682
2025-02-19 16:57:19.742,1012,56,665,0,49,5,-2,-5,2,831,75,L,-4.813550893706532,56.59752682742378,1846.8241009820806,102.19580005434437,116.42487435466057
2025-02-19 16:57:19.849,574,-106,706,-3,-2,-3,1,-3,0,631,36,L,8.538702412711203,38.79995526925511,1200.603202936075,-221.71418033314274,-64.70010674715843
2025-02-19 16:57:20.767,916,19,655,-7,14,-37,0,-3,2,0,53,M,-1.6615490499348482,54.421347381969575,1729.317593205607,35.87012474989797,73.42464677983332
2025-02-19 16:57:20.869,568,-100,717,-27,11,-20,-1,-4,0,533,36,M,7.939825997257349,38.11757121679442,1185.277179880391,-208.675559838097,-62.20376403915532
2025-02-19 16:57:20.967,802,13,664,13,-13,-8,-1,-5,2,513,50,M,-1.1216114256054808,50.37222382466047,1572.2041382024313,25.48460573146086,26.32475340846088
2025-02-19 16:57:21.075,699,-2,669,11,-10,-23,-1,-7,0,530,65,M,0.17128732084778162,46.25615713477705,1421.4382694543483,-4.067062287423029,-22.43233514300323
2025-02-19 16:57:21.183,739,31,624,6,2,-7,-1,-6,2,485,89,M,-2.8440866975973766,49.78796451023479,1502.6604276374408,63.034469900893995,-20.82287800509198
2025-02-19 16:57:21.295,735,212,630,-1,-12,69,0,-4,1,461,87,M,-18.59849484738491,47.87468953284345,1476.6796069685045,425.9266349351332,-5.725377401575088
2025-02-19 16:57:21.401,721,-88,650,-2,22,-42,0,-7,1,616,80,M,7.710089070738507,47.70563663124004,1460.6973008722177,-178.2820561397436,-16.856096486742672
2025-02-19 16:57:21.512,871,-26,643,-13,-18,21,-2,-7,3,628,85,M,2.315519702369135,53.54170707923154,1675.289634491753,-50.00864580572396,49.247721035364975
2025-02-19 16:57:21.615,849,133,536,5,-20,-5,1,-5,2,790,87,M,-13.9355922240526,56.95694775406314,1687.2610875787082,264.3176968762875,6.779808077517714
2025-02-19 16:57:21.725,759,-104,675,19,-8,-20,0,-6,3,825,85,M,8.758918753385972,48.01842420045418,1502.3599546704709,-205.856963485809,13.909131221913071
2025-02-19 16:57:21.827,901,-45,568,0,17,-24,1,-5,3,843,82,M,4.529816749742741,57.69131266989819,1746.1808036598404,-87.21213780765017,35.1890161167712
2025-02-19 16:57:22.745,771,29,644,4,-3,-6,0,-7,2,613,67,N,-2.5783476038795956,50.10015057330327,1538.1668375422228,57.85582138615365,3.2017595626567754
2025-02-19 16:57:22.840,748,22,656,2,-2,-1,0,-5,1,609,69,N,-1.9207849126889665,48.73310049184478,1499.645299372061,44.10721468741355,-3.1969470428769
2025-02-19 16:57:22.949,751,17,655,3,-7,-8,-1,-6,1,585,78,N,-1.4867322620401353,48.896468581675094,1504.5228736278832,34.05710899024503,-2.200375800617053
2025-02-19 16:57:23.055,744,39,652,2,0,-6,-1,-7,1,486,82,N,-3.423122838129083,48.71976501490002,1495.491766001184,78.39271354038465,-6.565364828994575
2025-02-19 16:57:23.165,765,-11,643,-5,-1,-19,-1,-8,2,429,88,N,0.980081029693423,49.94805140187874,1530.4613294683986,-22.006633495624033,-0.38775797147752655
2025-02-19 16:57:23.267,815,228,527,-2,3,39,0,-7,2,305,87,N,-23.395122258914665,54.8334764187393,1632.4815530979838,456.69422589735,-1.60463617501523
2025-02-19 16:57:23.379,737,-99,719,1,2,-33,1,-6,0,490,87,N,7.839830038822144,45.43932211550304,1449.5077661782773,-194.7099984418581,23.894051720242487
2025-02-19 16:57:23.490,746,208,712,-33,-28,93,-1,-6,1,701,85,N,-16.284922471883405,45.16328539640113,1455.1190678278554,405.71684464905354,35.200031778239804
2025-02-19 16:57:23.593,824,-160,631,1,0,-67,0,-6,3,696,86,N,14.228367194801773,51.69086723890793,1608.6775698000515,-312.3645766602042,30.11220079631994
2025-02-19 16:57:23.700,804,107,621,-24,54,33,-1,-6,2,786,59,N,-9.776227590555031,51.911729777536834,1591.0613270522572,211.74572387387008,13.083228732025304
2025-02-19 16:57:24.517,757,1,644,0,-2,1,-2,-6,2,800,64,O,-0.08896853022227957,49.6112705833232,1518.6657836822649,2.0061635187348283,-3.9693060652293752
2025-02-19 16:57:24.612,774,12,630,0,-3,-2,-1,-5,2,812,67,O,-1.091216225262598,50.85092571681801,1549.5059437159111,24.02334796458777,-1.2257681408580083
2025-02-19 16:57:24.716,808,0,666,6,-10,-7,-2,-5,2,845,82,O,0.0,50.502693761404004,1579.6544877560973,0.0,29.95805835945464
2025-02-19 16:57:24.825,700,-22,674,7,0,-20,-1,-6,2,781,85,O,1.8695248870384273,46.068827939618345,1420.173756265939,-44.63403233978665,-19.424445318918174
2025-02-19 16:57:24.935,943,177,528,-13,-17,69,-1,-5,1,754,85,O,-18.532556530052666,59.43650924439099,1804.066216747634,338.6211244584636,45.87596771712549
2025-02-19 16:57:25.046,752,-86,671,4,-8,-62,-1,-6,4,839,88,O,7.303605475658807,48.02589303886386,1495.4471422689555,-171.02188063182206,7.631605767992937
2025-02-19 16:57:25.149,834,112,612,-32,59,36,0,-7,0,758,59,O,-10.370741528284633,53.27706291094869,1635.5363340875929,219.6403710045688,23.82225843932042
2025-02-19 16:57:26.067,720,-44,674,7,-1,3,-1,-3,3,717,57,P,3.7350773549822787,46.82920599041236,1449.317474217164,-88.56940120216002,-8.72219114217853
2025-02-19 16:57:26.165,752,-4,651,2,-2,-3,0,-6,3,716,65,P,0.3520433701343977,49.117004469994306,1508.0477524671505,-8.021530598229525,-3.5041048618548984
2025-02-19 16:57:26.275,830,56,706,-1,-5,-18,-2,-7,2,691,84,P,-4.535212260376604,49.52673323438171,1590.708904211519,107.32493811547599,58.93917304417778
2025-02-19 16:57:26.382,732,215,627,15,-9,55,0,-6,1,683,83,P,-18.926980635398078,47.83865052804406,1473.2575562829284,432.7190909847398,-7.929628127590149
2025-02-19 16:57:26.487,809,-151,590,22,2,-68,0,-5,2,758,81,P,14.355690939689152,53.02751107908626,1607.9243848184913,-300.1193845582103,7.348100070568876
2025-02-19 16:57:26.599,677,181,719,-17,-13,32,-1,-7,2,836,83,P,-14.129955814052494,42.399122874253855,1351.291082689641,361.27575475158784,2.8769742188305827
2025-02-19 16:57:26.705,1077,63,678,-19,34,27,-1,-6,1,748,76,P,-5.308700354772919,57.697356033727395,1922.237174142855,112.44284305571023,145.90083187664243
2025-02-19 16:57:26.807,566,-39,731,1,-15,0,0,-4,0,739,38,P,3.0539246162366864,37.710557208388465,1177.6728191063107,-81.14706704089421,-58.98733351009412
2025-02-19 16:57:27.625,742,-12,645,0,-3,-3,-1,-5,1,785,59,Q,1.0658450275615834,48.995564291732144,1496.6587873709168,-24.204724324057953,-11.003932418115028
2025-02-19 16:57:27.721,763,-1,641,2,-4,-3,-1,-5,2,798,62,Q,0.08938491892526579,49.96618439628292,1528.6649405749995,-2.0034927137287024,-2.2388295000979497
2025-02-19 16:57:27.825,764,3,638,5,-8,-2,0,-5,2,809,68,Q,-0.26941390550183403,50.13515585512333,1531.5585915204106,6.013973526912608,-2.971703390081416
2025-02-19 16:57:27.935,780,9,592,-4,-6,-6,-1,-6,4,809,84,Q,-0.8709836049853299,52.799245751377306,1576.5219589387643,18.19063798775497,-12.539743194549146
2025-02-19 16:57:28.041,699,-63,668,10,2,-32,0,-6,2,661,87,Q,5.387707689884714,46.1723714999628,1420.4263870192995,-128.0212623493789,-21.431797609287287
2025-02-19 16:57:28.155,810,330,569,-23,-16,67,0,-5,2,706,87,Q,-30.11222616046429,50.92128219412056,1586.2806144965577,646.2624725726716,23.686827594393435
2025-02-19 16:57:28.257,862,-9,493,19,19,-18,1,-6,2,814,86,Q,1.0458514053573598,60.22953487183114,1730.0215185800307,-18.062869683550208,-3.4438615544724485
2025-02-19 16:57:28.366,586,18,685,12,-19,-10,-1,-4,2,731,64,Q,-1.505236135791056,40.536375143406005,1235.930673323849,37.9637408188213,-74.73124782736625
2025-02-19 16:57:28.475,978,-70,613,4,-22,22,0,-5,1,714,85,Q,6.5145295382361095,57.75369820688392,1823.7622625642284,-130.5351312673783,82.88520761567281
2025-02-19 16:57:28.581,849,-19,594,2,4,14,-1,-2,4,834,90,Q,1.832068634651937,55.00780794445513,1668.2302004321127,-37.33377362568922,20.82834033371614
2025-02-19 16:57:28.687,550,-126,703,8,7,-8,1,-1,0,629,38,Q,10.161338241593983,37.5995037538825,1160.138301755853,-265.7771382204318,-76.86768388066321
2025-02-19 16:57:29.506,744,18,651,-3,0,-2,0,-5,1,719,61,R,-1.5838115708619434,48.803224820281784,1496.4519812047813,36.20448341624471,-7.395483554183556
2025-02-19 16:57:29.601,743,16,649,-1,-4,-3,-1,-5,2,746,63,R,-1.4122447060701095,48.85462196282189,1496.0425173485016,32.216258785432075,-8.771996984088446
2025-02-19 16:57:29.705,754,9,649,-4,-4,-6,-2,-7,1,745,67,R,-0.7944976336707771,49.277292384781646,1511.8758352957034,18.046263286022985,-3.3360969587685076
2025-02-19 16:57:29.817,905,-37,708,2,-3,-22,0,-8,2,699,85,R,2.991549541069331,51.925276743233944,1692.207158397809,-69.18416006709275,92.15174790536048
2025-02-19 16:57:29.925,740,308,611,-7,-13,54,-1,-6,3,698,86,R,-26.75229162004544,47.24200613319229,1474.2277964869877,613.5975152945841,4.765968035743867
2025-02-19 16:57:30.035,792,-121,657,-6,-5,-44,-1,-5,2,799,81,R,10.435255702898896,49.85247854267672,1556.3868979435315,-237.78133163026177,22.906323296843084
2025-02-19 16:57:30.135,735,93,662,-8,-6,48,0,-5,5,789,87,R,-7.996772031118374,47.71270986367854,1474.780370451242,186.60486319995312,-4.30558535880607
2025-02-19 16:57:30.247,659,-23,639,-6,-43,57,-1,-5,2,799,88,R,2.061399495871712,45.86422513102351,1376.6916373350782,-48.04841829849286,-56.910404032041015
2025-02-19 16:57:30.355,892,-8,549,14,30,-2,-1,-2,3,788,86,R,0.834852088917887,58.386198909692084,1743.6006946100365,-15.637674391121402,24.864594909293828
2025-02-19 16:57:31.266,749,-9,655,0,-6,0,-1,-4,3,783,56,S,0.7872207128731061,48.82764589137167,1501.7326467518528,-18.044851563106377,-3.264197092741597
2025-02-19 16:57:31.367,746,-2,642,14,-15,-10,0,-5,1,840,68,S,0.17849094755360373,49.28491099923059,1503.962578005382,-4.032071254706118,-10.294872760663907
2025-02-19 16:57:31.475,761,23,634,-2,-3,-11,-1,-6,3,832,85,S,-2.077642398011436,50.18330506348005,1529.0969747860308,46.214494638736795,-5.912591346049112
2025-02-19 16:57:31.583,819,20,547,37,14,-9,-1,-6,3,635,86,S,-2.0939768871178654,56.243848208906925,1650.409956484416,40.30305144040088,-8.288456894963815
2025-02-19 16:57:31.685,705,82,697,4,-15,29,1,-5,2,786,86,S,-6.709836807756933,45.130044689392186,1413.7098843741271,164.43150428181335,-3.6677863954134864
2025-02-19 16:57:31.797,982,-3,514,10,28,-14,-1,-4,-1,547,84,S,0.3344073672432,62.37106797313169,1867.969520695457,-5.706627863631743,50.26442603109467
2025-02-19 16:57:31.898,493,-95,765,-7,7,6,0,-2,-1,481,30,S,7.0789216046122325,32.600218950899915,1031.7740043624008,-198.82054850796771,-71.02862745889774
2025-02-19 16:57:32.820,748,-17,648,2,-3,-1,-2,-5,1,850,68,T,1.502785316066696,49.08752888866122,1503.7109390987962,-34.17524861588173,-6.680064887727099
2025-02-19 16:57:32.913,741,-24,666,4,0,-2,0,-5,0,851,67,T,2.063819728456962,48.03277400793478,1484.5274561850906,-48.081860929071766,-2.2716407817414392
2025-02-19 16:57:33.025,676,-29,682,15,11,-11,0,-6,0,754,70,T,2.4348639985697673,44.720978965671485,1379.6549163200375,-59.1863795462738,-27.900374157197575
2025-02-19 16:57:33.135,1086,117,565,6,-28,-17,-1,-7,1,630,87,T,-11.69942871408103,62.01848885574866,1969.0990413252339,212.14050445216608,105.56081183355701
2025-02-19 16:57:33.235,775,58,621,-1,-6,1,-1,-7,2,897,86,T,-5.335817538101643,51.17366731147884,1554.0499004625112,116.30308932493631,-3.2451460480248215
2025-02-19 16:57:33.349,548,-164,627,21,-54,-24,0,-7,3,796,84,T,14.658066959397816,40.216430423736135,1193.6766911434202,-357.2317104881768,-111.75781997613933
2025-02-19 16:57:33.451,803,155,544,0,0,46,0,-5,2,771,87,T,-15.90365541813244,54.838287127205064,1620.5299089361447,312.80465240984114,-9.843425231958577
2025-02-19 16:57:33.555,571,-77,652,-35,52,12,0,-5,0,777,41,T,6.735328788417398,41.014227274020165,1227.2464127928947,-165.49557580569683,-97.33916136771859
2025-02-19 16:57:34.381,740,-6,658,0,-1,-3,-1,-6,2,641,68,U,0.522439436958746,48.35566771155945,1487.2841575158945,-12.059060736615361,-6.476994115484445
2025-02-19 16:57:34.475,753,-14,663,0,-1,-1,-2,-6,3,656,70,U,1.209685855977841,48.630454677285634,1503.4624736496885,-27.952821555239893,2.2342363482821384
2025-02-19 16:57:34.581,728,14,665,6,-1,-6,-1,-6,1,651,74,U,-1.2060487792199577,47.58318053970577,1466.2573639999305,28.197256999998665,-9.369707499936453
2025-02-19 16:57:34.685,758,-6,609,-4,3,-16,-2,-8,3,360,93,U,0.5644721753069635,51.219199638474635,1537.5478941704757,-12.170563806098754,-17.312226319023353
2025-02-19 16:57:34.798,773,296,580,-3,-13,54,-1,-6,2,636,84,U,-27.037258448483396,49.88965085518963,1537.8050425463775,588.8619567836064,6.148868464554994
2025-02-19 16:57:34.906,710,-298,685,-1,0,-41,-1,-6,3,800,85,U,23.510798561704433,43.54479385882796,1398.9214631870586,-587.1529521545683,20.336334812485575
2025-02-19 16:57:35.012,823,212,535,-3,0,43,0,-5,2,782,85,U,-21.616525392613884,55.037293058546936,1642.5252039951317,423.10491281527084,2.2588285086325186
2025-02-19 16:57:35.119,600,-137,687,-39,54,5,0,-4,0,795,39,U,11.27785197372588,40.579992104132096,1250.5090372735801,-285.5328968441341,-57.832847678249095
2025-02-19 16:57:36.035,731,-41,662,2,-3,-3,-1,-4,1,784,56,V,3.5440034579851205,47.78116115213505,1471.5836945690355,-82.53752596078039,-8.679077708209888
2025-02-19 16:57:36.133,748,-31,649,8,-6,-5,-1,-4,3,773,65,V,2.7346998341849873,49.02123400707068,1502.9526660539868,-62.28814525090051,-6.032460252723695
2025-02-19 16:57:36.240,749,26,647,7,-5,-16,0,-6,2,718,81,V,-2.3012197171385367,49.15607324784839,1505.493877570606,52.2601346019169,-6.4733495169319895
2025-02-19 16:57:36.345,769,-60,647,-2,-2,-13,-2,-8,0,579,90,V,5.298211033841751,49.803445701338255,1532.8348443257603,-119.59699695649624,4.345716152448972
2025-02-19 16:57:36.455,737,294,578,7,-16,44,-1,-4,2,767,86,V,-26.96018821958548,48.65594121233663,1487.7563893535303,593.4876234327517,-10.78859300724639
2025-02-19 16:57:36.562,708,-219,684,-6,-4,-39,-1,-8,4,846,87,V,17.75378934928186,44.59007496246176,1410.029702045906,-436.15325529386087,5.767914972599101
2025-02-19 16:57:36.665,705,57,587,-31,65,29,0,-5,2,807,53,V,-5.546256106841885,50.08615701321943,1472.010151540091,119.0135867202627,-51.63114745252983
2025-02-19 16:57:37.585,742,-28,665,-5,-4,-2,-1,-7,1,577,64,W,2.4110297466112307,48.107243737160445,1486.3959723914286,-56.090414052506745,-2.1473337470351908
2025-02-19 16:57:37.682,734,-2,677,-2,0,-8,-1,-6,1,624,70,W,0.16926325800220954,47.31318839719406,1469.070675119332,-4.002917370897363,-0.9875300487573213
2025-02-19 16:57:37.789,692,5,642,-3,-8,-22,-1,-7,0,479,83,W,-0.44621979066314077,47.145646813840415,1425.0849878530612,10.296856848649284,-38.116419366568266
2025-02-19 16:57:37.897,731,-10,677,0,4,-18,-2,-8,2,223,90,W,0.8462572090594008,47.19323117084705,1464.6495913046933,-20.03624611907925,-2.4538622616651082
2025-02-19 16:57:38.006,843,143,597,14,-6,21,-2,-5,1,565,88,W,-13.470321734810009,53.93722608366421,1651.3725246498443,280.12606290027014,24.522660479291858
2025-02-19 16:57:38.113,696,-237,706,17,0,-33,0,-6,2,804,86,W,18.556595730399625,43.06327378503638,1378.8056041631876,-469.50708072798204,13.383970489640092
2025-02-19 16:57:38.215,859,208,613,14,-5,29,-1,-5,2,747,92,W,-18.742837200143086,52.99895115493823,1657.6244932082282,401.38055248813913,43.085198676782284
2025-02-19 16:57:38.325,816,37,619,4,2,-4,0,-6,4,869,86,W,-3.4207180141744953,52.767621597405174,1612.1881260132086,73.1016674785401,15.02886029145077
2025-02-19 16:57:38.435,531,-112,691,-12,2,4,0,-5,3,816,46,W,9.206659318026002,37.18221119788847,1135.351784560484,-239.47156284514915,-95.45401719641154
2025-02-19 16:57:39.249,774,14,625,0,0,-4,-1,-5,2,875,75,X,-1.2832108685072732,51.07232495694682,1551.9397386456408,28.07126142253097,-3.181313505846788
2025-02-19 16:57:39.347,789,29,625,9,-4,-7,0,-5,2,891,83,X,-2.656618731469127,51.58578670400542,1572.5393458215594,57.799291544772146,4.325613259220972
2025-02-19 16:57:39.455,768,-15,667,-4,-8,-16,-1,-6,4,874,85,X,1.2882936306215258,49.018854186204024,1522.9254271446937,-29.7446372489198,11.355130331366354
2025-02-19 16:57:39.563,872,186,485,-17,5,42,1,-5,1,455,90,X,-20.98207628714328,59.21810323964768,1731.1216396982145,369.25301030260084,7.162849479777435
2025-02-19 16:57:39.665,599,-40,695,-15,38,-61,-1,-3,2,524,70,X,3.293964987845106,40.71023660407763,1251.2338435565232,-83.55484764985128,-61.76547791616599
2025-02-19 16:57:39.779,1009,137,739,-17,-37,60,-1,-8,0,670,82,X,-10.502581921488618,53.31802892650649,1810.9636557431659,245.88901965987486,151.63514212666053
2025-02-19 16:57:39.880,792,-5,585,3,1,28,0,-3,5,815,90,X,0.48969559312922417,53.54807671554334,1596.355691571256,-10.07800310335389,-9.1263630924052
2025-02-19 16:57:39.989,545,-133,728,-19,31,-1,2,-1,1,629,37,X,10.353320043929445,36.36932053211742,1137.9878149497981,-277.71078786848284,-64.10115464853777
2025-02-19 16:57:40.812,745,-17,641,-2,0,-2,-1,-6,2,770,70,Y,1.5191887390230623,49.28124978195828,1502.9208944202078,-34.29483920153495,-11.11717224611175
2025-02-19 16:57:40.906,756,-4,644,-1,-2,-2,1,-7,2,765,72,Y,0.3558698306218785,49.57337569787614,1517.2370558495438,-8.027709290209227,-4.461195723685478
2025-02-19 16:57:41.011,715,-4,655,3,-3,-11,-2,-5,3,737,77,Y,0.3498935405721128,47.507169586613315,1452.3618695944328,-8.125101368360463,-20.485349069025688
2025-02-19 16:57:41.115,773,-65,576,-3,3,-22,-2,-9,3,627,91,Y,6.438431698336627,53.13456495877617,1573.046729859692,-132.27430458069858,-20.153837515113423
2025-02-19 16:57:41.229,793,95,575,13,-4,27,-1,-5,3,831,88,Y,-9.381510160748238,53.68692876065791,1598.7932016614204,191.53260297331013,-9.276281154245453
2025-02-19 16:57:41.338,490,-157,759,25,-53,-28,0,-5,2,900,76,Y,11.686872953617346,32.30118913352659,1024.3698920884212,-328.2164756283309,-68.72805733696259
2025-02-19 16:57:41.442,720,14,689,-2,6,26,-1,-5,3,765,87,Y,-1.1640501395110545,46.25447806505229,1442.418006424989,28.047016791597002,-2.3138978150238927
2025-02-19 16:57:41.545,808,-169,731,-10,-4,54,0,-7,3,668,89,Y,13.0175122070867,47.121265223620135,1540.7954966310017,-322.2703452111873,68.03773757764554
2025-02-19 16:57:41.659,906,-11,609,18,3,-19,-1,-3,2,767,89,Y,1.0347866140221642,56.08725399759005,1735.8881887440607,-21.075905161351734,51.16125061243599
2025-02-19 16:57:41.762,576,-74,695,-2,2,-5,1,-2,0,726,39,Y,6.077659595888394,39.49257213604114,1211.9781809952515,-155.7055301973066,-72.36950658281205
2025-02-19 16:57:42.679,751,-6,647,3,-5,-3,0,-6,3,773,67,Z,0.5313212099154058,49.25329189309547,1508.6024870360548,-12.052749563537052,-5.688161268078829
2025-02-19 16:57:42.777,750,3,641,1,-4,-4,-2,-6,3,769,72,Z,-0.2681530164434638,49.480282486075374,1510.1824224235766,6.040729689694306,-8.702577031350074
2025-02-19 16:57:42.883,754,29,638,5,4,-6,-1,-6,3,738,80,Z,-2.6025622024998065,49.734482594028556,1517.0574521488738,58.348363544187464,-7.663997972124093
2025-02-19 16:57:42.987,840,22,541,4,6,-13,-2,-8,1,353,87,Z,-2.3286747019544336,57.19498451809303,1680.5191809408689,44.01359759607037,-0.3343772488213972
2025-02-19 16:57:43.100,663,54,738,24,-13,15,0,-6,4,877,80,Z,-4.1849161251184155,41.85966196264454,1330.3083711820307,108.35090806007489,-4.795743487690174
2025-02-19 16:57:43.207,943,60,413,-30,18,5,0,-6,0,502,87,Z,-8.266012115034659,66.12765811956073,1857.4494207795333,118.18342019806151,12.50412430334336
2025-02-19 16:57:43.313,758,83,628,33,-39,13,0,-4,2,818,84,Z,-7.528896101951476,50.11447228546705,1525.3271504818558,167.02131067281536,-7.727507259374079
2025-02-19 16:57:43.425,911,128,642,-41,63,-15,1,-3,4,795,72,Z,-11.275603071589535,54.29934182023855,1723.0768234646337,242.10080505320866,69.71314965500028
2025-02-19 16:57:43.527,796,34,639,-3,0,-12,1,-4,0,783,56,Z,-3.0457296325117316,51.2042204657469,1575.3841190950275,67.29027644375745,13.338628012911272
2025-02-19 16:57:43.628,750,29,657,-5,2,2,0,-5,0,778,52,Z,-2.527396892396169,48.754000203152025,1501.8858390059206,58.07291910822893,-1.6519949691863758
2025-02-19 16:57:43.740,749,-1,661,-6,3,-1,0,-4,1,717,48,Z,0.08668038699147607,48.57124216886993,1498.7790502758337,-2.0010401205284825,-0.687519669326889
2025-02-19 16:57:44.555,764,14,628,-8,0,1,-1,-5,2,807,61,a,-1.277082915254951,50.57317084694756,1536.4362717499803,28.154591367146235,-6.934527040559715
2025-02-19 16:57:44.653,743,7,625,-6,-4,1,-1,-4,1,808,63,a,-0.6416859004175293,49.928206947911576,1508.238412923381,14.209513984473311,-18.706605756545514
2025-02-19 16:57:44.760,770,11,628,1,-6,0,0,-5,3,817,68,a,-1.0034858773602444,50.79554712205,1544.895366701518,22.069933810021688,-3.992584790329147
2025-02-19 16:57:44.870,943,30,628,6,-6,-6,-1,-6,3,824,83,a,-2.7349803507039403,56.30785096846669,1775.030142015839,56.46967577993125,73.90145367343905
2025-02-19 16:57:44.977,763,-76,583,2,13,-22,0,-7,4,621,86,a,7.427206476752152,52.38380157212279,1555.117113955108,-154.90026298897538,-22.248070033850695
2025-02-19 16:57:45.087,778,50,660,6,-16,-7,-1,-5,3,821,85,a,-4.332313983188515,49.61019505775421,1539.6536202019638,98.94946145256837,13.867108826097478
2025-02-19 16:57:45.194,784,46,712,-10,-8,60,-1,-6,2,831,83,a,-3.6965561524283164,47.69603041224709,1523.5844652973428,89.39398648428286,40.33655702588271
2025-02-19 16:57:45.301,824,13,604,-26,69,12,1,-5,3,831,58,a,-1.2329969367780786,53.75189539531544,1630.4641648749866,25.723342407008282,12.853937397461209
2025-02-19 16:57:46.515,733,-47,640,-2,-4,-8,-1,-6,4,686,69,b,4.200119129067428,48.798651734587786,1485.3994086239795,-95.2438911396003,-16.93809211370649
2025-02-19 16:57:46.611,726,2,642,0,-3,-26,0,-6,3,684,81,b,-0.17849094755360373,48.513612293464746,1475.1131244840467,4.063672519239796,-20.438878675974706
2025-02-19 16:57:46.721,745,-263,644,25,6,-29,0,-9,3,638,88,b,22.214372449152094,46.96262746779585,1475.9086964506826,-521.0254861295698,12.180938907060863
2025-02-19 16:57:46.827,789,43,659,-1,-2,12,-1,-7,2,730,86,b,-3.7332790666141302,50.07030956365275,1555.8326522776294,84.79189359687967,18.514933015262727
2025-02-19 16:57:46.935,666,41,735,-8,-17,8,-2,-6,3,829,66,b,-3.1927822211084016,42.13614707304903,1336.8945872619984,82.30131843504796,-5.401684140493785
2025-02-19 16:57:47.041,857,11,550,24,27,6,-1,-6,3,479,85,b,-1.1457628381751033,57.30351458258492,1698.5439192640947,21.801613899539127,9.919305023043421
2025-02-19 16:57:47.145,546,-82,778,-11,-3,-2,0,-5,0,678,43,b,6.016672996056159,34.91248179372063,1118.3245286391143,-167.95350063810872,-37.510042639617154
2025-02-19 16:57:48.867,766,-11,634,-1,0,-1,0,-6,4,768,81,c,0.9939910800396934,50.38201492852376,1536.3131182485,-22.0619377294171,-3.569865495494696
2025-02-19 16:57:48.961,761,-11,629,-1,-1,0,0,-6,2,782,82,c,1.001890835755314,50.42046809625082,1531.7409041923388,-22.14080150606534,-8.051286119554561
2025-02-19 16:57:49.068,772,-15,629,0,-1,-1,-1,-6,3,782,83,c,1.3660951167989142,50.820018094758694,1547.1652608510567,-30.061501182339182,-2.5789495794230106
2025-02-19 16:57:49.179,766,-7,630,-2,-1,-1,0,-7,1,784,83,c,0.6365935759634864,50.56252980743007,1538.318308344059,-14.05773911019375,-5.196519917437627
2025-02-19 16:57:49.286,757,-17,621,7,-2,0,0,-8,3,803,84,c,1.5680918651782882,50.62595878079521,1530.0210691166628,-34.35978622851158,-13.142779288570068
2025-02-19 16:57:49.395,710,-68,661,-10,-1,-27,-1,-7,4,716,85,c,5.873608542309539,46.8964604168935,1440.120064364346,-137.92699207996554,-18.731496542017908
2025-02-19 16:57:49.503,782,219,570,23,-11,46,0,-6,2,714,84,c,-21.017300874756273,52.015558997011304,1570.1779109487188,439.73013107131635,-4.503080870549411
2025-02-19 16:57:49.605,873,48,654,5,-4,15,0,-5,3,881,69,c,-4.197668357160927,53.087739764226185,1672.5561613708287,91.96185079702153,55.01978289058184
2025-02-19 16:57:49.709,523,-132,701,-23,0,3,0,-4,0,763,0,c,10.66406295031651,36.24855577921486,1114.2893206041517,-281.23554554445127,-91.53119262621487
2025-02-19 16:57:51.128,744,-23,648,2,-3,0,0,-7,2,736,55,d,2.03279313608551,48.927322078629096,1497.8767827225072,-46.30533064867966,-8.602359145409423
2025-02-19 16:57:51.228,745,-28,650,4,-5,-3,0,-5,1,714,57,d,2.466600948525398,48.86953634764983,1498.2137652783967,-56.3087052722082,-7.166372390547508
2025-02-19 16:57:51.334,757,-13,645,2,-3,0,0,-7,3,705,62,d,1.1546423253669917,49.56168015265761,1518.1046697957293,-26.070489705871175,-3.49737386822369
2025-02-19 16:57:51.444,679,-24,651,7,-19,-8,0,-7,2,755,69,d,2.1113306255760196,46.18661087731126,1400.5984654170766,-49.50568949927811,-40.84182766791889
2025-02-19 16:57:51.550,738,-85,653,-3,9,-26,-1,-5,3,568,83,d,7.416403184422934,48.25783376721855,1484.148410779409,-170.93850259654437,-7.20990818286441
2025-02-19 16:57:51.657,719,229,608,-6,-6,32,0,-6,3,720,78,d,-20.63861879529272,47.89869578804159,1460.960580001165,465.31289682930014,-19.415900752028392
2025-02-19 16:57:51.768,743,-254,692,7,-2,-22,-1,-8,3,748,77,d,20.15576365659488,45.22671587902155,1452.8992162639192,-496.6842542813398,30.828724556349812
2025-02-19 16:57:51.869,834,232,541,7,4,37,-1,-6,3,788,81,d,-23.21137119144493,54.78511836581992,1650.9951519825408,459.26963460425594,11.030722754730846
2025-02-19 16:57:51.976,639,-120,697,-36,36,7,0,-5,1,684,39,d,9.76864261091389,42.09761269513265,1309.3957029664712,-245.89590666037014,-34.24539118564985
2025-02-19 16:57:52.895,762,-6,650,0,-3,-1,0,-6,1,660,66,e,0.5288690977894533,49.53400706785337,1522.7913019820578,-11.990482692772106,1.0310416163550826
2025-02-19 16:57:52.993,748,-17,651,4,-1,-3,-1,-5,0,631,70,e,1.4958631918725354,48.95659763507988,1502.2123897221954,-34.14119067550443,-5.406772338434621
2025-02-19 16:57:53.095,814,40,595,-6,-1,-9,0,-6,2,435,83,e,-3.846030090047376,53.7731916302059,1620.6838827847164,79.6404856405266,5.347776097166616
2025-02-19 16:57:53.205,708,43,687,11,-11,6,1,-7,3,779,80,e,-3.581526561617763,45.806469448660835,1424.989322208923,86.5459616595815,-8.72268977052272
2025-02-19 16:57:53.315,931,-116,505,5,12,-26,-1,-8,3,467,82,e,12.936599965717262,60.90171174265835,1804.7867521802268,-224.8713891008661,31.034038828125915
2025-02-19 16:57:53.422,750,60,662,16,-18,20,0,-6,2,815,81,e,-5.1788212318710425,48.44992204234123,1498.3762881423809,119.87010305139049,1.4331963329916562
2025-02-19 16:57:53.529,621,-42,687,-34,45,13,1,-5,0,793,40,e,3.4984445650221807,42.05821846026147,1290.8853730950805,-87.30625711754169,-54.08091999407452
2025-02-19 16:57:54.445,758,-32,635,-3,-7,-1,0,-5,3,750,67,f,2.884905923789904,50.01028048579114,1524.1597650917663,-64.34447557115638,-6.835687115134192
2025-02-19 16:57:54.545,802,46,667,-4,-7,-3,0,-4,4,746,87,f,-3.945186229037563,50.183848220907,1570.1030450400926,90.05578562574095,28.19110842675616
2025-02-19 16:57:54.645,810,-91,596,5,0,-55,0,-6,3,735,79,f,8.68113555458353,53.338591781764606,1612.1779949433962,-181.12123153067785,5.7554506342419245
2025-02-19 16:57:54.758,784,56,644,-16,-8,33,-1,-7,4,854,81,f,-4.969740728110304,50.493453184578144,1555.55189783671,111.1108498454793,10.225226776988166
2025-02-19 16:57:54.868,626,-83,513,19,-45,-27,0,-6,3,681,79,f,9.190436652253252,50.30239292692009,1395.4262321646888,-185.01657710809772,-117.53619345125458
2025-02-19 16:57:54.975,749,135,659,3,-20,22,1,-8,2,858,79,f,-11.577199477821857,48.072618085951525,1492.992301024952,269.09741073213416,4.4059727964709055
2025-02-19 16:57:55.082,869,92,559,-38,57,18,-2,-6,1,803,57,f,-9.345935120114632,56.89879209367788,1706.7072035442045,180.68706872965106,20.129658479620048
2025-02-19 16:57:55.895,758,18,641,-1,-2,-1,-1,-6,1,638,63,g,-1.6085071389658172,49.76945387918128,1521.4518070012152,36.12946243538505,-4.610301171212086
2025-02-19 16:57:55.995,733,-10,637,6,-9,3,-1,-6,2,708,68,g,0.8993889080684764,49.00483952493213,1487.7649919790704,-20.296930313493455,-18.914460969533025
2025-02-19 16:57:56.095,761,51,630,-1,-2,-6,0,-7,3,757,79,g,-4.62813753773235,50.28812227959606,1530.2671185428183,102.55403816778413,-6.844000896156899
2025-02-19 16:57:56.208,775,-1,566,7,15,-17,0,-6,2,634,80,g,0.1012291870961378,53.85845789898366,1582.5624768365128,-2.042016099143888,-23.78111211544035
2025-02-19 16:57:56.315,733,69,631,3,-10,-18,1,-6,2,846,79,g,-6.240512341407716,49.1081798101728,1488.9469352877936,140.160079856559,-19.753773760706395
2025-02-19 16:57:56.421,714,10,715,-9,-6,54,1,-6,4,823,79,g,-0.8012873301070143,44.957103379710844,1420.5771812178427,19.896038952630846,7.433214886894348
2025-02-19 16:57:56.525,720,4,608,3,39,-35,-1,-4,3,526,86,g,-0.37694047959713317,49.820154870613536,1484.023033283554,8.244572407130857,-37.17500588389021
2025-02-19 16:57:56.638,699,-62,705,-26,22,-7,-1,-3,0,521,48,g,5.025847722368253,44.64479841065312,1401.7095570706517,-124.32903081313361,-3.741398762245126
2025-02-19 16:57:57.655,749,-1,653,-2,-1,-4,1,-5,1,660,64,h,0.08774231963823739,48.9171011635793,1502.7595665812503,-2.0063545615236986,-4.149528674975272
2025-02-19 16:57:57.752,751,12,647,0,-3,-7,-1,-7,2,681,69,h,-1.0625510544844694,49.249637759566795,1508.5608574336006,24.104833940350474,-5.652296617229695
2025-02-19 16:57:57.858,766,23,660,1,-2,-10,-2,-6,1,688,77,h,-1.9958634289664448,49.234000161735445,1523.3826717809184,45.74125515791268,7.424851990331717
2025-02-19 16:57:57.965,751,37,656,2,-1,-5,0,-8,2,688,81,h,-3.228201386981834,48.817634815142114,1503.6176083759233,74.07969575220926,-1.4129841472778253
2025-02-19 16:57:58.065,748,2,664,1,-4,-11,0,-9,2,628,83,h,-0.17257712723883567,48.40438926357242,1495.84894976668,3.999596122370802,0.1340873728937595
2025-02-19 16:57:58.175,757,-208,667,34,1,20,-1,-7,2,647,82,h,17.319780236599865,47.294278534692616,1491.846871541131,-409.91301093864615,19.519335115014428
2025-02-19 16:57:58.284,765,8,668,13,1,22,-2,-6,1,686,82,h,-0.6861441978352363,48.87041770286105,1518.2238834588647,15.876851068850872,10.28293575095222
2025-02-19 16:57:58.399,740,102,685,-11,-16,30,0,-8,2,839,80,h,-8.46940359623172,46.89699615997578,1470.1264536924477,202.6390517251752,9.139701649558788
2025-02-19 16:57:58.501,834,41,619,-35,63,17,-1,-5,1,828,55,h,-3.7895001930724006,53.356928620630384,1636.3690438662015,80.44500095745114,23.47669286189614
2025-02-19 16:57:58.608,633,-84,683,8,-24,-9,0,-4,1,751,39,h,7.011416358132932,42.60979994526881,1310.0018627921395,-173.83910975440716,-47.477523360239275
2025-02-19 16:57:59.726,750,-9,646,2,-2,-3,1,-6,1,704,58,i,0.7981867749175499,49.25783368494765,1507.6542249630243,-18.09185069955629,-6.592839101484742
2025-02-19 16:57:59.815,750,5,647,0,-4,-3,1,-6,2,729,59,i,-0.44277155297817355,49.21590867372496,1507.176454408458,10.047843029389721,-6.1908880030298405
2025-02-19 16:57:59.931,761,2,643,2,-7,-3,-1,-6,1,738,67,i,-0.17821335844717398,49.80403017848159,1524.8414281639352,4.007467616725192,-2.4008387771490334
2025-02-19 16:58:00.038,729,-11,649,0,-7,-9,-2,-7,2,740,69,i,0.9710219310791666,48.318499048982645,1475.8529258329136,-22.269385712156442,-15.893757017230087
2025-02-19 16:58:00.140,782,8,643,1,1,-2,-1,-7,4,756,79,i,-0.7128189538216674,50.56905104395863,1554.3906039973208,15.901694158540366,7.90133200731816
2025-02-19 16:58:00.245,769,17,624,-2,7,16,-1,-6,3,773,69,i,-1.5605566988954505,50.932224467862135,1545.400990928406,34.16361098281262,-6.005485486769203
2025-02-19 16:58:00.358,679,-12,639,5,-25,-22,-1,-7,3,781,78,i,1.0758506207912717,46.73329544364967,1407.1711741650656,-24.869004550781714,-46.27449232912625
2025-02-19 16:58:00.465,751,183,645,3,-16,53,-1,-6,3,813,80,i,-15.839749223762954,48.24299728986358,1496.9759852004286,364.77577269198196,4.314899528260412
2025-02-19 16:58:00.575,742,-35,631,-31,49,-66,0,-7,1,783,65,i,3.174801086302754,49.57858146757191,1503.295971615314,-70.910187340345,-16.409377478791384
2025-02-19 16:58:00.680,777,22,617,16,12,12,-2,-8,3,752,82,i,-2.0420962111990986,51.52989327535187,1559.9328386670695,44.16798256200197,-4.711147307055285
2025-02-19 16:58:00.790,599,-13,668,-35,46,27,1,-5,3,807,38,i,1.1148968898475584,41.87739639515776,1266.5388671504652,-27.487487934818105,-76.43399541988424
2025-02-19 16:58:01.705,741,-21,658,0,-1,1,0,-6,3,696,54,j,1.827968244305005,48.38078888084462,1488.5754358126574,-42.18634838335467,-5.8389160117794745
2025-02-19 16:58:01.797,741,-16,649,5,-4,3,1,-5,1,650,56,j,1.4122447060701095,48.77808806987555,1493.1629477604706,-32.24103530926792,-9.776994732180015
2025-02-19 16:58:01.907,733,0,643,12,-14,-2,0,-6,3,618,64,j,0.0,48.74221330577074,1484.7501931636766,0.0,-16.447986636076394
2025-02-19 16:58:02.015,770,-97,569,14,6,-21,1,-6,3,529,80,j,9.674467388843924,53.14397248419957,1570.1452242197643,-197.7975152588534,-22.27614620915017
2025-02-19 16:58:02.125,882,186,487,-33,-13,43,0,-4,3,525,92,j,-20.903366076793038,59.41456089498861,1742.8713647321351,367.54430140609657,11.666264598015971
2025-02-19 16:58:02.237,262,-414,668,-20,-57,-68,1,-6,2,787,73,j,31.788998773346417,18.437397706191437,578.2683134729712,-913.7522205259925,-138.363486259331
2025-02-19 16:58:02.340,898,20,699,-26,-20,59,-1,-8,2,822,83,j,-1.6389170775359023,52.0915732294194,1686.9937303712422,37.572243438112295,84.85009183797524
2025-02-19 16:58:02.445,497,-91,729,-8,10,11,1,-5,3,782,35,j,7.115342909940345,34.07856735129048,1057.3292025783965,-193.59548779604444,-92.89132531116911
2025-02-19 16:58:03.359,743,15,655,3,-5,-4,1,-7,3,549,61,k,-1.3118877825041106,48.59439806618987,1493.0464081362638,30.142255884312195,-6.211840281632362
2025-02-19 16:58:03.462,740,37,655,2,-2,-9,-1,-7,0,461,67,k,-3.233119491041413,48.4415286972702,1488.2791160463162,74.41395580231583,-7.328136500455571
2025-02-19 16:58:03.565,713,10,618,13,-19,-24,-2,-7,3,253,85,k,-0.9270352697721882,49.07884557918298,1468.6116779867755,20.597639242451265,-36.934105183488214
2025-02-19 16:58:03.675,724,148,679,20,-6,72,-1,-7,2,462,81,k,-12.296299188770293,46.173157289776206,1445.4358842038177,295.47584373227215,2.404743958021868
2025-02-19 16:58:03.785,838,-48,602,-14,5,-23,-2,-6,1,766,77,k,4.558789666561097,54.221327971717734,1649.2815093841364,-94.46958526305313,19.19395149254194
2025-02-19 16:58:03.887,729,32,676,-4,4,-4,-1,-6,3,718,84,k,-2.710203100174587,47.12833948087798,1461.8795054506932,64.17029379207432,-3.5974563575699676
2025-02-19 16:58:03.995,994,16,694,-55,-24,76,-1,-8,3,465,82,k,-1.3207062001603773,55.07052756103375,1813.8574606370225,29.19690077484141,121.58442889125388
2025-02-19 16:58:04.100,824,49,639,15,1,7,-1,-7,3,771,84,k,-4.384991669399802,52.125576363731156,1613.3582180571882,95.9399911223328,26.864197404680453
2025-02-19 16:58:04.208,570,-116,695,-4,-4,-9,1,-6,0,373,43,k,9.475690331794496,38.9712472155168,1198.9303160768527,-243.9928362542367,-71.85363100598693
2025-02-19 16:58:05.025,740,24,662,1,-2,-1,-2,-7,2,539,64,l,-2.0762790567583482,48.165658235054444,1485.0763616544104,48.16463875635927,-4.541285696242994
2025-02-19 16:58:05.125,742,30,653,0,-3,-2,-1,-7,1,571,66,l,-2.630422054193506,48.620524004403805,1492.3479109838358,60.33751661659714,-7.3466116879311585
2025-02-19 16:58:05.231,729,30,655,5,-4,-7,-1,-9,3,590,71,l,-2.622401460541092,48.03074076270714,1472.503725486013,60.59686113111165,-13.031468029270968
2025-02-19 16:58:05.339,770,-11,632,-6,-2,-17,-1,-10,1,454,87,l,0.9971359873347441,50.61730638323526,1542.9252607337462,-22.04178943905352,-2.4009932256203683
2025-02-19 16:58:05.445,804,249,547,4,-6,40,-1,-7,4,555,84,l,-24.475514005819274,53.22108617680548,1604.9517713065325,497.0559590240381,2.07385708373954
2025-02-19 16:58:05.555,732,-19,612,-39,53,17,1,-5,1,589,53,l,1.7782193816546532,50.08858362478821,1499.0373256081684,-38.90943877944699,-29.293501737976726
2025-02-19 16:58:05.665,699,-37,669,12,-23,-12,0,-5,1,551,49,l,3.1655998578388225,46.21257841747683,1420.9121602173464,-75.21280390277798,-21.928805701580472
2025-02-19 16:58:06.475,749,16,657,1,-3,-1,0,-7,3,548,65,m,-1.3950552609814286,48.735326351896546,1500.6709220716702,32.05705574518922,-2.342851536832086
2025-02-19 16:58:06.575,775,39,634,7,-6,-2,0,-7,2,566,72,m,-3.5200682833791856,50.66158269009948,1548.415348517197,77.92025624796219,1.2963471485123819
2025-02-19 16:58:06.685,746,-139,714,17,-8,-12,-1,-8,3,533,83,m,11.016427408381878,45.72308679003316,1461.974095399987,-272.4053609391397,28.73793013995862
2025-02-19 16:58:06.789,795,208,546,-4,-4,36,-1,-7,3,383,85,m,-20.854458039578347,53.68634414712295,1600.7871591779724,418.8223007660607,-7.40853951090935
2025-02-19 16:58:06.895,709,-169,701,-4,-8,-34,0,-7,2,734,80,m,13.55445378511667,44.515874310735924,1410.1068498440582,-336.1185580023214,7.804087812856437
2025-02-19 16:58:07.005,806,153,574,8,0,20,-1,-6,2,759,84,m,-14.925204233083498,53.60889883639693,1610.985953905366,305.8075073790583,0.7221618589577474
2025-02-19 16:58:07.106,739,8,768,5,-15,0,0,-8,3,848,81,m,-0.5968094512291772,43.896009995098964,1432.3516483354565,15.505836517839853,47.439694287374095
2025-02-19 16:58:07.217,965,53,622,-4,39,-1,0,-6,2,837,72,m,-4.870351812546389,57.10136212750522,1804.6327775145674,99.1145463298156,80.80664495952249
2025-02-19 16:58:08.139,744,10,664,0,-2,-1,-1,-6,1,613,65,n,-0.8628230170810314,48.24871802833365,1490.0424760213868,20.02745263469606,-1.8228549438185837
2025-02-19 16:58:08.233,729,9,654,3,-1,-5,-1,-6,1,605,67,n,-0.7884242624401321,48.101409346682466,1473.3279731774837,18.189234236759056,-13.751021204491394
2025-02-19 16:58:08.339,771,40,626,-8,-2,-11,-1,-7,1,382,85,n,-3.6561017173739376,50.86859808111233,1546.7006380109217,80.24387227034612,-3.8166010309168996
2025-02-19 16:58:08.445,806,192,560,2,-3,30,-1,-7,2,158,86,n,-18.924644416051233,53.70304105183947,1611.9597030222483,383.99040071993994,0.027997900175137147
2025-02-19 16:58:08.555,744,-166,719,-6,-17,-30,0,-8,1,792,79,n,13.000436576509298,45.2353057848407,1454.00479893888,-324.41504922561035,32.85288919750724
2025-02-19 16:58:08.658,799,113,560,7,6,47,0,-5,2,818,83,n,-11.40827734742447,54.43513030919627,1612.4575308094393,228.04468207943253,-10.132937738780697
2025-02-19 16:58:08.770,575,-131,729,-24,31,7,1,-6,0,783,39,n,10.187224577276849,37.822800930941774,1188.2214483412556,-270.7078430133991,-48.45814928830498
2025-02-19 16:58:09.589,740,-26,647,-1,-2,-1,-1,-6,2,657,63,o,2.3012197171385367,48.813101310381654,1492.5655058163613,-52.44149074489918,-10.986327382683385
2025-02-19 16:58:09.688,719,-15,641,11,-19,1,-1,-6,3,728,71,o,1.340530214172967,48.2746951291125,1465.3443082856402,-30.570465402342982,-24.37788819345667
2025-02-19 16:58:09.790,746,27,656,-1,0,-13,-1,-6,2,722,83,o,-2.356880166538064,48.64895907171653,1496.6758847143356,54.16923443336067,-4.111769936466544
2025-02-19 16:58:09.895,824,-25,579,32,20,11,0,-8,2,430,81,o,2.4723753540793716,54.88033663742016,1641.9523329548042,-49.816514956153036,4.24951361549563
2025-02-19 16:58:10.007,618,-50,725,-1,-10,-51,0,-4,3,839,84,o,3.945186229037563,40.37763479834102,1265.822587951559,-102.4128307404174,-34.98604573605223
2025-02-19 16:58:10.105,1031,90,643,-13,46,16,0,-7,3,763,72,o,-7.967862505990204,57.79949467721186,1877.188466367591,163.86708241812144,115.26073339053244
2025-02-19 16:58:10.220,606,-57,697,-7,-2,9,1,-6,0,700,38,o,4.675190848549777,40.9104882556987,1260.8791651971935,-118.59754524132016,-56.21910584561681
2025-02-19 16:58:10.939,756,3,654,-1,-1,-1,-1,-6,3,627,61,p,-0.26282283323652145,49.13729532076979,1512.2794969207118,6.001109114764729,-0.24178701871096564
2025-02-19 16:58:11.031,737,1,642,2,-5,-2,0,-6,1,632,64,p,-0.08924569030496275,48.94087397807285,1491.0321624761762,2.023110125476494,-14.83670055590892
2025-02-19 16:58:11.141,792,51,624,1,-3,-7,0,-6,2,649,74,p,-4.67244275538945,51.67342175568314,1576.4887843294227,101.51632323333405,5.917927498030508
2025-02-19 16:58:11.252,785,-81,616,-8,-2,-20,-2,-6,3,636,83,p,7.491045496834939,51.63949985791739,1569.1214919356269,-161.90935139717936,0.6893770288583028
2025-02-19 16:58:11.355,836,215,532,11,2,22,-1,-5,3,652,86,p,-22.005374182898912,55.53560838322325,1660.4780415901,427.0368169161143,7.332155351754409
2025-02-19 16:58:11.465,708,-155,720,-9,-10,-34,0,-6,2,817,78,p,12.149091607441346,43.86989162738826,1401.0230899826154,-306.72115670523357,15.230755949882791
2025-02-19 16:58:11.568,827,70,493,1,14,26,-2,-6,2,757,0,p,-8.081284604384598,58.94744335563931,1683.6945026850262,142.5134403723722,-17.701801479707115
2025-02-19 16:58:11.675,520,-95,793,-19,27,11,1,-5,0,774,36,p,6.831376937492706,33.06743939054378,1065.6258058206665,-194.68163760185254,-39.07935387651651
2025-02-19 16:58:12.492,744,3,642,0,-2,-2,0,-6,1,694,64,q,-0.2677353387022093,49.20867551981133,1501.0939855593551,6.052798328868369,-11.298842377830965
2025-02-19 16:58:12.592,755,0,640,3,-6,-2,-1,-6,0,711,69,q,0.0,49.71265168978847,1517.81113110849,0.0,-6.621356171435082
2025-02-19 16:58:12.698,750,21,626,0,-3,-5,-1,-7,2,726,80,q,-1.9213423757969919,50.1335215450675,1517.5403078705376,42.49112862037505,-14.640310302608668
2025-02-19 16:58:12.805,771,-36,597,25,14,-11,0,-8,2,478,82,q,3.450843193751159,52.19835111429379,1561.1373735123075,-72.89357386049684,-14.818433186572634
2025-02-19 16:58:12.915,704,18,635,-10,-12,-27,0,-5,2,781,82,q,-1.6236975337832378,47.93845490506463,1446.425640511081,36.982473763067404,-34.65949108598909
2025-02-19 16:58:13.021,770,164,608,-5,-11,60,0,-5,2,707,83,q,-15.095520844211087,50.72262525114387,1544.090262071948,328.8711727010382,-3.229713428239279
2025-02-19 16:58:13.125,770,-98,622,20,-3,-28,1,-5,3,820,84,q,8.95370462763415,50.72517442044238,1544.1184277081416,-196.52416352649078,-3.326833810992298
2025-02-19 16:58:13.237,555,-97,714,-36,39,21,1,-1,0,758,33,q,7.736516340451541,37.60474219193503,1165.2107371397276,-203.64944414874518,-71.02786723921713
2025-02-19 16:58:14.355,752,-18,657,1,-6,-2,-2,-6,0,684,64,r,1.5693548047489854,48.84660516406051,1504.9504468616828,-36.02275005785943,-0.8303771118693248
2025-02-19 16:58:14.445,735,-8,648,0,-1,-4,-2,-5,2,692,69,r,0.7073193685442565,48.59738087858802,1485.08083876556,-16.164145183842827,-13.295759891269313
2025-02-19 16:58:14.555,813,44,640,-4,-4,-13,-1,-5,3,654,82,r,-3.9328962722305385,51.7242269443529,1598.038367701513,86.48670132701915,22.01161706153971
2025-02-19 16:58:14.655,757,217,631,5,-9,41,0,-7,2,759,83,r,-18.9780205166458,48.6048857275711,1507.167458310096,432.0413982209918,5.695289044028414
2025-02-19 16:58:14.775,795,-199,669,10,-5,-46,1,-7,2,799,83,r,16.565577912507276,48.7184987843785,1546.4771855805573,-387.10560997551056,36.62485892654979
2025-02-19 16:58:14.878,998,131,656,-21,61,6,-1,-5,1,865,68,r,-11.293135119030008,56.16633969936129,1828.6575116337644,240.03420242888095,109.99666569964972
2025-02-19 16:58:15.995,760,4,641,0,-2,-1,-1,-7,3,724,69,s,-0.3575353249147018,49.85446186332169,1524.4092160846526,8.02320640044554,-3.7188256713977808
2025-02-19 16:58:16.089,762,5,640,-2,-4,2,0,-6,2,734,71,s,-0.44761417086055305,49.97240660799909,1527.7347906475557,10.024506500312043,-3.1368320399416234
2025-02-19 16:58:16.200,780,28,634,-5,-2,-3,1,-7,2,732,83,s,-2.5287697396347486,50.86775625678343,1555.6913654081322,55.84533106593295,3.5021465785183636
2025-02-19 16:58:16.305,839,-12,578,28,10,-18,0,-9,3,513,83,s,1.189360891094449,55.43067836683893,1662.440295934657,-23.777453577134548,10.719319368019455
2025-02-19 16:58:16.416,757,131,695,-2,-14,11,0,-6,3,816,84,s,-10.674398035024621,46.946431155187355,1487.7157458398437,257.4514698877405,24.131514717712776
2025-02-19 16:58:16.523,1211,71,553,1,47,20,-1,-6,0,599,73,s,-7.316214013536576,65.2788584853226,2119.353927311804,124.25609317847895,138.20254186339633
2025-02-19 16:58:16.630,500,-115,742,-5,-9,0,2,-2,0,708,32,s,8.809978920515759,33.65980967122281,1054.2607138092699,-242.47996417613203,-80.52289929295614
2025-02-19 16:58:17.545,738,13,658,-3,-1,-3,-1,-6,2,722,65,t,-1.1318362369209545,48.274285040248785,1484.3395445864596,26.146902546915953,-7.4355289131307245
2025-02-19 16:58:17.641,713,-1,657,0,-3,-4,0,-5,2,754,66,t,0.08720812065066638,47.34068111847892,1448.3959164273033,-2.031410822478686,-20.63691036849673
2025-02-19 16:58:17.752,694,46,636,-4,-8,-16,-1,-7,1,748,71,t,-4.136830870927964,47.42257005504242,1430.3636661831156,94.80796634643127,-38.82318687674524
2025-02-19 16:58:17.855,721,-110,661,12,-1,-24,-2,-8,1,649,87,t,9.448265343853999,47.09591727957265,1453.4943908593127,-221.75365186480497,-10.537853478509646
2025-02-19 16:58:17.965,819,233,614,4,-4,38,0,-8,3,770,82,t,-20.780693355387495,51.275286558521934,1599.1606482563345,454.95046525485463,29.117658083773676
2025-02-19 16:58:18.069,578,18,605,3,-25,-37,1,-7,1,511,82,t,-1.704165104817636,43.67988606090484,1268.6285676671641,39.50746404499819,-117.88976373466141
2025-02-19 16:58:18.182,705,179,644,16,-44,21,-1,-8,1,723,0,t,-15.533287865341292,46.525934545257975,1430.685875713322,363.25215851444625,-18.896033984935116
2025-02-19 16:58:18.287,942,115,635,-63,61,7,-1,-7,1,764,52,t,-10.26514046021372,55.58639873084399,1766.9793592488734,215.71404067263313,78.88334063372133
2025-02-19 16:58:18.395,691,33,678,10,-16,-1,-1,-7,1,738,0,t,-2.7865335694932476,45.5101755419633,1404.3749170850092,67.06855609812635,-21.953970743323225
2025-02-19 16:58:18.498,741,33,655,-9,6,1,-1,-6,1,732,48,t,-2.88421889273201,48.48918682477118,1489.830654145088,66.34873358540877,-6.9218332861437375
2025-02-19 16:58:19.415,735,30,668,0,0,0,0,-8,1,660,50,u,-2.5714358823169707,47.70534076811008,1474.6938259456776,60.19158473247663,-4.265953376479615
2025-02-19 16:58:19.514,733,19,664,-1,-1,0,0,-8,2,619,62,u,-1.639040422651061,47.81596304640709,1473.991714073694,38.207152206548685,-7.239424481491028
2025-02-19 16:58:19.620,705,31,659,4,-4,-6,0,-7,1,581,62,u,-2.693263684225309,46.89993932057725,1435.1615529953478,63.106394528873444,-23.51980627508385
2025-02-19 16:58:19.731,758,-14,638,-2,-2,-20,-1,-8,1,277,81,u,1.2570724158145117,49.9062667612986,1522.9918477630404,-28.12913702992423,-5.884958935118448
2025-02-19 16:58:19.838,830,147,629,-14,-18,19,-1,-7,2,747,75,u,-13.154177612695529,52.10810121783694,1619.17093252776,286.76882780913337,30.941546313300137
2025-02-19 16:58:19.942,760,-11,607,2,-2,-28,1,-6,3,717,79,u,1.0381953800796482,51.381603304968735,1541.3201150671105,-22.308580612813444,-17.02803927070522
2025-02-19 16:58:20.046,820,58,640,-11,-6,21,0,-6,2,834,80,u,-5.178284704298129,51.914687856575725,1607.0931741482698,113.67244402512151,25.683376274521265
2025-02-19 16:58:20.155,589,-113,722,-29,23,6,1,-4,1,672,32,u,8.895183408820758,38.86804553191189,1216.5289254959657,-233.39179725134824,-47.22900544666743
2025-02-19 16:58:21.475,738,-21,659,1,-2,-3,0,-6,1,629,52,v,1.8251962702624445,48.222168913638164,1483.7338389744555,-42.22006858870401,-6.905961902663762
2025-02-19 16:58:21.571,747,-29,655,1,-3,-2,-1,-6,2,690,54,v,2.535104082016452,48.72658501920257,1498.5702908328055,-58.177427622692576,-4.007416995297945
2025-02-19 16:58:21.677,737,-17,657,1,0,0,0,-6,2,715,56,v,1.4822084628570968,48.27500959796762,1483.3479612119645,-34.21562461411588,-8.333257145537118
2025-02-19 16:58:21.786,755,-13,660,4,-6,-7,1,-6,0,714,74,v,1.1284073183009056,48.83544262618224,1507.8222239696238,-25.96250186967564,1.903751231852084
2025-02-19 16:58:21.887,719,-6,668,3,6,-7,0,-5,2,659,76,v,0.5146189111171793,47.10466507543872,1451.5983212828444,-12.113476950899955,-12.633767200194825
2025-02-19 16:58:22.003,765,47,659,14,3,-21,-1,-7,0,149,81,v,-4.079438005113346,49.18525588055452,1521.8268836243028,93.49786082397677,7.040632276581164
2025-02-19 16:58:22.105,896,-20,753,-17,-17,43,-1,-9,1,418,79,v,1.521442549604117,49.946295455367306,1661.4416082882362,-37.08575018500527,109.72150553455162
2025-02-19 16:58:22.216,741,5,513,11,-19,-61,0,-6,1,682,81,v,-0.5584207146851583,55.30357288718008,1563.179538931981,10.547770168231988,-56.20121926060199
2025-02-19 16:58:22.319,849,46,685,-21,17,22,0,-7,2,794,74,v,-3.8418317255948864,51.03930731902618,1626.5775188457767,88.13023070306917,57.625912356469826
2025-02-19 16:58:22.425,592,-39,711,-2,0,3,1,-6,-1,666,41,v,3.1396601478202646,39.739468586797216,1231.297672026731,-81.11589393419342,-56.80514326183413
2025-02-19 16:58:22.535,767,21,666,10,-7,-2,0,-6,1,523,51,v,-1.8060252976012394,49.01753173637378,1521.9102901101285,41.668990993888784,10.497714193812953
2025-02-19 16:58:22.635,739,11,669,12,-9,0,0,-7,1,337,56,v,-0.9419981862778256,47.84231543023682,1480.3004891371402,22.034242734111693,-2.0825808291566545
2025-02-19 16:58:22.745,836,-98,644,4,2,-3,-2,-6,0,59,61,v,8.652541791114725,52.07416558014814,1624.807026083786,-190.4678092777644,36.35439617469126
2025-02-19 16:58:22.855,748,44,662,2,-2,3,1,-6,1,99,62,v,-3.8025858070705523,48.42763348613168,1496.118212016986,88.00695364805799,-0.10462079578155681
2025-02-19 16:58:22.965,728,31,666,-2,1,-1,-1,-6,1,19,61,v,-2.6649971346904846,47.51574802926009,1465.4629982792474,62.40295734430861,-8.657083590630123
2025-02-19 16:58:23.068,724,40,663,0,0,-1,-1,-7,0,46,60,v,-3.452573961839717,47.46638821803628,1460.8808842542403,80.71165106377018,-11.795616381990726
2025-02-19 16:58:23.175,734,53,675,-4,3,-3,0,-6,0,11,59,v,-4.489568544929025,47.31004253522435,1469.033448503452,106.0746223033828,-0.9503783921392142
2025-02-19 16:58:24.797,735,16,654,-2,-1,-1,-3,-7,2,673,79,w,-1.401452050733347,48.328930028036766,1481.9739780265188,32.26065802506708,-10.654396774616657
2025-02-19 16:58:24.895,760,26,652,-1,-1,-2,-1,-6,2,678,81,w,-2.283591081567053,49.35138406068356,1518.7188468101037,51.956171075082494,1.0990945787006012
2025-02-19 16:58:25.002,770,39,631,-8,-1,-9,-2,-9,0,640,83,w,-3.536761568601993,50.61248970723615,1542.8719178286588,78.14546077313986,-2.353480714134548
2025-02-19 16:58:25.108,752,-2,650,-3,-4,-11,-1,-7,1,478,85,w,0.1762941498431574,49.16098636844425,1508.5499554413168,-4.012100945322651,-3.9328072298616235
2025-02-19 16:58:25.215,882,-81,714,11,-6,7,-2,-8,1,610,82,w,6.47227030290307,50.82973162362207,1657.2723536651056,-152.1984814590403,86.39857084253379
2025-02-19 16:58:25.318,894,19,612,35,-19,8,-1,-6,1,696,82,w,-1.7782193816546532,55.593006777883794,1719.0445352253907,36.53450354505864,47.20441212758476
2025-02-19 16:58:25.431,772,4,650,16,-6,-30,-1,-8,3,737,79,w,-0.35258496165650843,49.90312917363452,1536.9565781921162,7.963505586487649,5.930342195757021
2025-02-19 16:58:25.538,848,61,606,11,-34,0,-3,-5,2,807,86,w,-5.748035236082943,54.312809047139524,1660.21396309754,119.42576857187493,25.573512220390057
2025-02-19 16:58:25.645,857,100,631,-19,14,11,-2,-7,2,855,76,w,-9.005263152711864,53.29627488069286,1658.736787593541,193.55155047765942,40.68971648596914
2025-02-19 16:58:25.751,553,-58,695,-7,2,13,2,-3,1,734,35,w,4.770464241243239,38.411852146885394,1174.3098810218705,-123.16450831694121,-85.85057379782995
2025-02-19 16:58:26.769,745,-28,640,-22,2,1,0,-6,4,717,53,x,2.5050928672413995,49.30835047502417,1503.2293671079046,-56.49721111278032,-11.364825434978684
2025-02-19 16:58:26.865,790,-22,623,-5,-7,-3,0,-5,3,716,63,x,2.0224455646276494,51.72305927100557,1575.0257433640109,-43.86147639747878,3.922736562305431
2025-02-19 16:58:26.972,735,-35,637,10,-7,-5,0,-7,3,752,65,x,3.1449574646980225,49.042872316299814,1490.2002736448994,-70.96191779261426,-17.50690382557957
2025-02-19 16:58:27.082,725,-8,605,10,-14,-14,-1,-4,2,799,78,x,0.7575859893788349,50.15312039934969,1492.7595265638238,-16.471829258635296,-35.68208768429429
2025-02-19 16:58:27.185,641,-113,694,5,1,-27,-1,-8,3,727,82,x,9.247983139566212,42.35310815427679,1314.6977973466182,-231.76419828419324,-35.40135937371781
2025-02-19 16:58:27.296,792,151,550,10,21,35,-1,-6,3,274,84,x,-15.35203596794133,54.24079380582779,1603.480095187584,305.7140080471278,-13.527843880266914
2025-02-19 16:58:27.406,769,-31,571,25,-1,-32,-1,-9,2,419,80,x,3.107578229394629,53.364908618118065,1571.452160664452,-63.348526632767246,-24.83899055839015
2025-02-19 16:58:27.508,766,31,646,-5,2,19,-1,-6,5,828,64,x,-2.7473802654111914,49.825179137896875,1530.0796069708608,61.92228174425155,1.6195481681774027
2025-02-19 16:58:27.618,576,-120,708,-4,24,-4,1,-5,1,515,34,x,9.619727799698852,38.733779699038344,1201.7026636346727,-250.35472159055678,-61.092857384285026
2025-02-19 16:58:27.721,786,4,641,0,-7,-8,-1,-5,1,506,47,x,-0.3575353249147018,50.801465549616296,1560.9606549172006,7.943820126805091,9.002824679484092
2025-02-19 16:58:27.825,723,-5,687,-8,-3,-3,1,-5,1,435,46,x,0.4169924883607137,46.46179549386053,1447.9152187993132,-10.013244943287088,-1.8198552076460146
2025-02-19 16:58:27.938,726,-17,670,-1,-2,-2,0,-3,-1,450,46,x,1.453461652657532,47.28797714677164,1460.7722750484181,-34.20541139920539,-8.095625733388715
2025-02-19 16:58:28.045,707,-12,666,1,-6,-3,2,-7,1,473,48,x,1.032244691565731,46.705795093497784,1434.842119977051,-24.353755926060273,-19.633453896345145
2025-02-19 16:58:28.155,745,-25,658,-2,-6,-4,-1,-6,1,519,54,x,2.1758447500578515,48.52786174528593,1494.2778505651956,-50.143552032389124,-3.7782894924815764
2025-02-19 16:58:28.258,756,5,657,-2,-1,-2,-2,-5,1,557,60,x,-0.4360325221470275,49.00698306360639,1510.789533419992,9.99199426865074,1.0519530992927457
2025-02-19 16:58:28.363,754,7,655,1,-4,-3,-1,-6,2,580,62,x,-0.6122979977967714,49.017525222100375,1508.910215545411,14.008450276946789,-0.7907044857352048
2025-02-19 16:58:28.472,737,-4,650,-2,0,-1,0,-8,3,598,62,x,0.35258496165650843,48.58865488724085,1486.980108847032,-8.070448351951327,-11.447857192090623
2025-02-19 16:58:29.686,784,7,655,-1,-4,-5,-1,-6,3,611,61,y,-0.6122979977967714,50.121010919969684,1551.4003260500717,13.851788625447071,13.868350047452623
2025-02-19 16:58:29.785,755,9,650,-1,-2,-4,-1,-6,0,639,58,y,-0.7932754859368123,49.27123071355357,1512.8068097900473,18.03345865974891,-2.4164587596435467
2025-02-19 16:58:29.896,743,-5,651,-2,-3,-1,-1,-6,1,654,58,y,0.4400510977564603,48.775043674175976,1495.1279321259808,-10.061426191964877,-7.997690193826884
2025-02-19 16:58:30.003,755,12,656,-3,-2,0,-1,-7,2,664,59,y,-1.0479766460064828,49.008721379205035,1509.8094346735807,23.99697114712976,0.1655772902396393
2025-02-19 16:58:30.109,752,2,650,-1,-1,-1,1,-7,2,663,60,y,-0.1762941498431574,49.16098636844425,1508.5499554413168,4.012100945322651,-3.9328072298616235
2025-02-19 16:58:30.216,750,2,645,-1,-1,-1,-1,-7,2,668,60,y,-0.17766076243366857,49.30433279085851,1508.1836466673267,4.021823057779539,-7.037936133900985
2025-02-19 16:58:31.629,748,0,647,-2,0,-1,1,-6,2,684,63,z,0.0,49.14107088169299,1504.3226076289297,0.0,-7.198833069408465
2025-02-19 16:58:31.732,748,-2,650,-1,-1,-1,0,-7,0,688,62,z,0.1762941498431574,49.00974841318605,1502.8211924327243,-4.018238482440438,-5.927506793142584
2025-02-19 16:58:31.834,760,3,645,-1,0,0,-1,-7,2,685,63,z,-0.2664900760584054,49.6789534134092,1522.4306915129346,6.009594834919478,-2.0628895076877143
2025-02-19 16:58:31.935,755,0,645,-2,0,0,1,-6,1,688,63,z,0.0,49.492581479915316,1515.3218702510335,0.0,-4.546498426379571
2025-02-19 16:58:32.050,747,-12,645,1,-3,2,0,-8,2,691,63,z,1.0658450275615834,49.186003281587574,1503.8354097169204,-24.157998549669397,-8.49242204473012
2025-02-19 16:58:32.155,756,3,665,15,-4,8,1,-6,3,779,65,z,-0.2584754473547752,48.66389518912754,1506.8480857567852,5.979555895860258,4.531776417642618
2025-02-19 16:58:32.263,756,10,639,3,-5,-5,1,-8,1,808,65,z,-0.8965743795383533,49.79077345237646,1519.692078334327,20.10174706791438,-6.5016376397288695
2025-02-19 16:58:32.370,755,-1,645,7,-5,0,0,-5,3,810,69,z,0.08883059473771729,49.49254747196518,1515.3214847121196,-2.007048324122013,-4.546169058698183
2025-02-19 16:58:32.476,745,14,653,2,1,-3,-1,-7,2,776,75,z,-1.2282052756795223,48.75858288930916,1496.9385688336338,28.130389212981036,-6.08172543404396
2025-02-19 16:58:32.585,800,-18,637,4,1,-15,-1,-7,2,582,83,z,1.6186022984878745,51.4603003950057,1582.1766355925138,-35.598974300831564,14.191853909460747
2025-02-19 16:58:32.692,713,83,715,31,-10,1,-1,-8,3,816,77,z,-6.621482051825569,44.72802483878181,1416.7422889518498,164.9223141416599,9.28367938208612
2025-02-19 16:58:32.800,827,196,502,-53,21,14,0,-7,2,660,83,z,-21.327575110265474,56.91012467928063,1664.815204666113,394.5632165835043,-6.564973086322198
2025-02-19 16:58:32.905,692,149,641,26,-38,16,0,-6,0,836,77,z,-13.085976727378947,46.438801456635936,1416.6387147820508,305.0277001481583,-30.233260368922743
2025-02-19 16:58:33.017,811,123,585,-26,6,12,-1,-8,2,846,79,z,-11.87384910237359,53.60594293427187,1615.9553446703005,245.08323969722193,4.360201440042147
2025-02-19 16:58:33.117,625,-56,691,-13,-6,-8,-1,-6,1,779,49,z,4.633237051169817,42.035625725513306,1294.5925541835782,-115.99549285484858,-49.30152790536374
2025-02-19 16:58:33.234,784,34,616,-20,15,-12,-2,-7,2,653,65,z,-3.1592238342887087,51.800431761091524,1569.8615532639392,68.08073062624226,-1.462648993095172
2025-02-19 16:58:33.340,783,166,763,-4,-5,-22,-2,-6,0,296,83,z,-12.274126104899459,45.078811350459524,1491.0787497294577,316.1163122031801,73.00755294562418
2025-02-19 16:58:33.448,645,133,655,11,-22,16,2,-7,3,804,82,z,-11.47805341027586,43.98073391447667,1339.416448417096,276.1897482782539,-50.18259490418268
2025-02-19 16:58:33.549,819,76,604,-5,20,16,-1,-6,3,802,80,z,-7.1717121653870874,53.376578728243295,1621.5736843275472,150.47570208656117,12.114157101540286
2025-02-19 16:58:33.655,561,-43,709,-10,7,2,0,-5,-1,737,39,z,3.470669142214786,38.30182256056765,1180.803994968927,-90.50725808139728,-74.31734836536441
2025-02-19 16:58:33.766,811,51,643,-1,0,-2,0,-6,0,622,47,z,-4.534961410886384,51.50342496274846,1593.6453674348445,100.21690966606297,22.48092322983348
2025-02-19 16:58:34.585,762,19,647,-4,0,-5,0,-7,1,658,63,0,-1.6820819751850373,49.65384961479856,1524.1471085893068,38.0036680619381,-0.12490716178672301
2025-02-19 16:58:34.680,749,29,648,-1,-1,-2,-1,-6,2,661,64,0,-2.562453157939891,49.10679909605549,1504.9311597198985,58.26836265938191,-5.9965173544644585
2025-02-19 16:58:34.787,749,19,641,1,-2,0,-1,-7,2,683,65,0,-1.6978177196543252,49.430403423297314,1508.6165271481827,38.26931110255737,-9.085706144172264
2025-02-19 16:58:34.893,747,27,629,3,-6,-1,0,-7,1,724,66,0,-2.457928374630774,49.87546873337863,1511.645548400645,54.637790906047414,-14.85816592236381
2025-02-19 16:58:35.000,732,87,580,6,5,-23,-1,-9,3,698,81,0,-8.530765609948133,51.29780133120433,1512.4064136959937,179.75322129993367,-38.35480866622436
2025-02-19 16:58:35.105,896,-51,611,66,23,39,-1,-10,1,207,82,0,4.7714021917640626,55.616512764778435,1721.2762886936107,-97.97443161090865,48.227887955584606
2025-02-19 16:58:35.216,650,73,683,-10,-25,-49,-2,-5,3,824,81,0,-6.1006930978376595,43.41938358728241,1337.3332770820887,150.19281419537305,-39.228658841640936
2025-02-19 16:58:35.315,882,173,508,8,29,6,-2,-10,3,640,3,0,-18.806336417390565,58.68172534358448,1736.2930845332844,340.56542361027005,15.958178069264932
2025-02-19 16:58:35.431,521,-56,745,-21,20,26,1,-6,0,635,37,0,4.298712822108767,34.89043546079733,1093.0089553068146,-117.48272840150025,-72.93986891281554
2025-02-19 16:58:36.349,747,29,653,1,0,-3,-3,-8,3,572,74,1,-2.5428583899516326,48.81326536664874,1499.5673913606333,58.21613701400049,-4.86680931525234
2025-02-19 16:58:36.445,765,19,644,1,-2,-3,-1,-9,2,417,79,1,-1.689913227716416,49.8960386012867,1529.8768647363681,37.996941738550326,0.1036589670311514
2025-02-19 16:58:36.550,808,50,522,7,-4,-8,-2,-9,2,4,95,1,-5.471409109595837,57.01657035833348,1646.8280464605275,101.90767614235936,-19.916138926231838
2025-02-19 16:58:36.655,775,47,627,6,-5,-23,-1,-9,1,150,88,1,-4.28688157990014,50.94750905301843,1551.5690899134722,94.09515771088152,-1.2694443558024204
2025-02-19 16:58:36.769,704,60,680,6,-1,-12,-1,-10,3,780,85,1,-5.042451069170913,45.88244173103087,1421.9130018451626,121.18576720271273,-13.438694964077513
2025-02-19 16:58:36.876,866,236,486,-9,-2,47,0,-7,5,747,88,1,-25.901056969228,58.04125129845105,1714.4294028184263,467.2117079274233,9.86063536979782
2025-02-19 16:58:36.982,485,-83,614,9,-22,-21,0,-7,2,457,88,1,7.698528520506925,38.05322156032484,1101.3931860719208,-188.48584421436993,-166.3410644291945
2025-02-19 16:58:37.089,636,95,586,11,-41,19,-1,-6,4,743,90,1,-9.208451681052399,46.9724993021655,1367.0262733671107,204.1941760532634,-87.5556543917088
2025-02-19 16:58:37.195,861,29,610,19,11,1,0,-5,4,769,85,1,-2.721848358233922,54.652734284156956,1676.6606131960643,56.47288941078498,32.12198135935046
2025-02-19 16:58:37.306,599,-79,677,-11,7,-9,1,-3,1,540,40,1,6.655816632228193,41.30973812524779,1259.1293450440303,-166.06213398744305,-69.08942670251827
2025-02-19 16:58:38.225,751,22,641,-7,-6,-2,-1,-9,1,416,71,2,-1.9656982182297558,49.50163978234267,1511.4245522325568,44.27608541826398,-8.044125141236918
2025-02-19 16:58:38.318,736,23,651,-5,-3,-5,0,-9,2,448,77,2,-2.0234332307136866,48.48915586253815,1484.8302959934256,46.40094674979455,-11.34853626592394
2025-02-19 16:58:38.425,741,16,634,4,-11,-5,-1,-9,1,444,88,2,-1.4456434205562043,49.44067565963884,1500.7331163191554,32.40449373968487,-16.02806443501288
2025-02-19 16:58:38.535,811,-126,559,85,0,-31,-1,-9,2,2,94,2,12.702332159155892,54.75629988068583,1627.7050094512874,-252.88635165334426,-3.9323061445987832
2025-02-19 16:58:38.635,593,-29,786,-23,1,61,-1,-9,3,785,87,2,2.1130079614161756,37.01409928490547,1195.0115323114321,-58.44069888200933,-11.944459353769957
2025-02-19 16:58:38.748,984,-20,566,73,1,5,-1,-7,3,299,90,2,2.0237438392341622,60.07689427393058,1850.6956528031365,-37.61576530087676,67.47384198518785
2025-02-19 16:58:38.855,770,125,606,-29,-1,20,-1,-7,4,798,89,2,-11.654974201692388,51.215291088726026,1549.5051651031035,251.54304628297137,-7.480688379845333
2025-02-19 16:58:38.961,695,-63,669,-12,47,9,0,-6,2,646,0,2,5.379701599125408,45.96563194556666,1413.9229900583555,-128.16855881104516,-23.028029279193902
2025-02-19 16:58:39.067,745,14,644,3,-7,-9,0,-6,1,411,40,2,-1.2453642667683475,49.15219957032204,1501.4496598780852,28.215161393682145,-9.897424109378676
2025-02-19 16:58:40.089,738,60,644,-1,-3,-6,-1,-10,1,550,77,3,-5.322750707768238,48.76842103157013,1490.0517533427555,121.14241897095575,-12.261963621591576
2025-02-19 16:58:40.181,767,-22,562,60,8,-18,0,-9,2,469,86,3,2.2417506631973514,53.747922090154695,1573.423159083627,-45.13078161647952,-28.88633038461319
2025-02-19 16:58:40.290,749,109,718,-6,-12,-9,0,-8,4,780,80,3,-8.632194677230732,45.884419421268305,1466.9370299780571,213.47948767370923,29.77731972730976
2025-02-19 16:58:40.394,848,112,508,8,9,0,-3,-8,3,610,78,3,-12.433235188095644,58.47324250743663,1700.396061239841,224.58061186186578,-2.6334895163196848
2025-02-19 16:58:40.505,658,75,767,-10,-9,41,-1,-9,2,795,71,3,-5.584831137825009,40.49121846703354,1307.3314958172978,149.0119486113941,10.104472200809596
2025-02-19 16:58:40.611,1108,33,574,10,9,13,-1,-6,0,657,78,3,-3.290386238348631,62.57493149170974,1995.6139498700172,59.43615554667018,114.17111261246419
2025-02-19 16:58:40.721,458,-83,741,-10,-9,-19,0,-6,0,693,29,3,6.391106228521089,31.560010428108434,981.3913158379958,-177.85039129815206,-105.79686689073117
2025-02-19 16:58:41.737,761,47,642,1,-3,-3,-1,-8,2,648,70,4,-4.187081253013432,49.772636182053894,1524.4876782285705,94.15364109953065,-2.098672040397446
2025-02-19 16:58:41.829,767,79,620,1,-3,-4,-1,-8,2,655,71,4,-7.261461686155552,50.8241046933567,1542.2103188029928,158.8456521322509,-6.636763569563982
2025-02-19 16:58:41.935,764,76,631,-1,1,-8,-1,-8,1,694,76,4,-6.8678356154061735,50.243426851841186,1532.7684686038688,152.47435027996602,-3.938355613928252
2025-02-19 16:58:42.045,763,47,602,1,-4,-9,-1,-9,3,698,74,4,-4.464202851629335,51.642197681542875,1547.1507129251631,95.30286173982003,-16.687718454716105
2025-02-19 16:58:42.155,680,28,673,30,15,29,0,-10,2,345,67,4,-2.382402882092142,45.27165638735006,1390.4514250374023,57.25388220742244,-30.13795448554663
2025-02-19 16:58:42.262,761,137,595,24,-35,10,0,-8,3,535,79,4,-12.966482357883581,51.25909035341512,1540.983780165116,277.41757934641385,-14.842771613986883
2025-02-19 16:58:42.368,792,161,621,-24,3,19,0,-9,3,809,78,4,-14.53445508054012,50.99204775563217,1569.0586088031553,318.9626717390252,11.715409006617051
2025-02-19 16:58:42.479,1154,94,808,6,-3,-38,-1,-9,1,642,82,4,-6.635768762889441,54.820161844808354,1971.347688837942,160.57771468870584,235.71496310133705
2025-02-19 16:58:42.585,816,228,530,-13,-3,38,-1,-7,2,657,86,4,-23.276827760669796,54.73739521215414,1632.5145663162589,456.14377588248414,-0.3342158671779316
2025-02-19 16:58:42.692,571,-8,565,-46,53,17,0,-6,2,649,47,4,0.8112134652267153,45.29974444237758,1281.7963364990967,-17.958617674243037,-138.3273732434144
2025-02-19 16:58:42.798,775,22,670,11,-21,-9,0,-6,2,579,46,4,-1.8806782381866374,49.140782524028204,1531.3193151735654,43.46970959202378,16.14975333382108
2025-02-19 16:58:43.617,752,40,649,0,-1,-2,0,-8,1,570,60,5,-3.526865659774302,49.15102659435757,1508.4362697772985,80.2359717966648,-3.828642400886338
2025-02-19 16:58:43.712,751,78,644,1,-3,-2,-2,-8,2,544,60,5,-6.905913097567734,49.17986945130931,1507.7654332930865,156.5988066536095,-4.943993396468272
2025-02-19 16:58:43.818,743,52,659,13,-2,-5,-1,-9,2,574,74,5,-4.511714635496182,48.340453827463676,1490.1076836875525,104.28748257301848,-3.6432887619071153
2025-02-19 16:58:43.930,693,49,673,14,10,-7,-1,-9,1,428,75,5,-4.164261555172071,45.76312229923853,1409.4617377209036,99.65891074794266,-22.784631293171856
2025-02-19 16:58:44.035,1119,393,706,22,-44,-7,0,-8,1,131,85,5,-29.102815466060495,54.1675185025318,1929.7320708593616,677.73431979243,194.4925451057108
2025-02-19 16:58:44.146,763,110,628,-22,-9,-3,-1,-10,3,729,83,5,-9.935097693450809,50.117950041333714,1530.3660722011505,220.62944684420256,-3.5935692559927475
2025-02-19 16:58:44.248,640,26,593,15,-34,6,-2,-9,0,79,91,5,-2.5105173482546013,47.155536472063076,1373.202373413577,55.78634641992655,-86.35782411601735
2025-02-19 16:58:44.355,768,261,583,0,1,13,0,-8,1,227,86,5,-24.117317440777065,50.24921737071285,1536.8330976116176,522.2831230164483,-0.6324165463192912
2025-02-19 16:58:44.465,629,17,742,-13,-12,9,0,-8,2,702,79,5,-1.3124769240165683,40.280825681685,1275.5345125374306,34.47390574425488,-20.6845918963013
2025-02-19 16:58:44.572,859,140,517,-4,15,15,0,-6,2,288,88,5,-15.151916984856593,58.054842035856595,1707.5549325874374,278.2976607243786,6.286495753544671
2025-02-19 16:58:44.678,649,-2,618,-33,28,14,0,-6,1,317,56,5,0.18542258734393172,46.40144042186336,1373.1891983157602,-4.23170785305319,-71.59772659343582
2025-02-19 16:58:44.786,765,25,657,-12,-2,-6,1,-5,0,429,47,5,-2.1791533477009746,49.3227514103914,1523.3932162327035,49.78409203374848,5.674061353089769
2025-02-19 16:58:45.805,724,9,678,6,-10,-5,-1,-6,0,688,60,6,-0.7605187771308664,46.87669756406752,1453.884325906431,18.073147697731876,-5.5104598958013185
2025-02-19 16:58:45.899,742,13,646,3,-7,-4,0,-7,1,740,64,6,-1.1528554361041623,48.95077514929016,1496.145658015831,26.212794547447167,-10.574252126990018
2025-02-19 16:58:46.006,712,65,642,6,-17,-11,0,-6,2,808,75,6,-5.781274094105603,47.81413802283415,1452.9703241783736,132.6447627410032,-26.12211814960085
2025-02-19 16:58:46.112,764,11,638,5,-1,-18,1,-10,2,739,84,6,-0.98776039963981,50.13127827769412,1531.5152105660427,22.050611670453492,-2.9354768863024674
2025-02-19 16:58:46.218,874,80,548,20,9,66,1,-8,1,540,79,6,-8.305676205556,57.639677574716444,1718.698785387701,157.31796662587655,18.37192861274582
2025-02-19 16:58:46.329,662,59,706,-6,-23,-31,-1,-6,2,790,83,6,-4.777074061717478,43.05831722409514,1344.7423986297913,119.84864277818382,-22.121047481318215
2025-02-19 16:58:46.434,987,127,475,-4,22,33,-1,-9,1,494,84,6,-14.968948798285627,63.51930662413913,1882.084663462285,242.17300127630216,44.23483774611407
2025-02-19 16:58:46.538,509,-64,793,-5,8,6,0,-6,0,616,37,6,4.614122772532991,32.610547583453446,1047.9258629885448,-131.7627804150626,-46.623201080384774
2025-02-19 16:58:47.455,746,52,659,0,-2,-2,-1,-8,1,589,65,7,-4.511714635496182,48.45508102549065,1494.436007159481,104.16980210763137,-2.1519151717129716
2025-02-19 16:58:47.558,723,63,693,-6,-7,-7,1,-8,0,560,69,7,-5.194428907734806,46.09591469701283,1443.501668919855,125.78230310090024,2.3946658900974853
2025-02-19 16:58:47.663,746,60,655,-2,-1,-5,-1,-9,1,546,73,7,-5.233861647216432,48.59762840737734,1496.0836959011663,120.32844739151471,-3.585550690702462
2025-02-19 16:58:47.766,784,72,537,6,0,-13,0,-10,2,0,90,7,-7.636572215488839,55.35249416966044,1606.6652675760756,147.55089192025184,-26.483735571878356
2025-02-19 16:58:47.877,658,55,730,14,-7,5,-2,-8,4,756,79,7,-4.308664916524875,41.94991346225353,1326.4807121490599,110.87604736808248,-11.627537794549426
2025-02-19 16:58:47.979,825,291,504,-7,1,50,0,-6,2,711,80,7,-30.00131849550571,54.79984591081464,1642.1433480960695,579.228744601159,4.79970007221948
2025-02-19 16:58:48.093,778,67,737,-43,44,-24,-1,-8,0,659,69,7,-5.194428907734806,46.432467049711676,1502.5625228345252,129.3980578790658,50.62136333027627
2025-02-19 16:58:48.201,892,202,749,10,6,-17,-1,-8,2,422,85,7,-15.093175156031235,48.986935945502154,1646.5599720849505,372.87568874569513,115.40648083898213
2025-02-19 16:58:48.311,820,155,609,-20,-14,-7,-1,-8,2,619,83,7,-14.279489237176541,52.53487651959029,1613.723752517956,305.0331483418088,19.51492038605477
2025-02-19 16:58:48.418,634,45,662,10,-14,-11,-1,-8,1,684,77,7,-3.8887459833598816,43.696351327140064,1324.836370148737,94.03412721875893,-59.346493751520256
2025-02-19 16:58:48.521,756,57,692,66,4,-17,0,-9,1,143,84,7,-4.708819767962756,47.43426950097092,1492.5018055226926,112.52989803544108,17.847553674995993
2025-02-19 16:58:48.627,727,149,643,2,-3,7,0,-8,3,805,83,7,-13.046668360166,47.76392631979435,1467.3815311855406,300.74256966526207,-11.835384528613986
2025-02-19 16:58:48.729,853,49,644,0,14,15,-1,-8,2,823,75,7,-4.351077951573885,52.868282164241734,1650.2498823525257,94.797472725995,42.09035845835149
2025-02-19 16:58:48.839,751,51,625,0,-1,5,0,-6,0,741,56,7,-4.664999868746953,50.13846256075853,1518.5955829873535,103.12699698049936,-13.811237506119596
2025-02-19 16:58:48.946,754,69,653,-13,6,1,0,-7,3,644,53,7,-6.031842058123936,48.948397537327914,1508.1184058853157,138.01083555183925,-0.10254515001486197
2025-02-19 16:58:49.865,753,27,631,0,-2,0,-2,-6,0,660,64,8,-2.4501473026874354,50.01181824486423,1519.1770128767816,54.47248253343041,-11.042091799799664
2025-02-19 16:58:49.962,765,20,629,-3,-1,1,-1,-5,2,688,67,8,-1.821191803006024,50.55799560874507,1537.2680354690249,40.19001399919019,-5.975940274531581
2025-02-19 16:58:50.065,713,12,652,3,-18,-7,-1,-5,3,738,79,8,-1.0544045035218386,47.55393630934792,1450.9129878156061,24.419292922562796,-22.781582125911882
2025-02-19 16:58:50.180,750,-18,665,3,3,-22,-1,-8,2,647,84,8,1.5504846201281761,48.42724948285927,1498.1137647037795,-35.9547303528907,1.6724619626490949
2025-02-19 16:58:50.289,800,262,551,10,-12,44,-1,-6,1,730,83,8,-25.43104528119736,52.66909776148171,1595.1465278679418,522.410487876751,3.342828930955193
2025-02-19 16:58:50.391,673,-8,659,0,2,-55,0,-5,3,747,83,8,0.6955139933457052,45.60007541892655,1387.4736006050473,-16.492999710015418,-40.61085111252032
2025-02-19 16:58:50.502,764,113,639,-25,-28,0,1,-9,3,834,82,8,-10.028438925554143,49.65660878216082,1526.1782844462123,225.73055777803927,1.5236599985214525
2025-02-19 16:58:50.610,811,184,534,2,17,39,-1,-9,4,789,84,8,-19.012378338504817,55.14516852595346,1631.6026661630185,370.1786566880338,-6.3228406054893185
2025-02-19 16:58:50.715,618,11,660,-45,57,29,-1,-6,2,730,39,8,-0.9548412538721887,43.113747838202976,1301.4489528277368,23.16494899855195,-69.89693991311708
2025-02-19 16:58:52.035,772,71,642,6,-7,-5,0,-7,1,665,66,9,-6.310804273954674,50.08157683191734,1538.95885727543,141.53637158880252,4.192245633644916
2025-02-19 16:58:52.128,748,37,645,1,-5,-2,0,-6,2,690,66,9,-3.283136556364348,49.182267599697134,1504.792793062505,74.43493762474958,-7.582020755769577
2025-02-19 16:58:52.234,736,53,644,2,-8,-6,0,-8,1,718,71,9,-4.704733314605582,48.718220423211235,1487.47398025171,107.11429477356063,-13.539732720246093
2025-02-19 16:58:52.338,745,66,654,0,1,-18,-2,-8,3,629,85,9,-5.762632886598451,48.577679309513265,1494.8533857575112,132.42996437583324,-4.260556087802115
2025-02-19 16:58:52.445,874,189,611,-3,-15,63,0,-8,2,671,83,9,-17.1883531303562,53.80458455161822,1681.007567180361,363.5130780287051,46.83338266910698
2025-02-19 16:58:52.555,706,47,631,3,0,-38,0,-8,2,791,83,9,-4.259806767669531,48.131919460323026,1450.6834800113024,96.57524583644647,-34.57404516590918
2025-02-19 16:58:52.665,715,-80,691,-3,-14,66,0,-9,3,816,79,9,6.603974229869211,45.78729955504012,1431.7560532285554,-160.1964814801181,-1.6971087845201964
2025-02-19 16:58:52.772,816,125,559,-1,9,22,1,-7,1,791,83,9,-12.604753594722911,54.93239720811156,1634.474716409212,250.37909258719546,-1.6953020499381637
2025-02-19 16:58:52.882,526,-99,713,-33,41,18,1,-3,-2,669,30,9,7.904972748462215,36.15625972237825,1115.9894525049385,-210.04364220149984,-86.73855444110484
2025-02-19 16:58:52.989,742,9,670,-1,-15,-18,0,-3,0,342,35,9,-0.7695985125947775,47.91649858209487,1484.1688626265568,18.002048198974407,-0.15247703476143215
2025-02-19 16:58:53.091,711,-50,687,2,-3,4,0,-5,-1,0,36,9,4.16265905187824,45.90789007661351,1429.2221235845595,-100.50788492155833,-6.97833882221164
