Timestamp,Acc_X,Acc_Y,Acc_Z,Gyro_X,Gyro_Y,Gyro_Z,Mag_X,Mag_Y,Mag_Z,Force,IR_A,Letter,Roll,Pitch,Lin_Acc_X,Lin_Acc_Y,Lin_Acc_Z
2025-02-19 14:52:40.559,546,-278,765,0,-3,-2,-2,0,2,285,22,noise,19.971078437787163,33.853934656591974,1103.0776056221894,-561.6402460860231,-15.52082106405635
2025-02-19 14:52:40.660,560,-271,766,-2,0,3,-1,-2,1,286,22,noise,19.483061415844816,34.57498035860543,1127.4842477523289,-545.621841323002,-10.237381746935398
2025-02-19 14:52:40.766,572,-279,782,-1,-1,-2,-2,-1,1,286,22,noise,19.635256196915073,34.56389502562599,1139.3249324032463,-555.7196785673177,6.391438567590058
2025-02-19 14:52:40.876,556,-265,763,-2,-1,-1,-2,0,0,282,24,noise,19.152791035641968,34.54222704045518,1123.0134647762516,-535.2492233196162,-15.113801482517601
2025-02-19 14:52:40.976,579,-277,773,-2,0,-1,-2,0,1,281,24,noise,19.714841904541604,35.18858300930079,1155.2694771018482,-552.6936876635784,3.645413126548192
2025-02-19 14:52:41.089,553,-262,751,0,0,-1,-2,0,1,282,26,noise,19.232254127020877,34.80921111303867,1123.845571745765,-532.4548640097478,-24.23512546305551
2025-02-19 14:52:41.196,560,-266,767,0,-5,-3,-2,-1,1,273,26,noise,19.126839289595807,34.59836197677585,1127.8202122589682,-535.71460082301,-10.710897861837111
2025-02-19 14:52:41.307,573,-250,754,7,-25,-9,-1,-2,1,239,31,noise,18.34371358233799,35.80406988141065,1158.0152856704246,-505.2422712349147,-15.810690044502735
2025-02-19 14:52:41.409,666,-207,753,2,-8,4,-2,0,5,0,38,noise,15.370945592807177,40.45837040954274,1314.8953861912746,-408.6837011135043,19.339000297252483
2025-02-19 14:52:41.516,612,-272,712,-5,-9,0,-3,-1,4,0,37,noise,20.907980471009658,38.762836254994504,1238.098177827072,-550.2658568120319,-16.40180165502477
2025-02-19 14:52:41.626,649,-287,729,-23,6,2,-2,-2,4,53,32,noise,21.489062988516885,39.63754866471037,1286.9288070126845,-569.1041103430516,12.435900905628387
2025-02-19 14:52:41.736,536,-291,631,-14,-4,-7,-4,-1,5,179,25,noise,24.757863723588216,37.645486416033165,1146.773960583132,-622.595564421066,-88.02680807454533
2025-02-19 14:52:41.839,736,-248,750,21,5,-19,-3,0,6,116,28,noise,18.297329120769867,42.97553900044147,1417.6860647548956,-477.6985652978453,55.3470807524842
2025-02-19 14:52:41.946,586,-262,791,27,-5,-17,-2,-4,2,0,28,noise,18.32622830917207,35.11720536840077,1161.250908560925,-519.1940922234853,14.509439126805773
2025-02-19 14:52:43.266,637,-224,614,16,7,-27,-7,-5,7,703,54,A,20.043023655104626,44.26379145872532,1334.9628580610865,-469.4374885489535,-58.76168736186344
2025-02-19 14:52:43.360,707,-256,682,-4,-7,-12,-6,-7,8,735,61,A,20.5744564591532,44.14333432009518,1403.4557354949488,-508.18199191896315,10.171412153387337
2025-02-19 14:52:43.470,717,-200,653,0,-10,-6,-7,-6,9,761,70,A,17.028711424464287,46.39364924489783,1441.0954184647644,-401.97919622448103,-6.4620756729306095
2025-02-19 14:52:43.576,699,-200,623,-5,-6,-9,-7,-6,10,780,83,A,17.798047590530757,46.89112828998781,1429.0564693812235,-408.8859712106505,-27.679800321176344
2025-02-19 14:52:43.676,750,-190,630,0,2,-8,-8,-9,7,801,102,A,16.782644145270705,48.73726318520719,1501.6932167543587,-380.4289482444376,-1.422302073661399
2025-02-19 14:52:43.790,650,-257,733,52,3,23,-7,-9,8,619,103,A,19.321376309973267,39.92332961810701,1291.7619516563614,-510.74280242413056,9.289983747518818
2025-02-19 14:52:43.896,791,-49,631,-1,-13,-3,-7,-7,7,577,103,A,4.440364906194936,51.335789577871964,1571.8208103644133,-97.36943073053888,8.120187939387165
2025-02-19 14:52:44.008,685,-309,652,8,1,-15,-5,-10,7,723,99,A,25.357507429605615,43.51282905228702,1373.5169764337506,-619.5864900993123,-3.3475454522705377
2025-02-19 14:52:44.117,738,-135,616,2,-22,65,-5,-7,8,284,105,A,12.361276667549644,49.486176898307775,1498.2492585203777,-274.06998631470327,-18.57119681375707
2025-02-19 14:52:44.224,855,-491,503,-14,17,-21,-6,-9,7,442,99,A,44.3083340492081,50.57558217979668,1627.4629993675967,-934.6015587011578,48.55685534280565
2025-02-19 14:52:44.326,767,-32,621,37,-34,24,-4,-8,8,679,104,A,2.949830456266846,50.967550334721054,1543.7894190325278,-64.40842426211329,-7.925983336635909
2025-02-19 14:52:44.436,853,-21,629,-51,80,26,-4,-6,8,738,67,A,1.9121853999891012,53.57978673824895,1657.6843962275393,-40.81051854721961,35.62780160946977
2025-02-19 14:52:46.656,726,-145,653,-1,-1,0,-7,-10,6,730,78,B,12.51951700394462,47.343867866919894,1461.433604992043,-291.88412220915455,-8.485046914330269
2025-02-19 14:52:46.746,730,-146,668,-1,-1,-1,-7,-8,8,730,78,B,12.328854975637746,46.87293652022914,1459.8394529785749,-291.96789059571495,0.146911520975209
2025-02-19 14:52:46.857,718,-136,655,-3,0,0,-5,-9,8,731,79,B,11.729858841768761,47.02458352075409,1449.64625481154,-274.5848059253056,-12.448881478493945
2025-02-19 14:52:46.961,734,-149,650,0,-1,-1,-7,-9,6,741,78,B,12.910898167257935,47.74399567816048,1474.147662618137,-299.2479587603575,-5.444115397532869
2025-02-19 14:52:47.066,712,-132,663,2,-4,-2,-4,-9,8,770,80,B,11.260066708096227,46.48519244898965,1437.19644807585,-266.4465325084441,-12.288265553775886
2025-02-19 14:52:47.176,744,-128,644,0,-6,-3,-5,-10,8,782,92,B,11.241478767626473,48.5708487367001,1493.7745066520356,-256.9934635100276,-4.998363284826382
2025-02-19 14:52:47.286,751,-154,650,-7,0,-3,-6,-9,9,780,97,B,13.328924099382222,48.347779659166186,1498.1926664316113,-307.21926848264735,3.2952953654494195
2025-02-19 14:52:47.393,711,-228,737,3,-18,49,-5,-9,7,452,98,B,17.190094999902822,42.66450905283223,1388.7043087916707,-445.32290070956526,34.513255162501764
2025-02-19 14:52:47.505,775,-111,652,25,-10,-5,-6,-7,8,381,100,B,9.66171014616699,49.52272380416499,1535.6634802629046,-219.94664039894502,12.061175314305046
2025-02-19 14:52:47.608,559,-180,618,-8,-23,-52,-7,-9,8,690,90,B,16.238841629692285,40.97248215952919,1214.6964837470932,-391.13661372893887,-106.90237380268991
2025-02-19 14:52:47.717,722,-102,703,15,-29,23,-4,-10,7,768,99,B,8.255575690235652,45.465553551630556,1434.8289308677017,-202.70436419460606,8.92972520776425
2025-02-19 14:52:47.824,799,35,556,-25,15,12,-6,-9,7,459,101,B,-3.6019959025673893,55.113970862771225,1619.29136214132,70.93266292233568,-14.816016709103792
2025-02-19 14:52:47.931,790,-91,649,37,-34,15,-7,-8,8,683,99,B,7.9817320871495925,50.32241332710034,1559.6493734248925,-179.65581390084208,16.718426135752793
2025-02-19 14:52:48.037,713,-81,658,-30,7,32,-6,-7,7,506,104,B,7.017821376661344,47.08248320532577,1445.3347506634868,-164.19651445125166,-17.843290233624543
2025-02-19 14:52:48.141,1067,-182,673,2,39,21,-6,-5,9,535,87,B,15.132584199757014,56.83950400403552,1904.1416456599973,-324.7926705811804,144.98094889486595
2025-02-19 14:52:48.246,573,-231,723,5,-15,-20,-4,-5,5,641,50,B,17.718788877451605,37.05042561215974,1175.5176634789323,-473.89979103600933,-37.244800515301904
2025-02-19 14:52:49.073,750,-139,646,-4,-1,-6,-6,-8,7,741,80,C,12.143205034612862,48.61843723330121,1500.3238346170365,-278.06001734902406,-0.27892955014044674
2025-02-19 14:52:49.166,755,-128,644,1,-4,-6,-5,-8,8,755,86,C,11.241478767626473,48.987648511932704,1509.5681333301363,-255.92678286921512,0.36837368926148883
2025-02-19 14:52:49.273,750,-114,638,2,-4,-4,-4,-8,8,765,92,C,10.130887970824558,49.16839500686339,1506.6345063856022,-229.00844497061155,-5.643753432019025
2025-02-19 14:52:49.380,746,-146,652,-3,1,-12,-6,-8,7,748,98,C,12.621820256524325,48.15113539444986,1490.9072775869054,-291.7861427985097,0.9550335299430799
2025-02-19 14:52:49.487,895,-75,596,15,2,43,-6,-7,6,212,92,C,7.172338889876109,56.131528422240024,1725.3190724799904,-144.57981054301595,43.07243888483333
2025-02-19 14:52:49.597,684,-135,699,19,-18,12,-6,-7,7,721,100,C,10.931122922411443,43.85428691305087,1376.8267203490564,-271.74211585836633,-9.02028877776354
2025-02-19 14:52:49.704,555,-214,664,-37,51,9,-3,-3,6,716,43,C,17.863568331931393,38.50390033088297,1177.5679101622177,-454.05321220669293,-80.83800423011257
2025-02-19 14:52:49.810,768,-171,667,6,-23,-20,-4,-7,4,693,50,C,14.379327867450009,48.121333900313886,1512.5601599457505,-336.780973112921,20.357256922115198
2025-02-19 14:52:49.916,705,-152,680,-2,1,1,-5,-5,5,700,57,C,12.600159826080674,45.33592891591432,1416.240417350039,-305.34545168398006,-6.019125954647507
2025-02-19 14:52:50.736,744,-125,653,0,-3,-3,-6,-7,7,747,76,D,10.836703758363907,48.215256558598284,1489.6534556389215,-250.27779832643168,-1.451218457279083
2025-02-19 14:52:50.830,730,-125,655,-1,-2,-2,-6,-7,7,754,78,D,10.804394597539243,47.589763167331505,1468.3348536364224,-251.42720096514086,-7.478533057338041
2025-02-19 14:52:50.939,733,-121,651,-2,-2,-6,-6,-8,6,748,82,D,10.529291843171267,47.9071784163811,1475.059830892494,-243.49555189357676,-8.046316386103058
2025-02-19 14:52:51.040,929,-217,686,4,6,-14,-5,-9,7,708,95,D,17.553544826339873,52.24249549574511,1719.6093797783537,-401.67409624532047,102.19156670834161
2025-02-19 14:52:51.146,676,-160,733,7,-25,75,-7,-9,8,190,94,D,12.31344219643508,42.01954234591209,1345.3840379911564,-318.4340918322264,7.1738167936129
2025-02-19 14:52:51.256,713,-6,569,36,18,-73,-6,-7,7,466,98,D,0.6041510301125121,51.407303445270706,1494.5999914817012,-12.577279030701554,-54.74529474486383
2025-02-19 14:52:51.366,790,-184,560,24,3,-23,-4,-9,7,680,93,D,18.189045699651313,53.27175061045024,1591.4808907960596,-370.6740302613607,-8.138352969358607
2025-02-19 14:52:51.476,682,-99,762,-13,-20,50,-5,-8,8,290,94,D,7.402475582024319,41.59077686035014,1345.8058278855322,-195.35891049951272,20.328385852235442
2025-02-19 14:52:51.584,922,-156,562,34,15,-10,-6,-8,8,162,98,D,15.513594150412551,57.68289566978514,1767.1022770211434,-298.98910543958607,46.87258168559367
2025-02-19 14:52:51.689,566,-201,747,-3,11,2,-4,-6,6,624,45,D,15.060235850819174,36.1919254853463,1156.4919393675304,-410.69766751391103,-32.324167327818714
2025-02-19 14:52:51.801,789,-146,649,-4,-10,-12,-6,-6,5,651,57,D,12.678282744606818,49.86518428821097,1553.5298587717984,-287.47193837855843,20.128164330928712
2025-02-19 14:52:52.516,730,-140,657,1,-4,-2,-7,-7,7,728,76,E,12.029228557585146,47.37953877820506,1465.8553171585618,-281.1229375372584,-5.269785442705597
2025-02-19 14:52:52.612,735,-130,657,0,-3,-3,-7,-9,7,740,80,E,11.19248887376238,47.65996213445838,1474.1606182817363,-260.73589166887854,-3.7190832804092224
2025-02-19 14:52:52.716,729,-110,650,-3,-1,-8,-5,-9,6,740,86,E,9.605204155012947,47.876645973838535,1470.7025103392275,-221.91670252032242,-11.325969438268544
2025-02-19 14:52:52.825,751,-159,621,2,1,-10,-7,-9,8,684,97,E,14.361414661813384,49.5168827890993,1511.5972991149006,-320.0319181881081,-7.935982357327816
2025-02-19 14:52:52.932,799,105,555,-8,-13,39,-5,-8,8,0,99,E,-10.713123022791034,54.7419789271583,1615.5607502204002,212.3077331328435,-12.198017987887397
2025-02-19 14:52:53.039,793,-135,630,-25,40,-37,-5,-6,8,600,84,E,12.094757077012103,50.90660035870036,1569.1190545031664,-267.1261946506021,13.411091630523629
2025-02-19 14:52:53.146,759,-196,544,28,5,-9,-5,-8,8,533,96,E,19.813793245495656,52.69862748918497,1554.4589642758908,-401.4149631068177,-26.13132617402448
2025-02-19 14:52:53.255,740,-110,711,15,-10,6,-5,-9,7,834,95,E,8.794599980710863,45.80635708591419,1456.9879551558984,-216.57929063128216,22.110221465076165
2025-02-19 14:52:53.361,898,-141,576,11,2,-12,-7,-8,8,523,93,E,13.755039445994909,56.560669387117876,1732.4697898142126,-272.02476655212024,40.74988982963646
2025-02-19 14:52:53.467,661,-59,686,18,-16,14,-4,-7,5,834,93,E,4.915674520410075,43.8312418585233,1353.5366275341376,-120.81491834268398,-32.729389543749335
2025-02-19 14:52:53.578,597,-84,474,-23,30,14,-7,-6,6,664,77,E,10.049348588124873,51.11934838242751,1375.455162863107,-193.53137969933164,-144.0699283033714
2025-02-19 14:52:53.680,737,-10,604,21,-39,13,-2,-6,7,756,8,E,0.9485189609860605,50.66020654693999,1510.4001231483692,-20.493895836477197,-29.831308523222674
2025-02-19 14:52:53.789,861,-26,492,-38,83,23,-4,-7,6,745,62,E,3.0250119075636897,60.22069150194815,1728.9448713887505,-52.20971737062429,-3.9684979364288324
2025-02-19 14:52:53.898,662,-144,680,3,-23,-19,-5,-3,4,751,46,E,11.956584243149132,43.60364839815677,1351.6656551107098,-294.01790685187643,-28.41789346719429
2025-02-19 14:52:54.617,732,-106,656,-2,-3,-3,-5,-9,5,813,76,F,9.17882239641679,47.76686551643358,1472.416012496191,-213.21871219207134,-7.542218849045298
2025-02-19 14:52:54.713,751,-104,657,3,-7,-6,-6,-8,6,819,85,F,8.995016523687559,48.46784456449666,1499.5837284154877,-207.66538982052026,2.1138354607518295
2025-02-19 14:52:54.820,726,-126,663,-3,-1,-11,-6,-9,7,827,92,F,10.760469306028082,47.09043797973165,1458.4292839406173,-253.11582613845428,-5.871370871390241
2025-02-19 14:52:54.926,629,-465,771,28,0,22,-5,-9,6,775,94,F,31.09471808574893,34.93821701046245,1201.6927978160802,-888.3738489419353,69.01884401240409
2025-02-19 14:52:55.032,844,-53,660,3,-5,29,-6,-8,6,424,98,F,4.591172788800544,51.88553801724913,1630.779251353915,-102.40675393573164,44.746083064473964
2025-02-19 14:52:55.138,555,-348,949,19,-20,-37,-5,-8,6,718,92,F,20.138077401233918,28.770007440167998,1036.294888806125,-649.7849032514082,126.02910004141836
2025-02-19 14:52:55.246,677,-42,707,17,-14,22,-5,-9,6,828,90,F,3.3997141591232594,43.70782211492078,1367.9811053129292,-84.8673654699306,-14.600652077165023
2025-02-19 14:52:55.355,561,-110,581,-16,21,-4,-4,-8,5,712,74,F,10.720842398436575,43.49270564243558,1249.262222300874,-244.95337692174,-131.79919992300847
2025-02-19 14:52:55.456,745,-6,630,25,-26,22,-5,-6,5,811,8,F,0.5456575934157205,49.779602754072464,1508.566197883742,-12.14952642590933,-15.700274720479797
2025-02-19 14:52:55.571,625,-141,578,-40,62,16,-5,-7,5,758,54,F,13.70924297713552,46.41105361753255,1349.3048907557463,-304.4031833544964,-91.83716297091428
2025-02-19 14:52:55.676,769,-64,678,7,-19,-14,-4,-6,4,755,55,F,5.392472557648422,48.47241879751864,1517.6366601329892,-126.30526170157518,17.95363384893801
2025-02-19 14:52:56.396,741,-118,666,4,-10,-4,-4,-7,6,813,71,G,10.047236924118419,47.610682340101285,1479.5810460807584,-235.61479546225297,2.174120526605975
2025-02-19 14:52:56.490,724,-78,656,4,-8,-4,-7,-8,6,825,80,G,6.780772473068568,47.62080455203098,1462.7001364845362,-157.58371636159364,-13.319460682120848
2025-02-19 14:52:56.596,711,-99,688,0,1,-14,-6,-7,8,794,93,G,8.1883889866567,45.64842921602109,1426.0638142666285,-198.5658475561128,-3.932354733389957
2025-02-19 14:52:56.704,916,-7,522,0,-14,60,-5,-9,6,477,92,G,0.7682881572346899,60.32030952373661,1784.8070841361528,-13.639355446455314,26.893779564332362
2025-02-19 14:52:56.813,667,-104,654,-10,4,-44,-6,-6,7,808,89,G,9.035598870368046,45.20614883152356,1376.64635193013,-214.6495061480262,-41.81516366162657
2025-02-19 14:52:56.921,790,87,622,-3,-13,42,-3,-6,6,665,94,G,-7.962382695029781,51.51508129199428,1572.7719869220793,173.20400362306447,5.690916625907107
2025-02-19 14:52:57.031,399,-231,614,-22,18,-46,-5,-9,7,749,82,G,20.617378769229628,31.30867245285792,918.64843925711,-531.849096412011,-185.65950301720682
2025-02-19 14:52:57.134,743,18,605,28,-26,24,-4,-6,7,832,90,G,-1.704165104817636,50.832816896565525,1518.3063645046218,36.782657551928935,-26.305989939833694
2025-02-19 14:52:57.238,632,-90,626,-66,69,11,-5,-6,7,760,51,G,8.181350801591833,44.98021811808568,1338.8626040863894,-190.66081387306178,-74.15188316151864
2025-02-19 14:52:57.351,796,-68,665,13,-19,-9,-4,-8,5,740,54,G,5.838523364424376,49.97701497895587,1561.7865180462322,-133.41894877781885,25.24116268750697
2025-02-19 14:52:57.966,748,-78,673,-2,-5,-4,-5,-7,6,820,72,H,6.6110255243037255,47.83112252048826,1489.1693591913395,-155.28771392636963,6.145750353246626
2025-02-19 14:52:58.064,726,-77,665,-2,1,-4,-4,-8,5,822,74,H,6.604835496753972,47.320912936049766,1461.162074191754,-154.9717351415497,-8.392258040656202
2025-02-19 14:52:58.170,736,-64,662,-2,-3,-7,-7,-8,5,809,83,H,5.522008069070961,47.89745317037824,1477.9460394023567,-128.51704690455279,-5.3482039189677835
2025-02-19 14:52:58.280,733,-58,669,-13,8,-13,-4,-10,8,750,89,H,4.954957582076204,47.506852459235596,1470.3581307581553,-116.34484527145023,-3.977611837934546
2025-02-19 14:52:58.387,672,-149,721,-7,-20,60,-5,-10,7,396,91,H,11.676229750014096,42.38832936710327,1346.1519569118414,-298.47714520813156,-2.308870436663369
2025-02-19 14:52:58.492,850,-27,645,-2,-11,-18,-5,-7,8,264,95,H,2.3970285300595955,52.78376263779863,1646.3585454131517,-52.29609497194717,40.70439789237321
2025-02-19 14:52:58.600,750,-188,484,39,1,-21,-5,-8,6,470,91,H,21.227651188635292,55.30487589477324,1572.192483978936,-394.09624931738654,-46.58821632774004
2025-02-19 14:52:58.706,769,8,694,-1,26,-22,-5,-7,8,837,86,H,-0.6604408286579669,47.93277861998378,1511.359267144431,15.722853234272366,24.042481926872256
2025-02-19 14:52:58.817,722,-154,617,9,-1,-21,-5,-9,7,815,91,H,14.014391531719363,48.626809513594495,1472.420424770451,-314.06197425851724,-24.287260503280095
2025-02-19 14:52:58.920,812,29,545,8,9,27,-4,-8,7,526,100,H,-3.0458936905104,56.09369761838206,1641.9509296125368,58.64110462901918,-12.048345614326081
2025-02-19 14:52:59.030,479,-227,743,-28,38,2,-6,-3,5,714,40,H,16.98886412701811,31.65593805984758,1003.8171999494839,-475.71295279443177,-71.06926839763355
2025-02-19 14:52:59.746,715,-117,672,2,-1,-6,-4,-7,6,776,65,I,9.876601174213837,46.34860918892307,1438.5530236561394,-235.39958568918644,-8.038646009686204
2025-02-19 14:52:59.845,691,-102,681,-5,6,-11,-5,-7,5,719,68,I,8.518422702014751,45.09982345816561,1399.3376627640755,-206.5592497857246,-17.086755922337602
2025-02-19 14:52:59.954,661,-136,628,12,-28,-23,-4,-11,4,506,88,I,12.219312923219356,45.81056131822463,1378.0391037578547,-283.52998201371895,-53.24138753393743
2025-02-19 14:53:00.058,674,-24,662,3,-18,4,-6,-10,7,750,90,I,2.0762790567583482,45.49580771753913,1387.1991623223944,-49.39581586904668,-38.50125438787097
2025-02-19 14:53:00.160,754,-29,660,0,1,7,-5,-9,6,840,89,I,2.5159235202154435,48.775930307977255,1506.138130114483,-57.928389619787794,1.62975348069142
2025-02-19 14:53:00.276,623,-194,635,13,-47,-17,-6,-10,7,772,90,I,16.98853091063534,43.17647845311264,1307.247785900283,-407.07234424503184,-62.42751853399602
2025-02-19 14:53:00.381,742,32,646,-11,-11,61,-4,-9,8,570,96,I,-2.8358630200827792,48.92174622072111,1495.8128402915863,64.50944863791207,-10.284494377850137
2025-02-19 14:53:00.487,530,-183,564,-10,31,-3,-6,-8,5,461,69,I,17.97659236492158,41.79167853728438,1196.4241925796523,-413.10495706052154,-145.17593323570577
2025-02-19 14:53:00.595,844,78,581,0,-65,27,-4,-7,7,615,92,I,-7.646313542398929,55.21752908245034,1665.323774926542,153.90432991027285,15.610055411941971
2025-02-19 14:53:00.698,800,-26,663,-20,15,7,-4,-6,7,756,92,I,2.2457425658950716,50.328128742287056,1569.713058453936,-51.01567439975292,25.100302806300647
2025-02-19 14:53:00.806,590,-168,710,-1,-5,-14,-5,-6,6,685,49,I,13.312465605847095,38.96095514645507,1218.790650107388,-347.04547325091727,-46.68027385804328
2025-02-19 14:53:01.528,721,-76,678,0,-4,-4,-7,-8,7,792,68,J,6.395836706899725,46.581945945338646,1447.3581317760145,-152.56479613727757,-5.0385760667657
2025-02-19 14:53:01.622,755,-45,675,4,1,-5,-5,-9,7,785,79,J,3.8140748342903548,48.13888827108025,1499.7646516568536,-89.38994612524294,9.150808121355908
2025-02-19 14:53:01.728,612,-49,680,1,2,-20,-6,-8,7,672,80,J,4.121542648093351,41.9134481829631,1280.0072382111125,-102.48423966069366,-62.23026467901411
2025-02-19 14:53:01.838,875,178,674,-24,-64,15,-5,-11,4,730,83,J,-14.79376356502067,51.45583548276832,1657.1280800131553,337.10719799124763,71.53791322415225
2025-02-19 14:53:01.947,797,-26,685,-26,37,23,-7,-10,6,792,83,J,2.1736868603612285,49.30144190078343,1555.150746611336,-50.73264668995576,33.38988528385801
2025-02-19 14:53:02.053,783,-50,507,7,-7,-2,-6,-8,6,732,86,J,5.63225911275394,56.949930194654925,1621.1942970000857,-103.52454003831966,-35.73883598856105
2025-02-19 14:53:02.156,853,157,548,-46,-6,27,-5,-8,6,238,102,J,-15.986814529500705,56.24581568971506,1684.4290367959718,310.029728929622,13.858016220172999
2025-02-19 14:53:02.269,658,-46,569,-22,63,30,-5,-7,5,464,54,J,4.6219445324545685,49.05630601830469,1413.3539415659359,-98.80589865050615,-84.18600722039128
2025-02-19 14:53:02.376,704,-102,676,-4,-19,-10,-3,-7,2,429,47,J,8.580494322628073,45.84010501078662,1421.3984227973872,-205.94124875757598,-12.86553098158197
2025-02-19 14:53:03.096,723,-119,687,21,-10,-13,-6,-9,6,611,80,K,9.8270864492159,46.039505255405466,1442.8185940202534,-237.4763660973861,3.022995723493864
2025-02-19 14:53:03.187,671,-63,666,0,-4,-14,-4,-9,6,478,85,K,5.403791360249714,45.086668226761304,1379.1755739973407,-129.49040411599475,-36.89855779765878
2025-02-19 14:53:03.298,706,-147,703,-2,0,-29,-5,-10,5,317,88,K,11.810592845141526,44.50901648096739,1407.0214979035845,-292.9633997051373,4.957346988357131
2025-02-19 14:53:03.400,775,45,609,24,7,22,-4,-6,7,0,94,K,-4.225998177958452,51.763700871707265,1560.464949466544,90.60764222708966,-8.223424806613252
2025-02-19 14:53:03.515,374,-318,795,25,-44,-28,-7,-8,6,811,76,K,21.80140948635181,23.59535941402363,774.2748118149725,-658.3406153934793,-55.851538483698164
2025-02-19 14:53:03.620,636,-107,736,11,18,17,-7,-10,5,603,91,K,8.271734530717607,40.535102087345614,1285.913786852786,-216.34084149881772,-16.10148918812945
2025-02-19 14:53:03.726,644,-39,703,-56,-49,60,-5,-8,5,341,93,K,3.1753161531586063,42.448143596135296,1318.9226471021257,-79.87264477792375,-33.75562253539488
2025-02-19 14:53:03.829,1056,-35,700,7,70,8,-5,-6,8,693,81,K,2.8624052261117474,56.42749715282237,1889.186726157684,-62.61509035560505,147.69819288789915
2025-02-19 14:53:03.941,616,-162,691,7,-23,-23,-4,-8,3,467,49,K,13.19429501233765,40.95564486629643,1271.4745792299711,-334.38130168060934,-44.28073741543858
2025-02-19 14:53:04.656,734,-82,663,-3,10,-2,-5,-7,6,660,60,L,7.050551025698753,47.69303877885975,1473.5493210374752,-164.61995139655718,-5.012533852651359
2025-02-19 14:53:04.752,776,-72,676,7,-4,-6,-5,-9,7,613,70,L,6.079588957838487,48.77965560962069,1528.1809762570301,-141.78998748776567,20.749561920422252
2025-02-19 14:53:04.856,759,-74,763,7,0,-14,-5,-9,3,482,88,L,5.539539267609147,44.715319886733404,1462.5847329793173,-142.59719399271341,55.70731058864419
2025-02-19 14:53:04.968,686,-90,709,2,-7,49,-5,-9,5,143,89,L,7.234397259868636,43.8266105679924,1378.4783149920595,-180.84992470741304,-6.695517972842822
2025-02-19 14:53:05.076,898,-59,639,29,-22,11,-5,-8,6,340,90,L,5.275263757478342,54.45009588799958,1711.6094225302556,-112.45540749363593,60.05075612824794
2025-02-19 14:53:05.182,788,-79,694,2,5,11,-7,-7,5,765,89,L,6.4941879366257504,48.44627197674961,1536.334032288658,-154.0233357243705,34.93424059856795
2025-02-19 14:53:05.288,518,-192,721,6,-7,-8,-3,-5,5,586,42,L,14.911631016612743,34.77039551038458,1088.2892071586834,-403.38132774993676,-72.78092347762697
2025-02-19 14:53:06.107,706,-113,686,-1,-5,-6,-5,-7,5,689,58,M,9.35393590172465,45.43977272809007,1418.5132845161256,-227.04249454719854,-6.328772206886583
2025-02-19 14:53:06.207,708,-108,677,-1,-5,-6,-5,-5,7,705,64,M,9.063868774043119,45.92251896969544,1426.3997570121983,-217.58640361203027,-9.944400419856265
2025-02-19 14:53:06.312,719,-107,677,-2,-3,-5,-5,-8,6,741,69,M,8.981318328954885,46.37038164636922,1442.8152742922557,-214.71659853862494,-4.533992622888604
2025-02-19 14:53:06.419,720,-96,667,-3,-5,-3,-6,-8,4,773,72,M,8.190223821610589,46.89537382601232,1450.1071053716805,-193.34761404955742,-9.363110115154086
2025-02-19 14:53:06.526,703,-113,685,-2,1,0,-6,-8,6,783,69,M,9.367349418713571,45.358473704246954,1414.516959144205,-227.36901334750377,-8.298886221593648
2025-02-19 14:53:06.629,710,-124,668,3,-7,1,-5,-6,5,783,75,M,10.51604638454479,46.261187414108015,1432.4989711993185,-250.18291891368378,-11.759595438232054
2025-02-19 14:53:06.738,773,-68,645,-4,3,0,-6,-8,5,777,87,M,6.018253924408499,50.002149821354074,1539.0685609099319,-135.39024856646236,5.783671685761533
2025-02-19 14:53:06.849,737,-116,667,-5,7,-10,-6,-7,6,729,84,M,9.865806943084369,47.42926536187726,1473.442723707454,-231.91228758489098,0.5043463868769322
2025-02-19 14:53:06.951,753,-71,660,0,2,-8,-7,-9,5,704,90,M,6.140024307103919,48.60217695394194,1503.1361956425644,-141.72997329431882,2.5101074049235876
2025-02-19 14:53:07.063,631,42,649,-17,-23,73,-6,-9,4,165,95,M,-3.7027300004619503,44.13449291900528,1327.344993266057,88.3494290288025,-67.20903427840062
2025-02-19 14:53:07.168,774,-226,711,22,43,-56,-6,-8,7,670,86,M,17.633491678736544,46.05324594699834,1493.9850475182584,-436.228192169414,49.61838658206477
2025-02-19 14:53:07.279,847,-209,668,-4,-24,6,-6,-10,4,721,88,M,17.373557842531955,50.43082481537513,1617.8560618644597,-399.211236044477,60.05212594396812
2025-02-19 14:53:07.386,676,-82,584,30,3,-38,-5,-5,6,806,91,M,7.992702666670688,48.89921235778898,1429.5543553258585,-173.40748097147988,-66.99962057736889
2025-02-19 14:53:07.487,687,39,642,12,-19,65,-4,-7,7,718,93,M,-3.4763127492011394,46.88665231270738,1417.0030806053014,80.44122291645814,-40.1862849324649
2025-02-19 14:53:07.598,710,-121,538,-49,85,26,-5,-6,4,746,51,M,12.675315087258483,52.16441745259188,1499.7742247597675,-255.59532562807306,-60.44863791655621
2025-02-19 14:53:08.319,718,-83,673,-1,-1,-3,-5,-9,6,728,74,N,7.030693768000946,46.63709575786179,1445.0193687332214,-167.04262897612443,-8.454087963033203
2025-02-19 14:53:08.410,733,-62,673,0,1,-3,-6,-9,6,712,76,N,5.263506170397064,47.32293665703363,1468.1860172596362,-124.18490186916432,-2.0070799668964128
2025-02-19 14:53:08.518,729,-75,668,-1,2,-11,-5,-8,4,645,77,N,6.406081392663486,47.32143125357673,1464.1682066026174,-150.63458915664785,-5.6520740885436
2025-02-19 14:53:08.626,714,-137,642,-7,-4,-10,-5,-9,6,572,88,N,12.045989535208207,47.40442592069259,1450.149371486077,-278.2499494308019,-19.915821420254133
2025-02-19 14:53:08.733,842,152,554,-1,-7,37,-5,-9,6,3,94,N,-15.342593107633155,55.69534645980116,1668.0525224117337,301.12112043537235,10.4927584131824
2025-02-19 14:53:08.846,519,-210,625,-18,-11,-53,-5,-8,5,634,85,N,18.572348510407302,38.20821592772479,1137.5210769405357,-460.2686438487716,-119.8471543118203
2025-02-19 14:53:08.950,672,-33,741,10,-39,90,-5,-9,7,698,91,N,2.5499490129601816,42.176093336683465,1343.4114301505647,-65.97109701632236,0.6490033607614123
2025-02-19 14:53:09.057,755,-136,651,15,19,-76,-5,-7,6,748,92,N,11.799916873828836,48.62425849679457,1505.3909956441057,-271.1697687517859,3.974121636671839
2025-02-19 14:53:09.156,780,85,595,-38,67,53,-5,-8,6,773,55,N,-8.13010235415598,52.383408698150866,1572.1129286693092,171.3199986370401,-9.23999045928042
2025-02-19 14:53:09.880,733,-92,653,0,-5,-3,-4,-9,7,763,77,O,8.019516599213306,48.023628426542246,1476.4207076171142,-185.30791964634994,-9.283386185505492
2025-02-19 14:53:09.975,718,-81,652,4,-7,2,-5,-6,6,780,84,O,7.081749768858569,47.53965467619489,1455.744739324859,-164.2274705923587,-17.929763286640537
2025-02-19 14:53:10.084,743,-72,656,-4,1,-8,-4,-8,8,787,90,O,6.26349061433454,48.38822445857999,1490.6616232837819,-144.45173200058179,-4.115780449745216
2025-02-19 14:53:10.195,711,-244,630,31,19,-16,-5,-9,5,428,91,O,21.171464782347417,46.46242772881871,1435.9228197954294,-492.77801410701085,-12.336675768101713
2025-02-19 14:53:10.301,793,149,701,-19,-26,14,-5,-6,6,678,92,O,-11.999831888381655,47.894836386614585,1534.9154177379962,288.4015097641379,45.157997686840986
2025-02-19 14:53:10.408,798,-62,577,8,30,-29,-7,-10,6,742,89,O,6.133033788328374,53.974607166917636,1606.7564152415312,-124.83571145986832,-7.777508263613299
2025-02-19 14:53:10.515,493,-138,739,-24,18,20,-4,-7,4,667,42,O,10.57751914912006,33.25612909957976,1041.3826863946865,-291.50265866626114,-83.01786053889111
2025-02-19 14:53:11.329,762,-36,653,0,0,0,-7,-8,6,703,81,P,3.155531656726751,49.36193677136112,1520.8388118549883,-71.85065252858212,2.7089971898853946
2025-02-19 14:53:11.428,767,-5,662,-5,-2,-5,-5,-9,5,660,87,P,0.43273935086824095,49.20161635712095,1524.013488838216,-9.934898884212622,8.619387730248945
2025-02-19 14:53:11.536,704,-298,729,23,3,45,-6,-11,6,596,86,P,22.233720297663595,41.79366622093201,1370.4500573098635,-580.1052799408229,38.8833923595306
2025-02-19 14:53:11.636,769,29,627,8,2,24,-7,-6,8,172,94,P,-2.6481567508327464,50.77811793570974,1543.7030513112768,58.215069555301724,-4.649952109454375
2025-02-19 14:53:11.752,962,-298,918,41,6,-20,-6,-8,4,761,84,P,17.984401521137784,44.906140710201214,1667.9474833797021,-516.6822765562903,244.34117490377696
2025-02-19 14:53:11.858,610,-95,729,-11,-7,41,-5,-6,5,722,89,P,7.42468784693484,39.68408616494823,1248.5540930624697,-194.44694891956496,-34.124481709082715
2025-02-19 14:53:11.965,1038,-83,733,2,46,17,-5,-9,5,663,79,P,6.460272545122721,54.599412808711186,1853.1218589682258,-148.17833747048434,157.38889920644567
2025-02-19 14:53:12.071,624,-96,703,3,-20,-5,-3,-7,2,714,52,P,7.776076729131284,41.33040837161957,1284.4002905532611,-197.6000447005017,-41.00866067138236
2025-02-19 14:53:12.786,730,-64,665,3,-2,-3,-6,-7,6,772,71,Q,5.497249695755401,47.536249395192684,1467.7046157590667,-128.67547316243872,-7.01858832846483
2025-02-19 14:53:12.887,772,-66,630,9,-12,-4,-4,-8,5,797,83,Q,5.9805995247634485,50.63015885591028,1545.0675703796587,-132.0912689702817,-0.8712038072345649
2025-02-19 14:53:12.986,680,-75,695,-3,7,-34,-6,-8,7,775,88,Q,6.159163029143084,44.209187086799304,1377.2800468610812,-151.90588752144274,-17.66122436536955
2025-02-19 14:53:13.100,936,52,550,-3,-3,82,-5,-8,5,264,85,Q,-5.40100080017433,59.44973741443907,1797.1835921443526,99.84353289690847,43.962632821160355
2025-02-19 14:53:13.206,563,-207,790,-6,-5,-52,-6,-9,8,752,90,Q,14.68285682916336,34.581812626140106,1130.5824286369775,-415.6848361063131,-6.430050840518902
2025-02-19 14:53:13.317,553,29,560,-25,26,27,-4,-6,6,525,59,Q,-2.964454774470874,44.601295336343014,1255.1691502180483,65.82261366423762,-151.05736730941612
2025-02-19 14:53:13.423,742,-190,611,12,8,-14,-6,-7,5,579,86,Q,17.273898202136387,49.22731641269439,1499.3064952905718,-383.91945297197924,-12.60413560989116
2025-02-19 14:53:13.530,791,-23,664,16,-3,17,-4,-7,6,716,91,Q,1.9838497916357432,49.971514948384296,1556.724781499275,-45.265069499978914,21.217124000608806
2025-02-19 14:53:13.640,552,-217,717,-17,8,-12,-6,-5,4,448,43,Q,16.83843585516225,36.38525431631463,1145.2117188976954,-450.20098369710126,-53.53043922037614
2025-02-19 14:53:14.356,734,-63,675,3,-7,-3,-5,-7,5,663,74,R,5.332158881659557,47.273959466382635,1468.606300399996,-126.05203940762908,-0.557565081740222
2025-02-19 14:53:14.451,690,-41,673,7,-2,-17,-6,-8,5,676,83,R,3.486221742134944,45.661535675288654,1405.2237059512506,-83.49879991884244,-24.602252326364805
2025-02-19 14:53:14.562,720,-218,639,-14,1,-36,-5,-9,6,436,87,R,18.837488659989308,46.84070989435078,1449.4548289435515,-438.8627120967975,-8.391160687401907
2025-02-19 14:53:14.664,796,33,668,17,2,29,-4,-7,4,372,91,R,-2.82818091627902,49.96237209361563,1561.6221394957952,64.74061633588096,25.492978413076344
2025-02-19 14:53:14.779,802,-185,686,4,-16,-14,-5,-10,5,764,82,R,15.09244750345683,48.46163593537728,1550.5118763004257,-357.6617171017192,45.75168685524659
2025-02-19 14:53:14.877,731,-56,638,1,9,7,-6,-9,7,609,91,R,5.016240741853261,48.777340274119034,1483.1543470572417,-113.62057925472715,-18.463027937784204
2025-02-19 14:53:14.986,736,-10,691,9,-32,49,-5,-7,5,491,93,R,0.82911403981324,46.80321234494903,1465.0070060910239,-19.904986495801957,6.565433140084792
2025-02-19 14:53:15.099,491,-235,628,-28,68,-5,-5,-4,6,428,42,R,20.516041190815592,36.21374330148444,1081.7992128576977,-517.7654073758838,-127.64542907257453
2025-02-19 14:53:15.806,729,-86,660,-2,-1,-2,-4,-8,7,644,73,S,7.423985276627548,47.60381591101262,1467.5002476694895,-173.12074252342398,-8.601047272788719
2025-02-19 14:53:15.909,740,-103,652,-5,1,-7,-6,-9,5,702,73,S,8.977139159544311,48.266796754634335,1486.252551984996,-206.8702876411549,-5.509005262456185
2025-02-19 14:53:16.017,729,-72,655,7,-22,-5,-5,-8,6,778,85,S,6.272977019480162,47.88947347691626,1470.8526560084838,-145.2693981242947,-11.547996825180917
2025-02-19 14:53:16.122,691,-119,700,0,2,-24,-5,-9,5,755,90,S,9.648045316098155,44.22128451039865,1388.431376127476,-239.10757418114275,-6.515142242016168
2025-02-19 14:53:16.232,900,-294,618,35,8,46,-4,-9,4,551,86,S,25.44174846300256,52.75030580226577,1696.0052331324946,-554.028376156615,71.40973991568717
2025-02-19 14:53:16.336,660,-138,656,-17,-9,36,-4,-6,8,469,96,S,11.879854139956471,44.553906444391444,1361.5800120601605,-284.69400252167,-41.328011987068635
2025-02-19 14:53:16.446,677,-66,568,-36,74,32,-3,-4,3,463,51,S,6.62788540132345,49.81420786868858,1440.9560619313083,-140.4772527141305,-72.95575063069873
2025-02-19 14:53:16.556,737,-75,695,17,-35,-22,-4,-6,3,562,52,S,6.159163029143084,46.514395406921764,1462.5472953085307,-148.8345280164719,10.800040380693645
2025-02-19 14:53:17.268,725,-81,685,-13,-4,-4,-5,-8,4,617,66,T,6.743805674497038,46.426359661719786,1449.4890531459746,-161.94291490320546,0.4827566827688088
2025-02-19 14:53:17.367,693,-106,675,-9,0,-8,-7,-8,6,577,70,T,8.924673070995933,45.404969562199256,1405.0869447140976,-214.9195038090827,-18.591179916328656
2025-02-19 14:53:17.478,668,-100,687,-3,4,-12,-5,-8,5,283,76,T,8.281832521703459,43.89648801570735,1361.3576602962457,-203.79605693057573,-26.078911113055256
2025-02-19 14:53:17.581,819,-206,594,53,7,-18,-6,-10,5,0,87,T,19.12661477371391,52.48829778070202,1612.228988936817,-405.51791418923597,18.691062968901974
2025-02-19 14:53:17.686,701,-53,701,-1,-4,5,-5,-8,7,761,94,T,4.323694558427259,44.91835315224155,1407.0984319568051,-106.38547345750453,-5.098431956805143
2025-02-19 14:53:17.799,601,-239,638,23,-47,-18,-6,-7,6,576,90,T,20.536359331502897,41.416854874862125,1262.5324991759458,-502.0719921847771,-64.25912558112032
2025-02-19 14:53:17.899,775,67,631,-25,-15,52,-8,-8,6,0,97,T,-6.060994194867996,50.690397401692145,1548.734046151892,133.89055624796998,1.0307314556854408
2025-02-19 14:53:18.014,575,-122,586,-47,72,33,-5,-7,6,562,55,T,11.76047977580444,43.849666743613795,1267.768570302971,-268.98741839471734,-120.0215342565931
2025-02-19 14:53:18.826,716,-131,674,6,-6,-8,-4,-8,7,254,68,U,10.998990136575951,46.20027569835034,1437.763558574954,-263.05450582865785,-5.425472736758593
2025-02-19 14:53:18.924,715,-105,676,0,0,-1,-6,-8,5,324,75,U,8.828941170692634,46.26495707315126,1437.5444570469772,-211.107927258647,-7.132941208051079
2025-02-19 14:53:19.030,674,-86,684,3,-6,-25,-6,-9,7,35,85,U,7.16625115971222,44.353468481959524,1373.0828664366836,-175.2004844414759,-25.455015790343282
2025-02-19 14:53:19.136,654,-293,637,5,9,-3,-5,-10,5,0,88,U,24.700945458031224,43.007106445157206,1336.0890652494932,-598.5842448289014,-27.358921351570643
2025-02-19 14:53:19.247,766,112,675,-5,-22,22,-6,-8,5,175,95,U,-9.421022998806379,48.227208849107285,1511.7924412203606,221.04536999566636,17.80692190111813
2025-02-19 14:53:19.356,721,-244,635,-6,-1,-35,-7,-12,7,618,91,U,21.019369882118877,46.66511225229908,1448.3550238108432,-490.15065993043805,-5.597004327164655
2025-02-19 14:53:19.464,879,88,649,-1,-17,24,-6,-7,10,167,98,U,-7.721825800130976,53.3103713903852,1680.8838101698452,168.2796078440801,56.93789214990943
2025-02-19 14:53:19.571,462,-279,730,-20,16,-1,-7,-6,4,382,38,U,20.916445249805978,30.5903664425713,970.8966857189034,-586.3207257912859,-74.10082375497711
2025-02-19 14:53:20.288,711,-133,670,5,-1,0,-7,-7,6,545,67,V,11.227681913935513,46.147625275515445,1432.1272306784826,-267.8944046135558,-9.54324128633391
2025-02-19 14:53:20.383,689,-128,673,9,-4,-4,-5,-9,5,453,70,V,10.768648628071084,45.16411340607636,1398.1292573404253,-259.7395427279746,-19.6618144994286
2025-02-19 14:53:20.488,671,-94,691,15,9,-24,-7,-9,5,0,73,V,7.746664411114043,43.896216761979076,1364.3542488032717,-191.13159372206786,-23.020545339881778
2025-02-19 14:53:20.599,747,-117,612,-2,1,-10,-5,-11,5,0,83,V,10.823011226207099,50.16802792594533,1514.9262112871602,-237.27759935822996,-17.144365873818174
2025-02-19 14:53:20.699,735,165,667,5,-15,37,-4,-7,5,169,92,V,-13.894672821832676,46.92891071002794,1465.5069547711732,328.9913571935287,4.077362132826352
2025-02-19 14:53:20.812,666,-315,691,13,3,-24,-5,-9,7,715,91,V,24.506395666238692,41.25059230766377,1325.353587373438,-626.8564264604099,6.895902590021592
2025-02-19 14:53:20.916,720,-91,629,-28,31,27,-7,-9,6,682,68,V,8.232097403539026,48.56495088173381,1469.706389951677,-185.75455761889253,-25.951832332784534
2025-02-19 14:53:21.029,698,-79,670,11,-16,-3,-5,-8,4,612,60,V,6.724721405494416,45.974923844590734,1417.0357062469875,-160.38083208239544,-20.19186702791046
2025-02-19 14:53:21.946,727,-85,680,1,-1,-2,-5,-9,4,299,67,W,7.125016348901798,46.691578937389394,1454.6719514600422,-170.0785637883131,-0.6285103065046087
2025-02-19 14:53:22.041,727,-90,680,5,0,-3,-6,-9,5,363,69,W,7.539445139509308,46.66496129800669,1454.3532157501943,-180.04372684665404,-0.3303806191640888
2025-02-19 14:53:22.147,715,-83,693,1,2,-2,-6,-10,4,240,72,W,6.829732379622254,45.691240242524636,1430.5859469946408,-166.0680190217555,-0.5679178563441383
2025-02-19 14:53:22.258,598,-43,659,13,-13,-33,-6,-10,5,0,85,W,3.7332790666141302,42.16115202367266,1269.2181508539347,-91.26485031223943,-80.6868919945532
2025-02-19 14:53:22.364,867,-235,646,12,-5,-1,-5,-12,3,1,83,W,19.990227548399865,51.59024220075076,1650.5876609383793,-447.39111917014895,62.15037028120753
2025-02-19 14:53:22.470,883,104,666,-13,-20,5,-8,-6,6,241,93,W,-8.875410361645859,52.642336281668264,1677.8631981938797,197.619221531329,66.4769082705277
2025-02-19 14:53:22.581,733,-146,674,24,-1,-28,-5,-9,4,667,89,W,12.222416086880802,46.746092260086684,1461.3242367023586,-291.068674704699,4.2994058152935395
2025-02-19 14:53:22.681,874,34,623,-3,-19,-7,-6,-7,8,344,99,W,-3.123797636425276,54.47789307426982,1687.8914001230594,65.66167918098857,42.846290301297586
2025-02-19 14:53:22.791,764,-72,666,2,2,-4,-7,-9,7,781,92,W,6.1701750950296095,48.75548726419912,1515.9029501250482,-142.85996388613017,10.545334053295733
2025-02-19 14:53:22.898,587,-107,689,-12,7,19,-6,-9,4,612,54,W,8.827379647223013,40.09295417904495,1231.029560384613,-224.39550759992096,-66.93929660136007
2025-02-19 14:53:23.716,749,-88,647,1,-12,-9,-6,-10,4,684,89,X,7.745406128357215,48.91899815212427,1502.7813235575882,-176.56175764094496,-4.130195382856527
2025-02-19 14:53:23.814,739,-106,677,-2,-2,-5,-5,-9,8,727,94,X,8.898730270791148,47.161346922326295,1472.2713305199295,-211.1782963939276,5.248050389726359
2025-02-19 14:53:23.916,690,46,668,-16,10,64,-5,-9,5,0,96,X,-3.939298869881025,45.86039655212126,1407.6451039768865,93.84300693179244,-26.763665879072846
2025-02-19 14:53:24.028,832,51,693,-9,-12,-32,-7,-8,7,0,93,X,-4.208984924170216,50.131866953641484,1599.5217966890798,98.04761013358541,53.70600347892753
2025-02-19 14:53:24.136,978,-45,750,-9,0,-25,-7,-10,6,249,87,X,3.4336303624505224,52.46671812587678,1770.9995901699845,-81.4877112041404,141.87147993099347
2025-02-19 14:53:24.241,705,124,634,2,-30,51,-4,-7,8,95,100,X,-11.066418180354832,47.500048325155824,1442.2779066249918,253.67724882482122,-29.027223830134517
2025-02-19 14:53:24.351,779,-134,538,-49,81,14,-6,-4,7,379,56,X,13.986115939584936,54.55945070177828,1593.717623473031,-274.14398144465486,-24.66762699421122
2025-02-19 14:53:24.456,728,-143,665,18,-28,-27,-5,-8,5,349,49,X,12.13593896298861,46.94404337335588,1458.6872946751757,-286.5278614540524,-2.4547403282855385
2025-02-19 14:53:25.170,715,-80,662,1,0,-4,-5,-9,6,500,70,Y,6.890548321938934,46.99708424485488,1446.318994097901,-161.82590143752742,-15.109334395539236
2025-02-19 14:53:25.269,722,-77,671,0,1,-2,-6,-7,5,396,69,Y,6.546290783294036,46.90981991514224,1452.279372086714,-154.88298012559136,-7.69454109443916
2025-02-19 14:53:25.376,668,-52,652,1,-14,-15,-5,-10,4,289,78,Y,4.559950087411836,45.60366048636205,1382.5173779437941,-107.62111325310971,-45.403189250529636
2025-02-19 14:53:25.486,747,-79,710,-21,-34,46,-5,-9,7,457,92,Y,6.349048722112831,46.278645683869414,1469.7096016684072,-155.43113591941653,23.08725945840831
2025-02-19 14:53:25.591,1012,-8,629,7,45,-22,-6,-8,8,725,84,Y,0.7286828664012605,58.135255944300106,1861.2966920645526,-14.71380784240753,101.12685839070798
2025-02-19 14:53:25.698,761,-100,587,-9,-4,-14,-6,-9,5,728,92,Y,9.667966033338093,51.95801225162208,1548.5593702688122,-203.49006179616453,-20.48666274348591
2025-02-19 14:53:25.805,992,213,416,-27,2,33,-8,-8,9,0,99,Y,-27.113319413382186,64.77353269324377,1896.6302707452378,407.24016902090284,36.638918719739024
2025-02-19 14:53:25.914,417,-193,609,-38,50,11,-5,-6,6,377,46,Y,17.584083958191734,33.13388453090133,963.5972895116438,-445.98147931833876,-189.2679839630481
2025-02-19 14:53:26.026,765,-123,666,10,-24,-12,-5,-7,4,440,54,Y,10.463748777919566,48.48118214589676,1513.7380537687927,-243.38533413537453,14.157459071874655
2025-02-19 14:53:26.941,746,-135,666,9,-12,-10,-5,-8,7,694,66,Z,11.458752345877201,47.669052438982845,1485.2674682543109,-268.7816463999088,6.010544427116429
2025-02-19 14:53:27.037,709,-124,673,1,3,-7,-5,-9,7,685,68,Z,10.439642198538412,46.01443861882414,1428.5148324042802,-249.83898338241295,-9.980934002934646
2025-02-19 14:53:27.144,714,-110,675,-4,5,-11,-5,-8,7,489,68,Z,9.255727744552217,46.233342057725814,1436.1628838350139,-221.25758714545032,-7.717012028899717
2025-02-19 14:53:27.255,1326,-119,705,28,16,-18,-7,-10,6,109,88,Z,9.580892288388261,61.66667052861595,2206.2014231699445,-197.9924354126873,237.01960532819697
2025-02-19 14:53:27.361,602,-64,747,27,-31,20,-5,-9,7,807,85,Z,4.896916967609174,38.76267521302743,1228.095986187685,-130.56169952825883,-29.89983668139621
2025-02-19 14:53:27.466,856,210,573,-63,23,19,-4,-7,8,100,89,Z,-20.127488693007976,54.51372176041653,1670.2545674999105,409.758713989464,27.944080400176745
2025-02-19 14:53:27.574,722,21,652,39,-41,19,-4,-7,6,385,93,Z,-1.8447784674740386,47.90170209942225,1463.9957571720875,42.581594045171514,-18.057110354848987
2025-02-19 14:53:27.680,1072,12,730,-45,89,25,-5,-5,6,594,71,Z,-0.9417636088164733,55.74270419332663,1898.5180771832975,21.25206802817124,167.16586161958298
2025-02-19 14:53:28.698,723,-100,680,-1,-2,-1,-5,-6,5,531,59,a,8.36588612403259,46.44949550840229,1447.767325609479,-200.24444337613818,-1.662214957739593
2025-02-19 14:53:28.796,723,-105,672,-1,-1,-1,-6,-6,6,594,60,a,8.880659150520245,46.74902577342813,1451.3593192946219,-210.77832437888694,-4.981276024876479
2025-02-19 14:53:28.898,717,-94,675,-3,-1,-1,-6,-6,5,611,62,a,7.927980708324848,46.453525782052466,1441.8157886979689,-189.02466406918978,-7.357960071309549
2025-02-19 14:53:29.012,727,-107,675,-4,-3,-1,-4,-9,5,621,64,a,9.007493964624214,46.769456282564626,1455.6035997129356,-214.23601811455865,-1.4888993208137435
2025-02-19 14:53:29.115,732,-98,673,7,-9,7,-7,-7,5,727,65,a,8.284987635778903,47.10498147382917,1464.6020800147621,-196.08060634077412,-0.5535517075611551
2025-02-19 14:53:29.224,728,-110,653,-1,-3,-3,-5,-5,5,756,67,a,9.561892727598249,47.70985724216164,1467.7468700006846,-221.77493914845508,-10.536684217647007
2025-02-19 14:53:29.330,726,-103,677,3,-4,5,-6,-8,6,755,69,a,8.650743599497668,46.67314741467823,1453.4512579797267,-206.20589472715127,-1.3533080609846593
2025-02-19 14:53:29.436,754,-137,647,-2,-6,-2,-6,-6,6,753,77,a,11.955587118499242,48.74547534584981,1505.7877365215381,-273.59803700722915,1.8983215789980932
2025-02-19 14:53:29.547,644,-134,655,6,-22,-12,-5,-5,7,762,87,a,11.56203899975603,43.927760602900356,1337.7508639186244,-278.35188783399946,-50.6006457557437
2025-02-19 14:53:29.655,683,-172,651,-9,6,-30,-6,-9,7,600,95,a,14.799866781886855,45.40811529121374,1395.12549078983,-351.3346770363847,-27.76089971329327
2025-02-19 14:53:29.761,786,61,666,-1,-23,32,-5,-7,7,380,96,a,-5.233210396000098,49.60637245751921,1547.610386958545,120.10716743571405,20.666007996958115
2025-02-19 14:53:29.868,756,-185,606,3,2,-36,-4,-6,10,752,91,a,16.976409864044918,50.03336398219242,1522.418615735033,-372.5495289827793,-8.351430073320103
2025-02-19 14:53:29.967,960,-66,615,-5,39,1,-4,-5,6,689,86,a,6.125371940199724,57.20617640789958,1800.6249940274656,-123.79296833938827,76.47461320115485
2025-02-19 14:53:30.085,526,-229,714,-15,15,-6,-3,-4,4,504,38,a,17.782515595453948,35.04955800175607,1100.2847475128174,-479.0213064266827,-65.54241392424217
2025-02-19 14:53:31.198,707,-110,679,-1,-2,-3,-5,-8,5,690,53,b,9.202137617254103,45.78646641352226,1423.7459133208363,-221.51633729178502,-9.359936555654599
2025-02-19 14:53:31.297,737,-106,672,-2,-8,-6,-5,-6,5,725,60,b,8.963869809292396,47.2905655011624,1471.8029173354257,-211.6840016791793,2.003310109353947
2025-02-19 14:53:31.408,639,-112,660,-6,-10,-31,-5,-7,6,726,70,b,9.631169792459996,43.66748040834918,1329.4719625027756,-233.02168982834252,-53.163529345589836
2025-02-19 14:53:31.511,718,-269,633,5,6,-25,-6,-9,5,663,91,b,23.023575312997586,46.231233214191526,1440.1374236055349,-539.5500932449704,-3.6476171898376606
2025-02-19 14:53:31.616,765,-21,630,7,5,28,-6,-7,7,200,99,b,1.9091524329963763,50.51192783752335,1536.7569854537753,-42.18548587520168,-5.564576256050373
2025-02-19 14:53:31.716,795,-80,707,6,-29,4,-6,-9,8,752,88,b,6.45579691786334,48.171986602520946,1540.150025524998,-154.9836503672954,44.33198987902688
2025-02-19 14:53:31.830,839,-33,502,-7,10,29,-5,-7,6,307,100,b,3.761044245626492,59.052139130119784,1696.6356301130802,-66.73298664330352,-11.150281664799081
2025-02-19 14:53:31.941,540,-116,642,-25,44,18,-5,-5,5,489,48,b,10.242004948021968,39.615192085720075,1177.6282704017494,-252.9719988270425,-116.06916592208006
2025-02-19 14:53:32.046,766,-130,666,6,-21,-13,-4,-5,5,550,52,b,11.044982781002348,48.46353752907453,1514.5338842709311,-257.03577670394395,15.185943962872102
2025-02-19 14:53:32.766,742,-106,663,-1,-2,-1,-6,-8,7,640,71,c,9.0835358443768,47.85871974349263,1483.4926218910823,-211.92751741301174,0.45335806767172926
2025-02-19 14:53:32.862,808,-78,643,2,-5,-2,-5,-8,7,644,85,c,6.916549285143142,51.28343601787655,1588.2496195612302,-153.32112664081183,22.08353294817948
2025-02-19 14:53:32.968,794,-76,711,4,-3,-9,-5,-7,8,679,93,c,6.101276366658995,47.99483813477911,1537.084539452384,-147.1264798468277,45.59306353823058
2025-02-19 14:53:33.075,685,-160,687,28,21,-5,-6,-8,6,258,90,c,13.110291888258626,44.15999462869276,1381.66436772465,-322.7245238480933,-11.698424272750913
2025-02-19 14:53:33.185,783,-54,652,11,-22,15,-4,-7,6,660,93,c,4.734550157550545,50.11969756244506,1550.385628724731,-106.92314680860214,13.00200519984071
2025-02-19 14:53:33.292,556,-177,708,-44,55,16,-4,-4,4,644,40,c,14.036243467926477,37.302445883703946,1162.0223574612246,-369.92438358028187,-63.69753432112759
2025-02-19 14:53:33.399,760,-120,700,4,-19,-14,-2,-3,5,491,44,c,9.727578551401605,46.939582685632516,1490.6341407910418,-235.36328538805924,27.047501902987847
2025-02-19 14:53:34.116,728,-93,652,0,-7,-5,-6,-8,5,683,81,d,8.117799202205697,47.86532202364993,1469.5699328309565,-187.73352163911943,-12.153291491460891
2025-02-19 14:53:34.210,784,-78,660,-3,3,-5,-5,-7,7,649,93,d,6.740056097946948,49.712212534589945,1546.8061749246967,-153.8914306685285,17.841740497066553
2025-02-19 14:53:34.316,763,-115,654,1,12,-15,-5,-8,7,0,92,d,9.972991542980402,48.9671631699726,1517.333461784034,-228.69377209064731,7.428461327970808
2025-02-19 14:53:34.427,840,162,608,5,-38,42,-4,-7,5,102,95,d,-14.919685855714864,53.16450814659717,1640.3601523568746,316.3551722402543,28.6916992464528
2025-02-19 14:53:34.533,725,-331,680,-5,7,-48,-5,-9,6,777,89,d,25.95518418611907,43.79023308418325,1417.0201290738526,-646.942983066821,30.932844454869382
2025-02-19 14:53:34.644,788,178,540,-16,-18,68,-5,-6,8,171,94,d,-18.243751158287235,54.18770153139058,1598.9382398602277,361.1814805775641,-15.719098381374238
2025-02-19 14:53:34.746,573,-227,638,-34,58,14,-4,-7,4,632,46,d,19.58552674718494,40.23642653853325,1218.9431505253597,-482.8971992482663,-81.21767894446657
2025-02-19 14:53:35.563,720,-85,668,-3,3,3,-5,-7,4,627,68,e,7.251659972856594,46.91603535481656,1450.35347567473,-171.22228532271117,-9.605724653777315
2025-02-19 14:53:35.664,732,-101,668,1,-4,-4,-6,-7,7,549,75,e,8.597861566411314,47.29483551115835,1466.8534646595615,-202.39371575220724,-2.603981410637971
2025-02-19 14:53:35.770,811,106,589,-9,-31,21,-6,-7,5,450,90,e,-10.202089240101229,53.57522683077261,1615.637143604447,211.16835662400905,4.621112721308236
2025-02-19 14:53:35.877,662,-91,669,-7,11,-30,-6,-7,6,586,91,e,7.7460559599274115,44.43609661571535,1362.1133228459703,-187.23914256644005,-38.51633381261979
2025-02-19 14:53:35.983,760,128,587,4,-28,48,-4,-7,6,187,93,e,-12.30123946199835,51.672996557207185,1544.4841821562652,260.1236517315815,-18.910809112799598
2025-02-19 14:53:36.086,803,67,562,-44,95,45,-4,-5,5,658,52,e,-6.798548203910341,54.82261352123319,1620.372341222511,135.19918662753204,-10.058849024970414
2025-02-19 14:53:36.196,714,-134,654,12,-29,-15,-4,-4,5,460,46,e,11.579240852715689,46.92408234124853,1444.4494031144689,-271.087142881427,-15.067100331740562
2025-02-19 14:53:36.916,731,-102,645,1,-6,-1,-5,-6,5,658,86,f,8.986310822783583,48.22501750417958,1476.7669618939651,-206.0605063107858,-13.029672259380845
2025-02-19 14:53:37.012,791,-53,620,-6,-2,2,-5,-5,6,506,96,f,4.8859866899116,51.80869822700477,1576.9507663675809,-105.66168219656356,3.9576799647280723
2025-02-19 14:53:37.122,747,-257,631,-4,-8,-57,-6,-9,7,765,89,f,22.16057701627099,47.632438546064634,1485.8369849122319,-511.19157312241447,6.895398286990144
2025-02-19 14:53:37.228,731,-71,646,0,-5,44,-4,-9,6,807,89,f,6.27204046851936,48.36154783038884,1478.3523499842897,-143.58825834320734,-14.450913939604902
2025-02-19 14:53:37.338,631,-154,541,10,-46,-33,-5,-7,6,623,85,f,15.889429345327876,48.28525880939791,1377.4670055722868,-336.1805370176421,-98.9978605619765
2025-02-19 14:53:37.441,673,-45,703,5,-22,18,-4,-8,7,747,91,f,3.662584929852105,43.692503109363166,1363.7878082193272,-91.18937796414522,-18.58072686209084
2025-02-19 14:53:37.552,690,-108,589,-43,64,18,-5,-7,4,663,51,f,10.390426359586423,49.046770914882124,1445.2448739333518,-226.21224113739422,-55.694537314122044
2025-02-19 14:53:38.269,731,-88,653,4,-7,-1,-5,-6,5,605,67,g,7.67509070447205,47.96938870900358,1473.7872244842004,-177.41898188045087,-10.529490544709574
2025-02-19 14:53:38.362,728,-94,647,1,-5,0,-3,-8,5,636,71,g,8.266432093554156,48.074035508744714,1472.008830900855,-190.0670743196159,-14.227628561611482
2025-02-19 14:53:38.473,665,-80,677,11,-20,-11,-6,-5,7,705,86,g,6.739297313951322,44.28909483558295,1363.2790542501998,-164.0034952481443,-33.87957853742137
2025-02-19 14:53:38.580,736,-181,635,-1,13,-21,-6,-9,5,252,92,g,15.909638190038056,48.10356563883171,1480.3531054372806,-364.05422837520075,-7.206823305262446
2025-02-19 14:53:38.686,758,32,653,3,-15,-7,-5,-8,4,661,92,g,-2.8055120937510933,49.22185730382173,1515.2442687083635,63.968095776606376,0.6510455586262651
2025-02-19 14:53:38.794,771,-190,668,8,3,9,-4,-8,7,738,91,g,15.877402523608403,47.98834729545477,1514.00872362379,-373.10202008887165,24.251845161230108
2025-02-19 14:53:38.899,814,-67,550,-14,9,23,-5,-6,5,0,103,g,6.945446551086102,55.75803184927786,1640.6686362465844,-135.0427501578884,-8.559889355800124
2025-02-19 14:53:39.006,475,-177,685,-15,48,7,-4,-6,3,455,39,g,14.488000622684035,33.87660580844832,1032.4061637764205,-384.70713892300296,-118.83836249862725
2025-02-19 14:53:39.828,715,-89,679,2,-6,-11,-5,-8,6,721,70,h,7.467479346105354,46.23560221525683,1437.1901698038346,-178.89500015740037,-6.828147268256885
2025-02-19 14:53:39.923,707,-88,661,0,-9,-11,-6,-8,6,727,82,h,7.58328755078095,46.674730026255205,1434.470210647021,-178.54791872268436,-19.138344041981554
2025-02-19 14:53:40.027,700,-324,753,9,-9,33,-5,-8,4,669,89,h,23.281188889171634,40.494745556075024,1349.3783107856393,-624.5693895636389,54.45447425487646
2025-02-19 14:53:40.129,752,-81,633,7,3,14,-6,-8,6,139,94,h,7.292058964582692,49.68143409793455,1514.4587064091165,-163.12653619566282,-8.803671751291063
2025-02-19 14:53:40.246,662,-120,745,-8,-24,18,-5,-8,5,689,90,h,9.150256778014878,41.25992705236959,1321.476068779218,-239.5424898089217,2.8403757696110006
2025-02-19 14:53:40.349,983,-40,641,13,26,2,-5,-6,8,623,89,h,3.5707695168647833,56.84125215258622,1820.1583343368006,-74.06544595470197,95.10122857590102
2025-02-19 14:53:40.461,407,-243,744,-13,12,4,-3,-6,5,534,34,h,18.087705925836246,27.474857503737383,868.3593312796922,-518.4553255551971,-99.36939182331935
2025-02-19 14:53:41.276,740,-92,659,-1,1,-2,-5,-9,5,685,72,i,7.9474384262172295,48.03885536451864,1483.598428185042,-184.44737215273494,-3.2045461810034794
2025-02-19 14:53:41.373,728,-93,652,-2,1,-9,-5,-7,6,691,76,i,8.117799202205697,47.86532202364993,1469.5699328309565,-187.73352163911943,-12.153291491460891
2025-02-19 14:53:41.478,770,-85,663,-6,-4,-8,-6,-8,5,720,92,i,7.305759533310827,49.03919694103991,1525.1582238476785,-168.36162211305543,12.779347518167583
2025-02-19 14:53:41.586,784,46,577,-15,-14,28,-7,-7,5,0,100,i,-4.558134037179064,53.561381646891476,1588.4936398917557,93.20243295283258,-15.082691604008687
2025-02-19 14:53:41.696,277,-319,637,-21,-3,-60,-5,-7,5,585,62,i,26.60101839113134,21.24709088573744,639.3907164011056,-736.3380452417063,-196.36782074911252
2025-02-19 14:53:41.796,923,-103,675,8,-11,8,-6,-10,6,675,89,i,8.675985972667117,53.506850764665046,1726.9279768795445,-192.71243945676392,87.07867346295484
2025-02-19 14:53:41.909,476,-167,702,-15,9,14,-4,-6,5,698,43,i,13.38146306565878,33.4109927853937,1026.6409041130482,-360.1870398884014,-110.07965270453735
2025-02-19 14:53:42.016,821,-87,664,3,-7,-5,-5,-7,7,707,57,i,7.464605805326381,50.796478315157145,1595.9056395619682,-169.11545754188944,37.27972634695857
2025-02-19 14:53:42.123,689,-118,684,-1,1,0,-4,-6,4,647,51,i,9.788017114968941,44.788575976889184,1393.4927169074585,-238.65332452116127,-15.380287902324767
2025-02-19 14:53:42.229,674,-149,692,-1,1,1,-5,-7,5,640,47,i,12.151289648220692,43.596372856794694,1363.5736982258968,-301.4428502012739,-15.98961301531233
2025-02-19 14:53:42.946,719,-117,670,0,-2,0,-5,-8,7,735,65,j,9.905500448174076,46.59097956517997,1445.4664894599782,-235.21499202617173,-6.957646645598629
2025-02-19 14:53:43.044,722,-112,670,1,-2,0,-4,-6,7,741,65,j,9.490054916175968,46.74549912990798,1450.3171430837197,-224.97994463348562,-5.862168789601242
2025-02-19 14:53:43.146,737,-105,665,1,-2,-2,-5,-6,7,750,69,j,8.972626614896393,47.58876918165407,1475.3231532211378,-210.18850893923943,-1.1938899485163574
2025-02-19 14:53:43.257,880,-87,731,1,-1,-12,-6,-8,5,735,91,j,6.787134455625374,50.08602620426291,1647.0086866553233,-162.8292678852422,93.85982960790761
2025-02-19 14:53:43.366,756,166,760,-11,-22,51,-5,-4,7,0,99,j,-12.321099435101745,44.18137189400994,1452.9319827570748,319.0300385418973,59.38054643468695
2025-02-19 14:53:43.477,1012,-152,445,24,42,-114,-6,-5,8,403,91,j,18.858783442113022,65.0772362071786,1918.8766638589295,-288.2107242159657,46.225182394047806
2025-02-19 14:53:43.584,815,142,537,-13,-19,-12,-6,-9,7,649,91,j,-14.811815817442572,55.723891246079575,1641.3332022735478,285.97461929183294,-7.467398307846906
2025-02-19 14:53:43.687,759,-6,590,-26,53,43,-4,-8,8,726,63,j,0.5826488591864757,52.13926255255316,1548.5048451084936,-12.241145020620502,-23.712593694349266
2025-02-19 14:53:43.797,658,-120,656,9,-27,-7,-5,-6,5,541,50,j,10.366322603450492,44.61575359443028,1360.3487995025675,-248.08792696095458,-44.21400071988489
2025-02-19 14:53:44.812,722,-97,676,-35,-5,3,-5,-6,6,549,69,k,8.16569715979402,46.59319720607662,1448.4930871579872,-194.6036419034969,-4.206823987256712
2025-02-19 14:53:44.912,726,-157,657,-19,-1,-5,-5,-9,7,426,74,k,13.439648295442922,47.06370626306479,1458.1115524767642,-315.3216442683912,-5.530702447980957
2025-02-19 14:53:45.023,701,-134,626,-13,-3,-23,-6,-10,8,275,80,k,12.0822552706399,47.59642281124462,1439.4132399790333,-275.1517463012703,-33.41039689996421
2025-02-19 14:53:45.125,719,-298,673,6,3,-6,-7,-9,8,348,95,k,23.883449461310033,44.32961715324957,1417.7851457309928,-587.6216598439999,18.921553439557442
2025-02-19 14:53:45.228,792,-26,563,11,7,21,-6,-9,7,0,103,k,2.6441076363737492,54.56372885726537,1606.7609179736821,-52.74720185267138,-16.179793963614884
2025-02-19 14:53:45.342,475,-307,739,23,-47,-23,-5,-7,8,431,99,k,22.5592811414697,30.69245458892347,985.4296775901223,-636.898760042458,-55.121119450737524
2025-02-19 14:53:45.449,777,-133,597,-16,22,-10,-6,-9,10,0,100,k,12.55928958932931,51.79103871017301,1562.7601620093708,-267.49948719079316,-6.730780848898803
2025-02-19 14:53:45.546,701,-85,673,-3,-29,28,-7,-8,8,0,104,k,7.1983515541630645,45.940903645137915,1419.6229291522986,-172.13687443358828,-16.91901757417554
2025-02-19 14:53:45.661,976,-139,624,3,71,19,-5,-7,6,330,77,k,12.557970811237608,56.77462024572694,1812.521682618256,-258.13577242206725,89.17466193259031
2025-02-19 14:53:45.772,650,-248,693,15,-15,-11,-5,-5,7,335,46,k,19.690478271348606,41.447907061681214,1311.9388289215844,-500.5551224193122,-12.72862837332002
2025-02-19 14:53:46.486,724,-166,669,4,-7,-5,-5,-8,5,564,61,l,13.935441707900443,46.406996745627346,1448.2560697890085,-332.0587121339439,-0.23661697354486932
2025-02-19 14:53:46.583,776,-95,667,8,-9,-10,-6,-8,7,638,75,l,8.106048711776863,49.03513943163243,1531.1117984626667,-187.44281037880583,17.95416291933168
2025-02-19 14:53:46.686,719,-94,649,0,-3,-14,-4,-8,7,660,78,l,8.241308170006082,47.63326767912365,1457.846736681685,-190.59470549106865,-17.914509188335614
2025-02-19 14:53:46.796,736,-155,640,-2,4,-8,-5,-10,7,600,94,l,13.614182744829353,48.180877629924154,1481.2535040772307,-311.9487678423516,-8.046525284548352
2025-02-19 14:53:46.902,869,52,575,-5,-8,22,-6,-8,7,0,99,l,-5.1674746461919385,56.40071829464266,1701.9281782967466,101.84150203847044,23.868006305374934
2025-02-19 14:53:47.013,696,-152,620,-30,51,13,-5,-7,7,420,63,l,13.775018319674604,47.47343524284284,1432.9640252596212,-312.94616643600915,-36.49094204161645
2025-02-19 14:53:47.119,752,-132,648,7,-7,-16,-5,-6,6,454,55,l,11.513831184487012,48.671645853501936,1502.9374243787415,-263.81348406648124,0.9156236736376968
2025-02-19 14:53:47.937,711,-137,686,1,-3,-4,-7,-7,7,569,65,m,11.293869738384656,45.465234862531226,1423.8250298929315,-274.35165836192914,-1.7608586590029063
2025-02-19 14:53:48.032,691,-121,667,-1,5,-3,-5,-7,4,548,64,m,10.282167048055907,45.54886199976628,1404.847927083639,-246.00086711594835,-22.054366663946553
2025-02-19 14:53:48.143,608,-142,650,7,-20,-25,-6,-8,7,576,78,m,12.323313456705874,42.42207454604955,1282.5868448120732,-299.5515328343986,-71.18659396027556
2025-02-19 14:53:48.246,765,29,639,-9,-5,26,-6,-8,4,0,93,m,-2.598494922069847,50.0991872975379,1532.1560532024332,58.0817327357785,-1.8009385573263899
2025-02-19 14:53:48.346,797,-133,603,6,6,-52,-6,-9,4,396,92,m,12.43822952786995,52.232476447242455,1587.5022939726728,-264.91569021124894,4.91608122268326
2025-02-19 14:53:48.459,780,14,661,-11,-9,31,-6,-7,5,146,95,m,-1.2133449324381589,49.714524273874794,1542.8322640702725,27.69186114997925,14.54855570455129
2025-02-19 14:53:48.566,848,-192,613,19,-4,-39,-6,-9,7,592,94,m,17.39127114444247,52.8558496552489,1645.1188787733736,-372.4797461373676,36.78081050934202
2025-02-19 14:53:48.676,776,-8,630,-12,-8,45,-6,-8,7,324,97,m,0.7275263513507163,50.92612513357249,1552.3338953779598,-16.003442220391335,-0.2710748558176874
2025-02-19 14:53:48.787,672,-132,605,-25,44,18,-5,-5,7,639,62,m,12.308015817427927,47.3401427439938,1407.3895490350012,-276.45151856044674,-57.06946006871408
2025-02-19 14:53:48.893,731,-126,658,7,-20,-10,-5,-6,6,559,60,m,10.840305454330567,47.49500982249583,1468.2184934660231,-253.07186070686578,-5.597494802521396
2025-02-19 14:53:49.609,723,-126,664,1,0,-3,-6,-8,5,505,72,n,10.744641326613108,46.930533751873725,1453.5262994248942,-253.31163724417243,-6.912120080400655
2025-02-19 14:53:49.704,718,-113,666,-1,-1,-4,-4,-8,6,506,77,n,9.629649392133613,46.74613233828778,1446.324716020078,-227.62492048783952,-9.576964999125153
2025-02-19 14:53:49.811,712,-91,648,-2,-3,-9,-5,-9,5,518,86,n,7.993890470150502,47.415661546470915,1448.2820806531379,-185.10346817336455,-22.099421718024473
2025-02-19 14:53:49.916,651,-221,670,-12,5,0,-5,-10,6,144,93,n,18.25517780522738,42.69896074579761,1329.146339576038,-451.2155776440927,-27.938629056751665
2025-02-19 14:53:50.024,751,-173,637,16,1,8,-5,-8,7,0,97,n,15.194214362974838,48.686886001102536,1502.1130510219084,-346.02604237921463,-0.095890147743944
2025-02-19 14:53:50.139,718,-237,729,10,-11,-15,-6,-9,6,469,92,n,18.0094929336651,43.12662437870311,1401.6129939468708,-462.6494144365019,34.913826480127
2025-02-19 14:53:50.241,782,-15,562,10,-6,23,-6,-6,9,226,100,n,1.5288838058805976,54.286659542219994,1593.9476361140732,-30.57444314796816,-21.52246994387383
2025-02-19 14:53:50.346,539,-171,636,-30,39,15,-5,-6,6,545,54,n,15.04910200576978,39.29753494396767,1172.3475788478117,-371.9321632337214,-111.3266422026129
2025-02-19 14:53:51.367,732,-122,663,0,-3,-1,-4,-7,5,640,74,o,10.426477236328298,47.35665240477508,1467.584780399306,-244.59746339988428,-3.2468707715023584
2025-02-19 14:53:51.462,727,-129,647,1,-3,0,-5,-9,5,651,76,o,11.2758683998452,47.77702267190404,1467.535156596853,-260.4016990385063,-12.045730836539292
2025-02-19 14:53:51.568,734,-128,659,6,-9,3,-5,-8,7,722,82,o,10.99190482845028,47.55398588519429,1471.9135717769022,-256.6824757322118,-3.51368365255928
2025-02-19 14:53:51.676,751,-97,642,-5,7,-16,-6,-6,6,667,97,o,8.591853159201193,49.15453205635165,1507.4762854177131,-194.70732314982448,-4.681458373065084
2025-02-19 14:53:51.785,855,-144,588,36,4,47,-5,-9,5,20,94,o,13.76078511179124,54.69990305671392,1671.1366123557204,-281.45458734412136,26.727101678171152
2025-02-19 14:53:51.896,634,-122,684,20,-3,-47,-5,-8,6,733,99,o,10.113074493424204,42.38043423752312,1308.0501753911967,-251.7068160847413,-43.208706573467566
2025-02-19 14:53:52.003,1030,-39,692,-21,50,37,-5,-8,7,672,76,o,3.22568507567072,56.0629642888592,1859.6515880142447,-70.41399216752966,134.60301077101224
2025-02-19 14:53:52.108,616,-138,696,8,-21,-8,-5,-5,4,563,47,o,11.21491468465357,40.9631075502374,1271.572939510981,-284.8653663190185,-44.7122823046152
2025-02-19 14:53:52.825,732,-98,662,-4,0,2,-5,-6,7,574,63,p,8.420695532015642,47.56558980613506,1470.0502408950324,-196.81000492856992,-5.471665946054031
2025-02-19 14:53:52.923,719,-107,659,5,-13,-9,-6,-6,8,515,72,p,9.22247424885876,47.12164070932486,1451.79995591143,-216.0536791133839,-12.648360146915707
2025-02-19 14:53:53.026,708,-84,642,1,-1,-15,-7,-9,5,594,83,p,7.454298812748468,47.5568187125588,1445.9469391556486,-171.55302667948376,-27.1552753360545
2025-02-19 14:53:53.136,730,-266,713,-12,-3,42,-7,-9,6,128,94,p,20.459113048966298,43.80881242078099,1422.2541765619865,-518.2460424184774,36.866811111374545
2025-02-19 14:53:53.241,965,14,578,12,-6,-25,-5,-7,8,0,101,p,-1.3875157474432052,59.072513477854415,1822.8184456903173,26.445034445248126,64.19786361761305
2025-02-19 14:53:53.346,804,-133,670,18,-18,-24,-5,-8,5,744,90,p,11.227681913935513,49.648986430492656,1566.0921551230088,-259.06748337233853,34.92320406415945
2025-02-19 14:53:53.457,732,-44,603,-26,12,35,-5,-8,7,284,99,p,4.173390118532176,50.44463467760968,1503.0095762882365,-90.34483791896503,-32.13493784399793
2025-02-19 14:53:53.566,526,-169,645,-26,49,22,-5,-7,5,381,47,p,14.682330729004953,38.26900371875769,1145.3543871786642,-367.9940901771754,-114.47448617916041
2025-02-19 14:53:53.674,811,-97,658,17,-30,-19,-5,-7,5,569,58,p,8.385939771378602,50.644392053941466,1584.2251227832521,-189.48191974103014,30.648420725795745
2025-02-19 14:53:53.780,708,-124,686,-5,-1,-3,-6,-7,6,502,62,p,10.246036348784934,45.4437652702717,1420.5621764684654,-248.79902525718887,-4.42041392283511
2025-02-19 14:53:53.886,724,-102,663,-3,0,-2,-5,-8,7,425,62,p,8.74616226255521,47.18428641526772,1457.5434975580476,-205.34452589906195,-8.739418343902685
2025-02-19 14:53:53.992,730,-96,666,-1,-3,0,-7,-7,6,468,62,p,8.202354244625583,47.33143881922857,1465.2865981044476,-192.69522386031093,-4.8231155309072165
2025-02-19 14:53:54.099,738,-92,671,-3,1,-3,-5,-8,6,434,62,p,7.807076742074449,47.45676356743963,1474.7673143355642,-183.8463318683901,1.120775177285168
2025-02-19 14:53:54.206,730,-96,664,0,-2,-1,-5,-9,5,422,64,p,8.226722464108173,47.41554950239563,1466.2807573885568,-192.82596261548147,-5.712908090413407
2025-02-19 14:53:55.926,750,-66,642,6,-1,0,-4,-9,5,722,93,q,5.869600443014707,49.28762715999103,1507.9934999607303,-132.70342799654424,-6.842435966384755
2025-02-19 14:53:56.025,751,-120,657,-2,2,-11,-5,-9,6,643,94,q,10.350885654930524,48.35310488884341,1498.2544336797387,-239.40150737891963,3.2767471004151503
2025-02-19 14:53:56.126,826,-49,617,8,9,19,-5,-9,6,37,91,q,4.540702039528656,53.15485341017035,1626.2591177991649,-96.47299851350978,19.227753411519757
2025-02-19 14:53:56.236,753,-6,641,24,-11,-13,-6,-7,8,521,96,q,0.5362942862440349,49.59228521375185,1514.4510323122072,-12.067338902886114,-7.194039458333236
2025-02-19 14:53:56.341,698,-146,641,-3,3,-7,-4,-9,9,662,92,q,12.831306951668463,46.71500369676462,1425.952323776912,-298.2650992427351,-27.506360373926327
2025-02-19 14:53:56.446,778,-78,584,35,3,18,-6,-6,8,0,99,q,7.607495719096624,52.86304985963078,1575.1947531938176,-157.92440970323622,-14.408400854999286
2025-02-19 14:53:56.556,927,-1,651,-42,76,35,-5,-4,4,709,67,q,0.08801188087272428,54.92092910099246,1745.3597017457043,-1.8828044247526474,76.29431948602644
2025-02-19 14:53:56.666,634,-161,702,2,-14,-9,-3,-5,6,329,38,q,12.917101475106001,41.35680632853172,1294.746189888343,-328.7920135205414,-29.614866406335523
2025-02-19 14:53:56.770,711,-132,684,2,0,-5,-3,-4,5,509,45,q,10.922804719869262,45.585286326416025,1425.2929810964822,-264.6113551402751,-3.1679311814256153
2025-02-19 14:53:56.876,744,-138,664,-7,2,-11,-4,-8,4,530,47,q,11.740719691028843,47.64945001960631,1483.0370327558473,-275.0794496240684,4.42931485230838
2025-02-19 14:53:56.986,706,-107,682,0,-6,-14,-4,-8,5,619,51,q,8.91653467305499,45.642436441947,1420.9906932116382,-215.36261214397354,-8.685060581214316
2025-02-19 14:53:57.093,735,-71,662,-5,2,0,-6,-6,6,655,58,q,6.121615442043662,47.828281253173245,1476.1360679719305,-142.5927358176967,-5.526635370636882
2025-02-19 14:53:57.200,747,-106,663,0,-1,-1,-5,-6,5,669,60,q,9.0835358443768,48.05009473517724,1490.7295743391628,-211.5359235340713,2.9026669519879533
2025-02-19 14:53:58.022,715,-119,671,-1,-1,-1,-5,-7,4,629,58,r,10.05668412455652,46.37541869014687,1438.875930919296,-239.47725283831642,-8.32971978580099
2025-02-19 14:53:58.117,719,-111,670,-1,-2,-2,-5,-7,8,634,58,r,9.406843378099127,46.63333491894803,1445.974298302141,-223.2310808227227,-7.4308482092272925
2025-02-19 14:53:58.222,729,-108,667,-1,-1,-2,-5,-8,7,655,60,r,9.197453094666418,47.17353832522032,1462.4159908135807,-216.6542208612712,-4.040419578406386
2025-02-19 14:53:58.329,725,-105,679,-4,0,-4,-6,-8,5,693,60,r,8.790543182813947,46.53864297611772,1450.8384647911162,-210.12143283181686,-0.7852656457489502
2025-02-19 14:53:58.437,726,-157,654,5,-2,3,-5,-8,7,746,61,r,13.499046707782234,47.18736352700842,1459.5799971980225,-315.6392004959911,-6.828261938714377
2025-02-19 14:53:58.541,711,-132,688,-1,-1,2,-6,-8,6,782,62,r,10.860814621637326,45.424232090236934,1423.3229437239215,-264.2456098052851,-1.2801480760309687
2025-02-19 14:53:58.646,733,-98,657,-7,2,-1,-5,-6,8,750,65,r,8.483850809159827,47.816092266909294,1473.9932285533114,-197.06867175746865,-7.164462700580657
2025-02-19 14:53:58.756,721,-115,674,-3,-1,-7,-5,-8,5,747,67,r,9.682742489270714,46.51936584750053,1446.6069919066776,-230.73481840397773,-4.306674819834598
2025-02-19 14:53:58.866,589,-133,643,4,-25,-28,-5,-9,7,768,83,r,11.686422619539858,41.893069329221625,1256.742516409617,-283.7805682215263,-85.96169448452235
2025-02-19 14:53:58.973,730,-237,704,15,-2,-9,-8,-9,6,751,91,r,18.6056892526294,44.50119828831238,1430.9241811209754,-464.56031633653583,28.040241768264877
2025-02-19 14:53:59.080,843,64,590,13,-4,-44,-5,-9,6,674,95,r,-6.190928794932634,54.854952797396145,1660.6973828223008,126.07904211225062,17.708830527689543
2025-02-19 14:53:59.186,791,6,630,-11,-14,23,-5,-7,7,793,88,r,-0.5456575934157205,51.462808079867344,1573.20390439072,11.93327866794478,7.005739865798091
2025-02-19 14:53:59.293,544,-187,701,-5,18,0,-6,-8,6,801,53,r,14.936504257899829,36.863063259841326,1143.9045697012498,-393.2171958348046,-72.03879294223543
2025-02-19 14:54:00.206,743,-83,648,7,-10,-5,-7,-8,6,770,68,s,7.299067925191633,48.67596186271638,1493.9871672304703,-166.8922407538749,-6.965927813384496
2025-02-19 14:54:00.308,730,-101,651,5,-5,1,-6,-9,6,794,77,s,8.818897777394108,47.93533630241205,1472.3891752816508,-203.71411877184482,-11.048428915554268
2025-02-19 14:54:00.415,755,-58,698,-1,-3,-5,-6,-9,6,815,90,s,4.750054833140427,47.14824168141738,1488.1157898162396,-114.31882888654556,20.232024779158564
2025-02-19 14:54:00.524,727,-125,678,-2,-1,-14,-5,-9,7,788,92,s,10.446078643896808,46.51952389609255,1452.6088900317836,-249.76081327919246,1.2973487736601328
2025-02-19 14:54:00.631,727,36,672,23,-12,26,-6,-8,6,803,90,s,-3.0664855011258934,47.21043018283232,1460.8535385408964,72.33937742430848,-6.335045253758267
2025-02-19 14:54:00.728,795,-73,559,4,20,9,-5,-8,7,709,95,s,7.440171473629877,54.658975952829486,1610.7236321414034,-147.9029247123553,-14.571711153515139
2025-02-19 14:54:00.846,541,-114,685,-25,45,14,-4,-5,5,718,41,s,9.448757866538244,37.920941135210754,1155.573562792913,-243.50348642956018,-93.15691407235738
2025-02-19 14:54:00.956,799,-78,698,14,-21,-25,-5,-6,5,720,46,s,6.376226822613406,48.68357253001625,1550.074871279462,-151.3214517644531,41.86700856938137
2025-02-19 14:54:01.872,712,-88,672,-2,-10,-15,-5,-7,5,774,61,t,7.4605661261683505,46.41228412075185,1436.3196980867142,-177.52265931408823,-11.627580216673891
2025-02-19 14:54:01.967,718,-77,684,-4,-1,-11,-5,-8,5,793,66,t,6.422922639098697,46.20901486757028,1439.8691203625074,-154.41493352077026,-3.685902963725539
2025-02-19 14:54:02.074,638,-43,651,8,-24,-25,-7,-8,6,819,85,t,3.7790244025820945,44.35982845985604,1337.1622334695908,-90.12221949716677,-62.40848587571088
2025-02-19 14:54:02.184,738,-136,671,2,0,-19,-5,-11,5,796,87,t,11.457643981666541,47.14787331313431,1471.111417250658,-271.09912296218084,4.444768326299027
2025-02-19 14:54:02.287,824,155,554,2,0,19,-5,-9,8,577,92,t,-15.630737429004682,55.079221981944094,1643.944336207353,309.2371020778394,2.726744831464316
2025-02-19 14:54:02.396,480,-138,649,-18,7,-42,-6,-9,7,562,72,t,12.004290131908524,35.88294934508544,1066.1312704280576,-306.5127402480666,-143.4983218912697
2025-02-19 14:54:02.504,915,131,642,25,-41,4,-4,-10,5,642,83,t,-11.532872125217734,54.393653715477555,1728.036278046729,247.40191521761912,71.54175900983603
2025-02-19 14:54:02.606,756,36,637,-11,3,9,-6,-9,7,823,85,t,-3.2346252322357705,49.8377384955797,1520.221000731186,72.39147622529457,-6.926954319795527
2025-02-19 14:54:02.716,531,-161,711,-6,-2,7,-4,-6,4,696,43,t,12.758978476148695,36.06938424565001,1119.7645273252965,-339.5142917125663,-77.34572302878689
2025-02-19 14:54:03.536,719,-61,660,0,2,-3,-6,-7,5,712,60,u,5.280517297348299,47.32846902320864,1454.251467164494,-123.37877537835065,-14.917897536253008
2025-02-19 14:54:03.626,718,-69,678,7,1,-7,-6,-8,4,725,63,u,5.810979858278597,46.49389313407765,1443.300998676636,-138.7016280065291,-6.894257803285996
2025-02-19 14:54:03.737,719,-40,691,1,1,-3,-6,-11,4,707,64,u,3.312990451189455,46.08975707980043,1439.42713886181,-80.07939576421751,-1.3715618268574872
2025-02-19 14:54:03.846,658,-41,702,-2,-1,-3,-5,-9,5,672,61,u,3.342537583603707,43.09828691992046,1341.2519423354588,-83.5734492944587,-26.94052206609763
2025-02-19 14:54:03.954,771,-121,557,1,3,3,-5,-10,5,558,84,u,12.256232317771854,53.52491911444902,1575.115485261549,-247.19711247295393,-23.923897912688744
2025-02-19 14:54:04.060,691,54,701,-2,-16,-9,-5,-10,5,784,87,u,-4.404955576364117,44.503662281300635,1391.954853028471,108.77794799354189,-10.098917471719574
2025-02-19 14:54:04.166,736,-95,639,-9,4,-29,-4,-6,7,769,86,u,8.456213164328659,48.72499123839793,1487.5519411571563,-192.00738370914382,-13.502296738346217
2025-02-19 14:54:04.277,888,-12,617,-9,21,-17,-6,-9,5,775,85,u,1.1142020788851044,55.20258415022164,1709.1749485817388,-23.096958764618094,46.43137018588641
2025-02-19 14:54:04.381,526,-162,724,-11,2,1,-4,-7,4,747,39,u,12.612573408993052,35.33616809099118,1104.3726979250728,-340.12999441798814,-72.0871355470581
2025-02-19 14:54:05.296,706,-93,688,8,-3,0,-5,-9,5,702,53,v,7.698262122058415,45.480482866955974,1419.0116512853022,-186.92363111831884,-6.832883972079003
2025-02-19 14:54:05.395,723,-97,694,6,-5,3,-5,-8,6,708,57,v,7.956654510087992,45.89549305032062,1441.0715542676894,-193.33878390590024,4.730762570157026
2025-02-19 14:54:05.502,705,-78,674,13,-9,-9,-6,-8,5,723,68,v,6.601303516761337,46.097397395068306,1425.5196138348574,-157.71706365832466,-14.837191098856579
2025-02-19 14:54:05.606,631,-25,655,13,-5,-34,-5,-9,5,522,77,v,2.185800806775599,43.910003502521015,1324.527621647605,-52.4773225692395,-64.90585131407465
2025-02-19 14:54:05.722,707,-217,736,-24,-31,62,-5,-10,4,674,86,v,16.4274650189145,42.656998276983934,1384.607909606993,-424.97866532491867,30.59770654774138
2025-02-19 14:54:05.826,712,-167,650,31,0,-58,-5,-7,6,754,87,v,14.408961026183032,46.6933765713792,1439.6934717559843,-337.68091261692325,-14.326905395210247
2025-02-19 14:54:05.932,783,-22,620,-50,57,41,-4,-8,5,757,56,v,2.032223405812395,51.6093470509438,1566.7947789670275,-44.02233095437369,-0.6293268959859688
2025-02-19 14:54:06.043,696,-109,688,11,-20,-15,-5,-8,5,697,49,v,9.002559477058012,44.97609822037034,1402.8117396427247,-219.69321784634627,-10.687466773268056
2025-02-19 14:54:06.856,729,-75,686,1,-4,0,-5,-8,5,685,62,w,6.239335141064495,46.57069465506814,1455.223148030033,-149.7143156409499,2.6130596041116405
2025-02-19 14:54:06.952,713,-76,675,2,-4,-1,-6,-7,5,707,64,w,6.424025536777573,46.38802053230185,1437.0276591599536,-153.17545876038776,-10.439929779759723
2025-02-19 14:54:07.062,714,-65,673,6,-2,-5,-5,-10,5,688,71,w,5.516656728952406,46.560399362606034,1440.0996090245158,-131.1015050232402,-11.404813548317975
2025-02-19 14:54:07.169,734,-40,662,6,0,-10,-7,-9,5,408,78,w,3.4577766859211696,47.900538700891495,1475.982144363778,-80.43499424325765,-7.199154725914013
2025-02-19 14:54:07.276,736,-124,610,5,6,-14,-6,-10,4,0,84,w,11.490447880247018,49.776960613705896,1499.5364198676289,-252.63928812987223,-22.822304509855257
2025-02-19 14:54:07.382,718,116,648,17,-1,14,-5,-7,6,523,90,w,-10.149151798968262,47.48373523221937,1455.0855247806148,235.08345525703527,-17.22481902205925
2025-02-19 14:54:07.492,668,-213,705,2,1,-14,-4,-9,7,769,84,w,16.811018925426225,42.20879925316422,1339.8343511628973,-427.2226299366722,-4.046732888985616
2025-02-19 14:54:07.596,771,119,614,8,-11,17,-3,-7,6,563,88,w,-10.968569372760488,50.951472398810175,1547.612669539143,238.86628751641769,-4.469752395634146
2025-02-19 14:54:07.701,807,-67,682,-8,0,0,-5,-9,6,804,85,w,5.610760313576685,49.66296091740799,1569.250050560886,-130.28470060418755,37.81842071558333
2025-02-19 14:54:07.812,565,-153,697,-9,10,13,-3,-6,5,672,42,w,12.380756928807175,38.37096627687932,1185.7505763768886,-321.09705873568834,-68.77548979591359
2025-02-19 14:54:09.130,742,-76,658,-1,-1,-1,-6,-8,7,720,66,x,6.588554689702572,48.245092262693525,1488.000335448472,-152.40973786264675,-3.5474672844940187
2025-02-19 14:54:09.224,742,-70,662,-1,0,-1,-5,-5,7,726,65,x,6.036036516668448,48.10290501669568,1486.3454057915656,-140.22126469731745,-2.0925318517737423
2025-02-19 14:54:09.332,734,-67,663,-5,1,-2,-6,-8,4,736,63,x,5.770481193424753,47.76462615871585,1474.3897415524073,-134.58325978748132,-5.7716602850763365
2025-02-19 14:54:09.437,741,-73,663,-3,0,-2,-5,-7,7,742,65,x,6.283275427366905,48.00822767302585,1484.2409049593055,-146.2207639163688,-2.005020226746865
2025-02-19 14:54:09.549,745,-77,653,-1,-1,0,-4,-7,8,749,65,x,6.725108894337875,48.56893214450412,1494.7523720288514,-154.4911847600289,-4.165501925959347
2025-02-19 14:54:09.654,740,-75,680,-1,1,1,-6,-8,5,783,63,x,6.293948188951083,47.24688709165988,1474.2856287681138,-149.4208407535251,5.251043834705911
2025-02-19 14:54:09.761,749,-60,657,-1,-2,1,-5,-8,5,783,64,x,5.218017123575092,48.62576170525692,1499.4083371884653,-120.11281739827491,-1.2353505111103686
2025-02-19 14:54:09.868,740,-74,652,1,-4,1,-5,-8,7,796,65,x,6.475186600991232,48.435384292765356,1488.2079703816912,-148.8207970381691,-7.231887417381813
2025-02-19 14:54:09.974,761,-46,641,-4,0,-2,-4,-7,7,796,69,x,4.104673025230004,49.8196144229349,1525.0169474456357,-92.18236476018296,-2.5412132886364134
2025-02-19 14:54:10.082,753,-55,645,0,-6,-8,-4,-9,8,800,74,x,4.873896422204769,49.31493696203725,1511.3043119439837,-110.38743314331884,-4.543534135284631
2025-02-19 14:54:10.191,818,-66,661,-6,-4,-8,-5,-9,8,811,90,x,5.702010785929156,50.920411511291746,1594.2710348605524,-128.63311528214726,33.719860583343234
2025-02-19 14:54:10.298,835,18,572,-14,12,22,-5,-9,7,119,93,x,-1.8024192380032578,55.574467614951566,1659.8616534002895,35.78144881581463,6.9450709641131425
2025-02-19 14:54:10.409,557,-259,619,16,19,-53,-6,-10,5,431,82,x,22.705253527913065,39.69618081025004,1195.7165298950263,-555.9974528596263,-90.81244525138482
2025-02-19 14:54:10.515,685,71,628,-17,-30,55,-5,-8,5,476,90,x,-6.450318043047799,47.3044734489174,1419.9675411840583,147.17911740739873,-45.80965819501978
2025-02-19 14:54:10.618,909,1,622,-27,75,14,-5,-6,7,669,66,x,-0.09211532178133783,55.61736120149118,1734.284651120814,1.9079039066235577,57.28377008014695
2025-02-19 14:54:10.728,643,-170,702,9,-17,-13,-6,-7,5,498,44,x,13.612978115611167,41.67621660951097,1307.9203689833284,-345.79543192405265,-23.931724768734853
2025-02-19 14:54:11.939,732,-64,673,-2,-1,1,-4,-8,4,558,63,y,5.432296720839676,47.2760779802465,1466.6313872278001,-128.23006664286777,-2.4192945414062024
2025-02-19 14:54:12.036,731,-71,663,-8,-2,0,-5,-7,5,640,65,y,6.112452185369452,47.630100631438985,1469.80948691897,-142.75851377735552,-7.08302301953097
2025-02-19 14:54:12.151,722,-89,670,-15,-1,-3,-5,-8,7,678,67,y,7.56663409260937,46.889437684782344,1452.0363046231714,-178.99062480811943,-7.457512600449718
2025-02-19 14:54:12.256,744,-104,663,-14,-1,0,-7,-8,5,690,70,y,8.914926957147866,47.94872091202603,1486.5456634454981,-207.7967056429191,1.2960015263906826
2025-02-19 14:54:12.363,735,-113,649,2,-4,0,-4,-9,7,719,73,y,9.87698369946378,48.130840693483876,1479.6709137148832,-227.48682074800243,-8.539351021713173
2025-02-19 14:54:12.469,727,-120,660,1,-5,1,-6,-7,7,764,72,y,10.304846468766033,47.30152808654024,1461.932681502862,-241.30938346677232,-7.201609067247659
2025-02-19 14:54:12.576,719,-103,654,0,0,1,-6,-6,8,773,71,y,8.950131217735402,47.3608713778046,1454.634661140126,-208.3829903997677,-15.13083224706861
2025-02-19 14:54:12.685,711,-142,654,2,-7,-5,-6,-8,7,771,72,y,12.250224266673118,46.73305947965674,1439.1683514620495,-287.4288409389747,-15.791985733024262
2025-02-19 14:54:12.793,714,-108,660,-4,0,3,-6,-7,7,740,78,y,9.293308599397115,46.873118598203334,1443.8416254191525,-218.39621224827516,-14.643519295014926
2025-02-19 14:54:12.903,615,-110,645,-5,-9,-26,-6,-7,7,740,85,y,9.678260053133947,43.226026294982844,1299.8781653117337,-232.49853363299303,-73.28685630254995
2025-02-19 14:54:13.009,826,-125,721,14,-11,38,-6,-9,7,665,93,y,9.835621263291081,48.46218831253109,1574.5182692863186,-238.2745564900603,67.63235816533222
2025-02-19 14:54:13.116,661,-233,646,5,10,-32,-4,-8,8,803,93,y,19.833416470615035,43.9060688185324,1354.4781457830486,-477.448423551362,-31.74112280763893
2025-02-19 14:54:13.223,655,-24,733,-2,-14,53,-5,-9,9,720,96,y,1.8753173713498372,41.76834064840583,1321.1204483547458,-48.40746680994489,-12.444715487066674
2025-02-19 14:54:13.329,1024,-114,509,61,28,-38,-4,-9,7,0,92,y,12.624121872861068,63.00639927226113,1915.0572240901483,-213.19973002566104,66.0819071661274
2025-02-19 14:54:13.440,379,-240,765,14,-29,-25,-4,-5,7,591,46,y,17.41797079220284,25.300469871522285,806.3652775776286,-510.62708870351156,-97.62384524244283
2025-02-19 14:54:14.145,740,-105,661,0,-1,0,-6,-7,7,627,70,z,9.026032639056377,47.87246000319729,1481.6535055901545,-210.23461903644085,-1.4769826960703085
2025-02-19 14:54:14.251,746,-103,654,0,-2,0,-7,-8,7,650,72,z,8.950131217735402,48.41153891330572,1493.9317847800132,-206.26672095488115,-1.6935485873036669
2025-02-19 14:54:14.357,738,-114,651,0,-2,-2,-6,-8,8,684,74,z,9.932650132101564,48.154382997986666,1482.9450923898696,-229.07281914965466,-6.126361986185657
2025-02-19 14:54:14.464,727,-105,647,-1,-1,-2,-5,-8,8,700,73,z,9.218022647198083,47.96211347069984,1469.702203989004,-212.26785614696757,-13.974313591314399
2025-02-19 14:54:14.571,782,-84,642,14,2,-5,-4,-6,7,799,75,z,7.454298812748468,50.376286319081586,1552.2493585950915,-166.73778276469014,9.646946012725493
2025-02-19 14:54:14.681,756,-57,652,17,-12,1,-4,-8,7,830,76,z,4.99628410520489,49.116497535968485,1512.0419614933267,-114.00316376338574,-0.036189012763315986
2025-02-19 14:54:14.785,732,-77,652,10,-7,-1,-4,-10,6,841,80,z,6.735328788417398,48.11105960035374,1476.4404417049086,-155.30862569846718,-11.080830589618245
2025-02-19 14:54:14.887,709,-31,659,-22,9,-9,-5,-6,7,815,74,z,2.693263684225309,47.06163367255105,1441.0869111415072,-63.00944181295729,-21.4587791851244
2025-02-19 14:54:15.005,761,-115,665,26,15,-24,-6,-10,7,592,91,z,9.811256867996049,48.43273260405122,1509.1772639905205,-228.06226722589997,11.205150389361052
2025-02-19 14:54:15.110,599,-71,788,21,-14,-2,-4,-9,5,837,85,z,5.148534598224064,37.12883112802676,1202.609254086154,-142.54633896513678,-6.0635930215179314
2025-02-19 14:54:15.214,775,-41,501,34,14,-4,-7,-8,7,186,91,z,4.6784506060384565,57.03204571606956,1613.975055138967,-85.38448678799698,-41.35677758015811
2025-02-19 14:54:15.319,771,-62,703,-50,-9,-1,-5,-7,7,768,92,z,5.04007246656878,47.53082194421241,1508.640660088935,-121.3174071666848,30.417141319686948
2025-02-19 14:54:15.430,728,198,595,45,-14,-17,-5,-9,6,715,89,z,-18.406055340997543,49.25926942406828,1485.6705792280914,404.0697454493984,-24.249992638343656
2025-02-19 14:54:15.537,749,-21,681,-22,-2,6,-5,-6,7,832,87,z,1.7662704860090483,47.708950373825694,1488.736219588961,-41.74026783894284,8.422742937139446
2025-02-19 14:54:15.643,576,-153,700,0,0,0,-4,-6,4,726,49,z,12.329322755475292,38.79507448683748,1202.536812152769,-319.42384072807926,-61.41626476899012
2025-02-19 14:54:16.556,785,-83,671,3,0,9,-5,-7,5,288,50,0,7.051438980322633,49.26195617366766,1542.7011822668624,-163.11362818872556,23.334403438134245
2025-02-19 14:54:16.659,645,-134,675,2,-20,10,-6,-6,5,260,47,0,11.228291350144337,43.145234595203966,1328.850018409472,-276.0711666153012,-40.65699600991263
2025-02-19 14:54:16.766,715,-140,649,-10,-3,6,-3,-4,7,0,47,0,12.173112291543019,47.12110119146083,1447.7935485698713,-283.4840514682266,-16.15106716342177
2025-02-19 14:54:16.869,673,-132,574,4,-9,1,-4,-5,8,173,49,0,12.950868432248635,48.808907580077175,1425.5173040137315,-279.5962617084881,-67.82010773236505
2025-02-19 14:54:16.979,677,-109,628,-3,17,-5,-4,-6,5,395,54,0,9.846554329725278,46.726158903820036,1405.085798337279,-226.22503990954715,-47.38830333206988
2025-02-19 14:54:17.086,909,-230,795,-32,12,-15,-5,-7,5,658,63,0,16.135588661305526,47.68360482043216,1648.438482260269,-417.0966456764156,148.29637690108495
2025-02-19 14:54:17.196,654,-132,686,-4,-14,-12,-5,-8,7,743,63,0,10.891722532523117,43.112083141389384,1337.427742846921,-269.93954442781893,-30.86763240518019
2025-02-19 14:54:17.303,840,-90,602,-12,15,-2,-5,-9,7,743,73,0,8.502839155857531,54.07173259064096,1649.7522495808873,-176.75916959795222,21.677554467030745
2025-02-19 14:54:17.406,673,-139,665,19,-30,-17,-4,-8,6,793,78,0,11.806130630189536,44.7300500075832,1376.767400169722,-284.35463391321156,-30.401665843781757
2025-02-19 14:54:17.515,711,-99,683,2,-3,-5,-6,-8,7,824,90,0,8.247511574065031,45.85304628712756,1428.5557583196505,-198.91282710779944,-6.297584996232558
2025-02-19 14:54:17.626,704,-156,688,3,7,-29,-7,-10,6,759,92,0,12.775466982759532,44.940471634831,1410.3717397922612,-312.52555597669425,-2.317836615164424
2025-02-19 14:54:17.732,859,268,583,-4,-20,49,-5,-8,6,581,93,0,-24.687828030216423,53.24131089476027,1660.1630654603657,517.9554150679604,39.25370528126507
2025-02-19 14:54:17.838,630,-84,521,7,19,-36,-7,-8,8,735,89,0,9.158889452369255,50.04831280771521,1396.5861805232712,-186.2114907364362,-112.95460325813383
2025-02-19 14:54:17.946,674,-24,697,-56,58,57,-5,-7,3,654,40,0,1.9721027720883584,44.02192839253399,1368.9336272108653,-48.74541105795366,-21.647979474737667
2025-02-19 14:54:18.856,744,-91,667,0,0,-5,-5,-8,7,740,69,1,7.768999281249151,47.86087368425951,1485.5178450451656,-181.69640309020167,2.225265261928371
2025-02-19 14:54:18.961,747,-95,660,-2,1,-4,-5,-10,7,769,76,1,8.190861376463381,48.24662415158204,1493.018140238762,-189.87513162340343,0.8675066163550582
2025-02-19 14:54:19.067,923,-80,628,5,9,-10,-6,-9,7,731,91,1,7.259724046259812,55.554224013753874,1747.6618593022108,-151.47665086043,66.90829074562453
2025-02-19 14:54:19.176,707,-29,629,25,-22,-10,-5,-9,6,812,87,1,2.6397484679655547,48.3111091098997,1453.767150126021,-59.63118437574909,-35.37982663262699
2025-02-19 14:54:19.280,334,-188,617,34,8,70,-5,-9,9,804,89,1,16.945987229855277,27.376226991418815,793.8313752428737,-446.82724115467147,-232.44897761932054
2025-02-19 14:54:19.387,770,-118,696,2,5,30,-5,-8,8,776,91,1,9.622440411168897,47.485563346169094,1507.1070868740073,-230.95926785861417,29.73177602037765
2025-02-19 14:54:19.497,907,-116,342,10,3,-17,-6,-8,5,305,90,1,18.735974667018382,68.2892054076894,1836.0628943203387,-234.82171526037413,-8.319194991792756
2025-02-19 14:54:19.604,678,-104,712,13,-5,6,-4,-7,7,686,91,1,8.310277167524193,43.29684838716596,1363.7783200064948,-209.1931346322647,-8.168383251658497
2025-02-19 14:54:19.711,592,-121,581,-30,51,13,-5,-6,6,644,50,1,11.764350807103273,44.92914118063869,1298.2317477705817,-265.34804304094666,-112.1091984032231
2025-02-19 14:54:20.530,695,-38,666,7,-9,-12,-3,-7,5,250,56,2,3.2655879163954533,46.1741505334995,1416.4478885161427,-77.44607160232147,-25.344307556476224
2025-02-19 14:54:20.624,719,-46,678,-6,-1,-5,-4,-7,4,288,60,2,3.881376032209462,46.615393319167566,1445.7592404958114,-92.49641872434954,-7.316780328456275
2025-02-19 14:54:20.734,711,-65,683,-23,-3,-8,-5,-8,6,391,60,2,5.436373226374682,46.021637707181185,1430.6020862374023,-130.7864073212815,-8.263326160542533
2025-02-19 14:54:20.840,704,-51,701,-17,2,-8,-7,-7,6,442,61,2,4.161120551136733,45.04672279057711,1411.683167928823,-102.2668204039346,-3.667472610944401
2025-02-19 14:54:20.951,604,-48,657,-17,-14,-21,-7,-9,5,272,69,2,4.1785689688894685,42.5172915254924,1279.812682761341,-101.70696816646421,-78.11412677847886
2025-02-19 14:54:21.054,855,1,562,13,-32,-3,-5,-11,8,710,90,2,-0.10194967801558666,56.68264207739195,1690.6409949600954,1.9773578888422167,12.724866470674215
2025-02-19 14:54:21.161,651,53,690,-26,5,36,-5,-8,6,658,93,2,-4.392355384999023,43.25003583659005,1336.1834458978583,108.78298407463362,-36.231302103720736
2025-02-19 14:54:21.268,1087,-78,726,30,-51,18,-5,-8,6,206,92,2,6.132222497679305,56.109283567962095,1917.1026449855985,-137.56578317283962,171.58001816049273
2025-02-19 14:54:21.377,738,-79,654,-13,-1,20,-4,-7,8,582,96,2,6.8876787590565165,48.24723695987844,1484.0252626185388,-158.85907282772973,-7.111818092851308
2025-02-19 14:54:21.484,546,-224,734,-3,19,1,-4,-3,6,463,45,2,16.970989528061875,35.43092630520244,1125.7210660838966,-461.83428352159865,-45.33198261095265
2025-02-19 14:54:22.300,747,-56,668,-5,-4,-8,-6,-5,7,531,68,3,4.792034046931942,48.09581780349689,1491.2627970805543,-111.79480138756497,2.4477263054750438
2025-02-19 14:54:22.396,739,-81,646,-3,-2,-1,-6,-7,6,595,73,3,7.1468474697782876,48.61997610116313,1489.3415895821736,-163.2431241625928,-9.914298876974613
2025-02-19 14:54:22.504,694,-79,661,-7,2,-10,-6,-9,7,516,76,3,6.815427857130318,46.192170724476426,1415.665642323901,-161.14925899652474,-26.350129072187997
2025-02-19 14:54:22.606,750,-157,582,83,12,-10,-4,-9,8,335,90,3,15.096728329474772,51.209801005967506,1529.4451402664445,-320.1638493624423,-22.849428846760816
2025-02-19 14:54:22.721,581,-128,741,-20,-7,40,-6,-10,6,743,93,3,9.800531232774985,37.69085922938293,1192.4008033365653,-262.69759522733284,-38.77279737073161
2025-02-19 14:54:22.828,847,-13,669,12,-25,36,-5,-8,8,661,92,3,1.113230797002376,51.691418708506724,1631.6835363161517,-25.04354896353007,49.22044179987563
2025-02-19 14:54:22.934,799,-28,618,-41,7,31,-5,-8,7,30,95,3,2.5941511955853165,52.250803421220915,1589.698158388382,-55.70907188344768,6.421199143904801
2025-02-19 14:54:23.041,733,-37,609,-40,50,25,-4,-5,5,373,54,3,3.4767507668875934,50.22721564211344,1501.5874906569788,-75.79636719550916,-29.56723302878595
2025-02-19 14:54:23.151,655,-139,679,16,-31,-32,-5,-6,5,415,48,3,11.569334344033084,43.3819001256181,1341.8579498406134,-284.7606946990004,-33.025264033246344
2025-02-19 14:54:23.258,728,-105,668,-16,9,-4,-4,-8,6,304,58,3,8.932981659616733,47.112565090789495,1460.6921647585345,-210.67675453248094,-4.305447882831118
2025-02-19 14:54:23.364,765,-107,661,1,-6,-10,-6,-7,6,340,64,3,9.195047001942896,48.80434697250991,1517.4648808295024,-212.2467218937997,10.830998394377616
2025-02-19 14:54:23.470,725,-94,670,-6,-3,-8,-5,-9,6,354,67,3,7.9863841450902004,46.97935941935178,1456.1079669240999,-188.79192950464198,-5.644603916064966
2025-02-19 14:54:23.577,748,-71,658,-3,0,-5,-7,-9,8,411,70,3,6.158543796059651,48.49806810139734,1496.9333781461537,-142.0885960539798,-0.82107328899599
2025-02-19 14:54:23.684,759,-76,651,0,-3,-3,-6,-9,6,428,74,3,6.658766512419261,49.188321816288195,1515.8618579398753,-151.78590408884128,1.8339005021621233
2025-02-19 14:54:25.306,733,-63,643,-1,-4,-1,-6,-9,8,559,88,4,5.595878192419846,48.60648728447099,1483.1859415099616,-127.47710002063788,-15.075798623335913
2025-02-19 14:54:25.400,766,-48,654,-2,0,-5,-5,-11,7,563,90,4,4.197668357160927,49.43375060753973,1525.654520139446,-95.60237201918201,5.417681238645287
2025-02-19 14:54:25.502,680,-93,670,-4,1,0,-5,-9,7,597,75,4,7.902501667417543,45.1510644147115,1388.968658828135,-189.9618901044361,-28.542649139485775
2025-02-19 14:54:25.606,751,-65,658,-2,0,1,-6,-9,8,626,79,4,5.641614053278129,48.63835116893699,1501.5535534140881,-129.96135948324329,0.3911609234754678
2025-02-19 14:54:25.716,745,-56,654,3,-1,3,-6,-9,7,697,77,4,4.894122744414065,48.61786267659253,1495.3172054267511,-112.39968255556786,-4.667721273953134
2025-02-19 14:54:25.826,718,-77,663,2,-5,-3,-5,-11,6,736,76,4,6.624582756739203,47.08931388155395,1450.4159261927146,-155.54599765576467,-13.311642152882655
2025-02-19 14:54:25.932,753,-41,642,-1,-3,-7,-5,-9,7,751,82,4,3.654113917365856,49.49185715036207,1513.3136586652918,-82.39822045853515,-6.235549619013682
2025-02-19 14:54:26.038,752,-62,641,6,0,0,-7,-9,7,780,92,4,5.524683504128347,49.42418845341941,1511.5459758152065,-124.62214162306222,-6.432141619078834
2025-02-19 14:54:26.149,759,-29,662,-8,-6,-7,-5,-11,7,749,94,4,2.5083322656443108,48.8778457602141,1512.3091523524806,-57.78256313336223,4.963558817731155
2025-02-19 14:54:26.252,856,156,526,2,3,7,-6,-11,7,56,92,4,-16.519195240197202,57.34251942026124,1697.9114646286216,309.4324631799825,8.657207482879699
2025-02-19 14:54:26.358,707,6,669,15,-9,5,-6,-8,7,799,88,4,-0.513849716354135,46.58074381052821,1433.3437108856067,12.164161619962716,-18.304020625842895
2025-02-19 14:54:26.467,484,-290,627,-4,0,-32,-5,-9,5,803,71,4,24.82148230739757,35.01581834769472,1057.8025678278395,-633.807323698499,-116.33514468606495
2025-02-19 14:54:26.575,716,-8,659,-6,-9,73,-5,-10,7,603,92,4,0.6955139933457052,47.37170780806768,1451.7627615195106,-16.220812977871624,-18.189469052175127
2025-02-19 14:54:26.685,971,-63,675,-15,75,5,-4,-7,8,655,70,4,5.332158881659557,55.07799158277636,1790.9320430760167,-116.19847447352116,105.0163449265591
2025-02-19 14:54:26.793,540,-210,736,2,-22,-17,-5,-6,5,555,41,4,15.924830295376374,35.20443160448933,1116.4955174079296,-434.1927012141948,-49.742038541178204
2025-02-19 14:54:27.606,713,-95,666,2,-2,-3,-6,-8,7,517,64,5,8.118057834780512,46.6640903294454,1440.3427835932694,-191.91103007203446,-13.397326610262667
2025-02-19 14:54:27.706,705,-94,674,8,-2,-2,-6,-9,7,564,66,5,7.939593398661517,46.012082660235016,1424.4862754304188,-189.9315033907225,-13.84929026964869
2025-02-19 14:54:27.806,730,-76,669,10,3,-6,-5,-10,6,450,69,5,6.481152047489013,47.3136342326888,1465.07595074264,-152.52845514580912,-4.651795954556746
2025-02-19 14:54:27.916,690,-66,689,4,10,-8,-5,-9,6,14,71,5,5.471724825350898,44.91071298211821,1396.004001462887,-133.53081753123263,-15.98080725786815
2025-02-19 14:54:28.029,816,353,706,-11,-50,23,-4,-11,6,346,81,5,-26.56505117707799,45.9517181162374,1534.7541717885538,663.9316453938229,84.13670921235428
2025-02-19 14:54:28.136,674,-31,696,-14,23,18,-6,-9,6,711,84,5,2.550281638688108,44.0516278053745,1369.3062676088682,-62.979961863315886,-22.0017244150921
2025-02-19 14:54:28.243,935,120,728,-4,-1,-15,-5,-11,5,245,84,5,-9.360190801913326,51.72245015448916,1720.0191577520332,220.7511218505283,116.77652744012812
2025-02-19 14:54:28.348,783,127,558,4,-2,10,-4,-9,6,256,85,5,-12.822017061392371,53.83810676046928,1590.3529386390073,257.94996578180576,-17.354967765729157
2025-02-19 14:54:28.460,619,-81,829,-8,-15,28,-4,-8,7,730,88,5,5.5805467940124,36.61765814445903,1215.4722691800912,-159.0521063062801,30.170418173997632
2025-02-19 14:54:28.566,868,-75,599,43,22,-18,-6,-8,5,153,87,5,7.136788647793685,55.18214019775055,1688.9712707741953,-145.93645772818508,32.45415761089521
2025-02-19 14:54:28.666,542,-147,748,-13,-8,-10,-4,-7,3,432,43,5,11.118308507845935,35.41278894101518,1121.4631018755517,-304.1606567817456,-51.70184539282786
2025-02-19 14:54:29.486,706,-90,674,0,-2,-4,-4,-7,6,464,56,6,7.605779574381843,46.075429506715615,1426.2536897636123,-181.8170426044265,-13.60763017092745
2025-02-19 14:54:29.586,693,-94,677,-1,-10,-6,-5,-9,7,598,61,6,7.904856295282662,45.39564636505804,1404.9726906502965,-190.5734962786838,-18.534648730520416
2025-02-19 14:54:29.692,737,-77,664,3,-6,-2,-5,-8,5,711,69,6,6.6146944541338515,47.79236802374903,1477.7151144406962,-154.38814628484886,-3.347131599216141
2025-02-19 14:54:29.799,630,-91,673,18,-26,-16,-5,-8,7,751,91,6,7.700571029430535,42.8510042137932,1310.094195028339,-189.23582817076007,-53.51332262551125
2025-02-19 14:54:29.910,657,-237,629,56,21,-17,-6,-10,6,0,88,6,20.64583480577247,44.34618330001505,1355.9919430715918,-489.1477785509394,-40.202332103547974
2025-02-19 14:54:30.016,698,120,755,-8,-18,23,-5,-5,5,529,89,6,-9.03107179644063,42.39740962542429,1372.2690009112703,235.92017207643607,25.66891735242291
2025-02-19 14:54:30.118,960,-3,554,5,19,-1,-5,-9,7,555,86,6,0.31026292135065353,60.01110837636713,1826.1223263785778,-5.706632269933055,54.17524081902911
2025-02-19 14:54:30.232,441,-164,766,-24,11,14,-4,-5,6,519,35,6,12.084540283341306,29.37776938600735,931.5656879714861,-346.43259144517845,-86.09368931101653
2025-02-19 14:54:31.047,730,-67,672,-2,-1,-2,-5,-9,8,532,63,7,5.69370915993824,47.22771616209466,1464.0584504136532,-134.37248791467772,-3.735998189006523
2025-02-19 14:54:31.142,718,-62,669,0,-5,-6,-5,-8,7,537,68,7,5.294798719317664,46.90109400273917,1448.1753228828015,-125.05135100102186,-11.344416446509967
2025-02-19 14:54:31.253,638,-98,671,5,-21,-29,-4,-10,4,254,89,7,8.30933778465226,43.25401629256886,1323.2340456481584,-203.25538632213096,-49.677185940304526
2025-02-19 14:54:31.356,820,75,632,12,-43,24,-6,-9,6,725,84,7,-6.767690062801115,52.1835396341531,1609.978899186448,147.25416760851658,23.13821428556696
2025-02-19 14:54:31.461,783,89,669,5,0,60,-4,-9,7,586,88,7,-7.577813119536763,49.24084201587344,1540.4606395626195,175.09705864760298,21.820986120827115
2025-02-19 14:54:31.576,823,-24,702,-30,54,-21,-5,-7,7,567,80,7,1.9580674292340414,49.520063480292634,1583.6333386590804,-46.181288126145716,53.19732231023772
2025-02-19 14:54:31.678,744,-88,642,89,8,-18,-4,-8,6,0,84,7,7.804987932720135,48.94505107175756,1498.0800465781372,-177.1922635737581,-8.698104708553728
2025-02-19 14:54:31.786,777,-26,678,-2,-4,7,-5,-7,6,737,89,7,2.196107193229727,48.87162022978251,1530.2376884842122,-51.20486473692345,20.734681090996332
2025-02-19 14:54:31.896,514,-209,715,-10,11,12,-3,-6,4,560,42,7,16.29404745659891,34.6059418357557,1081.929105025297,-439.92837149861305,-75.01811302157103
2025-02-19 14:54:32.708,741,-60,619,0,-5,-2,-6,-9,7,608,77,8,5.536414504341635,49.994179356760924,1506.9791387655534,-122.02260232919461,-20.86651402952441
2025-02-19 14:54:32.810,751,-60,643,2,-3,-2,-5,-7,7,653,83,8,5.330981046743225,49.30739384857978,1509.2184812288601,-120.57670955223917,-6.180404034829621
2025-02-19 14:54:32.911,754,-56,637,1,0,-1,-6,-8,7,704,89,8,5.024075258539548,49.6991911752833,1516.659199111924,-112.64312354146915,-7.315530284211491
2025-02-19 14:54:33.022,685,-115,740,-6,2,-16,-5,-8,7,592,91,8,8.833414651219002,42.44903863432292,1359.934173843922,-228.31011677671682,10.874031175909181
2025-02-19 14:54:33.132,763,136,603,-5,-23,44,-4,-7,7,296,92,8,-12.709772896347314,50.98724886792315,1540.0058874392735,274.49646224343536,-11.068873035231832
2025-02-19 14:54:33.236,759,-78,672,1,17,-70,-6,-8,7,735,88,8,6.620776082314977,48.28875297676063,1505.5075847880862,-154.71619448415117,11.060478290389938
2025-02-19 14:54:33.346,621,-27,771,-4,-19,3,-5,-9,7,803,88,8,2.00564737138861,38.83246703760129,1248.0453278225523,-54.26284034011097,-7.505551934279879
2025-02-19 14:54:33.449,902,12,432,7,24,31,-6,-8,8,550,93,8,-1.5911402711945875,64.39996663566681,1803.8322747938823,23.99776862253502,0.08032958873945972
2025-02-19 14:54:33.558,436,-177,787,-19,13,9,-4,-5,4,573,37,8,12.675186281464912,28.391280035602428,911.4903280082481,-370.0316239849997,-71.28185353782385
2025-02-19 14:54:34.480,757,-36,644,-1,-2,-3,-4,-7,6,711,80,9,3.199539709562572,49.56718607991031,1518.1669973038836,-72.19816631828243,-3.544975249274671
2025-02-19 14:54:34.570,758,-32,639,3,-5,-4,-6,-9,7,740,84,9,2.866877266339404,49.83348226953708,1522.173088078195,-64.26060530145415,-5.2039621134124445
2025-02-19 14:54:34.680,758,-26,649,3,2,-9,-5,-10,7,705,89,9,2.2941357197932133,49.407146472845085,1517.352472158911,-52.0463908656091,-1.1579873761653516
2025-02-19 14:54:34.788,631,-112,698,3,7,-16,-6,-8,6,410,89,9,9.115886832856024,41.75190049688115,1296.9064123039282,-230.19574988595872,-38.612798396421226
2025-02-19 14:54:34.891,818,146,617,1,-10,27,-4,-7,7,482,87,9,-13.312961031936371,52.22043688647946,1608.373580510046,287.06912317171964,20.83802056882871
2025-02-19 14:54:35.004,644,-97,630,20,-12,-15,-6,-8,6,793,84,9,8.752996205689916,45.29403991963715,1354.7263007819492,-204.05039002461035,-65.27572902581983
2025-02-19 14:54:35.111,688,63,707,-15,-13,71,-6,-5,7,452,91,9,-5.092115124498963,44.10643540425348,1383.9934514250353,126.73195848804832,-8.21420081031988
2025-02-19 14:54:35.218,1309,-122,671,-5,80,19,-7,-7,7,386,74,9,10.304846468766033,62.480082330227894,2195.8502624153853,-204.6552574596463,216.39608397194553
2025-02-19 14:54:35.327,452,-183,747,11,-19,-12,-3,-3,1,369,32,9,13.765215312007655,30.443105601200905,958.6825197846288,-388.1391617712103,-90.37133247592408
