Timestamp,Acc_X,Acc_Y,Acc_Z,Gyro_X,Gyro_Y,Gyro_Z,Mag_X,Mag_Y,Mag_Z,Force,IR_A,Letter,Roll,Pitch,Lin_Acc_X,Lin_Acc_Y,Lin_Acc_Z
2025-02-19 12:54:11.792,517,-149,852,1,3,3,0,-1,1,565,17,noise,9.91972034886161,30.86827200282866,1030.066013024735,-296.86622038817313,6.4830887870907645
2025-02-19 12:54:11.886,479,-143,854,-2,5,-5,1,1,1,533,16,noise,9.505835227579691,28.95085225386051,963.0592019461039,-287.5103671780644,-9.019955035433668
2025-02-19 12:54:11.993,471,-138,860,0,-3,0,2,0,1,514,17,noise,9.116259042890924,28.4026022579859,946.6641604320571,-277.3665692985645,-8.516301425836673
2025-02-19 12:54:12.099,474,-142,863,0,-1,2,2,0,0,514,17,noise,9.34385365981488,28.45588858403932,950.4820268931509,-284.7435607992139,-4.518964575504583
2025-02-19 12:54:12.208,486,-136,857,-2,-1,-1,1,0,1,492,17,noise,9.01725216058303,29.252573092476464,974.6604238712692,-272.7444807541001,-4.691323575468687
2025-02-19 12:54:12.316,490,-128,865,-2,-1,-2,1,0,0,495,17,noise,8.417366511072723,29.265046631955844,978.8503536738378,-255.69968422500256,2.029477698225037
2025-02-19 12:54:12.416,488,-130,857,-1,0,0,1,-1,-1,489,16,noise,8.625550327011341,29.378979293617572,978.5840891928893,-260.68838441613855,-4.538041881774689
2025-02-19 12:54:12.525,479,-153,858,-1,0,0,2,0,1,491,16,noise,10.110803622384578,28.793419555828343,960.653026736965,-306.8474177260034,-4.752185679156128
2025-02-19 12:54:12.636,483,-139,859,-1,0,0,0,0,0,485,17,noise,9.19170368614733,29.032976886885844,968.3129318856062,-278.6656263604539,-4.1134751340284765
2025-02-19 12:54:12.746,477,-139,859,-1,0,-1,2,0,-1,487,17,noise,9.19170368614733,28.730077977189623,957.6838976684315,-279.073504771304,-6.634105025540407
2025-02-19 12:54:12.849,483,-140,863,0,0,0,1,1,1,491,15,noise,9.214523277531566,28.91860179922189,966.566588406997,-280.1642285237673,-1.012351542936699
2025-02-19 12:54:12.955,480,-137,865,-1,0,-1,2,-1,0,487,16,noise,8.999835815991469,28.726338497694645,960.6266650832417,-274.17886065917526,-1.129302702091877
2025-02-19 12:54:13.065,480,-129,859,-1,-1,0,1,-1,0,492,16,noise,8.540550282166969,28.924727198352358,963.6601633609257,-258.98366890324877,-6.550167347989827
2025-02-19 12:54:13.165,475,-142,856,-1,-1,0,2,0,1,494,17,noise,9.418899874911792,28.697417266805978,955.183957664066,-285.54973050167865,-9.342037390400833
2025-02-19 12:54:13.282,482,-151,860,0,-1,0,-1,2,1,490,16,noise,9.958563961927972,28.899603622114974,965.2763266930147,-302.3998450843262,-2.277263394175634
2025-02-19 12:54:13.387,478,-140,862,-1,0,0,1,-2,1,485,16,noise,9.225029297185545,28.694194778295834,958.1346223251209,-280.625203191458,-3.849465364548678
2025-02-19 12:54:13.496,479,-145,867,0,0,0,2,-1,1,485,17,noise,9.49446870522088,28.586482734698617,957.4847101877563,-289.84401456623107,0.9326853177772136
2025-02-19 12:54:13.599,478,-144,861,0,-1,0,2,0,0,484,16,noise,9.494692701481519,28.703486157796657,958.2768664527425,-288.685917927186,-4.101217606299656
2025-02-19 12:54:13.705,476,-140,863,-1,-1,0,0,-1,0,491,17,noise,9.214523277531566,28.565939262336002,954.1698370761426,-280.63818737533603,-3.933969320821575
2025-02-19 12:54:13.820,479,-151,867,-1,-1,-1,1,-1,1,492,17,noise,9.879750914459864,28.55885832370459,957.0612921406222,-301.7040816560208,1.699080822715132
2025-02-19 12:54:13.926,486,-138,866,0,0,-1,-1,0,1,492,16,noise,9.054147706928685,28.99558810447147,970.7422712521336,-275.64286714566754,2.2411380568977393
2025-02-19 12:54:14.032,476,-139,859,-1,0,-2,1,0,1,483,17,noise,9.19170368614733,28.67942310696846,955.9084530028429,-279.14133396511585,-7.053279683701817
2025-02-19 12:54:14.139,476,-136,862,0,-1,-1,0,-1,-1,481,19,noise,8.965799999950372,28.6105721213319,954.8538537396983,-272.81538678277093,-5.168113284915762
2025-02-19 12:54:14.246,476,-139,862,-1,0,0,1,2,4,472,24,noise,9.160257255464291,28.597534437307488,954.6540759699126,-278.7750347895333,-4.806330853076929
2025-02-19 12:54:14.348,475,-145,864,2,0,-2,1,-1,0,449,20,noise,9.526832347228602,28.465939074779445,951.636240917107,-290.49948406943264,-2.976236110274499
2025-02-19 12:54:14.455,475,-134,865,-1,0,0,1,1,1,431,19,noise,8.805881632413202,28.486919567692713,951.9581168579368,-268.5523950715022,-3.56583385708484
2025-02-19 12:54:14.565,472,-134,863,-1,0,0,0,-1,1,427,17,noise,8.825968293664774,28.389141898940306,947.4574986690095,-268.9815780119646,-6.321655405413594
2025-02-19 12:54:14.675,474,-133,863,-1,-1,0,0,-1,0,419,18,noise,8.761128508495993,28.494799044332837,951.078984724466,-266.86393453239236,-5.605830838004522
2025-02-19 12:54:14.782,467,-139,869,0,-1,0,0,1,-1,417,17,noise,9.08770541238578,27.9528234471741,935.7443968828704,-278.51921020710705,-3.245997625726659
2025-02-19 12:54:14.888,468,-134,868,0,1,-1,0,-1,0,408,17,noise,8.77592114813048,28.051288953535646,938.2617549299168,-268.6475964970275,-4.194878801640584
2025-02-19 12:54:14.998,467,-131,868,-1,0,-2,-1,1,-2,404,16,noise,8.582403768231256,28.012702419639396,936.6672998856341,-262.7482147430794,-4.957636618266406
2025-02-19 12:54:15.098,468,-135,860,0,-1,-1,1,0,0,408,16,noise,8.921301654441667,28.262591871254745,941.5132487690137,-271.59036022183085,-10.131183635366938
2025-02-19 12:54:15.205,466,-126,863,-1,-1,-1,1,-1,-1,408,17,noise,8.306625196115215,28.116123981690304,937.2601076812546,-253.422260875189,-9.741358216572394
2025-02-19 12:54:16.631,632,-147,771,3,-1,-10,0,1,6,258,23,A,10.794542061895255,38.84136110756989,1259.16624238968,-292.87569245456166,5.896878350564407
2025-02-19 12:54:16.725,632,-141,814,10,-2,-5,-2,1,7,268,24,A,9.827185921573415,37.416729261274085,1239.6077675593424,-276.5580620662457,31.41657785869495
2025-02-19 12:54:16.835,690,-133,795,15,-4,-9,-2,-2,5,195,26,A,9.49737978850462,40.56445188196325,1340.3030160530616,-258.34826251457565,45.73782933016798
2025-02-19 12:54:16.945,557,-39,732,-13,-23,-9,-3,-2,7,350,28,A,3.0497604692684326,37.22943168111144,1162.0081963585699,-81.36143565167725,-63.09156146225007
2025-02-19 12:54:17.047,717,-92,695,-69,-4,9,-2,-3,8,645,32,A,7.540636617206547,45.643905122968114,1432.0086141011616,-183.74448047044194,1.930283402639816
2025-02-19 12:54:17.158,636,-228,697,-52,-4,5,-4,0,9,780,31,A,18.11375980550667,40.93380600860676,1291.1866730415015,-462.8782412790289,-21.026904260891115
2025-02-19 12:54:17.264,664,-262,683,-2,-24,-15,-4,0,12,798,32,A,20.986901359948625,42.22968950505659,1336.104368965551,-527.1978082364071,-8.336271089565003
2025-02-19 12:54:17.375,726,-250,663,-57,-11,-28,-4,-2,14,802,40,A,20.660150419627797,45.69617818214934,1441.6461455038589,-496.4346231073895,9.455379519203007
2025-02-19 12:54:17.480,626,-230,478,-28,-62,-23,-4,-3,16,713,58,A,25.695536121449475,49.72291064425378,1388.926898071946,-510.3086047229195,-104.55440459806744
2025-02-19 12:54:17.585,774,-328,586,15,5,-7,-5,-5,18,747,65,A,29.236915770350585,49.053908085366494,1529.3265146903263,-648.0866883959006,14.137806707324103
2025-02-19 12:54:17.695,704,-292,573,-7,0,-4,-5,-5,17,799,67,A,27.003327451047745,47.587947189377545,1442.3134772086296,-598.2322945240338,-27.92844096668273
2025-02-19 12:54:17.798,776,-237,570,0,-14,-22,-6,-3,17,821,83,A,22.577026990031488,51.497757352655285,1558.5837900463875,-476.0107709291159,-4.836031348506481
2025-02-19 12:54:17.907,829,-185,545,-4,5,-5,-5,-7,16,834,103,A,18.749757630311112,55.229220435175655,1650.44016214556,-368.31294330148205,4.969977841579862
2025-02-19 12:54:18.015,816,-151,588,-5,-9,-1,-7,-7,18,840,126,A,14.402491964149782,53.35187921099134,1618.3164429820417,-299.4678711890787,9.860210204117266
2025-02-19 12:54:18.115,802,-228,574,-2,-6,-22,-7,-6,18,812,128,A,21.663596692557626,52.39994007933889,1594.2890052571192,-453.2392683274602,6.950263070341293
2025-02-19 12:54:18.231,978,46,394,10,-3,45,-4,-9,16,335,133,A,-6.6592072661368045,67.92255610031947,1904.676670367232,89.58601926062647,20.676269811156033
2025-02-19 12:54:18.340,750,-219,587,-24,12,-43,-8,-7,18,800,123,A,20.459713904483046,50.12587108721397,1517.4547109771656,-443.09677560533237,-13.661220458128355
2025-02-19 12:54:18.448,799,-309,506,21,-40,51,-7,-7,17,539,127,A,31.411241227676264,53.42316562305664,1602.0584730579812,-619.569547152586,-2.5701969553674076
2025-02-19 12:54:18.555,863,-143,625,38,85,-17,-5,-5,16,761,111,A,12.887446882739457,53.39015238173014,1665.714988159883,-276.01071066843946,43.6594813442332
2025-02-19 12:54:18.661,838,82,564,27,-79,6,-5,-7,19,710,124,A,-8.27227521251295,55.78009868258176,1664.885288370012,162.9124029192613,7.480545774836969
2025-02-19 12:54:18.767,902,-188,513,5,49,30,-6,-5,18,823,115,A,20.126457664881922,58.795686639276624,1757.3252594478945,-366.2717835656366,26.54561186610863
2025-02-19 12:54:18.874,658,-228,627,13,-9,9,-4,-6,14,761,67,A,19.98310652189998,44.603617543703464,1360.1980075305933,-471.31481112002314,-42.115730580063655
2025-02-19 12:54:19.891,759,-158,622,-11,-8,-5,-7,-7,15,796,82,B,14.252779774538945,49.78462875989943,1522.6228385686313,-316.9623300314147,-3.788413161645167
2025-02-19 12:54:19.988,804,-141,595,-7,-4,-2,-6,-6,16,820,96,B,13.331729525538128,52.745361657756945,1599.9529987486194,-280.58877216860117,5.955181274342635
2025-02-19 12:54:20.097,770,-152,601,-1,-1,-4,-5,-5,17,828,98,B,14.193156399808194,51.162621907776455,1548.929021106625,-305.7626119587103,-6.969274915690221
2025-02-19 12:54:20.205,720,-249,612,5,-17,-15,-5,-9,15,839,119,B,22.13957626499913,47.45862759433969,1456.789311290795,-503.80630348806665,-14.270914597175874
2025-02-19 12:54:20.311,726,32,632,46,-19,37,-4,-8,15,733,121,B,-2.8985767992817095,48.92333721833013,1479.8310861499272,65.22671454104362,-24.227612185611406
2025-02-19 12:54:20.422,984,-118,476,-8,54,-39,-6,-5,16,825,109,B,13.922898849188138,63.50915555169216,1879.0056501421682,-225.3279133300568,43.05011232960152
2025-02-19 12:54:20.525,834,-120,531,7,7,-14,-6,-8,15,822,119,B,12.734290795347604,56.86565171764429,1671.3911831036808,-240.48794001491808,-2.15913456601254
2025-02-19 12:54:20.635,630,-80,730,18,-19,28,-5,-5,16,840,118,B,6.254032743916468,40.62555463051361,1281.1127969759273,-162.68099009218122,-24.46403459115379
2025-02-19 12:54:20.742,867,-153,612,31,17,-3,-6,-7,16,808,116,B,14.036243467926477,53.96010656969615,1675.60754006264,-295.6954482463482,41.218207014607174
2025-02-19 12:54:20.847,827,-17,606,12,-10,34,-4,-6,15,733,118,B,1.6068859162467684,53.756447622405695,1633.511140560342,-33.5788263476733,15.013601959410835
2025-02-19 12:54:20.955,885,-46,493,-28,83,29,-5,-2,14,753,67,B,5.330622678224982,60.77378113191493,1757.698738581948,-91.36061240086964,6.852567095027609
2025-02-19 12:54:21.066,688,-204,660,6,-30,-21,-5,-3,15,778,55,B,17.175903615746744,44.883305697807295,1393.665151357758,-413.23792278631197,-16.94622077924464
2025-02-19 12:54:21.981,774,-163,611,-5,-2,-5,-5,-5,14,808,75,C,14.937253561891747,50.750708567885724,1548.4004685901657,-326.0843364085233,-0.31613218164250156
2025-02-19 12:54:22.077,762,-158,603,-4,0,-6,-6,-5,15,816,78,C,14.682744280586109,50.71502119892218,1536.006236200422,-318.48948204680664,-9.500997938129217
2025-02-19 12:54:22.184,746,-146,607,-6,1,-8,-5,-7,14,825,80,C,13.524290143181322,50.07475006420573,1512.8823939936242,-296.0869028459372,-16.991438544410016
2025-02-19 12:54:22.290,768,-145,598,0,-8,-4,-5,-5,15,841,85,C,13.629737071984454,51.29798503996806,1548.408418517784,-292.3427352670295,-9.661763377128636
2025-02-19 12:54:22.396,818,-175,579,-1,0,-8,-5,-8,15,847,117,C,16.817192623780738,53.518995320317224,1622.0540185596851,-347.01644651338006,9.871299821445518
2025-02-19 12:54:22.503,887,34,483,48,8,12,-3,-8,14,735,116,C,-4.026601136249902,61.370774006881405,1764.7386853791993,67.64500034148003,5.043083384269039
2025-02-19 12:54:22.617,739,-127,662,13,-19,12,-6,-5,16,852,110,C,10.859843959157843,47.630784844823005,1477.8175346006483,-253.9686426174321,0.16345344299179487
2025-02-19 12:54:22.715,451,-285,725,-19,22,0,-3,-5,13,809,46,C,21.4599607304857,30.068398593939197,952.0334878614261,-601.617614280502,-80.430773169698
2025-02-19 12:54:22.830,863,-107,586,-4,-10,-9,-5,-6,13,798,63,C,10.347861310168891,55.38449004814728,1685.9826232307162,-209.0384017215372,27.1728653381233
2025-02-19 12:54:23.845,785,-131,604,0,-7,-6,-5,-6,16,815,82,D,12.237203065512851,51.78608373414795,1570.7066680848234,-262.11792804982406,-0.543729328959671
2025-02-19 12:54:23.939,774,-127,603,-4,1,-6,-5,-7,15,819,88,D,11.893446654703586,51.47455331687984,1556.3316032446244,-255.36707185021615,-6.4909002022072855
2025-02-19 12:54:24.049,786,-111,601,-2,1,-6,-7,-5,14,818,93,D,10.464164045975723,52.132687174105214,1575.434405380983,-222.48501144693267,-2.6260529694284287
2025-02-19 12:54:24.158,747,-106,602,-6,-3,-12,-5,-8,15,820,100,D,9.98626040160485,50.706955716814086,1520.9170965633207,-215.81956122585268,-21.692225075125634
2025-02-19 12:54:24.265,756,-384,736,27,-10,49,-6,-7,14,774,116,D,27.552811576717804,42.32340009523087,1429.3145291521173,-726.0010306804404,80.49802452915594
2025-02-19 12:54:24.370,882,-16,647,21,-7,27,-6,-2,16,714,115,D,1.4166084467989133,53.729361139754126,1688.231552716914,-30.62551569554492,55.580709061402445
2025-02-19 12:54:24.480,852,-192,495,14,3,-28,-6,-9,15,828,112,D,21.200216655641015,58.07049603577175,1700.699460349912,-383.25621641688156,1.9175670502272055
2025-02-19 12:54:24.587,692,-26,677,19,-15,53,-6,-6,17,734,116,D,2.1993478906373944,45.60665291738979,1406.5539164440856,-52.84740148489339,-22.065030972031764
2025-02-19 12:54:24.695,1288,-48,666,-12,77,30,-5,-6,16,711,88,D,4.122297811783643,62.59678469017902,2175.789558365279,-81.08532515647003,206.94111345397835
2025-02-19 12:54:24.796,434,-229,733,7,-23,-7,-3,-4,10,742,41,D,17.349573787244168,29.472927922824113,926.0122647985504,-488.6101581540739,-97.97923985561624
2025-02-19 12:54:25.720,757,-157,608,-2,-1,-7,-4,-6,15,766,71,E,14.478844007410864,50.323756832390025,1526.6643443598143,-316.6265549068571,-10.17162664566331
2025-02-19 12:54:25.817,767,-135,619,1,-8,-7,-5,-5,17,773,78,E,12.303196321055184,50.442924345664906,1537.990566173512,-270.7023812691318,-3.220548189574629
2025-02-19 12:54:25.923,759,-112,607,-7,5,-10,-7,-6,14,783,85,E,10.45429172198087,50.88074103659482,1534.8343727062165,-226.48412350869074,-13.46306223013653
2025-02-19 12:54:26.029,731,-236,811,-8,2,-19,-5,-8,17,801,118,E,16.224930743566453,40.874789742790156,1385.4081733152939,-447.272679757058,84.97396913994066
2025-02-19 12:54:26.140,851,250,508,10,-14,51,-6,-7,15,422,118,E,-26.202997357796747,56.36355118362232,1683.5690311365672,494.5854968086272,11.002270484869541
2025-02-19 12:54:26.246,365,-277,552,-48,-7,-75,-5,-6,14,780,90,E,26.648028352250385,30.582870786364975,873.7840645569023,-663.1183174856492,-217.44877708331524
2025-02-19 12:54:26.350,740,-35,649,13,-37,14,-6,-10,15,844,114,E,3.0869207696404364,48.70711550751032,1491.3460926795447,-70.53663951862711,-9.950829931114185
2025-02-19 12:54:26.460,596,56,564,-30,43,-8,-4,-7,14,756,101,E,-5.6703573438938895,46.43984443898065,1320.651259204569,124.08803777761052,-121.74380904593454
2025-02-19 12:54:26.566,827,-5,588,10,-33,16,-5,-7,12,800,112,E,0.4871972669649197,54.58605676825956,1641.9868004484997,-9.927368805613664,8.541428459833242
2025-02-19 12:54:26.677,400,-119,541,-30,29,-14,-4,-7,14,639,82,E,12.405398153639705,35.83337878317732,985.4300768755987,-293.16544787049054,-250.79417897424707
2025-02-19 12:54:26.783,775,-43,575,40,-48,30,-5,-5,15,759,109,E,4.2767671948269435,53.35048677990396,1577.3019366047897,-87.51481712774961,-20.25627554548896
2025-02-19 12:54:26.887,651,-23,473,-61,98,18,-3,-1,14,765,60,E,2.783859969644833,53.96662187869943,1459.6744380461723,-51.57067907075571,-114.56222610728048
2025-02-19 12:54:28.706,770,-96,613,-4,-4,-6,-4,-6,15,798,76,F,8.900616875459072,51.13788043475818,1548.6581488430468,-193.07945751809416,-6.892786026996987
2025-02-19 12:54:28.796,783,-83,612,-1,1,-5,-4,-6,14,807,79,F,7.723383936199151,51.7348763145467,1568.153488658186,-166.2282752983773,-1.6831865374326753
2025-02-19 12:54:28.909,771,-95,626,5,-10,-8,-3,-7,15,821,84,F,8.629204181524633,50.606173201373856,1543.8019565845975,-190.22203096697376,-1.4630672139535363
2025-02-19 12:54:29.019,731,-70,620,-1,-7,-14,-8,-9,14,824,99,F,6.441600099335034,49.517855721942055,1491.6083234003554,-142.8352703666551,-25.112394676088115
2025-02-19 12:54:29.126,795,-196,566,0,0,-28,-6,-7,16,808,115,F,19.100445371751608,53.00458221344542,1593.6836374761674,-392.9081672268287,-2.622564542780765
2025-02-19 12:54:29.233,839,149,519,17,-1,41,-4,-7,15,624,114,F,-16.018272711676815,57.23542006822262,1679.9013251443293,298.33766084208,-1.1761474969093797
2025-02-19 12:54:29.338,431,-291,665,-54,15,-74,-5,-7,15,775,74,F,23.633897394567384,30.7001323322566,941.544903853928,-635.7066520220258,-122.73169620153635
2025-02-19 12:54:29.446,787,97,528,18,-48,26,-7,-7,16,832,112,F,-10.409853611218283,55.70093898391004,1613.1075296530678,198.82011483652803,-26.237326120482408
2025-02-19 12:54:29.552,845,6,626,21,65,33,-5,-9,15,833,99,F,-0.5491440105656759,53.46664286493103,1648.5104234339092,11.70539945633545,30.7366567223346
2025-02-19 12:54:29.663,1221,78,615,27,-25,14,-5,-8,16,747,109,F,-7.2281899099778375,63.08216567086103,2112.6566580653844,134.96086759140047,165.8854670678038
2025-02-19 12:54:29.765,985,120,552,-35,93,38,-4,-5,17,813,74,F,-12.264773727892402,60.165929878903434,1852.4697814652377,225.6815977419579,65.86465038699367
2025-02-19 12:54:29.880,685,-125,643,5,-15,-15,-6,-6,11,752,47,F,11.001155813266385,46.280892840146905,1407.736708277399,-256.88626063456195,-35.42292470418636
2025-02-19 12:54:29.978,727,-96,669,1,-6,-3,-6,-7,14,786,50,F,8.16606956820933,47.08804626190259,1459.400862629538,-192.71318131009036,-4.969982254692013
2025-02-19 12:54:30.089,797,-55,622,-5,-4,-3,-5,-6,13,793,57,F,5.053204276854555,51.92230569965279,1584.175179262414,-109.32200107833472,7.667551441378237
2025-02-19 12:54:30.199,752,-83,631,-1,-3,-3,-5,-7,12,786,59,F,7.493508778192492,49.75797244734133,1515.3223676090802,-167.2496762121724,-9.50055048049137
2025-02-19 12:54:30.302,753,-70,643,-4,1,0,-4,-5,14,763,58,F,6.213020171636371,49.338645566216705,1511.5739991105397,-140.51816724799176,-4.7597362922668935
2025-02-19 12:54:30.408,775,-64,628,0,-3,0,-5,-6,12,764,59,F,5.818970901394579,50.8365075140135,1550.347045471655,-128.02865923894961,-0.28121878219292284
2025-02-19 12:54:30.518,766,-81,629,-3,0,-1,-4,-6,13,755,60,F,7.3379275165038695,50.377640788770755,1536.264434592265,-162.45093890597056,-3.5017354550060418
2025-02-19 12:54:30.625,775,-65,625,-1,-2,0,-4,-8,14,741,61,F,5.937416099481518,50.964820253664705,1551.7594107569296,-130.14756348283927,-1.4188796426851695
2025-02-19 12:54:30.728,772,-88,618,-3,-2,0,-5,-5,13,735,62,F,8.104141422759476,51.04123263497569,1549.5986476037124,-176.6381878097496,-4.481818936650598
2025-02-19 12:54:30.842,759,-116,619,0,-2,-2,-5,-6,12,734,64,F,10.61406653451142,50.316027884988,1528.578213443989,-233.61669665283625,-8.62702782849692
2025-02-19 12:54:31.861,784,-72,615,-1,-3,-2,-6,-8,13,767,72,G,6.677402178041245,51.69845175368946,1568.759622580204,-144.06976125736566,-0.5958774066650676
2025-02-19 12:54:31.955,785,-67,607,-1,-3,-1,-5,-8,13,779,77,G,6.298748151319923,52.11906187864279,1574.2884092672207,-134.36601709669273,-3.3160056372013287
2025-02-19 12:54:32.064,785,-66,603,3,-7,-2,-5,-6,15,813,81,G,6.246315620990129,52.30528983561158,1576.2799888587779,-132.5279990632858,-4.823991441838416
2025-02-19 12:54:32.169,799,-45,586,1,-1,-2,-5,-7,15,831,88,G,4.391228416565695,53.662690068150646,1604.5426035788737,-90.36848205387898,-4.798455190512868
2025-02-19 12:54:32.276,791,-68,588,2,-3,-1,-5,-7,15,837,88,G,6.5967382978942135,53.191858931081846,1591.6462485270135,-136.8292603032072,-7.170662621850852
2025-02-19 12:54:32.386,810,16,588,-7,-13,-1,-5,-8,16,848,113,G,-1.5586842062108233,54.01304869591272,1619.1508371976088,31.983226413779924,0.6164292935877711
2025-02-19 12:54:32.493,784,-128,539,31,30,13,-6,-8,15,712,113,G,13.358960634360903,54.7542086403954,1600.6839469460178,-261.33615460343145,-22.47021352538718
2025-02-19 12:54:32.595,806,-18,650,9,-28,2,-4,-5,15,661,112,G,1.5862469601198774,51.10477206192448,1584.2954477348026,-35.38128791467301,22.342380859030413
2025-02-19 12:54:32.707,801,-42,566,7,5,-36,-5,-7,17,781,112,G,4.243852273898035,54.680158293839675,1616.9374272584969,-84.78323588621332,-10.555035990398551
2025-02-19 12:54:32.815,498,-175,565,-25,38,-37,-3,-6,15,766,89,G,17.209557520547897,40.09583889308725,1142.0680756336558,-401.3291430439553,-165.71980468476988
2025-02-19 12:54:32.915,811,26,540,14,-34,26,-3,-7,15,747,114,G,-2.7565568715365214,56.31194288799151,1643.069757336451,52.675479273425054,-14.029184909597461
2025-02-19 12:54:33.029,775,-82,513,-29,94,44,-4,-6,15,655,61,G,9.081564721465293,56.164534500358776,1605.6399688229985,-169.88706766901402,-36.8300696854169
2025-02-19 12:54:33.136,810,-98,627,11,-21,-10,-4,-4,13,537,49,G,8.883446723716114,51.92228768845121,1597.174985390525,-193.2384550225574,17.668252049556486
2025-02-19 12:54:34.355,761,-82,615,-6,-8,-11,-5,-5,16,714,61,H,7.594643368591445,50.80967144342992,1536.051163281459,-165.51405438775245,-11.35540790814332
2025-02-19 12:54:34.445,767,-94,603,-9,-5,-8,-6,-6,14,728,70,H,8.860368224696888,51.49161116822483,1549.5170043940275,-189.90169284620416,-12.199157300650086
2025-02-19 12:54:34.556,807,-65,600,-12,3,-5,-6,-5,16,724,81,H,6.18293016594826,53.209222482894134,1607.8277810260631,-129.50285720779937,4.589010389544342
2025-02-19 12:54:34.665,730,-130,636,-14,4,-11,-4,-7,15,731,77,H,11.552269673389947,48.35500499842434,1477.2764714558257,-263.0766319030922,-15.051829925897437
2025-02-19 12:54:34.774,731,-87,622,-5,-2,-12,-7,-8,14,750,83,H,7.962382695029781,49.33174217902198,1489.4954859606082,-177.27237657807513,-23.395611857042695
2025-02-19 12:54:34.877,791,-223,519,9,12,-26,-6,-10,15,755,116,H,23.251864119414638,54.4680533713405,1604.7916070378437,-452.42544673759676,-14.954290837725239
2025-02-19 12:54:34.987,848,109,545,12,5,35,-4,-6,14,547,114,H,-11.309932474020213,56.75850817709069,1684.3675658158813,216.5047932475602,7.476033762198881
2025-02-19 12:54:35.094,328,-314,833,18,6,-19,-7,-8,15,728,112,H,20.653973750791653,20.22630938192674,673.72910481673,-644.972374733089,-45.02543997663429
2025-02-19 12:54:35.205,900,-22,542,-10,17,-7,-4,-9,15,831,104,H,2.3243829709481543,58.92186829276363,1756.4641694194984,-42.93579080803218,26.218244638479973
2025-02-19 12:54:35.310,791,-79,629,16,12,-6,-7,-8,15,795,115,H,7.158647207598524,51.28980401117361,1571.319130815526,-156.93326338107022,8.493383965909175
2025-02-19 12:54:35.417,902,-18,603,25,4,40,-4,-6,16,717,111,H,1.709814044141531,56.22491166976904,1733.2262628584624,-34.58766378209792,47.31326329971978
2025-02-19 12:54:35.524,505,-204,709,-21,6,-21,-4,-6,13,687,45,H,16.052071963682447,34.39163745142065,1069.8465687867936,-432.17564362872463,-84.0222124155182
2025-02-19 12:54:36.343,779,-81,606,0,-4,-6,-6,-6,15,732,76,I,7.61322176596662,51.87380246062481,1565.652810351417,-162.79573509430648,-5.9532773722188495
2025-02-19 12:54:36.437,772,-78,604,0,-6,-13,-4,-7,17,786,86,I,7.358399088753703,51.730786921389466,1557.1092850402672,-157.32451325536377,-10.256487259483492
2025-02-19 12:54:36.544,765,-72,618,-4,9,-8,-6,-9,14,795,94,I,6.645278210274421,50.878292439921324,1540.8074082433986,-145.01716783467282,-8.730690580941541
2025-02-19 12:54:36.654,747,-70,593,1,-9,-21,-6,-9,16,753,112,I,6.732259575230967,51.36277700593947,1528.11499552996,-143.19685366411937,-27.081917468896904
2025-02-19 12:54:36.760,750,28,578,-2,-32,19,-4,-9,16,838,111,I,-2.773405985365776,52.34728509574759,1541.727944871239,57.557843275192916,-32.15833618076806
2025-02-19 12:54:36.871,571,-138,610,-21,21,-29,-6,-8,14,805,86,I,12.747416975991522,42.395881761625006,1245.249308021076,-300.95342295430555,-110.30136233424923
2025-02-19 12:54:36.974,756,0,584,16,-13,62,-4,-7,14,649,110,I,0.0,52.314388415702375,1547.3770778845508,0.0,-27.328324715049916
2025-02-19 12:54:37.085,386,-263,596,-12,-18,-29,-3,-7,15,665,98,I,23.810676946470668,30.64783710101143,895.7598846031079,-610.3234446907187,-191.09039177060185
2025-02-19 12:54:37.191,711,12,639,16,-34,20,-5,-6,13,761,111,I,-1.0758506207912717,48.04786047374376,1454.7035062265086,24.55195791099592,-29.391758760532753
2025-02-19 12:54:37.295,628,-121,632,-37,72,0,-4,-4,13,743,54,I,10.838444778868839,44.302522703094034,1326.4467963293794,-255.5733477004059,-70.89550203848376
2025-02-19 12:54:38.215,770,-65,617,-3,-6,-12,-6,-9,13,798,82,J,6.013839820598983,51.14046190910455,1548.686417882473,-130.73326904202696,-6.960415368163467
2025-02-19 12:54:38.310,787,-28,607,0,2,-5,-6,-8,15,816,95,J,2.641096198753743,52.328143897678466,1578.523821833634,-56.16094918849015,-3.4891484790543927
2025-02-19 12:54:38.419,770,-14,627,-16,6,-9,-6,-10,14,799,98,J,1.2791190539541974,50.83757414293998,1545.3588021181577,-28.097432765784685,-4.363596010499805
2025-02-19 12:54:38.526,802,-168,473,62,13,-10,-7,-9,15,756,114,J,19.55400572783272,57.95871055920391,1649.6659967229016,-345.56594445068265,-26.932688840314654
2025-02-19 12:54:38.626,765,9,687,10,-8,24,-5,-9,15,862,108,J,-0.7505567963642668,48.072472980174076,1508.9906087868117,17.752830691609553,18.867257207137527
2025-02-19 12:54:38.742,729,-144,574,26,-43,-23,-6,-10,14,823,111,J,14.083207211108006,50.931022217444905,1505.3877663036542,-297.3605464303514,-37.312178132095255
2025-02-19 12:54:38.850,728,128,649,14,-22,81,-5,-9,12,644,110,J,-11.157053496296212,47.739935071900945,1468.1000039884984,258.12747322874696,-10.78695410513103
2025-02-19 12:54:38.955,1045,-304,315,49,22,-9,-6,-7,15,708,106,J,43.98192690832165,67.27036432021033,1967.3383599443878,-572.3166138020036,36.9745613564765
2025-02-19 12:54:39.060,520,-68,701,-16,7,-3,-4,-4,10,735,47,J,5.540600506915058,36.43963033609144,1113.9754734270705,-145.67371575584767,-99.7246286007238
2025-02-19 12:54:39.169,739,-117,650,-10,7,-10,-4,-5,12,609,49,J,10.203973721731684,48.2127647555076,1484.624475958464,-235.04880065918846,-5.826670328824775
2025-02-19 12:54:40.086,769,-68,627,2,-5,-7,-6,-9,14,764,78,K,6.189704140164212,50.643943099598985,1542.2201538744375,-136.37317355456665,-3.4408796869602156
2025-02-19 12:54:40.181,780,-51,622,-1,0,-4,-6,-5,14,778,85,K,4.687399846820031,51.33628025807654,1560.8261607286756,-102.05401820149034,-0.6588102220978271
2025-02-19 12:54:40.292,720,-20,609,-4,-8,-19,-6,-7,15,785,93,K,1.8809587766815703,49.759118188072335,1483.3352858403605,-41.20375794001001,-36.654429273304686
2025-02-19 12:54:40.395,754,-304,689,27,7,21,-5,-11,14,738,113,K,23.807990819947346,45.03478654983748,1461.5359635247319,-589.2664892725709,42.458516089469185
2025-02-19 12:54:40.508,1035,106,610,19,-27,3,-4,-6,15,614,110,K,-9.85787892604446,59.111959366298684,1893.172078659667,193.89008728301906,104.21742223923002
2025-02-19 12:54:40.615,646,-150,712,34,-75,-33,-4,-10,14,829,92,K,11.8967689936385,41.59915104565462,1309.9151324187667,-304.1598604687539,-19.745471025018446
2025-02-19 12:54:40.715,641,-81,717,14,26,13,-5,-9,13,737,113,K,6.445418036259688,41.61635133382422,1305.139595680971,-164.9240362716984,-25.883135886515447
2025-02-19 12:54:40.832,689,-23,605,-37,-58,80,-5,-7,17,265,113,K,2.1771382220594826,48.6936296847043,1440.1907479104216,-48.076033674803625,-54.608711880703936
2025-02-19 12:54:40.935,974,54,566,-11,108,27,-5,-7,15,712,80,K,-5.44988610453928,59.72585760910814,1837.6231562005914,101.8805445942833,64.14095851177143
2025-02-19 12:54:41.045,697,-82,663,6,-22,-16,-4,-6,13,641,51,K,7.050551025698753,46.21487711707973,1418.939921977334,-166.93410846792165,-23.7233404174641
2025-02-19 12:54:41.958,760,-92,627,3,2,-6,-5,-7,14,677,66,L,8.347469812030592,50.177511687142385,1528.0322244998479,-184.97232191313952,-6.626585212374721
2025-02-19 12:54:42.055,757,-70,623,3,-4,-7,-6,-7,14,713,72,L,6.410840020232449,50.36966462502725,1527.1756492800162,-141.21835594399093,-10.843367901519173
2025-02-19 12:54:42.162,799,-42,619,-1,-3,-6,-6,-7,14,760,84,L,3.8816478247946833,52.17067237245938,1588.8411840281608,-83.51856036193085,7.095503237257162
2025-02-19 12:54:42.270,786,-46,616,-1,1,-4,-4,-8,13,754,88,L,4.270654409609338,51.83629656249626,1572.248493792263,-92.01454289369478,-0.1947483155648797
2025-02-19 12:54:42.380,587,29,751,-8,-1,-16,-6,-8,16,735,114,L,-2.2113881048591706,37.99134531901821,1202.5424371670756,59.4101033694126,-36.5168148423744
2025-02-19 12:54:42.482,813,96,592,0,-4,45,-6,-8,15,358,111,L,-9.211026540816668,53.584571870711,1617.7339772927144,191.02393827810653,6.019047285009947
2025-02-19 12:54:42.592,731,-47,619,25,-28,13,-3,-7,13,753,109,L,4.34207500080178,49.66133009257295,1493.2316264751921,-96.00805259142822,-26.446479874341776
2025-02-19 12:54:42.699,685,-70,500,-56,97,25,-4,-3,15,709,55,L,7.96961039432136,53.608093028534064,1489.9776097405877,-152.2604856669214,-87.57489762086698
2025-02-19 12:54:42.809,694,-108,669,8,-24,-24,-5,-5,13,631,45,L,9.170424837789026,45.68244786933125,1409.4787458604762,-219.3425137650309,-20.705015822274618
2025-02-19 12:54:42.913,740,-89,641,-6,2,-9,-4,-7,12,732,50,L,7.90472676148154,48.82946478908227,1492.753545438285,-179.53387235676675,-11.047327872892993
2025-02-19 12:54:43.019,760,-73,643,3,-8,-4,-4,-6,15,753,56,L,6.477075600357498,49.58601687710283,1521.3801102030147,-146.1325632168685,-1.1676458691293874
2025-02-19 12:54:43.126,764,-63,641,0,-2,0,-4,-5,13,748,59,L,5.6132266972164615,49.86751103037136,1528.5560344290684,-126.04585100658548,-0.4665157971635381
2025-02-19 12:54:43.236,768,-77,637,0,-1,-1,-4,-6,12,735,61,L,6.892423122485141,50.12243109708109,1535.416218302352,-153.94146980375143,0.48420435078367063
2025-02-19 12:54:43.343,762,-78,635,-2,0,0,-6,-6,15,732,61,L,7.002827008231544,49.98329443892325,1527.8569948770078,-156.39481049922122,-3.2141623975060156
2025-02-19 12:54:43.449,760,-75,635,-2,0,0,-5,-6,11,712,61,L,6.736011214119352,49.92495947160081,1525.201924660134,-150.5133478283027,-4.346344946296199
2025-02-19 12:54:43.556,772,-78,630,-1,0,-1,-6,-7,12,709,61,L,7.057846649881076,50.56977782329074,1544.3986605898467,-156.04027917876687,-0.32533182850170306
2025-02-19 12:54:43.665,756,-87,635,-2,-1,-1,-5,-8,13,701,60,L,7.801401135203499,49.70892761240295,1518.7691007825297,-174.77898382021172,-5.685686503844181
2025-02-19 12:54:43.773,757,-77,631,-2,-1,0,-6,-7,13,705,60,L,6.957321863314247,49.978584376971305,1522.804132875069,-154.89553267025138,-7.3387157782938175
2025-02-19 12:54:44.691,778,-69,626,-1,-7,-7,-6,-7,15,726,73,M,6.289958741497496,51.009819617959586,1555.2538059072021,-137.9338208323868,0.600408100374807
2025-02-19 12:54:44.790,781,-56,615,-1,-2,-4,-5,-10,14,746,79,M,5.202828816707477,51.66623346821955,1565.4109754583528,-112.24457698549008,-2.68597939422159
2025-02-19 12:54:44.892,784,-56,610,-3,0,-3,-5,-9,12,752,82,M,5.245238039713046,51.99831335745063,1571.992629751675,-112.28518783940535,-3.106510393522626
2025-02-19 12:54:44.995,716,-44,639,-4,2,-10,-6,-9,15,756,85,M,3.939031679459958,48.18509719888074,1461.302607407787,-89.80071889098134,-26.151349348569852
2025-02-19 12:54:45.112,807,-105,602,-1,5,-11,-6,-9,15,773,114,M,9.893920669735412,52.86573226624421,1604.2230166793095,-208.72790179842315,7.293363022373683
2025-02-19 12:54:45.215,875,249,476,6,-8,44,-4,-9,12,324,112,M,-27.614481809266803,58.45275549485782,1727.2090367653036,491.5143430337835,12.398283999674902
2025-02-19 12:54:45.325,611,-149,612,-23,-11,-62,-6,-8,14,790,96,M,13.683251217808323,44.12844912554745,1307.2692826956759,-318.79398219583584,-85.40883962316457
2025-02-19 12:54:45.431,804,142,659,-5,-32,73,-4,-8,12,597,111,M,-12.160054766794635,50.02136553702314,1570.2840846887702,277.3387313753798,30.91391565932895
2025-02-19 12:54:45.541,820,-269,561,-10,0,-47,-5,-9,15,853,112,M,25.617759407184533,52.81129440285299,1616.6490838560085,-530.3397604356906,15.97544384973071
2025-02-19 12:54:45.645,850,213,488,-2,-18,70,-3,-8,16,502,116,M,-23.580085750549138,57.93603244478757,1697.455942332325,425.3624890785709,1.4605884021474935
2025-02-19 12:54:45.755,688,-150,620,-42,84,12,-4,-7,14,732,54,M,13.600542516658743,47.16450511261385,1421.3088080428663,-309.87837384655506,-40.83061189909449
2025-02-19 12:54:45.862,763,-59,644,11,-37,-12,-5,-5,15,656,50,M,5.23453514471867,49.71634257263615,1525.8527836177718,-117.98861629547646,0.1242560290363599
2025-02-19 12:54:47.076,761,-91,633,-3,1,-3,-5,-7,14,663,53,N,8.180784145017826,49.95792911635879,1526.5722534968443,-182.54674779003003,-3.803201660318564
2025-02-19 12:54:47.173,750,-107,641,1,-3,-9,-5,-5,14,707,55,N,9.476816460059736,49.091322814676715,1505.7543029804074,-214.82094722520483,-4.91801094725497
2025-02-19 12:54:47.282,746,-80,633,2,-3,-11,-6,-5,14,747,62,N,7.202984896534843,49.46045127437918,1505.957499414507,-161.49678277903558,-11.84329373911919
2025-02-19 12:54:47.389,841,-20,604,-4,4,-7,-4,-8,11,773,73,N,1.8965183032092885,54.299495451477654,1653.0783881771838,-39.3122089935121,20.771288395934675
2025-02-19 12:54:47.496,731,-52,638,5,-15,-33,-6,-7,15,772,89,N,4.659575781136546,48.79230261151176,1483.3264106200559,-105.51706340936103,-18.613201061006293
2025-02-19 12:54:47.606,732,-296,738,15,-14,68,-6,-8,12,680,111,N,21.854931917783123,42.63216003294548,1409.2890331972758,-569.8764396535431,55.15941735028764
2025-02-19 12:54:47.709,735,44,527,18,3,-59,-6,-7,14,705,110,N,-4.772639143465203,54.26492673361572,1546.7261635236991,92.59313087760918,-55.013181193182845
2025-02-19 12:54:47.820,789,-102,623,-4,1,-23,-6,-10,15,784,110,N,9.298194121897263,51.335998670282315,1569.823090309651,-202.94290901341498,6.45654592786741
2025-02-19 12:54:47.930,793,-105,611,11,-13,35,-3,-8,14,508,110,N,9.751001762252871,51.98219499208576,1580.8193950565046,-209.3140434816305,3.9916136449880923
2025-02-19 12:54:48.032,799,-58,601,6,-2,7,-5,-6,15,509,114,N,5.512305964428602,52.922211647999774,1596.8177123497921,-115.91417686644297,0.8893052287546652
2025-02-19 12:54:48.140,726,-328,634,-34,11,-56,-5,-9,15,800,113,N,27.35479260658429,45.484647505372074,1439.062613806872,-650.1550100945647,11.29793780501825
2025-02-19 12:54:48.250,594,-104,606,-36,47,32,-4,-8,13,791,66,N,9.738075167481496,44.01143735809893,1288.8019509096382,-225.64882642188957,-102.83835395831795
2025-02-19 12:54:48.352,734,-77,635,7,-8,9,-6,-6,12,726,52,N,6.913921742524227,48.92915971551722,1487.8978546812646,-156.0873771259637,-17.21408409073979
2025-02-19 12:54:49.274,784,-67,611,2,-5,-3,-5,-8,14,739,80,O,6.257840700191223,51.90325931432807,1570.970121246704,-134.25382413715454,-2.314724594050972
2025-02-19 12:54:49.365,780,-55,605,-1,-2,-2,-7,-9,14,748,84,O,5.194428907734806,52.08713060441782,1568.9460882890605,-110.63081391781836,-6.938953096002024
2025-02-19 12:54:49.475,784,-59,604,1,-2,-2,-5,-8,15,748,87,O,5.579073297472364,52.25744257631259,1574.7690925433826,-118.509408750076,-5.214964153320466
2025-02-19 12:54:49.581,771,-66,587,5,-8,-1,-5,-9,13,761,92,O,6.4151721586294315,52.54260559682389,1564.8058007408886,-133.95224753423946,-17.363171251493554
2025-02-19 12:54:49.690,789,-54,647,-10,2,-15,-6,-9,16,770,114,O,4.770970391058822,50.549838123977764,1561.1775772742408,-106.84865547884537,13.794813059019361
2025-02-19 12:54:49.795,984,-5,474,45,-1,91,-4,-8,14,545,108,O,0.6043634443972675,64.27829658416117,1884.9126883249144,-9.577808375634728,40.02376598982789
2025-02-19 12:54:49.904,654,-78,613,0,4,-80,-5,-8,15,761,113,O,7.2515222803504225,46.62380472504717,1380.860073071679,-164.6897334856131,-68.29239264975422
2025-02-19 12:54:50.011,765,63,596,-40,74,62,-5,-8,13,740,64,O,-6.034025946957915,51.92394837481579,1552.19286062834,127.82764734586327,-17.29012409737311
2025-02-19 12:54:50.121,740,-54,646,6,-31,-20,-4,-6,13,640,54,O,4.778321623664777,48.78106907275919,1492.1972322140027,-108.8900682966975,-10.647854067899743
2025-02-19 12:54:50.935,783,-36,619,-2,0,-1,-6,-8,13,752,80,P,3.3284769151737255,51.624824949404925,1566.9625128676507,-72.04425346517935,-0.7609137485004567
2025-02-19 12:54:51.035,765,-39,620,-1,-1,-2,-5,-9,13,753,81,P,3.5993470374863943,50.921352267711484,1541.2813854692772,-78.57512945529649,-9.143083648303332
2025-02-19 12:54:51.140,738,-42,614,2,-11,-10,-6,-9,15,750,89,P,3.9131595249873983,50.174512625472055,1505.998702083798,-85.70724320802101,-24.958269755354763
2025-02-19 12:54:51.248,805,0,585,-7,4,-11,-5,-9,15,712,110,P,0.0,53.993792398755566,1613.953307162034,0.0,-2.872900235763609
2025-02-19 12:54:51.359,724,-144,697,3,-17,87,-3,-9,14,373,111,P,11.673058758027212,45.4900604324459,1437.1288459587236,-285.83778151665217,10.465738075648915
2025-02-19 12:54:51.465,867,22,552,28,5,-42,-4,-7,16,580,108,P,-2.2823195233051177,57.49537871693535,1710.3481063072413,43.39983660756553,15.058645119264952
2025-02-19 12:54:51.572,472,57,906,-9,-12,-20,-7,-9,13,749,111,P,-3.5999566286632785,27.471874784707257,933.313143863297,112.70942627162697,20.513329787823864
2025-02-19 12:54:51.682,662,-42,660,6,-13,40,-3,-10,14,742,114,P,3.6411852579013417,45.028791590791435,1369.4620187484297,-86.88429726198495,-45.32467125976382
2025-02-19 12:54:51.784,1194,74,545,-29,76,37,-4,-9,13,643,79,P,-7.732323698357732,65.2674406341214,2102.270570304316,130.29147588150704,130.42088708890088
2025-02-19 12:54:51.895,557,-123,702,16,-40,-17,-5,-6,14,665,49,P,9.938123972224881,38.009098374791364,1172.7866009885897,-258.98160129550547,-74.09011471093334
2025-02-19 12:54:52.707,793,-25,602,-3,1,-1,-5,-7,13,719,81,Q,2.378026421164965,52.77254584576804,1589.240123626401,-50.10214765530899,-2.459715539840431
2025-02-19 12:54:52.805,789,-31,605,-2,0,-1,-5,-8,15,720,81,Q,2.9332515087503372,52.48296900139328,1582.172352736376,-62.163932743761286,-3.199332579857355
2025-02-19 12:54:52.915,846,-5,588,9,-23,-8,-5,-8,15,764,100,Q,0.4871972669649197,55.19835874494501,1667.1328605328367,-9.853031090619602,17.283543743134715
2025-02-19 12:54:53.022,797,-19,600,-8,5,-32,-7,-8,15,747,114,Q,1.8137602471258893,53.01292430292595,1595.7712421293281,-38.04222534561761,-1.3334319668720127
2025-02-19 12:54:53.128,980,96,554,48,-2,90,-5,-9,15,365,106,Q,-9.830886466217892,60.155779640246735,1847.3816349921426,180.9679968971895,63.66385123913568
2025-02-19 12:54:53.238,668,-110,654,-2,-8,-66,-5,-9,16,758,114,Q,9.5475414503597,45.20718847670609,1377.6591361823384,-226.8600373952952,-40.78604051384593
2025-02-19 12:54:53.345,620,49,590,-15,33,36,-6,-8,13,604,82,Q,-4.747567689320673,46.321918911703776,1343.231395025297,106.15861025199928,-98.23632752407298
2025-02-19 12:54:53.452,1093,-150,647,4,-20,5,-4,-9,14,430,108,Q,13.052811334100856,58.71508340201062,1947.595566540936,-267.2820997082712,141.12320992499025
2025-02-19 12:54:53.558,1084,3,495,4,67,12,-5,-8,16,662,101,Q,-0.3472428970857645,65.45616897701582,1993.6437661112914,5.517464297355971,79.61839093626486
2025-02-19 12:54:53.668,651,-139,671,6,-8,-16,-6,-5,12,517,48,Q,11.703486304092827,43.5319181027717,1339.7585575048197,-286.06211903712745,-38.91857463246413
2025-02-19 12:54:54.585,758,-67,616,4,-8,-8,-6,-6,15,681,74,R,6.207444677487597,50.73545335704123,1532.2319835852722,-135.43475316650824,-13.191163441329536
2025-02-19 12:54:54.676,785,-12,613,2,0,-7,-7,-7,14,695,85,R,1.1214707147311107,52.0086927265142,1573.1041506636861,-24.047451984667813,-2.424005550113975
2025-02-19 12:54:54.785,817,-8,598,-3,4,-5,-4,-8,15,696,89,R,0.7664530010109224,53.79543806318245,1623.913285079785,-15.901231677647836,7.382932095824344
2025-02-19 12:54:54.893,809,-27,618,2,-4,-16,-5,-8,15,712,97,R,2.501622814281763,52.597214636318554,1603.385092769092,-53.51223424569281,11.164416154142373
2025-02-19 12:54:55.000,781,-8,610,-2,1,0,-6,-10,13,731,94,R,0.7513769830242889,52.0059963250403,1569.0751817214586,-16.07247305220444,-5.52607023058863
2025-02-19 12:54:55.110,766,-19,614,-4,-1,-7,-6,-9,15,746,96,R,1.7724308367296686,51.27212117157602,1546.12608605063,-38.35038594642555,-11.322998479225589
2025-02-19 12:54:55.217,784,-202,588,-6,9,2,-6,-9,13,684,111,R,18.959514039340682,51.5847826950809,1567.5284577599461,-403.8785056983536,0.353656680040217
2025-02-19 12:54:55.321,810,8,600,28,6,34,-5,-7,15,318,112,R,-0.763898460929995,53.46870885923858,1613.531888142951,15.936117413757536,4.791193968184643
2025-02-19 12:54:55.434,654,-157,731,-4,-3,-29,-3,-11,14,790,109,R,12.121518298565869,41.176766007318015,1312.384294448299,-315.05249882015744,-4.900488137166121
2025-02-19 12:54:55.536,731,50,671,-8,3,31,-5,-10,15,678,111,R,-4.261556253010584,47.371501060816584,1466.7603177504775,100.32560312930762,-4.369593995308378
2025-02-19 12:54:55.646,730,-8,598,-13,-43,64,-5,-8,16,312,112,R,0.7664530010109224,50.673904132506365,1503.551650574875,-16.477278362464386,-35.676557594212795
2025-02-19 12:54:55.753,1166,67,481,11,96,15,-4,-7,17,673,92,R,-7.929884953004662,67.38806692347114,2089.130159336702,120.04435735468184,100.1890166029558
2025-02-19 12:54:55.855,600,-150,694,-5,-17,-16,-4,-6,12,429,44,R,12.196205331338867,40.199155313336156,1245.4464273424069,-311.3616068356018,-52.566367626050805
2025-02-19 12:54:56.875,735,-98,636,1,-5,-4,-5,-6,15,548,62,S,8.759700962566246,48.79725680922065,1487.3833714896828,-198.317782865291,-15.041937778827446
2025-02-19 12:54:56.974,790,-68,621,-2,-4,-5,-5,-8,15,559,67,S,6.249037144433687,51.663948033534254,1574.3862344211398,-135.5167897982753,4.412846106926963
2025-02-19 12:54:57.081,764,-54,611,-3,-3,-8,-5,-8,15,565,69,S,5.05066120183058,51.24056919331666,1543.7814463841619,-109.1154425454774,-12.621025838642481
2025-02-19 12:54:57.187,767,-46,612,-3,-7,-7,-5,-8,15,632,76,S,4.298462903765621,51.33443824429038,1547.806075161958,-92.82800450775758,-11.016059972774997
2025-02-19 12:54:57.295,780,-56,586,3,-17,-9,-5,-7,15,743,92,S,5.458787749327772,52.95797256643884,1578.1938536294517,-113.30622538878114,-13.668715675459907
2025-02-19 12:54:57.404,841,-98,607,-1,8,-19,-7,-9,19,760,116,S,9.17124989635391,53.829238217129266,1648.26159499706,-192.06853306743386,24.351024776200575
2025-02-19 12:54:57.511,967,-78,594,48,6,60,-5,-9,14,704,111,S,7.480886179523676,58.21995155888555,1817.0761382096919,-146.56870608102997,71.82293061369478
2025-02-19 12:54:57.617,785,62,563,-4,-15,37,-6,-6,15,447,118,S,-6.284337036060895,54.18830033846907,1595.944355118671,126.04910830236635,-18.6072253908427
2025-02-19 12:54:57.727,701,-44,541,-43,77,57,-5,-5,12,367,60,S,4.649681447235415,52.24927757507684,1491.681854420948,-93.62910355851885,-69.21238693542489
2025-02-19 12:54:57.833,739,-87,647,4,-17,-20,-5,-3,12,379,47,S,7.658440647078806,48.543034650925115,1488.4532009825052,-175.23062041336664,-9.151855258025648
2025-02-19 12:54:58.745,785,-20,613,-2,-4,-6,-6,-8,13,713,74,T,1.868693714372303,51.99923130130481,1573.0024936224754,-40.07649665280192,-2.3446224083789957
2025-02-19 12:54:58.845,813,14,604,1,-4,-3,-5,-11,13,736,85,T,-1.3278101117469612,53.382963965986,1615.640161251322,27.821601792765698,7.696608369251521
2025-02-19 12:54:58.952,792,5,619,-1,3,-4,-6,-10,14,743,87,T,-0.46279913926677324,51.98913143866931,1579.8939532623738,9.974077987767508,3.2091451143821814
2025-02-19 12:54:59.055,705,-8,627,1,-9,-21,-5,-9,14,663,99,T,0.7310069618353912,48.34901529616602,1452.2069991391804,-16.478944671082896,-37.53728859612204
2025-02-19 12:54:59.165,649,31,625,-8,-68,39,-4,-11,15,813,114,T,-2.8395436123249755,46.04405593692673,1368.8737251510315,65.38533972216018,-68.2528169790362
2025-02-19 12:54:59.275,922,85,578,-13,74,1,-4,-9,15,786,98,T,-8.36588612403259,57.639995986021894,1766.701759888566,162.87380649731895,48.458115818231136
2025-02-19 12:54:59.386,862,125,302,-18,1,-13,-6,-8,16,748,112,T,-22.485019869839668,69.23462900679307,1797.0401288056757,260.59166601010384,-25.589465080410832
2025-02-19 12:54:59.489,878,143,437,6,1,31,-7,-9,15,0,116,T,-18.119706999771545,62.3592803040387,1763.8740943150428,287.2824549966414,-3.919110724001996
2025-02-19 12:54:59.599,606,-184,669,-26,59,16,-6,-7,13,443,51,T,15.37824179147106,41.13387953857688,1263.8207200341446,-383.7343440367699,-57.208022611951606
2025-02-19 12:54:59.705,763,-66,644,3,-11,-9,-4,-7,14,413,45,T,5.851498551591725,49.68680736886146,1525.5193829957968,-131.9584263141843,0.40565838886857364
2025-02-19 12:55:00.525,755,-62,632,-1,0,-2,-6,-7,14,593,62,U,5.602860679980772,49.9326595060761,1520.288437349102,-124.84487829886666,-8.612307820705382
2025-02-19 12:55:00.619,764,-64,638,1,-1,-3,-6,-7,14,628,63,U,5.728375812134456,49.99428473251616,1529.9803210927053,-128.16589077216378,-1.6537236350078501
2025-02-19 12:55:00.725,775,-41,619,5,-6,-7,-3,-8,14,642,71,U,3.7895001930724006,51.32413137886539,1555.693672820846,-82.30121365890928,-4.547591582069344
2025-02-19 12:55:00.832,758,-10,628,5,0,-12,-6,-8,13,652,83,U,0.9122760766042207,50.35481798456116,1528.010346676473,-20.158447845336052,-9.95052468710412
2025-02-19 12:55:00.942,863,35,513,-11,1,-15,-6,-9,15,554,114,U,-3.903020345524984,59.21267288759522,1722.073131410155,69.84074113482666,2.3342799381119335
2025-02-19 12:55:01.049,857,212,574,17,-27,34,-4,-9,14,519,110,U,-20.27110298812691,54.47313310759304,1670.8431281099256,413.3240877004717,28.90553613174177
2025-02-19 12:55:01.160,779,-97,591,-18,3,-48,-5,-8,15,818,113,U,9.32077376813079,52.44635614512042,1571.7830325264254,-195.7162441014933,-10.456703752397289
2025-02-19 12:55:01.266,782,235,553,-6,-20,73,-4,-8,15,365,113,U,-23.023298028842603,52.462603004312044,1574.955832314011,473.292353700502,-7.747538707989975
2025-02-19 12:55:01.369,877,-41,512,-21,80,6,-5,-7,15,680,73,U,4.578368999335576,59.64346307162812,1739.8972849168447,-81.34069404970427,8.23328406222987
2025-02-19 12:55:01.479,697,-53,648,0,-23,-18,-5,-6,13,575,54,U,4.675820919781781,46.9911718698357,1428.2486106730437,-108.60427025203919,-31.840889119271424
2025-02-19 12:55:02.395,777,-37,626,-3,1,-2,-5,-8,14,705,69,V,3.3825564901942475,51.09408134435222,1555.1782757722053,-74.056108370105,-0.9492929644792412
2025-02-19 12:55:02.490,762,-27,625,-3,1,-1,-5,-8,12,743,71,V,2.4736396382774966,50.614861195341994,1534.898181864882,-54.38615605033047,-8.938797461353374
2025-02-19 12:55:02.597,799,-8,614,-2,1,-9,-4,-8,14,738,79,V,0.7464825746891965,52.45679281635641,1591.8940431239528,-15.938864011253598,4.692187136286407
2025-02-19 12:55:02.705,701,-23,634,5,-14,-28,-3,-10,13,714,91,V,2.077642398011436,47.85436312198653,1442.4416016230712,-47.32689991060006,-36.57628449219294
2025-02-19 12:55:02.815,845,-236,635,3,-20,68,-8,-9,13,736,108,V,20.38776162406189,51.280824990872965,1625.2211155261587,-453.9079091883708,48.679990107561366
2025-02-19 12:55:02.925,893,63,495,18,-32,-42,-4,-8,15,698,112,V,-7.253194612725333,60.8042949402026,1765.958645190858,124.58610822735056,11.109149642245598
2025-02-19 12:55:03.025,813,-7,533,0,4,-10,-6,-10,14,829,112,V,0.7524341462386939,56.74902373769856,1649.2768133626714,-14.200415367206274,-15.260198674420508
2025-02-19 12:55:03.137,649,-84,677,-14,26,22,-4,-9,12,711,60,V,7.0729292909662265,43.57170888851478,1338.2618831367654,-173.2110911918155,-41.998913534037
2025-02-19 12:55:04.255,755,-25,642,3,-1,-1,-6,-9,13,543,74,W,2.2300173279507547,49.60302761441289,1516.5725543216179,-50.21763424906019,-5.588847515865609
2025-02-19 12:55:04.345,745,-4,634,7,-9,-6,-5,-8,12,570,82,W,0.36148277164049103,49.60143084459647,1506.554492764694,-8.088883182629228,-14.087984446732662
2025-02-19 12:55:04.457,740,29,626,9,-3,-28,-5,-8,13,569,96,W,-2.6523809968543324,49.74029871506284,1503.123057541291,58.90617387661817,-19.560856784930138
2025-02-19 12:55:04.564,770,26,632,0,5,-5,-6,-12,12,544,111,W,-2.3557764514927038,50.59780277718606,1542.7092317931033,52.09148055405285,-2.223681160053843
2025-02-19 12:55:04.675,715,162,609,-4,-31,71,-5,-8,13,499,105,W,-14.89627717670904,48.60806048844813,1465.20409692459,331.97631286962735,-29.985028009895586
2025-02-19 12:55:04.779,760,52,553,9,-3,-60,-4,-7,15,736,109,W,-5.371872482361937,53.83911905128991,1567.3633637358053,107.24065120297612,-34.463079139342426
2025-02-19 12:55:04.891,891,-128,584,27,-1,30,-6,-10,13,737,109,W,12.362492415714312,56.13830623905837,1721.3849912107962,-247.29211994947468,39.72970273052192
2025-02-19 12:55:04.994,870,77,571,-10,-28,8,-5,-7,15,426,115,W,-7.680071121971755,56.484984648374805,1703.7411487846139,150.79088328323596,23.79747591262685
2025-02-19 12:55:05.099,811,-1,573,-5,5,-12,-4,-9,17,749,114,W,0.09999253288676586,54.757410097294176,1627.7161908629523,-2.007048324122013,-4.0386897219134426
2025-02-19 12:55:05.205,565,-113,694,-17,25,18,-4,-7,14,503,55,W,9.247983139566212,38.78323898311767,1191.3758009789049,-238.27516019578098,-75.38903695461943
2025-02-19 12:55:06.029,810,-34,586,-2,-2,-4,-4,-6,15,546,83,X,3.3206057076233164,54.07015266128618,1619.7360690552218,-67.98892141713276,0.19094263412364398
2025-02-19 12:55:06.124,788,-34,575,2,-10,-7,-7,-8,14,549,89,X,3.383984094276967,53.83431748257446,1595.313912449268,-68.8333414000953,-14.093273678082483
2025-02-19 12:55:06.230,800,-28,573,-2,0,-2,-6,-6,15,572,94,X,2.797568455940072,54.35551729386517,1612.6485734188755,-56.44270006966063,-9.059540711269392
2025-02-19 12:55:06.338,792,-30,593,2,-6,-15,-7,-8,15,679,93,X,2.8961369679329563,53.141291445551936,1592.1171566356304,-60.307468054379925,-6.077618541576612
2025-02-19 12:55:06.448,783,-61,593,3,1,-13,-7,-12,15,670,115,X,5.873174615962447,52.71653270263047,1578.6483057470077,-122.98537247837477,-9.579112781577805
2025-02-19 12:55:06.550,940,217,408,1,17,39,-5,-6,14,15,110,X,-28.006847705961825,63.82058385172718,1837.4169253888494,424.1696519248727,18.482866426967462
2025-02-19 12:55:06.665,565,-223,675,-5,-31,-43,-6,-8,14,657,97,X,18.28202450763817,38.47721050575111,1187.2033036706587,-468.57758711249005,-68.34023004901678
2025-02-19 12:55:06.767,604,106,625,-26,-66,98,-4,-9,13,1,116,X,-9.62576926845338,43.61522588005671,1293.8119620728305,227.05971519821196,-88.7954905554949
2025-02-19 12:55:06.878,1110,-46,519,-13,121,14,-2,-8,15,536,81,X,5.065003387877553,64.8546162879387,2015.2325086351002,-83.51413999749062,95.74263785439945
2025-02-19 12:55:06.984,642,-88,667,5,-27,-23,-5,-5,11,547,46,X,7.515855390240931,43.65890491694079,1332.363689199411,-182.62929073138343,-50.24701042991762
2025-02-19 12:55:08.095,772,16,618,-3,1,-6,-5,-7,13,670,88,Y,-1.4830545774750703,51.312728970701585,1552.5692935174993,32.17760193818651,-6.859874862454035
2025-02-19 12:55:08.195,781,4,614,3,-15,-12,-4,-10,12,681,104,Y,-0.37325712687132734,51.82598645426025,1567.1372909631266,8.026311349363004,-4.038792127220972
2025-02-19 12:55:08.307,848,-108,603,19,-2,8,-4,-11,14,643,111,Y,10.154266580200265,54.15564903572541,1658.6107776519732,-211.23816507831737,26.586911646061594
2025-02-19 12:55:08.410,888,66,572,28,-8,16,-6,-7,16,540,0,Y,-6.5819446551780105,57.0399023748048,1727.0496663079325,128.36179952288688,31.53107080164716
2025-02-19 12:55:08.519,603,-90,681,21,-60,-30,-4,-10,15,791,89,Y,7.528501083960548,41.27762225213146,1262.7081998682388,-188.46391042809535,-64.04358890592164
2025-02-19 12:55:08.626,516,-105,617,-1,13,11,-3,-11,15,709,117,Y,9.657972914244752,39.5039295413401,1152.131139445822,-234.44529000351028,-143.64518030634167
2025-02-19 12:55:08.733,919,-149,605,-18,-3,49,-4,-8,16,37,116,Y,13.835519487377448,55.86290681869033,1746.6972044732527,-283.1968264053478,60.10684580378927
2025-02-19 12:55:08.839,866,-64,488,37,15,19,-5,-8,14,191,123,Y,7.471559176592376,60.3888789537777,1735.399039567428,-128.2511992290016,-1.9153941211371261
2025-02-19 12:55:08.950,538,-167,684,-7,9,-13,-4,-4,15,425,52,Y,13.72045869705861,37.38363009501191,1145.1488437359926,-355.4644180370089,-87.91414333721013
2025-02-19 12:55:10.068,786,-18,600,3,0,-10,-5,-10,14,772,87,Z,1.7183580016554572,52.63094750086607,1580.742570061768,-36.200211528132094,-6.673717604403009
2025-02-19 12:55:10.155,740,-17,614,4,-1,-9,-6,-9,14,793,100,Z,1.5859600551684612,50.30570871793861,1509.4631954495342,-34.67685719275957,-24.44648919731617
2025-02-19 12:55:10.274,1122,-17,539,50,-9,-15,-6,-9,14,751,111,Z,1.8065036513712598,64.32961608807055,2023.301058556744,-30.65607664479914,106.02204049725088
2025-02-19 12:55:10.375,784,-23,610,27,-5,33,-4,-11,15,801,0,Z,2.1593097890821022,52.09517209718745,1573.03232064243,-46.147631855581494,-3.915453561074628
2025-02-19 12:55:10.478,912,-1,462,5,7,-2,-6,-7,13,0,112,Z,0.12401664509760865,63.13413223206307,1804.0668956761483,-1.978143525960689,10.097691006161767
2025-02-19 12:55:10.585,785,-77,611,15,-27,10,-4,-6,16,332,0,Z,7.182716006650324,51.88580363924645,1571.7821128312125,-154.1748059719788,-1.3870967386890243
2025-02-19 12:55:10.699,765,-42,547,-25,54,19,-4,-5,14,318,0,Z,4.390695320165418,54.354280111173985,1577.635989872604,-86.61530924790766,-34.06128949060678
2025-02-19 12:55:10.805,800,-42,592,-1,7,-3,-5,-4,15,364,66,Z,4.058103802731542,53.42975878138598,1603.1270393639043,-84.16416956660495,-2.3140091292890475
2025-02-19 12:55:10.913,740,-68,622,-6,1,1,-4,-6,13,274,57,Z,6.239069755047557,49.78385497396062,1503.6141187533894,-138.16994604760876,-19.848624141362507
2025-02-19 12:55:12.128,793,-32,601,0,-9,-7,-6,-8,14,491,73,a,3.0478124283500656,52.803137976135,1589.5630295232063,-64.14377924936016,-2.700354027045364
2025-02-19 12:55:12.225,770,-13,622,-9,-2,-11,-7,-8,14,664,87,a,1.1973258952015238,51.06287658527514,1547.8361117213185,-26.132297990100184,-6.32994998787035
2025-02-19 12:55:12.333,777,-41,603,-4,4,-1,-5,-8,15,712,92,a,3.889746081747664,52.12230918143079,1566.323208423923,-82.65025938916455,-9.563571016249284
2025-02-19 12:55:12.440,770,-49,617,2,-4,7,-5,-7,13,740,94,a,4.540702039528656,51.20692660880769,1549.4137107055426,-98.59905431762544,-7.543194162752911
2025-02-19 12:55:12.551,817,-48,603,-2,3,-2,-6,-10,16,750,91,a,4.551261273139618,53.483724194261924,1620.6878590195856,-95.2178913499879,9.825239915777274
2025-02-19 12:55:12.653,826,-32,599,-2,-6,7,-6,-9,13,748,92,a,3.057969481641476,54.012259017602176,1635.1427385180245,-63.34693417987505,12.22457582046411
2025-02-19 12:55:12.763,772,-26,586,-1,-3,2,-6,-7,15,699,94,a,2.5404674046103364,52.7719171151975,1568.2334848718524,-52.81615363558052,-18.39484732500705
2025-02-19 12:55:12.870,785,-42,594,3,-10,2,-4,-9,15,734,103,a,4.0444855741811025,52.81688000444617,1581.7080053998484,-84.62641557553331,-8.859305996828084
2025-02-19 12:55:12.981,755,-92,649,-16,2,-20,-5,-10,14,639,114,a,8.068294633241102,49.03559858517271,1510.1170522153432,-184.0142633163067,-0.10061839438117204
2025-02-19 12:55:13.087,879,160,613,-35,-47,78,-4,-9,15,184,114,a,-14.628483495129592,54.217923009760696,1690.246763150013,307.66721513538357,47.24998201256176
2025-02-19 12:55:13.194,825,-239,605,-7,3,-22,-5,-8,13,614,6,a,21.55606793913358,51.74489598054225,1610.261777671931,-466.4879574104139,29.141363040583883
2025-02-19 12:55:13.301,949,70,549,9,-12,28,-5,-7,15,410,118,a,-7.266265183024641,59.74980965144296,1812.8338315571646,133.71798546786252,49.26894254490685
2025-02-19 12:55:13.405,543,-197,718,-5,34,-2,-5,-5,14,674,43,a,15.342861022696015,36.10378939011141,1132.2497943615772,-410.77939132455015,-61.15534503059382
2025-02-19 12:55:14.325,754,-56,637,-3,-3,-1,-4,-7,11,658,71,b,5.024075258539548,49.6991911752833,1516.659199111924,-112.64312354146915,-7.315530284211491
2025-02-19 12:55:14.422,772,-72,642,-3,-3,-1,-4,-8,14,676,72,b,6.398956627368915,50.07674498794961,1538.9047392834182,-143.52479433731358,4.23725049228733
2025-02-19 12:55:14.529,766,-53,636,-2,-3,-1,-4,-7,14,715,75,b,4.763641690726178,50.200115969685996,1534.2848192078131,-106.15808801307324,-1.8970561568788753
2025-02-19 12:55:14.635,766,-54,625,-2,-1,-7,-6,-7,12,737,79,b,4.938092161550434,50.683667098218514,1539.659624891222,-108.53997355630023,-6.249693938659902
2025-02-19 12:55:14.735,777,-48,627,-4,3,-4,-5,-7,13,749,82,b,4.377740928740087,51.0163731552794,1554.3257677593408,-96.02012464922569,-0.2628782305105233
2025-02-19 12:55:14.850,753,-42,636,-4,-11,-19,-4,-9,13,765,88,b,3.778197707161587,49.753380812363325,1516.2705938438048,-84.57286180802097,-8.674764521460588
2025-02-19 12:55:14.959,783,-35,602,-8,-4,-11,-6,-10,15,755,113,b,3.3274042417265695,52.398832938121245,1575.2772150998385,-70.41469033013328,-7.132673678292235
2025-02-19 12:55:15.065,825,254,562,-1,-21,64,-4,-8,15,59,113,b,-24.320936655950277,53.21984380177982,1625.9387885599808,500.5920633869516,16.390788883988762
2025-02-19 12:55:15.168,821,-92,600,4,5,-29,-5,-9,13,718,109,b,8.71745696459966,53.52235989259209,1625.088931219245,-182.10497158607865,12.358880960356828
2025-02-19 12:55:15.279,662,14,738,-12,-20,41,-5,-7,15,471,114,b,-1.0867814529981954,41.88758415510917,1329.6712494357666,28.119935788671807,-6.3223294314137775
2025-02-19 12:55:15.385,1262,24,612,-23,86,35,-5,-6,13,652,78,b,-2.2457425658950716,64.11189960509695,2161.6484777328556,41.109004330894244,175.72038956219683
2025-02-19 12:55:15.495,524,-146,713,7,-39,-22,-4,-5,10,520,46,b,11.572401198992289,35.75325875454216,1108.2958237711962,-308.79998143243256,-82.04374494057811
2025-02-19 12:55:16.505,787,-47,596,1,-5,-3,-4,-8,15,595,91,c,4.508960086474124,52.77761340954681,1583.2936284384696,-94.55501974156047,-7.038122680213519
2025-02-19 12:55:16.609,756,-46,596,7,-9,-3,-5,-9,15,672,100,c,4.413407889831428,51.666422523781776,1540.4130220287475,-93.72883467370684,-22.399684033245308
2025-02-19 12:55:16.716,796,-81,603,-1,0,-2,-6,-7,15,686,111,c,7.650650955359412,52.60781306615941,1590.4974371835701,-161.84710101993613,1.1382479626976192
2025-02-19 12:55:16.822,791,-73,614,-6,4,-15,-4,-8,15,582,113,c,6.780211407067351,51.985276002288565,1578.8525135239297,-145.70952400410476,2.4431816641050546
2025-02-19 12:55:16.933,1005,32,511,9,-25,67,-5,-8,14,210,111,c,-3.583314854922985,63.0032633773333,1896.032380534367,60.371180275721144,57.947714972078074
2025-02-19 12:55:17.039,1061,-13,611,16,43,14,-6,-6,15,727,105,c,1.2188752351312977,60.05796492877248,1927.5307999411207,-23.617248255640497,111.98933198489658
2025-02-19 12:55:17.146,574,-159,691,-9,-9,-8,-3,-5,12,360,44,c,12.958276978916349,38.99106134515985,1203.1991416604828,-333.2903545714578,-66.4505346470271
2025-02-19 12:55:18.055,773,-75,604,-1,-2,-2,-5,-7,13,642,90,d,7.078311016256777,51.784090798962694,1558.6851506981425,-151.2307714131445,-9.9118124471903
2025-02-19 12:55:18.157,762,-66,602,3,-7,-4,-6,-6,16,655,96,d,6.256609340556053,51.52372664069444,1544.8658780335911,-133.807280774563,-16.484591307377627
2025-02-19 12:55:18.268,804,-67,617,-2,8,-22,-6,-8,15,609,113,d,6.197462341295069,52.334578709397185,1595.5924529614754,-132.96603774678965,9.521712092997063
2025-02-19 12:55:18.375,947,61,593,-23,-27,66,-5,-9,13,142,111,d,-5.873174615962447,57.8099022503943,1793.285248829929,115.51256618651072,63.06636477703489
2025-02-19 12:55:18.481,762,-176,605,2,6,-69,-6,-9,17,717,0,d,16.220193695602788,50.413442451560535,1532.6627708226556,-354.00084995378927,-6.877921716150354
2025-02-19 12:55:18.592,863,-238,745,-15,-12,87,-4,-9,13,343,0,d,17.716761948510907,47.81559475927875,1603.9873976841754,-442.3511015629591,105.32953502351029
2025-02-19 12:55:18.695,1087,-34,615,8,82,6,-6,-6,15,458,0,d,3.16435035272113,60.46231680122611,1957.031642768781,-61.21350124575763,122.75578628997243
2025-02-19 12:55:18.801,671,-85,671,2,-16,-9,-5,-6,11,422,0,d,7.219581092600667,44.771971363978096,1375.2870093488718,-174.21668523793454,-33.28700934887161
2025-02-19 12:55:19.616,780,-55,614,0,0,-4,-6,-8,13,601,84,e,5.118696536562346,51.67957768234048,1564.5554087030414,-110.32121471624009,-3.585924286753084
2025-02-19 12:55:19.722,698,-89,632,13,-20,-19,-6,-7,14,570,105,e,8.015841035293718,47.56089000882772,1435.994891083987,-183.0996351095628,-36.213139204985396
2025-02-19 12:55:19.825,777,48,646,-4,-34,10,-5,-9,15,242,114,e,-4.2494626012072265,50.18220989412001,1545.084735111238,95.44925004548189,7.412176471222892
2025-02-19 12:55:19.935,720,-103,648,-13,39,-40,-6,-7,15,389,155,e,9.031642926619172,47.65713582000532,1459.1273932021934,-208.73627986086933,-17.214653881973845
2025-02-19 12:55:20.042,884,112,559,16,-22,33,-4,-7,14,88,111,e,-11.329642063718552,57.181204620235256,1724.38885562731,218.47460614282664,27.577635412142058
2025-02-19 12:55:20.148,552,-137,661,-27,56,21,-4,-6,12,421,53,e,11.709431725596753,39.273534498019295,1185.0233604252644,-294.1090586562703,-97.02253848025293
2025-02-19 12:55:20.255,784,-94,648,-3,-17,-11,-6,-4,14,264,51,e,8.253851145562438,50.13198719405109,1551.5231419321958,-186.02445834391125,13.618627586654156
2025-02-19 12:55:21.266,781,-65,603,5,-2,1,-5,-5,17,491,89,f,6.152405813928508,52.168523671133016,1570.8181831211816,-130.73390768614186,-6.808405149900636
2025-02-19 12:55:21.366,796,-60,591,1,-5,5,-6,-5,13,458,96,f,5.796968619070012,53.266802239480164,1597.4292395575028,-120.40923916262585,-4.031005751864541
2025-02-19 12:55:21.475,849,13,687,-10,-14,2,-4,-7,16,425,114,f,-1.0840702320953197,51.01564079560133,1626.3177265064096,24.902391571947376,58.00438385170389
2025-02-19 12:55:21.585,764,-167,614,3,-1,-41,-6,-11,14,745,0,f,15.215631611092341,50.21040670309266,1532.399774834213,-334.96173088653615,-3.5359446966058385
2025-02-19 12:55:21.685,650,21,676,10,31,29,-5,-8,14,644,0,f,-1.7793262497070537,43.86289152651564,1342.9350071113015,43.38713099898051,-44.65240739575347
2025-02-19 12:55:21.800,811,193,478,-1,-8,-15,-4,-10,13,686,108,f,-21.987166045758425,57.558885205541664,1654.9432049841416,393.83975161768115,-19.41658690803922
2025-02-19 12:55:21.905,713,13,633,19,-13,13,-4,-9,13,603,0,f,-1.1765251840718687,48.395396330055114,1460.74474214584,26.633494597329484,-30.84631385458181
2025-02-19 12:55:22.012,666,-61,611,-22,41,16,-4,-6,14,456,65,f,5.701308454464225,47.32461989724242,1401.2059313292864,-128.33868139802772,-63.490726790080885
2025-02-19 12:55:22.932,783,-11,582,2,-7,-1,-4,-8,13,423,101,g,1.0827810029258156,53.371862725560185,1585.5245794661455,-22.27429166555249,-14.512522668322731
2025-02-19 12:55:23.028,785,-1,633,-6,6,-22,-5,-9,13,432,112,g,0.0905145842792617,51.118322005701,1563.4439183342197,-1.9916483036104706,5.2866238145719535
2025-02-19 12:55:23.130,868,14,554,13,16,33,-4,-8,16,1,109,g,-1.4475996868564656,57.443697555416385,1710.8630542334754,27.594565390862506,16.043626675869405
2025-02-19 12:55:23.245,764,-19,631,20,-14,-7,-6,-7,14,565,113,g,1.7247083738224265,50.43339883439365,1534.8846788003893,-38.17121583404109,-5.6861679621015355
2025-02-19 12:55:23.352,793,-104,548,-1,13,-22,-5,-8,14,540,0,g,10.74585722957785,54.87816577659266,1610.93053554687,-211.26957843237642,-17.228163278290936
2025-02-19 12:55:23.449,589,-80,547,1,23,22,-3,-5,16,0,0,g,8.320647861367815,46.81492601630374,1318.1469327694313,-179.03523704847967,-130.15343331897975
2025-02-19 12:55:23.563,677,-122,652,-8,49,17,-5,-6,9,258,52,g,10.598430687567516,45.58494658096841,1391.288831218702,-250.71970075137617,-35.9118433598137
2025-02-19 12:55:23.666,713,-61,668,0,-22,-5,-4,-4,10,339,46,g,5.21762870921211,46.74761389280755,1441.3424345127087,-123.31260659926397,-14.374118168989298
2025-02-19 12:55:24.685,788,-14,614,2,-8,-11,-6,-9,12,646,75,h,1.3061920939187586,52.067493347932405,1576.735444311002,-28.01306626948481,-0.5730492474051516
2025-02-19 12:55:24.785,792,-6,616,1,-2,-12,-5,-8,14,715,88,h,0.5580581267716016,52.123699266808956,1581.3381042576243,-11.97983412316382,2.07036335518103
2025-02-19 12:55:24.896,775,-36,631,4,-16,-23,-6,-9,15,756,109,h,3.265316123810232,50.8021520091598,1549.968226954029,-71.9985240907678,0.025869409042229563
2025-02-19 12:55:25.002,758,-42,657,23,-4,55,-4,-10,11,651,108,h,3.6577666389743837,49.02490537226135,1512.9946851426612,-83.83347859629524,2.6048705293818557
2025-02-19 12:55:25.105,848,18,467,6,-20,-29,-6,-6,15,608,107,h,-2.207309985728299,61.14011693332951,1723.8026934472805,36.59015151185265,-15.311153113065984
2025-02-19 12:55:25.216,766,146,580,-16,-12,56,-5,-8,16,428,113,h,-14.129180579464615,52.01724295729247,1554.1959990101486,296.2305690019343,-16.80637000768411
2025-02-19 12:55:25.326,655,-133,614,-23,65,20,-5,-6,11,651,55,h,12.222151596399408,46.194660406812105,1376.6957217318939,-279.5427954051021,-62.520875028065234
2025-02-19 12:55:26.340,778,-48,603,-1,-1,-1,-5,-7,14,581,87,i,4.551261273139618,52.134363700180145,1567.4523664054882,-96.70657273452885,-8.876319977518506
2025-02-19 12:55:26.437,801,-43,599,2,-6,-4,-5,-8,14,611,95,i,4.106009155260357,53.13965210563665,1601.0999936510184,-85.95168505242668,0.6730384557305342
2025-02-19 12:55:26.541,781,-18,593,0,-3,-8,-7,-8,14,611,101,i,1.7386297831624882,52.77850876796202,1577.3030812454863,-36.35269585456946,-11.61936898664942
2025-02-19 12:55:26.648,813,-96,576,-13,0,-10,-6,-9,14,599,111,i,9.462322208025617,54.31183287038728,1625.2040239905944,-191.9060102129115,0.5639387225310202
2025-02-19 12:55:26.755,858,96,502,12,-3,25,-4,-7,14,278,118,i,-10.826249739628539,59.21842018740574,1717.124470693084,192.1258149027227,-0.6579070954874169
2025-02-19 12:55:26.870,280,-397,770,13,-97,-75,-6,-8,14,773,110,i,27.274926420593253,17.911169494479395,587.5421200102638,-833.0507915859812,-75.74083002822545
2025-02-19 12:55:26.975,1018,-16,561,7,37,31,-6,-11,15,758,101,i,1.633661374247952,61.131848213891274,1893.7330272432132,-29.76397685254559,78.40056160762038
2025-02-19 12:55:27.079,529,-125,720,2,-13,2,-4,-7,11,609,47,i,9.84901451111703,35.900547307322526,1115.3800944817863,-263.55862345977937,-78.09767112832924
2025-02-19 12:55:27.185,869,-25,607,2,-8,-2,-6,-7,14,621,70,i,2.358460276134707,55.04274838208038,1688.5797616415946,-48.57824400579962,34.52023553918525
2025-02-19 12:55:27.291,789,-32,625,0,0,2,-4,-9,14,646,70,i,2.9309845655843816,51.579268148216904,1572.4686504898104,-63.77566136333831,4.3816139972987
2025-02-19 12:55:27.397,779,-42,618,0,-1,2,-4,-8,12,655,65,i,3.8879095608330716,51.5098685737015,1561.715366606308,-84.20031501600121,-2.9474923783035365
2025-02-19 12:55:27.505,780,-42,614,0,0,2,-4,-6,15,656,70,i,3.9131595249873983,51.725889789420286,1565.0563450410277,-84.27226473297841,-3.980251096398547
2025-02-19 12:55:27.615,770,-55,620,2,-4,0,-5,-6,14,649,68,i,5.069420132612497,51.049422656911254,1547.6885165417257,-110.54917975298041,-6.1907535790518295
2025-02-19 12:55:27.721,780,-51,628,-2,0,-1,-5,-7,12,660,68,i,4.642812494310253,51.069457739632135,1557.9082940964063,-101.8632346139958,1.6840914198164683
2025-02-19 12:55:27.828,750,-61,622,0,0,0,-6,-7,13,648,66,i,5.601128320174815,50.19515028779395,1518.2293397507642,-123.48265296639552,-15.118199099967342
2025-02-19 12:55:27.938,782,-53,625,-2,-1,-1,-5,-7,12,629,65,i,4.847085769774147,51.26685686909964,1562.0686009473857,-105.86909955270006,1.543637350235258
2025-02-19 12:55:28.045,774,-60,628,-3,0,-2,-5,-7,13,609,65,i,5.457553485104592,50.81775393042545,1549.140294967326,-120.08839495870744,-0.9252005678044952
2025-02-19 12:55:28.147,758,-67,623,-1,-1,0,-3,-6,15,601,64,i,6.138233542797239,50.42153653890512,1528.7527855066285,-135.1272251041479,-10.481511043046794
2025-02-19 12:55:28.256,772,-62,627,-1,-1,-1,-4,-7,13,599,65,i,5.647252914314846,50.78083561001084,1546.7330431200821,-124.21949310031746,-2.2197124822428123
2025-02-19 12:55:28.365,778,-59,621,-1,-2,-1,-5,-6,13,606,67,i,5.427269690739431,51.27753878976508,1558.1852384538233,-118.1657185973979,-1.7442584573576596
2025-02-19 12:55:29.384,780,-63,617,0,-2,-1,-3,-7,12,689,70,j,5.830093226323564,51.510438553540865,1562.72155801762,-126.21981814757699,-2.152822175476217
2025-02-19 12:55:29.478,765,-55,605,0,-4,-1,-5,-6,14,690,73,j,5.194428907734806,51.54652705661039,1548.113411976449,-111.30227144928716,-14.324985942158946
2025-02-19 12:55:29.585,779,-61,604,3,-7,-2,-6,-7,15,700,81,j,5.766940386516139,52.07081501628367,1567.7710815344456,-122.76512961951371,-7.576037544037376
2025-02-19 12:55:29.692,776,-63,612,1,-2,1,-5,-7,13,727,83,j,5.877392606643136,51.59165336675844,1559.6029625427104,-126.61725082498806,-5.996150871312693
2025-02-19 12:55:29.802,773,-64,605,-3,0,-1,-6,-5,15,720,84,j,6.038583058633821,51.79612358818036,1558.8150522460646,-129.06101338130418,-10.029892120141199
2025-02-19 12:55:29.905,781,-49,608,-2,-1,-2,-5,-8,15,702,86,j,4.607629061974702,52.00969371871253,1569.1149044359108,-98.44638965090863,-5.53887566841729
2025-02-19 12:55:30.015,794,-32,590,-3,3,-5,-6,-7,15,701,86,j,3.104525909264347,53.34466073127979,1596.2412355649856,-64.33214047617071,-6.123840029397343
2025-02-19 12:55:30.122,787,-76,613,-11,0,-9,-7,-6,15,754,85,j,7.067490485186145,51.87266815218206,1573.6405873586086,-151.96529179066613,0.27994910949564655
2025-02-19 12:55:30.230,820,20,585,0,-9,-14,-4,-8,15,779,102,j,-1.9580674292340414,54.479560681496416,1633.9083104165234,39.851422205281054,4.345900495529122
2025-02-19 12:55:30.335,811,-6,557,-3,0,-4,-4,-9,15,793,115,j,0.6171658550764354,55.516919544512504,1635.293413444852,-12.09834831155254,-9.130001589127573
2025-02-19 12:55:30.447,856,186,583,-16,-28,77,-6,-8,17,145,122,j,-17.694734458271597,54.43913890175751,1669.4982210811827,362.76480037511686,28.946889146811145
2025-02-19 12:55:30.555,968,-72,394,-30,64,-101,-5,-8,15,745,0,j,10.356026249270013,67.52193355531662,1892.0259609122463,-140.72920370421664,17.898524174147894
2025-02-19 12:55:30.662,799,166,514,-6,-10,-1,-4,-13,14,747,0,j,-17.89823590832012,55.94048359153895,1627.4562596837502,338.1198236639581,-18.94933351370139
2025-02-19 12:55:30.765,580,21,675,-24,43,41,-4,-8,11,540,0,j,-1.7819605903266322,40.65742587695415,1231.534885602569,44.59005620285163,-83.25180652023096
2025-02-19 12:55:30.875,870,47,570,13,-34,-11,-4,-7,14,590,0,j,-4.713725240878142,56.67924451944637,1705.608422207936,92.14206418824483,22.53241303617972
2025-02-19 12:55:31.890,768,-11,590,2,2,-2,-6,-8,15,627,0,k,1.0681026512271403,52.46266924926887,1560.9565367574987,-22.357450396266255,-19.172339436099037
2025-02-19 12:55:31.985,779,6,610,5,9,-6,-5,-10,12,708,0,k,-0.5635468708140111,51.93575007192929,1566.3198722731242,12.064081172835362,-6.514919238261882
2025-02-19 12:55:32.092,786,11,612,2,2,-3,-6,-9,13,751,83,k,-1.0297152254794435,52.0902635000291,1574.9796855115767,22.04170043336812,-2.320060474662796
2025-02-19 12:55:32.196,734,9,616,-5,-1,-27,-6,-8,13,750,89,k,-0.837054104945107,49.99236872063894,1499.9588228314635,18.391865675045196,-26.821028425315603
2025-02-19 12:55:32.305,771,-15,617,2,7,-13,-5,-11,14,716,0,k,1.3926538639435124,51.322872397868075,1551.679941171899,-30.188325703733437,-7.746463946902168
2025-02-19 12:55:32.416,788,21,623,39,5,21,-5,-8,13,529,0,k,-1.9305874411669917,51.65395327528653,1572.2780212229263,41.900810210255656,2.9426304290822145
2025-02-19 12:55:32.522,801,41,623,0,2,-9,-5,-11,16,796,0,k,-3.7652397474474006,52.06500161806791,1589.708709518488,81.3708577905843,9.559892596731515
2025-02-19 12:55:32.633,916,100,625,-13,-2,-17,-6,-9,12,701,0,k,-9.090276920822323,55.35580444910341,1738.6981129515602,189.81420447069436,63.66122205816032
2025-02-19 12:55:32.738,761,21,608,20,-3,17,-3,-9,16,643,0,k,-1.9781796790093091,51.36027980585529,1542.0877812697568,42.5543277354335,-16.04910776874135
2025-02-19 12:55:32.846,586,-106,703,-10,20,2,-4,-6,12,638,55,k,8.574600180241546,39.49716347882971,1222.040018962673,-221.05160752567127,-60.0309442504423
2025-02-19 12:55:33.763,755,0,624,4,5,-9,-5,-7,12,739,77,l,0.0,50.42660661267898,1525.8091621741364,0.0,-13.066115492266363
2025-02-19 12:55:33.857,733,17,634,2,2,-7,-7,-8,13,788,78,l,-1.53595412525131,49.13201883197869,1489.2192425783073,34.53850903660467,-20.083219365138802
2025-02-19 12:55:33.968,766,32,637,5,-2,-8,-4,-11,12,816,85,l,-2.8758633638644944,50.217836098991924,1534.4827516516357,64.10371808466363,-2.0646381228353903
2025-02-19 12:55:34.075,732,57,637,-2,0,-10,-7,-10,13,820,89,l,-5.113319421268968,48.85643216651561,1485.0633049451685,115.6401753850746,-18.329679303377475
2025-02-19 12:55:34.188,807,173,669,-1,-13,-17,-5,-10,13,816,118,l,-14.498782710232016,49.427686045321565,1566.5856810124133,335.8355920881629,39.306294179300494
2025-02-19 12:55:34.292,716,193,643,-10,-20,94,-4,-9,11,683,0,l,-16.707418835095677,46.843758265014635,1445.4912210609932,389.6366000904633,-12.115719472372461
2025-02-19 12:55:34.393,1010,54,586,5,34,3,-6,-8,14,784,0,l,-5.264946754605815,59.77251686684308,1874.0334183723876,100.1958461308009,84.68952161760495
2025-02-19 12:55:34.505,532,-110,736,1,-17,-6,-5,-8,10,699,51,l,8.500309384504078,35.56044143575709,1113.56144457948,-230.24766711229847,-68.56620904228782
2025-02-19 12:55:35.615,788,-5,617,0,-2,0,-4,-8,13,776,83,m,0.4642992329837188,51.938323104072346,1575.347559198134,-9.99586014719628,0.510857835978868
2025-02-19 12:55:35.716,769,19,626,3,1,-2,-4,-10,13,784,88,m,-1.7384755798588145,50.83997147287647,1544.3852250979626,38.15776238863627,-5.19785554138457
2025-02-19 12:55:35.823,768,20,620,0,4,-9,-4,-10,13,783,93,m,-1.8476102659945959,51.07178799633449,1545.9338499886335,40.258694010120664,-8.019514313740615
2025-02-19 12:55:35.929,767,-63,661,6,11,14,-6,-9,14,765,0,m,5.444422541422851,49.117107983766175,1523.0489349520972,-125.1004992203157,9.437619291608485
2025-02-19 12:55:36.044,821,-49,568,0,-11,-14,-5,-9,15,721,112,m,4.930562644593406,55.22354582674658,1642.3836757858166,-98.02289904202803,-0.2654419565698163
2025-02-19 12:55:36.146,739,41,705,-10,-13,21,-4,-10,14,792,0,m,-3.328346064353477,46.30050846220948,1461.9732770062928,81.11083133593777,15.289363613752926
2025-02-19 12:55:36.257,929,-36,513,14,-7,-41,-6,-7,15,751,0,m,4.014175695411026,61.032634432407384,1803.895702289567,-69.90338566461185,29.87675427928133
2025-02-19 12:55:36.368,766,101,614,-22,-13,51,-5,-11,14,639,115,m,-9.341221665476484,50.91170330803228,1542.1752135104448,203.34164042370097,-8.156111090617628
2025-02-19 12:55:36.466,839,7,534,-6,69,12,-5,-9,15,767,79,m,-0.7510252550748213,57.522159407280036,1682.599185835241,14.038372229853024,-2.92725296307367
2025-02-19 12:55:36.577,652,-77,653,7,-28,-16,-4,-5,13,714,0,m,6.725108894337875,44.758302843735656,1356.1176314187137,-160.15499634852907,-52.19756643622702
2025-02-19 12:55:37.495,752,-25,630,1,-1,-3,-5,-8,12,725,0,n,2.2724497327829347,50.022679765844444,1518.2988219518318,-50.475359772334826,-11.979066262837705
2025-02-19 12:55:37.589,772,-20,628,-1,0,-2,-6,-7,13,769,0,n,1.8240898323761097,50.85841102040195,1547.5884174058772,-40.09296418149941,-2.919075299081328
2025-02-19 12:55:37.695,762,-16,630,2,3,-7,-6,-9,13,776,0,n,1.4548181767524617,50.40795051496742,1532.601686007899,-32.18061282956218,-7.11163016401099
2025-02-19 12:55:37.806,869,-47,679,11,-11,-17,-6,-9,14,722,0,n,3.9596658293138676,51.93097559283137,1656.2684926318,-89.57953872692127,63.861557540860645
2025-02-19 12:55:37.911,755,159,625,-2,-11,39,-4,-9,13,584,0,n,-14.273268657590904,49.496628964147334,1515.3677535697366,319.1304275729644,-4.443504610709056
2025-02-19 12:55:38.023,884,-32,607,11,-10,-46,-5,-9,12,789,0,n,3.0177417436446707,55.487388195212624,1708.0014927227148,-61.82810833385393,41.198070042208315
2025-02-19 12:55:38.125,822,139,540,0,-10,46,-6,-9,14,506,0,n,-14.434989736695949,55.849031225166506,1649.5612777729175,278.94041071829145,-3.6533941573910624
2025-02-19 12:55:38.235,700,-54,664,-25,53,1,-6,-6,14,716,0,n,4.649364545800058,46.41755390795948,1424.3831085937904,-109.88098266294955,-23.129120151824054
2025-02-19 12:55:39.145,782,-10,618,-4,-1,-2,-5,-8,13,722,0,o,0.9270352697721882,51.677692388946625,1566.5350055085178,-20.0324169502368,-2.0033675246342
2025-02-19 12:55:39.247,820,27,604,0,-6,-4,-6,-9,14,721,0,o,-2.5595312083274266,53.59787086244431,1624.8717450810404,53.501874533156204,11.143251184209248
2025-02-19 12:55:39.354,789,-7,617,2,-4,-1,-5,-8,13,736,0,o,0.6500052676296924,51.97271316661782,1576.7174585020673,-13.988621304834563,1.002950702439307
2025-02-19 12:55:39.461,681,-41,623,9,-23,-12,-4,-9,14,760,0,o,3.7652397474474006,47.48508839055225,1418.1014849773278,-85.37762244356894,-51.32338493520592
2025-02-19 12:55:39.565,675,-67,672,3,15,-33,-5,-11,16,661,0,o,5.69370915993824,44.98592269026867,1381.933026958886,-137.16964860184498,-31.791102394624318
2025-02-19 12:55:39.678,831,270,566,-9,-20,41,-5,-8,15,485,0,o,-25.502626407364644,52.960536272065745,1629.220807311354,529.3497207870826,22.326140868560287
2025-02-19 12:55:39.778,779,15,522,3,11,-24,-4,-8,15,787,0,o,-1.645977497564048,56.163425801173425,1609.6291941450818,30.9941436613302,-34.59619941429082
2025-02-19 12:55:39.897,476,-127,755,-18,26,31,-4,-6,11,629,48,o,9.548444208141374,31.870412763280868,1003.9998598065666,-267.8739121752815,-82.47876923100387
2025-02-19 12:55:40.813,699,-44,644,4,-9,-5,-5,-9,12,674,74,p,3.9085442944594546,47.27863685332716,1433.6616873227467,-90.24479862975801,-32.85568903554895
2025-02-19 12:55:40.905,789,18,598,-3,3,1,-5,-9,14,716,87,p,-1.7241015555687627,52.82824220635211,1585.8278399325136,36.17858189960107,-5.9328875534134795
2025-02-19 12:55:41.011,739,26,613,7,6,-15,-5,-9,12,747,89,p,-2.4287078692823236,50.299012398283544,1508.3885445545493,53.06915041734544,-25.20727714741372
2025-02-19 12:55:41.115,750,-18,625,1,-15,-13,-3,-11,14,789,109,p,1.649662452139926,50.182747230448896,1518.090740447548,-36.434177770741144,-15.075617039623125
2025-02-19 12:55:41.228,801,266,561,-5,-23,65,-7,-6,14,219,0,p,-25.36812330144671,52.22016249395835,1591.370646606596,528.4701523063103,7.444528406616314
2025-02-19 12:55:41.335,661,-28,570,-4,18,-79,-6,-9,13,800,0,p,2.812268925018585,49.19367194648366,1417.9228837551354,-60.06329916058062,-82.71716148324822
2025-02-19 12:55:41.444,691,73,713,-8,-14,1,-4,-11,14,772,0,p,-5.84581824415198,43.95299271280239,1385.0679673913555,146.32411232933276,-3.165645079647561
2025-02-19 12:55:41.545,1099,62,397,11,33,3,-4,-9,14,701,0,p,-8.876256524163988,69.91677170529833,2038.1948084336664,114.98460247760445,57.727626070822964
2025-02-19 12:55:41.660,397,-132,789,-13,-10,4,-3,-7,10,605,0,p,9.497646358613597,26.393886508398136,841.5396037100721,-279.8066188658174,-94.48047185704502
2025-02-19 12:55:42.575,780,0,620,-1,-2,-1,-6,-8,14,695,81,q,0.0,51.51980175165699,1562.8232547561079,0.0,-2.2441255753676614
2025-02-19 12:55:42.667,782,4,607,1,-5,-2,-5,-9,14,724,88,q,-0.37756145089282445,52.180252652162785,1571.9437232098996,8.040632855293605,-6.166035790804585
2025-02-19 12:55:42.777,819,22,611,3,-20,-11,-6,-9,15,757,110,q,-2.0621323002958487,53.258101646996685,1620.3384080273947,43.52557384200572,13.176108297023006
2025-02-19 12:55:42.884,847,-60,623,0,8,-25,-6,-9,15,610,0,q,5.501086451406012,53.537805094933965,1651.2491635844408,-116.97160544872074,31.444830090783057
2025-02-19 12:55:42.995,812,78,603,-2,-19,12,-4,-9,13,571,0,q,-7.37046800317871,53.17421006503345,1612.4616577705103,154.8916370764776,8.568497985692488
2025-02-19 12:55:43.097,782,-52,582,0,2,-26,-6,-8,15,772,0,q,5.105653367507483,53.232538020897955,1583.0714246743003,-105.26817657680769,-14.19382245580914
2025-02-19 12:55:43.205,950,4,605,31,-11,8,-3,-6,15,474,0,q,-0.37880955160877117,57.5087320627251,1793.4733222218206,7.55146661988135,67.8406737429458
2025-02-19 12:55:43.314,697,-2,640,-29,67,36,-4,-6,10,738,0,q,0.17904872813898814,47.44105955178146,1433.581963880691,-4.113578088610304,-36.34498835529746
2025-02-19 12:55:44.330,764,13,611,0,4,-3,-6,-6,13,710,0,r,-1.2188752351312977,51.34301410849198,1544.8995806736566,26.287558309892063,-13.515240564926899
2025-02-19 12:55:44.427,760,10,627,1,-1,-1,-6,-8,14,765,0,r,-0.9137308158871255,50.47379196141021,1531.3335499605157,20.149125657375208,-9.350178717425365
2025-02-19 12:55:44.536,748,10,641,4,3,-10,-7,-9,13,756,0,r,-0.8937774100818708,49.40156943729123,1507.2891329585627,20.15092423741394,-9.674243618233504
2025-02-19 12:55:44.642,776,-7,570,-4,3,-10,-6,-9,12,744,0,r,0.7035970102642163,53.699313692821185,1581.921190867428,-14.269907649577316,-21.978194322724335
2025-02-19 12:55:44.748,783,135,621,0,-4,23,-6,-9,13,682,0,r,-12.264773727892402,50.936257492987316,1559.4453512724158,268.86988815041644,5.1985145080842585
2025-02-19 12:55:44.860,838,118,616,-13,-21,34,-6,-10,14,845,0,r,-10.84412339125522,53.18702468317163,1638.5956943348704,230.7330452643373,27.495289128544186
2025-02-19 12:55:44.965,602,-106,693,-6,17,0,-5,-7,13,811,0,r,8.69645332414288,40.652679595426505,1253.4720407314542,-220.7110237832793,-56.95037246992979
2025-02-19 12:55:45.881,777,2,615,-2,-1,-1,-5,-7,13,774,0,s,-0.1863270814083769,51.63803385633127,1561.1056124751008,4.018289864800773,-5.6241334262377904
2025-02-19 12:55:45.976,778,-3,613,1,-3,1,-5,-10,15,774,0,s,0.2804012500397342,51.76446437021699,1563.4731966694926,-6.028816953738402,-5.888264213880234
2025-02-19 12:55:46.083,769,2,613,8,-18,-8,-5,-8,15,817,0,s,-0.18693499580083872,51.44013091636379,1550.9572563225006,4.03369897613134,-10.328736184255831
2025-02-19 12:55:46.193,820,-49,548,17,9,-17,-7,-9,13,743,0,s,5.109574269161439,56.14001089483793,1650.4015682817787,-98.6215571290331,-6.951291973676348
2025-02-19 12:55:46.305,776,158,730,-1,-20,10,-4,-10,15,609,0,s,-12.212627412813271,46.09457795424441,1496.485490070425,304.6967879267103,52.22370135127528
2025-02-19 12:55:46.410,889,105,543,-35,89,30,-4,-7,12,710,0,s,-10.944219699067562,58.113705358635556,1738.0980677092152,205.28717335148212,24.372046382335384
2025-02-19 12:55:46.515,575,-80,733,17,-43,-21,-4,-5,10,648,0,s,6.228638025301718,37.947703187187976,1189.9419609130048,-165.5571423878963,-50.917317129099956
2025-02-19 12:55:47.435,782,18,620,-2,1,-1,-6,-8,14,784,0,t,-1.6629587413422697,51.57950073991756,1565.4711731781604,36.033863321236424,-1.1664032870323808
2025-02-19 12:55:47.529,772,34,622,-2,0,-3,-4,-9,13,796,0,t,-3.128809848832137,51.09986085604453,1550.2416235027827,68.27489015426762,-5.02887282219001
2025-02-19 12:55:47.636,743,46,596,-1,-3,-15,-6,-8,14,832,0,t,-4.413407889831428,51.18196335921595,1522.1406722115707,94.23751133476749,-28.990364250465745
2025-02-19 12:55:47.746,779,21,634,-4,-1,-7,-6,-11,12,832,0,t,-1.8971161368627176,50.84372006546877,1554.4265387536857,41.90366792532401,2.9083112068847186
2025-02-19 12:55:47.853,805,425,498,14,-13,41,-6,-9,12,661,0,t,-40.477894382911984,50.878921644993135,1580.8143373175783,834.591420322945,18.055229833349074
2025-02-19 12:55:47.959,893,64,679,-6,60,-16,-5,-9,13,845,0,t,-5.38457748454035,52.629997009748635,1687.7325011931866,120.95731251552515,74.71851253060026
2025-02-19 12:55:48.073,3919,102,921,25,-11,-29,-6,-10,11,771,109,t,-6.319707020464143,76.69697253547102,4892.166715768945,127.32865654718869,692.2971305886198
2025-02-19 12:55:48.172,682,68,646,13,-10,6,-5,-10,13,822,0,t,-6.009005957494525,46.39518641897752,1406.1139219871056,140.1990420749607,-39.890899712126384
2025-02-19 12:55:48.283,630,-73,669,-25,36,15,-4,-9,12,767,0,t,6.227367908448525,43.1111120015816,1313.4153692422583,-152.18939992807123,-56.722034957255346
2025-02-19 12:55:49.295,775,32,620,-1,0,-1,-4,-11,12,678,85,u,-2.9545798240596866,51.30300905452665,1555.4632426988921,64.22557905337362,-4.370594159113921
2025-02-19 12:55:49.392,784,37,618,-2,0,0,-5,-8,12,689,85,u,-3.426239981076774,51.70266808571697,1568.8052308582905,74.03800196652648,-0.6347355490096334
2025-02-19 12:55:49.495,748,30,621,1,-2,-9,-5,-10,13,721,93,u,-2.765761834249503,50.26724729614075,1517.0342825107355,60.84362095631292,-17.462953795677436
2025-02-19 12:55:49.609,951,-109,631,-11,-4,50,-7,-9,14,492,0,u,9.800650221441181,56.046087084367066,1780.4871030663662,-204.07265429467287,80.62527651432492
2025-02-19 12:55:49.717,711,-82,634,21,-1,-45,-5,-7,16,737,0,u,7.3695835770251135,48.04036540675761,1454.6160497175097,-167.76162598711082,-29.083791168637276
2025-02-19 12:55:49.826,796,75,597,-15,-10,54,-4,-9,14,450,0,u,-7.160449726891122,52.914538970063475,1593.736968919818,150.16365913189242,-1.3027266898636753
2025-02-19 12:55:49.930,763,-34,566,-3,75,7,-4,-6,13,715,0,u,3.437664992365203,53.382267310253596,1565.6329088296397,-69.76607981678606,-29.400034597085323
2025-02-19 12:55:50.040,675,-68,652,-4,-11,-5,-3,-6,12,622,0,u,5.954107431165024,45.83808405771812,1392.3738494509485,-140.2687729817252,-40.9299997659532
2025-02-19 12:55:50.855,767,5,627,3,1,-1,-5,-8,15,675,0,v,-0.4568944580131733,50.734116274836325,1541.2172136672104,10.04704832899094,-5.899860455464022
2025-02-19 12:55:50.950,747,9,635,5,2,0,-5,-8,12,731,0,v,-0.8120117968208123,49.630397463365746,1508.8820511693393,18.17930182131734,-12.650739615167595
2025-02-19 12:55:51.058,750,16,634,-1,2,-5,-4,-9,12,756,0,v,-1.4456434205562043,49.7820565701528,1513.5938519529104,32.290002174995415,-11.491336184193415
2025-02-19 12:55:51.163,739,28,644,1,5,-9,-4,-8,13,750,0,v,-2.489552921999156,48.902746541323644,1492.5949034999455,56.55298687144583,-12.718698043254221
2025-02-19 12:55:51.273,772,54,586,0,5,-6,-6,-9,14,730,0,v,-5.264946754605815,52.682327472163,1567.2865296544855,109.62885051987334,-17.676044530477384
2025-02-19 12:55:51.384,761,182,586,-14,-16,31,-6,-7,13,435,0,v,-17.253759909595374,51.11994826566233,1539.4617348025026,368.17613105657745,-13.446224171178073
2025-02-19 12:55:51.490,756,-54,625,13,8,-13,-3,-8,15,789,0,v,4.938092161550434,50.314127641251005,1525.5570350995172,-108.96835964996552,-11.207866319045365
2025-02-19 12:55:51.596,615,-26,635,-20,26,15,-2,-10,12,650,0,v,2.344659249465977,44.0593646011597,1310.4033110026676,-55.39916436759246,-83.01805282389273
2025-02-19 12:55:52.715,768,26,614,0,-1,-1,-5,-8,12,688,0,w,-2.424757044037987,51.33335786175797,1548.7942941496567,52.43314016652483,-10.22877162485554
2025-02-19 12:55:52.809,763,33,625,2,-1,-3,-6,-10,13,693,0,w,-3.0224105775750663,50.638792745835765,1536.1631477147548,66.43955946865913,-8.324989936725842
2025-02-19 12:55:52.915,801,42,591,1,4,-8,-7,-10,13,650,0,w,-4.064947307742707,53.51009223666661,1604.9616218729445,84.15529103453642,-2.185166700262471
2025-02-19 12:55:53.025,731,125,614,-32,-31,61,-5,-10,14,435,0,w,-11.507194159291469,49.39765092682848,1490.2446255647803,254.82979233323871,-23.723939940868718
2025-02-19 12:55:53.132,777,-94,621,16,-2,-44,-4,-11,15,763,0,w,8.607448626020439,51.050278627877674,1554.6979081759628,-188.0844316197432,-0.5577876155375634
2025-02-19 12:55:53.241,799,201,574,-16,-18,54,-3,-10,13,403,0,w,-19.298938246666516,52.722683489395976,1594.7133302707275,401.17319071891893,2.3611369519429672
2025-02-19 12:55:53.349,792,-124,582,23,1,-12,-4,-9,16,771,125,w,12.027508540388837,53.080916545938784,1591.4846327065816,-249.17183643385874,-5.500071004079018
2025-02-19 12:55:53.456,582,-86,646,-26,38,23,-4,-8,12,544,64,w,7.583023863678119,41.76644385550506,1248.0957566081447,-184.42652073591142,-93.34339994649736
2025-02-19 12:55:53.563,849,38,567,7,-23,-11,-6,-9,13,565,85,w,-3.8341950884719918,56.20391565419209,1680.022485164678,75.19535269288312,12.0061848193493
2025-02-19 12:55:54.675,802,13,592,-2,0,-3,-4,-8,14,595,0,x,-1.2579821662552613,53.56034036659366,1606.4828452437132,26.040245621157446,-1.8327236711697878
2025-02-19 12:55:54.771,789,2,595,-1,-1,0,-6,-7,14,649,0,x,-0.1925901301730144,52.979199247663814,1587.4169735242947,4.0238706553214065,-7.101519958118274
2025-02-19 12:55:54.882,806,22,595,-3,2,-2,-6,-9,15,688,0,x,-2.1175347767547414,53.54605633923843,1610.3347400922553,43.95454625561987,1.2293171775536393
2025-02-19 12:55:54.985,783,30,571,3,-10,-8,-5,-9,13,728,0,x,-3.0075208639267252,53.861126818226246,1590.5899488498042,60.94214363409211,-17.93213383555326
2025-02-19 12:55:55.095,803,-8,603,-13,-5,-8,-6,-9,16,758,0,x,0.7600984180788196,53.093447657647665,1602.6159892324172,-15.96628631862931,2.541168733315658
2025-02-19 12:55:55.205,1047,254,357,0,17,32,-5,-9,15,433,0,x,-35.43126495158132,67.2921518378542,1969.4852208317295,477.7929762094165,42.456328713536664
2025-02-19 12:55:55.312,790,14,595,6,-3,-39,-4,-10,13,733,0,x,-1.3478872801985986,53.00661632263262,1588.7050002836131,28.154265827810868,-6.556297681961837
2025-02-19 12:55:55.418,802,40,574,20,-5,22,-6,-6,14,373,0,x,-3.9862928436608995,54.34258651776627,1614.5170340968493,80.52454035395758,-7.527154079291222
2025-02-19 12:55:55.529,531,-118,729,-14,34,8,-5,-5,12,613,0,x,9.194467665655258,35.71751069066433,1114.7893724229868,-247.73097164955266,-72.47354519088037
2025-02-19 12:55:56.437,767,26,609,0,1,-8,-4,-9,12,640,0,y,-2.44464068330763,51.52492515850378,1549.8788928941376,52.538267555733476,-12.607882363141812
2025-02-19 12:55:56.540,846,61,592,2,-6,-11,-6,-9,13,687,0,y,-5.88302599447869,54.87481694016299,1663.8969078947407,119.97365411534183,19.665520716682636
2025-02-19 12:55:56.651,794,39,540,-14,0,-12,-6,-10,14,665,0,y,-4.130856233276415,55.711011499857925,1620.206581579042,79.58193536723253,-21.90372046937341
2025-02-19 12:55:56.757,857,172,555,20,-12,31,-5,-8,14,494,0,y,-17.21872684577178,55.86294428470819,1684.6975714283963,338.1189991664926,18.97648524765475
2025-02-19 12:55:56.864,750,-97,642,8,-25,-20,-4,-9,15,835,0,y,8.591853159201193,49.11675737749044,1506.0449298069989,-194.78181092170524,-5.174459914791328
2025-02-19 12:55:56.966,705,95,616,-8,-16,64,-6,-7,16,0,0,y,-8.767129246071496,48.52046939859147,1454.1923995671334,195.9550041969896,-38.613500898374696
2025-02-19 12:55:57.075,803,-37,480,-27,103,21,-4,-6,10,495,0,y,4.4078332471459785,59.055978009634366,1660.6700840223643,-76.51904496740659,-32.67950227986921
2025-02-19 12:55:57.184,583,-16,737,9,-13,7,-2,-6,8,419,35,y,1.2436750227239912,38.33900699646533,1203.3131642842395,-33.02403195291224,-47.16947183101968
2025-02-19 12:55:57.995,730,-34,648,1,-7,-6,-5,-8,11,745,60,z,3.003505829306962,48.366352220004615,1477.4080612443236,-68.81078641411918,-15.452635186741873
2025-02-19 12:55:58.097,771,-12,633,-1,2,-2,-5,-8,14,768,64,z,1.0860458260064003,50.60855660875787,1543.8283561667618,-24.028456905319246,-1.5011017555902981
2025-02-19 12:55:58.207,740,-12,627,0,-7,-4,-6,-7,12,774,66,z,1.0964360839930283,49.72030916473028,1502.8975440437148,-24.371311525033214,-19.401027182985445
2025-02-19 12:55:58.309,750,0,638,0,-4,-3,-5,-9,12,783,71,z,0.0,49.61329528612493,1511.688680998856,0.0,-9.943171303026588
2025-02-19 12:55:58.416,777,3,629,-2,0,-1,-6,-9,13,783,74,z,-0.27326873640484706,51.00868726283498,1554.2413709243274,6.000931934070762,-0.1953955101697602
2025-02-19 12:55:58.525,777,7,629,-2,0,-2,-6,-9,15,783,75,z,-0.6376055649333563,51.007270920700435,1554.2258169044817,14.00203438652686,-0.18280416077072914
2025-02-19 12:55:58.631,775,2,631,-2,-2,-2,-6,-10,12,772,75,z,-0.18160249650140664,50.84760040706174,1550.4693009335672,4.001211099183399,-0.38210179236250497
2025-02-19 12:55:58.740,769,-1,618,-2,-1,-2,-4,-9,15,773,76,z,0.09271153641892362,51.213174021265054,1548.4820193729265,-2.0136307143991248,-8.423781498658855
2025-02-19 12:55:58.846,772,-4,617,0,-2,-1,-5,-8,14,772,78,z,0.3714423133708045,51.366767522146986,1553.1584807338486,-8.04745326805103,-7.31966659687123
2025-02-19 12:55:58.956,772,10,623,-1,-4,1,-5,-7,13,784,78,z,-0.9195964621475431,51.093043229186264,1550.1668964219116,20.079882078004037,-4.976653459651629
2025-02-19 12:55:59.057,743,-4,618,1,-3,0,-5,-8,14,794,77,z,0.37084129082806133,50.246974858102334,1511.8080694624523,-8.138939808680766,-21.46620044117833
2025-02-19 12:55:59.166,770,7,619,1,-4,2,-5,-9,13,815,78,z,-0.6479052683815172,51.20254525697122,1549.3657998553185,14.085143635048352,-7.529130013561485
2025-02-19 12:55:59.275,776,-6,617,1,-3,-3,-4,-8,12,825,91,z,0.5571537136125785,51.51036178458885,1558.720724118678,-12.051964361742353,-5.343668532505376
2025-02-19 12:55:59.383,808,21,606,-5,3,-5,-4,-7,13,819,87,z,-1.9847031121535643,53.11359782864999,1607.8271318244188,41.787586346921785,6.129651131685705
2025-02-19 12:55:59.491,695,-25,629,-3,-2,-18,-4,-9,13,763,0,z,2.276058733868694,47.831273105351364,1436.1711235481077,-51.66083178230602,-41.78652764281958
2025-02-19 12:55:59.600,1118,164,543,28,-27,19,-5,-7,13,786,0,z,-16.805669909408113,63.09869851837633,2009.7872522576104,294.81673467821827,109.86898213248452
2025-02-19 12:55:59.706,726,73,632,4,14,30,-3,-11,13,710,0,z,-6.588826617731316,48.77154950130594,1478.087740685698,148.62314747941588,-22.709989136861054
2025-02-19 12:55:59.813,767,60,577,1,-34,12,-5,-7,14,473,0,z,-5.936630203047672,52.89840086810008,1564.567092909173,122.39116763305134,-22.995062071176903
2025-02-19 12:55:59.924,861,174,753,-31,94,-11,-4,-6,14,645,0,z,-13.011287079346339,48.08853517376021,1605.1778987272323,324.3913523560261,102.16845790754235
2025-02-19 12:56:00.030,1144,182,546,11,-39,4,-4,-11,14,594,0,z,-18.43494882292201,63.293505808651524,2037.3204545178714,324.1191632187523,119.64251034374314
2025-02-19 12:56:00.136,832,27,567,14,6,10,-5,-9,15,728,113,z,-2.726310993906266,55.69574359825629,1658.056428866535,53.807119686774584,4.050486577733864
2025-02-19 12:56:00.243,581,-92,679,-22,27,2,-4,-6,13,530,0,z,7.716208153801149,40.29535250729692,1227.7279142660072,-194.40786249995296,-76.81455040726155
2025-02-19 12:56:01.555,822,30,588,1,-3,-5,-6,-8,15,689,78,0,-2.9207215210003836,54.387531491259395,1634.9740622140446,59.670586212191395,6.456510241048477
2025-02-19 12:56:01.656,786,16,606,4,-4,-6,-5,-10,14,713,84,0,-1.5124084874131574,52.35839723170916,1577.8464049072436,32.119010786915894,-4.507533554439533
2025-02-19 12:56:01.767,784,35,599,9,-16,-14,-5,-11,15,758,109,0,-3.3440313126424432,52.571950099771165,1578.1171765404388,70.45165966698387,-7.7298325863811215
2025-02-19 12:56:01.869,755,2,603,-6,1,-24,-5,-9,16,716,0,0,-0.19003505609994742,51.38634142223126,1536.3717253329332,4.069858875054128,-21.06245082881935
2025-02-19 12:56:01.975,990,61,528,37,11,63,-6,-11,14,419,0,0,-6.590182133305868,61.76950270482419,1871.0517987543421,115.28703002425743,58.10570733101747
2025-02-19 12:56:02.086,650,-34,753,12,-25,-45,-6,-9,14,714,0,0,2.585304438108127,40.77235514086526,1303.0552825150908,-68.15981477771243,-3.539427282866427
2025-02-19 12:56:02.192,874,100,540,8,21,-5,-6,-10,14,735,0,0,-10.4914770123316,57.85664416201885,1720.7195684571825,196.87866915986075,16.855186536751944
2025-02-19 12:56:02.303,576,-22,691,-31,37,43,-5,-9,10,395,44,0,1.8235622323548246,39.799451571252284,1216.1023455322834,-46.44835347519138,-76.90055687987467
2025-02-19 12:56:02.409,773,17,646,13,-32,-19,-5,-9,11,513,52,0,-1.507435758774968,50.10456665976173,1540.2162749979839,33.87280294303457,4.8334881646864005
2025-02-19 12:56:03.225,784,36,610,-1,-1,-2,-5,-11,14,645,81,1,-3.3774727293163256,52.06661386792538,1572.7260081793368,72.21701057966342,-3.677123710963656
2025-02-19 12:56:03.322,779,52,605,1,-2,-2,-5,-11,14,700,85,1,-4.912522620789718,52.06358034961062,1567.6934594777304,104.64706019620283,-7.528296513513624
2025-02-19 12:56:03.429,783,36,616,-1,-1,-2,-7,-10,15,740,90,1,-3.344650318265879,51.75976607488639,1568.4224441360334,72.1113767418866,-1.9057798056149977
2025-02-19 12:56:03.540,621,-40,592,4,-26,-11,-5,-12,14,757,0,1,3.865461169851747,46.30437319712952,1344.0198765703517,-86.57132860356532,-97.25566333276663
2025-02-19 12:56:03.646,886,187,555,13,-19,-26,-6,-10,14,804,0,1,-18.620571649240677,56.534806105997575,1720.2209594949773,363.07146662027174,32.43495200935399
2025-02-19 12:56:03.753,902,-15,749,-23,-8,83,-4,-10,16,765,0,1,1.1472921529889155,50.28889553204803,1671.2757413086667,-27.792833835509978,110.21116381353511
2025-02-19 12:56:03.859,829,39,547,17,7,29,-5,-10,15,447,0,1,-4.0781728694654955,56.51512135765513,1663.031458841817,78.23670313007341,-3.3199131320552624
2025-02-19 12:56:03.970,695,-37,553,1,-13,-15,-5,-9,15,531,107,1,3.827828021619363,51.42895409065203,1476.8356465601805,-78.62290492478658,-69.0936871191077
2025-02-19 12:56:04.072,707,37,600,-28,-55,6,-4,-8,16,320,0,1,-3.528771219366493,49.626537155225236,1468.8384095325341,76.86990262051452,-46.53896141374901
2025-02-19 12:56:04.179,1230,80,470,-10,91,26,-4,-8,14,276,0,1,-9.659893078442336,68.81318727597177,2162.407008532122,140.64435827851202,113.71439511374189
2025-02-19 12:56:04.289,659,-51,677,1,-18,-21,-6,-4,14,354,0,1,4.3080885176283505,44.147072127730944,1355.5025481040407,-104.90232162868902,-38.52689691416629
2025-02-19 12:56:05.699,770,11,611,7,4,-7,-4,-9,14,467,0,2,-1.0314001566909623,51.56325097436013,1553.2948972510756,22.189927103586797,-10.549587299230211
2025-02-19 12:56:05.800,800,46,621,-3,5,-11,-5,-8,13,686,0,2,-4.236394799058841,52.10364064140327,1589.123115647793,91.37457914974809,8.443181478400788
2025-02-19 12:56:05.908,770,51,621,0,1,-11,-5,-9,13,756,69,2,-4.694914279251024,51.01991519429695,1547.3646572827836,102.4877889888597,-5.939548276115033
2025-02-19 12:56:06.019,759,77,608,0,-3,-20,-5,-11,13,805,76,2,-7.217784176379882,51.08077364875563,1537.0323834632381,155.93082151076328,-15.24596725381923
2025-02-19 12:56:06.124,749,62,625,3,-6,-6,-5,-10,14,836,0,2,-5.665206756377232,50.01876699484255,1515.2549444366216,125.42831315763758,-14.398318121346506
2025-02-19 12:56:06.225,769,72,626,0,2,4,-5,-10,14,824,0,2,-6.561099720548422,50.66843602310602,1542.4911657597936,144.42049926489614,-3.6560074975690213
2025-02-19 12:56:06.338,755,57,628,-2,1,-3,-6,-12,13,816,0,2,-5.18620266521946,50.13112266458952,1522.5134695487172,114.94472551559853,-10.408554803436232
2025-02-19 12:56:06.443,755,61,628,-2,0,0,-6,-12,15,814,0,2,-5.547949822391894,50.114400835651985,1522.3263508130967,122.99590384052837,-10.252911669701916
2025-02-19 12:56:06.550,740,54,637,1,-2,-3,-5,-8,14,807,0,2,-4.845514014144947,49.17632038104801,1496.724940561785,109.2204686355897,-14.397009645752632
2025-02-19 12:56:06.657,778,74,564,9,5,-7,-6,-12,13,797,0,2,-7.474833595351702,53.8276340464868,1585.2450703996478,150.78166479379684,-21.20079653650555
2025-02-19 12:56:06.765,762,104,629,5,-11,-2,-5,-11,13,860,0,2,-9.388449402759466,50.08190924403755,1528.9625801828074,208.67730753151176,-4.096408051162484
2025-02-19 12:56:06.872,833,212,584,-6,15,41,-4,-10,15,771,0,2,-19.951590694763233,53.28276308851163,1634.595817901839,416.0075791058702,22.01685755741414
2025-02-19 12:56:06.981,1028,140,539,6,-41,-4,-4,-8,12,480,0,2,-14.560275619356874,61.55484126314989,1907.2734275943283,259.74540842724315,77.98017755511387
2025-02-19 12:56:07.087,824,52,550,29,6,16,-4,-7,16,541,1,2,-5.40100080017433,56.16003177330603,1654.5962080103923,104.41626555405388,-4.402808744800609
2025-02-19 12:56:07.198,566,-102,732,-10,14,6,-6,-6,10,613,0,2,7.932758314172063,37.445789655935066,1174.0105261760832,-211.57080153703265,-54.33163455988131
2025-02-19 12:56:08.007,782,64,614,1,0,-7,-5,-7,15,783,0,3,-5.950709440884552,51.711729294098504,1566.9032320290632,128.23760466734018,-2.2795197772949223
2025-02-19 12:56:08.105,778,47,633,-5,7,-13,-4,-10,13,793,71,3,-4.246396971697372,50.79022060773366,1552.8366010158552,93.80889491998099,2.5738194819584805
2025-02-19 12:56:08.220,777,59,613,-2,-1,-10,-4,-11,12,803,79,3,-5.497667485169495,51.60044573237199,1560.6982895197125,118.50862172672203,-5.284493533569616
2025-02-19 12:56:08.328,653,53,627,0,-10,-18,-7,-10,14,811,89,3,-4.831697883560457,46.06175340136795,1373.0880852974892,111.44512790316529,-64.41689047706848
2025-02-19 12:56:08.435,1082,176,546,7,-19,-19,-4,-14,14,818,0,3,-17.866431631988632,62.06791920813618,1965.5034904397535,319.7122128626587,100.16552146016124
2025-02-19 12:56:08.541,708,-14,609,3,12,27,-4,-12,16,803,0,3,1.3169124057932624,49.29140412690774,1466.0364957633785,-28.989422232609172,-43.03986711849916
2025-02-19 12:56:08.648,893,172,610,2,-17,42,-7,-11,14,736,0,3,-15.74671172284114,54.63568126044227,1708.4883881642322,329.0705518076685,52.94746161233866
2025-02-19 12:56:08.754,810,115,597,-10,8,38,-4,-9,14,359,0,3,-10.903324090650038,53.10858994446951,1609.7746661890542,228.54825507622374,7.536449734734106
2025-02-19 12:56:08.860,947,115,550,-40,63,30,-5,-7,13,651,0,3,-11.809882957028258,59.31759791957845,1807.0090400250533,219.43615586365485,50.52273282599856
2025-02-19 12:56:08.971,654,-45,685,1,-30,-28,-3,-7,13,474,0,3,3.7585556854719964,43.61213303997053,1343.7728799888096,-92.46143669647772,-37.4685363797164
2025-02-19 12:56:09.885,724,20,623,-2,1,-5,-5,-9,12,735,0,4,-1.8387193883677608,49.27350585368055,1481.8327182762355,40.93460547724408,-29.112960616152918
2025-02-19 12:56:09.983,831,115,581,3,-2,-4,-5,-10,15,774,90,4,-11.196099949263823,54.52169589019196,1645.3353517052533,227.69382123478232,11.651216196447649
2025-02-19 12:56:10.089,802,80,599,4,-4,-6,-5,-12,14,790,94,4,-7.607173883320722,53.001445560970616,1600.6506934648621,159.66590458502367,2.501539419635378
2025-02-19 12:56:10.200,748,62,595,-4,-11,-11,-6,-12,15,807,101,4,-5.948847667049018,51.34852838177281,1528.9596953960217,126.73195336170235,-26.217939519562833
2025-02-19 12:56:10.302,716,14,652,7,14,-8,-6,-12,15,769,0,4,-1.2300884477573488,47.67197729631005,1455.301843885583,28.455622645807495,-21.21899750474904
2025-02-19 12:56:10.413,795,131,535,22,10,3,-3,-14,13,279,0,4,-13.758723148301536,55.284377181195886,1616.9887852349102,266.4472086361927,-18.162264277581016
2025-02-19 12:56:10.519,736,94,609,6,-5,2,-4,-11,15,507,0,4,-8.77443901757623,50.06243753861573,1502.7444599001942,191.9266022155139,-25.439369672850717
2025-02-19 12:56:10.630,530,-121,656,-10,5,-36,-5,-11,13,753,0,4,10.450812874721244,38.46798888929127,1152.077296889948,-263.02142061072396,-113.96737124491676
2025-02-19 12:56:10.736,930,-25,798,-23,-10,75,-4,-13,14,607,0,4,1.7943936706768158,49.35438841790578,1688.7530034848091,-45.396586115183034,146.94097120335755
2025-02-19 12:56:10.839,972,76,614,32,3,17,-6,-9,15,682,0,4,-7.056096037901021,57.5229238159969,1815.6063497631296,141.96099031069738,81.10463091094493
2025-02-19 12:56:10.953,505,-124,721,-25,14,11,-5,-8,10,460,44,4,9.758455060718102,34.61661270051311,1073.0823865429995,-263.489536497687,-90.06415979703513
2025-02-19 12:56:11.866,758,20,620,0,-2,-3,-6,-9,13,585,66,5,-1.8476102659945959,50.70422406886905,1531.8869029376633,40.41917949703597,-12.994564408115139
2025-02-19 12:56:11.961,780,10,613,0,-1,-3,-5,-10,13,665,69,5,-0.9345953962296406,51.83258230453162,1566.2084354593421,20.07959532640182,-4.879193508431513
2025-02-19 12:56:12.069,770,31,621,-2,0,-5,-5,-10,14,703,71,5,-2.857803525092561,51.07920319346955,1548.015163787977,62.322688412243224,-6.464177548485168
2025-02-19 12:56:12.179,729,37,635,-4,-1,-15,-5,-9,13,745,76,5,-3.3347237134741707,48.8942071467029,1482.4969249446972,75.24332815220001,-21.338199368837763
2025-02-19 12:56:12.286,756,64,589,7,-6,-21,-7,-11,12,722,0,5,-6.201357882742114,51.91468561160472,1543.093149979391,130.63222433687963,-24.224689600345414
2025-02-19 12:56:12.395,874,267,559,-29,-55,-3,-6,-11,14,763,0,5,-25.530943632194546,54.670962731427885,1689.8446293841366,516.2340000521333,37.19548303691943
2025-02-19 12:56:12.497,809,121,587,-3,3,6,-5,-11,16,826,0,5,-11.647403712569375,53.46739280255636,1612.518215053864,241.1801038584889,3.9775126865041557
2025-02-19 12:56:12.604,707,37,597,13,-15,-13,-6,-12,14,772,98,5,-3.546458593205525,49.767670501262586,1470.4317035621907,76.95328575926601,-47.65166481842709
2025-02-19 12:56:12.715,721,139,641,0,-2,39,-5,-11,14,668,111,5,-12.235082952204111,47.707028753948975,1460.7136511549336,281.6077635374976,-16.63724048587028
2025-02-19 12:56:12.821,929,40,519,18,-8,-16,-6,-10,13,681,0,5,-4.407147343959503,60.73713053576294,1801.3862336367451,77.56237819749171,31.628142887545152
2025-02-19 12:56:12.928,650,-15,692,-4,1,49,-4,-11,14,419,0,5,1.241766076707258,43.20070812468426,1334.556115277859,-30.79744881410443,-36.78897195735101
2025-02-19 12:56:13.036,1110,105,595,-25,70,32,-6,-8,13,585,84,5,-10.007979801441337,61.4397239881721,1988.3146483362411,188.08381808586066,124.19169751345623
2025-02-19 12:56:13.145,510,-112,741,-2,-7,-10,-4,-5,11,397,41,5,8.5950324246245,34.236442717365534,1072.6093249201847,-235.55342037462881,-76.43825444285665
2025-02-19 12:56:13.957,788,9,616,-3,-3,-5,-6,-10,12,645,71,6,-0.837054104945107,51.98137257626423,1575.8105543397833,17.99783628053052,0.14809457702222062
2025-02-19 12:56:14.058,759,27,622,-3,-10,-13,-5,-8,15,722,79,6,-2.4855554490751266,50.63896208265441,1532.1650221012044,54.50389406684127,-11.608226280565304
2025-02-19 12:56:14.165,797,60,589,1,-7,-7,-5,-10,15,775,87,6,-5.816517987350158,53.39334225277687,1599.74818867348,120.43273691393824,-4.248034038493643
2025-02-19 12:56:14.275,784,47,611,7,-21,-15,-6,-11,17,807,109,6,-4.398705354995532,51.98742740476615,1571.8756380793025,94.23234054812146,-3.0204271255788626
2025-02-19 12:56:14.378,781,41,614,-8,10,-18,-4,-13,14,751,0,6,-3.8202683030277793,51.76463421522316,1566.4750312922693,82.2349248181601,-3.5181423987875178
2025-02-19 12:56:14.488,898,313,427,7,-11,63,-6,-12,14,318,0,6,-36.24220171414557,59.47777299081634,1759.4322039742356,613.2542091803293,17.388027731627517
2025-02-19 12:56:14.595,721,-104,613,18,8,-49,-4,-8,15,726,0,6,9.628967315760308,49.22691953743168,1478.301971672028,-213.23634542842012,-30.86422834251482
2025-02-19 12:56:14.705,860,129,552,-52,82,56,-6,-10,11,550,62,6,-13.153708194476893,56.60894030525631,1694.9337488828887,254.2400623324333,16.08903560075055
2025-02-19 12:56:14.812,535,-99,743,6,-13,-10,-3,-7,9,455,35,6,7.589592167025313,35.51719018123584,1115.9471847925927,-206.5023762513396,-63.810763179245555
2025-02-19 12:56:15.825,823,10,627,-14,0,-14,-5,-8,13,711,55,7,-0.9137308158871255,52.694636888244695,1618.41675445719,19.664845133137185,21.014210152298574
2025-02-19 12:56:15.922,726,-20,633,0,-6,-9,-6,-9,12,779,64,7,1.8096911586829085,48.90064037960757,1479.5707395619202,-40.759524505838016,-24.038950609773337
2025-02-19 12:56:16.028,807,40,611,-6,3,-6,-5,-9,14,801,74,7,-3.7456062547534894,52.81074089737505,1603.6432446102685,79.48665400794393,7.841360028656709
2025-02-19 12:56:16.135,765,31,637,0,6,-8,-4,-10,13,799,75,7,-2.786136517598885,50.18320934040321,1533.0959049906949,62.12545497347914,-2.577897358264863
2025-02-19 12:56:16.245,644,31,625,16,-46,-33,-6,-12,15,771,108,7,-2.8395436123249755,45.82261155475029,1361.1856852900587,65.52291342234753,-71.02648028926478
2025-02-19 12:56:16.356,715,26,685,-10,-11,5,-6,-11,13,846,109,7,-2.1736868603612285,46.20697616908368,1436.8444961074406,52.248890767543294,-6.557314452582887
2025-02-19 12:56:16.460,718,-72,674,30,0,81,-4,-12,15,733,113,7,6.097493577509412,46.64823394410714,1445.1528319727613,-144.9178327326446,-8.59193419170083
2025-02-19 12:56:16.565,737,87,578,5,9,-44,-6,-7,13,786,0,7,-8.559847299107801,51.58224697041067,1520.5009578033123,179.48925824815223,-36.468865142896334
2025-02-19 12:56:16.675,816,88,418,-5,-3,-13,-6,-10,14,617,111,7,-11.888658039627973,62.36867375656441,1701.9501414910278,183.54364270981674,-35.83230287162951
2025-02-19 12:56:16.777,674,-3,647,5,-7,1,-5,-11,15,657,0,7,0.2656663163967162,46.17060121655915,1395.4049905866377,-6.211001441780287,-45.505977610615105
2025-02-19 12:56:16.885,801,2,524,-24,53,16,-5,-10,14,741,0,7,-0.21868511942297855,56.80780853361015,1637.8389301344346,4.08948546850046,-23.445192747120586
2025-02-19 12:56:17.805,789,27,592,-2,1,3,-5,-9,14,640,0,8,-2.611342491989435,53.089903967478264,1588.5788466198637,54.36201376265694,-7.937486944181842
2025-02-19 12:56:17.900,812,26,578,2,-6,-1,-6,-10,14,685,0,8,-2.575582556316323,54.52851415264443,1626.4044135562144,52.076988611405895,-1.7115160535615814
2025-02-19 12:56:18.007,818,80,554,-4,-3,0,-8,-8,15,717,0,8,-8.21695794125727,55.61668975827769,1643.2780332054933,160.71178808855677,-4.929132513255809
2025-02-19 12:56:18.118,770,42,609,-1,8,-13,-4,-10,16,712,0,8,-3.945186229037563,51.59305056779073,1553.6181122532244,84.74280612290313,-10.770688782095363
2025-02-19 12:56:18.224,971,111,582,18,6,55,-3,-10,14,440,0,8,-10.79786863460231,58.60904693725137,1824.6330534522751,208.58318118764424,70.34764458370319
2025-02-19 12:56:18.333,709,92,615,14,-9,-66,-5,-11,15,730,0,8,-8.50798580059137,48.74694343320362,1460.804632186153,189.5543387321947,-37.12954695977976
2025-02-19 12:56:18.440,980,136,559,-1,-12,-37,-3,-12,14,814,0,8,-13.673922541858193,59.58506557984974,1842.381739777412,255.67746592829394,67.09041578002729
2025-02-19 12:56:18.547,629,138,639,-6,0,65,-4,-11,16,575,0,8,-12.186577157883779,43.89545050010169,1322.3446116277714,290.1169418197654,-65.36757842630493
2025-02-19 12:56:18.654,754,76,520,-38,89,49,-6,-9,12,746,0,8,-8.315125756791886,55.12419353758891,1574.3933952860577,158.6921724691517,-45.78854847314324
2025-02-19 12:56:19.575,773,27,604,-11,4,-7,-6,-10,15,665,0,9,-2.5595312083274266,51.969203467260485,1560.6797211979656,54.51274575982545,-11.470312553132317
2025-02-19 12:56:19.665,776,37,607,2,-8,-4,-6,-9,15,725,0,9,-3.488178049784352,51.915324724196225,1563.100030480403,74.52925403063776,-8.682626935057215
2025-02-19 12:56:19.775,778,54,589,5,-12,-4,-6,-11,14,798,0,9,-5.238279947323068,52.75628811636472,1574.0684277476446,109.25410681024783,-13.67905391177726
2025-02-19 12:56:19.882,791,87,579,-4,1,-11,-6,-11,14,818,0,9,-8.545281895300844,53.4910808774057,1594.7642559711676,175.40390678823206,-9.343241728578846
2025-02-19 12:56:19.993,825,-53,559,24,17,-15,-4,-12,16,658,0,9,5.416146393137203,55.76023199204813,1651.6902427476693,-106.10858529166845,-1.1452675102389094
2025-02-19 12:56:20.099,798,142,596,-3,-21,11,-2,-10,12,621,0,9,-13.401161866721967,52.48392945832265,1591.182561328066,283.14276153958065,3.5979867775346293
2025-02-19 12:56:20.203,849,-16,580,1,0,-7,-3,-10,15,835,0,9,1.5801724728000146,55.65065260730638,1674.6126375538802,-31.55924876426629,15.977232295346994
2025-02-19 12:56:20.312,726,158,594,-14,7,83,-5,-9,16,378,0,9,-14.895389654372057,49.74770111887928,1489.206544706891,324.0972920987449,-30.441718396547117
2025-02-19 12:56:20.418,987,-1,501,-41,118,47,-5,-6,12,701,0,9,0.11436268148414117,63.08765986040939,1878.7000653143095,-1.903444848342766,48.37413098027429
2025-02-19 12:56:20.524,488,-102,730,0,-1,12,-3,-3,9,176,31,9,7.954214097730292,33.50701135391361,1040.0390247969822,-217.38520600264798,-95.7960821758137
2025-02-19 12:56:20.631,714,-22,727,39,25,18,-6,-6,10,6,32,9,1.733318557217234,44.47001046190557,1414.5358414786504,-43.585137972731516,13.709304264735692
2025-02-19 12:56:20.739,709,-113,742,41,17,38,-2,-4,7,0,29,9,8.659104317731856,43.36916716489215,1395.696416446628,-222.44526806554148,23.341691109452995
2025-02-19 12:56:20.849,669,-125,768,-3,-25,32,-3,-3,7,0,30,9,9.24442255471702,40.688284044790386,1320.9433653780657,-246.81303538454142,19.580710597377674
2025-02-19 12:56:20.953,734,-97,699,-24,-1,7,-1,-2,6,0,30,9,7.900461180959338,46.126182396415665,1454.8678995926853,-192.26455893799795,12.5059103333964
