Timestamp,Acc_X,Acc_Y,Acc_Z,Gyro_X,Gyro_Y,Gyro_Z,Mag_X,Mag_Y,Mag_Z,Force,IR_A,Letter,Roll,Pitch,Lin_Acc_X,Lin_Acc_Y,Lin_Acc_Z
2025-02-19 13:59:51.411,479,-160,859,-1,-1,2,-1,0,0,127,17,noise,10.551177507035995,28.7314067034127,959.7042332774988,-320.5692637252605,-3.056234624992385
2025-02-19 13:59:51.505,475,-144,866,1,3,7,-1,0,0,163,17,noise,9.44086311557841,28.41647564659168,950.877136114223,-288.2659107377855,-1.5991576314044096
2025-02-19 13:59:51.611,460,-167,865,0,-3,-3,0,0,-1,158,17,noise,10.927286029117727,27.571301189762444,922.852087634997,-335.03543181531415,-5.363164791896452
2025-02-19 13:59:51.718,473,-169,860,1,-5,-5,-1,0,-2,119,16,noise,11.117622457169514,28.354776855740884,947.9297607347767,-338.68949167902167,-3.5086558814119826
2025-02-19 13:59:51.827,479,-156,867,-2,-1,-1,-1,0,0,136,17,noise,10.200133007197078,28.53504730477197,956.6962353552434,-311.57539189022543,2.3598412254779078
2025-02-19 13:59:51.935,478,-162,859,0,-1,0,0,-2,0,143,17,noise,10.68005136711616,28.670792938108878,957.7763015708117,-324.6020101557981,-3.19214027055898
2025-02-19 13:59:52.042,478,-155,863,2,-1,3,-1,0,-1,158,17,noise,10.182107559324354,28.59739173129865,956.6518891339556,-310.21138664385586,-1.176946281597452
2025-02-19 13:59:52.148,505,-150,854,-2,3,3,-1,0,-2,163,17,noise,9.962045193821616,30.21733814969617,1008.2814598901366,-299.4895425416248,2.906204463016593
2025-02-19 13:59:52.257,481,-153,867,-4,-3,-6,-1,1,-1,173,17,noise,10.007979801441337,28.649754183690867,960.4540952313216,-305.5082672981127,2.786485310694843
2025-02-19 13:59:52.358,471,-165,860,-1,0,-1,0,-2,0,141,17,noise,10.860814621637326,28.274224469698833,944.6920626154457,-330.94307926018803,-4.915443416737503
2025-02-19 13:59:52.468,458,-171,867,0,0,4,2,1,0,149,17,noise,11.157347536435969,27.396533154497845,918.1460641247147,-342.80125974962056,-4.062527502462103
2025-02-19 13:59:52.573,498,-174,867,2,2,4,1,0,0,166,17,noise,11.348053412848339,29.386690684849,988.701364922309,-345.44987449092724,12.70665986417282
2025-02-19 13:59:52.684,480,-174,871,2,2,4,0,-1,-1,158,17,noise,11.297281606592088,28.38735248156897,955.4300231202478,-346.3433833810899,8.292603879716808
2025-02-19 13:59:52.792,442,-178,872,-1,0,-2,1,-1,-1,156,17,noise,11.537195282002516,26.410798545064974,886.8039862309533,-357.1292071246826,-5.53184613889448
2025-02-19 13:59:52.901,467,-165,863,-2,-2,-2,0,2,-1,149,16,noise,10.82395314173272,27.99100792699148,936.3329860788776,-330.8242884432865,-4.311278342765377
2025-02-19 13:59:53.008,481,-170,871,2,0,0,-1,-1,-1,134,16,noise,11.044031317841334,28.458201393444142,957.517515777115,-338.41575401685975,8.116930890088952
2025-02-19 13:59:53.112,474,-159,866,0,-1,2,0,-1,-1,152,17,noise,10.403792759240968,28.295601854714615,948.0206203454874,-318.00691695133435,-0.037673458210974786
2025-02-19 13:59:53.221,463,-163,866,-2,-2,-3,2,1,0,171,17,noise,10.659596558993734,27.718153301844435,928.1225459781206,-326.7472462082801,-3.970032002273115
2025-02-19 13:59:53.328,468,-168,873,0,-1,-3,-1,-1,-2,161,18,noise,10.892829601077658,27.763374779298164,933.8210937843057,-335.217828537956,4.06449813312156
2025-02-19 13:59:53.438,461,-175,862,-2,-1,-3,0,1,-1,154,17,noise,11.47600673215129,27.659530878644958,925.216559118722,-351.2210365418142,-6.0144771373935555
2025-02-19 13:59:53.541,483,-150,866,0,-1,0,1,0,0,165,14,noise,9.826712450994561,28.791164348380253,964.6185320584382,-299.570972688956,2.476917675760774
2025-02-19 13:59:53.641,475,-160,858,0,0,1,-1,0,0,159,14,noise,10.563198304479009,28.556408851369483,953.0237420548015,-321.01852363951207,-5.461833016883475
2025-02-19 13:59:53.757,469,-165,861,-1,-1,0,-1,2,-1,159,15,noise,10.848499930749677,28.14591021344311,940.7185644188404,-330.95642458232123,-4.990797365930803
2025-02-19 13:59:53.858,461,-158,865,0,-1,1,-1,0,-1,157,15,noise,10.351471037470036,27.66684175941783,925.3295724940901,-317.14115499797447,-6.247462488910969
2025-02-19 13:59:53.968,465,-160,859,-1,0,1,-1,0,-1,147,16,noise,10.551177507035995,28.020757179210943,934.7914072138063,-321.6486562456108,-8.851223218622863
2025-02-19 13:59:54.078,480,-158,865,-1,0,0,-1,-1,-1,134,14,noise,10.351471037470036,28.629311233994176,959.1409516530427,-315.71722991912657,1.548076708579174
2025-02-19 13:59:54.183,460,-167,868,-1,0,0,-1,1,0,139,14,noise,10.890423502069208,27.492902108882802,921.6387253975986,-334.59492856825864,-3.0922035763381928
2025-02-19 13:59:54.291,463,-174,863,0,-2,0,0,1,-2,135,15,noise,11.399277569031916,27.740662607041,928.470289255546,-348.9283592450648,-4.604448439603061
2025-02-19 13:59:54.401,474,-195,869,-1,-2,-2,1,0,-1,134,15,noise,12.647432341960258,28.022780836241452,943.8225861597496,-388.2814436733147,7.658592040459325
2025-02-19 13:59:54.507,466,-170,865,1,-4,-2,0,-2,0,133,14,noise,11.118734809385437,27.861656131557538,933.3382699177669,-340.4882100558377,-2.4841276370566447
2025-02-19 13:59:56.121,724,-104,570,8,8,7,-7,-7,14,510,76,A,10.340225148748292,51.33005751807563,1504.758303890744,-216.15312652574224,-44.685404996856505
2025-02-19 13:59:56.221,737,-47,594,-7,18,7,-7,-9,14,514,75,A,4.524078851858655,51.044835608212146,1514.6381849105542,-96.59158031315609,-32.75316395775985
2025-02-19 13:59:56.329,741,-102,618,8,-14,-3,-7,-7,14,515,77,A,9.372092708579087,49.79245108973467,1504.7109807999582,-207.12620788339507,-18.941141881746603
2025-02-19 13:59:56.431,765,-103,610,-2,10,8,-7,-8,14,512,83,A,9.584130750556623,51.038469838461026,1542.5683279118257,-207.69220624172297,-10.021803955835026
2025-02-19 13:59:56.542,809,-70,618,0,-1,-6,-6,-9,14,522,80,A,6.462270636839091,52.447248154656336,1601.7925214946204,-138.59762237901538,12.380990996692958
2025-02-19 13:59:56.648,752,-98,633,-6,3,2,-8,-7,14,520,75,A,8.800567734168512,49.5761914249912,1513.268923333299,-197.20791820035015,-7.80216551858814
2025-02-19 13:59:56.758,787,-98,631,-16,6,2,-6,-11,11,500,72,A,8.828023065784823,50.94443249973113,1563.5352586000358,-194.69689370114804,8.390408924240432
2025-02-19 13:59:56.857,771,-115,631,-3,1,5,-7,-7,12,569,66,A,10.328816253804582,50.24297821870376,1539.763461002128,-229.66640468903333,1.8304229671299481
2025-02-19 13:59:56.976,729,-151,647,4,-12,-8,-8,-5,15,670,67,A,13.136821728855281,47.65497380883711,1468.1019762057165,-304.09245323328287,-8.96567709890087
2025-02-19 13:59:57.083,763,-119,621,-22,-5,-12,-8,-8,14,649,82,A,10.84787975258945,50.35141824368847,1532.9724866611461,-239.08745204806868,-5.674854805467476
2025-02-19 13:59:57.191,777,-125,600,-7,-9,-9,-7,-7,14,645,94,A,11.768288932020644,51.73430819777023,1562.1473479332258,-251.3107059094636,-6.291388365425405
2025-02-19 13:59:57.290,794,-105,587,-5,-3,-9,-8,-8,17,661,108,A,10.141562103441373,53.09238810460439,1593.6048840199537,-210.74120002782763,-4.143661107950493
2025-02-19 13:59:57.407,808,-104,568,-6,-2,-6,-7,-9,14,648,119,A,10.37584492005105,54.4482486764958,1621.590677435188,-208.71959214512316,-3.9300801772112663
2025-02-19 13:59:57.506,769,6,633,7,5,37,-5,-11,15,0,118,A,-0.5430716937237866,50.539337613869826,1541.0611142740408,12.023883856494468,-2.5197468601663786
2025-02-19 13:59:57.608,837,-98,570,2,-1,26,-7,-8,16,0,121,A,9.755475997591743,55.35570264481586,1659.6971028662717,-194.3253477668992,9.740324212933274
2025-02-19 13:59:57.724,835,-330,763,0,-5,-17,-7,-9,14,388,116,A,23.388640577935014,45.127031440944904,1543.6727803665085,-610.0742724801771,115.43433362916642
2025-02-19 13:59:57.832,680,-29,686,0,-33,79,-7,-8,15,160,121,A,2.420683478937915,44.72276208723353,1383.6770289961871,-59.0097556483668,-23.88594395791813
2025-02-19 13:59:57.940,742,-17,633,7,60,-12,-7,-8,17,311,102,A,1.5383794279724523,49.52231537451645,1502.6588528409159,-34.4274939330129,-15.917862329244826
2025-02-19 13:59:58.045,1034,3,553,43,-31,-42,-7,-8,15,0,120,A,-0.31082396446026167,61.861054171571226,1915.806499965853,5.558432785200733,81.39555659466504
2025-02-19 13:59:58.152,840,-36,608,27,0,46,-7,-9,17,562,121,A,3.3885569907235045,54.05498854062609,1649.5807374799783,-70.69631732057049,22.01775191925401
2025-02-19 13:59:58.258,682,-178,639,0,8,-6,-6,-8,13,519,59,A,15.565723482628322,45.79513389150287,1398.851395101201,-365.09611191790873,-32.65401975024554
2025-02-19 13:59:59.081,788,-63,600,2,-6,-4,-7,-8,16,671,103,B,5.99409294910847,52.562073234746784,1582.0123959475463,-126.4806864780399,-4.577966457522734
2025-02-19 13:59:59.176,786,-63,605,1,-3,-1,-8,-10,13,751,110,B,5.944911230451411,52.26435400834656,1576.8429244837598,-126.38817333648454,-3.7276963265579752
2025-02-19 13:59:59.283,783,-56,607,-5,0,-5,-6,-11,14,735,112,B,5.271016121234812,52.09868539028939,1572.069990302835,-112.43412446610314,-4.705599123653769
2025-02-19 13:59:59.393,834,-151,596,-19,-7,-13,-9,-8,15,617,113,B,14.217057950948767,53.602090080210516,1638.9154440181587,-296.73409118314385,20.784646720836122
2025-02-19 13:59:59.498,840,242,541,-15,-19,62,-7,-11,15,1,118,B,-24.09991220140913,54.7952433482186,1657.0970405493306,477.4017664439738,14.750596503347765
2025-02-19 13:59:59.608,536,-330,483,11,-13,-78,-8,-11,13,492,106,B,34.34205394350414,42.498640112354295,1211.5727085039807,-745.9309585938687,-125.77167576011686
2025-02-19 13:59:59.717,625,-115,795,10,-9,-3,-9,-11,16,586,114,B,8.230975101190326,37.885244342177536,1239.0819631085321,-227.9910812119699,13.887742925947009
2025-02-19 13:59:59.823,921,-59,512,24,13,30,-7,-12,14,385,114,B,6.573449469605586,60.76878451031126,1793.6561554120985,-114.90305447265342,26.875188305109305
2025-02-19 13:59:59.930,734,-37,615,-4,-12,40,-7,-10,15,0,123,B,3.4429132403565776,49.99025023543479,1499.9350517581324,-75.60980506137724,-26.757570614783845
2025-02-19 14:00:00.032,997,66,530,-42,78,44,-7,-9,14,221,75,B,-7.0984042841582164,61.82201351982938,1878.4849449869891,124.35306556583879,61.40720075917335
2025-02-19 14:00:00.143,574,-240,663,23,-33,-27,-6,-6,12,172,48,B,19.8997975591438,39.14788020000073,1205.3241036216891,-503.96826632265737,-66.21233571634104
2025-02-19 14:00:00.248,854,-76,583,-4,0,-6,-8,-9,13,447,74,B,7.427206476752152,55.45469073878672,1677.6780193142818,-149.30155675396418,20.699900163669554
2025-02-19 14:00:00.970,787,-101,605,-1,-2,-3,-6,-10,13,525,87,C,9.477678889382116,52.06783549358435,1575.7391152156665,-202.22319013568278,-1.3369310107729007
2025-02-19 14:00:01.064,783,-92,601,-1,-1,-4,-8,-8,16,534,90,C,8.703174315503516,52.17060049298997,1572.8404146078685,-184.8037268760203,-5.250433179219613
2025-02-19 14:00:01.171,781,-90,596,-1,-3,-3,-6,-9,14,553,93,C,8.58716832791882,52.339904499273786,1572.6492481543828,-181.22718608693268,-8.126698975687418
2025-02-19 14:00:01.282,728,-92,597,6,-22,-21,-7,-9,16,674,114,C,8.760585365966872,50.31631329275973,1497.5813942597158,-189.25479158227176,-34.09902798495955
2025-02-19 14:00:01.388,796,-127,599,-9,3,-26,-8,-10,16,474,121,C,11.970584828078836,52.43106492503363,1588.6203385785384,-253.46078266265624,2.5432376777077934
2025-02-19 14:00:01.491,881,19,555,2,-16,64,-8,-11,14,1,114,C,-1.9607114023834662,57.775334098472534,1726.9636838481838,37.24439272771339,22.071686111530312
2025-02-19 14:00:01.601,772,-129,605,35,-13,2,-6,-8,15,513,116,C,12.036536253015793,51.294964400876125,1552.3754531324216,-259.39952519958865,-6.563664695744819
2025-02-19 14:00:01.708,601,-178,664,-41,36,13,-6,-7,13,492,56,C,15.006580264067047,41.16165405365013,1259.18574916533,-372.9368774566202,-63.18026197301026
2025-02-19 14:00:01.815,805,-76,603,2,-9,-13,-9,-8,12,496,63,C,7.183481409745688,52.947398739918235,1603.0826681454557,-151.34693512926043,5.18155417178923
2025-02-19 14:00:02.637,770,-102,616,-2,-3,-3,-7,-8,13,575,74,D,9.401979123950918,50.96164194277354,1546.7244734446372,-204.89077440435454,-5.379578755709758
2025-02-19 14:00:02.727,770,-99,618,-1,-3,-4,-9,-9,13,577,79,D,9.101124285235146,50.89474129380359,1545.9885192765441,-198.76995247841282,-4.806370016758592
2025-02-19 14:00:02.837,783,-100,609,0,-4,-6,-7,-8,15,604,85,D,9.32495912127579,51.75504825735832,1568.371475403132,-200.30287042185597,-1.8444808691027674
2025-02-19 14:00:02.945,753,-86,610,-3,-4,-12,-8,-9,14,631,93,D,8.0248760638062,50.713256966381955,1526.9867392284355,-174.39689186407097,-17.001209733526707
2025-02-19 14:00:03.055,839,-136,565,-11,-5,-23,-6,-11,14,584,113,D,13.53408129696451,55.291390645561336,1661.058490908188,-269.25381974197086,11.408763571959298
2025-02-19 14:00:03.160,836,157,535,-2,-10,38,-8,-9,16,0,117,D,-16.35474533051076,56.29914299442358,1667.9458229135998,313.23862942276935,2.5944793555312344
2025-02-19 14:00:03.268,624,-196,569,12,-9,-73,-9,-8,14,590,103,D,19.006984366750522,46.03700490141541,1343.788300505284,-422.0873507997366,-87.34542145433738
2025-02-19 14:00:03.377,723,-76,751,20,-14,-11,-6,-13,12,715,110,D,5.77856858881528,43.76591720012583,1414.7137072576566,-148.71126106719487,32.49793340179781
2025-02-19 14:00:03.481,875,11,464,-32,15,45,-6,-9,14,0,116,D,-1.3580507400431303,62.056968906794424,1758.4139495561951,22.10577536584931,-4.461797250370978
2025-02-19 14:00:03.588,608,-183,705,-31,46,19,-6,-7,10,81,44,D,14.551376456159513,39.85335813347997,1248.8249051309583,-375.87986453777194,-38.061773219285556
2025-02-19 14:00:03.698,732,-131,653,18,-30,-20,-6,-8,12,360,47,D,11.343675567594417,47.70249394740183,1471.66038889306,-263.3709165915175,-6.833652933289613
2025-02-19 14:00:06.012,781,-94,619,0,-1,-1,-8,-9,15,484,81,E,8.634840912383012,51.28223623506443,1561.236521984707,-187.90810892005442,0.6051125370887576
2025-02-19 14:00:06.106,765,-99,617,0,-2,-1,-8,-8,14,496,81,E,9.115627431562485,50.75625377236418,1539.4616985714847,-199.22445510925098,-7.631200024321856
2025-02-19 14:00:06.217,771,-96,624,-2,-2,-3,-8,-9,16,500,83,E,8.74616226255521,50.68730875522362,1544.6998943422195,-192.3361736145954,-2.1851284948701277
2025-02-19 14:00:06.321,770,-86,619,0,-2,-3,-7,-8,13,505,83,E,7.909685190388063,50.93660585816138,1546.4491828555388,-172.72029834490434,-5.184472970881188
2025-02-19 14:00:06.431,765,-102,622,-1,-2,0,-7,-11,13,517,85,E,9.312881285784393,50.513803318725635,1536.7778007349123,-204.90370676465503,-5.510839290347235
2025-02-19 14:00:06.537,775,-93,614,0,-3,-2,-6,-9,15,539,91,E,8.612883877729576,51.2949958203428,1555.3757960361963,-186.64509552434356,-4.259017762870258
2025-02-19 14:00:06.643,778,-88,615,0,-2,-2,-6,-10,16,557,96,E,8.143144871461564,51.39123916900852,1559.4250687575939,-176.3874113761803,-2.707477231259986
2025-02-19 14:00:06.750,779,-81,610,1,-3,-1,-6,-9,14,567,98,E,7.563878885125574,51.693783854194656,1563.7091247170413,-162.5936317099876,-4.470559791264577
2025-02-19 14:00:06.857,783,-80,610,0,-2,-3,-6,-9,14,563,103,E,7.471559176592376,51.842354870661715,1569.3138256549046,-160.3385773338344,-2.5816521704873594
2025-02-19 14:00:06.971,811,-89,645,-9,-7,-11,-7,-11,13,536,113,E,7.856319218743369,51.24076086682644,1590.783540732173,-174.57427265741475,24.826900404128992
2025-02-19 14:00:07.078,790,-217,557,18,1,-35,-7,-10,16,428,114,E,21.285245256586975,52.88591964644626,1587.435667266856,-436.0424554391236,-5.242616034985531
2025-02-19 14:00:07.180,829,-19,597,9,-9,45,-8,-10,14,0,117,E,1.82286848646239,54.22689662433904,1640.3383290154443,-37.59520898829124,12.718959683690969
2025-02-19 14:00:07.288,533,-330,648,-34,-6,-69,-7,-10,14,113,82,E,26.98789058174849,36.23989817824322,1124.167454885234,-696.0136212235034,-70.71765622069722
2025-02-19 14:00:07.396,793,20,608,27,-32,16,-8,-10,15,657,113,E,-1.8840502310918026,52.50734251381721,1586.4313471876662,40.010878869802426,-0.3307176419936013
2025-02-19 14:00:07.503,898,-2,642,4,59,46,-8,-11,15,638,94,E,0.17849094755360373,54.43805597340684,1711.4872289250543,-3.811775565534641,60.42004346338024
2025-02-19 14:00:07.610,847,-129,541,60,9,-9,-8,-9,15,431,110,E,13.411586801691506,56.709819190299704,1682.9014390875375,-256.3096642766143,7.088927336059442
2025-02-19 14:00:07.707,726,-31,700,0,-5,41,-7,-9,17,783,109,E,2.535727676968888,46.01650104095674,1445.5398303743102,-61.7241525366441,6.228813688681726
2025-02-19 14:00:07.821,907,95,445,22,1,-13,-8,-10,14,384,111,E,-12.050784883409554,63.35780773067921,1800.8242673158913,188.6199618467582,6.46438924413269
2025-02-19 14:00:07.929,845,-42,674,3,4,21,-7,-7,14,667,8,E,3.565749527618584,51.368841272236466,1626.181077177538,-80.82793519699007,50.90408755306419
2025-02-19 14:00:08.037,602,-181,679,-4,12,-14,-7,-5,12,411,46,E,14.926165021262257,40.58609721185529,1252.5899613606002,-376.60927409679175,-54.80495641835148
2025-02-19 14:00:08.858,750,-76,642,-3,-1,-2,-7,-8,13,527,66,F,6.751257931582337,49.239415909479085,1507.444388959536,-152.75436474789964,-6.372396949362496
2025-02-19 14:00:08.953,773,-74,627,-3,-3,-2,-7,-8,12,570,71,F,6.731043720645484,50.759591980191544,1547.4985554641146,-148.14345809100192,-1.2155165278136337
2025-02-19 14:00:09.060,771,-67,628,-2,-4,0,-7,-9,13,579,72,F,6.089730937373961,50.677412123557055,1544.5904500736813,-134.22511044738863,-2.1099904620905363
2025-02-19 14:00:09.169,744,-65,630,-5,-9,-16,-8,-7,14,575,82,F,5.8906264162041015,49.593271670500584,1505.4621925919882,-131.5255947829022,-14.786534049667466
2025-02-19 14:00:09.281,784,-62,520,-22,0,-28,-8,-11,14,493,110,F,6.799321441958474,56.2585364988596,1615.5523774892617,-127.7605196483855,-31.539842212265512
2025-02-19 14:00:09.383,781,182,632,2,-27,64,-7,-11,15,0,111,F,-16.06506109767322,49.89910944784638,1545.9113891691454,360.2507974760364,13.019208764532777
2025-02-19 14:00:09.490,867,23,660,-30,68,-24,-8,-9,14,351,87,F,-1.9958634289664448,52.7031937183285,1662.507257958041,44.10342206809105,54.423540654778435
2025-02-19 14:00:09.601,852,-142,378,55,13,-25,-7,-14,14,370,110,F,20.58926016050795,64.64212192084693,1755.6503873370498,-292.60839788950824,-22.915312691789552
2025-02-19 14:00:09.704,792,-53,669,22,-8,31,-9,-11,14,726,110,F,4.529666908670938,49.72394011606519,1554.9385137753911,-104.05522882587846,24.548149348817333
2025-02-19 14:00:09.818,2060,-115,549,25,-19,-32,-9,-10,14,302,107,F,11.830788848522173,74.7682570380598,3024.8710885409305,-168.86416270980922,291.8571710636065
2025-02-19 14:00:09.923,736,-33,634,14,-16,22,-7,-11,15,668,9,F,2.979583562491734,49.21962995828837,1493.218877956359,-66.95138990836936,-18.27821823958095
2025-02-19 14:00:10.030,653,-168,646,-31,33,6,-7,-9,13,493,59,F,14.57753923361749,44.3714004373457,1352.3066196594305,-347.9134947975257,-45.81022404286682
2025-02-19 14:00:10.137,839,-34,608,9,-13,-11,-6,-7,13,603,74,F,3.2007067010183667,54.02768885716944,1648.300954008413,-66.79646297531113,21.522073853259712
2025-02-19 14:00:10.855,760,-66,620,-1,-2,-2,-9,-9,12,562,75,G,6.076344821149005,50.634590951185594,1533.116635956354,-133.13907628042026,-10.700413543341597
2025-02-19 14:00:10.948,777,-57,621,-1,-1,-1,-8,-9,14,562,75,G,5.2443381107151605,51.24990915274484,1556.8834906378347,-114.21153020123111,-2.304565876570564
2025-02-19 14:00:11.058,775,-65,622,-3,0,-1,-7,-10,15,559,75,G,5.965847109311756,51.0981680801843,1553.2230702450365,-130.27032202055148,-2.5867737966618733
2025-02-19 14:00:11.157,766,-64,620,-2,-1,-2,-9,-10,14,562,75,G,5.893529232065083,50.86473840874427,1541.6581227663614,-128.80694498309023,-7.817279523686693
2025-02-19 14:00:11.270,757,-79,628,-2,-6,-6,-7,-9,14,569,79,G,7.169927787489635,50.10003565133265,1524.1655509463678,-159.06086991382173,-8.43324437822855
2025-02-19 14:00:11.382,854,-13,584,19,-17,-13,-6,-12,16,694,113,G,1.275209146800919,55.62747562785115,1679.3843277697667,-25.56439843209247,19.568562742922836
2025-02-19 14:00:11.489,748,-141,614,21,23,-17,-8,-11,15,437,113,G,12.933264999110683,49.89519319566298,1512.8673597567142,-285.179542414033,-13.84566696607294
2025-02-19 14:00:11.595,833,117,569,-10,-25,55,-7,-12,12,1,112,G,-11.619427259952369,55.10945710918955,1653.2463017791924,232.2086642354928,8.711709829099277
2025-02-19 14:00:11.704,789,-197,605,-12,-2,-19,-7,-10,15,466,116,G,18.036276870764862,51.11658842679026,1567.424925444106,-391.3595821451063,8.108897473150591
2025-02-19 14:00:11.805,843,83,601,-8,-8,29,-9,-9,17,0,116,G,-7.862991098099191,54.25756399079121,1654.6511055142137,162.9134540423247,22.34956771762461
2025-02-19 14:00:11.908,768,143,291,6,-8,-23,-7,-11,14,0,114,G,-26.169914134570504,67.11129083974882,1689.2620693506278,314.537078017109,-58.071955964886115
2025-02-19 14:00:12.025,785,-36,584,21,-3,16,-8,-9,17,642,113,G,3.527468050374119,53.300583229554704,1586.781727593545,-72.7696078896403,-12.484750209720346
2025-02-19 14:00:12.131,637,-169,639,-19,15,2,-7,-8,15,297,72,G,14.814156707433659,43.94200037732935,1330.9298382241764,-353.1038346309039,-57.10858182927575
2025-02-19 14:00:12.853,786,-59,608,-4,-1,-4,-7,-10,14,606,84,H,5.542598174834607,52.146704903613895,1575.584559865155,-118.26907001532336,-2.7727893104507757
2025-02-19 14:00:12.939,797,-51,602,1,-1,-2,-6,-11,13,639,87,H,4.842398726365219,52.836483056971105,1593.914734684839,-101.99454387569233,0.06440366339631964
2025-02-19 14:00:13.053,783,-40,612,-3,1,-4,-6,-10,14,643,91,H,3.739503362931072,51.929222739823366,1570.2496282683182,-80.21709467526529,-3.3215485315589603
2025-02-19 14:00:13.158,729,-62,615,-2,-11,-22,-7,-11,14,566,107,H,5.7567101426026595,49.70547064834548,1491.7300822414254,-126.86867640462054,-28.45541917486503
2025-02-19 14:00:13.269,783,-208,593,-1,0,-29,-8,-12,15,380,111,H,19.32877120695515,51.25012914215557,1562.8858938947524,-415.17275342287166,2.3584481742170738
2025-02-19 14:00:13.368,825,41,579,3,1,42,-7,-10,15,2,116,H,-4.050453055708589,54.870718216324605,1642.855746375894,81.64495224413531,5.013967088918207
2025-02-19 14:00:13.481,668,-205,583,4,-19,-28,-8,-9,14,0,112,H,19.373178639717466,47.22692659559859,1402.0490921715311,-430.2695567292873,-57.64464182036318
2025-02-19 14:00:13.590,748,-30,617,25,-16,24,-7,-12,15,639,114,H,2.7836641073960013,50.44871666063163,1519.0549442163078,-60.9246635380872,-19.017246766660037
2025-02-19 14:00:13.698,603,-299,640,-4,-20,-40,-7,-10,15,726,98,H,25.041393510607058,40.48486603504505,1252.2471739330415,-620.9318490978098,-49.08489438996105
2025-02-19 14:00:13.806,773,49,601,-15,-20,80,-7,-11,15,207,117,H,-4.661060181594082,52.04327166326605,1561.475496692003,98.98098232588374,-12.032048527676125
2025-02-19 14:00:13.907,1000,49,583,-19,66,24,-7,-8,15,472,93,H,-4.804305828336532,59.669994541735065,1863.1312141136298,91.29342949156785,79.79450217175378
2025-02-19 14:00:14.020,642,-182,663,-3,-10,-19,-7,-6,13,411,52,H,15.35013649242442,43.03879800461357,1324.493441961547,-375.47944927881866,-41.817993801410694
2025-02-19 14:00:14.838,772,-106,608,-1,-5,-6,-7,-8,15,481,78,I,9.88966692762117,51.359612763121376,1553.0805116473916,-213.24680600339838,-7.151491038360405
2025-02-19 14:00:14.932,775,-108,595,11,-6,-4,-9,-10,13,512,88,I,10.28789756243802,52.035554820149976,1563.3926497720859,-217.8663305488842,-10.282098857278697
2025-02-19 14:00:15.039,778,-63,612,0,7,-4,-7,-10,15,619,96,I,5.877392606643136,51.66342862151867,1562.3806113377614,-126.51668189496013,-5.019195551041207
2025-02-19 14:00:15.147,663,-71,591,-4,-11,-37,-7,-10,15,317,106,I,6.8504189662969415,48.08211611661839,1407.1030576326025,-150.68524448252603,-72.29548576299851
2025-02-19 14:00:15.253,737,36,662,20,-34,21,-7,-11,14,737,110,I,-3.112716620339459,48.02661527764195,1480.455572664433,72.31533326447703,-5.798628363438752
2025-02-19 14:00:15.363,668,-83,582,-45,33,-23,-7,-10,14,655,92,I,8.116319390863248,48.6498738530749,1418.686432851102,-176.27391306383456,-72.0411735319484
2025-02-19 14:00:15.469,784,-35,625,6,-16,65,-8,-12,15,313,113,I,3.205215931013497,51.394632660467714,1565.4620253548164,-69.88669756048287,2.0232578485200747
2025-02-19 14:00:15.580,468,-82,523,-20,30,-20,-6,-8,13,304,84,I,8.910733918294575,41.47789023597752,1130.3309857283687,-198.04944621736374,-217.16902892294195
2025-02-19 14:00:15.687,785,34,593,33,-52,25,-6,-10,14,538,115,I,-3.281494171814086,52.88685921715635,1582.4455621415286,68.53904345581142,-9.401552038122873
2025-02-19 14:00:15.789,804,62,519,-54,83,26,-6,-9,15,559,77,I,-6.812299252706017,56.971616064240486,1642.4006546072835,126.6527867980741,-22.206392712910656
2025-02-19 14:00:16.607,758,-68,613,3,-2,-4,-9,-9,15,573,85,J,6.32993287770923,50.86586567468084,1533.6705402430084,-137.58521996902977,-14.29029177963605
2025-02-19 14:00:16.706,776,-42,614,3,-1,-4,-6,-11,12,628,94,J,3.9131595249873983,51.582555195829904,1559.5043005926616,-84.40616059908734,-5.937681139038773
2025-02-19 14:00:16.813,736,-33,618,-5,5,-9,-10,-11,13,489,100,J,3.0565804481494387,49.94052205403762,1501.3767616737327,-67.31716458591465,-24.666900427128894
2025-02-19 14:00:16.924,913,161,651,39,-46,-10,-8,-11,14,739,107,J,-13.891191171454858,53.70212054466367,1718.9501923921935,303.12265167047445,76.3301475932991
2025-02-19 14:00:17.028,749,-3,598,-6,25,17,-7,-10,14,790,106,J,0.2874346096476211,51.39585691292501,1530.4753573234216,-6.13007486244361,-25.9282559137597
2025-02-19 14:00:17.136,889,-123,555,27,9,2,-8,-12,14,634,106,J,12.496011044437504,57.40333291358511,1731.4837360484685,-239.56411646114918,29.03996230944881
2025-02-19 14:00:17.243,754,26,621,-27,-15,29,-9,-9,16,59,117,J,-2.397456912922361,50.50025290749393,1525.6273910730206,52.60784107148346,-14.518050207354918
2025-02-19 14:00:17.350,1252,48,635,-4,47,36,-8,-10,13,434,96,J,-4.322798669952349,63.04049750325469,2143.327188784909,82.17228838791982,182.92910153481057
2025-02-19 14:00:17.461,479,-234,688,7,-17,-25,-7,-7,13,386,43,J,18.784004954094463,33.390459994431644,1029.3417265223597,-502.85169938670606,-102.46995375236645
2025-02-19 14:00:18.271,804,-58,613,0,2,-5,-7,-11,12,399,88,K,5.405043234474149,52.553554838917314,1597.9220079819465,-115.27298067531453,7.68384217296898
2025-02-19 14:00:18.370,764,-47,621,5,-4,-9,-8,-10,15,484,91,K,4.328144085848912,50.81473708164013,1539.1070277023787,-94.68328573561755,-9.02809450677637
2025-02-19 14:00:18.480,796,-96,552,-1,-3,-9,-8,-9,14,422,109,K,9.865806943084369,54.85918848552849,1613.7399363709148,-194.6219018738792,-15.075935774805316
2025-02-19 14:00:18.586,851,140,527,-5,-12,38,-6,-11,12,0,114,K,-14.877268790702121,57.35025460532068,1692.9843074731916,278.5168073398906,5.583160941983465
2025-02-19 14:00:18.697,1013,31,532,-26,38,-38,-7,-7,15,414,97,K,-3.3348927440273304,62.25277546309318,1898.0101912433674,58.0832338880004,67.21676037367064
2025-02-19 14:00:18.803,833,99,554,-4,-12,-10,-8,-12,14,595,111,K,-10.131830495807003,55.956975634591515,1661.6174314920756,197.47914251826586,2.9146974230375235
2025-02-19 14:00:18.901,897,105,436,-27,17,9,-6,-12,14,0,110,K,-13.540456776969965,63.436729156449374,1791.4410866938897,209.7004616531309,1.2437973260469448
2025-02-19 14:00:19.017,744,-32,599,-3,-29,26,-8,-10,18,0,120,K,3.057969481641476,51.12231002312738,1522.487607886661,-65.48333797361984,-27.766232693696338
2025-02-19 14:00:19.121,837,-55,507,-7,74,26,-7,-9,14,254,79,K,6.191307422254705,58.64652723518235,1690.973603466823,-111.11535028754513,-10.281501741552347
2025-02-19 14:00:19.228,750,-128,621,8,-18,-19,-6,-9,12,318,65,K,11.646649850491432,49.78862502016051,1513.6678703194293,-258.3326498678492,-11.316996624487388
2025-02-19 14:00:20.147,796,-1,606,6,-6,-7,-8,-12,14,410,99,L,0.09454740512680963,52.71770720944786,1591.6607230370148,-1.9995737726595664,0.25829376830279216
2025-02-19 14:00:20.246,853,-57,622,-4,1,-11,-7,-12,15,408,106,L,5.235953599343381,53.78667687545969,1659.8229553809688,-110.914312375985,33.67188951118112
2025-02-19 14:00:20.352,698,-153,609,20,7,6,-8,-12,13,305,107,L,14.102634839733497,48.025254501422765,1441.4396887862856,-315.9602756222087,-39.64580296683073
2025-02-19 14:00:20.458,813,18,566,2,-1,18,-6,-10,14,0,111,L,-1.8215133516011093,55.14128688278239,1633.5639466685031,36.16746745391521,-5.2659210508890055
2025-02-19 14:00:20.569,782,-23,601,16,-5,11,-9,-7,16,559,113,L,2.191614243532463,52.435943345752676,1574.6722496296788,-46.31388969499055,-8.202074203883626
2025-02-19 14:00:20.677,686,-159,666,-39,37,4,-7,-8,13,459,58,L,13.427384564649623,45.05364051244369,1393.7684670904455,-323.0454610311674,-21.133817904134958
2025-02-19 14:00:20.782,762,-127,641,8,-15,-16,-6,-8,12,395,59,L,11.206758912944172,49.38496049918723,1521.1004602318621,-253.516743371977,2.439114161911448
2025-02-19 14:00:21.602,775,-59,613,1,-6,-5,-8,-10,15,505,86,M,5.497667485169495,51.528540900001396,1557.9181546250118,-118.60280144887184,-6.263004884041493
2025-02-19 14:00:21.696,769,-47,618,0,3,-7,-7,-11,14,486,92,M,4.349074077149132,51.132511782374756,1547.5993530959495,-94.58669648310743,-7.714434607668068
2025-02-19 14:00:21.801,913,-69,680,-12,-8,-15,-8,-13,13,376,108,M,5.794005190251967,53.18067073484245,1713.5292391931698,-129.5000191723206,83.76792699742009
2025-02-19 14:00:21.912,881,120,568,-11,-23,57,-7,-11,16,0,113,M,-11.929322177238332,56.61699139364576,1716.011074786767,233.7359012195369,29.650067560858588
2025-02-19 14:00:22.017,802,-142,601,-9,35,-48,-6,-9,15,477,101,M,13.293645332983726,52.40338938598789,1594.3257356827148,-282.2871003328497,7.24966690110773
2025-02-19 14:00:22.125,823,9,651,-5,-34,20,-7,-11,14,542,107,M,-0.7920570921623958,51.65303942188414,1607.2681257457944,17.57644365943153,30.637241967786053
2025-02-19 14:00:22.234,778,-9,539,32,12,-29,-7,-11,15,659,111,M,0.9566124300907684,55.28196464225559,1599.9648045585545,-18.508590284096385,-30.458907014216834
2025-02-19 14:00:22.339,863,163,536,6,-9,67,-6,-10,14,524,111,M,-16.914751364266074,57.00944306852006,1701.7603199501918,321.4217058538601,15.055004063380352
2025-02-19 14:00:22.450,765,-119,554,-40,77,13,-7,-8,14,644,63,M,12.12300594912871,53.472600268701285,1568.5723152195715,-244.00013792304446,-27.93341520476156
2025-02-19 14:00:22.556,694,-187,673,10,-23,-21,-5,-7,13,614,50,M,15.528501814395526,44.814968497307284,1398.8195609595646,-376.91535720380193,-10.492167904592065
2025-02-19 14:00:23.369,773,-71,620,2,-2,-3,-7,-11,11,590,73,N,6.532832996772786,51.08565027446486,1551.085850798941,-142.4671350669144,-4.079207626576363
2025-02-19 14:00:23.469,754,-67,620,2,0,-2,-7,-8,14,646,75,N,6.1677063006708694,50.406920898141365,1524.5902331660254,-135.47419843782987,-13.641836290365973
2025-02-19 14:00:23.576,752,-43,628,1,2,-5,-8,-10,12,666,79,N,3.9170048991635773,50.06858860130566,1518.8133731178316,-86.84704128200366,-12.370742444146458
2025-02-19 14:00:23.684,749,-28,628,-3,-3,-17,-6,-10,12,526,90,N,2.552898147171757,49.99379362884932,1514.9748108353676,-56.634572367677286,-14.23255167504783
2025-02-19 14:00:23.787,797,-206,693,-5,-2,20,-8,-9,13,354,104,N,16.555018278582562,47.7883991979481,1537.6685763631262,-397.4400586333802,48.98077362654158
2025-02-19 14:00:23.894,829,44,628,12,-2,25,-7,-8,13,0,111,N,-4.007804542372337,52.7870985735528,1625.3937588168628,86.26939130029187,24.70050598674345
2025-02-19 14:00:24.006,734,-96,648,-6,-9,-46,-6,-9,13,537,95,N,8.426969021480673,48.25206525299346,1480.081376591062,-193.58012554869475,-10.66584745368948
2025-02-19 14:00:24.116,801,-107,591,8,-36,70,-8,-9,14,393,107,N,10.262183945367507,53.13660242572208,1601.0680634419723,-213.8755090989901,0.6876086214658699
2025-02-19 14:00:24.223,834,32,480,20,-3,-50,-6,-7,15,281,118,N,-3.8140748342903548,60.02291537718234,1700.2253089054016,65.23646269181398,-18.546940377209694
2025-02-19 14:00:24.329,818,57,603,9,13,-3,-9,-12,14,752,106,N,-5.399973423325059,53.481905190778924,1621.668967169969,113.00138279790735,10.564318822137693
2025-02-19 14:00:24.436,624,-119,668,-16,3,24,-7,-9,12,605,59,N,10.100920880235876,42.60328732054399,1300.9182018202418,-248.0917724625141,-56.6496134870539
2025-02-19 14:00:24.537,811,-17,595,-1,-9,-7,-8,-8,14,552,75,N,1.6365770416167182,53.72276309856214,1617.1634201568024,-33.89861669872459,3.5484155446395107
2025-02-19 14:00:25.161,785,-43,610,-3,0,-2,-5,-10,14,509,80,O,4.032212829914596,52.08146849327812,1573.8853617350046,-86.21282873198112,-3.0191982908949058
2025-02-19 14:00:25.256,777,-38,606,1,-3,-2,-7,-12,12,518,83,O,3.588106673889239,51.99398748658689,1564.9461428884883,-76.535332599437,-8.53714619102152
2025-02-19 14:00:25.361,789,-51,596,0,-3,-3,-9,-9,14,584,88,O,4.890912406323272,52.83252008080101,1585.8729495715966,-102.50889788105376,-5.9471203354517
2025-02-19 14:00:25.476,702,-41,629,9,-27,-21,-6,-11,15,690,112,O,3.729425158313475,48.07892461586885,1446.065843799097,-84.45683703100141,-37.69147542682629
2025-02-19 14:00:25.582,772,-115,592,22,18,-19,-6,-12,15,565,112,O,10.993178546032022,52.003971558126665,1560.0534273758285,-232.3913784303371,-12.310400267474506
2025-02-19 14:00:25.689,796,152,659,-20,-29,33,-9,-10,15,388,112,O,-12.988266821919996,49.647899824073555,1558.0798758354085,297.5227903605302,28.08211284480649
2025-02-19 14:00:25.791,839,-59,527,2,15,-27,-6,-13,14,655,112,O,6.387918331716841,57.7049482325167,1684.3079783145845,-118.44358846312332,-3.962222373999907
2025-02-19 14:00:25.900,705,-68,663,-22,25,36,-8,-10,14,529,63,O,5.856013585428958,46.60889531443903,1431.6813342850287,-138.09124926437153,-20.389680327622614
2025-02-19 14:00:26.009,801,-24,616,12,-18,-6,-7,-9,13,565,68,O,2.2311746080312513,52.41732181695595,1593.474067901842,-47.744541360354816,6.556771750893063
2025-02-19 14:00:26.828,775,-41,613,1,-2,-3,-8,-10,14,492,77,P,3.8264818889931527,51.59490740717709,1558.6382450551107,-82.45699102872197,-6.8325731855262575
2025-02-19 14:00:26.922,779,-35,614,0,-2,-3,-7,-11,13,492,82,P,3.262515412171047,51.70998415827616,1563.8843591020925,-70.26438070420184,-4.637992925140907
2025-02-19 14:00:27.033,749,-39,621,-1,-6,-12,-8,-10,13,498,91,P,3.593566187865195,50.28226899582607,1518.2018423070426,-79.05189833107433,-16.74945804095273
2025-02-19 14:00:27.137,812,-91,538,-4,0,-23,-8,-12,16,408,106,P,9.600425657385948,56.0999772400439,1642.0120635387702,-184.0185933276208,-11.934101211648226
2025-02-19 14:00:27.242,830,108,562,7,-6,28,-7,-10,14,0,115,P,-10.877964253816563,55.41382352087739,1653.2733459386388,215.12472453177472,4.554674195765074
2025-02-19 14:00:27.355,852,-199,526,22,1,-50,-7,-11,13,645,105,P,20.722983542858525,56.572139440138784,1686.5800886356649,-393.93126483391706,10.75454621788765
2025-02-19 14:00:27.457,663,20,637,-16,-1,49,-9,-12,16,601,107,P,-1.7983348063102058,46.13166064628446,1383.93416338193,41.74763690443227,-55.66223540616784
2025-02-19 14:00:27.567,978,24,499,-43,57,39,-7,-11,12,296,75,P,-2.7535869032582645,62.94138478189519,1868.5416127696976,45.853781908458835,44.62345115329333
2025-02-19 14:00:27.668,514,-193,744,26,-33,-11,-6,-7,11,491,45,P,14.542472587766081,33.77168703684948,1069.8849129414266,-401.72721439240337,-60.62718916035283
2025-02-19 14:00:27.778,845,-7,590,-10,6,6,-7,-8,13,563,65,P,0.6797485413566458,55.074404724551485,1664.8962039960147,-13.792039559730298,17.528094251303287
2025-02-19 14:00:28.499,767,-70,619,0,-3,-3,-8,-8,12,476,65,Q,6.451918882196394,50.917035404697884,1543.2338877535258,-140.84272769588887,-7.452120625074599
2025-02-19 14:00:28.593,752,-68,623,0,-8,-9,-7,-9,13,484,71,Q,6.2291339863794235,50.192926151165935,1520.2044885447112,-137.46529949606432,-13.42472920658929
2025-02-19 14:00:28.708,741,-53,610,10,-19,-11,-6,-10,16,530,87,Q,4.965687546204708,50.432625791463174,1511.876084575134,-108.1368859412714,-24.5943476259539
2025-02-19 14:00:28.814,788,-42,584,-15,2,-33,-8,-11,14,528,113,Q,4.113504721074118,53.38651146644804,1590.6770900897595,-84.78228145148465,-10.877437325405594
2025-02-19 14:00:28.920,983,254,514,12,-19,73,-7,-13,12,86,107,Q,-26.296898160634523,59.74715329630378,1846.810474454433,477.2022996047059,62.322905524335226
2025-02-19 14:00:29.027,780,-186,675,-7,-6,-53,-7,-10,15,549,115,Q,15.405840060238937,48.087636679921324,1524.1674235667529,-363.45530869668727,31.008960374925323
2025-02-19 14:00:29.133,523,40,570,-30,37,18,-8,-9,13,214,64,Q,-4.014175695411026,42.467646687246706,1198.173780186294,91.63853003336854,-165.84905297550176
2025-02-19 14:00:29.242,945,103,611,-12,-55,44,-8,-10,13,399,106,Q,-9.56873504841868,56.74780768006162,1781.2651757814251,194.14847947670557,70.30367999740668
2025-02-19 14:00:29.346,930,27,493,-39,58,41,-6,-10,16,114,86,Q,-3.1347710957199486,62.03608110541207,1813.2430600123846,52.642540451972465,24.78620582139166
2025-02-19 14:00:29.458,711,-135,638,8,-5,-16,-6,-7,14,158,52,Q,11.947483254598463,47.473069596506406,1447.9597116276268,-274.9290591698026,-23.29436852099309
2025-02-19 14:00:30.267,780,-64,604,-3,-1,-9,-7,-9,15,430,68,R,6.048506661000621,52.09232458636042,1569.0017873478487,-128.738608192644,-6.970614818077479
2025-02-19 14:00:30.372,787,-68,613,-1,-3,-7,-6,-10,13,543,73,R,6.32993287770923,51.91473388873199,1574.0936697203767,-136.00809344470852,-0.07296002362238596
2025-02-19 14:00:30.477,788,-42,616,8,-10,-9,-8,-9,14,634,87,R,3.90049374238189,51.91985184104482,1575.148765305039,-83.9546296228574,0.6654321980914801
2025-02-19 14:00:30.584,798,-8,604,-4,8,-8,-6,-11,15,659,101,R,0.7588401242685469,52.87578580908013,1595.3289314407496,-15.993272495646611,0.5079265786808946
2025-02-19 14:00:30.688,813,-1,616,-6,4,-18,-8,-12,13,620,106,R,0.09301254737281277,52.849206598947674,1610.048864311321,-1.980379906901994,12.08597734837167
2025-02-19 14:00:30.799,869,223,643,-19,-27,70,-8,-12,15,133,110,R,-19.12715039846395,51.933137181687606,1656.2917548330604,425.03229151642404,60.45845988762039
2025-02-19 14:00:30.911,801,-106,585,17,27,-61,-7,-10,13,505,106,R,10.270367291635392,53.41610404441286,1603.9850235674307,-212.2626872636051,-1.4497363132920782
2025-02-19 14:00:31.014,704,29,725,22,-20,-1,-7,-12,15,728,103,R,-2.2906100426385296,44.135175407893264,1400.3535423140768,57.68501807827874,7.874548043031723
2025-02-19 14:00:31.120,932,-144,429,4,10,-2,-7,-12,16,255,109,R,18.555065585131956,64.1015897741672,1831.5698984579585,-282.9893405342769,14.927589658300064
2025-02-19 14:00:31.227,812,1,581,7,-11,29,-7,-9,15,436,114,R,-0.09861570212561904,54.415586229273245,1625.2590864646231,2.0015505990943634,-0.9008980738251466
2025-02-19 14:00:31.337,606,-226,660,-22,44,6,-7,-8,14,331,48,R,18.90244707502902,40.9797253314499,1261.7919265998512,-470.56926635572023,-54.22883095033342
2025-02-19 14:00:31.444,813,-42,615,10,-15,-13,-8,-7,14,479,55,R,3.906816384103421,52.829885172058844,1609.8451653212228,-83.16543289482331,12.220446897229976
2025-02-19 14:00:32.157,752,-83,615,2,-8,-6,-7,-7,13,408,65,S,7.686160348871317,50.46941155923602,1523.2848909949644,-168.12851855396548,-15.771553140828473
2025-02-19 14:00:32.254,804,-52,593,-2,-6,-9,-7,-9,14,490,80,S,5.011431603029213,53.484030500370295,1607.6910401811608,-103.98001752415468,0.22787708031319198
2025-02-19 14:00:32.366,785,-71,589,7,-17,-9,-6,-12,12,547,96,S,6.8734579883628495,52.91983035633367,1582.7926543568487,-143.15704262335828,-9.598564861380737
2025-02-19 14:00:32.467,808,-11,594,-4,1,-15,-7,-10,14,537,116,S,1.0609116902642277,53.67390144997454,1613.6585333139176,-21.96812359709541,1.7213257568478184
2025-02-19 14:00:32.578,882,-23,488,38,22,8,-7,-12,17,167,107,S,2.698418979989866,61.01783658539866,1756.7705894538708,-45.811477956280086,3.9999459711007717
2025-02-19 14:00:32.682,788,78,689,-1,-19,9,-8,-10,15,461,111,S,-6.458816378718656,48.65381936791577,1538.7319254970103,152.3110281583335,32.58591793472078
2025-02-19 14:00:32.791,1174,14,532,-7,48,3,-8,-8,15,0,103,S,-1.507435758774968,65.6148092073584,2084.7904052509066,24.8612143726684,119.27385383860099
2025-02-19 14:00:32.899,499,-218,704,-11,12,7,-6,-7,10,124,39,S,17.205614336444118,34.101429031878915,1059.659647299528,-462.93748118496404,-86.99076492759048
2025-02-19 14:00:33.008,840,-41,617,14,-21,-17,-8,-8,11,364,52,S,3.8017478595422807,53.64159034501812,1645.3243411834799,-80.30749760538413,25.470097011658368
2025-02-19 14:00:33.729,774,-54,623,1,-1,-2,-7,-11,15,485,76,T,4.953866023380243,51.06430094963852,1551.8517350792013,-108.26872570320005,-3.1002983906229247
2025-02-19 14:00:33.817,793,-31,622,7,-5,-6,-7,-11,15,546,87,T,2.853216583818125,51.8561509818559,1579.4625679885082,-61.74443834507409,5.127720947223111
2025-02-19 14:00:33.930,766,-13,632,1,4,-6,-8,-10,12,547,92,T,1.1783862500557731,50.469194371241045,1537.2824782811117,-26.089650414692496,-4.358389391204355
2025-02-19 14:00:34.041,781,115,636,-1,-2,-27,-7,-12,12,234,102,T,-10.24934268643372,50.3906805446852,1551.4095522700043,228.44058708201084,8.624231442096402
2025-02-19 14:00:34.146,958,298,589,4,-60,14,-9,-12,12,641,99,T,-26.836777091512854,55.43183250650916,1781.4517252695596,554.1467788416794,82.72331296057337
2025-02-19 14:00:34.253,792,7,589,-11,-1,15,-9,-11,15,744,103,T,-0.6809025050190378,53.360365371793016,1594.4048417447439,14.091961985117685,-7.737944176331098
2025-02-19 14:00:34.364,1357,-177,614,22,-10,-26,-7,-12,14,497,103,T,16.080875780548983,64.78453624298342,2261.7121044600462,-295.0059266687017,204.64610748823253
2025-02-19 14:00:34.466,797,149,551,-15,-13,45,-8,-9,16,0,111,T,-15.13186429681273,54.39074623553048,1610.0067325427349,300.99247572003446,-11.06613504522818
2025-02-19 14:00:34.567,838,-7,516,-24,55,17,-9,-7,14,218,75,T,0.7772206508781923,58.37488754853344,1689.4971919585776,-14.11274504022678,-8.31092010814541
2025-02-19 14:00:34.681,651,-134,652,15,-27,-20,-6,-8,11,332,57,T,11.613796458137658,44.36347914235556,1350.2077869435261,-277.92295460895934,-48.281838843593164
2025-02-19 14:00:35.499,780,-54,607,-1,-2,-2,-8,-8,15,482,96,U,5.083770133772319,52.000252949518,1568.0134716225125,-108.55477880463548,-6.236124711365392
2025-02-19 14:00:35.597,794,-56,602,2,-2,-3,-7,-10,15,504,98,U,5.31454566994475,52.71218766080336,1589.6023655641952,-112.11301318840674,-1.2148917753725073
2025-02-19 14:00:35.698,779,-35,609,0,1,-6,-7,-10,15,514,99,U,3.2892426784918265,51.93687116953571,1566.3319359574784,-70.37434885559915,-6.513670087425226
2025-02-19 14:00:35.813,787,-46,622,-12,-3,-16,-9,-12,15,327,108,U,4.229608611774089,51.60312421348679,1570.7273259900644,-91.80871282788179,2.586535240380954
2025-02-19 14:00:35.917,841,127,578,20,-27,42,-7,-10,15,227,111,U,-12.39228943127071,54.86703019031646,1658.818705721219,250.49937648822208,15.931971573288365
2025-02-19 14:00:36.027,770,-33,611,12,-8,-25,-7,-8,14,729,111,U,3.091531010027422,51.52713346945169,1552.9028723324393,-66.55298024281882,-10.23851298067575
2025-02-19 14:00:36.133,804,-105,605,-8,0,-10,-8,-12,15,753,111,U,9.84582236785257,52.62971452067887,1598.7295086503423,-208.7893015028432,6.975929435998751
2025-02-19 14:00:36.240,854,179,528,5,-9,37,-8,-9,16,411,110,U,-18.727437499179544,56.86229261370101,1691.3591356763009,354.5120436604892,10.288496912076425
2025-02-19 14:00:36.346,802,-34,544,-41,66,12,-7,-8,14,549,69,U,3.5763343749973515,55.798884443133055,1629.069630275556,-69.0628022810086,-17.004836496137614
2025-02-19 14:00:36.457,723,-108,625,7,-21,-18,-7,-7,13,494,54,U,9.803894866674046,48.740657825245606,1474.7322900234835,-220.29196033545816,-24.837733422790052
2025-02-19 14:00:37.268,754,-46,625,0,0,-2,-7,-11,13,707,76,V,4.209379640095126,50.26818182509401,1523.0447082714495,-92.91784692372238,-12.470746246228146
2025-02-19 14:00:37.366,762,-33,635,4,-1,-3,-7,-8,15,707,77,V,2.974899740148437,50.15642472751058,1529.7964775539567,-66.25102855548633,-4.830397961630638
2025-02-19 14:00:37.477,762,-24,638,3,-2,-5,-7,-10,11,731,81,V,2.1543113375859386,50.04161969176872,1528.51116231394,-48.14208385240755,-3.777062409834116
2025-02-19 14:00:37.588,682,-38,639,11,-13,-29,-6,-12,11,654,97,V,3.403252737685813,46.81392007363823,1411.1349173900974,-78.62628571968284,-44.16306775992996
2025-02-19 14:00:37.691,895,-68,677,-17,-16,33,-7,-12,14,682,99,V,5.73573021376624,52.75678751634636,1691.0737028036285,-128.48381205658853,74.83028290719949
2025-02-19 14:00:37.797,816,-2,620,8,-19,15,-8,-10,14,575,107,V,0.1848244541214891,52.77214433023019,1612.235884042274,-3.951558539319299,15.01685281101743
2025-02-19 14:00:37.907,779,-87,596,-7,-3,-43,-8,-9,15,711,110,V,8.3049891398961,52.28910080152723,1570.107189759858,-175.35215084609456,-9.263010393935133
2025-02-19 14:00:38.013,813,54,572,-5,8,-2,-9,-11,16,777,110,V,-5.393058296260039,54.75132994427219,1629.654951581818,108.2427643117075,-2.5715034499385183
2025-02-19 14:00:38.117,696,-84,644,-24,32,31,-8,-9,12,712,63,V,7.431407971172507,46.981307226501876,1427.1311604330208,-172.239967638468,-32.50641856158825
2025-02-19 14:00:38.226,799,-18,616,13,-14,-1,-7,-9,14,638,66,V,1.6737510522121681,52.35725729844879,1590.8342541108823,-35.83856892865566,5.52452999711727
2025-02-19 14:00:38.940,771,-48,639,-8,1,0,-6,-9,12,587,72,W,4.295840511271507,50.269054699549045,1540.054446019517,-95.87887601677926,1.6124630266260738
2025-02-19 14:00:39.037,767,-47,625,-5,0,1,-7,-8,12,628,73,W,4.300548217398965,50.74554639409295,1541.3434615027859,-94.44999047018376,-5.983915826911698
2025-02-19 14:00:39.147,751,-35,636,4,-5,-13,-7,-9,13,633,84,W,3.1498924166688234,49.6969822605347,1513.6342625502652,-70.54220930660358,-9.8527176857109
2025-02-19 14:00:39.258,789,-46,636,-7,1,-20,-6,-11,12,438,103,W,4.136830870927964,51.05522764213866,1566.7522048994656,-91.3442350131501,9.066663731229141
2025-02-19 14:00:39.367,904,-187,728,-9,-35,59,-9,-12,14,481,103,W,14.406007805281737,50.258067555057785,1672.9318609149623,-346.0600199016569,108.77168722777401
2025-02-19 14:00:39.472,844,24,583,13,-22,-1,-8,-9,14,176,111,W,-2.3573288460819275,55.34221418049749,1666.5632495877044,47.39042415889207,14.807613140246985
2025-02-19 14:00:39.580,785,-134,578,11,4,-16,-7,-10,15,673,109,W,13.05252054129197,52.91677678402823,1582.76052003396,-270.17822889751676,-9.395644050482588
2025-02-19 14:00:39.688,814,137,533,-4,-14,21,-7,-8,15,356,111,W,-14.415011283251136,55.93834244956933,1642.4353299086902,276.42953341215053,-9.45212634070242
2025-02-19 14:00:39.795,844,-93,535,-10,1,-43,-7,-11,14,628,117,W,9.861287279173801,57.243086889241965,1684.9737347323667,-185.6665371209835,1.918307959933486
2025-02-19 14:00:39.900,1045,160,539,-3,56,43,-8,-10,15,666,92,W,-16.533311435257037,61.718201306187055,1925.627913970944,294.83298204339815,84.7813917413024
2025-02-19 14:00:40.009,618,-167,672,-2,24,25,-7,-6,12,496,41,W,13.955969223409951,41.74879192691573,1283.8659353427927,-346.93464595832745,-52.04839571255127
2025-02-19 14:00:40.828,749,-92,633,-1,-2,-3,-6,-7,12,649,69,X,8.269446225936408,49.50246588677208,1509.43391573903,-185.40443290786482,-9.663109029113343
2025-02-19 14:00:40.921,739,-75,636,-8,-3,-8,-7,-8,12,673,70,X,6.725517097325259,49.088263007046784,1494.7193301964517,-151.6968197087062,-14.389031129828481
2025-02-19 14:00:41.030,751,-61,643,-3,-11,-13,-8,-10,14,724,83,X,5.4193060578161125,49.30328542718557,1509.1717272660285,-122.58252378592243,-6.1403736778379425
2025-02-19 14:00:41.138,759,-101,618,-5,-6,-10,-6,-8,15,742,92,X,9.281816280098196,50.476297467365505,1530.3613799278887,-203.6449267097717,-10.064997095435047
2025-02-19 14:00:41.245,781,-95,635,-7,-7,-10,-7,-10,13,734,112,X,8.508703316270307,50.57607527734116,1553.4684647749618,-188.96223323126935,6.936651559410052
2025-02-19 14:00:41.352,803,19,617,10,8,47,-6,-10,14,137,108,X,-1.7638183155794331,52.44933564926029,1595.8147269746996,37.75900350251469,7.82604415518108
2025-02-19 14:00:41.458,820,99,616,15,28,-50,-7,-8,14,222,103,X,-9.130176482278692,52.73396997786519,1615.832624249737,195.08223146429745,18.15500422214916
2025-02-19 14:00:41.567,766,-67,504,1,-1,-25,-6,-11,13,230,101,X,7.572302930610111,56.4257105417694,1599.1694822281006,-139.8751374794814,-44.195064024755425
2025-02-19 14:00:41.675,781,-11,607,-3,-25,33,-7,-9,14,0,115,X,1.0381953800796482,52.14077978558928,1570.5210972184586,-22.12001545378111,-6.62267094955746
2025-02-19 14:00:41.782,695,-173,550,-20,50,13,-7,-7,14,310,73,X,17.460731603551196,50.32116504806672,1464.6354632349978,-364.57832394194907,-59.06403565359528
2025-02-19 14:00:41.892,769,-131,617,13,-18,-23,-6,-8,13,371,75,X,11.98690333974582,50.64051786864051,1542.1822427545349,-262.71244967600006,-3.355583588488912
2025-02-19 14:00:42.707,752,-85,630,2,2,-4,-7,-10,11,311,85,Y,7.683981829733963,49.79026730864093,1515.686375325744,-171.3209333812343,-9.790447413854281
2025-02-19 14:00:42.802,763,-51,624,0,1,-7,-8,-9,14,281,88,Y,4.67244275538945,50.62936408353544,1536.0587713511159,-102.67234251495007,-8.226308418212739
2025-02-19 14:00:42.912,810,-47,616,-9,-1,-9,-7,-10,14,189,104,Y,4.363140009151815,52.66708119969756,1605.125184127171,-93.13689339997164,11.31220565143542
2025-02-19 14:00:43.020,770,15,631,-3,-21,39,-7,-11,13,0,108,Y,-1.3617668128381295,50.658114501357986,1543.3769763256516,30.06578525309711,-2.767366313618254
2025-02-19 14:00:43.117,862,-81,603,-26,33,3,-7,-8,15,499,92,Y,7.650650955359412,54.784829885902894,1678.9922486105502,-157.77073333811438,31.48454070514856
2025-02-19 14:00:43.229,802,159,614,-3,-19,-4,-9,-9,14,657,113,Y,-14.518261598547157,51.66166792943239,1586.361549846648,314.50310028131787,13.503751114910756
2025-02-19 14:00:43.338,892,54,556,-29,0,14,-10,-9,15,0,114,Y,-5.5472995874217625,57.9430909656555,1739.521335602319,105.30734542883994,27.724369288240723
2025-02-19 14:00:43.448,751,-130,619,-9,-20,29,-7,-8,15,0,115,Y,11.86066564082278,49.895400988861816,1515.8696960117857,-262.40087946941696,-11.431879935146867
2025-02-19 14:00:43.547,888,-59,597,32,13,15,-7,-6,14,0,113,Y,5.6440696217638795,55.95812383404483,1716.6286499461285,-114.05528192209638,39.91519817810945
2025-02-19 14:00:43.657,667,-215,643,5,1,-23,-6,-6,14,92,68,Y,18.48839636293491,44.53173199466249,1368.3041747028537,-441.0575675578914,-33.06984158011244
2025-02-19 14:00:44.480,772,-104,630,3,-2,-7,-6,-11,13,274,91,Z,9.373811805446557,50.405618982113104,1542.575751074395,-207.80813226908947,1.1622756776312144
2025-02-19 14:00:44.575,802,-65,630,1,-2,-7,-9,-10,15,240,100,Z,5.8906264162041015,51.70163399837084,1586.7940454761874,-128.60550243884313,13.515899438905194
2025-02-19 14:00:44.677,750,-87,627,3,3,-9,-6,-9,15,98,92,Z,7.8996916142652305,49.83531703699112,1514.1937427089465,-175.64647415423778,-11.865968904679221
2025-02-19 14:00:44.792,843,-57,582,-14,-1,-7,-7,-12,15,0,105,Z,5.593603449112254,55.25116241222089,1664.6585018220842,-112.55698055024769,14.733988065892163
2025-02-19 14:00:44.898,698,-68,675,36,-12,4,-7,-11,16,731,106,Z,5.752611155424063,45.81514130693436,1415.0948194105117,-137.86024028641089,-18.465620490107995
2025-02-19 14:00:45.005,838,63,507,-70,19,13,-7,-11,13,0,108,Z,-7.083285999752563,58.63080299241898,1691.8307757947957,127.19014185569468,-9.577808267257183
2025-02-19 14:00:45.111,753,12,629,38,-32,12,-6,-9,13,343,108,Z,-1.0929506477450204,50.12200718117359,1520.4114745922975,24.229664933741795,-12.038270276965704
2025-02-19 14:00:45.218,867,18,625,-20,6,15,-6,-7,17,437,107,Z,-1.649662452139926,54.20178131276731,1678.0820047985585,34.83907276398391,40.309973472780825
2025-02-19 14:00:45.324,790,-72,621,4,-9,-4,-8,-8,12,219,79,Z,6.613460482314756,51.64396054867939,1574.169806163116,-143.4686405617017,4.582975155322856
2025-02-19 14:00:45.431,777,-83,628,-6,5,1,-6,-8,13,215,79,Z,7.528896101951476,50.81083384838732,1552.0639829480713,-165.79319251568842,1.5647602427429774
2025-02-19 14:00:45.537,766,-72,620,-8,2,-1,-7,-7,14,82,73,Z,6.624032634517511,50.82551057305704,1541.2258188166757,-144.86717879216795,-7.467372932557282
2025-02-19 14:00:46.562,774,-88,620,-2,0,-3,-6,-10,12,367,83,a,8.078344663164005,51.02499267560268,1551.4203998855633,-176.38888267432762,-2.7398552054900165
2025-02-19 14:00:46.649,758,-95,623,-3,-1,3,-9,-9,14,293,82,a,8.670127372379442,50.25984877290465,1526.9517361316252,-191.37257906662848,-9.001229036942505
2025-02-19 14:00:46.761,765,-108,618,2,-6,13,-7,-9,13,234,84,a,9.912751446723837,50.64529526324958,1538.2351191229568,-217.16260505265268,-6.652684467957101
2025-02-19 14:00:46.868,950,-3,672,5,-8,-8,-6,-8,15,399,113,a,0.25578303073926417,54.725348464670304,1766.3931626009846,-5.57808367137153,94.50925761277722
2025-02-19 14:00:46.978,784,-278,553,-11,17,-30,-7,-8,16,0,116,a,26.689247036419687,51.70994027362512,1568.883884498235,-556.3134182276904,-0.6234542442905422
2025-02-19 14:00:47.079,798,-19,659,5,-17,22,-8,-8,14,3,111,a,1.6514693769718063,50.43792297476222,1568.9349726516662,-37.35559458694443,22.35069301071701
2025-02-19 14:00:47.192,809,-87,500,-6,4,-24,-7,-7,14,361,114,a,9.870642846137796,57.89858620394182,1656.1088086537704,-178.09822787747595,-23.55303377859741
2025-02-19 14:00:47.297,1020,18,596,-14,53,15,-7,-7,16,298,98,a,-1.7298836218130829,59.690291486768224,1883.3100482661052,33.234883204695976,91.55608944451114
2025-02-19 14:00:47.410,667,-156,650,6,-12,-24,-6,-9,13,407,63,a,13.495733280795813,44.93744990252174,1373.3344078543614,-321.1996516121146,-38.33188171714414
2025-02-19 14:00:48.221,783,-54,622,2,-2,-2,-7,-9,13,424,92,b,4.961790710190867,51.432239929004915,1564.8714013033468,-107.92216560712737,0.896536895681038
2025-02-19 14:00:48.319,759,-60,621,2,0,-5,-8,-10,13,447,94,b,5.51869411505623,50.58007381980168,1531.5127818105993,-121.06820409569957,-11.055912390490448
2025-02-19 14:00:48.428,743,-61,617,4,1,-12,-9,-10,14,429,98,b,5.646226215999645,50.156158244889575,1510.7934976792562,-124.03553614863343,-20.5889476017511
2025-02-19 14:00:48.536,776,-88,619,-3,0,-16,-6,-12,13,347,106,b,8.091222618314255,51.141572915157695,1554.6985837279217,-176.30602495883645,-2.1526073809063746
2025-02-19 14:00:48.642,819,129,558,1,-11,37,-8,-10,13,0,108,b,-13.017112189077496,55.03535211095803,1638.5057911578836,258.0796667391538,-0.344604964711948
2025-02-19 14:00:48.752,724,-76,606,-3,12,-36,-8,-9,14,289,107,b,7.148288394540406,49.84991417332073,1488.358039952213,-156.23647933200024,-33.78034835779124
2025-02-19 14:00:48.859,679,-31,691,16,-17,10,-8,-11,14,511,105,b,2.568710567522007,44.469356617666605,1379.5276978226125,-62.98285512886743,-21.908157872496417
2025-02-19 14:00:48.965,815,18,552,-49,11,18,-7,-10,15,4,111,b,-1.8676788394341726,55.87605306526733,1642.8259416351907,36.283272330593164,-8.687018138190297
2025-02-19 14:00:49.072,761,-71,613,1,17,20,-7,-8,15,239,80,b,6.606777200003637,50.96126106287745,1537.720286494382,-143.46667587529714,-12.662990303621768
2025-02-19 14:00:49.179,728,-121,627,0,-10,-11,-7,-9,12,335,69,b,10.922804719869262,48.74422389135059,1479.7733336131837,-245.95133704285058,-20.475110131134784
2025-02-19 14:00:49.998,778,-85,608,-2,-1,-1,-7,-8,13,334,82,c,7.958519099829203,51.72334392712466,1563.0288209627424,-170.76793031083946,-5.4929603410633945
2025-02-19 14:00:50.093,789,-78,606,-6,-5,1,-9,-8,15,358,85,c,7.334378801416705,52.24590924236641,1579.6458611353637,-156.1627087053972,-1.2641214803935554
2025-02-19 14:00:50.203,745,-115,608,6,-15,-12,-8,-7,13,491,96,c,10.710664081995452,50.28774012345406,1514.2628569553826,-233.7452732213007,-19.801096683050673
2025-02-19 14:00:50.308,749,-83,612,-15,2,-12,-7,-9,15,296,115,c,7.723383936199151,50.49204533818054,1520.5362660064852,-168.49734322902307,-18.41414525496532
2025-02-19 14:00:50.411,875,-71,581,12,11,23,-7,-9,15,0,111,c,6.967177135199909,56.219868899284215,1706.17733022586,-138.44410336689833,29.098252730029117
2025-02-19 14:00:50.526,781,-67,603,31,-21,22,-7,-8,14,351,112,c,6.34019174590991,52.158566468900524,1570.7115811305264,-134.74734434794527,-6.726099131507453
2025-02-19 14:00:50.632,594,-213,666,-35,22,12,-7,-7,12,283,55,c,17.735306509168925,40.34802715128803,1241.4288451463422,-445.158828310052,-59.905068800444155
2025-02-19 14:00:51.547,771,-99,604,2,-3,-2,-6,-9,13,416,93,d,9.308425775781625,51.555637723104155,1554.2122877429417,-199.56811476854895,-9.567084042460237
2025-02-19 14:00:51.645,777,-78,603,5,-8,-6,-8,-8,14,507,103,d,7.37046800317871,51.95584357160947,1564.5360446928698,-157.05767244021087,-8.176621557014641
2025-02-19 14:00:51.751,780,-93,576,-2,-1,-9,-7,-8,15,505,115,d,9.171729030165954,53.20259242315441,1580.7584737422999,-188.4750487923511,-15.32933445585195
2025-02-19 14:00:51.861,773,-104,587,-7,16,-13,-8,-10,14,0,114,d,10.046952728730796,52.36039708551042,1564.8677210262383,-210.53847734376296,-14.327751930662089
2025-02-19 14:00:51.964,810,71,588,11,-20,30,-7,-7,15,0,110,d,-6.885035429686068,53.825772290013425,1617.225891611508,141.7568374128606,2.013797200534782
2025-02-19 14:00:52.074,737,-102,580,4,5,-57,-8,-10,14,641,114,d,9.974163685253872,51.3733578161014,1518.2302877769057,-210.1214238171566,-34.80809621520416
2025-02-19 14:00:52.185,796,-162,561,15,7,-27,-9,-11,15,609,113,d,16.107133733880854,53.73732831111761,1602.3138089116592,-326.0990415121718,-7.268903014372881
2025-02-19 14:00:52.287,852,-35,597,-5,-5,28,-7,-8,16,0,115,d,3.355208546623734,54.93470019750531,1670.4978093406835,-68.62373629920648,23.475126553535233
2025-02-19 14:00:52.397,627,-207,669,-17,22,10,-6,-6,12,153,60,d,17.192958468498905,41.83935043553424,1294.0443019492443,-427.2203676291763,-42.72669538125092
2025-02-19 14:00:52.500,811,-106,600,0,-4,-5,-6,-7,13,249,65,d,10.018874606313469,53.08304492822865,1610.5069460253605,-210.49782525115688,8.502875936847886
2025-02-19 14:00:53.917,771,-125,611,-1,-1,-4,-6,-9,14,338,70,e,11.562176414535834,51.03089849514544,1548.4852286333053,-251.05143136078235,-5.1393964915039305
2025-02-19 14:00:54.010,775,-113,614,2,-3,-2,-8,-8,14,357,74,e,10.427974745225388,51.14635371798545,1553.7509315945276,-226.54691002604076,-2.9717058052125367
2025-02-19 14:00:54.126,776,-113,608,9,-10,-4,-8,-7,14,427,83,e,10.528592228543111,51.44787854182356,1558.0415371143658,-226.87975991484964,-4.733575471049562
2025-02-19 14:00:54.228,818,-82,608,0,10,2,-5,-9,12,446,87,e,7.681043659970988,53.12989228140062,1617.9978001178729,-162.1953784959237,13.380608225346123
2025-02-19 14:00:54.340,721,-110,616,3,-9,-12,-6,-10,12,77,87,e,10.124671655397817,49.04581035201212,1476.233885339737,-225.22292286736626,-29.248368057251014
2025-02-19 14:00:54.445,793,6,583,16,-34,23,-7,-7,15,408,112,e,-0.5896441520813456,53.67586420431207,1598.6788257294363,12.095930585594726,-9.321255233620832
2025-02-19 14:00:54.557,726,-111,595,-21,13,-35,-8,-8,15,493,117,e,10.56731975680025,50.182077822383796,1494.0832590510727,-228.43421729293257,-34.48972332698088
2025-02-19 14:00:54.660,939,27,562,20,-13,46,-7,-9,12,0,111,e,-2.7505293454578745,59.06998558076218,1796.7957691909544,51.66505406619357,48.60146721478554
2025-02-19 14:00:54.766,864,-89,589,37,2,6,-6,-7,15,599,111,e,8.592593853042123,55.415617460171866,1687.2911185878324,-173.8066082804596,27.751772166396677
2025-02-19 14:00:54.876,594,-203,663,-6,-4,-5,-7,-6,11,496,55,e,17.02375063569258,40.58571151042216,1244.5848490508288,-425.33791979346506,-63.157836566834135
2025-02-19 14:00:55.691,789,-106,611,0,-2,-1,-6,-6,13,614,84,f,9.84206067953562,51.833883094744,1575.2224648790082,-211.62684572518992,2.1509175651788155
2025-02-19 14:00:55.790,778,-124,603,-3,-3,6,-6,-9,13,606,89,f,11.62022834183525,51.646057459847896,1562.1925163940614,-248.98698204738253,-4.799598182029513
2025-02-19 14:00:55.896,770,-119,609,0,-11,5,-8,-7,14,558,98,f,11.056412980248188,51.135808291401936,1548.6354562082925,-239.3345705049179,-6.829860819285955
2025-02-19 14:00:56.007,882,-25,581,-10,-4,5,-7,-7,16,421,118,f,2.4638751020064142,56.601549770199256,1716.8627526872936,-48.663910223562745,31.050726404401757
2025-02-19 14:00:56.117,779,-206,573,11,-2,-49,-6,-11,16,660,115,f,19.774086785851615,51.98706564047766,1566.8717496989252,-414.346059612296,-6.5256900866290835
2025-02-19 14:00:56.219,759,-93,638,-4,4,43,-7,-10,14,634,113,f,8.293480971151983,49.653323138176965,1521.14115972441,-186.38488518362334,-2.640395130663478
2025-02-19 14:00:56.331,1086,-137,852,-8,5,-26,-6,-10,13,324,111,f,9.134858944584181,51.52906227065886,1868.923815700193,-235.7666323673356,237.7724760805114
2025-02-19 14:00:56.435,698,-33,634,24,-19,16,-7,-11,14,736,112,f,2.979583562491734,47.71225613457907,1437.7750420964878,-67.975037806854,-37.94466574380124
2025-02-19 14:00:56.543,711,-64,549,-39,51,18,-8,-8,13,566,72,f,6.649276868874792,52.13918695756341,1500.5040353449135,-135.06646731656048,-60.617039949870104
2025-02-19 14:00:56.647,785,-84,636,14,-18,-10,-6,-8,12,590,71,f,7.523820438638627,50.743378873474185,1559.3195231940538,-166.85712095324908,8.653227068257024
2025-02-19 14:00:57.467,784,-82,613,-3,0,-2,-8,-8,12,471,85,g,7.619131359199156,51.7317769893481,1569.1199873828014,-164.11714153748687,-0.8757044204813837
2025-02-19 14:00:57.563,780,-101,617,-2,-3,0,-7,-8,14,493,87,g,9.296597302155131,51.28594861578027,1560.277047536545,-202.03587410409108,-0.21915170519014282
2025-02-19 14:00:57.670,706,-80,592,7,-12,-2,-7,-7,13,510,94,g,7.696051722016569,49.76381501926165,1469.388239440139,-166.50291665044068,-48.12158321326103
2025-02-19 14:00:57.777,794,-107,618,-17,11,-25,-8,-9,14,389,115,g,9.822762723983637,51.69417270578247,1578.713331556244,-212.7485220107281,7.228162592243507
2025-02-19 14:00:57.882,877,63,626,2,-36,65,-7,-9,15,0,110,g,-5.746839078900806,54.34424198166871,1689.5338767418048,121.36902421292326,46.01572766206414
2025-02-19 14:00:57.992,704,-186,619,10,17,-31,-7,-8,13,606,111,g,16.724716570569626,47.44501010185661,1440.6285964161518,-380.6206234849493,-28.68906417840617
2025-02-19 14:00:58.097,739,-43,682,-7,-20,53,-9,-8,14,390,114,g,3.6077149904884034,47.24040027937598,1473.2087682825986,-85.72121385135554,4.421677985477345
2025-02-19 14:00:58.206,915,-141,530,37,42,-14,-7,-6,16,0,116,g,14.897769202493738,59.06226265847196,1772.7264803782728,-273.1742445173076,33.17482557324092
2025-02-19 14:00:58.308,572,-219,712,4,10,0,-6,-3,11,377,51,g,17.097074036232886,37.51951410813532,1181.0315982903448,-452.1781818629118,-46.0952761935763
2025-02-19 14:00:59.327,774,-105,609,-1,0,-1,-8,-7,16,709,80,h,9.782407031807287,51.39505611656418,1555.4666367834175,-211.01291584271166,-5.874911887727535
2025-02-19 14:00:59.426,784,-108,605,1,-5,2,-7,-8,13,728,84,h,10.121393864811399,51.90771488114438,1571.0180987555946,-216.41575850204617,-2.3290175346104434
2025-02-19 14:00:59.537,1260,-87,619,2,-9,-22,-7,-8,14,719,114,h,8.000474114892716,63.61406356734088,2155.820871430238,-148.85429826542122,178.91022268625596
2025-02-19 14:00:59.647,709,-165,591,-15,16,-30,-8,-9,15,436,116,h,15.599085802839234,49.125597665045106,1465.1459080456273,-340.9718967948216,-39.29933942872435
2025-02-19 14:00:59.754,811,90,586,19,-19,36,-8,-11,13,500,110,h,-8.731467269414203,53.831815857332785,1618.2881460006984,179.58808032066935,2.6820548009750382
2025-02-19 14:00:59.861,802,-141,592,-9,19,-3,-8,-7,14,716,104,h,13.396859158897053,52.80867458405021,1598.6214452328104,-281.054393737938,3.970205015182273
2025-02-19 14:00:59.967,821,-24,590,-2,-3,-3,-6,-9,15,697,110,h,2.3293915309038216,54.275174000317875,1632.8306049246817,-47.73195434615391,6.589455657049598
2025-02-19 14:01:00.074,799,-35,585,0,-1,1,-7,-11,15,705,112,h,3.423871244930679,53.74090534880523,1605.3507345772841,-70.3219971341739,-5.381952099763794
2025-02-19 14:01:00.180,793,-51,595,-3,-1,1,-7,-8,15,704,113,h,4.899092453787765,53.01782228894147,1591.8226705576967,-102.3744718769767,-4.368838564728094
2025-02-19 14:01:00.287,796,-51,597,-1,-2,0,-7,-10,12,709,113,h,4.882759563833057,53.03006415762462,1594.951183587556,-102.18908337055947,-2.2133876906667638
2025-02-19 14:01:00.392,794,-57,586,-1,0,1,-7,-7,15,720,113,h,5.555661544152812,53.44238270291145,1597.2582936073177,-114.66463820606687,-6.832947171143587
2025-02-19 14:01:00.498,798,-66,581,-5,0,-1,-9,-8,16,716,112,h,6.4808609880434265,53.76780017571708,1604.6282685048957,-132.71361619213423,-6.281984964090725
2025-02-19 14:01:00.608,791,-67,594,-1,-1,-1,-8,-8,14,689,111,h,6.43545528561882,52.921290802804414,1588.8080225904087,-134.57665930917494,-5.112472084327123
2025-02-19 14:01:00.717,797,-64,595,0,-1,-1,-8,-9,14,690,112,h,6.139303141025765,53.098731564352455,1596.6713659609788,-128.21451370326554,-1.9943070850468985
2025-02-19 14:01:00.823,795,-62,595,-2,-1,-1,-7,-10,14,677,112,h,5.948847667049018,53.03927387599567,1594.0478415848747,-124.31568072737392,-3.029516657862473
2025-02-19 14:01:00.930,884,-5,600,-6,13,2,-8,-9,14,636,107,h,0.4774537773095774,55.833041618325815,1711.4045817969195,-9.67989016853461,38.41317977584674
2025-02-19 14:01:01.041,736,-128,609,-6,5,-22,-7,-8,12,555,86,h,11.869690638346814,49.78465444823509,1499.623128048811,-260.8040222693584,-22.856637203431774
2025-02-19 14:01:01.147,732,-50,622,-4,9,-17,-7,-10,13,551,95,h,4.595887691864774,49.55347739670758,1493.011800949857,-101.98168039274978,-24.652104085807196
2025-02-19 14:01:01.257,734,-264,623,15,-20,45,-7,-11,14,528,104,h,22.965094548414715,47.32902124276524,1469.257999746516,-528.4524685736789,-1.0677572780375613
2025-02-19 14:01:01.359,924,-71,603,-6,-12,7,-7,-9,14,158,111,h,6.715349727927843,56.69086130602307,1759.719781433273,-135.21656329195065,57.61144133737707
2025-02-19 14:01:01.467,773,39,676,-17,-25,29,-7,-10,12,374,112,h,-3.3018656744350037,48.78264400244867,1525.21534462629,76.9513563265528,18.17649033975158
2025-02-19 14:01:01.575,812,-112,532,-29,68,39,-6,-5,16,398,75,h,11.888658039627973,56.19634390270081,1642.9489698388165,-226.61365101225056,-12.41484230819026
2025-02-19 14:01:02.494,806,-125,575,1,-7,1,-6,-4,16,397,57,i,12.264773727892402,53.868231906211605,1613.6630751813213,-250.2579210889146,-1.1864370090071361
2025-02-19 14:01:02.588,807,-119,632,-5,19,-9,-6,-5,15,394,60,i,10.66343845954275,51.44833533069695,1589.046505742469,-234.32036453947185,19.542265639107427
2025-02-19 14:01:02.699,775,-134,623,-6,28,-6,-6,-5,13,371,52,i,12.13871481242427,50.57106123978412,1547.4128873883901,-267.552679883928,2.0797047187525095
2025-02-19 14:01:02.806,880,-146,694,-21,3,-5,-6,-7,11,313,57,i,11.880336212596722,51.13469508198015,1658.6232647128863,-275.18067800918345,79.9493798741554
2025-02-19 14:01:02.911,779,-124,661,-5,-11,-9,-7,-7,12,458,64,i,10.624888723301074,49.19513088227035,1535.939523839662,-244.4884479539385,18.718837922956936
2025-02-19 14:01:03.017,765,-153,628,1,-11,1,-7,-6,15,589,72,i,13.692257930255195,49.804633251882244,1528.848221396184,-305.7696442792368,0.9455123701915227
2025-02-19 14:01:03.124,780,-124,608,2,-2,4,-6,-7,13,652,77,i,11.527235273495739,51.496585442661754,1562.571056536046,-248.40873206470474,-2.0041056075843926
2025-02-19 14:01:03.232,760,-159,603,2,-6,-4,-7,-6,13,655,80,i,14.771621492167515,50.629749586478056,1533.0630393230124,-320.7329253320513,-10.364490410232179
2025-02-19 14:01:03.342,806,-123,580,-7,-9,-13,-5,-7,15,592,100,i,11.973267798462375,53.66155983256059,1611.5309148234053,-245.92841504128887,0.33755508985711913
2025-02-19 14:01:03.448,742,-194,585,-9,2,-10,-7,-7,15,522,105,i,18.346756312512092,50.28590657671721,1511.242409811452,-395.12267857604,-21.478180242182475
2025-02-19 14:01:03.557,876,-60,571,-10,18,6,-8,-7,15,546,108,i,5.998559102014874,56.75855743412614,1712.3680370750958,-117.28548199144495,25.833163048082383
2025-02-19 14:01:03.657,929,-104,670,-4,-8,-10,-6,-9,15,592,117,i,8.82325902631319,53.87644661883335,1736.747606408096,-194.4259968422411,87.44790495863924
2025-02-19 14:01:03.772,697,-149,629,-12,-13,16,-7,-9,15,436,119,i,13.326801030915194,47.1567526067156,1430.2168068478811,-305.74218682974794,-32.683459838331714
2025-02-19 14:01:03.878,929,-59,451,20,38,-42,-6,-6,16,294,117,i,7.453131488430371,63.91340954169662,1827.130514815874,-116.03950524664862,14.98615480951645
2025-02-19 14:01:03.990,833,-62,406,-11,-10,-13,-6,-9,15,347,124,i,8.682523881268228,63.75461624193217,1729.9083732114732,-128.75668564119007,-31.14861887618025
2025-02-19 14:01:04.090,801,-34,518,-16,50,51,-7,-7,15,538,79,i,3.7553400732005335,57.053406006135646,1640.177867384286,-69.62053369671125,-24.689307496953916
2025-02-19 14:01:04.198,760,-182,610,21,-32,-21,-6,-7,15,528,76,i,16.61303337592315,50.0506327934023,1526.6121810935358,-365.58344336713617,-5.307145351390659
2025-02-19 14:01:05.017,776,-118,601,0,-1,-1,-6,-8,13,704,88,j,11.10812300610573,51.71698277329449,1560.9600418528125,-237.36248059102041,-6.939413857654927
2025-02-19 14:01:05.111,786,-120,593,0,-2,-1,-7,-6,15,704,89,j,11.439938881891198,52.41289009806111,1578.4268904996811,-240.9812046564399,-4.848786343907136
2025-02-19 14:01:05.223,782,-115,599,0,-2,-3,-7,-8,13,710,92,j,10.86778732536211,52.04671021559902,1570.512407889798,-230.9577070426173,-4.988404508937151
2025-02-19 14:01:05.333,792,-146,610,14,-21,-18,-6,-9,12,729,117,j,13.460203222400164,51.62233984990636,1575.9355857130874,-290.5133781743823,6.2112281755261165
2025-02-19 14:01:05.436,708,-40,626,14,-18,45,-6,-8,16,552,118,j,3.6561017173739376,48.459571365070545,1456.487981197251,-82.28745656481644,-35.79869523937725
2025-02-19 14:01:05.541,939,27,594,-3,60,-88,-6,-7,16,0,119,j,-2.6025622024998065,57.65633155171498,1783.8543267355399,51.29293591252352,59.555409924482774
2025-02-19 14:01:05.647,459,-297,647,5,-22,-41,-7,-10,13,438,78,j,24.657097827008695,32.81161809162361,1000.8786441565883,-647.6273579836749,-116.82458119675982
2025-02-19 14:01:05.763,965,-100,658,18,-12,63,-6,-11,16,728,116,j,8.64144082648101,55.40617568578214,1788.1975693873546,-185.30544760490722,96.69015475971048
2025-02-19 14:01:05.865,520,-213,668,-11,6,11,-6,-7,12,498,52,j,17.685520384892175,36.562574335284395,1115.7003465697394,-457.0080265756817,-97.2458298242035
2025-02-19 14:01:05.971,848,-79,566,13,-16,-8,-7,-7,15,518,80,j,7.94578100692614,56.02306581380265,1677.2626221145879,-156.25441880548638,12.506315899933043
2025-02-19 14:01:07.093,779,-120,598,-2,-1,-1,-6,-8,12,519,84,k,11.346778629399413,51.940683496506324,1566.3729566325942,-241.28980076496958,-6.427507145431832
2025-02-19 14:01:07.189,785,-112,598,-1,-1,-1,-7,-7,14,521,84,k,10.608085046200722,52.223271649355894,1575.4038897524918,-224.77100083092878,-4.1165937222802995
2025-02-19 14:01:07.295,787,-115,600,-1,-1,-2,-8,-5,14,533,86,k,10.850104629797377,52.179021647442596,1576.9305488168513,-230.4282250494764,-2.2342176494419164
2025-02-19 14:01:07.402,793,-102,597,-1,-1,-3,-6,-8,12,546,87,k,9.69560992338243,52.62934870710915,1587.7256333822102,-204.22196040981765,-1.2991212221680826
2025-02-19 14:01:07.507,787,-88,598,-2,0,-5,-7,-7,15,564,88,k,8.371402759824619,52.474627521707326,1580.0836826874759,-176.68025930940007,-4.622671216150593
2025-02-19 14:01:07.614,791,-104,603,-14,7,-8,-6,-8,15,561,82,k,9.785588893275282,52.275135935998904,1581.9580803325841,-207.99448843816532,0.03195645948380843
2025-02-19 14:01:07.724,740,-119,610,-11,3,-3,-7,-9,12,528,75,k,11.038733271014559,49.97432624726303,1505.7563385482372,-242.1418976854598,-21.231576370844436
2025-02-19 14:01:07.832,820,-92,600,13,-17,1,-6,-9,14,535,96,k,8.71745696459966,53.48897237568812,1623.7423611668182,-182.17597222847226,11.89583329257232
2025-02-19 14:01:07.938,796,-75,597,-3,3,-3,-7,-8,15,543,105,k,7.160449726891122,52.914538970063475,1593.736968919818,-150.16365913189242,-1.3027266898636753
2025-02-19 14:01:08.048,775,-84,586,-5,-1,-15,-8,-10,15,547,106,k,8.157477306450923,52.62531413410716,1569.6828907406418,-170.1333713835018,-14.882805127762708
2025-02-19 14:01:08.155,791,-145,573,8,6,-16,-7,-12,16,504,117,k,14.20081850016873,53.231680057843725,1592.062461448032,-291.8445725789692,-7.289241984478053
2025-02-19 14:01:08.257,846,54,520,3,-1,14,-6,-9,15,0,116,k,-5.928695546215154,58.285487008596206,1696.6779804329508,108.29859449572025,-2.8753544032322225
2025-02-19 14:01:08.364,761,-84,597,34,-17,-15,-8,-7,15,657,120,k,8.009140297037225,51.61297683746684,1544.8341200781138,-170.5204547786617,-17.91323217691695
2025-02-19 14:01:08.475,857,26,626,-28,53,14,-7,-8,14,524,103,k,-2.3783299733554837,53.83002852153807,1664.2697357076545,50.49126386044226,36.32572397550564
2025-02-19 14:01:08.581,797,-5,561,4,-61,58,-8,-9,15,520,117,k,0.510644050626568,54.8576135081537,1614.7241139912894,-10.130013262178728,-14.587488016453449
2025-02-19 14:01:08.687,1063,23,534,-35,55,8,-8,-7,15,472,105,k,-2.466271420024475,63.305946021256965,1956.4180127860634,42.33077544127889,85.18982236335108
2025-02-19 14:01:08.798,652,-247,665,17,-10,-15,-6,-6,13,408,58,k,20.376435213836388,42.58610507451532,1328.6974372568448,-503.3562377338046,-25.189870821781824
2025-02-19 14:01:09.714,784,-82,601,-2,0,-3,-7,-10,12,546,88,l,7.769420234300578,52.2714549497368,1574.9187688882644,-164.72364674596645,-5.303801150315053
2025-02-19 14:01:09.809,791,-72,599,0,0,-4,-8,-9,15,579,92,l,6.854088489736115,52.666501599538094,1586.1190493272693,-144.37493242928366,-3.1192295158460865
2025-02-19 14:01:09.920,774,-64,596,-1,-3,-13,-6,-10,14,604,99,l,6.129080764968022,52.24391184705871,1564.6245161041006,-129.37463699051995,-12.8013069742168
2025-02-19 14:01:10.027,810,-134,551,-4,1,-14,-7,-9,16,523,115,l,13.66865368990101,55.00513331489016,1629.2034295762537,-269.5225426706395,-6.260604563599713
2025-02-19 14:01:10.134,838,110,520,0,-14,35,-8,-10,16,0,116,l,-11.944177188446332,57.614804349126594,1682.4663467270145,220.84880446297325,-4.012530188600863
2025-02-19 14:01:10.239,922,-57,556,-4,19,-5,-5,-7,14,463,110,l,5.853398772565078,58.775859776790305,1777.145925803442,-109.86693901387868,40.31547207514825
2025-02-19 14:01:10.344,677,-177,655,4,-6,-8,-5,-6,15,480,72,l,15.121804048188098,44.9368530562402,1383.327033895276,-361.6674815353971,-28.374013591441326
2025-02-19 14:01:10.453,781,-113,608,0,-1,-1,-6,-6,15,536,80,l,10.528592228543111,51.62710291065306,1564.987194291915,-226.43220608833084,-2.325498245178551
2025-02-19 14:01:11.272,764,-117,614,2,-1,-1,-7,-8,13,472,84,m,10.788585831894745,50.71252085414178,1537.9786040522677,-235.52813700800434,-8.019454042005691
2025-02-19 14:01:11.370,780,-100,610,3,-2,-3,-7,-8,14,486,90,m,9.309940174986037,51.60351930216623,1563.7316088623288,-200.47841139260626,-2.9183094948981534
2025-02-19 14:01:11.472,752,-92,609,0,0,-6,-7,-9,13,464,95,m,8.590563688241984,50.68152528787109,1525.6359392881475,-186.64695001929468,-17.521658279896087
2025-02-19 14:01:11.583,807,-95,566,-10,0,-13,-9,-9,14,387,113,m,9.527971883693581,54.58056000225789,1621.931203365447,-190.93366086706004,-5.562653165852453
2025-02-19 14:01:11.685,832,48,541,1,-3,16,-6,-9,15,0,114,m,-5.070267552885658,56.863709364168706,1669.372652491329,96.3099607206536,-3.493515622366658
2025-02-19 14:01:11.800,813,-184,631,6,-12,-26,-6,-9,12,454,111,m,16.25671786681717,51.04576054163566,1590.6483341919957,-359.99913098564235,27.43776276119388
2025-02-19 14:01:11.903,831,-6,547,-12,-12,33,-9,-7,15,0,118,m,0.6284476978684077,56.64378242096547,1666.2682679062511,-12.030817818817699,-2.8095578155468957
2025-02-19 14:01:12.013,839,-106,528,-1,7,-42,-6,-9,15,351,117,m,11.351662823169448,57.30451588436191,1680.5533594802346,-212.322593688802,-1.6068817706363916
2025-02-19 14:01:12.119,845,23,543,4,-9,46,-7,-9,16,261,120,m,-2.425443221038111,57.25169661856548,1686.0550317045602,45.89262216473951,2.5350506324543858
2025-02-19 14:01:12.227,737,-138,590,-15,27,3,-7,-7,16,548,91,m,13.164717567315423,50.57468825642206,1509.4530911306124,-282.6384349742531,-28.381714744995065
2025-02-19 14:01:12.324,797,-119,579,-4,0,-1,-7,-9,14,473,81,m,11.614087703261676,53.43718116428416,1600.2042165606226,-238.9263510297542,-4.50720374981222
2025-02-19 14:01:13.144,769,-112,604,0,-1,-3,-7,-8,13,416,82,n,10.50506386991735,51.38126923046139,1550.3164759360752,-225.79381704140505,-9.673799044720113
2025-02-19 14:01:13.250,764,-100,615,6,-2,-2,-5,-8,13,460,88,n,9.235559093165921,50.80117790670553,1538.9574820202147,-201.43422539531605,-8.820486181193587
2025-02-19 14:01:13.356,763,-105,606,11,-4,-17,-7,-7,13,553,100,n,9.829892334637448,51.12885202935679,1541.5592687444469,-212.1411837721716,-12.357689199390279
2025-02-19 14:01:13.464,784,-156,581,-8,1,-19,-7,-9,14,463,111,n,15.029578820205947,52.50025769611242,1577.3560782763925,-313.86166863662913,-6.933522294112322
2025-02-19 14:01:13.570,793,-57,609,-1,-1,15,-6,-7,14,0,115,n,5.347081600299364,52.356056950507536,1584.8214590025145,-113.91528772149223,0.9050838177407741
2025-02-19 14:01:13.681,730,-125,629,9,-27,-20,-8,-9,14,452,112,n,11.239845928533361,48.70090495734497,1481.2745577964192,-253.64290373226365,-18.33109158075058
2025-02-19 14:01:13.783,832,13,530,2,-9,47,-6,-8,14,119,118,n,-1.4050864376559633,57.49427149388003,1675.3377216880172,26.177151901375275,-7.222346748376481
2025-02-19 14:01:13.893,760,-110,565,-33,44,15,-6,-7,14,401,79,n,11.017111618789214,52.860460595745934,1557.1674694600388,-225.37950215868977,-27.631079269633915
2025-02-19 14:01:14.814,791,-103,590,-1,-2,-3,-6,-8,14,471,90,o,9.902687356787677,52.86800739777082,1588.246987494508,-206.81345096325452,-4.659573478836478
2025-02-19 14:01:14.905,801,-102,588,0,-3,-3,-8,-8,15,476,95,o,9.841131759634388,53.312216482389545,1602.9030503610793,-204.11499517706625,-0.6629133736760195
2025-02-19 14:01:15.016,797,-93,580,0,-3,-5,-8,-10,14,498,99,o,9.109539890616006,53.6088668403214,1601.9856225880721,-186.93182296197077,-5.811369010140197
2025-02-19 14:01:15.122,809,-92,562,10,-6,0,-6,-7,16,540,106,o,9.296919146970199,54.85708437423408,1626.7187981205489,-184.99150732644068,-6.056816494126679
2025-02-19 14:01:15.228,788,-84,592,8,-3,0,-6,-7,14,714,114,o,8.075896334838298,52.80898722215683,1584.6247435968435,-168.91938891133867,-6.479502803720152
2025-02-19 14:01:15.335,816,-41,576,-13,0,-8,-7,-9,15,669,119,o,4.071478401603464,54.71416638894378,1632.2804405052457,-82.01409076068023,-0.19795800370263805
2025-02-19 14:01:15.445,819,-182,481,16,17,-18,-8,-9,15,110,119,o,20.72555886556054,57.87373526437727,1665.8782360274877,-370.195163561664,-16.37293227011196
2025-02-19 14:01:15.552,760,-46,613,9,-23,13,-7,-10,13,322,118,o,4.291476947096318,51.03244941177233,1537.5022518244712,-93.05934682095483,-14.11694785315899
2025-02-19 14:01:15.655,919,-15,530,-9,40,9,-7,-9,13,651,113,o,1.6211459136534114,60.01742913127907,1785.1774615765366,-29.137825814633345,30.46348788295512
2025-02-19 14:01:15.764,563,-192,688,-10,0,19,-7,-5,12,449,49,o,15.592810939266347,38.245071717760666,1182.0263981790295,-403.10669351753756,-68.46565177117611
2025-02-19 14:01:16.784,795,-100,602,2,-7,-7,-7,-9,14,499,83,p,9.431451640154497,52.48983248245255,1588.2452990314255,-199.77928289703462,1.3287169598515902
2025-02-19 14:01:16.879,791,-91,589,-3,-2,-2,-8,-7,13,534,91,p,8.782707594704144,53.003372701078824,1589.6709343475832,-182.88249687184583,-5.711985247441817
2025-02-19 14:01:16.985,792,-96,594,-1,-4,-2,-6,-8,14,539,96,p,9.18054195762615,52.774908557821156,1588.2650706024187,-192.51697825483868,-3.1988029518142866
2025-02-19 14:01:17.094,734,-122,598,5,-17,-23,-7,-9,14,526,115,p,11.530866261440336,50.25661774805674,1502.9156831040839,-249.80342416716383,-28.446292229212645
2025-02-19 14:01:17.204,681,-179,678,22,-30,71,-9,-8,16,0,117,p,14.789309620292784,44.161448731231026,1377.682574235844,-362.1221450634597,-15.613488005730005
2025-02-19 14:01:17.304,834,-5,455,15,37,-59,-5,-7,14,216,118,p,0.6295986084102669,61.383272786816406,1711.8431863458968,-10.262848839004176,-23.91924434938005
2025-02-19 14:01:17.420,838,-49,620,19,-18,-24,-9,-9,17,648,114,p,4.5188221172054766,53.41853226343992,1641.010281541116,-95.95406180849008,25.887381198697085
2025-02-19 14:01:17.522,762,-35,578,-26,1,45,-8,-9,15,0,120,p,3.4652363744906447,52.76808689858129,1558.1930396137727,-71.57054643895282,-25.93645262042071
2025-02-19 14:01:17.633,694,-113,615,-13,46,34,-6,-7,11,389,62,p,10.411389778041828,47.98109660744739,1436.9240211564575,-233.96601497216102,-43.35486024671695
2025-02-19 14:01:17.738,810,-129,615,17,-31,-21,-6,-6,14,479,65,p,11.84639413321944,52.19632416396925,1600.115689426984,-254.83323942726048,15.097346916548986
2025-02-19 14:01:18.554,780,-105,602,-1,-1,-2,-5,-7,15,399,80,q,9.893920669735412,51.92319534482366,1567.1847552723923,-210.9671785943605,-5.545157274333519
2025-02-19 14:01:18.653,787,-104,600,-1,0,-3,-6,-7,15,412,80,q,9.833563964207116,52.26884256467136,1577.8908676919557,-208.51416803044907,-2.9663540218215303
2025-02-19 14:01:18.759,789,-106,602,0,-5,-3,-6,-7,15,442,83,q,9.98626040160485,52.23402623989563,1579.5188600796287,-212.20405471285252,-1.1588767654455978
2025-02-19 14:01:18.870,703,-110,623,12,-30,-27,-7,-7,15,553,114,q,10.013226187244191,48.015644855429514,1446.3275067192035,-226.31013618650414,-35.738316765382365
2025-02-19 14:01:18.976,791,-183,530,4,16,-16,-9,-8,14,3,117,q,19.048924086083126,54.66890195030483,1606.8238299370032,-371.7430605290412,-16.632907543124816
2025-02-19 14:01:19.083,786,21,607,10,-15,3,-6,-7,16,105,117,q,-1.9814360285019417,52.30578158086671,1577.2852366786,42.14120861355039,-4.081601353575593
2025-02-19 14:01:19.187,807,-78,569,8,3,-20,-8,-8,16,597,116,q,7.805603748193084,54.56151091709607,1621.738473210617,-156.7479565184983,-5.456246910583559
2025-02-19 14:01:19.294,857,104,508,7,-7,21,-8,-7,16,0,119,q,-11.569972047902004,58.823546151767786,1712.577075203548,207.82732301186576,0.8434606728096128
2025-02-19 14:01:19.406,1110,-22,611,-17,67,33,-6,-7,14,616,95,q,2.0621323002958487,61.153712285234754,1985.9171983231458,-39.360521047846134,128.85098362572796
2025-02-19 14:01:19.513,729,-171,636,-5,-12,-9,-6,-7,11,332,54,q,15.04910200576978,47.904972961282105,1471.0340275561066,-345.05736448846943,-11.37125037816702
2025-02-19 14:01:20.425,769,-115,612,0,-3,-5,-8,-5,15,468,72,r,10.642263849318535,51.00058108009366,1546.1523438339095,-231.21914114551313,-6.487951139600227
2025-02-19 14:01:20.524,787,-105,595,0,-3,-3,-6,-8,14,478,79,r,10.007979801441337,52.48591958084052,1580.2037134133234,-210.82768730419178,-4.690228057086756
2025-02-19 14:01:20.635,777,-108,607,-1,-4,-5,-7,-9,12,488,85,r,10.0887311049884,51.568744216744754,1560.3544944774385,-216.8832501976362,-4.96419324041824
2025-02-19 14:01:20.741,773,-74,599,-5,-2,-19,-7,-7,15,477,101,r,7.042593377276482,52.0175009562071,1561.1987702150182,-149.4549922327443,-11.777572262349167
2025-02-19 14:01:20.844,789,-279,716,7,0,35,-8,-9,14,305,115,r,21.28911191562456,45.75639984293153,1505.379880985604,-532.3206423257079,65.90114729316542
2025-02-19 14:01:20.954,805,-28,417,10,8,-69,-7,-7,15,0,122,r,3.841432358638056,62.56261423769836,1692.5149136611064,-58.870083953429784,-42.743750306436425
2025-02-19 14:01:21.054,846,-2,573,-1,-17,31,-6,-8,15,537,120,r,0.19998445667886897,55.88985773492591,1673.9610796225927,-3.9573547981621573,12.217850326541907
2025-02-19 14:01:21.170,546,-277,666,-12,13,11,-6,-6,11,300,52,r,22.58320347527069,37.12420478418148,1149.5448757750087,-583.194012069006,-70.19210122006518
2025-02-19 14:01:21.278,833,-100,586,12,-11,-8,-8,-7,14,396,70,r,9.684152104378116,54.48641399976813,1646.9777989321647,-197.71642244083614,13.38176449670027
2025-02-19 14:01:22.094,785,-119,600,-1,-2,-1,-6,-8,15,347,77,s,11.2180829542503,52.07359672280284,1573.8009236231942,-238.5761909696307,-2.905164552759743
2025-02-19 14:01:22.192,794,-131,598,0,-2,0,-7,-7,14,355,80,s,12.356230581912676,52.367481275866965,1585.9432225065298,-261.66065761757613,1.5490591197668664
2025-02-19 14:01:22.294,787,-121,585,5,-8,-2,-6,-7,15,404,88,s,11.686130478957814,52.79920963987716,1583.521577874593,-243.46392747500093,-7.0776658915334565
2025-02-19 14:01:22.409,1000,-103,738,4,-16,-7,-6,-8,16,605,121,s,7.945242822567875,53.30825218682204,1801.8617105808246,-185.59175618982493,146.2260575913515
2025-02-19 14:01:22.515,801,-118,526,-15,10,-20,-7,-10,16,41,122,s,12.64409081215724,56.05943257887215,1630.6171739841147,-240.21576345833404,-18.79230151765853
2025-02-19 14:01:22.621,703,-49,686,13,-17,18,-8,-11,14,465,119,s,4.085616779974877,45.62833332448703,1417.8185826389683,-98.82377034041174,-11.532784765764404
2025-02-19 14:01:22.728,982,-127,413,-2,49,-12,-7,-8,14,0,117,s,17.09297981489887,66.25022982774111,1897.313094630063,-245.3755224216069,28.04652944784533
2025-02-19 14:01:22.835,582,-226,697,-4,4,1,-7,-5,13,296,54,s,17.96511912478078,38.45997385048843,1203.9677640385303,-467.5201283036216,-47.8651744585145
2025-02-19 14:01:23.754,786,-86,609,-3,-3,-3,-8,-8,15,500,89,t,8.037881128531485,51.95694313533709,1573.547871362958,-172.1693599710107,-1.1993049109942149
2025-02-19 14:01:23.850,785,-68,594,-5,-2,-10,-7,-8,14,535,97,t,6.530683107430272,52.70601194123581,1580.537061729005,-136.91276458289474,-7.9732670917568385
2025-02-19 14:01:23.957,824,-109,583,-8,-2,-5,-7,-9,17,506,117,t,10.589983720281952,54.2542642452379,1635.617462568469,-216.36201871354749,8.76094577983315
2025-02-19 14:01:24.064,683,-213,621,35,0,42,-7,-10,14,134,114,t,18.931720589846687,46.1327738387301,1403.9476275242528,-437.83432600683136,-34.50289413259293
2025-02-19 14:01:24.174,813,-64,591,13,-12,25,-7,-8,15,238,114,t,6.180534590376303,53.82620563800478,1620.230355799561,-127.5458090666321,4.194169400319197
2025-02-19 14:01:24.281,644,-111,664,-22,12,-37,-7,-8,13,204,94,t,9.490305492498097,43.72946931933475,1335.254168177095,-230.14474016717008,-48.72168892793627
2025-02-19 14:01:24.387,974,4,607,34,-42,-4,-6,-9,14,477,110,t,-0.37756145089282445,58.068145435654195,1822.6777621446925,7.485329618664036,78.1012303677328
2025-02-19 14:01:24.486,818,0,585,1,3,11,-7,-8,15,728,114,t,0.0,54.42920709235503,1631.3973983524534,0.0,3.291591642805656
2025-02-19 14:01:24.599,612,-200,657,-14,10,8,-7,-8,13,421,60,t,16.93098322218974,41.705248817180966,1277.2987507458777,-417.41789240061354,-57.21777653601555
2025-02-19 14:01:24.704,819,-74,602,10,-15,-6,-7,-7,15,515,81,t,7.007847228976876,53.47726805644785,1622.6208030454582,-146.61042664879596,11.304366992227642
2025-02-19 14:01:25.524,777,-114,609,1,-2,-1,-7,-7,14,385,76,u,10.602613105475958,51.431219225272685,1558.8602948242074,-228.7130934491115,-3.809420267621931
2025-02-19 14:01:25.624,777,-107,607,1,-3,-1,-8,-7,14,390,79,u,9.99720991820106,51.57663607506678,1560.4401021386716,-214.8868609122752,-5.031070782720349
2025-02-19 14:01:25.729,759,-100,624,2,1,-3,-8,-6,14,376,82,u,9.104600865402178,50.218404407734106,1527.4890983989487,-201.25021059274687,-7.801314098740363
2025-02-19 14:01:25.835,707,-138,626,0,-1,-15,-8,-8,14,207,88,u,12.431860628215064,47.80169152797703,1447.8244269912407,-282.6022219586863,-29.949209754620483
2025-02-19 14:01:25.943,777,-131,568,-9,6,-6,-6,-10,12,0,112,u,12.987249455000303,53.1225144342537,1576.9205324733034,-265.8643368777384,-16.755292721797105
2025-02-19 14:01:26.055,855,119,614,2,-23,37,-7,-7,15,237,114,u,-10.968569372760488,53.8148373658921,1662.1132288520512,231.33505758291707,34.38886255536886
2025-02-19 14:01:26.160,770,-156,593,-6,4,-25,-8,-8,17,666,118,u,14.738806815936039,51.46854457380454,1552.266277924476,-314.4851160470367,-9.4466270249535
2025-02-19 14:01:26.267,810,166,559,-2,-19,42,-7,-9,14,407,117,u,-16.539253149875307,54.249517557604705,1621.569062432388,332.32156094293384,-1.0828467897591736
2025-02-19 14:01:26.373,773,-86,549,-29,64,24,-7,-6,14,450,72,u,8.902943317448155,54.28835754037033,1584.9649349886097,-176.33503804530457,-27.673673103165243
2025-02-19 14:01:26.484,712,-170,622,9,-20,-19,-5,-6,14,370,56,u,15.286291594167503,47.83486424753015,1453.2131983453714,-346.97506140268706,-25.520518779243048
2025-02-19 14:01:28.396,777,-123,596,-1,0,-1,-7,-6,15,257,81,v,11.66075625940597,51.931341503668804,1564.272430504548,-247.6261376474381,-7.8794962428708
2025-02-19 14:01:28.494,786,-115,599,-1,-1,-1,-7,-6,16,268,81,v,10.86778732536211,52.18838512387913,1576.030748952794,-230.58974062286427,-3.071779418223514
2025-02-19 14:01:28.602,784,-117,605,-2,0,-2,-8,-7,12,256,83,v,10.94522842758001,51.833313606679475,1570.216322826197,-234.33075225850135,-1.7103001401139863
2025-02-19 14:01:28.708,782,-112,601,-2,0,-1,-7,-8,16,237,84,v,10.556325963656764,51.98264647884651,1569.824248331081,-224.83416344383772,-4.476180622736365
2025-02-19 14:01:28.815,783,-102,604,-1,2,-6,-7,-7,15,321,85,v,9.585340332491876,51.96342230712452,1570.6175540458444,-204.6015204504165,-3.5619446279566773
2025-02-19 14:01:28.921,817,-76,623,20,4,14,-6,-7,13,625,80,v,6.95516769767994,52.46856931191748,1610.019273292679,-149.76923472490037,18.286404820882353
2025-02-19 14:01:29.032,759,-126,617,3,-9,-1,-6,-7,14,697,78,v,11.54189792531842,50.31787374990429,1528.5987849223316,-253.7594820819681,-8.61587654424045
2025-02-19 14:01:29.138,773,-116,606,-5,-3,-1,-7,-6,14,591,86,v,10.836424415285286,51.40341189696056,1554.5576223367375,-233.28419688365008,-6.708821650792743
2025-02-19 14:01:29.244,808,-87,584,-2,-6,-3,-7,-7,15,532,102,v,8.47318675367951,53.84259072830901,1615.3991149551712,-173.93530074393553,0.4343030522030631
2025-02-19 14:01:29.351,754,-126,595,-9,4,-3,-6,-8,15,375,99,v,11.956584243149132,51.109502077151724,1532.3472808067736,-256.068643742246,-19.21303989393948
2025-02-19 14:01:29.461,845,-138,628,6,-3,-20,-8,-8,14,0,116,v,12.39349404149393,52.73149872098631,1640.8065066254585,-267.9660330346903,36.56037140735157
2025-02-19 14:01:29.568,737,-234,617,-2,-32,44,-7,-10,14,0,116,v,20.769455259586874,48.15990974587464,1482.00943984207,-470.5430243189204,-6.705324806726139
2025-02-19 14:01:29.679,797,-124,449,30,-6,-46,-6,-8,17,144,125,v,15.438516354193435,59.69578245049727,1660.358409926122,-258.32426954935903,-37.38384699727578
2025-02-19 14:01:29.785,1075,38,554,-12,58,34,-7,-9,13,623,104,v,-3.923889322752944,62.68094454746669,1963.4646456665096,69.40619212588592,96.13077795418945
2025-02-19 14:01:29.884,744,-138,604,7,-18,-3,-7,-6,14,436,69,v,12.869849988010364,50.21423378264913,1512.4425200148034,-280.5336932285523,-19.843121087286818
2025-02-19 14:01:31.004,787,-108,597,0,-1,-2,-7,-8,14,161,91,w,10.254164677904187,52.37174024543984,1578.9886076826556,-216.68458656890317,-3.7842424225480045
2025-02-19 14:01:31.104,789,-111,597,1,1,-1,-8,-9,12,149,93,w,10.532711823142021,52.41734311788857,1581.4742946472543,-222.48877909486083,-2.6288389156029552
2025-02-19 14:01:31.210,785,-98,605,6,-3,-3,-7,-9,15,206,103,w,9.201050346338963,52.019195623284105,1573.2169724899004,-196.40160930447163,-2.479322746993148
2025-02-19 14:01:31.322,705,-90,598,0,-2,-18,-7,-9,13,170,111,w,8.558874739097602,49.37767916191088,1464.0177262361872,-186.89587994504518,-45.81929119041126
2025-02-19 14:01:31.428,926,-233,733,12,-31,59,-6,-9,15,58,113,w,17.633990926581355,50.28677728104941,1695.2521197340534,-426.55911868038277,124.07796569647826
2025-02-19 14:01:31.534,877,-38,492,15,-13,-20,-8,-7,15,217,119,w,4.416515668227626,60.634663868693714,1748.510647763174,-75.76214893386614,3.0795453825751906
2025-02-19 14:01:31.641,799,-118,567,6,2,-21,-7,-9,15,532,118,w,11.756182484916742,54.06383388275077,1608.6713504126546,-237.57599417858978,-7.572785586952591
2025-02-19 14:01:31.747,882,-44,593,6,-10,19,-6,-7,16,206,122,w,4.243512729267962,56.01278799644934,1711.1623596467168,-85.36410864450741,35.5246266774343
2025-02-19 14:01:31.854,761,-120,608,9,1,-9,-7,-8,15,568,124,w,11.164880177548591,50.84196082123737,1536.4071503407456,-242.27182396963133,-11.510574779465628
2025-02-19 14:01:31.964,1017,-37,502,-7,28,23,-8,-7,15,637,111,w,4.215373454421979,63.66700194543241,1913.2311060778993,-69.60624476389603,59.61257104119443
2025-02-19 14:01:32.068,606,-213,659,-4,-4,2,-7,-6,13,406,56,w,17.911714240737826,41.18607859674549,1264.5066231737906,-444.45529824425313,-57.09878658667992
2025-02-19 14:01:32.177,826,-116,583,-2,-3,-2,-4,-7,14,396,66,w,11.253222714069864,54.259440910354336,1637.670240668307,-229.9875882778736,10.114103741376425
2025-02-19 14:01:33.197,795,-122,583,0,-1,-1,-7,-6,16,395,87,x,11.819298720876862,53.15879175335708,1595.3003343833343,-244.81338464750533,-3.886911881111473
2025-02-19 14:01:33.291,792,-115,583,-1,-1,-1,-5,-8,15,411,87,x,11.158656840020322,53.119271600481476,1591.886566320134,-231.14514536214068,-5.805389096765225
2025-02-19 14:01:33.398,796,-111,585,-1,-2,-2,-7,-9,13,412,90,x,10.743787070980884,53.20214270724378,1596.7537722518043,-222.66290040194755,-3.4936642805344036
2025-02-19 14:01:33.504,794,-105,580,0,-3,-2,-4,-6,16,415,92,x,10.261374717234386,53.41157088336185,1596.9378664399906,-211.18195966775693,-6.528920069514356
2025-02-19 14:01:33.615,809,-113,574,0,-3,-1,-7,-8,15,421,97,x,11.137066080806143,54.12795057296587,1619.3275937974397,-226.18543646367206,-0.9419515942279304
2025-02-19 14:01:33.716,810,-108,586,2,-2,5,-8,-9,14,526,97,x,10.442452399360795,53.66028036020627,1615.517682301669,-215.40235764022253,3.242763174348056
2025-02-19 14:01:33.827,786,-131,581,0,-2,1,-6,-6,15,563,95,x,12.706193456683781,52.84725210534177,1583.0282628947512,-263.83804381579193,-8.151934786069432
2025-02-19 14:01:33.934,808,-103,577,5,-4,0,-8,-7,15,612,98,x,10.121234802212983,54.04296408491538,1617.4575263161755,-206.1857985279283,-1.0408325302390722
2025-02-19 14:01:34.040,808,-102,561,2,-1,-3,-8,-6,13,640,102,x,10.304846468766033,54.78977231604683,1625.0419882516271,-205.14143911097275,-6.277915110350136
2025-02-19 14:01:34.147,825,-10,500,1,-9,-9,-7,-8,16,714,122,x,1.1457628381751033,58.77651873969405,1680.1518877572967,-20.36547742736117,-18.273871368058735
2025-02-19 14:01:34.254,819,5,527,-16,7,25,-9,-8,17,124,125,x,-0.5435869111067889,57.2388566090035,1659.9337835488195,10.133905882471424,-14.11368001248809
2025-02-19 14:01:34.366,675,-111,650,-18,37,-25,-6,-8,14,236,99,x,9.690875588677871,45.6693779664585,1390.3193597482318,-228.63029471415365,-38.82605012792669
2025-02-19 14:01:34.475,715,47,671,-41,-75,79,-7,-10,14,352,117,x,-4.006722101136293,46.7483335874102,1443.3510414475004,94.87762090633919,-12.52943889688504
2025-02-19 14:01:34.581,1026,-28,494,-6,46,14,-6,-7,16,339,111,x,3.24406302962854,64.25411218535224,1926.729417648864,-52.581309643438786,60.31546557647289
2025-02-19 14:01:34.688,633,-242,640,12,-3,-17,-6,-7,13,362,56,x,20.71285845653704,42.77296657263345,1312.0950385232811,-501.6224317893113,-46.60477828578189
2025-02-19 14:01:35.504,779,-123,599,-2,-2,-2,-7,-9,13,325,75,y,11.603942873570485,51.86885266762807,1565.599470493796,-247.19991639375718,-5.8434952834193155
2025-02-19 14:01:35.602,782,-129,606,0,-2,-1,-7,-6,15,327,77,y,12.017251842564468,51.610237964089194,1565.8044353394234,-258.2976626071428,-1.3983220149499402
2025-02-19 14:01:35.708,778,-119,605,-2,-2,-2,-6,-7,13,331,78,y,11.127694604105221,51.601942894420034,1561.7145199372603,-238.87407181559627,-4.443810491056752
2025-02-19 14:01:35.815,774,-122,598,-1,-2,-2,-6,-8,14,260,79,y,11.530866261440336,51.74335579887083,1559.2451334939328,-245.7724887419377,-8.688100554743755
2025-02-19 14:01:35.924,803,-110,591,-3,-2,-3,-7,-4,16,247,84,y,10.54354198211034,53.18037957369612,1603.5261937396654,-219.66112243009113,1.8206967619649959
2025-02-19 14:01:36.027,793,-106,588,16,-5,6,-7,-7,14,451,87,y,10.21907440781891,53.00416290053413,1591.679233604636,-212.75914093580258,-4.211083681621517
2025-02-19 14:01:36.138,786,-109,603,12,-3,-2,-6,-8,13,637,88,y,10.246304603779443,52.05971324575484,1574.6519634587257,-218.36776592493783,-2.0345215847478357
2025-02-19 14:01:36.240,811,-79,588,5,-4,0,-6,-7,15,694,94,y,7.65207952841402,53.81283912426554,1618.0926377483204,-157.61938148226545,2.8329580813658595
2025-02-19 14:01:36.350,789,-86,596,-7,2,-5,-7,-8,13,654,95,y,8.210838486036222,52.64876242021444,1583.9312489591348,-172.64649861911994,-4.480385779016956
2025-02-19 14:01:36.458,755,-115,597,-8,-2,-8,-7,-8,14,495,95,y,10.903324090650038,51.15671149378669,1533.8643264715047,-233.63496363473251,-18.870202521176566
2025-02-19 14:01:36.564,815,-66,578,1,-6,-7,-5,-8,16,473,113,y,6.514210282999701,54.480336596172606,1628.91617830815,-131.91223039059867,0.7686490035450788
2025-02-19 14:01:36.675,806,-191,525,-20,0,-21,-7,-9,15,0,118,y,19.99186868416736,55.27292756881589,1627.8749629479566,-385.7619329070219,-10.3403914983586
2025-02-19 14:01:36.781,874,-13,569,26,-15,29,-6,-7,16,401,120,y,1.3088147164815225,56.92783948936054,1711.983963613755,-25.464292364964315,23.44751110271568
2025-02-19 14:01:36.887,783,-147,580,7,-4,-9,-5,-8,16,716,117,y,14.222041858449902,52.61432645355431,1577.5664662533559,-296.17148217017024,-8.567752780263504
2025-02-19 14:01:36.994,819,25,569,-16,-20,57,-7,-7,14,0,124,y,-2.515771245144648,55.184477917611034,1639.9945661652987,50.06088419307993,-1.3857242344992073
2025-02-19 14:01:37.101,903,-115,498,-11,62,25,-6,-7,13,0,75,y,13.0030191645668,60.48977062571994,1773.2677666074396,-225.83144314491207,18.05166359855474
2025-02-19 14:01:37.211,688,-169,658,24,-28,-9,-7,-4,12,254,56,y,14.404436911237784,45.362188102475436,1399.5625106064751,-343.7878841460673,-22.535075550960073
2025-02-19 14:01:38.224,754,-161,612,-1,-2,-1,-6,-5,15,134,63,z,14.738954473292939,49.9936721402774,1519.9734477065538,-324.55666456333574,-9.718501321499843
2025-02-19 14:01:38.325,770,-161,614,-1,-2,-1,-7,-6,14,158,64,z,14.693025316528711,50.499184064940145,1541.6155250764782,-322.33779160689994,-1.2882238921524731
2025-02-19 14:01:38.432,769,-158,613,-2,-1,-1,-4,-6,13,192,65,z,14.453331813243212,50.539056984897975,1541.0580014130792,-316.6283019808407,-2.437652621869347
2025-02-19 14:01:38.538,765,-155,609,-3,-1,-3,-7,-4,14,211,65,z,14.279489237176541,50.59832818364772,1537.715052557281,-311.5631805835013,-6.1417869377568195
2025-02-19 14:01:38.645,772,-156,613,-5,-1,-5,-6,-4,16,171,68,z,14.277903681626478,50.670508284423086,1545.5140886508339,-312.30595573773326,-1.2022491489132108
2025-02-19 14:01:38.749,766,-153,608,-8,0,-8,-6,-7,13,0,68,z,14.12490224360655,50.70037598304624,1539.8443660451271,-307.5668250716768,-6.226337539735482
2025-02-19 14:01:38.854,771,-151,615,-4,0,-6,-7,-7,16,0,70,z,13.794860914915061,50.601792889726305,1543.7534349976102,-302.3434094482998,-1.3986543755254388
2025-02-19 14:01:38.966,781,-156,590,33,-9,0,-6,-7,12,423,76,z,14.81046363285454,51.99584227804233,1568.9660754798351,-313.39143120980066,-5.262464190912624
2025-02-19 14:01:39.075,758,-114,608,12,-6,-3,-6,-7,15,690,82,z,10.619655276155134,50.78250658891003,1532.7514829044167,-230.51935231016296,-13.436545654202405
2025-02-19 14:01:39.181,784,-108,615,6,-4,-3,-8,-8,16,735,88,z,9.960140308372775,51.46469392458745,1566.22441025434,-215.75540345340397,1.3928414458939642
2025-02-19 14:01:39.288,807,-86,588,-8,-1,-8,-7,-6,14,664,97,z,8.320996677130289,53.63294185403536,1612.2348468224536,-171.811891978601,1.2861339137512005
2025-02-19 14:01:39.394,787,-92,595,-9,0,-7,-9,-7,13,465,104,z,8.789573629052924,52.58329522700479,1581.2375043499133,-184.84606149960865,-5.471810785512503
2025-02-19 14:01:39.504,723,-80,604,-8,4,-14,-7,-8,14,107,108,z,7.544929038756831,49.8790274397239,1487.6855745183348,-164.61251170327353,-34.82446335971508
2025-02-19 14:01:39.616,1203,-18,571,85,-21,-19,-7,-8,13,450,113,z,1.8055737515171977,64.59777525701456,2106.3186370213816,-31.515989581367307,142.24277494662596
2025-02-19 14:01:39.715,698,-72,636,0,-3,31,-7,-8,14,656,114,z,6.458816378718656,47.479332743747264,1435.0335955794355,-148.02638808269248,-35.56642806378363
2025-02-19 14:01:39.829,1022,32,658,40,-40,24,-6,-8,14,358,114,z,-2.784227285601574,57.194312200083985,1862.512823527251,58.317426959757384,116.84790813998904
2025-02-19 14:01:39.930,864,-2,643,-26,22,-1,-7,-6,15,601,78,z,0.17821335844717398,53.342766326825235,1666.2214961602122,-3.856994204074565,45.976363390027245
2025-02-19 14:01:40.042,741,33,677,31,-6,-17,-6,-10,13,369,112,z,-2.790643070184821,47.55037618509249,1478.8710511361705,65.86065409918169,2.858702268303091
2025-02-19 14:01:40.148,785,-12,602,-10,-1,4,-5,-8,15,732,94,z,1.1419573267890228,52.51066390251997,1578.4666293544697,-24.129426181214818,-6.4928800909434585
2025-02-19 14:01:40.258,671,-142,644,-18,27,20,-7,-6,13,410,67,z,12.434571314663962,45.4965415481895,1384.2081400106247,-292.9322740409966,-40.509749876068895
2025-02-19 14:01:41.774,784,-89,604,-1,-1,-3,-7,-6,15,218,82,0,8.382271170870544,52.091147741357865,1572.9891677028447,-178.5663723540219,-3.8436955261713592
2025-02-19 14:01:41.865,784,-85,604,-4,0,-5,-8,-8,13,255,82,0,8.010542588990829,52.11710044774809,1573.2673887052806,-170.5710816836082,-4.058039257639507
2025-02-19 14:01:41.975,758,-94,609,-1,0,-4,-6,-7,14,312,84,0,8.77443901757623,50.89080905582671,1533.9452289651213,-190.22539778723137,-14.417736727913962
2025-02-19 14:01:42.085,780,-96,606,-2,-1,-3,-7,-9,15,300,90,0,9.001755122561306,51.811008494341344,1565.9756962399474,-192.73547030645506,-4.642656309497511
2025-02-19 14:01:42.189,785,-71,603,-4,-1,-5,-7,-8,14,339,92,0,6.715349727927843,52.27950777562677,1576.004765570167,-142.54310618532722,-4.612577883835229
2025-02-19 14:01:42.298,787,-64,608,3,-3,-2,-6,-9,15,518,96,0,6.009005957494525,52.159142782169695,1576.717751801314,-128.22101158231777,-2.0996100320189726
2025-02-19 14:01:42.405,778,-79,600,-1,-5,-1,-8,-9,15,598,102,0,7.500797995786862,52.12192487931588,1567.3190902492825,-159.14936777595545,-8.729375513585524
2025-02-19 14:01:42.511,791,-83,600,1,-4,3,-8,-7,15,623,108,0,7.875931756509983,52.55666787797633,1584.9550422065508,-166.3100739609908,-2.241498513186343
2025-02-19 14:01:42.617,775,-75,582,0,-5,-3,-8,-9,14,634,114,0,7.343008117006824,52.8678132756439,1572.2449422703198,-152.15273634874063,-16.705234066227376
2025-02-19 14:01:42.728,802,-69,603,15,-9,8,-7,-9,16,702,116,0,6.527841007885003,52.88241234531936,1599.3987290305702,-137.6041300537523,3.4595590954691033
2025-02-19 14:01:42.835,803,-69,609,-5,-3,-16,-7,-7,14,744,119,0,6.464074319376841,52.64701623162432,1597.9127583662262,-137.30508135400947,6.133412397220695
2025-02-19 14:01:42.942,865,-169,547,44,21,21,-7,-9,14,412,113,0,17.16894982252728,56.50087522445958,1698.894253110073,-331.9226922261298,19.67033936276323
2025-02-19 14:01:43.048,706,-66,627,26,-6,-36,-7,-7,15,672,116,0,6.009005957494525,48.23487015263638,1451.8815125760364,-135.72830004251898,-35.418850403930264
2025-02-19 14:01:43.155,972,37,602,-14,32,7,-8,-9,14,701,105,0,-3.5170772035375193,58.17997406812341,1821.7084603065387,69.34486937380858,75.74023343154693
2025-02-19 14:01:43.264,597,-146,673,-16,1,29,-5,-9,11,473,48,0,12.240030040332524,40.92227470705623,1252.0346151003082,-306.1927199407789,-65.4226063023574
2025-02-19 14:01:43.371,806,-58,616,7,-15,-7,-8,-5,13,479,63,0,5.378874736678853,52.488416062626314,1599.2302460021974,-115.08108469990998,9.759514221645532
2025-02-19 14:01:44.690,778,-70,613,1,-2,-1,-7,-8,14,316,79,1,6.5145295382361095,51.58423635741891,1561.52253285284,-140.49688598933008,-4.3513015922764
2025-02-19 14:01:44.784,784,-70,619,0,-1,0,-8,-8,14,303,79,1,6.451918882196394,51.530285876274235,1566.9371014318217,-139.9050983421269,0.8392018031918269
2025-02-19 14:01:44.887,781,-76,616,-1,0,-1,-7,-8,13,293,80,1,7.033416459694935,51.52538886577326,1563.8839282596923,-152.18332720580872,-1.4859152470811523
2025-02-19 14:01:44.997,782,-70,613,-1,-1,0,-7,-7,14,281,80,1,6.5145295382361095,51.72720165884268,1567.0705274483703,-140.27485539819173,-2.4069479870217947
2025-02-19 14:01:45.108,776,-81,608,-1,-1,-1,-7,-7,12,278,81,1,7.588470584785003,51.67618199635215,1560.5186589868476,-162.8891899200189,-6.674413226808497
2025-02-19 14:01:45.214,783,-72,612,-2,-1,-3,-7,-8,12,292,82,1,6.709836807756933,51.79726618363346,1568.8273854828567,-144.25998946968798,-2.2099104923478308
2025-02-19 14:01:45.321,777,-82,616,-9,-5,-5,-6,-8,15,375,87,1,7.582457962668596,51.34766425326467,1557.9502754403638,-164.41688878521217,-3.131749898667181
2025-02-19 14:01:45.427,784,-80,603,2,-6,-3,-8,-7,14,575,96,1,7.55729685817405,52.193114729484876,1574.0813532374295,-160.62054624871732,-4.677367349706628
2025-02-19 14:01:45.538,775,-53,613,12,-9,-4,-6,-9,14,741,108,1,4.941506273754319,51.55328499852382,1558.1867561127967,-106.55986848255255,-6.475459996315294
2025-02-19 14:01:45.644,792,-47,603,-1,-1,-1,-6,-10,13,775,113,1,4.456829382242128,52.632009931508954,1586.7538244841098,-94.1634214024661,-2.0966618231290113
2025-02-19 14:01:45.751,784,-75,598,-5,0,-3,-6,-8,14,737,114,1,7.148599710201402,52.44941487712243,1576.8155697311022,-150.84332618601104,-6.724120789794597
2025-02-19 14:01:45.858,801,-52,583,-12,1,-5,-5,-10,14,599,114,1,5.0969419833031555,53.84329312761978,1608.4063478803619,-104.41589274629067,-4.662797520912704
2025-02-19 14:01:45.964,801,-71,598,3,-1,0,-5,-10,15,634,114,1,6.770978962918538,53.06377381218773,1600.3048732252198,-141.8497453170919,1.2655253574514518
2025-02-19 14:01:46.070,810,-64,588,-7,3,0,-8,-6,14,623,111,1,6.211822029009156,53.86258567912511,1617.6049646166693,-127.8107626363788,1.7386182782698825
2025-02-19 14:01:46.181,791,-76,603,-3,0,-1,-8,-10,12,511,105,1,7.183481409745688,52.4628677850294,1583.958647964293,-152.18818867924938,-1.4931285998338808
2025-02-19 14:01:46.287,783,-82,601,3,-2,0,-7,-10,13,600,106,1,7.769420234300578,52.23605680296046,1573.5405643819668,-164.78968873476538,-5.787840604804728
2025-02-19 14:01:46.394,778,-79,604,-7,-2,-6,-8,-9,15,623,108,1,7.451683920327195,51.940403630497954,1565.3699453901907,-158.9514468969474,-7.274353490584986
2025-02-19 14:01:46.500,830,-22,579,-6,-2,-3,-7,-10,15,452,116,1,2.1759949229909554,55.08134759079532,1649.9655726429185,-43.734027226679764,6.9999198069280055
2025-02-19 14:01:46.604,738,-125,661,12,-5,-4,-6,-11,14,814,93,1,10.708599433702608,47.649624171727886,1477.0390803754055,-250.1759959985443,-0.9306668403022513
2025-02-19 14:01:46.716,743,38,611,24,-12,73,-6,-9,15,680,112,1,-3.558819871921611,50.51384152394836,1514.7782247521366,77.47183383658302,-23.665538793479527
2025-02-19 14:01:46.824,773,-188,517,2,43,-25,-6,-7,14,591,114,1,19.98310652189998,54.56168357092859,1587.740220449613,-386.15156719861216,-27.916809796183543
2025-02-19 14:01:46.935,1009,-91,629,28,-26,18,-6,-7,15,388,116,1,8.232097403539026,57.79400825215359,1855.137435576212,-167.31170132550574,101.52681171710879
2025-02-19 14:01:47.037,808,-31,582,10,3,7,-6,-5,15,771,113,1,3.0489558154213374,54.196406610324935,1619.0271309072596,-62.11613992342208,-2.1804334010209914
2025-02-19 14:01:47.144,673,-147,647,-20,14,4,-5,-7,13,510,70,1,12.800438436224832,45.40772193172957,1385.1206708911664,-302.5449310861834,-37.60932253578699
2025-02-19 14:01:47.250,814,-59,597,-5,-1,-4,-6,-5,14,461,75,1,5.6440696217638795,53.6102265675297,1618.9997022540651,-117.34764426657227,6.600955472141436
2025-02-19 14:01:47.357,786,-102,600,-1,-3,0,-7,-6,15,402,76,1,9.648045316098155,52.24899628983173,1576.6788487713286,-204.6071788481877,-3.5716402834569863
2025-02-19 14:01:50.474,795,-77,604,-2,-1,-1,-6,-8,12,271,82,2,7.265075013532336,52.55159475494191,1588.9012072158048,-153.8935760448012,0.834806090130769
2025-02-19 14:01:50.564,789,-83,601,0,0,-1,-6,-5,15,275,82,2,7.862991098099191,52.441394529472085,1581.730248627437,-166.39240891771516,-2.8414187897204783
2025-02-19 14:01:50.678,781,-77,606,1,1,-3,-8,-5,13,303,82,2,7.241352797174804,51.968660058275056,1568.6738780429137,-154.6579879760619,-5.178450824590982
2025-02-19 14:01:50.785,775,-89,607,4,1,0,-7,-6,13,282,80,2,8.34142746139944,51.63486204162712,1559.071254202703,-179.04173112779426,-7.1048403884393565
2025-02-19 14:01:50.891,776,-73,625,13,6,-4,-5,-7,12,276,78,2,6.66196178263318,50.96183349976392,1552.726579186256,-146.06835087705758,-0.5851958652187932
2025-02-19 14:01:50.999,782,-37,622,1,1,-4,-7,-7,11,136,76,2,3.404258269537648,51.45207741073689,1564.0872075857399,-74.00412619011811,-0.06936460144515877
2025-02-19 14:01:51.112,786,-66,604,-44,-9,-13,-7,-6,11,361,82,2,6.23605558374478,52.29518924221186,1577.1721841894196,-132.434305542623,-3.9745537537015707
2025-02-19 14:01:51.219,773,-78,625,-27,-9,-6,-6,-9,14,593,95,2,7.113733210112427,50.82649604341528,1548.2366834822967,-156.22569380545815,-1.8084439539915138
2025-02-19 14:01:51.314,796,-88,585,-4,-7,1,-8,-8,15,637,110,2,8.554710685247937,53.38051995654442,1598.6147177647617,-176.7312753307777,-4.861318960283484
2025-02-19 14:01:51.428,820,-126,578,-3,-8,-6,-8,-7,15,603,119,2,12.297692873660024,54.19211705639174,1630.9833308937966,-250.61451182026633,6.35565212607969
2025-02-19 14:01:51.534,806,-92,589,-7,2,-1,-6,-9,14,399,118,2,8.87769168732044,53.51226041293977,1609.9841251124885,-183.7699001369093,1.4731393408738995
2025-02-19 14:01:51.649,795,-120,591,-13,5,-12,-7,-7,14,102,113,2,11.477626959607765,52.817294894669836,1591.7123817028748,-240.2584727098679,-1.2729780960993367
2025-02-19 14:01:51.754,809,-115,590,10,-2,-3,-6,-10,15,177,117,2,11.029531223980479,53.386914016750794,1611.6812803712382,-229.1017889279263,4.60821332629132
2025-02-19 14:01:51.858,794,-51,595,8,1,-7,-6,-11,15,535,118,2,4.899092453787765,53.052514672406566,1593.1867704448514,-102.33315528046273,-3.886811605398748
2025-02-19 14:01:51.968,765,-84,598,-20,8,-7,-6,-8,15,132,109,2,7.995920446040161,51.71336761706668,1549.920949156222,-170.18739833872237,-15.572192935190174
2025-02-19 14:01:52.075,811,-67,539,21,10,3,-7,-10,12,0,119,2,7.085763708653398,56.188729635741126,1641.8750270893174,-135.64195661527037,-13.209173367622725
2025-02-19 14:01:52.185,784,-97,634,25,-16,13,-7,-13,17,730,117,2,8.698619545089358,50.713969404579935,1557.994612648247,-192.76208855469383,8.09109130231036
2025-02-19 14:01:52.288,846,-14,487,-51,14,11,-8,-7,17,0,118,2,1.6466530916060065,60.06287910223882,1712.5736058402483,-28.340461562368176,-11.84319863380739
2025-02-19 14:01:52.395,732,-88,632,54,-17,7,-8,-9,14,236,119,2,7.926926682689598,48.92076943883903,1485.8016380861861,-178.62096195571633,-18.823272227417306
2025-02-19 14:01:52.504,838,-100,462,-64,68,31,-7,-8,12,0,80,2,12.213276546439406,60.57354533091592,1708.9870576524622,-203.93640306115304,-18.18618214252689
2025-02-19 14:01:52.612,754,-139,607,7,-12,-14,-6,-5,13,0,58,2,12.898066460438297,50.447457961316125,1525.0409552123888,-281.14150235347756,-13.718646968063581
2025-02-19 14:01:53.526,785,-103,599,0,-1,-2,-9,-8,13,0,79,3,9.756779937681253,52.25095183242343,1575.6997441614708,-206.74786452054968,-4.349231532128783
2025-02-19 14:01:53.623,785,-111,598,-1,-1,-1,-8,-8,15,0,82,3,10.515491767921414,52.23163062006326,1575.4932524782607,-222.7767528981999,-4.184668766878872
2025-02-19 14:01:53.732,794,-105,604,0,-1,-2,-6,-7,15,0,83,3,9.861803604667667,52.327757610959004,1585.5197015363387,-209.67200083289123,1.8867761612735876
2025-02-19 14:01:53.840,786,-101,600,-2,-1,-3,-7,-8,14,0,84,3,9.555209096948971,52.25659837387056,1576.7600734928687,-202.61166338776047,-3.633643887685821
2025-02-19 14:01:53.942,747,-149,620,2,-6,-6,-7,-8,14,0,90,3,13.51320789886845,49.51532841270345,1507.579686047373,-300.708665623907,-11.270957629680083
2025-02-19 14:01:54.053,807,-91,596,-5,-6,-10,-5,-9,15,0,103,3,8.68113555458353,53.23670881497623,1608.1149948202096,-181.33638727216737,4.346298744925775
2025-02-19 14:01:54.160,781,-126,577,-3,-1,-4,-7,-8,14,0,104,3,12.318355838282333,52.903197185737085,1578.617587444464,-254.6809424046126,-12.277014027471978
2025-02-19 14:01:54.264,782,-65,591,0,-1,-2,-9,-8,15,407,107,3,6.276340606466103,52.75384933250596,1578.042666522688,-131.1672293145457,-10.612808075330804
2025-02-19 14:01:54.377,801,-74,595,7,-4,-4,-7,-11,14,503,111,3,7.089458360388803,53.18351741153575,1601.5590134419376,-147.95925966879324,0.32757428470301875
2025-02-19 14:01:54.484,805,-48,570,2,0,-5,-7,-9,15,685,116,3,4.813550893706532,54.603132689362006,1620.1594671391244,-96.60578189152542,-7.193659961864341
2025-02-19 14:01:54.590,793,-63,576,-6,2,-7,-8,-11,14,708,116,3,6.241914347415049,53.84487287173287,1600.4226147806935,-127.14580672280415,-10.475947179923537
2025-02-19 14:01:54.700,816,-42,600,-19,8,-6,-7,-11,14,475,113,3,4.004172940709387,53.60631815194684,1620.9592302782976,-83.43172508785355,8.118213030663583
2025-02-19 14:01:54.807,827,-205,509,29,6,-19,-9,-10,15,242,116,3,21.93713527531564,56.43491969233575,1660.2583580052424,-411.55134630117846,-3.8518793526822037
2025-02-19 14:01:54.914,674,-119,710,8,-16,31,-8,-10,13,716,118,3,9.514659055321694,43.11384018189447,1357.450129366187,-239.66849465070663,-9.954884050434543
2025-02-19 14:01:55.014,1083,-96,642,37,-6,23,-7,-9,12,95,116,3,8.504579240878805,59.06200683713622,1940.7241849238667,-172.03095268023196,133.54300395094873
2025-02-19 14:01:55.127,803,-45,572,-21,-4,26,-6,-8,16,0,122,3,4.4982701703850445,54.453065480324085,1616.63955552588,-90.59623910169938,-7.578861470489642
2025-02-19 14:01:55.229,749,-76,550,-9,45,30,-6,-8,12,3,76,3,7.8674134073938555,53.45083592149762,1552.346162154207,-157.51443033874466,-39.90706166196776
2025-02-19 14:01:55.340,728,-135,606,5,-19,-20,-7,-6,12,0,64,3,12.558836940947574,49.541696291622884,1488.8783919496504,-276.0969545511027,-27.368551540505678
2025-02-19 14:01:55.445,797,-120,606,-3,2,0,-7,-6,14,0,74,3,11.200797787884433,52.220186313190744,1587.3709012911077,-239.0018922897528,5.040443936748602
2025-02-19 14:01:56.466,777,-120,614,-4,-1,-3,-8,-6,14,0,74,4,11.0584792566912,51.16005183717048,1555.9008904611426,-240.29357381639264,-1.5021193605423377
2025-02-19 14:01:56.560,781,-116,602,-4,-1,-5,-7,-7,15,0,79,4,10.906705878058283,51.86857561413313,1567.5964847421178,-232.8312320487653,-4.313807701350925
2025-02-19 14:01:56.670,786,-126,610,-8,-3,-5,-6,-8,13,0,83,4,11.670732361769327,51.60442040123724,1569.7413768899519,-251.6379306464808,1.7528754416405263
2025-02-19 14:01:56.777,790,-111,596,-3,-3,-4,-7,-7,15,0,88,4,10.549987729766032,52.49726215876361,1583.3242501199766,-222.46707818141442,-2.5079152803872375
2025-02-19 14:01:56.884,777,-120,601,1,-5,-5,-7,-7,14,0,92,4,11.29159782520185,51.73519825966798,1562.1569685008099,-241.25976347502854,-6.309315404101426
2025-02-19 14:01:56.994,793,-104,589,17,-4,0,-7,-8,15,337,100,4,10.013529029463994,52.974992562896546,1591.372764528122,-208.7046248561471,-3.9906157718330633
2025-02-19 14:01:57.097,773,-91,608,7,-2,-4,-8,-8,15,634,100,4,8.512332157833196,51.504524053910565,1555.657307942015,-183.1368887745451,-7.595916207949699
2025-02-19 14:01:57.207,796,-56,601,7,-3,-2,-7,-8,15,738,108,4,5.323337748674694,52.82711556597769,1592.815958914833,-112.0574041447621,-0.6160694821790003
2025-02-19 14:01:57.313,795,-55,579,-8,1,-5,-9,-10,14,716,112,4,5.426322141437199,53.811530125002825,1602.079148487233,-110.83566436075196,-8.79726663409781
2025-02-19 14:01:57.420,821,-59,568,2,0,-6,-6,-8,15,755,116,4,5.930230874894805,55.179009735643824,1641.9400735618651,-117.99569347155912,0.04145946024436853
2025-02-19 14:01:57.528,794,-111,618,-17,-19,-28,-8,-8,16,738,120,4,10.182419775785927,51.66331361828402,1578.3793663197696,-220.65504995150428,7.488100270003088
2025-02-19 14:01:57.634,853,34,543,7,7,9,-7,-10,14,201,116,4,-3.5829034852085444,57.469313642155626,1696.1035590270521,67.60553459193409,6.299844605288058
2025-02-19 14:01:57.744,795,-42,588,12,-11,3,-8,-8,16,718,117,4,4.085616779974877,53.44280516230227,1598.262685354819,-84.43651922629232,-6.111269168092576
2025-02-19 14:01:57.846,628,-143,647,-36,8,-31,-9,-9,14,624,91,4,12.463155346889252,43.463684969019,1315.8946829551983,-299.6384389531742,-61.70678323569041
2025-02-19 14:01:57.961,789,-142,631,-12,-3,-29,-7,-12,14,667,118,4,12.682544129103396,50.656911559630124,1562.3636662640006,-281.1858562857897,12.505103406103444
2025-02-19 14:01:58.062,883,-64,551,8,-4,43,-8,-6,17,0,123,4,6.625356520038102,57.86278369942804,1729.7765743585574,-125.37451954580712,22.60374578531696
2025-02-19 14:01:58.174,425,-331,726,-28,10,-11,-6,-5,13,0,47,4,24.509326972218012,28.042054618721913,895.119512348474,-697.1401378525763,-77.07474344704019
2025-02-19 14:01:58.989,782,-82,600,0,-3,-2,-7,-9,14,490,96,5,7.782210724010011,52.24595471017307,1572.646347012851,-164.9066501982785,-6.6340258410622255
2025-02-19 14:01:59.088,787,-78,601,-2,-1,-4,-7,-12,14,453,100,5,7.394724329914942,52.401424149358164,1579.304808936806,-156.52576251216118,-4.051067561652303
2025-02-19 14:01:59.194,755,-85,602,-4,3,-6,-8,-9,14,303,107,5,8.03680854114422,51.156900796126976,1533.8663986791746,-172.68694554666206,-19.029896695183083
2025-02-19 14:01:59.304,1061,-249,682,107,-5,-17,-8,-9,15,586,115,5,20.057271410419816,55.61647824125955,1886.2759484164162,-442.67927535880085,151.52102090481048
2025-02-19 14:01:59.410,812,-6,620,-18,-1,-1,-7,-12,15,811,117,5,0.5544579772609138,52.635278175110464,1606.7884435661172,-11.872821011572293,13.141828804196393
2025-02-19 14:01:59.518,645,-193,566,10,-31,-13,-8,-9,13,290,109,5,18.828832165037742,47.16538191309792,1378.3192124388456,-412.42729922588717,-77.50182052773118
2025-02-19 14:01:59.620,818,3,535,17,-7,20,-8,-9,14,0,114,5,-0.32128137752623376,56.81352759941734,1654.893570442182,6.069291823137586,-12.357041792869495
2025-02-19 14:01:59.734,666,-133,731,7,-4,-13,-6,-10,14,607,115,5,10.311743757707445,41.871946539542826,1333.4680417068369,-266.2931674880019,-1.6113190505971033
2025-02-19 14:01:59.834,916,-119,465,-11,28,2,-8,-6,14,0,120,5,14.3547109182142,62.34539201257674,1801.7616143562643,-234.07165077335753,15.350272188140991
2025-02-19 14:01:59.942,582,-195,674,12,-11,-7,-6,-6,13,0,63,5,16.136082012028055,39.67513832947425,1220.4339010684762,-408.9082658219121,-65.35472391778853
2025-02-19 14:02:00.049,827,-61,595,-5,-3,-9,-6,-8,13,122,81,5,5.8535701644097955,54.12407599727904,1637.2879657672945,-120.76731065514507,12.023773117847327
2025-02-19 14:02:00.971,775,-95,607,-3,-1,-5,-7,-7,14,42,88,6,8.895055798167684,51.59402067702549,1558.628630776161,-191.05770312740032,-6.758166298231572
2025-02-19 14:02:01.066,773,-96,606,2,-2,-5,-7,-8,16,138,92,6,9.001755122561306,51.55975266837956,1556.2569397146303,-193.27382433713393,-8.041016128157821
2025-02-19 14:02:01.164,799,-95,603,4,-4,-5,-7,-10,12,356,98,6,8.953108380422968,52.620102360589996,1593.627670894613,-189.48013608884634,3.299767772901646
2025-02-19 14:02:01.278,830,-63,598,26,1,-2,-7,-8,15,653,115,6,6.0139934034701845,54.07782909970287,1639.814679968485,-124.46786125061995,14.543158287766346
2025-02-19 14:02:01.385,702,-96,610,-21,4,-28,-5,-11,14,545,118,6,8.943684482564427,48.66382105370383,1452.847231162847,-198.67996323594488,-42.44559972839977
2025-02-19 14:02:01.491,892,95,526,8,-31,74,-7,-9,12,0,112,6,-10.237732969241256,59.06884071084444,1749.7854985866738,186.35607888535202,20.17581585584037
2025-02-19 14:02:01.602,747,-92,633,3,11,-51,-6,-8,16,342,118,6,8.269446225936408,49.42679554898947,1506.575572230695,-185.54879872185268,-10.656408597094924
2025-02-19 14:02:01.710,939,192,581,-47,60,83,-7,-9,11,393,73,6,-18.28689804257768,56.90957698571036,1776.809985823689,363.30939007257535,62.610647749134046
2025-02-19 14:02:01.819,722,-138,655,12,-22,-17,-6,-5,11,195,48,6,11.897474809507308,47.16583084448443,1455.3245395363017,-278.1645241772987,-10.273647363265468
2025-02-19 14:02:02.736,778,-84,611,-1,-4,-6,-7,-9,14,1,76,7,7.827926084802492,51.594938549634186,1561.6385827105337,-168.6087929918828,-4.4282442623857605
2025-02-19 14:02:02.831,805,-51,594,-3,-4,-9,-7,-9,14,110,91,7,4.9072998422881495,53.476242733316205,1608.6101526991938,-101.91194756230917,1.0255519213402522
2025-02-19 14:02:02.935,774,-62,617,-7,4,-8,-9,-9,15,92,91,7,5.738174543992251,51.29926418200372,1554.4223776284648,-124.51445402191838,-5.119647282639335
2025-02-19 14:02:03.048,1685,-25,613,4,8,-32,-5,-12,13,0,112,7,2.335401522383966,69.9934026692504,2624.653232598126,-38.941442620150234,271.15582695391623
2025-02-19 14:02:03.155,666,-47,662,32,-22,15,-8,-10,16,749,112,7,4.0610131187869625,45.10055846090027,1374.346717807989,-96.98843203750076,-42.09238316649987
2025-02-19 14:02:03.264,828,177,531,-12,-12,62,-7,-9,17,292,114,7,-18.43494882292201,55.941537170153644,1656.4665580452613,354.099735234313,-0.299205702939048
2025-02-19 14:02:03.367,802,-44,673,-46,52,-16,-8,-9,14,0,98,7,3.740611502058342,49.93805588489727,1567.349059391034,-85.98922520349814,30.755714501040075
2025-02-19 14:02:03.478,1160,126,669,77,-46,-10,-7,-9,15,359,114,7,-10.666186759844834,59.592867783767694,2022.4506711098823,219.67998668952174,171.60388019611094
2025-02-19 14:02:03.585,882,34,593,-16,8,14,-6,-9,16,720,114,7,-3.281494171814086,56.04210640311996,1711.4482969244423,65.97419738711002,35.33238086599272
2025-02-19 14:02:03.687,644,-143,650,0,1,2,-6,-8,12,250,59,7,12.407418527400743,44.0574759461695,1339.3796225863452,-297.40882923889336,-51.85831472224254
2025-02-19 14:02:04.506,804,-61,596,3,-7,-3,-5,-8,15,0,82,8,5.843816766064256,53.30777124116102,1605.8566950054933,-121.8373860638496,1.5888181302562998
2025-02-19 14:02:04.600,788,-74,596,1,-4,1,-7,-9,14,0,85,8,7.077684034586007,52.68706175605455,1583.3366193304014,-148.68897186605292,-5.54901665091279
2025-02-19 14:02:04.707,797,-71,587,-2,-4,1,-6,-7,13,0,89,8,6.896651749328129,53.429023300856485,1600.1193911767953,-142.5451402428513,-4.507004543009884
2025-02-19 14:02:04.821,742,-92,602,14,-26,-16,-6,-8,14,25,113,8,8.68893803238077,50.622893074721524,1514.9871244333913,-187.84206933675472,-25.140497181808087
2025-02-19 14:02:04.928,766,-129,662,-32,10,-26,-7,-9,15,0,123,8,11.026704699087881,48.636560768108104,1516.5329038111004,-255.39522792641245,13.367124904767024
