Timestamp,Acc_X,Acc_Y,Acc_Z,Gyro_X,Gyro_Y,Gyro_Z,Mag_X,Mag_Y,Mag_Z,Force,IR_A,Letter,Roll,Pitch,Lin_Acc_X,Lin_Acc_Y,Lin_Acc_Z
2025-02-19 13:39:47.280,31,223,970,-1,-1,0,0,-1,-2,0,15,noise,-12.947154375282521,1.7839736339235088,62.131183019240574,446.94367139647244,-4.10475898914035
2025-02-19 13:39:47.375,35,223,969,0,-1,-1,0,0,0,0,14,noise,-12.960064841023929,2.015957335264365,70.1778337260175,447.13305488291155,-4.923453728884283
2025-02-19 13:39:47.486,38,218,969,-1,-1,-1,0,-1,0,0,14,noise,-12.678976493649257,2.1910345001235547,76.23144646325163,437.32777181549613,-5.901884812916478
2025-02-19 13:39:47.588,35,223,972,-1,-1,0,0,2,-1,0,14,noise,-12.921409146544763,2.010051683163878,70.07482426087866,446.4767374335984,-2.0779766164015427
2025-02-19 13:39:47.700,34,222,973,-1,-1,0,0,-1,0,0,14,noise,-12.852614775197761,1.9511969678794612,68.04822942732443,444.3149097901772,-1.3802127290197177
2025-02-19 13:39:47.807,35,222,974,-1,-1,0,-1,-1,-1,0,14,noise,-12.839856659395052,2.0065801173013114,70.0142712238783,444.09052033431374,-0.39714777307017357
2025-02-19 13:39:47.909,36,219,971,-1,-1,0,1,3,-3,0,14,noise,-12.709866015246828,2.0712973341335625,72.14308455121176,438.8704310198716,-3.8593083118506684
2025-02-19 13:39:48.019,32,225,971,-1,-1,0,0,0,0,0,14,noise,-13.046319992964102,1.8388527724941386,64.08852600214689,450.6224484525954,-2.6862108776448395
2025-02-19 13:39:48.130,38,221,971,-1,-1,-1,-1,0,-3,0,14,noise,-12.82211760058802,2.1852913812687818,76.13128321968857,442.7635155671361,-3.354631745200095
2025-02-19 13:39:48.229,31,220,971,-1,-1,-1,0,1,-2,0,14,noise,-12.766004264692809,1.7834231849633289,62.12158052759902,440.8628295507027,-3.808215880601665
2025-02-19 13:39:48.338,30,222,969,0,-1,0,-1,0,-1,0,14,noise,-12.903897470172486,1.7285414097567748,60.16416270519643,445.2148040184537,-5.302455377845149
2025-02-19 13:39:48.449,34,224,973,-1,-1,-1,-1,-1,-1,0,14,noise,-12.964508660419249,1.950324511394867,68.0330110140317,448.21748432773825,-0.9446975486129077
2025-02-19 13:39:48.551,35,223,971,-1,-1,0,0,1,0,0,13,noise,-12.934269168040464,2.012016488745713,70.10909546636904,446.6950939714371,-3.0266199384097945
2025-02-19 13:39:48.662,32,222,975,-1,-1,0,0,-1,-1,0,12,noise,-12.827123422922472,1.832922848943941,63.985082437752965,443.8965094119112,0.45451947471440235
2025-02-19 13:39:48.769,34,220,971,-1,-1,-1,-2,0,-2,0,13,noise,-12.766004264692809,1.955884383948578,68.1299927224397,440.84112938049213,-3.712439220263036
2025-02-19 13:39:48.870,29,224,974,0,-1,-1,1,1,-1,0,12,noise,-12.951647113822009,1.662065810119758,58.00445252522017,448.034391918942,-0.14954343325655373
2025-02-19 13:39:48.981,37,224,973,-1,-1,0,0,-1,-2,0,12,noise,-12.964508660419249,2.122260980279725,74.03197239422248,448.1935626028604,-0.840787556174746
2025-02-19 13:39:49.093,35,221,973,-1,-1,-1,-2,1,0,0,12,noise,-12.796630361074515,2.0089852353198334,70.05622268142348,442.3550060741311,-1.5629905435727096
2025-02-19 13:39:49.195,37,222,970,-1,-1,-1,0,1,1,0,12,noise,-12.891039117138293,2.129444749467817,74.15726652707163,444.94359916242973,-4.122933277282982
2025-02-19 13:39:49.304,35,223,978,-1,-1,0,0,-1,-1,0,12,noise,-12.844773878439904,1.9983408474767714,69.87055665378226,445.17526096552706,3.6170169314556233
2025-02-19 13:39:49.409,37,221,972,-1,-1,0,0,-2,0,0,12,noise,-12.8093615145608,2.125757724577668,74.09296016490377,442.5552485525334,-2.4420886563910926
2025-02-19 13:39:49.518,31,223,969,0,-1,-1,-1,1,-1,0,12,noise,-12.960064841023929,1.7857209931188782,62.16166539417533,447.1629478355193,-5.053347321157503
2025-02-19 13:39:49.620,30,218,970,-1,-1,-1,-1,0,-2,0,12,noise,-12.666327317352511,1.7283849813245538,60.16143375624938,437.17308529541214,-5.219691452063216
2025-02-19 13:39:49.730,34,224,968,-1,-1,0,-2,1,-1,0,11,noise,-13.029194807943744,1.9598802843446579,68.19969362655291,449.3156285984662,-5.685395014800406
2025-02-19 13:39:49.839,36,227,973,-1,-1,-1,-1,0,0,0,11,noise,-13.132160784595973,2.0635542774400117,72.00803068636445,454.05063793902025,-0.2170516064614958
2025-02-19 13:39:49.940,33,223,977,-1,-1,0,0,0,0,0,11,noise,-12.857484298015248,1.8860665618244181,65.91212673714996,445.40618976922553,2.6015811455905578
2025-02-19 13:39:50.049,28,222,968,0,-1,-1,0,1,0,0,12,noise,-12.916781063856039,1.6149510170904622,56.182480506412794,445.4468097294157,-6.308611793127739
2025-02-19 13:39:50.154,37,222,975,-1,-1,0,0,0,0,0,11,noise,-12.827123422922472,2.119073566934991,73.97637963770762,443.85827782624574,0.622428465812618
2025-02-19 13:39:50.260,31,221,969,-1,-1,0,1,1,-2,0,11,noise,-12.847704858717666,1.7865229437574777,62.17565527282062,443.2522521062373,-5.490643850424931
2025-02-19 13:39:50.371,31,221,975,-1,-1,0,1,-1,-3,0,11,noise,-12.771242564901442,1.7760744981324892,61.993383618820694,441.952831605141,0.2080958596718574
2025-02-19 13:39:50.485,36,219,974,-1,-1,-1,-1,-1,-1,0,11,noise,-12.671984608953137,2.0652302980017367,72.03726377813291,438.2266879836419,-1.008192219484954
2025-02-19 13:39:50.591,30,222,972,-1,-1,-1,-1,2,-1,0,12,noise,-12.865397842050205,1.7234743561699486,60.0757660613227,444.560668853788,-2.4548203868556584
2025-02-19 13:39:50.698,34,225,974,-1,-1,-1,1,1,-1,0,12,noise,-13.007504797887883,1.94798678861423,67.99223366181107,449.9486051149262,0.2224827469419779
2025-02-19 13:39:50.804,34,220,971,-1,-1,0,-1,0,-2,0,12,noise,-12.766004264692809,1.955884383948578,68.1299927224397,440.84112938049213,-3.712439220263036
2025-02-19 13:39:50.909,35,223,978,-1,-1,0,-1,2,-1,0,12,noise,-12.844773878439904,1.9983408474767714,69.87055665378226,445.17526096552706,3.6170169314556233
2025-02-19 13:39:51.009,35,222,971,-1,-1,-1,0,0,0,0,12,noise,-12.878205931942855,2.012467294294638,70.11695865563709,444.74185204432666,-3.2447672749603953
2025-02-19 13:39:51.125,32,221,971,-1,-1,-1,0,-2,0,0,12,noise,-12.82211760058802,1.8405049074798052,64.11734633474822,442.8104231243549,-3.5607278450165722
2025-02-19 13:39:51.230,35,224,971,-1,-1,-1,1,0,-2,0,11,noise,-12.990307218437374,2.0115639619627848,70.10120225223952,448.6476944143328,-2.807639626416062
2025-02-19 13:39:51.336,32,223,970,-1,-1,-1,0,2,0,0,11,noise,-12.947154375282521,1.841482167012667,64.13439392726016,446.93655768059426,-4.0738159200736845
2025-02-19 13:39:51.442,36,223,969,-1,-1,0,0,-1,-1,0,11,noise,-12.960064841023929,2.073506536104882,72.18161717985251,447.1250175307531,-4.888529091030023
2025-02-19 13:39:51.550,35,222,971,-1,-1,0,0,1,0,0,11,noise,-12.878205931942855,2.012467294294638,70.11695865563709,444.74185204432666,-3.2447672749603953
2025-02-19 13:39:51.659,36,224,968,0,-1,-1,-2,0,-2,0,12,noise,-13.029194807943744,2.075069370887665,72.20887591913124,449.2996723857055,-5.616441381084542
2025-02-19 13:39:51.759,31,217,972,-1,-1,-1,0,0,-3,0,10,noise,-12.584967788706843,1.78285528191187,62.11167354919327,434.7817148443529,-3.501506123092213
2025-02-19 13:39:51.870,35,222,972,-1,-1,0,-1,3,-1,0,10,noise,-12.865397842050205,2.0105011690240775,70.08266444088143,444.524328739305,-2.295709615335568
2025-02-19 13:39:51.980,34,220,971,-1,-1,-1,-1,2,-1,0,9,noise,-12.766004264692809,1.955884383948578,68.1299927224397,440.84112938049213,-3.712439220263036
2025-02-19 13:39:52.087,32,218,969,-1,-1,0,0,0,-2,0,9,noise,-12.678976493649257,1.8453432696514975,64.20174800549572,437.37440828743945,-6.109181791416859
2025-02-19 13:39:52.192,34,223,973,-1,-1,-1,0,2,-1,0,10,noise,-12.908574238316415,1.9507615714042474,68.04063473032552,446.2665160253704,-1.162870370786436
2025-02-19 13:39:52.299,35,219,975,-1,-1,0,0,1,-1,0,10,noise,-12.65940678501996,2.0059515837737525,70.00330796891197,438.0206984340493,-0.09215056254799947
2025-02-19 13:39:52.405,32,221,970,-1,-1,0,0,1,0,0,10,noise,-12.834898691201087,1.8423075057459786,64.14879136296776,443.02759035049604,-4.510238189960091
2025-02-19 13:39:52.509,28,221,967,-1,-1,-1,-1,0,-1,0,10,noise,-12.873392715103506,1.616900342651104,56.216489125554574,443.7087177409844,-7.476606586116986
2025-02-19 13:39:52.620,31,220,973,-1,-1,-1,0,2,-1,0,10,noise,-12.740621086228767,1.7799380758473906,62.06078330523525,440.43136539199213,-1.9078114836742088
2025-02-19 13:39:52.729,35,221,974,-1,-1,-1,0,-1,-1,0,10,noise,-12.783924068355775,2.0070252673599955,70.02203579295158,442.1391402926372,-0.6132246381383766
2025-02-19 13:39:52.837,33,221,968,-1,-1,-1,0,1,0,0,10,noise,-12.860536175729466,1.9035663334395068,66.21738836409985,443.4558432868506,-6.376725346928993
2025-02-19 13:39:52.942,33,220,969,-1,-1,-1,-1,0,0,0,10,noise,-12.791487097813508,1.9021247526841947,66.19224190769617,441.28161271797444,-5.6449214714419895
2025-02-19 13:39:53.045,35,221,971,-1,-1,-1,0,0,0,0,10,noise,-12.82211760058802,2.012916374863782,70.12479175473221,442.7879707941662,-3.4620798241421653
2025-02-19 13:39:53.159,34,220,970,-1,-1,-1,-2,1,-1,0,10,noise,-12.778733188406038,1.9578006680902489,68.16341868576086,441.05741502551143,-4.662238976118374
2025-02-19 13:39:53.266,32,222,972,-1,-1,0,-1,1,1,0,10,noise,-12.865397842050205,1.8382962727126149,64.07881824892957,444.54680160194886,-2.3941043112355374
2025-02-19 13:39:53.372,31,220,967,-1,-1,0,-2,-1,-2,0,11,noise,-12.817070163471985,1.7904334298193683,62.243872881990086,441.7307107754135,-7.607260544658516
2025-02-19 13:39:53.479,35,222,972,-1,-1,-1,1,0,0,0,10,noise,-12.865397842050205,2.0105011690240775,70.08266444088143,444.524328739305,-2.295709615335568
2025-02-19 13:39:53.586,33,223,970,-1,-1,0,0,1,0,0,10,noise,-12.947154375282521,1.8989869886978552,66.13750772115526,446.9292188429582,-4.041893621836493
2025-02-19 13:39:53.693,34,221,972,-1,-1,0,1,0,-1,0,11,noise,-12.8093615145608,1.9535384227615624,68.08907180132871,442.5789667086367,-2.5464056144564893
2025-02-19 13:39:53.798,34,221,968,-1,-1,-1,-1,0,1,0,12,noise,-12.860536175729466,1.9612057767626907,68.22281429124128,443.44829289306836,-6.343653938869124
2025-02-19 13:39:53.903,35,219,968,-1,-1,-1,0,-1,-1,0,12,noise,-12.74797082417804,2.0197421324259595,70.24384993634274,439.5258038874017,-6.7441925251361
2025-02-19 13:39:54.011,33,224,972,0,-1,-1,1,1,-2,0,13,noise,-12.97739533781742,1.8948524135685139,66.06538531696,448.4438276060316,-1.925894790458301
2025-02-19 13:39:54.119,65,199,913,-5,1,-1,1,0,1,0,13,noise,-12.296034493825523,3.97912496228437,134.39301849213035,411.44939507590675,-61.70501358946137
2025-02-19 13:39:54.220,31,220,886,0,-3,1,1,0,-2,0,13,noise,-13.94491127188431,1.944875356950808,64.93796026760111,460.850040608782,-83.96879990627667
2025-02-19 13:39:54.335,35,222,976,-1,-1,0,1,1,-2,0,13,noise,-12.814414994330035,2.0026739286118054,69.9461370933106,443.6583552775701,1.5020056265390167
2025-02-19 13:39:54.442,31,232,1003,-1,-1,0,0,-2,1,0,12,noise,-13.023817405084827,1.724782725108127,61.098591069069144,457.25397187174326,29.164940571730654
2025-02-19 13:39:54.548,27,226,989,-1,0,-1,0,2,-1,0,13,noise,-12.871855427802602,1.5245252876799262,53.60484623567082,448.6924166393187,14.474336034131738
2025-02-19 13:39:54.653,30,225,966,-1,0,-1,-1,1,-2,0,12,noise,-13.11152028319856,1.7324562971660744,60.232459217912904,451.7434441343469,-7.485186816795704
2025-02-19 13:39:54.761,35,219,955,-1,-1,0,1,0,-1,0,9,noise,-12.91572118455684,2.045849114276642,70.69921597528827,442.3750942453751,-19.078607325722714
2025-02-19 13:39:54.867,35,218,958,-1,-1,0,0,0,-2,0,7,noise,-12.819775163395672,2.040227561066743,70.60116373126029,439.74439124042124,-16.454710129924365
2025-02-19 13:39:54.974,34,219,967,0,-1,0,1,2,0,0,7,noise,-12.760722408252494,1.9640095660854413,68.27172094049538,439.75020252848486,-7.7280632193831025
2025-02-19 13:39:55.079,34,221,972,-5,0,-1,0,0,-1,0,8,noise,-12.8093615145608,1.9535384227615624,68.08907180132871,442.5789667086367,-2.5464056144564893
2025-02-19 13:39:55.191,20,220,982,23,1,17,-1,2,-2,0,9,noise,-12.627614732588011,1.1385442343796015,39.8700378277298,438.5704161050279,6.381142658466501
2025-02-19 13:39:55.299,37,222,969,-1,-1,-1,-1,0,-2,0,10,noise,-12.903897470172486,2.1315308541775506,74.1936507549367,445.16190452962024,-5.071556257666657
2025-02-19 13:39:55.404,41,223,960,-1,-1,-1,0,0,-1,0,12,noise,-13.07740780667697,2.3821711819037317,82.5647530796771,449.071705774829,-13.223486743658782
2025-02-19 13:39:55.511,67,318,946,13,3,17,0,1,-1,0,13,noise,-18.580184961821406,3.8406778700834034,133.98228552790704,635.9159223563349,0.250117770148222
2025-02-19 13:39:55.617,33,203,982,0,-1,0,0,2,-2,0,14,noise,-11.679722122137125,1.8848712942705885,65.89127667738842,405.3311868336318,3.23534250922944
2025-02-19 13:39:55.720,32,210,980,-1,-1,-1,0,0,0,0,18,noise,-12.094757077012103,1.828732277063688,63.911980497394,419.4223720141481,2.69559726730904
2025-02-19 13:39:55.833,10,217,947,0,0,-1,-2,1,-1,0,23,noise,-12.906211092111004,0.5897185150191848,20.292348022824545,440.3439520952926,-27.685357761484283
2025-02-19 13:39:55.940,37,210,961,1,-1,0,0,1,-1,0,27,noise,-12.326640178509853,2.1541057728736885,74.58738189502117,423.33378913390385,-15.256054084198126
2025-02-19 13:39:56.052,13,152,973,18,-2,-10,0,-1,0,0,29,noise,-8.878862819334696,0.7562968326615281,26.199486539025983,306.3324579947653,-14.930800190175319
2025-02-19 13:39:56.157,32,207,978,-2,-3,-7,-2,2,-1,0,26,noise,-11.950647266846145,1.8334506465374825,63.99428952893315,413.9630603902863,0.1745262719806533
2025-02-19 13:39:56.259,42,206,975,-1,-2,-4,0,1,1,0,27,noise,-11.930114485604635,2.4133872155890614,84.10909862210917,412.53510276558313,-2.5326465846771953
2025-02-19 13:39:56.370,33,207,977,2,-2,-4,-1,-1,-1,0,27,noise,-11.962527035254428,1.892555793094794,66.02532361955397,414.15884815902047,-0.7497326152799815
2025-02-19 13:39:56.477,32,211,970,-3,-2,-3,-2,1,-1,0,26,noise,-12.272130344095899,1.8463385586035794,64.21911006103537,423.44475696495203,-6.641773725134726
2025-02-19 13:39:56.579,30,223,979,14,1,0,-2,1,0,0,27,noise,-12.832088142941238,1.7113853877759924,59.86486854010305,444.995522814766,4.409789974637079
2025-02-19 13:39:56.690,41,207,970,-2,-2,-7,-2,-1,0,0,25,noise,-12.046341529479509,2.367102970765309,82.30198902121877,415.52467627786064,-7.144618306883217
2025-02-19 13:39:56.796,31,208,973,0,-2,0,-2,-1,0,0,25,noise,-12.066603881426436,1.7845462095192373,62.141171503353746,416.9472152483089,-4.430963637522382
2025-02-19 13:39:56.903,34,231,968,1,-1,0,-1,1,0,0,27,noise,-13.421835067886203,1.9567287901627775,68.14472180125976,462.9832569438531,-4.120314812336801
2025-02-19 13:39:57.014,44,257,961,-1,-1,0,-1,-1,-1,0,28,noise,-14.972228773556452,2.5326143873956157,88.18806693205275,515.0984818531263,-4.1075527659701265
2025-02-19 13:39:57.116,54,257,954,2,1,3,0,0,-1,0,27,noise,-15.077103094511767,3.128404438858181,108.57383185218606,516.7310145557744,-10.137696055287165
2025-02-19 13:39:57.226,35,239,962,-1,-1,-1,-2,1,0,0,29,noise,-13.952129342624822,2.022225793527476,70.28717103663384,479.96096793587105,-7.893101064049915
2025-02-19 13:39:57.329,41,228,969,11,0,4,0,-1,0,0,28,noise,-13.240519915187205,2.358502390522755,82.15200819986154,456.84531389191295,-3.592584040630186
2025-02-19 13:39:57.439,32,236,964,3,-1,-3,-1,-2,-1,0,28,noise,-13.756207674754314,1.8467403104269788,64.22611831197138,473.6676225507889,-6.811814148137728
2025-02-19 13:39:57.546,30,241,969,0,0,-3,-1,-2,-1,0,28,noise,-13.966659120897607,1.720903574818592,60.03091772970848,482.24837242865806,-0.9986426695837736
2025-02-19 13:39:57.654,23,247,964,1,3,-4,-1,-1,0,0,29,noise,-14.371384346681111,1.3240020883484824,46.10613921392921,495.1398428626311,-4.44861748816345
2025-02-19 13:39:57.758,16,248,963,0,5,-4,0,0,-1,0,30,noise,-14.441499540433048,0.9217961351065539,32.087683557151955,497.3590951358552,-5.277454096083147
2025-02-19 13:39:57.869,5,226,970,-1,2,-4,-2,-2,-1,0,30,noise,-13.115348237729252,0.2876327979759399,10.020118275339707,452.9093460453547,-3.9029454159028774
2025-02-19 13:39:57.972,-12,239,966,1,3,-4,1,0,-2,0,31,noise,-13.896600118998633,-0.6908829623443521,-24.057890231485697,479.1529804437568,-4.660163634598803
2025-02-19 13:39:58.079,-3,238,948,1,0,-4,0,-3,0,0,31,noise,-14.093112709313862,-0.17585783571135608,-6.069293429495744,481.49727873999564,-21.896723720654904
2025-02-19 13:39:58.189,-12,248,958,0,-3,-3,-1,-2,-1,0,31,noise,-14.513697245236056,-0.6947552076714969,-24.12546872105269,498.593020235089,-10.016586230706594
2025-02-19 13:39:58.296,-1,256,962,-2,-5,-2,0,-2,-2,0,29,noise,-14.90175714221412,-0.05755592546604562,-2.0045402344677647,513.1623000237478,-4.367705557989666
2025-02-19 13:39:58.401,-4,240,960,0,-6,-3,-2,-2,-1,0,27,noise,-14.036243467926477,-0.231603200152647,-8.042227392673519,482.5336435604112,-10.134574241644714
2025-02-19 13:39:58.512,5,223,953,14,-14,10,-2,-1,-1,0,23,noise,-13.17012789714457,0.29269827169029855,10.10852633606119,450.84027458832907,-20.685119653262745
2025-02-19 13:39:58.615,21,252,957,-1,0,1,-2,-1,0,0,18,noise,-14.752403413396888,1.215645995066699,42.21543333812687,506.58520005752246,-9.817604980353394
2025-02-19 13:39:58.719,56,239,966,-16,-2,4,-1,-2,0,0,13,noise,-13.896600118998633,3.2208796779673454,112.18535219045657,478.7910566699843,-3.197325285375996
2025-02-19 13:39:58.834,-108,189,1006,50,11,43,-2,0,0,0,10,noise,-10.640286294712471,-6.022991509660766,-212.92753414437948,372.6231847526641,28.619450469946628
2025-02-19 13:39:58.940,114,278,990,-18,-6,-14,-2,0,-1,0,12,noise,-15.685171066733542,6.3261758442424565,224.18839532442428,546.7050342121926,33.10077744578928
2025-02-19 13:39:59.045,36,232,974,-1,0,-1,-1,0,-1,0,18,noise,-13.39779948220021,2.0591875317342607,71.93186591649032,463.5609136840487,1.8434054816231082
2025-02-19 13:39:59.155,35,234,971,-1,-1,0,-1,-1,-1,0,21,noise,-13.54928280795529,2.0069448571675768,70.02063323125039,468.1379478889312,-0.5724247869750343
2025-02-19 13:39:59.258,35,233,964,-1,-1,0,-1,1,-1,0,21,noise,-13.587863053147863,2.0211778446067896,70.26889226253161,467.7900542048533,-7.406061173727721
2025-02-19 13:39:59.368,35,235,965,-1,-1,0,-2,-1,1,0,20,noise,-13.686456729810281,2.0182430332311685,70.21770196223409,471.46171317500034,-6.0023541015971205
2025-02-19 13:39:59.475,36,229,965,-1,-1,-1,-1,-2,-2,0,21,noise,-13.349679804122381,2.0787902975527737,72.27377567785555,459.7415175063589,-7.338709142516564
2025-02-19 13:39:59.581,36,232,966,-1,-1,0,-2,0,-2,0,21,noise,-13.504706075259,2.0753004245519535,72.21290592159343,465.37206038360193,-5.712975562756469
2025-02-19 13:39:59.684,35,230,967,-1,-1,-1,-1,-1,0,0,21,noise,-13.379146451501011,2.016671801237215,70.1902957889596,461.25051518459173,-5.257600797826967
2025-02-19 13:39:59.795,35,229,972,-1,0,-1,-1,-1,1,0,20,noise,-13.256946457028738,2.0073188466041967,70.02715657359771,458.1776815815392,-0.7541768439132284
2025-02-19 13:39:59.901,35,230,968,-1,-1,-1,0,1,0,0,20,noise,-13.365821259024889,2.014701473336316,70.15592835828812,461.02467206875053,-4.312532880654203
2025-02-19 13:40:00.015,14,261,948,-25,-10,-29,-3,-1,-1,0,20,noise,-15.393106666303638,0.8157317893775045,28.236724567131212,526.4132222872317,-16.029634974313467
2025-02-19 13:40:00.118,28,237,964,-4,-3,-10,-1,-1,1,0,19,noise,-13.81226892537286,1.6156412452744018,56.19452247373637,475.6464937955543,-6.697130881495127
2025-02-19 13:40:00.219,35,241,965,-1,-2,-7,-1,0,1,0,19,noise,-14.022272295437453,2.015330128543568,70.16689367687496,483.14918217505334,-4.601497090981184
2025-02-19 13:40:00.330,37,210,976,8,-4,-18,-2,-3,-1,0,17,noise,-12.142857622180205,2.122504552613364,74.0362206171406,420.2055764756629,-0.9554411440333297
2025-02-19 13:40:00.434,37,247,971,5,-1,-2,-2,-3,0,0,17,noise,-14.27202723780309,2.1149136411803857,73.90382479051354,493.3579654934283,2.5239494165227825
2025-02-19 13:40:00.544,35,237,965,0,-1,-1,-1,-1,0,0,17,noise,-13.798503008633476,2.0172788273728925,70.20088382971448,475.3602705040667,-5.538654162128182
2025-02-19 13:40:00.651,32,237,967,0,-2,-1,-4,-3,-2,0,17,noise,-13.771051741494363,1.8408982227475126,64.12420743897424,474.91991134490297,-3.7533935465028208
2025-02-19 13:40:00.759,41,237,960,-1,-1,-7,-4,-2,0,0,17,noise,-13.867602955614572,2.374322236149221,82.42788112890608,476.47336164757905,-10.01868009145926
2025-02-19 13:40:00.867,40,232,972,-1,-2,-5,-2,-2,0,0,17,noise,-13.424370055032284,2.29220427182951,79.99584064884753,463.97587576331574,0.10107223300485657
2025-02-19 13:40:00.974,33,238,965,-1,-1,-1,-3,-2,0,0,17,noise,-13.85448587028418,1.9016359763420398,66.1837158505806,477.32498098297526,-5.372296842735864
2025-02-19 13:40:01.081,33,240,967,-1,-1,-1,-3,-2,-1,0,16,noise,-13.938612000445726,1.8970170446563484,66.10314457450293,480.7501423600213,-3.022448592252431
2025-02-19 13:40:01.187,30,236,967,0,-1,0,-3,-1,0,0,16,noise,-13.715144751425267,1.7263256653868562,60.12550824540845,472.98733153054644,-4.045549110332217
2025-02-19 13:40:01.290,30,240,964,0,-1,-1,-2,-1,-2,0,17,noise,-13.980290576032676,1.7297216711478047,60.18475277249135,481.4780221799308,-5.936722422721914
2025-02-19 13:40:01.400,35,238,964,0,-1,0,-3,-2,-2,0,17,noise,-13.868303217523387,2.018764525119672,70.22679806511152,477.5422268427584,-6.246666707643158
2025-02-19 13:40:01.500,33,240,966,-1,-1,-1,-2,0,0,0,17,noise,-13.952477768084936,1.898865363136402,66.13538612039781,480.98462633016584,-3.9631209789176864
2025-02-19 13:40:01.613,36,241,967,0,-1,0,-2,-2,0,0,17,noise,-13.99441156040699,2.0688287275395196,72.10002735553033,482.66962757452245,-2.6868459110505682
2025-02-19 13:40:01.719,34,245,967,-1,-1,0,-1,-1,0,0,17,noise,-14.21733820493814,1.9520774567339292,68.06358794266626,490.4582072339187,-1.8085158987729528
2025-02-19 13:40:01.829,31,247,966,-1,-1,0,-3,-1,1,0,17,noise,-14.34285867504867,1.7808002769263032,62.07582428854148,494.6041483635402,-2.3627826687442166
2025-02-19 13:40:01.938,31,243,966,0,-1,0,-2,-1,-1,0,17,noise,-14.1199479803461,1.7825571703633691,62.10647303942194,486.83461124450105,-3.317837292954664
2025-02-19 13:40:02.043,31,246,964,1,-1,-2,-3,0,-2,0,17,noise,-14.315596590816334,1.7847092602938575,62.144015895881765,493.1428358189328,-4.4784297945169556
2025-02-19 13:40:02.149,31,246,965,0,0,-1,-2,-2,0,0,16,noise,-14.301370608888451,1.7829738497519099,62.11374194655663,492.9025973823526,-3.5406767234564995
2025-02-19 13:40:02.256,28,241,967,1,0,-1,-3,-1,-2,0,16,noise,-13.99441156040699,1.6093652897286166,56.08502976230841,482.7318633112974,-2.93656357686541
2025-02-19 13:40:02.367,32,248,961,-1,-1,-1,-1,-2,-2,0,16,noise,-14.470294100065889,1.8467093971292792,64.22557905337362,497.74823766364557,-6.774420946626378
2025-02-19 13:40:02.470,33,251,961,-1,-1,-1,-2,-2,0,0,17,noise,-14.637862020519446,1.9029328292820553,66.20633773035219,503.56941728237575,-6.008804814195628
2025-02-19 13:40:02.580,30,251,963,-1,-1,-1,-3,-3,-1,0,17,noise,-14.608763276591963,1.7266871042998373,60.131813680699,503.102841128515,-4.231219150437823
2025-02-19 13:40:02.686,27,247,965,0,-1,-1,-2,-1,-1,0,17,noise,-14.357107639503907,1.5526480371142866,54.09550384202748,494.8736832955847,-3.41337805764897
2025-02-19 13:40:02.792,21,252,966,2,0,1,-3,-3,-1,0,16,noise,-14.620873988631656,1.2050480655314086,42.03050584337681,504.3660701205217,-1.403268795333247
2025-02-19 13:40:02.899,34,248,961,-1,-1,0,-3,-2,-1,0,17,noise,-14.470294100065889,1.9620411742075685,68.23738618276671,497.7315227448866,-6.70965063643564
2025-02-19 13:40:03.009,37,253,965,-1,-1,-1,-2,-3,-2,0,17,noise,-14.690944278241322,2.1240402428912795,74.06300506667684,506.43081842889836,-1.6432402525174439
2025-02-19 13:40:03.117,33,251,962,-1,-1,-1,-3,-4,0,0,17,noise,-14.623298488440344,1.9010822288089935,66.17405645401561,503.3238839381187,-5.074009356454894
2025-02-19 13:40:03.223,33,250,964,-1,-1,-1,-2,-2,0,0,17,noise,-14.53858034365583,1.8978702527569833,66.11802770008292,500.8941492430525,-3.447839481210167
2025-02-19 13:40:03.325,29,248,965,0,0,-1,-1,0,-1,0,17,noise,-14.41281692744644,1.667180730265987,58.09368704866627,496.8011857954908,-3.117517309067125
2025-02-19 13:40:03.431,28,248,963,4,0,1,-2,-2,0,0,17,noise,-14.441499540433048,1.612856284879919,56.14593503536868,497.2925674561226,-5.019122823572957
2025-02-19 13:40:03.541,29,254,962,1,-1,0,-3,-1,-1,0,17,noise,-14.790459310150453,1.6695094055977096,58.13431287172711,509.17639549719615,-4.4554821586718845
2025-02-19 13:40:03.649,32,257,963,-1,-1,0,-2,-2,-1,0,17,noise,-14.9425260346221,1.8388971663282294,64.08930042170192,514.7171940117935,-2.687384565591856
2025-02-19 13:40:03.756,31,256,966,0,-1,-1,-2,-3,0,0,17,noise,-14.842781261458182,1.7767621649131842,62.00537990015951,512.0444275626076,-0.16764463077697656
2025-02-19 13:40:03.862,28,266,962,0,-1,-2,-2,-1,0,0,17,noise,-15.456509014325524,1.606917222156922,56.04231975137341,532.4020376380474,-1.4539857436150214
2025-02-19 13:40:03.973,36,254,961,-1,-1,0,-3,-1,-1,0,17,noise,-14.805174332502725,2.074191021523788,72.19355587929753,509.36564425948814,-5.166866666803571
2025-02-19 13:40:04.079,30,255,960,-1,-1,-1,-3,-3,0,0,17,noise,-14.875682001638797,1.729959065085435,60.18889419011508,511.6056006159781,-6.044614083682518
2025-02-19 13:40:04.184,27,248,964,0,-1,-1,-2,-3,-2,0,17,noise,-14.427144280549674,1.553770666109113,54.11509021527212,497.0571249402773,-4.1091469452711635
2025-02-19 13:40:04.292,33,259,962,-1,-1,-1,-2,-2,0,0,17,noise,-15.068488159492212,1.897173650591826,66.10587636557702,518.8309690510439,-3.086456475306022
2025-02-19 13:40:04.398,24,250,962,-1,-1,-1,-3,-3,-2,0,16,noise,-14.567521462390948,1.383194741919318,48.13895757592579,501.4474747492269,-5.5698828350252825
2025-02-19 13:40:04.509,27,256,958,-1,-1,-1,-2,-2,-1,0,16,noise,-14.961192817662106,1.5596820915047471,54.218225972284195,514.069105514991,-7.742980794379946
2025-02-19 13:40:04.611,31,256,961,0,0,0,-2,-1,1,0,17,noise,-14.916572750847937,1.7853898715676115,62.15588903896809,513.2873417411558,-4.832560208011046
2025-02-19 13:40:04.722,29,257,965,-1,-1,0,-2,-1,-2,0,17,noise,-14.912938245825586,1.6633795067104709,58.027371202121245,514.2425654808676,-0.9108003464480134
2025-02-19 13:40:04.820,25,261,962,-1,-1,-1,-1,-2,-1,0,17,noise,-15.179497392573332,1.436724374280748,50.0729430034783,522.7615249563135,-2.8068467738449954
2025-02-19 13:40:04.934,28,253,960,-1,-1,0,-3,-2,0,0,16,noise,-14.764125278889233,1.6155232788502978,56.192464389674704,507.73905323527504,-6.598779074561321
2025-02-19 13:40:05.039,27,258,962,-1,-1,0,-4,-2,-1,0,17,noise,-15.012940027617825,1.5528248031744347,54.098587858939425,516.9420617631989,-3.5126488999899266
2025-02-19 13:40:05.148,29,258,961,0,0,-1,-1,-1,0,0,16,noise,-15.027855895075472,1.6694040726384591,58.13247524512116,517.1785728703883,-4.389955536601406
2025-02-19 13:40:05.250,25,260,964,0,-1,-1,-3,-2,-1,0,17,noise,-15.094062825036577,1.4343230551939228,50.03104523278803,520.3228704209955,-1.1971041763063113
2025-02-19 13:40:05.365,30,259,961,-1,-2,-2,-3,-2,-1,0,17,noise,-15.083454033124445,1.7264850189047678,60.12828822651407,519.1075550222381,-4.109499522667306
2025-02-19 13:40:05.467,27,250,969,4,-1,1,-3,-2,0,0,17,noise,-14.466717472865371,1.5454822787724452,53.97048347205906,499.7266988153616,1.0593153916582878
2025-02-19 13:40:05.569,32,255,961,-1,-1,-1,-2,-3,-2,0,17,noise,-14.860887909534178,1.8434199347435136,64.1681968695953,511.3403188045877,-5.051162240034387
2025-02-19 13:40:05.685,27,262,958,0,-1,-3,-2,-2,0,0,16,noise,-15.29559611032103,1.5572242212388974,54.175343911546946,525.7014853639,-6.2214617504434955
2025-02-19 13:40:05.784,33,263,963,0,-1,0,-2,-3,1,0,17,noise,-15.275254277527752,1.8933526796248246,66.03922432331063,526.3126059706271,-1.144637071156012
2025-02-19 13:40:05.896,34,253,959,-1,-1,-1,-3,-2,-1,0,17,noise,-14.778847105548072,1.963371058752597,68.26058342966394,507.93904728544055,-7.349985560226969
2025-02-19 13:40:06.004,28,263,965,-1,-1,-1,-3,-1,-1,0,17,noise,-15.245070337760398,1.6035470684575166,55.98352255639317,525.8452297261216,0.5678833243067629
2025-02-19 13:40:06.111,23,257,958,-2,-1,-1,-2,-3,0,0,17,noise,-15.016999847882593,1.3283617677800523,46.18220959247867,516.0359941420443,-7.589425634546387
2025-02-19 13:40:06.220,35,259,959,-1,-1,-1,-2,-1,-2,0,17,noise,-15.113473059575968,2.017924202074491,70.21214076019993,519.5698416254795,-5.812656829478101
2025-02-19 13:40:06.319,32,260,960,-1,-1,-1,-3,-3,-1,0,17,noise,-15.154068050312599,1.842810874677296,64.15757226568144,521.2802746586617,-4.727167970443247
2025-02-19 13:40:06.433,31,259,960,-1,-1,0,-3,-2,0,0,16,noise,-15.098448972253975,1.7857291155804347,62.16180708902605,519.3518721308951,-5.010800176290445
2025-02-19 13:40:06.542,33,257,958,-1,-1,-1,-2,-1,-1,0,16,noise,-15.016999847882593,1.9055490307039369,66.25197384300296,515.9623417470231,-7.314877018085895
2025-02-19 13:40:06.647,32,263,962,-1,-1,-1,-3,-3,-2,0,17,noise,-15.290390042951168,1.8377929002819648,64.07003726294175,526.5756187548026,-2.1054952171864443
2025-02-19 13:40:06.753,30,261,959,-1,-1,0,-3,-5,-1,0,16,noise,-15.224782077135293,1.7289287309819064,60.170919659051464,523.4870010337477,-5.463731767678496
2025-02-19 13:40:06.864,29,262,961,-1,-1,-1,-3,-2,-1,0,17,noise,-15.250073728208346,1.6676542530824718,58.101948081436916,524.9210481840163,-3.378348491754309
2025-02-19 13:40:06.966,29,259,959,-1,-1,0,-2,-1,-1,0,16,noise,-15.113473059575968,1.6722110427368424,58.18144528664697,519.620494111778,-6.000207927394854
2025-02-19 13:40:07.069,31,261,958,-1,-1,-1,-2,-4,1,0,16,noise,-15.239935650808343,1.7882578721581335,62.20592075282957,523.7337198867264,-6.363615522926693
2025-02-19 13:40:07.179,31,256,958,-1,0,0,-3,-1,-2,0,16,noise,-14.961192817662106,1.7906053790660652,62.24687249719615,514.0386890091037,-7.629156526255201
2025-02-19 13:40:07.290,29,260,960,0,-1,0,-2,-1,-2,0,17,noise,-15.154068050312599,1.6701502594098272,58.14549313097851,521.3044211742902,-4.81632433584025
2025-02-19 13:40:07.397,31,261,965,-1,-1,0,-3,-4,-2,0,16,noise,-15.134475022055296,1.776181060839552,61.9952425953644,521.9599457222616,0.1480934023663849
2025-02-19 13:40:07.503,32,256,962,-1,-1,-1,-3,-1,-2,0,16,noise,-14.90175714221412,1.8411562408891033,64.12870838054351,513.0296670443481,-3.8692956900895297
2025-02-19 13:40:07.610,28,262,963,-1,-1,-1,-1,-2,0,0,16,noise,-15.219872160655196,1.6070679841716726,56.04495001002981,524.420603665279,-1.5459592735254546
2025-02-19 13:40:07.716,30,259,959,-1,-1,-1,-3,-2,0,0,17,noise,-15.113473059575968,1.7298390419125493,60.186800345288916,519.612709647661,-5.9713843710692345
2025-02-19 13:40:07.820,32,261,961,-1,-1,-1,-3,-1,0,0,16,noise,-15.194563031210604,1.8405420019244692,64.11799342093421,522.9623838394947,-3.5434899224306946
2025-02-19 13:40:07.933,35,260,960,-1,-1,-1,-3,-1,0,0,16,noise,-15.154068050312599,2.015438015272445,70.16877549074087,521.2537607883608,-4.62927060317827
2025-02-19 13:40:08.040,29,261,959,-1,-1,-1,-2,-3,-1,0,17,noise,-15.224782077135293,1.671331022961766,58.16609258167393,523.4948332350652,-5.492509856044649
2025-02-19 13:40:08.147,31,255,962,-1,-1,0,-3,-3,-2,0,16,noise,-14.846122553197736,1.784117626212099,62.133694940575154,511.09974870473104,-4.14885589784808
2025-02-19 13:40:08.249,38,259,964,0,-1,-1,-3,-2,0,0,17,noise,-15.038643279459642,2.1801416567082774,76.04146878267748,518.2826424924597,-1.0519975395023948
2025-02-19 13:40:08.359,28,255,961,-1,-1,-1,-2,-4,-1,0,17,noise,-14.860887909534178,1.6131228793452563,56.15058614286735,511.3714095153991,-5.168331546268632
2025-02-19 13:40:08.466,31,256,961,0,-1,-1,-2,-3,1,0,17,noise,-14.916572750847937,1.7853898715676115,62.15588903896809,513.2873417411558,-4.832560208011046
2025-02-19 13:40:08.570,32,259,965,0,-1,-1,-5,-1,1,0,17,noise,-15.023764109185581,1.8343928345978522,64.0107253898094,518.0868086237697,-0.3234375364395419
2025-02-19 13:40:08.683,30,260,961,-1,-1,-1,-2,-3,-2,0,16,noise,-15.139023105726855,1.726033196725714,60.1204060207495,521.0435188464955,-3.8570061980087758
2025-02-19 13:40:08.788,26,257,958,-1,-1,0,-3,-2,0,0,16,noise,-15.016999847882593,1.501551597397864,52.20401950172422,516.0166543055047,-7.517333948146074
2025-02-19 13:40:08.895,34,258,961,-1,-1,0,-3,-3,1,0,16,noise,-15.027855895075472,1.957024985833523,68.14988837609513,517.137388265663,-4.236550865512527
2025-02-19 13:40:09.001,31,258,965,-1,-1,0,-4,-2,-2,0,17,noise,-14.96836550571271,1.7775654532587952,62.01939318300413,516.1614013295182,-0.6036910193216727
2025-02-19 13:40:09.109,32,261,962,-1,-1,0,-3,-2,1,0,16,noise,-15.179497392573332,1.838761220364685,64.0869289388721,522.7090141576756,-2.6133012248427576
2025-02-19 13:40:09.215,27,262,962,-1,-1,0,-2,-2,0,0,17,noise,-15.234958331084341,1.551200204960114,54.070243672961226,524.6816237894757,-2.50275605143338
2025-02-19 13:40:09.325,33,254,960,-1,-1,-1,-3,-3,-2,0,16,noise,-14.81991800743262,1.9033242351033086,66.21316528251607,509.64072671997224,-6.201171855013058
2025-02-19 13:40:09.428,29,255,961,-1,-1,0,-2,-3,0,0,17,noise,-14.860887909534178,1.6707023221534265,58.155124348904195,511.36402444726104,-5.140499975756256
2025-02-19 13:40:09.538,31,262,960,-1,-1,-1,-2,-3,-1,0,16,noise,-15.265218434931503,1.7843201743715231,62.13722835892686,525.1598009689948,-4.2496524054769225
2025-02-19 13:40:09.645,29,256,960,0,-1,-1,-2,-2,-2,0,17,noise,-14.931417178137556,1.6718944140456917,58.17592142647774,513.5529615578725,-5.823605842021834
2025-02-19 13:40:09.751,29,262,958,0,0,-1,-2,-4,-1,0,16,noise,-15.29559611032103,1.6725109051922211,58.18667664457395,525.6865269268405,-6.166766396615458
2025-02-19 13:40:09.849,36,271,967,0,-1,-2,-3,-3,0,0,17,noise,-15.655432046001673,2.053027645983875,71.82442484677586,540.6783092632295,4.716143699103895
2025-02-19 13:40:09.965,37,274,959,5,-1,-6,-2,-3,0,0,16,noise,-15.945395900922856,2.1245489689118284,74.0718779088159,548.5322850544745,-1.862997690660677
2025-02-19 13:40:10.071,30,251,979,0,0,-1,-4,-3,-1,0,16,noise,-14.379986521013645,1.700237250017641,59.670383056286106,499.24220490426046,10.75649959652992
2025-02-19 13:40:10.169,34,289,959,5,0,2,-3,-5,0,0,16,noise,-16.770473530153893,1.9441985909204074,67.9261552740229,577.3723198291946,2.0828556532953826
2025-02-19 13:40:10.282,121,290,940,-8,-3,-6,-3,-2,-2,0,16,noise,-17.14555091886174,7.01231817338622,243.08273074755073,582.5949745189233,-8.411296716509923
2025-02-19 13:40:10.392,89,284,944,-12,2,-24,-4,-4,1,0,14,noise,-16.743780392542963,5.158817443015376,178.91674380959861,570.9253397969214,-9.723664677090937
2025-02-19 13:40:10.501,39,303,973,4,16,-32,-3,-3,0,0,13,noise,-17.29700725464253,2.191614480658526,77.24156163072598,600.1075172848712,18.922064956502936
2025-02-19 13:40:10.608,-77,215,977,5,11,-9,-2,-3,-3,0,12,noise,-12.410774718718574,-4.401434265976543,-153.7439869889565,429.28515847565774,3.248372880383272
2025-02-19 13:40:10.709,-56,267,1015,-48,4,-8,-2,-3,2,0,13,noise,-14.738005534886506,-3.0542459891635088,-109.28140624535325,521.0381333483808,49.274511802971915
2025-02-19 13:40:10.830,-71,131,1000,-55,-16,-28,-2,-1,0,0,15,noise,-7.463248481453108,-4.026894203925064,-141.2247150341158,260.56954464041087,10.919506561749131
2025-02-19 13:40:10.932,-22,51,1001,-42,-20,-15,-4,3,3,0,15,noise,-2.916643653971271,-1.2574147872398418,-43.94426650553801,101.8707996264745,2.53587399802052
2025-02-19 13:40:11.032,9,-52,997,-21,-19,-13,-4,6,3,0,15,noise,2.9856402561164845,0.5164976100337162,18.014461782661613,-104.08355696648933,-1.6020441459587573
2025-02-19 13:40:11.144,78,-58,1003,-32,21,-27,-6,7,4,0,16,noise,3.309529929244852,4.439367450346413,155.40407656097923,-115.55687744277944,7.662964222279697
2025-02-19 13:40:11.256,102,95,1109,45,-84,65,-7,10,5,0,15,noise,-4.896161723380445,5.235911908976601,193.25676382555454,179.9940447394871,116.80636193588248
2025-02-19 13:40:11.361,203,-49,908,-14,-17,-28,-9,8,8,0,13,noise,3.088956636168698,12.58455438860871,420.8801489811726,-101.59176009890373,-66.55751366948141
2025-02-19 13:40:11.468,241,-81,900,-29,15,-6,-10,10,8,0,13,noise,5.142764557884242,14.933190703310284,498.6925591317827,-167.6103621978191,-62.33735775354546
2025-02-19 13:40:11.574,267,-250,889,16,-87,-1,-11,9,11,0,1,noise,15.706771395388381,16.12578643786261,544.7470317804956,-510.0627638394154,-35.78318821296102
2025-02-19 13:40:11.682,476,-148,838,24,-31,5,-14,9,15,0,12,noise,10.015780452109693,29.221009180780495,964.1797088584078,-299.78696830051337,-21.44242862047429
2025-02-19 13:40:11.787,426,58,912,2,45,-1,-15,11,15,0,13,noise,-3.6389099454901284,24.99321576516489,848.5109453791247,115.52496439434093,7.46952538553569
2025-02-19 13:40:11.898,524,-184,925,11,-7,61,-14,9,13,372,11,noise,11.25036108821517,29.056589840795894,1009.6732271947619,-354.5417439004508,67.65699397871197
2025-02-19 13:40:12.009,452,-280,917,-52,-16,3,-13,11,14,491,9,noise,16.979710844586112,25.240351328418413,878.4164226235348,-544.1517662269684,51.90296560667832
2025-02-19 13:40:12.112,457,-176,870,15,2,1,-14,12,17,384,8,noise,11.436524798986614,27.242025789812637,914.7501806348944,-352.28890982875583,-1.4281338125998673
2025-02-19 13:40:12.217,465,-136,840,3,-9,0,-15,14,16,0,11,noise,9.1966558916289,28.654645400069175,944.5290094714981,-276.24934470564244,-26.24595259367402
2025-02-19 13:40:12.328,578,-68,871,5,-1,-42,-15,8,13,0,13,noise,4.464094241861861,33.48829760199164,1129.7666564779365,-132.91372429152193,39.53156091300559
2025-02-19 13:40:12.434,495,-60,866,2,10,40,-15,10,17,0,13,noise,3.963350856950217,29.69293637415807,990.3515767097899,-120.0426153587624,-0.6150816781373578
2025-02-19 13:40:12.540,457,-176,823,-8,0,24,-15,12,16,0,13,noise,12.070982896005955,28.502304222303874,934.1941026164137,-359.77715986977853,-36.3670600728849
2025-02-19 13:40:12.649,527,-238,843,-20,-29,3,-14,12,16,0,15,noise,15.765701399882579,31.032407732797278,1042.5228248714318,-470.8167596193563,18.359124541523897
2025-02-19 13:40:12.749,469,-210,728,13,-19,9,-16,13,20,0,16,noise,16.09081634885217,31.75718119588452,995.3204988502991,-445.66589500759665,-88.97510269300165
2025-02-19 13:40:12.865,580,-215,820,0,-20,5,-15,13,19,0,17,noise,14.691960527234876,34.37955044476489,1144.6724744805058,-424.3182448505323,21.669949872388315
2025-02-19 13:40:12.971,586,-221,785,6,1,-10,-14,12,20,0,17,noise,15.723432563151189,35.69965060269561,1169.5362591516216,-441.07084176195974,3.300403696206331
2025-02-19 13:40:13.081,589,-159,796,16,10,-2,-15,13,20,162,17,noise,11.296089570324092,35.9652192417131,1176.294039360631,-317.5394775184046,2.3055087757854835
2025-02-19 13:40:13.181,490,-158,812,10,3,16,-16,11,17,318,16,noise,11.011095176910171,30.639909982163033,999.64085118618,-322.3331724232989,-32.54769625138408
2025-02-19 13:40:16.205,734,-178,636,-1,-17,-10,-23,2,28,774,76,A,15.635563174897609,48.019721000489135,1477.3750937915975,-358.27352410749904,-8.123378271738147
2025-02-19 13:40:16.300,770,-81,637,-2,-12,-7,-22,1,30,815,102,A,7.24675724636704,50.17412005188737,1537.9943138838944,-161.78901223973435,1.6592494233237858
2025-02-19 13:40:16.408,765,-95,619,-9,4,-3,-22,1,30,826,106,A,8.725294552109778,50.69541167961671,1538.789485282939,-191.09150470833882,-7.112014889070792
2025-02-19 13:40:16.513,825,-100,624,-4,-2,-4,-21,-2,29,827,110,A,9.104600865402178,52.54735892141197,1618.8562526097776,-196.22500031633672,23.555998026059115
2025-02-19 13:40:16.625,776,-107,610,-3,-4,-13,-22,0,30,815,111,A,9.949028033389709,51.40718601730266,1557.59871304009,-214.77198749392994,-4.401050199039787
2025-02-19 13:40:16.731,826,85,600,29,-6,49,-23,0,29,480,117,A,-8.063246165697251,53.73454471173392,1632.28507171431,167.97122408682367,14.320771151832787
2025-02-19 13:40:16.838,798,11,535,1,20,-49,-23,2,28,646,113,A,-1.1778781030265832,56.15546900362552,1628.5518584265697,22.448709827935165,-21.823614358664827
2025-02-19 13:40:16.947,747,-191,644,6,-6,-12,-23,-1,30,687,107,A,16.519506174041627,48.03708354163749,1490.5777511284045,-381.12496715599093,2.950372521161512
2025-02-19 13:40:17.050,717,88,592,6,-32,69,-21,1,30,674,117,A,-8.455027677177453,50.14707475919121,1484.6919139598904,182.22160171334775,-41.854411526157605
2025-02-19 13:40:17.161,531,-108,566,-41,68,-52,-22,3,30,583,88,A,10.802903413105438,42.66168934028816,1208.6681197558555,-245.83080401814016,-156.33550994691961
2025-02-19 13:40:17.264,831,230,542,11,-69,6,-22,0,28,602,113,A,-22.994146137752164,54.68158848236851,1646.9518582506976,455.8350510200487,9.814792813624535
2025-02-19 13:40:17.370,821,-17,567,14,12,12,-22,-1,30,837,109,A,1.7173484021857184,55.35818193249011,1643.7217012095507,-34.03565032955222,-1.189043344476886
2025-02-19 13:40:17.481,624,-159,663,-28,21,11,-22,2,28,651,46,A,13.485927397011169,42.4655490730242,1299.146773846026,-331.03259141268927,-54.34344721140235
2025-02-19 13:40:18.599,766,-68,623,-4,-2,-1,-23,-1,28,665,94,B,6.2291339863794235,50.71181118496251,1539.9707609917762,-136.70758713765113,-6.482746864068417
2025-02-19 13:40:18.697,786,-56,622,0,-3,-2,-23,0,30,678,100,B,5.144592057868092,51.53112402760936,1568.946201750925,-111.78242658785217,2.416618970642162
2025-02-19 13:40:18.804,752,-65,628,1,-4,-11,-24,0,29,632,107,B,5.9092538306421645,49.98426677235179,1517.867906932211,-131.19868876408742,-11.581177597644341
2025-02-19 13:40:18.910,768,-316,622,19,1,-6,-21,0,28,578,107,B,26.932326784416087,47.74732433773294,1508.1867277440163,-620.5559973530067,22.525853311486912
2025-02-19 13:40:19.019,857,-25,617,13,-4,32,-22,2,29,368,118,B,2.320277757534292,54.225587613968536,1668.3249732443471,-48.66758965123533,32.88388740751202
2025-02-19 13:40:19.128,776,-337,636,23,-3,-34,-23,1,30,675,105,B,27.917962896972256,47.15299423991729,1509.1722004074977,-655.4008138367612,35.10113471756631
2025-02-19 13:40:19.231,704,-65,727,11,-16,7,-21,-2,28,781,108,B,5.109146242590122,43.965200536451704,1398.221340384911,-129.09714080258408,10.098132869559663
2025-02-19 13:40:19.340,820,-89,472,25,26,3,-21,1,31,534,113,B,10.678277360329632,59.64022554219708,1682.868726802731,-182.6528252261501,-24.6756573791331
2025-02-19 13:40:19.449,673,-137,661,-2,-7,30,-23,0,30,496,117,B,11.709431725596753,44.91294817151905,1379.031629115358,-280.7241206371532,-32.4426550449507
2025-02-19 13:40:19.558,1157,69,645,-24,68,37,-21,1,29,521,84,B,-6.106093847284264,60.7225232094689,2029.2615833256016,121.01905725969448,158.73489952894283
2025-02-19 13:40:19.664,645,-180,686,14,-27,-19,-20,2,29,611,56,B,14.702443438109622,42.2848611917976,1317.8170631767885,-367.76290135166187,-29.585279595778047
2025-02-19 13:40:20.581,778,-76,603,-2,-1,-4,-21,2,30,733,92,C,7.183481409745688,52.00318763399239,1566.0450045338948,-152.98126008300258,-7.7855240796125145
2025-02-19 13:40:20.675,776,-77,603,-3,-3,-6,-22,2,29,772,95,C,7.27699418746569,51.92585887605093,1563.2134239966974,-155.11267222647643,-8.713524059289398
2025-02-19 13:40:20.779,712,-93,625,7,-21,-15,-23,0,31,831,108,C,8.46351181090411,48.41178594053162,1459.9346466006891,-190.6937108621687,-31.543755794144317
2025-02-19 13:40:20.893,785,-81,629,-6,0,-15,-22,1,32,789,112,C,7.3379275165038695,51.06558766848686,1562.8658482379635,-161.26386459525483,5.716409501045746
2025-02-19 13:40:20.999,809,-63,587,19,10,22,-22,0,29,474,110,C,6.125842654205621,53.87974789804928,1616.7815726311414,-125.90511628647948,0.8840752355006316
2025-02-19 13:40:21.099,826,21,628,40,-26,20,-22,0,31,561,112,C,-1.91522801534072,52.73918862171359,1621.8877729310548,41.234434905026816,22.894041887769504
2025-02-19 13:40:21.213,895,-14,586,-2,14,15,-23,2,29,755,106,C,1.3685808069531267,56.777790085250764,1731.55199530364,-27.08572953547593,38.26874944365022
2025-02-19 13:40:21.320,637,-139,673,-8,11,1,-22,3,27,632,50,C,11.669661522705933,42.828788579201806,1316.8098850811753,-287.3415604808216,-45.22928204023697
2025-02-19 13:40:21.425,787,-76,651,10,8,7,-21,3,28,664,50,C,6.658766512419261,50.21213935288142,1555.4191274639288,-150.20565906894353,15.369946659444054
2025-02-19 13:40:22.347,747,-70,651,-1,-2,-1,-23,2,28,721,77,D,6.137255949261988,48.76512588230476,1499.0138462310583,-140.46983833490506,-4.369496514617026
2025-02-19 13:40:22.440,758,-83,638,1,-4,-4,-21,2,28,762,82,D,7.4122108334089685,49.67602450454936,1520.39761288443,-166.48153280924498,-3.7014208710637604
2025-02-19 13:40:22.547,757,-81,639,-1,0,-3,-21,2,27,761,85,D,7.224315694045337,49.60632818852655,1518.60988626061,-162.49326391956328,-3.8913042543325673
2025-02-19 13:40:22.650,753,-36,630,5,-8,-14,-22,2,29,768,94,D,3.2704879231835657,50.03637855832377,1519.4524110051366,-72.64314315562406,-11.255005223420994
2025-02-19 13:40:22.763,776,-61,596,-4,-2,-15,-24,1,29,694,105,D,5.843816766064256,52.32993901604472,1567.5429688521972,-123.22180554121655,-11.937641025656717
2025-02-19 13:40:22.870,810,180,566,1,-9,30,-21,0,28,575,109,D,-17.64176719263917,53.74926010565299,1616.4369682684173,359.20821517075933,2.489723407501174
2025-02-19 13:40:22.980,848,-5,616,-20,36,-19,-23,2,29,699,96,D,0.4650529324276736,54.003881671873344,1657.0568137669388,-9.770382156644686,28.288918301374565
2025-02-19 13:40:23.087,1037,-69,787,6,-5,-23,-23,0,29,750,103,D,5.010578767889728,52.69871741740474,1832.459915429989,-121.92838395821528,183.30959166499395
2025-02-19 13:40:23.194,735,-6,668,10,-7,-3,-20,-1,29,793,100,D,0.5146189111171793,47.732921711079456,1475.0176806373406,-12.040960658264005,-4.560286620059173
2025-02-19 13:40:23.301,783,-12,598,-11,-9,5,-22,0,28,825,101,D,1.1495937942748424,52.624405569050225,1577.673264774334,-24.17890060956833,-8.915213710155399
2025-02-19 13:40:23.407,675,-84,690,15,-4,43,-22,0,30,790,107,D,6.940983428742579,44.15974210300784,1371.6612058580804,-170.6956167290055,-22.142565988259662
2025-02-19 13:40:23.517,922,-97,533,-2,22,12,-22,1,28,342,108,D,10.314305900661774,59.56208904758889,1784.178652586355,-187.70643091201342,34.58218890615319
2025-02-19 13:40:23.624,662,-100,680,-26,32,4,-22,4,28,532,60,D,8.36588612403259,43.92523654115865,1355.7191354758925,-204.79141019273303,-32.581589310584604
2025-02-19 13:40:24.639,778,-45,641,0,4,-2,-22,1,30,661,83,E,4.015736165479357,50.44549898915779,1549.019182736152,-89.59622522252808,5.751547385766912
2025-02-19 13:40:24.735,760,-46,641,3,-1,-6,-20,0,26,680,83,E,4.104673025230004,49.782472366755634,1523.5985377676288,-92.21780623330383,-3.035082511907831
2025-02-19 13:40:24.846,734,-50,644,2,-4,-14,-21,0,29,689,89,E,4.439523998894662,48.65142752097933,1484.7043474055104,-101.13789832462604,-14.656130421183434
2025-02-19 13:40:24.949,769,-71,605,-4,-1,-12,-23,-1,29,643,103,E,6.693351976664929,51.61602056934309,1552.8671068642298,-143.3726457572956,-11.696488495265385
2025-02-19 13:40:25.062,826,154,547,-5,-9,31,-22,0,28,503,108,E,-15.723803466436344,55.473115768996124,1649.8603297108234,307.601078420662,1.4169487266096894
2025-02-19 13:40:25.168,910,22,622,-27,35,-36,-22,2,30,641,100,E,-2.0256943781226804,55.630062058178765,1735.409812649551,41.954962503615526,57.818787397779374
2025-02-19 13:40:25.279,853,19,784,-15,-8,-28,-21,-1,30,483,102,E,-1.388273932334538,47.40522361255637,1589.1587943268394,35.39744090528716,107.38980685551905
2025-02-19 13:40:25.381,707,52,679,7,-24,14,-24,-1,29,792,103,E,-4.379346493412206,46.07363222155909,1427.2319287129635,104.97321116417837,-12.707891932252096
2025-02-19 13:40:25.487,820,12,679,4,47,26,-23,-1,29,691,101,E,-1.0124856926097965,50.369190504517405,1590.170371218081,23.270785920264604,41.26136334502792
2025-02-19 13:40:25.599,894,-45,600,52,-4,-18,-22,0,28,442,103,E,4.289153328819018,56.05842588887618,1723.6073639207593,-86.75875992889729,43.21653428136938
2025-02-19 13:40:25.705,732,-50,708,-7,-5,27,-23,0,30,822,103,E,4.039605322679908,45.88361638506788,1449.9272735176223,-99.03874819109441,13.611325614103066
2025-02-19 13:40:25.812,917,0,668,18,3,-12,-20,0,28,476,104,E,0.0,53.92807025331523,1725.2784450222628,0.0,79.19956240472027
2025-02-19 13:40:25.912,720,9,633,-1,-20,14,-21,2,29,782,105,E,-0.8145770497597191,48.6762709334688,1470.9907291679378,18.38738411459923,-27.246016060145394
2025-02-19 13:40:26.025,631,-79,605,-21,39,4,-22,2,28,680,70,E,7.439505170032264,45.963072236177915,1349.8919359592237,-169.00390323419754,-84.27039818594312
2025-02-19 13:40:26.131,842,-4,625,5,-10,-11,-21,1,28,727,81,E,0.3666879824251568,53.413667817769415,1644.959680850326,-7.8145353009516665,28.97885922630212
2025-02-19 13:40:27.149,743,-47,649,-2,0,-2,-23,0,27,614,75,F,4.142078167109475,48.78898762972176,1495.2882934882505,-94.5875501937386,-8.113193100773174
2025-02-19 13:40:27.249,750,-38,641,-2,-1,-4,-23,2,29,648,78,F,3.3926590061458692,49.43094720455782,1509.622699639908,-76.48755011508868,-8.224200625574895
2025-02-19 13:40:27.351,761,-22,646,1,-1,-8,-21,0,26,665,84,F,1.9504956333863428,49.656253648262044,1523.1742718841956,-44.03394741320933,-0.9968194969649176
2025-02-19 13:40:27.462,844,61,597,-4,-9,-17,-22,-1,29,660,103,F,-5.8340957042514,54.586076302182455,1658.9869980111416,119.90308871881473,20.522230079796827
2025-02-19 13:40:27.568,780,155,590,2,-13,41,-22,2,30,520,107,F,-14.719659717493242,51.97183530730044,1567.7080197815937,311.53172187967573,-5.830425219410927
2025-02-19 13:40:27.679,887,16,590,-11,29,-33,-22,1,27,643,103,F,-1.5534031241682096,56.35988754799832,1719.533610319379,31.01751720981969,36.22905288789889
2025-02-19 13:40:27.786,1237,-31,702,-5,-5,-30,-21,0,28,535,102,F,2.528512771013634,60.40103876910412,2106.503884499235,-52.79031561800832,208.55478826316653
2025-02-19 13:40:27.892,824,119,654,21,-34,0,-24,-2,30,724,102,F,-10.312555803960773,51.10614445296455,1602.3104873961793,231.40163592250644,36.26327820740153
2025-02-19 13:40:27.999,691,-42,607,21,16,35,-23,-1,28,824,104,F,3.9581439445430235,48.63487606725512,1441.5134726304268,-87.61731671559758,-52.2788391992317
2025-02-19 13:40:28.109,1344,-29,570,21,7,-15,-21,0,28,244,103,F,2.9125371404453073,66.99121961545045,2264.444964419102,-48.86079164297169,179.63271598297024
2025-02-19 13:40:28.211,694,46,614,3,-21,12,-22,0,30,797,103,F,-4.284513618770607,48.420380721374215,1442.0342088365505,95.58151816495871,-47.805481593144236
2025-02-19 13:40:28.323,698,-36,540,-34,46,12,-22,1,28,636,73,F,3.8140748342903548,52.21156524640046,1488.278712564675,-76.75936053342164,-71.39040800132454
2025-02-19 13:40:28.430,793,30,642,17,-22,-11,-22,-1,27,711,84,F,-2.675426656029148,50.976364773955915,1569.886292805627,59.3904019976908,13.045397249416851
2025-02-19 13:40:29.245,791,-37,647,-2,-3,-2,-20,0,27,721,88,G,3.273009855463863,50.67263624313369,1564.5376266009798,-73.18317595984357,14.283382540033017
2025-02-19 13:40:29.342,765,-13,626,-2,-4,-1,-24,1,28,738,90,G,1.1896774563543087,50.70046085303486,1538.8453042389747,-26.150312359616564,-7.238118239997675
2025-02-19 13:40:29.449,773,-30,619,0,-5,-1,-22,-1,28,770,95,G,2.7746841173153736,51.28028714204069,1553.2152437418154,-60.28002239618948,-5.777795441376156
2025-02-19 13:40:29.559,742,-22,639,6,-9,-8,-21,-2,29,818,104,G,1.9718457890602985,49.248648364359106,1499.5495852493916,-44.46103891575016,-13.391084871106727
2025-02-19 13:40:29.660,737,-104,618,9,6,-21,-21,0,29,732,105,G,9.552504367833961,49.624646023454034,1498.8170286077584,-211.5019958958031,-20.809937150060705
2025-02-19 13:40:29.769,897,111,529,3,-18,45,-22,-1,27,564,107,G,-11.850442661150879,58.9273991188917,1753.51399542163,216.99002618929867,23.87636167442338
2025-02-19 13:40:29.879,723,-222,653,-6,2,-21,-21,0,30,800,106,G,18.77646019972704,46.35011154714623,1446.57112301304,-444.17536557246876,-0.5158275622616202
2025-02-19 13:40:29.986,825,111,554,1,-4,26,-23,2,30,673,109,G,-11.329819935739092,55.59426367288716,1650.056930892415,222.00765979279765,-0.03822995684606667
2025-02-19 13:40:30.101,887,-224,769,-10,-6,-20,-22,0,29,624,108,G,16.240175221683224,47.91799750054636,1629.1863958548838,-411.4292589306584,125.54866018894495
2025-02-19 13:40:30.203,766,-14,641,13,-3,13,-22,0,30,831,107,G,1.2511909561902697,50.07018995107686,1532.831312334621,-28.015193698021793,-0.6956543165692892
2025-02-19 13:40:30.311,657,-124,654,-14,24,13,-23,2,30,621,64,G,10.735980988351308,44.62522946449322,1359.4665164848432,-256.5811994583265,-45.258906820528864
2025-02-19 13:40:31.329,770,-53,628,-4,-2,-3,-22,1,28,721,82,H,4.824040434476162,50.70023173400758,1543.842771442684,-106.26450244995095,-3.1341045013059556
2025-02-19 13:40:31.422,749,-63,625,-1,-3,-5,-22,2,28,752,83,H,5.755972329272753,50.0142981202725,1515.2048264470282,-127.44713493479674,-14.356497369015187
2025-02-19 13:40:31.529,755,-35,628,-3,-4,-3,-23,0,30,757,90,H,3.1899360866900413,50.20303369159746,1523.3174149853257,-70.61736360859126,-11.077267034151532
2025-02-19 13:40:31.636,772,-25,625,-6,5,-10,-22,0,27,711,94,H,2.2906100426385296,50.98447070735797,1548.975363622505,-50.16111928829356,-4.027982207338937
2025-02-19 13:40:31.745,838,-54,569,-8,-6,-15,-24,0,29,628,104,H,5.421323727974559,55.704115383476314,1664.1387687455685,-107.23567244899846,8.05374771333129
2025-02-19 13:40:31.857,755,222,593,-9,-22,58,-22,-1,30,553,110,H,-20.524273071538975,50.014588524224685,1521.2080834404546,447.2956218858026,-8.80317017243658
2025-02-19 13:40:31.960,739,-91,616,-23,35,-28,-21,0,28,557,98,H,8.403371090560825,49.88233391114884,1503.722761010602,-185.16748477938398,-21.441435429676403
2025-02-19 13:40:32.070,774,109,528,18,-39,24,-21,1,28,743,106,H,-11.66424889290798,55.14066706061038,1594.5577635770396,224.55658427635308,-31.760334843251712
2025-02-19 13:40:32.178,518,-122,533,-34,30,-33,-23,0,30,838,82,H,12.892513386130428,43.45150446013989,1205.7403673654755,-283.9774610397452,-174.6556289687228
2025-02-19 13:40:32.279,768,8,631,17,-8,72,-23,0,30,694,107,H,-0.726373501367963,50.590717630617405,1540.6307319943417,16.048236791607724,-3.8046769380592877
2025-02-19 13:40:32.390,1175,43,582,-13,67,12,-22,3,30,758,94,H,-4.225515853712409,63.58782413684994,2070.617251081556,75.77578025234631,138.38362542173138
2025-02-19 13:40:32.499,552,-185,701,-5,-15,-19,-21,2,28,705,50,H,14.783787331064868,37.28486866823144,1157.778301303861,-388.02352489350415,-68.29454567754817
2025-02-19 13:40:33.311,763,-52,630,2,0,-1,-23,2,30,768,83,I,4.718479498676494,50.35839026638408,1533.0501252122826,-104.48048035522766,-5.821204303719583
2025-02-19 13:40:33.409,760,-45,639,3,4,-4,-21,1,28,758,85,I,4.028263666485141,49.8734063453837,1524.6223505918479,-90.2736918113594,-3.886423721303572
2025-02-19 13:40:33.520,742,-67,629,8,-3,-8,-22,-1,27,564,89,I,6.080121907130268,49.552260599523464,1502.9980234525553,-135.71545494787222,-16.10479346584532
2025-02-19 13:40:33.627,980,0,583,73,-6,-38,-22,1,29,602,100,I,0.0,59.25167251557382,1839.4213362424603,0.0,71.73200099045499
2025-02-19 13:40:33.729,774,33,643,-10,-1,8,-24,-1,32,851,103,I,-2.937952242884716,50.244869778565146,1542.784574099419,65.77763688020778,4.332711697769582
2025-02-19 13:40:33.843,1384,-231,654,22,-2,-36,-21,-2,29,754,102,I,19.453781416087352,63.38207747108514,2278.0141308563057,-380.2176764651782,231.5395653323526
2025-02-19 13:40:33.944,778,57,581,5,-6,55,-22,1,30,581,110,I,-5.603169780391926,53.116467128943945,1577.8571896031162,115.60136222027974,-16.322657017237248
2025-02-19 13:40:34.059,552,-247,530,28,-45,-31,-22,-1,28,325,105,I,24.987295495655303,43.35073881376079,1238.4625699050457,-554.1671282002649,-129.10355443781543
2025-02-19 13:40:34.165,715,-14,614,9,-28,15,-22,-1,29,636,108,I,1.3061920939187586,49.33859318213955,1473.5734033808562,-28.85318552074404,-37.41827926691724
2025-02-19 13:40:34.269,786,-20,502,-35,70,31,-22,2,30,616,68,I,2.281493769125469,57.413956473575944,1628.5836092571644,-41.439786495093244,-36.138641026840446
2025-02-19 13:40:35.089,755,-66,628,-4,-2,-4,-22,1,30,703,74,J,5.999507320394364,50.09193278614682,1522.0748284603055,-133.05554791838432,-10.043698374929477
2025-02-19 13:40:35.179,769,-56,632,3,-1,-2,-23,0,27,767,78,J,5.063616853030085,50.475100651672726,1540.348086452942,-112.17099199137158,-1.9297667597651298
2025-02-19 13:40:35.289,745,-57,643,6,1,-4,-22,1,28,780,80,J,5.065855144282681,49.09199320970539,1500.761965128679,-114.82339867427476,-9.28851486945041
2025-02-19 13:40:35.399,689,-42,626,-1,-7,-30,-22,-2,30,547,89,J,3.8383732974278377,47.67882602856309,1428.3823289905108,-87.07120147692521,-45.77552677512324
2025-02-19 13:40:35.510,738,125,648,-1,-53,16,-23,-1,28,830,101,J,-10.91831808840081,48.195769672155976,1483.426785459587,251.25792436646122,-6.521079915734845
2025-02-19 13:40:35.610,811,74,645,-7,40,5,-23,0,29,809,100,J,-6.544853465994758,51.32162623564979,1591.666348965599,145.23219460351953,24.124790280133766
2025-02-19 13:40:35.724,828,-53,659,-20,-25,44,-22,-1,29,719,104,J,4.598109815040137,51.39390989642883,1609.4541543699775,-103.02061616136331,37.045546220029905
2025-02-19 13:40:35.830,696,-164,531,16,39,-12,-23,3,29,189,114,J,17.16336742188585,51.39298445307027,1477.4440760021168,-348.13337423038394,-65.1879372947185
2025-02-19 13:40:35.931,562,-82,679,-3,29,24,-22,2,29,513,58,J,6.886025546199475,39.41053866848824,1196.8726347999764,-174.6326620170784,-88.04362816580738
2025-02-19 13:40:36.043,839,-21,625,-1,-20,-18,-22,2,26,649,71,J,1.9244142139771439,53.300817700785075,1640.7841732118159,-41.06849539624329,27.723351302282936
2025-02-19 13:40:36.859,759,-36,629,3,2,-10,-24,2,30,586,88,K,3.2756761134635024,50.30467354983943,1528.4516560323311,-72.49573072090108,-8.661517317966059
2025-02-19 13:40:36.961,731,-17,633,4,-5,-14,-22,-1,30,539,95,K,1.5383794279724523,49.099275764159216,1486.8451929869593,-34.57779518574325,-21.514373680910126
2025-02-19 13:40:37.071,817,-187,726,-10,-10,24,-23,0,30,506,104,K,14.444035724492231,47.459845078775594,1553.8036781252295,-355.6441711253585,71.26380621919623
2025-02-19 13:40:37.174,797,24,571,24,3,23,-22,1,30,291,112,K,-2.4068122475287996,54.3568580794336,1609.6622102956803,48.47163493989501,-11.220981278335557
2025-02-19 13:40:37.284,489,-231,645,-1,-33,-39,-21,-1,29,763,82,K,19.70445359967344,35.51720288566128,1069.9473652710724,-505.4352584409361,-121.28026707534104
2025-02-19 13:40:37.391,686,-149,686,15,15,18,-21,-1,31,700,106,K,12.254370814580628,44.33976258221253,1384.9117993596342,-300.8044578784046,-12.911799359634415
2025-02-19 13:40:37.493,1014,-74,647,-10,-1,30,-22,1,29,343,107,K,6.524796806743331,57.29033147914013,1855.4196057486247,-135.40537556745386,110.11786497104526
2025-02-19 13:40:37.603,800,-84,593,14,2,16,-23,2,28,543,113,K,8.062456837164856,53.17964437014617,1600.518503651053,-168.0544428833605,-0.3843408313427972
2025-02-19 13:40:37.710,593,-197,695,-8,18,0,-22,4,29,511,56,K,15.825553220655795,39.38245955875498,1227.4939200022704,-407.7846580783259,-48.63115413419541
2025-02-19 13:40:38.529,778,-41,622,-1,-2,-2,-21,1,30,685,94,L,3.7712757325942476,51.2975649632103,1558.4038341899131,-82.1266802079517,-1.9218314474624094
2025-02-19 13:40:38.624,770,-17,621,1,2,-6,-23,0,29,709,101,L,1.5680918651782882,51.10356183973714,1548.2821848674166,-34.182853432137776,-6.679528315150492
2025-02-19 13:40:38.734,801,-18,660,-4,-3,-13,-21,-1,30,671,103,L,1.562224916842398,50.50204589306112,1572.647295703407,-35.34038866749229,24.185748858615966
2025-02-19 13:40:38.841,721,-79,661,25,-4,42,-22,-1,29,469,105,L,6.815427857130318,47.283502129914226,1455.7192939313995,-159.50322360690788,-12.577605116026575
2025-02-19 13:40:38.943,779,-12,599,13,-25,12,-23,0,29,572,108,L,1.1476751197147808,52.43651807503746,1571.6783649192666,-24.210706519937354,-10.517767120206145
2025-02-19 13:40:39.053,990,39,651,1,32,26,-21,1,29,756,101,L,-3.4283685588549666,56.624917910907456,1825.0871881523735,71.89737407872985,101.86690960889382
2025-02-19 13:40:39.161,662,-139,665,-7,-7,-15,-21,2,28,557,58,L,11.806130630189536,44.25801824116186,1359.8906956750725,-285.5359617807177,-36.05334233221026
2025-02-19 13:40:40.179,752,-37,636,5,-7,-8,-23,2,29,643,89,M,3.3294922422909803,49.729574070495914,1515.0020782674928,-74.5413256594378,-9.304949173039176
2025-02-19 13:40:40.269,776,-2,627,-2,2,-5,-23,0,29,637,100,M,0.18276103728975313,51.06200366558192,1553.8265367308768,-4.004707568894012,-1.475822848272628
2025-02-19 13:40:40.385,783,-28,605,-7,-7,-15,-23,-1,28,518,103,M,2.6498146715172917,52.278181874232686,1573.9906072524436,-56.28574329893796,-6.174096280623758
2025-02-19 13:40:40.492,780,189,577,-5,-16,47,-23,0,30,308,107,M,-18.13653600292713,52.10219031715526,1569.107567303859,380.206833615935,-6.737264531187748
2025-02-19 13:40:40.601,773,-85,604,-14,16,-55,-21,-1,29,638,102,M,8.010542588990829,51.72406417137786,1558.0366078958782,-171.32355972981844,-9.405059727180287
2025-02-19 13:40:40.708,792,-55,637,-8,-24,27,-23,-3,28,722,101,M,4.934806648324498,51.08657023350098,1570.0959366000156,-109.03444004166775,11.182939881048014
2025-02-19 13:40:40.811,845,29,586,12,-16,9,-22,2,31,722,108,M,-2.8331453191244726,55.22621349322263,1666.4102313561116,57.19041030689614,16.359295177891795
2025-02-19 13:40:40.924,781,-129,623,17,-4,-35,-22,-2,29,835,105,M,11.6984922228935,50.83317652905877,1556.3103288059585,-257.06022076308403,4.538623756578659
2025-02-19 13:40:41.024,818,104,555,21,6,29,-21,1,29,670,110,M,-10.61342205386542,55.38293401037263,1640.9671953859036,208.63152606373342,-3.370163128577474
2025-02-19 13:40:41.133,588,-155,708,-26,37,9,-22,3,29,740,47,M,12.348740751890226,39.052206611422655,1218.0282474354044,-321.0788747491287,-50.60544078956866
2025-02-19 13:40:41.849,765,-49,626,1,0,-3,-21,2,28,651,75,N,4.475687545711374,50.620724994059515,1537.9631172698732,-98.5100558774167,-6.516224066588961
2025-02-19 13:40:41.946,763,-43,630,2,0,-2,-22,2,27,642,78,N,3.9046084882912284,50.38853274730076,1533.3856524685862,-86.41622943138819,-6.098245157548035
2025-02-19 13:40:42.057,776,-38,621,3,-2,-1,-22,0,28,597,84,N,3.5016557393562873,51.27894536893859,1556.2005950840253,-76.20569924380538,-3.3615586948194505
2025-02-19 13:40:42.162,729,-23,643,4,-2,-8,-22,0,28,547,87,N,2.048586820248758,48.56856096874584,1478.7480852424321,-46.65460351244984,-18.30043732631509
2025-02-19 13:40:42.273,820,-45,566,-10,-2,-19,-23,-3,26,389,103,N,4.545756202015598,55.300418814560366,1642.14820226734,-90.11788914881743,-1.4827835162370775
2025-02-19 13:40:42.379,815,188,573,-6,-17,50,-22,-1,31,142,108,N,-18.164545997972418,53.500690986470715,1618.8640341150249,373.43121277745365,7.829335524037674
2025-02-19 13:40:42.490,701,-79,669,-12,4,-49,-22,-1,28,462,102,N,6.7346810432621576,46.139878180625765,1422.0335486373315,-160.25770376939965,-19.119035718080795
2025-02-19 13:40:42.596,731,-102,655,-12,-37,70,-23,-3,28,645,104,N,8.851304072760685,47.797243481532895,1471.772278734814,-205.3635737769508,-8.756282587282158
2025-02-19 13:40:42.699,796,22,524,38,5,-74,-21,0,30,633,110,N,-2.404136053753694,56.620255675626474,1631.0424215715236,45.079061902730544,-25.701292592309414
2025-02-19 13:40:42.810,994,80,604,-16,43,30,-24,-1,28,784,91,N,-7.544929038756831,58.4936729304835,1846.582460582072,148.61830668668586,85.9317845155216
2025-02-19 13:40:42.909,646,-68,647,5,-20,-2,-21,3,28,631,59,N,5.9997862649981775,44.798333037461425,1350.613565425148,-142.16984899212082,-58.70429849856146
2025-02-19 13:40:43.729,791,-31,604,7,-5,-2,-22,-1,29,657,95,O,2.9380993833963127,52.59863588220998,1585.4001596956246,-62.13325531044801,-2.596329274535151
2025-02-19 13:40:43.830,803,-18,594,-1,-1,-1,-22,1,30,718,103,O,1.735704588928389,53.49613084811939,1606.816690734927,-36.018306890695754,-0.6041273929598674
2025-02-19 13:40:43.940,789,-27,603,1,-2,-2,-23,-1,30,748,106,O,2.5637702114650045,52.583132999188926,1583.2357839612703,-54.179171314263996,-4.001492685229209
2025-02-19 13:40:44.043,771,-17,616,-1,-4,-9,-22,-2,30,740,108,O,1.58081345122565,51.365824002100084,1552.1481994081848,-34.223760557638315,-8.108029617953207
2025-02-19 13:40:44.153,763,-118,592,47,26,1,-23,-1,29,455,105,O,11.272703252805416,51.650802708859565,1547.2439051084712,-239.28542700235857,-16.482820215222546
2025-02-19 13:40:44.259,750,80,666,-13,-23,6,-23,1,30,732,109,O,-6.849557992766558,48.19107705968851,1495.3721884172655,159.5063667645083,4.1094966854683435
2025-02-19 13:40:44.362,838,64,538,16,28,-9,-21,-1,29,805,103,O,-6.7839740700429445,57.11606275450841,1677.7721093826938,128.13534009605297,-1.137702682445365
2025-02-19 13:40:44.475,490,-176,751,-23,13,25,-24,2,28,657,44,O,13.1894807070888,32.42583272137305,1026.207419295135,-368.5969506039668,-70.81994263397178
2025-02-19 13:40:44.583,854,21,594,9,-19,-11,-21,1,28,690,68,O,-2.0247650815610374,55.16266641046809,1674.7771612703389,41.183044949270624,23.108157149202384
2025-02-19 13:40:45.299,765,-29,638,3,-2,-3,-22,0,28,607,82,P,2.6025622024998065,50.14324889373627,1532.6491222262612,-58.10042424125697,-2.2093333076531962
2025-02-19 13:40:45.394,788,-14,614,3,-6,-7,-23,0,29,581,98,P,1.3061920939187586,52.067493347932405,1576.735444311002,-28.01306626948481,-0.5730492474051516
2025-02-19 13:40:45.504,805,-36,634,1,2,-12,-22,0,30,560,103,P,3.249898298874252,51.7319885887956,1590.1222746799951,-71.1110582465588,15.655251991159162
2025-02-19 13:40:45.611,770,-15,616,0,0,-6,-22,-1,27,507,103,P,1.394913773151975,51.3319076472068,1550.7784798741877,-30.2099703871595,-8.622783899350111
2025-02-19 13:40:45.709,781,158,584,-3,-12,46,-22,0,30,427,108,P,-15.138832850375694,52.23711148586983,1571.5518372951642,317.93238193679383,-7.142475006883274
2025-02-19 13:40:45.823,724,-22,637,-15,33,-18,-22,1,28,628,94,P,1.9780319173138365,48.64063815453921,1474.579929315738,-44.807677410146724,-23.385932284703017
2025-02-19 13:40:45.933,873,-52,573,12,-12,-23,-22,-3,27,773,98,P,5.185413049506611,56.61293644058976,1707.9721314409871,-101.7348806814792,24.95987249062341
2025-02-19 13:40:46.037,790,89,608,9,9,31,-23,0,30,722,104,P,-8.327900577048611,52.123434297266165,1579.3352649410717,177.92511212627264,0.5115935643398188
2025-02-19 13:40:46.141,762,6,583,-43,50,28,-21,2,28,628,64,P,-0.5896441520813456,52.579226974516324,1556.1943595465166,12.253498894067057,-24.631642540182497
2025-02-19 13:40:46.257,715,-70,664,22,-38,-18,-22,1,27,669,57,P,6.017989303221021,46.960109598948655,1445.8787043004522,-141.55455846298133,-14.746097420279966
2025-02-19 13:40:47.074,771,-35,630,-2,-2,-2,-21,0,26,670,77,Q,3.179830119864234,50.703770101019636,1544.881884940754,-70.1308248676088,-2.354847616958523
2025-02-19 13:40:47.168,783,-41,616,-1,-3,-2,-23,1,29,695,82,Q,3.8079013853849175,51.74568994453324,1568.2703575277071,-82.1188820672235,-1.7861305709676571
2025-02-19 13:40:47.274,763,-37,625,2,-6,-5,-21,1,30,734,90,Q,3.387955983941897,50.62875482271082,1536.0520260444023,-74.48745080425016,-8.233966288009583
2025-02-19 13:40:47.381,811,-3,597,0,0,-4,-22,-1,30,748,106,Q,0.28791606655709323,53.64182082456021,1616.32672592882,-5.979013782720666,4.176257238587482
2025-02-19 13:40:47.490,792,-26,612,0,4,-17,-23,0,30,712,106,Q,2.432671582497174,52.2807626245275,1583.0181647808467,-51.96776803573488,0.7586908511638057
2025-02-19 13:40:47.599,980,176,494,19,-14,51,-23,1,29,586,104,Q,-19.609727776729134,61.847952402945964,1861.6986340086646,334.3458771280867,49.55191306093849
2025-02-19 13:40:47.707,718,-149,689,-1,-2,-54,-22,-2,28,843,107,Q,12.202615842969552,45.526386624974855,1431.5731656914063,-297.0813393983559,4.248034594179671
2025-02-19 13:40:47.809,634,13,606,-21,31,41,-21,-1,30,744,73,Q,-1.228928889969874,46.286972239353325,1356.810036232759,27.821025979536074,-84.88782643068146
2025-02-19 13:40:47.921,867,83,494,-10,-5,-11,-23,0,30,676,106,Q,-9.537538153676337,59.982087767521804,1732.8690477495302,165.8917312147762,0.6443949385607652
2025-02-19 13:40:48.022,762,56,633,-1,-26,39,-21,0,29,750,110,Q,-5.055658948031721,50.173478425978686,1529.987141691644,112.43999991434654,-4.973570460381438
2025-02-19 13:40:48.131,663,-141,597,-32,66,0,-21,3,29,650,61,Q,13.28865413476202,47.224198444904445,1397.0167560199543,-297.10311100876856,-63.94721469670094
2025-02-19 13:40:48.240,827,-36,623,18,-22,-18,-21,2,29,597,69,Q,3.3071538647516157,52.962455141683606,1625.2409804231984,-70.74809588299291,21.664896247094816
2025-02-19 13:40:49.159,754,-43,638,0,-1,-4,-24,1,28,625,77,R,3.855796501376883,49.69960589836288,1516.663880817484,-86.49409399887506,-7.330976076332263
2025-02-19 13:40:49.258,898,77,579,4,-3,-3,-22,1,29,639,105,R,-7.575196900445839,56.9583026384088,1736.273981426959,148.8787266925121,38.50931487059108
2025-02-19 13:40:49.363,705,-27,620,3,3,-20,-21,-1,29,667,96,R,2.4935632656275954,48.64363037398982,1455.614436903316,-55.74693588140359,-40.11482394334155
2025-02-19 13:40:49.473,771,-52,588,-16,-2,-16,-24,-3,26,499,102,R,5.053826050064366,52.561523694614,1565.0065653540337,-105.551674965512,-17.545863071558642
2025-02-19 13:40:49.574,829,214,527,7,0,28,-21,0,30,508,110,R,-22.100699115552384,55.54524471995473,1653.5732052571593,426.8572568456358,2.8141385156538945
2025-02-19 13:40:49.690,832,-134,579,10,-6,-41,-24,-1,30,781,99,R,13.030747307693078,54.46149776698785,1645.7251075637168,-265.05668799704097,12.717743654576793
2025-02-19 13:40:49.793,708,102,643,1,6,37,-23,-1,28,752,103,R,-9.013803803017321,47.39997528264878,1444.0967951159403,208.04784336416088,-25.517287089759407
2025-02-19 13:40:49.905,771,-30,623,-39,-58,66,-23,-1,28,699,107,R,2.7568967041552193,51.0279095737388,1548.4524199886268,-60.2510669256275,-5.213823155531145
2025-02-19 13:40:50.006,974,85,605,-11,69,0,-24,3,31,726,92,R,-7.997473471803832,57.90199053156591,1821.1403823641601,158.92908881001398,78.79883846990072
2025-02-19 13:40:50.117,712,-50,639,11,-16,-14,-23,2,27,578,63,R,4.4741215582578695,48.00597720463522,1455.2146264102623,-102.19203837150718,-28.01425038786192
2025-02-19 13:40:50.219,754,-60,630,-5,1,0,-21,1,29,592,68,R,5.440332031005506,49.992439270658046,1519.959614440254,-120.9516934567841,-9.992781296233034
2025-02-19 13:40:51.140,774,-43,624,-3,-2,-4,-22,-1,29,742,80,S,3.942034992679884,51.05785606687371,1551.781039565817,-86.21005775365649,-3.0482799600382577
2025-02-19 13:40:51.239,788,-33,616,-1,-4,-3,-22,1,31,772,87,S,3.0664855011258934,51.94449717360736,1575.41398834737,-65.97545890287208,0.4581004797212245
2025-02-19 13:40:51.345,774,-47,611,-1,-6,-3,-21,-1,28,791,92,S,4.398705354995532,51.63001070819141,1558.0186981127704,-94.60837055723542,-7.9088172440602875
2025-02-19 13:40:51.452,807,3,571,-3,-8,-5,-23,-1,29,800,107,S,-0.301025844096372,54.71797300073619,1623.3188169483356,6.034642442187121,-6.593611496281937
2025-02-19 13:40:51.558,719,-83,631,5,9,-14,-21,0,31,733,108,S,7.493508778192492,48.48579212734907,1467.7913851154253,-169.43906114684324,-26.145151610338644
2025-02-19 13:40:51.669,826,55,604,21,-22,52,-21,-2,28,757,105,S,-5.202981793103891,53.71164157303204,1632.0485530870528,108.67151382540908,14.589193626416659
2025-02-19 13:40:51.775,687,-92,605,6,13,21,-21,2,28,640,111,S,8.646505149339658,48.30649146658094,1433.713546406092,-191.99657390008798,-52.58616532123108
2025-02-19 13:40:51.881,782,-39,554,-21,58,32,-21,2,29,602,72,S,4.02681420458373,54.61789096441723,1597.308640144658,-79.66117259033462,-23.597169616548058
2025-02-19 13:40:51.989,671,-134,660,12,-28,-14,-21,2,27,639,55,S,11.476780515827162,44.89492334287372,1376.808805894497,-274.9513859759502,-34.238169732292135
2025-02-19 13:40:53.206,746,-80,637,-4,0,-2,-22,3,28,591,64,T,7.158224872721668,49.28487663459723,1503.9621867725389,-161.28280823298002,-10.214360555103553
2025-02-19 13:40:53.299,750,-77,643,-2,-3,-5,-21,2,27,657,66,T,6.828718272593212,49.190747908587454,1506.8895317777824,-154.70732526251902,-5.906625244151996
2025-02-19 13:40:53.409,747,-76,628,-2,-6,-11,-22,4,28,715,72,T,6.900328169277295,49.74107268181672,1510.1317872331938,-153.64125278410006,-13.561930900195193
2025-02-19 13:40:53.509,774,-47,624,0,-1,-7,-22,2,30,755,81,T,4.307414203707857,51.04497425991176,1551.6397063466156,-94.2210157600658,-2.9343368995970422
2025-02-19 13:40:53.626,737,-65,645,1,14,-14,-21,0,29,669,81,T,5.754565331102192,48.66506603086646,1487.861582434139,-131.22252762309233,-12.131235644531671
2025-02-19 13:40:53.733,824,102,569,-19,-9,-13,-21,1,30,435,101,T,-10.163003578558815,54.94875268844046,1642.6386902418433,203.33634272411172,3.7021665684355867
2025-02-19 13:40:53.839,627,41,676,-9,-38,12,-22,-1,30,796,105,T,-3.470788248621256,42.79393471097788,1306.3636283516098,85.42409690975438,-56.45584173156033
2025-02-19 13:40:53.946,889,44,651,1,54,5,-23,-3,31,731,99,T,-3.8666451137188567,53.723037816749056,1695.1662571595143,83.90024219912107,60.65778019027687
2025-02-19 13:40:54.055,919,67,520,-11,-5,-14,-22,0,29,695,101,T,-7.34189075014015,60.29481474409831,1787.5866719766373,130.32459958915632,28.52549572595086
2025-02-19 13:40:54.160,809,46,564,2,-6,28,-22,2,30,256,113,T,-4.662739336254641,55.02829167499466,1628.435166638421,92.59334692876065,-7.274949300456683
2025-02-19 13:40:54.270,752,-27,561,-42,64,20,-22,2,27,515,62,T,2.755424700502759,53.24489736313762,1553.2005240327821,-55.76650817670893,-36.704114338285535
2025-02-19 13:40:54.381,634,-157,677,22,-36,-25,-22,5,28,540,48,T,13.056411180719005,42.37340357554694,1307.9595275408697,-323.8953404162721,-42.66971631730087
2025-02-19 13:40:55.196,758,-65,624,1,0,-1,-23,2,29,630,78,U,5.946863053973501,50.38635377849634,1528.3614046982575,-131.06001491475826,-10.176143181678981
2025-02-19 13:40:55.289,719,-83,638,2,-6,-6,-21,1,28,631,82,U,7.4122108334089685,48.177154363372274,1464.2101728852272,-169.0256527809094,-23.257427400243387
2025-02-19 13:40:55.396,763,-42,625,-3,1,-4,-22,2,28,633,92,U,3.8444962923603043,50.61460517786187,1535.895346556048,-84.54469797556229,-8.105624636343464
2025-02-19 13:40:55.505,671,-57,632,7,0,-33,-21,-1,28,482,95,U,5.153555908880539,46.59855536554599,1397.5573467713243,-118.71947655136437,-52.32823123618027
2025-02-19 13:40:55.613,814,-250,656,32,7,33,-22,0,28,280,100,U,20.86172170327081,49.2243375180172,1571.2725407044302,-482.5775616414097,45.716478252940874
2025-02-19 13:40:55.719,737,4,588,12,-16,-36,-20,2,28,630,106,U,-0.3897611953180578,51.41547156217526,1518.688909944659,8.24254496577834,-35.6541099694158
2025-02-19 13:40:55.830,780,-114,599,12,1,-32,-20,-3,28,753,100,U,10.77550680057933,51.98409349800822,1567.83980279046,-229.14581733091336,-6.020566501904341
2025-02-19 13:40:55.937,886,118,598,3,-11,30,-21,2,28,557,105,U,-11.162453315780672,55.47365381605626,1709.8656522521783,227.72477084171223,41.93717827674652
2025-02-19 13:40:56.043,520,-189,703,-28,29,2,-22,2,26,587,45,U,15.048026425930608,35.53905844858445,1101.2578020887963,-400.26485498996635,-82.81583628543024
2025-02-19 13:40:56.859,767,-54,638,0,-1,-1,-21,1,28,598,77,V,4.83795524115997,50.14532929670534,1534.6723916472906,-108.04733917725386,-0.5593036127399955
2025-02-19 13:40:56.957,742,-54,636,0,0,-1,-23,2,27,643,78,V,4.85309638699237,49.29699763121025,1500.1001644043886,-109.17171007794741,-13.800140918047305
2025-02-19 13:40:57.063,742,-39,645,4,2,-4,-23,-1,27,659,80,V,3.460183228986457,48.94870224594447,1496.121898520621,-78.63713482790328,-10.537229846092373
2025-02-19 13:40:57.169,733,2,639,1,6,-21,-22,0,27,580,83,V,-0.17932892776297768,48.91924864224048,1486.784196421736,4.056709949308965,-18.11882880421433
2025-02-19 13:40:57.276,812,22,626,-5,1,-4,-23,-2,28,427,99,V,-2.0127613246067195,52.3529782269587,1603.7886397613624,43.45240156988913,15.581664420427387
2025-02-19 13:40:57.387,708,223,611,-7,-28,39,-23,1,29,560,107,V,-20.050840894078288,47.427041749631236,1444.4164686280947,454.95038489274737,-24.523251881025203
2025-02-19 13:40:57.498,760,-250,651,-24,-2,-59,-21,0,32,746,109,V,21.008016649609964,47.46145516229126,1496.822677284969,-492.375880685845,19.85320669405951
2025-02-19 13:40:57.600,846,69,627,-22,44,30,-22,1,29,744,84,V,-6.280007125699781,53.291456427573976,1647.6865213717551,134.38578011188076,32.842258983344436
2025-02-19 13:40:57.709,752,-22,627,9,-21,-10,-23,1,28,602,75,V,2.009553813021139,50.162105993660475,1519.8600029281579,-44.463989447366316,-13.223699249940069
2025-02-19 13:40:58.522,736,-73,638,-3,2,1,-22,1,28,545,84,W,6.5273999895462795,48.89518054680497,1489.5080943024598,-147.736536527282,-15.176853485012657
2025-02-19 13:40:58.620,746,-62,638,0,-2,0,-23,0,29,551,88,W,5.550499789582952,49.32896110043758,1504.4638532687304,-125.0358698427095,-10.659434833042837
2025-02-19 13:40:58.730,786,-39,622,2,-3,-2,-22,1,29,546,97,W,3.5878038532773555,51.5890084401957,1569.574282593567,-77.87963997601668,1.9195880748109175
2025-02-19 13:40:58.837,757,-58,625,1,0,-4,-23,2,28,479,100,W,5.301863533542189,50.3353282332935,1526.7932691608585,-116.98019763715955,-10.562474538357037
2025-02-19 13:40:58.939,795,-75,627,2,-2,-10,-20,0,30,422,106,W,6.8211523647843535,51.53983029433943,1578.0407210774738,-148.8717661393843,9.432035074747319
2025-02-19 13:40:59.053,716,-82,644,-17,-30,53,-22,1,28,453,109,W,7.256378242188807,47.801302020519685,1456.8198606402286,-166.8424980062832,-22.324008732272887
2025-02-19 13:40:59.161,769,-66,555,30,-3,-37,-23,2,30,558,111,W,6.781703536468549,53.99028014382854,1577.9172687907703,-135.42592944108043,-28.808952118176194
2025-02-19 13:40:59.271,762,-126,636,-10,-25,59,-19,0,28,671,107,W,11.20594750740257,49.606621058737176,1523.613198717635,-251.93604073283728,0.3228420152022409
2025-02-19 13:40:59.377,804,-35,524,-2,-16,-21,-22,2,31,594,115,W,3.821332057749085,56.84769065075683,1641.2197926526892,-71.44613525229367,-21.65071063433959
2025-02-19 13:40:59.480,981,85,537,-23,62,39,-24,2,30,730,89,W,-8.994541235940225,61.00409303528194,1855.6543382244272,160.7855440867241,58.21368029916681
2025-02-19 13:40:59.590,663,-141,640,11,-23,-16,-22,3,28,587,58,W,12.424495746504927,45.33255440146373,1374.1990149691183,-292.25046924682607,-46.526952609706996
2025-02-19 13:41:02.609,776,-58,617,-1,-2,-2,-23,4,29,727,86,X,5.370207957382144,51.38884323954071,1557.398974393212,-116.40353159124524,-4.292741237901851
2025-02-19 13:41:02.703,789,-42,606,3,-3,-2,-21,-1,30,741,94,X,3.964654722856123,52.40720734404775,1581.3663883962063,-84.17919938230756,-2.5855910875804966
2025-02-19 13:41:02.809,773,-57,605,-4,-3,-5,-20,0,29,771,99,X,5.382227274134635,51.82801723881512,1559.1591966250203,-114.97034179511795,-10.299241860462416
2025-02-19 13:41:02.915,819,-39,604,-1,-4,-3,-23,0,29,811,107,X,3.6944333101114744,53.53483894438675,1623.218396535697,-77.29611412074746,10.901206950475057
2025-02-19 13:41:03.027,782,-64,604,-1,-2,-5,-21,1,28,806,107,X,6.048506661000621,52.16342758067348,1571.7636272626335,-128.63538637443546,-5.996458908734667
2025-02-19 13:41:03.133,686,-66,701,26,8,44,-22,1,31,495,109,X,5.378611697226858,44.254008605584936,1383.8405730287834,-133.13918049548062,-12.099477686847308
2025-02-19 13:41:03.239,802,-68,643,9,15,29,-23,3,30,407,111,X,6.03683520140649,51.123666288149025,1580.5024651899457,-134.007690315357,18.83904598860954
2025-02-19 13:41:03.352,554,-260,617,-1,-29,-49,-22,-1,28,559,95,X,22.850258040239993,39.60534098765687,1191.4958125438297,-559.1857603996312,-92.99082371758641
2025-02-19 13:41:03.453,765,16,681,-26,-42,78,-23,1,29,587,109,X,-1.345908732294173,48.316797395746484,1511.8331756873208,31.620040275813242,16.17203576069892
2025-02-19 13:41:03.559,973,-33,588,31,21,0,-22,2,30,671,109,X,3.2122097601092183,58.81484262015131,1828.498427697131,-62.014849038032196,71.00814441324451
2025-02-19 13:41:03.669,519,-228,706,-4,-1,-12,-20,3,29,501,48,X,17.8976639971225,34.97480501850537,1092.2161707700584,-479.8175085463839,-73.75070628836443
2025-02-19 13:41:04.989,768,-88,627,0,-1,-3,-22,1,28,605,72,Y,7.989326766396897,50.497557961878115,1539.5974720117708,-176.41221033468207,-2.936998634609722
2025-02-19 13:41:05.078,767,-81,625,0,0,-5,-21,2,30,665,76,Y,7.384373547878369,50.59081070850469,1539.6317633262968,-162.59474945166886,-4.5891161394205255
2025-02-19 13:41:05.189,720,-75,625,-3,-1,-13,-22,2,27,680,81,Y,6.84277341263094,48.8373432423383,1472.8440581649588,-153.42125605884988,-28.51046715708253
2025-02-19 13:41:05.296,785,-51,623,3,5,-10,-22,2,29,725,90,Y,4.679909376927104,51.470204036528116,1567.2843199841263,-101.82356728559292,2.155246687757085
2025-02-19 13:41:05.402,764,-66,651,6,-9,-22,-22,-3,28,661,103,Y,5.78900884517233,49.42119680462788,1523.5120119155586,-131.6122942230718,3.8241887997006643
2025-02-19 13:41:05.510,931,-142,688,8,-14,14,-22,0,30,658,102,Y,11.661828426015836,52.963025217068946,1729.2469734637807,-263.7519551362587,98.10320328347893
2025-02-19 13:41:05.620,823,-10,575,20,-2,16,-22,4,29,698,112,Y,0.9963478965049255,55.055340549388895,1642.7056651274784,-19.959971629738497,2.301631290036539
2025-02-19 13:41:05.729,427,-250,727,-1,-24,-18,-21,0,31,834,69,Y,18.977015302058362,29.048778845400797,912.5540532240497,-534.2822325667737,-99.6927323041781
2025-02-19 13:41:05.836,753,-107,607,-7,6,-1,-23,1,30,780,112,Y,9.99720991820106,50.69839145056182,1526.8224275804505,-216.95883101076782,-16.78514414519691
2025-02-19 13:41:05.943,816,-70,575,-2,4,17,-22,0,27,446,114,Y,6.940983428742579,54.63060775291676,1631.4371349204603,-139.95171500543162,0.3966267410974069
2025-02-19 13:41:06.049,836,-31,552,6,-1,21,-22,2,30,221,119,Y,3.21432140465925,56.52223991542744,1670.0999989638376,-61.92954541612316,1.254546138710225
2025-02-19 13:41:06.156,552,-241,696,-20,39,14,-21,4,30,561,55,Y,19.09914665425586,36.849581332126625,1151.7162930334655,-502.83265692221954,-60.164021650891414
2025-02-19 13:41:07.074,768,-108,622,0,0,-1,-21,2,30,699,80,Z,9.850256453708267,50.57932419700753,1540.5044738047136,-216.63344162878784,-3.6481545657966308
2025-02-19 13:41:07.168,771,-94,622,-1,0,0,-22,1,28,719,79,Z,8.593817063287622,50.78882068279661,1545.821154991815,-188.4658736306493,-3.0826957262114547
2025-02-19 13:41:07.278,774,-93,623,0,-1,-1,-22,3,30,727,80,Z,8.490286613965441,50.86032543879959,1549.6095084994197,-186.19339055613182,-1.295508779248621
2025-02-19 13:41:07.386,757,-98,655,1,2,-7,-23,2,30,757,82,Z,8.509377011750574,48.817687836323046,1509.6182177086603,-195.43274152635234,3.7913704106043724
2025-02-19 13:41:07.495,1372,-80,621,22,11,-34,-22,-2,25,481,106,Z,7.340669017300713,65.46973833527848,2281.742117224585,-133.04618759327025,209.2289688072397
2025-02-19 13:41:07.602,700,-88,708,1,-53,27,-22,-1,30,835,106,Z,7.085172280558896,44.45488729850279,1400.3474585305275,-176.04368050098057,-0.35142948516192973
2025-02-19 13:41:07.705,808,70,599,6,30,22,-21,1,28,563,110,Z,-6.665434391371832,53.263019543540004,1609.3897516370002,139.427329968552,4.900419269105214
2025-02-19 13:41:07.809,786,34,647,2,-44,17,-21,2,28,514,110,Z,-3.008139513643274,50.50154781132895,1557.6417663801085,67.3789059248393,11.819054900852166
2025-02-19 13:41:07.922,866,-61,595,20,0,8,-23,2,31,776,112,Z,5.8535701644097955,55.36839341869186,1688.8229986038004,-118.95866387393974,29.665491721407534
2025-02-19 13:41:08.032,509,-233,702,-13,11,0,-21,6,25,528,44,Z,18.361461330709837,34.53405641866736,1075.8959946733753,-492.50248872081823,-79.84869992280858
2025-02-19 13:41:08.949,761,-98,638,-1,-1,-1,-21,4,29,533,63,a,8.732665023814755,49.69527799082523,1523.6150221799085,-196.20797920319455,-1.3539870575317536
2025-02-19 13:41:09.044,765,-100,639,1,-3,-2,-21,1,30,560,65,a,8.89433486620313,49.78679520636864,1528.6472515732207,-199.8231701402903,1.1299428035450774
2025-02-19 13:41:09.151,759,-100,635,0,-1,-2,-21,3,29,588,66,a,8.949458084208882,49.73747577663766,1522.0912159977063,-200.53902714067277,-3.4228223432720597
2025-02-19 13:41:09.256,767,-98,634,0,-2,-1,-22,2,28,607,68,a,8.786903506823855,50.09042231977721,1534.0579150589629,-196.0073998380422,-0.04787242162001348
2025-02-19 13:41:09.359,767,-97,627,-1,-1,-1,-22,1,28,621,69,a,8.794223420436985,50.402605980709176,1537.5422338981864,-194.4479748215438,-2.895672300082083
2025-02-19 13:41:09.474,761,-89,634,-1,-2,-1,-22,2,29,623,69,a,7.9908816043751605,49.9266681710249,1526.221123713061,-178.4936662423948,-3.5166786255989564
2025-02-19 13:41:09.579,760,-83,618,-4,-1,-3,-23,3,30,635,72,a,7.649291721627474,50.63253138070497,1533.093836026067,-167.42998472389942,-10.647356136986105
2025-02-19 13:41:09.686,771,-78,629,-5,1,-2,-21,1,28,653,71,a,7.0689539602247935,50.57732088634958,1543.482270633619,-156.1499573403661,-1.2092713729523439
2025-02-19 13:41:09.797,770,-98,624,-10,-1,-6,-22,2,28,678,70,a,8.925469605369123,50.63718653951113,1543.1453683076352,-196.40031960278992,-2.5489737973562114
2025-02-19 13:41:09.903,769,-69,642,15,-11,11,-22,3,28,788,73,a,6.134409943923922,49.98121846796969,1534.8336964623718,-137.71589734187734,2.6433899494894604
2025-02-19 13:41:10.011,760,-103,617,-1,-2,-2,-21,0,28,801,75,a,9.477380231204052,50.54300526640389,1532.1017957989934,-207.64011179907413,-9.82474737891971
2025-02-19 13:41:10.118,769,-95,617,-2,-7,-1,-22,2,28,728,84,a,8.753140192068035,50.93046182493971,1545.381601929812,-190.91190140875437,-5.922559675804678
2025-02-19 13:41:10.223,761,-81,611,5,-9,3,-22,2,30,768,91,a,7.551642362770845,50.99545160274116,1538.0960007187484,-163.71324054956455,-12.923333034369648
2025-02-19 13:41:10.330,786,-44,555,-9,4,-10,-21,0,30,733,118,a,4.532887263111349,54.68920342329685,1602.0286865207431,-89.68099517418916,-21.203461856249874
2025-02-19 13:41:10.437,916,-3,526,7,5,22,-23,2,31,258,117,a,0.326778469201304,60.13361218529476,1783.189034241165,-5.840138758431763,28.02900435496406
2025-02-19 13:41:10.543,763,-79,590,26,0,-40,-22,2,30,667,119,a,7.626446084859719,52.03991087232875,1551.4394174809797,-160.6339632778472,-19.671371315567512
2025-02-19 13:41:10.653,814,87,614,-12,-21,47,-22,1,28,594,117,a,-8.064770820881582,52.69860928890397,1609.4587717746563,172.01832081621023,13.985643894792133
2025-02-19 13:41:10.760,782,-84,532,-22,72,11,-22,3,32,709,73,a,8.972626614896393,55.44345609316156,1605.5668139094428,-172.4649774531882,-28.278190536858574
2025-02-19 13:41:11.681,764,-108,613,3,-13,-11,-21,2,30,755,96,b,9.991982841546234,50.82982873400277,1539.273424206141,-217.5936254113393,-9.045299788435045
2025-02-19 13:41:11.776,804,-66,583,-2,-1,-1,-23,0,30,761,111,b,6.458816378718656,53.87967087981841,1611.7807802360192,-132.31036255668812,-2.741535917411852
2025-02-19 13:41:11.881,782,-54,589,0,3,-10,-22,-1,31,769,112,b,5.238279947323068,52.89775131968993,1579.5602541823323,-109.07449325555746,-11.719935694876767
2025-02-19 13:41:11.989,801,-156,547,0,5,-17,-22,0,30,726,112,b,15.91772346670018,54.62048506100936,1616.3348550439632,-314.7918069748543,-9.78922061054675
2025-02-19 13:41:12.095,830,28,549,15,-5,19,-23,3,30,512,119,b,-2.919659347193211,56.48327239136743,1663.7246475088798,56.125650759335706,-2.463652388403716
2025-02-19 13:41:12.206,828,-149,574,7,-8,-19,-21,0,30,770,112,b,14.55177440155094,54.38930392239627,1640.9920751321993,-295.2992985443209,10.40404453395854
2025-02-19 13:41:12.312,730,-34,662,6,-5,47,-22,2,31,612,120,b,2.9401002237833818,47.75915181396342,1470.3255147138289,-68.48091438393173,-9.36368594596513
2025-02-19 13:41:12.419,871,14,511,-40,78,31,-22,2,28,474,71,b,-1.5693548047489854,59.59123716536363,1733.4362661562436,27.862351005955695,5.024188282617047
2025-02-19 13:41:12.530,659,-141,648,21,-36,-20,-21,3,28,577,52,b,12.275785793778928,44.819602836298685,1363.876937018153,-291.81585450616024,-45.11116113469359
2025-02-19 13:41:14.039,772,-87,615,-1,0,-1,-22,1,29,603,72,c,8.051829480017025,51.181106838095666,1551.1313012858434,-174.80365701019218,-5.681023692737654
2025-02-19 13:41:14.143,765,-101,620,-2,-1,-1,-22,3,28,613,72,c,9.25239357056602,50.609184297389405,1537.8353084769183,-203.03446556361925,-6.350184647959736
2025-02-19 13:41:14.250,771,-98,622,-2,-1,-1,-21,3,28,621,73,c,8.95370462763415,50.761610622094054,1545.52084185655,-196.44752594285592,-2.840419759758788
2025-02-19 13:41:14.356,776,-98,623,-2,-1,0,-21,2,27,621,73,c,8.939565003151525,50.89899189932524,1552.0353104099536,-196.00445930434984,-0.028348434795361754
2025-02-19 13:41:14.462,767,-110,614,-1,-3,-2,-23,2,29,636,75,c,10.156965519362293,50.87968859629037,1542.8227831853203,-221.2653274450916,-7.062827738965666
2025-02-19 13:41:14.569,770,-116,618,-6,1,-2,-22,2,28,632,76,c,10.630850230978105,50.76445596366981,1544.5522536206718,-232.68579405194532,-3.6536269319155963
2025-02-19 13:41:14.676,788,-103,627,8,-9,7,-21,0,28,756,78,c,9.32890407514315,51.119031062368045,1566.4516864717366,-204.75193363780318,7.597452515508962
2025-02-19 13:41:14.786,770,-109,617,-3,-1,-2,-21,2,30,749,80,c,10.01857443510629,50.86452381017361,1545.6557588068,-218.800620402521,-4.531952186747276
2025-02-19 13:41:14.893,775,-87,614,-4,-1,-1,-23,4,30,703,82,c,8.064770820881582,51.33419443762174,1555.8034166006885,-174.65148031517407,-4.597803603642092
2025-02-19 13:41:14.999,778,-112,591,2,-8,-4,-22,2,30,699,91,c,10.730829545409183,52.29021895959197,1569.1191268265989,-225.88861465884202,-9.965814851568098
2025-02-19 13:41:15.105,784,-96,590,1,-5,2,-22,0,31,699,100,c,9.241712486028621,52.67636741529242,1579.2234633332873,-193.37430163264742,-8.446228783978654
2025-02-19 13:41:15.216,819,-98,578,-5,8,-17,-23,2,30,699,119,c,9.622994191549433,54.40450130962167,1632.146491674584,-195.2995802003776,4.131047389609989
2025-02-19 13:41:15.320,939,24,471,10,-4,39,-22,2,30,119,115,c,-2.917007286627713,63.33199119653896,1832.6221270893552,46.84018216202825,22.76142507019557
2025-02-19 13:41:15.425,897,-88,619,25,9,4,-20,1,30,785,112,c,8.091222618314255,55.12285997349215,1717.3800863821139,-168.4832191768406,52.87371965381442
2025-02-19 13:41:15.532,589,-208,661,-9,-5,-7,-20,5,28,608,53,c,17.467471709836747,40.364020593372565,1236.6415583904109,-436.7087336930483,-65.80996620723522
2025-02-19 13:41:16.449,799,-95,599,-1,-2,-1,-22,2,30,610,85,d,9.011917388448131,52.7994270102655,1595.5238716561846,-189.705591748858,1.8563214993059773
2025-02-19 13:41:16.547,788,-88,588,0,-3,-2,-22,2,30,627,93,d,8.511705138424686,52.96532762331719,1586.271177202524,-177.14703501754076,-7.664279435385879
2025-02-19 13:41:16.653,791,-95,585,2,-6,-3,-22,4,32,666,99,d,9.223922282105343,53.15730203728296,1591.2847442597817,-191.11510834978418,-6.866719838144718
2025-02-19 13:41:16.765,898,-44,603,-2,-3,-9,-23,3,31,687,119,d,4.173390118532176,56.04850544316194,1727.5106767679995,-84.6441756991002,45.99004666914959
2025-02-19 13:41:16.869,835,-125,540,28,18,3,-23,2,30,383,117,d,13.033356325913845,56.42351629109428,1668.1483027528825,-249.7227998133058,1.1975048065190776
2025-02-19 13:41:16.981,791,-40,598,0,-16,-16,-22,3,31,664,122,d,3.8267930981243246,52.848993240410024,1588.0466154423775,-80.30577069240844,-4.571271851506253
2025-02-19 13:41:17.088,820,-168,574,-2,1,-23,-23,1,30,795,121,d,16.313852426260556,53.89425378423632,1627.930789105396,-333.5272836215933,8.448447626222901
2025-02-19 13:41:17.194,859,120,515,7,-7,34,-23,0,29,502,120,d,-13.116436125391473,58.38377010147498,1710.5784730191963,238.96323255215776,4.449460296989571
2025-02-19 13:41:17.299,634,-208,677,-31,43,8,-22,3,30,676,60,d,17.078937512093987,41.83447534986864,1300.980908708013,-426.8202350335438,-35.217784219755345
2025-02-19 13:41:18.213,782,-98,599,-3,3,3,-23,3,30,516,79,e,9.291614811018116,52.18251241204902,1571.9679065425207,-196.99853560251535,-6.103294141905167
2025-02-19 13:41:18.317,804,-105,585,2,-11,-8,-23,2,28,546,96,e,10.175510843043206,53.52673269074297,1608.1343016434985,-210.01753939374044,-0.09771947941101189
2025-02-19 13:41:18.423,778,-110,604,-1,2,-3,-22,3,31,567,104,e,10.321541042743778,51.72234593404812,1563.0180309383927,-220.9922665851198,-5.448445612839464
2025-02-19 13:41:18.530,781,-84,601,4,2,-4,-22,3,32,524,112,e,7.956519773209902,52.15257253672739,1570.6473984820127,-168.9300659058759,-6.654400112278722
2025-02-19 13:41:18.640,821,-70,603,-5,-2,-3,-23,0,30,451,119,e,6.621613176951756,53.520687454704515,1625.0715774269238,-138.55665093774013,12.433421207752758
2025-02-19 13:41:18.742,729,-62,629,9,-9,-6,-22,1,30,745,118,e,5.629412144025527,49.07447612189096,1484.5617230488197,-126.2590217133427,-22.918139640202526
2025-02-19 13:41:18.853,783,-163,587,-8,23,-18,-23,1,29,466,119,e,15.51907666063567,52.11539897613658,1572.2491533654547,-327.3009093212888,-4.684869764396012
2025-02-19 13:41:18.960,819,50,609,7,-29,19,-23,3,30,450,118,e,-4.693559907842994,53.27368623505682,1620.5010932748191,98.93169067611836,13.012007564878445
2025-02-19 13:41:19.070,704,-114,614,-29,52,24,-21,2,29,617,65,e,10.51820702182837,48.424906695490094,1452.0866311102081,-235.13902833318713,-38.450556110323646
2025-02-19 13:41:19.177,778,-111,621,5,-17,-12,-23,3,29,552,59,e,10.134251287395674,50.96308821239352,1554.7403717368443,-221.82028439947265,1.0054359272746751
2025-02-19 13:41:19.994,797,-94,583,-1,-1,-1,-21,5,30,596,97,f,9.15925715846196,53.463762215260004,1600.480493094966,-188.76432415423693,-4.740435977873744
2025-02-19 13:41:20.082,792,-109,587,0,-1,1,-21,2,28,606,97,f,10.51943639989543,52.98987185084867,1590.5291149994562,-218.89857769563224,-4.839129425101987
2025-02-19 13:41:20.198,785,-112,596,-1,-3,0,-21,2,29,608,100,f,10.642870744703576,52.31301378977841,1576.3624108214626,-224.90775797707494,-4.830569235148914
2025-02-19 13:41:20.300,757,-150,583,5,-18,-10,-22,3,31,611,117,f,14.428674177267347,51.50729953708018,1539.6874594607239,-305.08998536209845,-19.783076440689456
2025-02-19 13:41:20.414,812,-145,608,0,27,-89,-21,2,29,744,120,f,13.413729420871283,52.412093232064684,1604.4184070427932,-286.50328697192737,14.662079455642356
2025-02-19 13:41:20.520,799,75,613,-8,-19,-6,-23,-1,31,850,115,f,-6.9754193532992925,52.29848842598838,1590.2073994203874,149.268529357358,5.978553385860664
2025-02-19 13:41:20.622,588,27,560,15,43,12,-22,2,31,758,89,f,-2.7603374984825617,46.36396059324199,1311.737943163762,60.23286473711154,-129.27423158453564
2025-02-19 13:41:20.731,916,129,590,-7,-43,12,-22,0,28,709,112,f,-12.333294852575007,56.60230209469365,1750.8699804278995,246.5744841432304,52.256235313907496
2025-02-19 13:41:20.839,869,0,576,13,18,30,-21,1,32,777,111,f,0.0,56.46235504478637,1702.5230038219331,0.0,23.515247179017933
2025-02-19 13:41:20.949,604,-181,671,-2,-12,-5,-22,4,30,537,59,f,15.096044509401802,40.99343000632963,1259.972483623234,-377.57453565530693,-57.737643230447134
2025-02-19 13:41:21.866,773,-91,600,-2,-2,-1,-21,2,28,570,96,g,8.624134352383434,51.86549075600608,1559.5632385830422,-183.5967072588057,-10.527740167949673
2025-02-19 13:41:21.962,774,-83,601,2,-5,1,-22,2,30,617,100,g,7.862991098099191,51.90867934672369,1561.0284834868644,-167.3971112783072,-10.116432268224457
2025-02-19 13:41:22.073,703,-127,601,1,-10,-8,-21,1,30,670,113,g,11.931892878040314,48.85347665949267,1456.0293647919457,-263.0380218045193,-42.77048113792216
2025-02-19 13:41:22.179,763,-121,623,-8,5,-18,-21,1,30,554,117,g,10.99123241380499,50.24728220566716,1531.811499765071,-242.921613986335,-4.745169532948012
2025-02-19 13:41:22.286,833,99,563,3,-24,33,-22,1,30,339,115,g,-9.973142485398117,55.54052432340312,1657.526591883585,196.99295629828924,5.726925293567206
2025-02-19 13:41:22.391,771,-144,606,8,7,-17,-21,0,31,785,115,g,13.366930696316848,51.06601604507038,1548.8705467272562,-289.2832149529506,-5.400196260333587
2025-02-19 13:41:22.499,755,119,590,-16,-22,67,-22,3,30,0,120,g,-11.403278399110157,51.438369414182375,1536.938092224283,242.2458714896552,-21.050959486525812
2025-02-19 13:41:22.610,1131,-139,558,-5,65,9,-20,3,30,227,98,g,13.987913003208005,63.049132271455726,2022.3955024347438,-248.5525860640401,118.21335954147935
2025-02-19 13:41:22.715,604,-184,686,11,-19,-10,-19,2,27,360,51,g,15.014559916097332,40.378084207268785,1251.8285631672873,-381.3517477198359,-49.778798564170756
2025-02-19 13:41:23.729,763,-87,639,-8,3,-1,-23,3,28,510,73,h,7.753161874558844,49.7951661828336,1526.7415712170848,-174.08455661321938,-0.6210537453699772
2025-02-19 13:41:23.831,765,-92,641,-1,-3,-9,-20,0,27,595,83,h,8.167640531475385,49.752258974983754,1528.257943629474,-183.7904977959629,1.4596838346500363
2025-02-19 13:41:23.937,771,-75,614,3,-2,-5,-21,1,27,608,97,h,6.964170388206328,51.26036390935307,1550.997690088839,-150.8752616817937,-7.165475634951008
2025-02-19 13:41:24.041,756,-57,619,1,0,-11,-22,2,29,622,104,h,5.261187723446802,50.57134525617465,1528.4160356857478,-115.23771697630639,-13.44117207602892
2025-02-19 13:41:24.153,791,-70,585,-6,0,-10,-23,-2,27,515,108,h,6.823462399033519,53.319565648681596,1592.9796775086666,-140.97165287687315,-8.12024189958288
2025-02-19 13:41:24.259,819,177,547,1,-13,33,-22,0,27,378,114,h,-17.93070855633519,54.93178498349075,1637.468577182671,353.8851503801377,0.35493074612827513
2025-02-19 13:41:24.369,802,-237,616,-22,-10,-34,-23,1,30,688,110,h,21.04374356967147,50.546772200277296,1574.1435752570806,-465.17709144130674,22.932116760147892
2025-02-19 13:41:24.472,840,-39,561,16,-5,38,-22,2,28,635,117,h,3.9767309750775666,56.19891698660868,1670.9739539429747,-77.58093357592384,6.028109330941788
2025-02-19 13:41:24.584,699,-172,613,-29,34,10,-21,3,27,571,69,h,15.673443865682138,47.671658695603895,1438.298099488608,-353.91598442352006,-35.340107276847675
2025-02-19 13:41:25.599,779,-123,610,1,-2,-1,-22,4,30,673,89,i,11.400218846678294,51.381598118913786,1560.3200585747254,-246.3663250381145,-1.816733928860458
2025-02-19 13:41:25.693,781,-117,611,4,-3,0,-21,2,29,665,95,i,10.840305454330567,51.46111725625843,1563.1855183822254,-234.17760006494282,-0.9274670058124457
2025-02-19 13:41:25.800,770,-98,611,3,1,-3,-21,2,29,662,97,i,9.112219517380167,51.212952968036085,1549.479602554193,-197.20649487053362,-7.5221261826127375
2025-02-19 13:41:25.910,755,-99,597,0,-7,-7,-20,1,29,691,113,i,9.415626391540327,51.28688405188792,1535.2872585437717,-201.3158127097131,-19.99535543130014
2025-02-19 13:41:26.015,769,-75,645,-3,-16,34,-22,3,30,515,116,i,6.632514615138463,49.82215583611988,1533.0455650334638,-149.51679763005174,4.155540381555056
2025-02-19 13:41:26.123,946,30,597,-11,82,-40,-21,4,30,741,95,i,-2.876765070300577,57.71225134578195,1791.3760724949425,56.808966358190574,63.501569472007645
2025-02-19 13:41:26.230,800,15,492,15,9,10,-22,0,30,750,110,i,-1.7462816202856397,58.39660628923609,1651.6958962162062,30.969298054053862,-31.79297617296686
2025-02-19 13:41:26.340,642,-73,608,-29,46,34,-22,4,28,803,56,i,6.846489333211572,46.35330927291504,1365.6096453112582,-155.27960141389696,-77.28763917327854
2025-02-19 13:41:26.447,836,-118,645,16,-26,-11,-21,4,28,760,65,i,10.367370824809926,51.89163007342008,1622.8448752508607,-229.06183645885358,37.924707491859635
2025-02-19 13:41:27.265,749,-142,632,-1,-1,-1,-21,3,28,684,67,j,12.663124427799904,49.1458340938886,1505.376991008251,-285.39857506431457,-6.224643948217022
2025-02-19 13:41:27.360,745,-140,637,4,-7,-2,-22,4,29,675,70,j,12.395406833758463,48.79978269097807,1497.4124106406414,-281.3929362277715,-6.337859836360167
2025-02-19 13:41:27.466,723,-126,618,7,-12,-8,-21,3,28,681,81,j,11.523721703897332,48.899964813279716,1476.5629885915,-257.32632996200414,-26.1243802898299
2025-02-19 13:41:27.577,816,-101,545,-2,4,-12,-21,2,30,548,111,j,10.499006024050825,55.813129812445275,1643.2093587167105,-203.38743288037716,-7.486642770351978
2025-02-19 13:41:27.684,828,28,565,-9,-22,41,-20,5,30,134,120,j,-2.837115777050883,55.65893232203584,1653.6941659020024,55.922024933884146,1.5734254412664086
2025-02-19 13:41:27.791,454,-346,520,-63,8,-68,-22,1,28,696,84,j,33.63918318810267,36.01241820193268,1041.9605836239791,-794.0933082244421,-153.4350297014738
2025-02-19 13:41:27.897,822,-131,552,33,7,31,-23,-2,29,781,107,j,13.350392591442631,55.387172370994044,1645.009216571751,-262.1608362176392,-0.677722077380281
2025-02-19 13:41:28.007,559,-175,666,-25,35,32,-22,4,30,680,51,j,14.722387665761715,39.06909079087141,1189.25706388969,-372.3076675862178,-84.89660921383438
2025-02-19 13:41:28.113,888,-53,591,12,-19,-10,-23,2,32,659,72,j,5.124492073975319,56.24870235325271,1719.4570294189539,-102.62525062973486,37.631639204277235
2025-02-19 13:41:28.216,743,-117,629,1,-2,2,-21,2,27,671,73,j,10.537136207651612,49.26862515999255,1500.777137205455,-236.3269516191632,-12.509851012424292
2025-02-19 13:41:28.327,740,-130,627,-2,1,0,-22,3,30,644,71,j,11.713540783777097,49.129785308841925,1496.1937351495171,-262.8448453641044,-13.72090802533421
2025-02-19 13:41:28.429,760,-114,621,-2,1,-3,-23,1,28,615,75,j,10.40224676510433,50.28157734640515,1529.1941284532863,-229.37911926799296,-7.512570749330052
2025-02-19 13:41:28.540,771,-114,625,2,1,-2,-22,1,28,589,75,j,10.337112144371472,50.511135078766,1542.7481866651178,-228.11062682207967,-0.6065066999981354
2025-02-19 13:41:28.650,766,-115,629,-1,-2,-3,-21,3,29,583,75,j,10.3609480673695,50.146215167313024,1533.682299851263,-230.25256459907996,-1.381418546272016
2025-02-19 13:41:29.965,706,-121,647,-9,0,3,-20,2,28,560,62,k,10.592919030072824,47.00600662413197,1437.4251951491597,-246.35757593916185,-23.300426716014385
2025-02-19 13:41:30.061,774,-98,640,-4,1,0,-21,4,28,538,65,k,8.705794176576424,50.08714140264625,1541.0211752523787,-195.11637619474564,5.770604442477406
2025-02-19 13:41:30.171,754,-118,632,-2,-2,-1,-20,3,28,496,65,k,10.575859542652957,49.546403557767846,1514.9317007972886,-237.08480198153853,-5.810125867223405
2025-02-19 13:41:30.277,732,-128,645,-3,-1,-1,-19,3,28,478,63,k,11.224492961577745,48.06567069754144,1475.9112745291136,-258.08284581929854,-10.495590261309076
2025-02-19 13:41:30.387,743,-126,639,-2,-1,-1,-21,3,28,476,64,k,11.154659738928299,48.76261886217469,1494.9850040225615,-253.5237018934627,-7.727345316846254
2025-02-19 13:41:31.899,748,-121,632,-1,0,-3,-21,3,30,545,70,l,10.838444778868839,49.295715322710166,1506.085569033617,-243.63148910837918,-8.52149683054256
2025-02-19 13:41:31.997,756,-124,638,1,-2,-5,-22,3,28,598,74,l,10.998733352221176,49.31412211377541,1514.2950406751308,-248.37643524301092,-1.9368200406527194
2025-02-19 13:41:32.107,773,-102,630,4,-1,-6,-22,4,29,611,80,l,9.1966558916289,50.45626154800304,1544.1387892132234,-203.75440685607862,1.5168988301026047
2025-02-19 13:41:32.212,731,-48,640,11,8,-20,-21,1,30,604,85,l,4.289153328819018,48.71777574723582,1482.4688597710438,-97.34405645555415,-17.920752740722264
2025-02-19 13:41:32.324,822,-42,576,-9,1,-14,-22,-1,27,501,105,l,4.170436524842112,54.908495059763325,1640.234962599447,-83.80762582624911,2.63827438286944
2025-02-19 13:41:32.430,796,167,530,-5,-14,40,-22,2,31,212,112,l,-17.48934452950733,55.081094087892566,1615.9630400169965,339.02742171210855,-15.95529046357808
2025-02-19 13:41:32.537,912,-42,612,-38,57,12,-21,3,29,526,85,l,3.9259077036839822,56.073999689632686,1741.7590999201088,-80.21259012789977,55.18797242203209
2025-02-19 13:41:32.639,657,-131,650,11,-24,-16,-22,2,28,535,63,l,11.394664413896624,44.73656892789099,1360.8482259936563,-271.3411226867108,-46.349082033297805
2025-02-19 13:41:33.560,763,-94,629,1,-1,-1,-21,1,27,582,94,m,8.499583024269924,50.18770536790217,1531.146150008446,-188.63399488963813,-4.242370059387213
2025-02-19 13:41:33.659,766,-85,614,5,-3,-5,-21,-1,27,532,103,m,7.8817306927714865,51.019834761705916,1543.3637742127903,-171.2609932220459,-9.108821627484417
2025-02-19 13:41:33.762,785,-117,614,-5,2,-14,-22,1,30,321,110,m,10.788585831894745,51.47181189780197,1567.3018003950342,-233.5978479569669,2.1104389266865837
2025-02-19 13:41:33.869,829,14,574,6,-2,9,-21,3,27,0,111,m,-1.3971810272963767,55.2932785217774,1651.0772520965913,27.88308990271686,4.793313988608816
2025-02-19 13:41:33.983,820,-169,609,-19,-6,-32,-21,0,28,575,107,m,15.509552909616101,52.3767948223736,1612.0424654703802,-332.238020322554,20.76358357138838
2025-02-19 13:41:34.086,818,-4,591,-5,-13,33,-22,3,31,297,112,m,0.3877827726655684,54.15149590818584,1628.5683289314475,-7.963659310178228,5.369336921166905
2025-02-19 13:41:34.196,875,-132,570,1,-5,-41,-22,0,30,704,110,m,13.03865658302297,56.23061533438979,1706.2816007315923,-257.40476719608023,28.47941438056273
2025-02-19 13:41:34.303,833,41,539,-6,-15,48,-22,0,31,424,116,m,-4.3499291640148785,57.01932721022351,1671.8542397472597,82.28814385310642,-3.7880374835209523
2025-02-19 13:41:34.410,781,-77,567,-33,54,13,-21,3,31,634,76,m,7.7335980990228625,53.77139879971704,1587.6653900564443,-156.53039056894522,-18.632876007687514
2025-02-19 13:41:34.519,732,-155,621,9,-24,-21,-21,4,30,528,68,m,14.014532298252082,48.83396090002264,1484.8052013896104,-314.40547297184366,-17.650314293644556
2025-02-19 13:41:35.529,764,-105,617,1,3,-1,-21,5,28,634,85,n,9.657972914244752,50.675585323457454,1537.5702454443422,-211.31528242363333,-7.7288500512549945
2025-02-19 13:41:35.630,765,-105,625,6,3,-4,-22,0,29,630,91,n,9.53663575845941,50.36020017509178,1535.0702779999356,-210.6959205097951,-4.142383986875416
2025-02-19 13:41:35.741,943,-127,712,8,-7,-20,-22,1,28,545,110,n,10.113530577416006,52.513444257233736,1736.4961622209566,-233.86533679964106,112.88094644610692
2025-02-19 13:41:35.848,695,-233,740,-10,-4,18,-21,2,30,277,111,n,17.477383294277274,41.85500209520766,1362.2477958707627,-456.69602365163695,29.549109432569367
2025-02-19 13:41:35.949,823,-111,600,17,-4,9,-22,2,28,11,114,n,10.48121814413092,53.4463615329139,1626.2996544711873,-219.3429667634287,14.362341819304447
2025-02-19 13:41:36.061,668,-144,722,-21,-23,-2,-23,1,30,581,111,n,11.279407288036108,42.21863283644263,1339.9614666723173,-288.8539688634936,-4.281704996127473
2025-02-19 13:41:36.162,806,-130,555,35,8,24,-23,4,30,360,116,n,13.182965158540851,54.731162258994075,1622.4517568826886,-261.6857672391433,-7.196929367111693
2025-02-19 13:41:36.277,606,-235,674,-29,23,8,-21,3,29,515,60,n,19.22185953857062,40.330763200037616,1253.1991774771893,-485.97657872465265,-45.82218749113156
2025-02-19 13:41:36.383,841,-86,586,9,-16,-11,-23,4,30,487,76,n,8.348996339856463,54.844754821050905,1658.594911225005,-169.60661398971513,16.3084209538016
2025-02-19 13:41:37.299,774,-116,610,-1,-1,-2,-21,3,30,488,77,o,10.76703230246427,51.262118727616524,1554.016855783429,-232.9017509959661,-4.74196644430458
2025-02-19 13:41:37.399,776,-115,614,-1,-1,-1,-22,2,28,503,79,o,10.608386561674987,51.16608215872647,1554.9668927239177,-230.43968126707546,-2.3475156346462427
2025-02-19 13:41:37.502,779,-124,609,1,-5,0,-22,3,29,532,83,o,11.508812576075343,51.41670406681721,1560.702325662448,-248.43015196680815,-2.112601191823842
2025-02-19 13:41:37.609,782,-125,608,5,-4,0,-23,2,31,561,88,o,11.617679357078785,51.55903048422881,1565.2491034637642,-250.19966487592146,-0.9711699564819583
2025-02-19 13:41:37.719,776,-104,606,3,-8,-6,-22,2,29,592,99,o,9.738075167481496,51.6086482419959,1559.7872046286961,-209.04364598116544,-6.081244851790984
2025-02-19 13:41:37.829,777,-124,577,7,14,-14,-20,2,30,430,117,o,12.128659901169579,52.781356001103376,1573.3331398095024,-251.08534020125904,-14.356784646181154
2025-02-19 13:41:37.936,798,125,584,-3,-33,33,-20,2,30,285,118,o,-12.081356123096,53.18860834194508,1598.6122560888427,250.40918798384132,-1.9117262605066117
2025-02-19 13:41:38.042,711,-163,536,9,18,-44,-21,2,30,635,121,o,16.914751364266074,51.76345326961513,1496.4622748738038,-343.07081688386785,-56.13471073468202
2025-02-19 13:41:38.149,780,-19,586,-32,48,53,-22,3,30,587,70,o,1.8570624154023447,53.068663076854094,1579.356149569886,-38.47149595106133,-14.541927753786126
2025-02-19 13:41:38.259,668,-157,638,20,-35,-21,-21,4,30,536,58,o,13.824742843084742,45.47419231626668,1380.9346669139948,-324.5609920740976,-42.916642950791356
2025-02-19 13:41:39.177,782,-104,616,-2,0,-1,-22,4,31,448,76,p,9.582944723532572,51.379638203573,1563.2987084983984,-207.90673361104024,0.5524239961464446
2025-02-19 13:41:39.272,770,-107,617,1,-1,-1,-22,2,30,476,77,p,9.838372068883706,50.8799649690633,1545.8258266403145,-214.809562922745,-4.668227320875189
2025-02-19 13:41:39.377,777,-108,620,0,-1,-1,-21,0,30,564,81,p,9.881406120350205,50.99403432536908,1554.0804319872814,-216.0111797356839,-0.06417996411130389
2025-02-19 13:41:39.485,791,-102,613,3,-4,-3,-21,3,29,602,87,p,9.44716459475143,51.84598947376896,1577.3530164361323,-203.40076823828764,3.601265391467564
2025-02-19 13:41:39.589,790,-52,613,4,2,-10,-21,2,29,589,98,p,4.848719054580792,52.090817099567566,1578.985622076617,-103.933230820233,0.7871059076376241
2025-02-19 13:41:39.699,786,-258,585,-16,2,22,-21,1,29,451,113,p,23.798709202901073,50.87361568540665,1561.7559028991207,-512.6374337760473,7.6244234147765155
2025-02-19 13:41:39.802,795,-63,608,26,0,28,-22,5,31,343,120,p,5.915786326548434,52.44423279375685,1587.7604440872212,-125.82252575785529,1.7127672892696637
2025-02-19 13:41:39.917,807,-266,631,-29,-22,-28,-22,1,27,765,109,p,22.858005998869483,49.68392370832154,1569.4868206699534,-517.3277500597369,34.80522448235365
2025-02-19 13:41:40.021,785,-16,577,1,-5,44,-22,3,30,258,117,p,1.5883840762999901,53.672420223134026,1590.6432186621596,-32.420753501394344,-15.173423144033336
2025-02-19 13:41:40.131,645,-80,592,-33,54,30,-21,3,29,520,64,p,7.696051722016569,47.195007620245946,1378.6706596430513,-170.99791127355675,-81.3845434243201
2025-02-19 13:41:40.238,737,-130,636,18,-34,-18,-21,4,28,516,62,p,11.552269673389947,48.62637397654811,1487.4154004185427,-262.36635285537386,-11.57692627706001
2025-02-19 13:41:41.049,775,-102,616,-3,-1,-2,-23,5,28,584,77,q,9.401979123950918,51.14294286508418,1553.7135846823974,-204.4887556614252,-2.9517008572345276
2025-02-19 13:41:41.152,779,-96,618,0,-4,-2,-20,4,29,583,79,q,8.829744667909067,51.24113175902539,1558.7875933140358,-192.09705899633818,-0.6248172889269199
2025-02-19 13:41:41.257,770,-99,608,0,-2,-1,-21,3,28,582,80,q,9.248247700270804,51.339860298006826,1550.8651956583162,-199.39695372749782,-8.579271376956285
2025-02-19 13:41:41.365,774,-102,625,1,-4,-3,-24,5,28,600,81,q,9.268957123440192,50.710780342054356,1547.9593681997262,-203.9946454216693,0.03280991624183116
2025-02-19 13:41:41.474,701,-110,615,6,-21,-7,-21,3,30,746,96,q,10.140793146112793,48.291264844818194,1447.536754439057,-227.1455677436466,-39.95021965766068
2025-02-19 13:41:41.581,769,-121,628,-10,3,-19,-23,3,30,712,116,q,10.90582910761397,50.25087757100006,1537.8516259529051,-241.97665375851955,0.121168922725019
2025-02-19 13:41:41.692,866,102,545,-11,-21,40,-23,1,29,458,114,q,-10.600611698467379,57.37030059815792,1708.173010739293,201.19358786998598,14.9950452044867
2025-02-19 13:41:41.799,765,-177,640,-6,3,-22,-23,1,29,760,116,q,15.459448314559602,49.041812211660265,1520.1881453559681,-351.7298061804005,8.208610421151093
2025-02-19 13:41:41.905,866,93,552,-12,-19,42,-21,3,29,308,118,q,-9.563283829543064,57.12151169262188,1705.8237401254464,183.18892359314844,16.685098672925392
2025-02-19 13:41:42.011,804,-144,594,9,-5,-14,-20,3,30,719,118,q,13.626994859891541,52.75769681812916,1600.0833074100042,-286.58208490925443,5.848899749325369
2025-02-19 13:41:42.118,571,-218,674,-23,20,11,-22,5,27,624,51,q,17.923392956334972,38.87111796643506,1198.570675954773,-457.59791131022854,-66.77519368391756
2025-02-19 13:41:43.129,752,-135,629,-1,0,-3,-22,3,29,599,68,r,12.113418170537383,49.45353192131259,1511.8789995911354,-271.414448064898,-6.590280243117263
2025-02-19 13:41:43.232,758,-127,627,0,-1,-1,-21,3,30,618,70,r,11.450449125501988,49.83648366827888,1522.2068754853394,-255.03993824094738,-5.134183284047253
2025-02-19 13:41:43.339,743,-126,623,0,0,-2,-21,4,29,645,71,r,11.433681265426673,49.45401925079002,1502.8845286901433,-254.8633251883689,-14.157552320268223
2025-02-19 13:41:43.443,769,-106,625,2,-3,-6,-21,2,30,651,81,r,9.62576926845338,50.4995389186962,1540.619464595216,-212.36107054238352,-2.1289536697138374
2025-02-19 13:41:43.556,672,-120,610,15,-17,-24,-23,2,29,674,105,r,11.129189289611187,47.226982551852515,1406.0497553909036,-251.0803134626614,-56.324926768528485
2025-02-19 13:41:43.659,790,-262,658,-4,-6,26,-21,1,31,595,115,r,21.711274616533498,48.123455961886506,1534.5848836574219,-508.93827787119557,37.826767789134806
2025-02-19 13:41:43.768,799,-105,643,-6,-9,9,-21,3,31,334,121,r,9.274373062929884,50.80567662634027,1574.0071037220955,-206.84699110240302,19.30842591576061
2025-02-19 13:41:43.879,830,35,631,-17,-22,13,-23,0,30,696,118,r,-3.174801086302754,52.71400786940391,1625.6216112099219,68.55030890644247,26.135859429565585
2025-02-19 13:41:43.979,646,-237,641,-21,45,26,-23,2,29,632,60,r,20.291106870370882,43.38808116129224,1332.9363517120196,-489.0184448231403,-40.619506884527254
2025-02-19 13:41:44.999,776,-119,611,-2,-1,-1,-22,2,28,634,83,s,11.021109314845653,51.26461252499004,1556.0440911678284,-238.62016346516953,-3.184200648895626
2025-02-19 13:41:45.095,771,-115,610,-1,-2,0,-22,2,29,641,84,s,10.676355682695801,51.1618535276398,1549.9206109847132,-231.18141408980804,-6.266631258981647
2025-02-19 13:41:45.199,754,-137,611,1,-4,0,-23,2,30,647,87,s,12.637980203852,50.29154218549727,1523.3052538603067,-276.78092808867643,-12.402533300593404
2025-02-19 13:41:45.310,707,-135,585,14,-27,-16,-21,2,30,742,113,s,12.994616791916505,49.6625325767198,1469.2452114832267,-280.5489442011819,-45.71209153845484
2025-02-19 13:41:45.419,753,-163,655,2,5,-20,-22,1,31,622,119,s,13.974480165030299,48.12746333631159,1497.6315699835127,-324.18850718102595,7.279311634527517
2025-02-19 13:41:45.526,747,9,631,-6,-27,46,-22,2,32,574,117,s,-0.8171585609098893,49.80893980446842,1510.896729468959,18.203575053842876,-14.272873219428334
2025-02-19 13:41:45.636,696,-25,571,29,58,-15,-21,2,30,468,118,s,2.5069706990923604,50.60756202666857,1468.8173399367006,-52.759243532209084,-63.02112227565544
2025-02-19 13:41:45.742,523,-236,738,-19,27,28,-20,6,27,491,42,s,17.733402910576782,34.019305672297286,1082.4722138973862,-488.4578250091456,-51.4655714269046
2025-02-19 13:41:45.849,810,-134,648,3,-18,-15,-21,6,27,527,48,s,11.683521473937445,50.75372680491692,1584.4337967724452,-262.1162083549478,28.45296258204371
2025-02-19 13:41:46.960,754,-101,650,3,-4,-5,-22,4,28,154,58,t,8.832251556723195,48.8981014690012,1507.541609353656,-201.93859753941544,0.39516435029668173
2025-02-19 13:41:47.059,732,-79,653,-1,0,-7,-22,5,26,132,59,t,6.898124951516251,48.05773511202418,1475.8187094360142,-159.2755164555261,-10.543192980487902
2025-02-19 13:41:47.169,755,-48,642,-2,-9,-18,-21,2,27,177,68,t,4.275841112628942,49.54562345393839,1515.9228666324912,-96.37655311041003,-5.036397851734137
2025-02-19 13:41:47.279,784,-101,649,-9,-3,-12,-22,3,27,460,79,t,8.845645516291412,50.04472122961517,1550.5459264689302,-199.75145226194127,14.448588930694427
2025-02-19 13:41:47.385,741,-42,638,-13,-1,-7,-23,2,26,596,83,t,3.7663879709667825,49.21032963330315,1498.1128460087562,-84.91327872114408,-13.87313866880777
2025-02-19 13:41:47.491,696,-43,629,-9,-8,-21,-21,2,27,665,92,t,3.910796885502822,47.82830191813326,1437.1363101105035,-88.78859387176962,-40.79129175216474
2025-02-19 13:41:47.602,728,-289,686,35,17,16,-22,1,29,519,103,t,22.844854968765297,44.36222119876703,1427.192090555163,-566.5638930912667,27.14591466917318
2025-02-19 13:41:47.708,821,46,625,-11,-18,26,-21,3,26,646,107,t,-4.209379640095126,52.64457053870038,1615.8868593998027,90.53690077026909,19.87906562134401
2025-02-19 13:41:47.815,606,-86,638,-24,4,-40,-21,2,27,514,96,t,7.676981734532007,43.26895254590486,1291.4238865377672,-183.2713766373729,-83.6178871470222
2025-02-19 13:41:47.925,875,94,619,-44,-52,10,-22,2,29,543,104,t,-8.634840912383012,54.41480129996354,1688.2511145664619,181.36640545056846,43.68292580955472
2025-02-19 13:41:48.028,952,33,620,5,49,17,-22,0,29,768,103,t,-3.0467391176302314,56.88831857412383,1789.6073603016227,62.03470891801844,74.49940820692632
2025-02-19 13:41:48.139,602,-164,685,12,-15,-5,-21,2,26,511,56,t,13.46409388950463,40.51979333002809,1251.7106984881825,-340.99759892369093,-54.288751602001525
2025-02-19 13:41:49.149,752,-99,639,0,-2,-1,-20,2,29,516,77,u,8.806792694435307,49.30869407840765,1510.233277072486,-198.82060429544697,-5.296627725157464
2025-02-19 13:41:49.253,746,-108,645,-6,0,-1,-21,2,28,535,78,u,9.505531686646261,48.76064191991327,1497.9622591209295,-216.86316888077798,-5.155036371312917
2025-02-19 13:41:49.359,771,-99,640,0,-1,-3,-20,3,29,528,81,u,8.79324730203697,49.970970897499996,1536.7186742728059,-197.32185311674158,4.383979851367599
2025-02-19 13:41:49.465,744,-74,631,-4,-4,-7,-22,2,29,537,88,u,6.688762499001344,49.50497438241285,1504.4623473924385,-149.6373840148393,-13.962017748156882
2025-02-19 13:41:49.572,806,-61,573,-2,6,-4,-23,1,27,251,110,u,6.0766637636043885,54.437687607868085,1619.4834898011836,-122.56636833482901,-5.3201484566724275
2025-02-19 13:41:49.679,794,-71,632,1,-20,1,-21,4,30,639,112,u,6.409834089906468,51.306079911948586,1574.4967502447066,-140.79253056344353,10.748178646530732
2025-02-19 13:41:49.789,783,-150,565,-7,3,-24,-22,1,30,674,113,u,14.86828135849821,53.25570076188228,1584.3133402663952,-303.5083027330259,-13.214606961064078
2025-02-19 13:41:49.896,920,-51,584,4,-14,8,-22,3,30,671,116,u,4.9909080758664714,57.494772410379895,1763.342419811203,-97.75050370692537,48.66089872854093
2025-02-19 13:41:50.002,524,-247,701,-11,21,6,-22,5,27,630,47,u,19.410101966014572,35.18454515603288,1100.2118802431037,-518.6113252290965,-69.84833597407555
2025-02-19 13:41:51.124,760,-141,628,-2,-2,-2,-20,3,29,498,74,v,12.65432910147666,49.73916674039383,1523.110289571432,-282.57704056522624,-2.570081382709759
2025-02-19 13:41:51.219,760,-121,622,-1,-2,-2,-22,1,28,542,78,v,11.008471853890011,50.17989777944855,1528.0588938651094,-243.28306073378718,-6.595568400129082
2025-02-19 13:41:51.325,767,-126,617,-2,-2,-3,-21,4,30,592,83,v,11.54189792531842,50.61279658416993,1539.875316540108,-252.9651758592616,-4.726297660034788
2025-02-19 13:41:51.432,777,-123,614,-5,-2,-2,-21,3,27,618,88,v,11.327876657433867,51.134008641817616,1555.6157469044563,-246.2557746064969,-1.276793564138984
2025-02-19 13:41:51.534,772,-131,626,5,-12,4,-23,2,28,738,92,v,11.819449127186289,50.360099947714545,1542.0691620184134,-261.6723578036426,1.56567950320391
2025-02-19 13:41:51.645,767,-132,614,4,-1,-4,-22,4,30,728,90,v,12.132988240942069,50.68897787112066,1540.7183503848303,-265.15622196974914,-5.378184010802784
2025-02-19 13:41:51.751,766,-132,611,1,0,-2,-21,3,29,655,91,v,12.190783433213968,50.78375919999533,1540.7653054345465,-265.5104703881986,-6.991647024161807
2025-02-19 13:41:51.862,812,-86,600,0,-1,-3,-22,3,30,663,102,v,8.15683860023829,53.259838823409844,1613.356545095439,-170.87273753473863,7.8646218506607966
2025-02-19 13:41:51.959,774,-90,613,4,6,-10,-21,2,31,668,104,v,8.352431357345598,51.32342138389416,1554.6859289840681,-180.77743360279862,-5.295186650172809
2025-02-19 13:41:52.079,849,-104,588,-12,0,-14,-23,3,29,551,116,v,10.030213319732836,54.880162133582814,1666.9505808217036,-204.19653758004375,21.504191374367906
2025-02-19 13:41:52.183,790,21,601,-16,-40,56,-21,2,30,395,116,v,-2.001201415122188,52.72074702351663,1585.6928594442986,42.15132917510161,-4.330896868384002
2025-02-19 13:41:52.291,803,-269,595,-6,4,-49,-22,2,30,687,122,v,24.32776577970897,50.882730018932406,1578.8562747560995,-528.907021057772,20.11272293912907
2025-02-19 13:41:52.398,802,15,563,-39,60,45,-22,2,29,675,76,v,-1.52616948955638,54.92177625511104,1620.3681990510465,30.30613838624152,-11.490394096931823
2025-02-19 13:41:52.509,760,-132,628,22,-28,-16,-21,4,27,563,69,v,11.87026453158791,49.823190829664824,1524.0572191494239,-264.7046749049,-3.352544244524097
2025-02-19 13:41:52.611,762,-115,609,-6,1,2,-21,3,29,548,82,v,10.693482684366518,50.877263274440786,1537.7960744332147,-232.08208472417283,-11.025996495837035
2025-02-19 13:41:52.718,781,-116,607,-3,-1,1,-23,3,30,527,85,v,10.818993665009982,51.6463640215902,1565.195836469578,-232.47466969330486,-2.4838319296208056
2025-02-19 13:41:52.829,799,-125,601,-2,-2,1,-21,2,30,564,90,v,11.749252525148158,52.465385013538835,1591.985415061554,-249.05904490950473,4.5241120751014705
2025-02-19 13:41:52.935,782,-118,610,-2,-1,-2,-21,1,29,531,93,v,10.948221499620725,51.5324408282573,1564.960498718512,-236.1449345892384,-0.7492381308086351
2025-02-19 13:41:53.042,790,-121,609,-1,-1,0,-21,4,30,535,96,v,11.237543656550631,51.83425904954091,1576.2265195908124,-241.42203654492187,2.9089235053106677
2025-02-19 13:41:53.140,784,-117,608,-1,0,0,-21,3,30,544,93,v,10.892517328462045,51.70048708349258,1568.7816393768476,-234.1166477131265,-0.6061693126573573
2025-02-19 13:41:53.255,770,-123,611,-2,0,0,-21,5,29,553,91,v,11.382047954519859,51.012411772043635,1547.2822705617423,-247.16327179103155,-5.778528978213558
2025-02-19 13:41:53.362,773,-121,611,-2,0,-1,-21,3,30,547,90,v,11.201691205724611,51.13891677284588,1551.6694976959022,-242.88746341682298,-4.481323534535818
2025-02-19 13:41:53.469,773,-125,603,-1,-1,-1,-23,2,29,545,90,v,11.711361303360183,51.45699725943908,1555.1407147028176,-251.478123334867,-7.1304669673984336
2025-02-19 13:41:53.578,783,-121,606,1,-2,0,-23,4,31,540,91,v,11.291749110773775,51.71866976365165,1567.9782831491898,-242.30571169993868,-1.53108504266811
2025-02-19 13:41:53.683,769,-126,608,-1,-1,-1,-21,3,31,533,91,v,11.70806477392069,51.081327383551475,1547.0384548965048,-253.48094319500598,-7.146138591774957
