Timestamp,Acc_X,Acc_Y,Acc_Z,Gyro_X,Gyro_Y,Gyro_Z,Mag_X,Mag_Y,Mag_Z,Force,IR_A,Letter,Roll,Pitch,Lin_Acc_X,Lin_Acc_Y,Lin_Acc_Z
2025-02-19 14:27:05.839,30,314,942,-1,-1,-1,0,0,-1,0,14,noise,-18.43494882292201,1.7305420144792265,60.19906393747787,630.083535878935,-6.250607636805171
2025-02-19 14:27:05.933,28,314,945,-1,-1,-1,0,1,1,0,15,noise,-18.38036410188762,1.6106211233649397,56.10693954137761,629.1992505711632,-3.6092095214943356
2025-02-19 14:27:06.038,30,314,942,-1,-1,-1,-1,1,1,0,14,noise,-18.43494882292201,1.7305420144792265,60.19906393747787,630.083535878935,-6.250607636805171
2025-02-19 14:27:06.146,30,311,944,-1,-1,0,0,0,-1,0,15,noise,-18.234423528184077,1.7288806295402017,60.17008051269999,623.7631679816566,-5.351866799626237
2025-02-19 14:27:06.248,28,316,945,-1,-1,-1,-2,-1,1,0,14,noise,-18.489498898010332,1.609599370193987,56.08911362534373,633.0057109145937,-3.0075848553510696
2025-02-19 14:27:06.359,29,313,946,-1,-1,-1,2,-1,0,0,14,noise,-18.307665485310388,1.667049827067977,58.09140332391864,626.9865255305701,-2.981639463001329
2025-02-19 14:27:06.466,29,312,947,-1,-1,-1,1,0,-2,0,14,noise,-18.235059505555032,1.665986961680268,58.07286066978945,624.7838803094589,-2.3792777341589044
2025-02-19 14:27:06.566,32,315,945,-1,0,-1,0,-1,1,0,14,noise,-18.43494882292201,1.839978408293076,64.10816192970884,631.0647189955714,-3.194156986714347
2025-02-19 14:27:06.679,28,315,954,-1,-1,-1,-1,-1,1,0,14,noise,-18.272638266985318,1.5964278622319767,55.85931741155537,628.417320879998,4.79325676343467
2025-02-19 14:27:06.789,31,318,954,-1,-1,-1,-1,0,-1,0,13,noise,-18.43494882292201,1.7657112748916985,61.812597639113996,634.0776144915565,5.76715652533062
2025-02-19 14:27:06.896,28,319,947,-1,-1,-1,1,0,1,0,11,noise,-18.616263975621013,1.6050101641519643,56.00904838417821,638.1030869483161,-0.306029279170275
2025-02-19 14:27:06.996,32,309,944,-1,-1,0,0,0,-1,0,10,noise,-18.124850529004714,1.8452199061494974,64.19959602275485,619.9273490947264,-5.888082671267739
2025-02-19 14:27:07.113,28,312,942,-1,-1,-1,-1,0,-1,0,11,noise,-18.325396796745498,1.6162618134962885,56.20534912499876,626.288175964272,-6.9085312767441565
2025-02-19 14:27:07.214,31,312,946,-1,0,0,1,0,2,0,11,noise,-18.253058070424828,1.7825077988513711,62.105611760963946,625.0629312716371,-3.2228621248997342
2025-02-19 14:27:07.322,31,310,945,0,-1,-1,1,1,0,0,12,noise,-18.161680086517165,1.7853285395695724,62.15481911330873,621.5481911330874,-4.719485873443659
2025-02-19 14:27:07.428,31,308,946,1,-1,0,-1,0,-1,0,11,noise,-18.034285567129857,1.7847380915996478,62.14451885299237,617.4358647329564,-4.41015596550892
2025-02-19 14:27:07.539,30,299,952,-1,-1,-1,0,0,2,0,13,noise,-17.436232908198377,1.7220578784386735,60.05105503572614,598.5088485227371,-1.620146467042673
2025-02-19 14:27:07.645,26,311,941,-1,-1,0,2,1,-1,0,12,noise,-18.28869316225354,1.5027819452199354,52.225485742417305,624.6971563804532,-8.160849369795528
2025-02-19 14:27:07.746,35,301,953,-1,-1,-1,0,1,-2,0,12,noise,-17.52844567897396,2.0057268206523586,69.99938751607766,601.9947326382678,0.016677062228495743
2025-02-19 14:27:07.857,27,293,961,0,-1,-1,0,-1,1,0,12,noise,-16.955978299618994,1.5394184207276056,53.86468753225613,584.5316091463351,4.816121537105801
2025-02-19 14:27:07.963,34,318,939,3,0,-1,1,-1,0,0,13,noise,-18.709089216655233,1.9642142197285983,68.27529072188241,638.5747779281944,-7.60288199551735
2025-02-19 14:27:08.066,32,319,946,-2,-1,0,1,2,-1,0,12,noise,-18.63458487744639,1.8358902919673319,64.03684754656831,638.3673239798529,-1.0893055954256852
2025-02-19 14:27:08.177,34,326,948,-11,0,0,0,-1,1,0,12,noise,-18.977163987868366,1.9424793204656685,67.89616560230643,651.004411363291,2.895147323926949
2025-02-19 14:27:08.284,32,304,950,5,0,-1,0,1,-3,0,11,noise,-17.744671625056935,1.8375132224758255,64.06515847482032,608.6190055107932,-1.9343922212287907
2025-02-19 14:27:08.396,34,316,945,-3,-1,-1,0,1,0,0,12,noise,-18.489498898010332,1.9542696452480897,68.10182662107626,632.9463885958851,-2.8301810857957435
2025-02-19 14:27:18.516,747,-176,628,3,-1,-4,-20,8,31,754,80,A,15.65578195884993,48.87619884291625,1500.2902479882405,-353.48203968665365,-5.288187063741475
2025-02-19 14:27:18.609,747,-175,631,-5,3,-3,-19,5,29,769,80,A,15.500692466417275,48.76231057922424,1498.9814572579226,-351.16700805908494,-4.20789763018638
2025-02-19 14:27:18.717,772,-164,633,0,-3,-6,-20,6,31,775,86,A,14.525030916003187,49.73471624064016,1535.0600878160546,-326.1008476707681,7.330264782950053
2025-02-19 14:27:18.823,754,-153,616,0,1,-1,-20,6,29,780,85,A,13.948668787154983,49.909359743059504,1519.026613674383,-308.2374958782236,-9.008480137161541
2025-02-19 14:27:18.934,758,-161,625,-4,3,0,-20,5,30,789,79,A,14.445338286146882,49.58706260911325,1519.3919426067425,-322.7204521895587,-2.7967864501503072
2025-02-19 14:27:19.040,735,-172,634,-5,-1,-2,-21,7,31,799,78,A,15.178622380668802,48.210780335009716,1480.6013961309332,-346.48087093132034,-9.14460564219246
2025-02-19 14:27:19.146,803,-128,623,-8,0,0,-20,4,31,808,82,A,11.610277626666937,51.6191377574187,1586.900887447307,-252.9555586466442,14.817866899536625
2025-02-19 14:27:19.253,743,-142,638,-7,2,-2,-21,5,30,830,76,A,12.547823898135677,48.662154500049816,1493.8280196823719,-285.49606836459867,-6.721771947985417
2025-02-19 14:27:19.359,772,-164,614,1,-18,-12,-21,6,31,828,91,A,14.954646765153058,50.53814349517222,1544.047868451812,-328.0101689457217,-0.0380715406897707
2025-02-19 14:27:19.467,749,-158,620,-9,7,0,-18,5,31,821,96,A,14.296874480756193,49.49517181286777,1509.3512353664514,-318.3945196100125,-9.39621619118816
2025-02-19 14:27:19.576,775,-141,604,-2,-1,-4,-19,4,30,824,101,A,13.140019666453247,51.32939824028908,1555.7511141538394,-283.046331736376,-4.482158643766638
2025-02-19 14:27:19.683,882,-188,616,1,-2,-6,-21,7,32,827,109,A,16.97191691434765,53.86251810645122,1689.6042691160576,-360.1424065689555,51.958923157039294
2025-02-19 14:27:19.791,781,-189,590,0,0,-15,-21,3,31,806,111,A,17.762288086041927,51.576581628519136,1564.4395115756392,-378.59035555415596,-1.8429088727618819
2025-02-19 14:27:19.900,911,200,528,-6,-12,37,-20,5,30,0,113,A,-20.746080275683415,58.21064665137713,1760.9905967760783,386.606058567745,35.3600053811532
2025-02-19 14:27:20.007,878,-44,577,9,43,-46,-19,7,31,716,104,A,4.3607359904323975,56.61178700761276,1712.961091645914,-85.84315265651506,28.284111754336664
2025-02-19 14:27:20.112,776,-174,553,2,3,-17,-20,4,30,740,109,A,17.46604546602565,53.23759675203469,1577.1242700950315,-353.6335347893498,-17.904280106381975
2025-02-19 14:27:20.220,854,1,559,12,-20,43,-20,7,32,244,117,A,-0.10249681286938368,56.79253371189108,1690.6929526734186,1.9797341366199281,11.328617629460041
2025-02-19 14:27:20.326,592,-325,489,-31,-18,-55,-18,7,33,452,109,A,33.60887375012734,45.23562733645586,1302.0087509749928,-714.78520957242,-97.47682301819509
2025-02-19 14:27:20.437,736,-58,638,71,-40,9,-20,5,31,772,115,A,5.194428907734806,48.962956276208786,1490.2852574254484,-117.44095778624457,-15.850535648690197
2025-02-19 14:27:20.543,1031,-63,619,-38,74,15,-20,7,32,823,93,A,5.8113852252193885,58.889457981562956,1887.1720316256765,-115.31701066189878,104.96460952832797
2025-02-19 14:27:21.459,763,-163,619,-3,2,-5,-19,5,31,770,82,B,14.752674760616735,50.00579362253222,1529.1094364643018,-326.6642701752047,-2.522596554918323
2025-02-19 14:27:21.559,748,-117,625,-1,-1,-4,-22,6,28,784,87,B,10.603049408729145,49.6329331147215,1509.910715386456,-236.17587393076917,-11.62325817718579
2025-02-19 14:27:21.665,796,-100,620,-4,1,-9,-20,5,31,787,96,B,9.16234704572171,51.727946941930725,1581.0785843995136,-198.6279628642605,8.506630241584844
2025-02-19 14:27:21.766,791,-238,511,3,4,-32,-20,4,31,669,105,B,24.973910905883407,54.524411714770594,1605.3628615431362,-483.0295335616516,-15.092822058840056
2025-02-19 14:27:21.878,817,107,560,13,-1,26,-20,6,31,0,114,B,-10.817204859070017,55.09134039612756,1637.0653931807697,214.40146520237735,-2.1011262928160477
2025-02-19 14:27:21.993,613,-444,661,-21,-22,-45,-20,5,31,780,102,B,33.88963404569414,37.59025100168757,1223.0103453076001,-885.8345731102356,3.223754896698779
2025-02-19 14:27:22.096,671,-139,762,15,-8,-9,-18,3,30,798,104,B,10.337927169197044,40.90181239907613,1325.764722797072,-274.63680546764976,18.437080817632136
2025-02-19 14:27:22.202,921,-13,444,-2,13,10,-21,5,30,538,90,B,1.6770999934302866,64.25239174446051,1821.7163739405862,-25.713694746175484,9.778425592160431
2025-02-19 14:27:22.309,667,-77,778,-10,-19,26,-17,5,31,493,88,B,5.652254575999861,40.469422935042296,1316.0421496659255,-151.9269048339974,20.94633817077954
2025-02-19 14:27:22.419,896,-132,500,39,31,-16,-21,6,30,229,103,B,14.788677614165174,60.00840788055162,1762.0987670589834,-259.5949076470824,16.68595588226367
2025-02-19 14:27:22.526,483,-262,718,-10,12,6,-18,9,27,487,40,B,20.047152749989717,32.29057307445997,1017.2132704770148,-551.7802833643435,-76.13070021220858
2025-02-19 14:27:22.626,953,-58,649,3,-9,-12,-18,7,28,552,42,B,5.10685726901362,55.63874699236371,1778.4953756242774,-108.24001236747964,86.83158575009861
2025-02-19 14:27:23.646,771,-110,643,-5,-5,-4,-20,5,29,712,5,C,9.707791535736497,49.7655232962892,1534.4074978378048,-218.91676363444688,6.332008936824309
2025-02-19 14:27:23.746,749,-106,621,2,-7,-6,-20,7,29,740,5,C,9.686599948929743,49.93290523864807,1514.291198016378,-214.30556340418704,-13.507121452831598
2025-02-19 14:27:23.849,781,-86,602,-3,0,-3,-18,3,29,757,6,C,8.13010235415598,52.09452255928963,1570.0253559477774,-172.88371397120216,-6.185997798414974
2025-02-19 14:27:23.960,688,-102,625,4,-22,-18,-20,4,30,781,5,C,9.268957123440192,47.37203252212689,1423.766599646305,-211.08167611035333,-43.392623225204375
2025-02-19 14:27:24.066,741,-230,603,34,23,-9,-19,4,31,446,4,C,20.878161732432634,48.945714383851545,1495.0876500857494,-464.0622935488831,-10.650273956419596
2025-02-19 14:27:24.176,970,145,569,23,-30,41,-18,5,30,0,105,C,-14.296569464495379,58.81158665080551,1825.469000788316,272.8793867157792,67.18364799118365
2025-02-19 14:27:24.276,979,-22,671,-28,13,31,-18,5,30,724,100,C,1.8778774472853594,55.559168724315924,1803.710670595487,-40.532824058325545,105.74886622107067
2025-02-19 14:27:24.389,566,-254,648,-18,26,6,-18,8,30,454,39,C,21.403953143717736,39.118527682517886,1196.9267238520665,-537.1367276650617,-74.33306900377943
2025-02-19 14:27:24.496,823,-135,646,12,-19,-13,-17,7,28,637,50,C,11.80370259925401,51.274229842041905,1603.1491104523056,-262.970996246733,33.635084626744174
2025-02-19 14:27:24.606,721,-157,646,-3,-3,-4,-20,8,30,673,54,C,13.659990565186545,47.322118978247936,1456.1763432406574,-317.0869429802819,-12.701688950713901
2025-02-19 14:27:24.712,774,-117,622,-2,-3,-3,-20,8,30,717,63,C,10.653021736236303,50.726753379061954,1548.1358727695529,-234.02053890702547,-0.1091897450412489
2025-02-19 14:27:24.816,753,-138,635,2,-6,-4,-19,6,29,744,66,C,12.261027681509177,49.2065358676977,1510.0695879899533,-276.7458209065253,-3.4318570698808344
2025-02-19 14:27:24.925,753,-128,630,-1,0,-1,-21,7,31,747,68,C,11.48472076497436,49.51104820079256,1513.5311828930953,-257.2802010761171,-6.300989671514003
2025-02-19 14:27:25.032,769,-123,632,-3,1,-1,-20,7,30,748,69,C,11.013246654309965,50.061691722847314,1535.7361035783656,-245.63789433047987,1.8605754726564783
2025-02-19 14:27:25.142,760,-136,627,-1,-2,-1,-21,5,31,751,69,C,12.238214531291847,49.82946740774364,1524.1278886154946,-272.738674804878,-3.4055081077829072
2025-02-19 14:27:26.458,752,-134,629,-2,-1,-2,-19,5,29,730,67,D,12.026310804767066,49.46273252503539,1511.9833776956411,-269.4225699617233,-6.6775858651039925
2025-02-19 14:27:26.556,756,-132,629,-2,-1,-2,-20,7,31,734,69,D,11.851927037679776,49.63100530117969,1517.8889225950288,-265.02822458008444,-4.899645915705378
2025-02-19 14:27:26.663,754,-130,627,-2,0,-2,-21,5,29,740,70,D,11.713540783777097,49.66039492592236,1516.2210612419055,-261.41742435205276,-6.836346682592648
2025-02-19 14:27:26.770,747,-120,632,-2,0,-1,-21,5,30,736,70,D,10.750966993188051,49.266063996422105,1504.7479686160073,-241.7265813037763,-9.093328199888333
2025-02-19 14:27:26.880,743,-146,632,-7,-2,-5,-20,7,31,717,72,D,13.007858247542346,48.87878937612884,1496.3199834956554,-294.02788370170356,-8.778236297785156
2025-02-19 14:27:26.983,764,-129,629,-1,-1,0,-19,5,29,729,73,D,11.589934054445363,49.955150629572785,1529.54105415104,-258.2602041694819,-1.2687474620473722
2025-02-19 14:27:27.091,737,-113,607,-5,-3,1,-22,7,31,782,72,D,10.545548747618497,50.04509809858849,1503.5501505207922,-230.53075577862893,-24.337776616174892
2025-02-19 14:27:27.196,752,-155,615,-3,-4,0,-19,5,31,737,75,D,14.145795494102995,49.855938262265035,1516.4258292836234,-312.561174918832,-10.162081129559283
2025-02-19 14:27:27.306,772,-139,616,-1,0,-2,-21,3,31,721,81,D,12.71579086718235,50.71719286300749,1546.0302347919655,-278.36554745606634,-1.6199800930710353
2025-02-19 14:27:27.412,723,-134,621,-3,-5,-7,-20,5,32,716,85,D,12.17664412918092,48.69455154971621,1474.2013683065002,-273.22680961697233,-24.222752030894412
2025-02-19 14:27:27.523,812,-130,606,-7,-4,-19,-21,6,32,706,109,D,12.107670256760349,52.646065061380305,1606.9026860038905,-257.2627452961894,12.759818080840432
2025-02-19 14:27:27.626,726,25,579,-25,-29,50,-20,3,29,0,112,D,-2.4723753540793716,51.40090204412148,1507.5302944576865,51.912200222372135,-44.28655715013849
2025-02-19 14:27:27.736,741,-94,489,35,28,-59,-20,5,33,442,109,D,10.881181197604493,56.09885615578095,1571.001150191525,-199.29029435627984,-58.73355255554077
2025-02-19 14:27:27.846,829,-53,632,4,-25,-10,-19,3,32,717,107,D,4.793651262167191,52.582554475642894,1623.2296488003979,-103.77704630448866,26.507674255908796
2025-02-19 14:27:27.953,862,161,560,-26,-21,60,-19,5,33,0,101,D,-16.039943306049665,55.94257008534171,1690.4766541570775,315.73867902469783,21.778507740181567
2025-02-19 14:27:28.057,761,-132,531,-41,70,45,-20,7,30,221,61,D,13.960052316675913,54.28377294248831,1572.9182263614762,-272.8320708012021,-35.52901208665401
2025-02-19 14:27:28.166,593,-271,678,23,-23,-21,-20,9,28,485,42,D,21.786837823514126,39.08203063016054,1223.432389121574,-559.1065387048004,-42.79790864152994
2025-02-19 14:27:28.984,766,-120,617,-1,0,-2,-20,5,29,760,84,E,11.006026353201747,50.62852659990096,1539.049499299697,-241.10436020360788,-5.678252046883927
2025-02-19 14:27:29.080,774,-114,629,-5,0,-1,-18,4,30,732,85,E,10.27277943446873,50.446672528795965,1545.0322258393035,-227.5628859763315,2.411795797258719
2025-02-19 14:27:29.186,758,-135,612,-10,1,-3,-19,5,32,630,84,E,12.43956201884655,50.416126880635574,1528.6926261753442,-272.2605600708067,-10.247872320990382
2025-02-19 14:27:29.296,643,-198,619,-7,-25,-30,-21,5,30,663,104,E,17.737954258358936,44.694394411159216,1346.3251576798318,-414.57602056081913,-58.07351882397495
2025-02-19 14:27:29.403,799,-173,729,-24,-31,83,-19,3,31,0,109,E,13.349988218200192,46.84059671562043,1528.453477751295,-330.94174174089363,63.453585380858726
2025-02-19 14:27:29.513,674,-107,551,65,29,-73,-20,5,31,415,110,E,10.989623975775176,50.21317298210078,1442.4306721302864,-228.9912194628199,-77.19777499078305
2025-02-19 14:27:29.620,858,-100,538,-23,-2,-20,-21,3,30,155,109,E,10.52960809915056,57.471106379904036,1701.1203844075033,-198.2657790684736,9.330108611612104
2025-02-19 14:27:29.726,741,-68,656,27,-14,10,-20,2,32,807,109,E,5.918060352107625,48.3298398966258,1487.984535937051,-136.54918818315718,-5.298050708104483
2025-02-19 14:27:29.832,561,-66,426,-28,1,-10,-19,6,31,272,93,E,8.806792694435307,52.46068503940065,1353.935436371388,-159.28652192604568,-176.1220960681128
2025-02-19 14:27:29.939,708,-20,628,32,-27,8,-20,3,31,756,6,E,1.8240898323761097,48.412375926484955,1455.941481556217,-41.12829043944116,-35.428319798452435
2025-02-19 14:27:30.045,725,-18,568,-61,53,24,-17,5,31,446,7,E,1.8151038701216524,51.90917614162096,1512.0338325606804,-37.54015032564448,-48.600299164781404
2025-02-19 14:27:30.152,888,73,587,35,-54,15,-18,6,31,559,105,E,-7.088973716092786,56.33130013319923,1720.2571041475185,141.4175322103253,36.8480629114938
2025-02-19 14:27:30.258,813,57,438,-98,90,45,-20,8,32,573,61,E,-7.414630290974722,61.48528728392967,1691.6945563160616,118.60589140223311,-35.3926391961071
2025-02-19 14:27:30.366,666,-149,646,22,-30,-36,-18,7,29,692,6,E,12.988139032813175,45.13103019813979,1374.722019132662,-307.5579292053553,-41.43907561516471
2025-02-19 14:27:31.385,753,-88,627,-1,2,-4,-20,5,30,744,6,F,7.989326766396897,49.941855305426785,1518.3917373905197,-177.4481711691444,-10.318219580153823
2025-02-19 14:27:31.479,785,-86,617,-2,0,-1,-21,6,32,751,5,F,7.9349982972106865,51.56499080413971,1568.313773772768,-171.81526693561534,1.3253523340156335
2025-02-19 14:27:31.586,736,-66,621,-7,1,-9,-21,4,29,747,5,F,6.066633073605119,49.685331830523985,1498.502721442314,-134.3766027380336,-22.36167121695246
2025-02-19 14:27:31.696,772,-73,614,-3,2,-4,-20,5,30,730,4,F,6.780211407067351,51.30742673642811,1552.5114453623116,-146.80483874539993,-6.769465611994065
2025-02-19 14:27:31.803,732,70,617,-43,-38,57,-19,5,31,0,6,F,-6.472655520869884,49.691943055750855,1494.5773704442147,142.924065479638,-25.773548584809305
2025-02-19 14:27:31.910,751,-35,536,43,29,-45,-19,6,32,375,6,F,3.7360249042845113,54.426322153855025,1564.3681073283278,-72.90663616044138,-44.51305662847369
2025-02-19 14:27:32.016,853,-96,428,2,-2,-20,-20,5,31,265,4,F,12.642152327889852,62.78662261323564,1742.3096260800216,-196.08642919540688,-18.218663496188924
2025-02-19 14:27:32.123,728,-43,679,17,-8,10,-19,5,31,831,6,F,3.6236124439972692,46.93737311509674,1458.607809745321,-86.15403271847362,-2.432284089385803
2025-02-19 14:27:32.233,645,-145,459,-17,-4,-7,-18,5,30,264,5,F,17.531542284608644,53.26630549233077,1446.4240541662928,-325.1650974482364,-111.31572226717583
2025-02-19 14:27:32.340,738,47,608,14,-28,14,-19,5,30,742,103,F,-4.4203236835557655,50.43286957983406,1508.8787948824177,96.09390699115667,-27.087137247303417
2025-02-19 14:27:32.449,721,-44,461,-68,57,23,-18,6,31,535,64,F,5.452062152555835,57.28755119143884,1562.3933826118077,-95.34716898047091,-76.97829318175206
2025-02-19 14:27:32.556,754,-94,645,21,-32,-25,-18,6,27,573,6,F,8.291708593784517,49.157428113966645,1510.509342433461,-188.31283579409194,-2.14658603392877
2025-02-19 14:27:33.274,788,-63,612,-6,-2,-10,-19,4,33,709,5,G,5.877392606643136,52.01892158989529,1576.2140291673236,-126.01711146896113,-0.1662256984797068
2025-02-19 14:27:33.368,777,-55,607,-6,-3,-4,-21,4,32,729,5,G,5.177406989188339,51.88900350798485,1563.8165828633116,-110.69486751284703,-7.668810550875492
2025-02-19 14:27:33.474,783,-76,609,-2,-6,-5,-20,4,29,743,5,G,7.113436765487691,51.91026722754879,1570.0455802578185,-152.39267445669756,-3.1465624227477065
2025-02-19 14:27:33.584,764,-122,627,-10,5,-22,-22,3,32,608,5,G,11.010878311734118,50.10195096950088,1531.186993270215,-244.50891777351603,-2.615503639299618
2025-02-19 14:27:33.687,857,153,545,-3,-17,49,-19,4,31,0,6,G,-15.681233780745755,56.554288457585095,1691.4084147654444,301.9667298239358,14.366877424542281
2025-02-19 14:27:33.796,750,-231,559,5,10,-39,-19,4,30,712,6,G,22.452269988053907,51.11503920585067,1528.4079517556338,-470.7496491407352,-21.173393375198884
2025-02-19 14:27:33.905,823,97,541,-16,-13,40,-20,5,34,99,87,G,-10.164987235940849,56.2636649587861,1654.6020913336304,195.01385523616298,-5.654594667671972
2025-02-19 14:27:34.006,503,-252,537,-10,-5,-48,-19,5,31,513,6,G,25.139432385855404,40.29658842408439,1149.744366626317,-576.0150703575187,-153.46068564280768
2025-02-19 14:27:34.121,773,42,573,31,-32,20,-20,3,31,697,107,G,-4.192193627875302,53.37818654932339,1575.5904243455843,85.60775914943667,-21.934428395885902
2025-02-19 14:27:34.228,854,2,564,-52,68,28,-18,6,31,739,61,G,-0.20317567146638113,56.558202243688676,1688.4460607921492,3.9542062313633473,12.913842755536052
2025-02-19 14:27:35.139,773,-84,619,2,-1,-3,-19,4,31,743,6,H,7.727987796129381,51.057774802124875,1550.7801480898556,-168.51944688169198,-3.827828806753928
2025-02-19 14:27:35.239,764,-58,617,7,-4,-6,-20,4,29,784,5,H,5.370207957382144,50.95269572323923,1540.6261200551921,-116.95852743874497,-10.19674878802823
2025-02-19 14:27:35.346,715,-53,626,4,0,-14,-19,3,30,807,5,H,4.839379623496858,48.695624280116334,1466.2137265106917,-108.68437413296037,-31.70600391006019
2025-02-19 14:27:35.456,799,-76,605,0,5,-10,-19,1,29,791,4,H,7.159981222213811,52.65102659135768,1593.955223429817,-151.61526530746698,3.0626906445064606
2025-02-19 14:27:35.563,802,206,577,-23,-20,46,-21,4,30,211,6,H,-19.64753334886547,52.622771601798824,1596.6559528928738,410.11362381038896,5.283684764104692
2025-02-19 14:27:35.672,644,-133,541,-11,49,-21,-19,6,30,586,6,H,13.811750922502284,49.137721010348145,1400.2843577611957,-289.1891608419861,-94.32583470311647
2025-02-19 14:27:35.778,1040,199,615,26,-44,3,-21,4,30,559,100,H,-17.93040020615968,58.137673108270974,1889.318962742138,361.5139169093129,112.7584979938319
2025-02-19 14:27:35.886,655,-19,534,-24,38,-18,-18,5,31,830,83,H,2.037754253475801,50.79301693676928,1429.8674528320817,-41.47707115085427,-97.7239997134833
2025-02-19 14:27:35.996,817,-98,687,-23,-15,56,-18,1,31,541,103,H,8.118426018570101,49.65563868029642,1579.167323457972,-189.42276340132344,46.107770849906046
2025-02-19 14:27:36.103,952,-57,615,30,0,-10,-19,7,31,477,108,H,5.295212936617117,57.02541554649434,1790.9120791145524,-107.22897952681669,73.05574721066228
2025-02-19 14:27:36.210,543,-184,690,-11,13,-5,-19,7,28,589,43,H,14.931417178137556,37.248809847774126,1148.2774532990595,-389.10322542730563,-79.13709535239593
2025-02-19 14:27:37.126,775,-74,615,-1,-1,-7,-18,5,30,663,74,I,6.861140976120829,51.36562396767459,1556.146019650841,-148.58684574730614,-4.877163980990076
2025-02-19 14:27:37.222,759,-71,620,0,-4,-12,-20,5,28,714,80,I,6.532832996772786,50.572854734823224,1531.4327678087554,-143.25655667249228,-10.972748407678864
2025-02-19 14:27:37.329,811,-28,590,-1,4,-6,-19,5,31,706,91,I,2.7170831345057693,53.93356106355053,1619.3348676564265,-55.907985566436416,1.9388755643755076
2025-02-19 14:27:37.436,768,-27,629,-5,7,-9,-21,4,30,668,91,I,2.457928374630774,50.65631249309387,1541.357037708927,-54.18833335695447,-4.387469686087343
2025-02-19 14:27:37.546,787,-18,490,75,11,-19,-19,1,32,315,89,I,2.1037969468510687,58.0755465980268,1635.7460768617889,-37.412235557194656,-38.444190168076716
2025-02-19 14:27:37.646,798,19,649,2,-6,19,-19,2,31,856,95,I,-1.676901327745419,50.86710674621859,1573.6842110059529,37.468671690617924,18.149056462577164
2025-02-19 14:27:37.756,2547,-171,541,23,9,-39,-18,1,30,677,96,I,17.540772914590136,77.44157635825299,3523.074799394617,-236.5315236342676,333.6751211336914
2025-02-19 14:27:37.865,772,86,593,2,-10,39,-18,4,31,226,6,I,-8.251806682705885,52.18243979323832,1561.967129414968,174.00151959804043,-13.801175832999775
2025-02-19 14:27:37.971,911,-23,665,5,6,-18,-19,4,32,173,100,I,1.980868937265669,53.85547546658006,1718.5317756619331,-43.38773967093795,75.52839647070743
2025-02-19 14:27:38.082,709,10,626,13,-25,13,-18,2,31,585,103,I,-0.9151902017155391,48.55400370759024,1458.5799355761194,20.57235452152495,-35.82939304746208
2025-02-19 14:27:38.188,763,-7,585,-29,59,10,-18,5,30,590,57,I,0.6855578057985653,52.52026350421335,1556.5685882004202,-14.280445763306606,-23.43725307633781
2025-02-19 14:27:39.004,769,-11,624,2,1,-3,-19,3,31,806,6,J,1.0099171511023468,50.93826932511348,1545.467478524856,-22.10681698800184,-6.059436410286139
2025-02-19 14:27:39.096,780,-16,624,4,-4,-5,-19,2,30,808,6,J,1.4688007143858246,51.33100667546273,1560.7686547206144,-32.015767276320304,-0.6149237764916506
2025-02-19 14:27:39.208,740,-13,640,-5,10,-7,-20,2,30,767,5,J,1.1636604977663632,49.13877657714171,1496.296410828491,-26.286288298338356,-14.094193148965246
2025-02-19 14:27:39.306,792,6,626,-5,3,-2,-20,2,30,688,83,J,-0.5491440105656759,51.67573305319343,1576.513800105884,11.943286364438515,5.917122643581479
2025-02-19 14:27:39.421,757,1,640,0,0,-1,-21,2,28,701,82,J,-0.0895245826339467,49.78736589663332,1520.6536823208276,2.008789540714435,-5.625306057238504
2025-02-19 14:27:39.527,742,-2,649,1,0,-2,-19,3,29,722,81,J,0.1765657878008994,48.824875368432984,1494.7008126683252,-4.028843160831064,-9.359605689680507
2025-02-19 14:27:39.638,723,-20,620,-1,-8,-8,-19,2,29,665,89,J,1.8476102659945959,49.370931556420786,1481.9410458099333,-40.99421980110465,-30.820813834244177
2025-02-19 14:27:39.737,928,77,566,29,-39,-10,-21,1,28,726,4,J,-7.7470959158901564,58.386376554284695,1779.6023198514033,147.66096834973928,46.59599888373475
2025-02-19 14:27:39.851,801,52,601,-12,0,2,-19,1,31,832,97,J,-4.94505668590381,53.01603564212882,1599.8039115974311,103.85743246325396,1.6477517227765475
2025-02-19 14:27:39.962,696,-95,568,20,-30,-6,-19,2,29,759,96,J,9.495034610701888,50.394698997675505,1466.4542650461249,-200.16257928072108,-60.761526646837524
2025-02-19 14:27:40.068,778,35,615,-4,-8,-1,-19,1,30,761,96,J,-3.2572219406669563,51.628962634897626,1562.007343251892,70.27025323112625,-4.748735346932676
2025-02-19 14:27:40.171,778,6,606,-2,1,0,-17,2,29,772,95,J,-0.5672664098579344,52.08288955148943,1566.90060341191,12.084066350220386,-8.49070137225874
2025-02-19 14:27:40.281,781,28,634,-3,-1,-1,-19,2,30,781,95,J,-2.5287697396347486,50.90368886802602,1557.0870101909554,55.823862081109795,3.9882657348711064
2025-02-19 14:27:40.384,789,4,623,-6,1,4,-19,4,29,792,95,J,-0.36786511860971205,51.70455371014071,1573.8256263783026,7.978837142602293,3.2961150396927223
2025-02-19 14:27:40.494,790,20,613,2,-6,-5,-20,3,29,793,94,J,-1.868693714372303,52.175584911255605,1579.893766432142,39.99731054258587,0.08243186974311811
2025-02-19 14:27:40.601,790,4,611,-1,-3,-7,-21,2,31,796,96,J,-0.3750897610209729,52.28040397913156,1581.0143352228627,8.005135874546141,-0.7845048369229062
2025-02-19 14:27:40.711,816,-105,687,6,-14,35,-19,2,30,784,95,J,8.689750289139573,49.57935019442959,1577.3046710703265,-202.96199811566703,46.048640900350165
2025-02-19 14:27:40.817,777,87,583,-50,-13,36,-20,5,32,0,111,J,-8.487509010867063,52.814946953838785,1573.687614840515,176.20440475048235,-14.772045626795489
2025-02-19 14:27:40.928,1110,83,639,-19,74,68,-20,5,28,441,62,J,-7.40073981967176,59.86433656692217,1974.839090479391,147.6681482070175,141.13317223753978
2025-02-19 14:27:41.035,601,-143,693,18,-21,-9,-19,8,27,495,36,J,11.659292653522998,40.34289899027071,1248.3606297742913,-297.03089859854185,-53.457431669856646
2025-02-19 14:27:41.953,704,-87,675,-6,-10,-7,-19,6,26,718,43,K,7.344299289502676,45.968908315478565,1422.9627365065717,-175.84908817623824,-14.346373781158718
2025-02-19 14:27:42.046,746,-66,657,0,-13,-10,-18,6,29,779,54,K,5.736495386871158,48.487004781850715,1494.80541310795,-132.24820008729853,-2.4707190508351005
2025-02-19 14:27:42.157,733,-74,657,-1,-3,-4,-19,5,29,796,60,K,6.426321965918326,47.95004472101683,1475.561138754207,-148.96524456727326,-8.56980649592606
2025-02-19 14:27:42.260,785,-25,640,0,-1,-7,-20,4,29,789,75,K,2.2369790634377016,50.78870546510756,1559.8198837207717,-49.675792475183805,8.299712635294554
2025-02-19 14:27:42.370,691,-86,586,-6,-14,-31,-19,3,29,713,85,K,8.348996339856463,49.39912369947748,1450.2613540908635,-180.4956243875749,-57.88878943161512
2025-02-19 14:27:42.480,844,-279,752,-7,-10,51,-20,4,30,449,97,K,20.355389581676267,46.458529451481795,1568.8759516505065,-518.6213157707243,106.138962510449
2025-02-19 14:27:42.587,871,-16,634,21,-17,16,-18,4,30,208,102,K,1.4456434205562043,53.940486705262465,1679.4060237882663,-30.850168060404428,45.5620906064745
2025-02-19 14:27:42.693,543,-209,723,22,-44,-38,-20,4,31,722,81,K,16.123170152803322,35.81032565600402,1128.1038327279275,-434.20571093947865,-56.06090435044507
2025-02-19 14:27:42.796,760,-46,639,-7,-1,-6,-19,2,31,700,100,K,4.117476084694607,49.87027597853313,1524.587138228291,-92.2776425769755,-3.856817536681433
2025-02-19 14:27:42.903,901,94,495,-21,6,21,-19,3,29,0,99,K,-10.752381180020123,60.785740037067825,1773.8006301113617,185.0580013656692,15.492439616954641
2025-02-19 14:27:43.013,731,-28,674,-16,-29,25,-20,6,32,0,110,K,2.3788722235235777,47.29856214131655,1465.8975762519285,-56.149291566421326,-3.5936612774277137
2025-02-19 14:27:43.124,739,-129,518,-21,76,10,-19,6,27,449,60,K,13.984180075156404,54.1573075865267,1549.6277283515046,-270.5033517690718,-50.20725749131168
2025-02-19 14:27:43.937,757,-4,636,-3,3,-1,-18,4,29,773,78,L,0.3603460633872312,49.96385791325035,1522.6388213351377,-8.045647668877876,-7.25797935158198
2025-02-19 14:27:44.037,741,-10,644,-1,-4,-4,-19,4,28,770,79,L,0.8896145214143647,49.002811639043514,1495.7417736780428,-20.185449037490454,-11.942918014385441
2025-02-19 14:27:44.144,764,28,643,-2,1,-15,-19,3,29,781,88,L,-2.4934198167434425,49.888522350125584,1528.7923529348184,56.029039112794386,-0.666862483099635
2025-02-19 14:27:44.246,763,9,632,-4,3,-9,-20,3,26,648,95,L,-0.8158657634141194,50.36187745285231,1533.0889532959716,18.08361805984763,-5.871845980411308
2025-02-19 14:27:44.356,783,141,573,-28,-10,43,-19,4,30,0,99,L,-13.824299504261402,52.997181489974075,1581.6059044279048,284.8102586517683,-11.420412818888167
2025-02-19 14:27:44.464,794,6,607,20,-27,-1,-19,5,29,413,101,L,-0.566331929739395,52.601329122811045,1588.4287099647509,12.00323962189988,-0.32774174887128993
2025-02-19 14:27:44.571,784,15,548,-37,72,29,-20,7,29,702,63,L,-1.5679236267627445,55.037161256423325,1603.523885775402,30.679666181927338,-24.830471179745246
2025-02-19 14:27:44.685,658,-117,666,11,-23,-11,-17,6,28,646,46,L,9.96380418990718,44.21851420321009,1355.3967245051917,-241.0051926551785,-39.87571203716993
2025-02-19 14:27:45.496,762,-20,652,-24,-9,-3,-19,5,29,556,67,M,1.7569883099082007,49.43496975498635,1521.6683577112613,-39.938802039665646,1.9950535068996942
2025-02-19 14:27:45.594,758,-36,642,-20,-5,-3,-21,6,28,632,77,M,3.209486317791986,49.6921833623236,1520.5800836147614,-72.21752376006782,-3.879173721209554
2025-02-19 14:27:45.703,757,-45,637,-11,-2,-17,-20,4,30,658,86,M,4.040869443698158,49.8498035901719,1521.3567954763141,-90.43732601906754,-6.1905927588005625
2025-02-19 14:27:45.811,798,-82,589,-7,4,-13,-19,4,29,589,99,M,7.92571875193454,53.306013726931255,1599.8383661654384,-164.39441857840342,-2.8330797887757626
2025-02-19 14:27:45.917,791,180,583,-36,-18,52,-22,4,29,0,102,M,-17.157960454065886,52.35442751069786,1582.8040894334713,360.18297863214264,-0.592647458550914
2025-02-19 14:27:46.024,683,-70,571,6,33,-54,-18,4,29,639,89,M,6.989127519035745,49.893359044843166,1447.846737643772,-148.38839185221673,-68.42531068022504
2025-02-19 14:27:46.134,913,-71,683,-27,-23,29,-20,2,30,571,100,M,5.934760381876379,53.05264851294831,1712.1881745468704,-133.14935420901185,85.1407193696466
2025-02-19 14:27:46.240,838,33,528,45,-15,-16,-20,5,32,542,106,M,-3.5763343749973515,57.735740938420484,1683.594996165848,66.29908696118494,-4.785391378959162
2025-02-19 14:27:46.351,772,-131,636,-17,-22,60,-19,1,31,745,102,M,11.638717693484843,49.931851831802284,1537.279363483603,-260.85958110926424,5.536690187083423
2025-02-19 14:27:46.457,898,-148,442,31,26,-35,-21,5,31,644,103,M,18.512690674145485,62.56776430207263,1785.5563274625656,-294.2787711185521,5.140426794594589
2025-02-19 14:27:46.560,542,-175,682,-8,5,-4,-18,7,28,635,43,M,14.391500379668093,37.58846796670023,1151.985685861829,-371.9510978336165,-85.54656412872248
2025-02-19 14:27:47.380,771,-47,628,2,-1,-3,-19,3,29,732,79,N,4.280080722186786,50.75789418322302,1545.4798105485447,-94.21212852889961,-2.834398215935039
2025-02-19 14:27:47.474,764,-43,629,2,-1,-2,-20,4,31,731,81,N,3.910796885502822,50.469869306715744,1535.2899760172882,-86.4102996973081,-6.001825804809187
2025-02-19 14:27:47.580,759,-31,646,7,3,-5,-21,5,30,730,85,N,2.7473802654111914,49.56570588160729,1520.1502420392285,-62.08782279738614,-1.8301137777884833
2025-02-19 14:27:47.691,791,-88,580,-12,0,-9,-20,2,30,471,97,N,8.62735314406524,53.4378600154168,1594.2112745141935,-177.3585235869141,-8.95390545920634
2025-02-19 14:27:47.796,759,95,631,-41,-19,52,-21,5,33,0,103,N,-8.561844293966463,49.94535043266721,1524.430994362735,190.80493341826062,-5.346452493920651
2025-02-19 14:27:47.906,676,-108,599,23,39,-44,-22,5,30,435,86,N,10.220649939345572,48.00069151991251,1419.1529013608376,-226.7285700398972,-59.503828276837226
2025-02-19 14:27:48.014,883,-103,648,-18,-17,6,-18,2,28,443,98,N,9.031642926619172,53.38489627377664,1685.6602766076244,-196.62854868695956,58.958256804370876
2025-02-19 14:27:48.117,794,41,671,4,-9,29,-20,5,32,0,111,N,-3.496587122727308,49.74660267815544,1557.194156873596,80.40927006526127,26.03365332218766
2025-02-19 14:27:48.223,810,0,580,23,12,-4,-20,3,32,789,103,N,0.0,54.39546601956689,1623.0546934301628,0.0,-2.187311345054809
2025-02-19 14:27:48.334,610,-173,670,2,-7,-1,-20,4,29,587,59,N,14.478052849613988,41.397308429765694,1271.2766268042983,-360.5423876018747,-56.320229440786534
2025-02-19 14:27:49.252,763,-90,615,2,-7,-4,-19,4,31,635,87,O,8.325650330426836,50.83325765772855,1538.3112230993872,-181.452175726009,-9.923200794394688
2025-02-19 14:27:49.346,792,-50,602,1,-4,-3,-21,4,31,707,98,O,4.747888108633998,52.66657344382526,1587.1198097702732,-100.19695768751725,-2.371370557707678
2025-02-19 14:27:49.456,761,-55,610,1,8,-11,-20,3,29,694,104,O,5.152081702206227,51.17189793623436,1540.0305386142463,-111.30312696949218,-14.452862752549663
2025-02-19 14:27:49.556,809,-87,600,28,18,13,-18,2,32,373,99,O,8.250387228905499,53.151652653635864,1609.2256176154992,-173.05640139993625,6.507576552163755
2025-02-19 14:27:49.669,808,44,636,6,-30,13,-20,5,31,419,105,O,-3.9575531141278533,51.726201891336686,1593.0597191614859,86.75077678602148,18.05695372932564
2025-02-19 14:27:49.780,788,-15,604,-25,13,-35,-20,2,31,792,101,O,1.4226160139077335,52.52139819747537,1581.5806384799403,-30.10623042791765,-4.277545230817395
2025-02-19 14:27:49.886,673,-31,624,-51,39,50,-18,5,28,481,51,O,2.8440866975973766,47.128366775860144,1405.8798295647439,-64.7582090884206,-55.52007971530509
2025-02-19 14:27:49.993,715,-82,670,26,-32,-21,-18,6,29,585,51,O,6.977618490831699,46.64837589091757,1442.1545326721116,-165.39394640435404,-11.389562084356157
2025-02-19 14:27:50.906,765,-45,629,-2,1,-1,-21,4,29,624,79,P,4.092090147873339,50.50043219047481,1536.6293813971474,-90.38996361159693,-5.450824704321349
2025-02-19 14:27:51.003,769,-48,619,0,0,-2,-20,3,31,677,81,P,4.434094961065189,51.08405154447416,1547.0683229406022,-96.56603316144202,-7.299469311095891
2025-02-19 14:27:51.106,757,-42,623,2,0,-2,-19,4,30,685,85,P,3.8568009855898424,50.48236239172651,1528.4287401135439,-84.80053776059293,-11.874643448794927
2025-02-19 14:27:51.221,690,-25,617,16,-1,-17,-19,3,29,761,94,P,2.320277757534292,48.173473235180545,1435.1673290037043,-51.998816268250145,-49.33078550041364
2025-02-19 14:27:51.326,859,-289,693,-4,-3,38,-18,2,28,500,96,P,22.637474550860528,48.84350942783529,1611.9148893307515,-542.3089674232679,85.58437915458603
2025-02-19 14:27:51.436,840,-14,665,8,-11,10,-19,5,30,341,101,P,1.2060487792199577,51.626336649614046,1623.97889208803,-27.06631486813383,44.35004376364316
2025-02-19 14:27:51.546,636,-167,594,14,-27,-57,-20,3,29,692,91,P,15.70305099469938,45.86739025862861,1353.7301045461136,-355.4605777660392,-76.3328334911813
2025-02-19 14:27:51.648,670,-14,714,5,-6,4,-21,1,29,689,96,P,1.123302714075429,43.173576317241796,1354.2108471988874,-28.29694307579765,-15.144096865679899
2025-02-19 14:27:51.758,898,14,465,23,16,15,-20,2,29,525,98,P,-1.724513278533617,62.613493896724485,1785.9237435116768,27.84290914160743,5.217660653753228
2025-02-19 14:27:51.856,514,-190,720,-12,4,15,-18,8,28,509,43,P,14.782726042615675,34.6157439828171,1082.0699085940569,-399.98693119235566,-75.73994978155827
2025-02-19 14:27:53.179,765,-41,634,-3,-2,-2,-21,5,31,707,85,Q,3.7000953164682686,50.290730844836524,1534.2962068612053,-82.23025422393388,-3.560516535953184
2025-02-19 14:27:53.276,778,-53,617,0,-3,-1,-19,2,29,746,88,Q,4.90962767101078,51.48092486471115,1560.4008634741206,-106.2998017533784,-3.490144940273126
2025-02-19 14:27:53.384,801,-13,635,11,-1,0,-20,5,31,793,99,Q,1.1728206295929908,51.58821580375259,1584.5656874086217,-25.717046112749166,13.821209108021549
2025-02-19 14:27:53.495,800,-46,596,-17,7,-35,-19,1,29,713,102,Q,4.413407889831428,53.23233849528224,1601.069340226166,-92.06148706300453,-0.7966584684935469
2025-02-19 14:27:53.601,979,242,512,-12,-28,81,-18,2,28,2,98,Q,-25.298052503310778,59.95240026504521,1844.6097189255256,455.9709417568715,59.30114801851988
2025-02-19 14:27:53.711,742,-203,562,20,6,-38,-20,5,32,721,100,Q,19.86022471249512,51.15520126999732,1520.8477944257156,-416.08100036175233,-27.908976370959635
2025-02-19 14:27:53.819,531,-147,616,19,-21,-17,-19,4,28,403,80,Q,13.421835067886203,39.978798353510676,1173.504099719193,-324.8683665889291,-129.3531552297983
2025-02-19 14:27:53.919,791,37,626,0,-31,43,-18,5,29,435,101,Q,-3.3825564901942475,51.59316635483557,1574.619367699618,73.65476182665722,5.841056662502069
2025-02-19 14:27:54.032,761,-81,506,-18,74,15,-18,9,31,622,61,Q,9.09469312086854,56.044463155983244,1590.4712724919684,-169.2880066647167,-45.527547806748885
2025-02-19 14:27:54.946,771,-25,627,1,2,-2,-20,5,28,762,75,R,2.2833112172623315,50.85869262577743,1546.5915198986809,-50.148881968180305,-3.7339597619621827
2025-02-19 14:27:55.043,788,-16,618,2,3,-3,-20,5,28,783,76,R,1.4830545774750703,51.8848667981574,1574.7720204083312,-31.975066404230077,0.9630601366133078
2025-02-19 14:27:55.149,764,-6,642,0,4,-9,-18,3,30,794,77,R,0.5354589855645338,49.9579573062785,1529.5725700293629,-12.012350026408608,-1.3214528257210532
2025-02-19 14:27:55.260,826,-21,535,-17,-2,-17,-20,1,30,656,95,R,2.2478392387639374,57.04875195308731,1665.133687895481,-42.333907319376635,-8.506686469833198
2025-02-19 14:27:55.366,797,234,562,-11,-14,38,-21,5,28,0,100,R,-22.60538534776412,52.626471303797615,1591.6951503069706,467.3232938166011,1.6252516028640684
2025-02-19 14:27:55.477,547,-133,554,28,-6,-74,-19,2,28,683,86,R,13.499644789494889,43.833397573023724,1239.563768574963,-301.3930186845888,-147.4265590320465
2025-02-19 14:27:55.583,686,51,746,-6,-13,44,-19,3,29,651,93,R,-3.910918422409942,42.534192703246866,1362.0300761552949,101.25879574915457,10.841928845699954
2025-02-19 14:27:55.690,791,-156,503,21,18,-14,-21,4,28,238,97,R,17.230710394092082,56.344938611496126,1623.3890455064084,-320.16269418331194,-26.31945624490959
2025-02-19 14:27:55.796,1137,-6,618,-12,56,18,-18,5,31,415,90,R,0.5562522270806725,61.47321141972078,2015.5939215477529,-10.636379533233523,140.45290807694704
2025-02-19 14:27:55.906,522,-207,699,14,-13,-8,-18,7,28,389,39,R,16.49598847818857,35.604304334733634,1104.1840525573518,-437.8660898072257,-80.59128876932732
2025-02-19 14:27:56.818,743,-53,636,1,-4,-7,-20,6,28,625,66,S,4.763641690726178,49.33886300248392,1501.5764718635323,-107.11110768340137,-13.333292200816345
2025-02-19 14:27:56.919,804,-26,626,1,-7,-8,-18,4,29,764,80,S,2.3783299733554837,52.07148933527731,1592.7783157850813,-51.50775648061207,11.851709351416957
2025-02-19 14:27:57.025,772,-33,611,3,-12,-8,-20,4,31,799,90,S,3.091531010027422,51.599505302611455,1555.6880942456778,-66.49962060894737,-9.250551274752638
2025-02-19 14:27:57.132,781,-17,639,-3,2,-14,-19,4,32,795,99,S,1.523941394624048,50.70065890900352,1554.8474936387117,-33.844311641303584,5.852050659235829
2025-02-19 14:27:57.238,975,-97,533,26,-1,51,-19,2,30,643,95,S,10.314305900661774,60.94144931535268,1849.123822519604,-183.96411362502727,55.14564368928336
2025-02-19 14:27:57.349,686,-76,663,-6,-4,31,-19,6,30,652,101,S,6.5392992300019435,45.78987568689806,1402.787405573783,-155.4108495970955,-29.75517477466201
2025-02-19 14:27:57.455,654,-42,579,-39,80,27,-19,6,28,572,47,S,4.148903697734347,48.406225041839484,1401.8702199921531,-90.02836275178966,-83.10528650681454
2025-02-19 14:27:57.566,588,-137,708,23,-42,-28,-19,7,25,597,38,S,10.951546359714706,39.193231821777594,1219.9377563921664,-284.2371983430728,-52.904645451792135
2025-02-19 14:27:59.079,757,0,663,-27,0,-4,-19,3,26,424,61,T,0.0,48.78729359873815,1509.2688137959244,0.0,4.143694125894513
2025-02-19 14:27:59.176,712,-66,643,-43,-6,-7,-21,5,29,536,62,T,5.860535567939049,47.76574013098236,1452.4028102189916,-134.63284476749078,-25.650290689342
2025-02-19 14:27:59.286,726,-76,642,-12,-8,-8,-21,4,28,732,71,T,6.751257931582337,48.315825190256135,1472.8218915415584,-154.17970214484632,-18.41274706567549
2025-02-19 14:27:59.386,767,-81,639,-2,2,-4,-20,3,30,791,79,T,7.224315694045337,49.97704063541113,1532.786806017361,-161.87187912308502,1.0107313623292384
2025-02-19 14:27:59.500,734,-48,662,-10,9,-6,-20,4,31,715,81,T,4.147119310574952,47.87774698691401,1475.7153991340872,-96.50454926217463,-6.958575240825212
2025-02-19 14:27:59.606,772,-42,566,28,7,-12,-21,2,28,268,100,T,4.243852273898035,53.677552895486656,1577.6962839192888,-85.83321751892504,-24.704788469323034
2025-02-19 14:27:59.706,763,-25,631,11,-8,8,-19,4,32,818,106,T,2.2688521527300796,50.38722712329515,1533.3711234953253,-50.24151780784159,-6.095909469921708
2025-02-19 14:27:59.817,585,-189,583,14,-38,-20,-18,0,31,638,101,T,17.9619293983796,43.667165965877516,1275.4679926565025,-412.07427455056234,-105.10741832263398
2025-02-19 14:27:59.926,792,65,607,-21,-22,51,-21,4,30,0,109,T,-6.1121706723613505,52.37511367828949,1584.024553141727,130.00201509370237,-0.018817875035779252
2025-02-19 14:28:00.037,694,-125,594,-12,69,29,-20,7,30,380,59,T,11.883796697410464,48.82530430215313,1446.7057413518974,-260.57380067577395,-50.24670081127772
2025-02-19 14:28:00.147,714,-217,662,18,-25,-23,-18,7,31,440,49,T,18.1488624239643,45.70431464785979,1429.7453257056263,-434.5304421262199,-1.6182151500349846
2025-02-19 14:28:00.249,753,-106,631,0,1,-1,-20,6,29,476,59,T,9.535929284069326,49.64468001143435,1515.043488461361,-213.2730541525953,-7.578275191392777
2025-02-19 14:28:00.967,760,-97,641,0,1,-1,-20,5,29,383,63,U,8.605056488284564,49.53504609797014,1520.8030710836856,-194.10249723041778,-0.6773270587400475
2025-02-19 14:28:01.064,747,-96,637,1,0,-3,-18,5,29,486,66,U,8.570346661037144,49.226373871478984,1504.295752065018,-193.32314885976132,-8.779643996541267
2025-02-19 14:28:01.170,751,-92,631,3,0,-8,-21,6,29,487,70,U,8.295292655744893,49.66552680467856,1513.2790371737465,-185.38171960051218,-9.476794216556527
2025-02-19 14:28:01.277,760,-78,650,1,4,-17,-19,4,30,366,78,U,6.84277341263094,49.25842170556212,1517.6609230653773,-155.75993684092032,2.0005263256640546
2025-02-19 14:28:01.386,793,-164,539,11,14,-16,-20,1,31,0,99,U,16.923283032444647,54.60758759679878,1608.2045019443922,-332.5921038069109,-15.09234117027404
2025-02-19 14:28:01.486,801,90,617,5,-30,25,-21,6,31,0,105,U,-8.299039295681355,52.101426017308555,1590.0993733486457,178.6628509380501,9.166899680256506
2025-02-19 14:28:01.599,793,-322,566,-3,3,-29,-19,4,31,714,102,U,29.635746610806443,50.608370968119246,1565.826299984145,-635.8084093252139,14.398882987356842
2025-02-19 14:28:01.711,827,228,570,-14,-16,44,-20,4,30,0,105,U,-21.80140948635181,53.412308995884565,1629.9455451478188,449.3683002342233,16.579249414441733
2025-02-19 14:28:01.817,638,-185,648,-15,48,11,-20,8,28,457,48,U,15.933717185325712,43.43288299184209,1325.504390799439,-384.35472147005675,-50.28032168971231
2025-02-19 14:28:02.733,771,-90,627,0,2,-1,-19,5,30,479,71,V,8.16847862404549,50.59468188947215,1543.674655410076,-180.19548506732406,-1.3618793023576927
2025-02-19 14:28:02.829,759,-82,642,2,2,-2,-19,4,29,591,71,V,7.278741720390518,49.545061163057724,1519.9164989691626,-164.20705258955383,-1.6210702743117054
2025-02-19 14:28:02.936,752,-83,635,3,2,-3,-19,6,30,606,72,V,7.4468370214291735,49.58236226361948,1513.3387564480527,-167.03074040583562,-7.885785032597823
2025-02-19 14:28:03.046,748,-40,671,-2,9,-11,-18,3,27,570,75,V,3.411508440957863,48.05550854150922,1491.7927349128809,-79.77501256218616,3.7741642693272297
2025-02-19 14:28:03.149,922,32,681,-2,7,-23,-21,0,28,0,96,V,-2.6903337422600595,53.51978946468418,1726.0622592900868,59.90671615757351,87.1101967716387
2025-02-19 14:28:03.260,666,-50,641,-83,-66,105,-20,4,28,1,98,V,4.460218156796453,46.00897594096139,1385.4486164991536,-104.01265889633287,-51.442287050987375
2025-02-19 14:28:03.370,706,-88,571,76,20,-80,-19,4,29,433,104,V,8.761242083107943,50.70549265252723,1479.9009251464072,-184.46357140635104,-54.9170371934822
2025-02-19 14:28:03.476,1016,21,653,-23,13,41,-18,2,29,659,91,V,-1.8419553331751088,57.25700418456386,1857.1051386895579,38.38504715795345,112.40781932649486
2025-02-19 14:28:03.582,695,-91,657,11,-20,-7,-19,6,30,502,57,V,7.885772152841886,46.33812574992311,1418.4267126980167,-185.72205878492014,-26.872446392225697
2025-02-19 14:28:04.397,762,-65,637,0,0,-1,-19,4,28,552,75,W,5.826342029555775,49.95970236200592,1527.5921641508999,-130.3064182018484,-3.0028983781144234
2025-02-19 14:28:04.492,751,-49,636,1,1,-3,-20,4,28,538,73,W,4.405594350936013,49.65607490574588,1513.172252309698,-98.72894855282982,-9.461454685709441
2025-02-19 14:28:04.603,753,-61,633,4,2,-2,-20,5,30,506,75,W,5.504397355979246,49.81784713844171,1516.997046049262,-122.89086296016598,-9.244528750574773
2025-02-19 14:28:04.709,770,-31,649,3,0,-4,-20,2,28,505,78,W,2.7346998341849873,49.84172074632044,1534.265825405108,-61.76914362020564,4.833090015694779
2025-02-19 14:28:04.815,740,-32,661,3,5,-8,-19,3,27,407,79,W,2.771610601706297,48.19407251878623,1485.407040201144,-64.23381795464405,-4.829802125616311
2025-02-19 14:28:04.922,760,-22,643,7,5,-9,-20,4,30,278,82,W,1.9595888455964363,49.75049367424343,1523.2380369141094,-44.09373264751369,-2.73954965233213
2025-02-19 14:28:05.032,674,-23,633,7,-14,-19,-20,2,28,252,92,W,2.080921730220046,46.77789192728861,1402.704434731967,-47.86676854426592,-51.376716892188256
2025-02-19 14:28:05.134,745,-12,658,1,4,-8,-20,1,27,0,93,W,1.0447920138064932,48.543639829851735,1494.46019383169,-24.07184204829567,-3.939338981546257
2025-02-19 14:28:05.245,710,1,659,-37,-31,72,-19,5,29,0,98,W,-0.08694345301311372,47.13344709577011,1442.940152886988,2.0323100744887155,-21.292339088063613
2025-02-19 14:28:05.356,806,29,614,12,-16,-14,-20,5,28,91,102,W,-2.7041428531285514,52.669558913403506,1601.151408664606,57.609666068577624,8.26431151356337
2025-02-19 14:28:05.458,765,-78,620,21,4,-19,-19,3,30,552,5,W,7.170507232167921,50.75646943771987,1539.4640797953168,-156.9649649987382,-7.670234605354835
2025-02-19 14:28:05.566,804,-68,597,-12,-12,10,-19,5,30,0,7,W,6.498146995939136,53.22781957139422,1605.0221283356218,-135.7481402074904,2.2111808254152265
2025-02-19 14:28:05.676,792,-248,673,-16,-1,-37,-20,4,30,567,6,W,20.228804606367593,47.83582684080147,1533.2244758547681,-480.10059344947285,43.146373421390194
2025-02-19 14:28:05.782,894,32,610,-39,44,35,-20,2,30,612,77,W,-3.0029276213839093,55.6565778636765,1719.6709838744493,61.55421866217267,46.622706752333556
2025-02-19 14:28:07.397,755,-69,641,-1,0,-1,-18,4,29,564,60,X,6.1439068696936445,49.50561206942179,1515.4695747971086,-138.49986842516626,-4.643705225095005
2025-02-19 14:28:07.492,765,-60,636,0,0,-2,-19,4,30,585,61,X,5.38931175997341,50.13595989255513,1532.567586364601,-120.20137932271382,-2.134620820766372
2025-02-19 14:28:07.606,754,-68,638,-2,-1,-2,-19,6,29,591,61,X,6.083792378736845,49.60399764526701,1515.5835263516165,-136.68392545346143,-6.416829989829239
2025-02-19 14:28:07.712,755,-72,634,-7,-1,1,-19,4,31,618,61,X,6.479018215871658,49.797752667799344,1518.77071103671,-144.83641217833528,-7.365073903674443
2025-02-19 14:28:07.816,758,-80,633,-4,-4,-2,-19,7,32,625,66,X,7.202984896534843,49.91150110747682,1523.0506818557437,-160.74413528820511,-5.887970467923083
2025-02-19 14:28:07.924,798,-79,618,6,-7,-3,-19,4,30,688,73,X,7.284709527497179,52.019490311722834,1586.220137642968,-157.03181813758707,7.573878366723989
2025-02-19 14:28:08.031,763,-63,624,0,-1,-2,-20,3,30,737,76,X,5.765134557972361,50.58041260357426,1535.5165364790482,-126.78576906707741,-7.7828555215286315
2025-02-19 14:28:08.141,786,-56,616,1,-3,-2,-21,6,31,769,81,X,5.194428907734806,51.79913531915815,1571.8475603585016,-111.98913916040215,0.11946923557638911
2025-02-19 14:28:08.247,798,-41,608,-3,2,-4,-19,6,31,800,84,X,3.8578550306155357,52.63337525376744,1592.7682870630551,-81.8339596110091,2.462257475767501
2025-02-19 14:28:08.354,927,67,559,-4,-6,-14,-20,2,29,811,101,X,-6.834689922346949,58.72816451036802,1781.7141034899219,128.77545300304723,43.58987718353137
2025-02-19 14:28:08.461,800,214,550,-13,-2,49,-20,5,31,0,103,X,-21.260559161971813,53.58352204736016,1604.723100047304,429.26342926265374,-3.2471312825214227
2025-02-19 14:28:08.572,645,-119,677,-36,48,-62,-20,5,31,386,81,X,9.969351268940393,43.17820308830254,1329.269736413194,-245.2451141599536,-41.21800240578648
2025-02-19 14:28:08.681,817,-115,622,-56,-54,84,-20,2,29,208,99,X,10.474983323020066,52.25207347072431,1607.711728690547,-226.29969253294115,20.01383690878788
2025-02-19 14:28:08.784,848,-18,631,38,7,-9,-21,6,32,439,105,X,1.6339848242944548,53.3357646267323,1650.148531905268,-35.026737705536355,34.11825043369788
2025-02-19 14:28:08.891,574,-172,683,1,5,-12,-18,5,29,482,47,X,14.13489312856011,39.1788381134002,1205.7430380021283,-361.30279187520216,-68.70817936490175
2025-02-19 14:28:09.706,755,-56,630,-8,-1,-6,-20,2,30,700,83,Y,5.07960786001457,50.04617778920657,1521.5622518087512,-112.8575974851524,-9.64797170796453
2025-02-19 14:28:09.801,759,-40,630,0,0,-5,-18,5,31,649,89,Y,3.6329507394882063,50.24933390545387,1527.8343981959165,-80.51828185485724,-8.162939214001426
2025-02-19 14:28:09.914,697,-63,635,1,-4,-15,-20,4,31,612,97,Y,5.665921557970995,47.52526934380296,1434.5752228408169,-129.6674878607912,-36.96594907305405
2025-02-19 14:28:10.021,770,-87,647,-13,-20,39,-19,4,28,361,98,Y,7.658440647078806,49.70798155140732,1532.758422926115,-173.18179583710648,6.084805671173626
2025-02-19 14:28:10.128,873,59,505,34,9,-39,-19,6,32,630,96,Y,-6.663752656303035,59.78349527497311,1737.1298652689502,117.40052926789008,5.131063046025531
2025-02-19 14:28:10.238,1824,-21,691,5,-11,-28,-20,1,29,776,99,Y,1.740725249580898,69.24265928916395,2759.0898103944965,-31.765836632831373,336.7527088911201
2025-02-19 14:28:10.341,780,-32,622,-3,4,31,-20,4,29,243,103,Y,2.945096319375127,51.392966394282304,1561.4438793342351,-64.05923607525068,-1.1514012126849593
2025-02-19 14:28:10.453,773,-142,620,-31,-17,28,-20,6,31,0,105,Y,12.900091669899181,50.5511678031998,1545.1923231298638,-283.851629863442,0.6478132722957071
2025-02-19 14:28:10.559,1019,-19,617,39,35,6,-21,5,31,183,100,Y,1.7638183155794331,58.7932480054912,1874.303207569114,-34.94775362493932,99.1176849164442
2025-02-19 14:28:11.376,766,-42,640,2,-3,-2,-20,4,29,785,80,Z,3.7546517281194958,50.060348806249564,1532.7210568495893,-84.03953575415503,-0.602449587124056
2025-02-19 14:28:11.468,718,-22,642,11,0,-5,-19,5,29,797,84,Z,1.9626387794155402,48.181789806433095,1463.2641194623857,-44.83539084703689,-24.378223808985354
2025-02-19 14:28:11.578,741,-10,632,14,1,-7,-18,4,29,814,91,Z,0.9065031439480534,49.53554816466381,1501.8087579070889,-20.26732466811186,-16.89491902466932
2025-02-19 14:28:11.683,807,-7,598,-3,3,-6,-20,4,30,725,93,Z,0.6706557516080528,53.45908079472446,1610.4318481713876,-13.96904948847548,2.6440579845233287
2025-02-19 14:28:11.790,707,1,675,18,-11,2,-19,3,29,833,90,Z,-0.08488257421597964,46.32640664266154,1430.2854849752237,2.0230346322138946,-15.54837674437897
2025-02-19 14:28:11.901,776,93,588,-27,12,22,-19,4,28,447,96,Z,-8.987637298208476,52.506347694309866,1569.4207789842992,188.08779954322142,-13.200280982948357
2025-02-19 14:28:12.006,843,64,592,11,-43,-12,-19,5,29,389,91,Z,-6.1701750950296095,54.76469258817495,1659.7895279818686,126.01011837584767,18.406405023409093
2025-02-19 14:28:12.114,798,50,618,3,1,18,-18,5,30,729,95,Z,-4.625505870605069,52.15398617396593,1587.6625363993637,99.47760253128844,6.456832713274935
2025-02-19 14:28:12.226,568,-100,715,-6,24,8,-19,7,26,625,41,Z,7.961750891008094,38.193832771060976,1186.323803356805,-208.85982453464877,-63.34774542273874
2025-02-19 14:28:13.141,761,-102,638,-7,-2,3,-21,6,30,598,79,a,9.083271690448488,49.66816725297641,1523.308864500208,-204.17543256113171,-1.097313470608242
2025-02-19 14:28:13.236,754,-98,631,1,-5,2,-20,3,31,594,84,a,8.828023065784823,49.73863985014893,1517.1043464757556,-197.18332354724674,-7.619154676660287
2025-02-19 14:28:13.343,866,-41,689,5,3,-11,-21,4,32,592,104,a,3.405457274398527,51.44447461707417,1648.0045100496409,-78.02330821251186,66.82782052632513
2025-02-19 14:28:13.453,801,-219,566,29,21,-18,-20,5,30,0,99,a,21.152739576059357,52.849992303542855,1598.057145800081,-436.9219911738049,2.7860867380203445
2025-02-19 14:28:13.564,710,-96,662,-8,-26,-12,-19,5,30,124,106,a,8.25123489992439,46.70622574330876,1437.8472741902788,-194.41315256657288,-16.640697906992273
2025-02-19 14:28:13.667,711,-213,584,5,17,10,-21,5,29,316,102,a,20.03822888760251,48.836632902059414,1463.835897903828,-438.53311709355177,-34.36310038795432
2025-02-19 14:28:13.776,1015,-84,721,-2,57,16,-21,6,31,291,86,a,6.645278210274421,54.42956550997193,1828.4010372527591,-151.31594791057316,143.20478043424714
2025-02-19 14:28:13.885,643,-200,682,8,-17,-16,-20,6,28,376,51,a,16.344045838662566,42.136128806706964,1313.8943508491611,-408.6763144165353,-29.586232160385293
2025-02-19 14:28:14.896,762,-113,630,-2,0,-3,-20,3,29,473,78,b,10.168733218433077,49.97089118957345,1527.7177795081293,-226.5513242577672,-3.0737547114453037
2025-02-19 14:28:14.994,765,-70,638,-1,0,-4,-20,4,31,516,82,b,6.2613263043022105,50.00362968209892,1531.0851621147997,-140.0992958797856,-0.9050110186171878
2025-02-19 14:28:15.105,733,-85,625,6,-3,-14,-20,2,28,519,94,b,7.744710546422914,49.287689771846566,1490.9942127412373,-172.8983739195159,-21.311572937617143
2025-02-19 14:28:15.215,773,-105,643,-10,-3,-10,-21,3,28,501,100,b,9.274373062929884,49.87441122505676,1537.6336536356089,-208.8635622661564,6.95932821772783
2025-02-19 14:28:15.316,779,112,642,-15,-21,54,-20,4,33,0,105,b,-9.895934864331823,50.08480305312673,1545.9949888105934,222.27399068907118,9.893731943002763
2025-02-19 14:28:15.428,849,-133,528,38,17,-42,-20,2,28,430,100,b,14.13832938130384,57.326529758211635,1690.7608400836127,-264.8659502133339,4.502092386163213
2025-02-19 14:28:15.534,648,4,750,-30,-21,43,-18,4,31,233,102,b,-0.30557459345856613,40.82661240831132,1301.7721381269093,8.035630482264871,-6.680715424663163
2025-02-19 14:28:15.637,1149,-6,611,4,56,21,-20,6,31,87,83,b,0.5626245948484775,61.99629445888208,2031.9172284587364,-10.61053383007173,141.49397163769544
2025-02-19 14:28:15.752,583,-200,707,18,-28,-21,-20,6,25,346,47,b,15.79543533230256,38.43106702080857,1204.5726246259392,-413.2324612781953,-46.776750618420465
2025-02-19 14:28:16.566,766,-87,619,0,-2,-2,-19,6,31,388,75,c,8.000474114892716,50.784297911487805,1540.7712499877152,-174.9962124659677,-7.087994441769865
2025-02-19 14:28:16.662,750,-108,622,0,-7,-2,-19,4,30,424,81,c,9.850256453708267,49.91126870508076,1515.0480697864132,-218.1669220492435,-12.4798658761988
2025-02-19 14:28:16.772,799,-61,652,-2,-2,-10,-20,3,30,491,104,c,5.344935932041629,50.66251538758107,1572.4256674393062,-120.04751653791948,20.86916749633599
2025-02-19 14:28:16.878,790,-225,593,29,24,12,-19,4,32,0,100,c,20.778079791776992,51.24079475125149,1569.7839109742804,-447.090354391409,7.668532648419955
2025-02-19 14:28:16.982,700,-96,634,29,-22,11,-18,7,30,397,104,c,8.610293938827576,47.509116627442175,1437.3848241243354,-197.12706159419457,-33.8599692783265
2025-02-19 14:28:17.094,570,-183,671,-48,40,14,-19,5,28,351,45,c,15.255118703057777,39.33619591685997,1203.8696104145247,-386.50550650150535,-75.18685717218602
2025-02-19 14:28:18.012,745,-94,620,-3,-4,-3,-18,5,31,492,77,d,8.621123175023042,49.91183362737035,1510.054419166302,-190.53035624380186,-16.689583735714223
2025-02-19 14:28:18.106,760,-92,616,-1,-9,-5,-19,5,30,528,92,d,8.494375789808986,50.66482932515648,1533.4512668610514,-185.62831125160096,-10.902605771588924
2025-02-19 14:28:18.218,759,-130,648,-8,12,-24,-20,3,31,385,103,d,11.343935900006201,48.95175556351634,1513.1568951217034,-259.1704826954169,4.134824718229538
2025-02-19 14:28:18.316,809,100,579,-10,-30,40,-19,4,30,0,103,d,-9.79897512443238,54.00930819055212,1618.1124744514664,200.01390289882158,-0.08049778417694142
2025-02-19 14:28:18.429,709,-307,647,10,7,-51,-18,3,31,746,102,d,25.384231050267527,44.71290668882793,1412.5548026485462,-611.6422065064932,4.9690305872928775
2025-02-19 14:28:18.537,765,208,574,-49,-25,60,-19,4,31,0,104,d,-19.91896349858412,51.40764532488213,1546.6037135160113,420.5144737403011,-12.458211187177199
2025-02-19 14:28:18.638,690,-135,537,0,70,17,-18,5,31,404,60,d,14.111533542216264,51.25374956635375,1469.9254432809707,-287.594108468016,-69.98545368388591
2025-02-19 14:28:19.462,725,-65,647,2,1,-4,-19,4,30,460,75,e,5.736895712322077,48.110878302848704,1469.4383289744237,-131.74274673563798,-17.34703289165816
2025-02-19 14:28:19.557,797,-50,627,2,-1,-2,-18,6,29,405,92,e,4.559393011841242,51.71958409719869,1581.9881694828155,-99.24643472288679,9.44970857499959
2025-02-19 14:28:19.662,784,-65,597,-12,4,-3,-19,2,30,90,100,e,6.213757719033524,52.54861746623813,1577.8696099113722,-130.8182712298969,-7.51550652689923
2025-02-19 14:28:19.774,697,17,649,6,-25,-1,-19,3,30,230,102,e,-1.500470835654396,47.032571897909115,1428.7412905275237,34.847348549451794,-32.34877697613024
2025-02-19 14:28:19.884,694,-184,585,-14,30,-18,-20,5,30,99,100,e,17.459921384429332,48.534514765286985,1443.3547447357662,-382.6761859241801,-46.660699813289966
2025-02-19 14:28:19.986,822,-30,609,30,-27,19,-19,4,30,0,105,e,2.8201724724484905,53.432926119445284,1625.1599746776317,-59.312407834950065,13.958120950513603
2025-02-19 14:28:20.096,600,-60,621,-46,57,30,-19,7,29,297,46,e,5.51869411505623,43.881660580565075,1293.1711564160125,-129.31711564160128,-96.432146890573
2025-02-19 14:28:21.011,761,-90,612,3,0,0,-20,7,30,470,88,f,8.36588612403259,50.89390974379695,1536.9793649830635,-181.771541193792,-12.046480117785563
2025-02-19 14:28:21.110,772,-105,597,-4,-10,4,-19,6,30,484,100,f,9.975126720458642,51.86150452197985,1558.5202747312042,-211.97490783261196,-11.228761676850695
2025-02-19 14:28:21.216,758,-34,583,-5,32,-49,-18,5,30,0,107,f,3.3376543413154334,52.38804500169927,1550.1623168300296,-69.53234666519921,-26.27523840620995
2025-02-19 14:28:21.326,787,-49,613,15,-8,-44,-20,3,29,724,96,f,4.57020630305506,51.99622558535378,1574.9701946043938,-98.06040601730027,-0.7556916041849036
2025-02-19 14:28:21.432,670,-24,693,-26,2,69,-19,2,29,453,97,f,1.983476694509309,44.016092169429726,1364.8603777984222,-48.890520995764376,-25.713793752696347
2025-02-19 14:28:21.535,844,-76,519,13,6,0,-20,2,27,0,97,f,8.330922543847711,58.13958589318153,1693.3365852232128,-152.48054558882012,-3.281620534179524
2025-02-19 14:28:21.646,738,-16,684,8,-8,17,-21,5,30,710,98,f,1.3400077808997088,47.16693101181295,1471.3375941216964,-31.898918029738674,4.321254228671819
2025-02-19 14:28:21.756,638,-143,632,-21,27,14,-20,5,26,560,50,f,12.749396329465796,44.555531543520715,1339.6002232230949,-300.25522244655565,-63.00210200156084
2025-02-19 14:28:22.566,763,-55,623,2,-2,-1,-19,5,29,612,81,g,5.045135089383176,50.65888802667501,1536.385534889036,-110.74862964468805,-8.479932157102894
2025-02-19 14:28:22.666,771,-31,611,4,-6,-3,-19,5,30,639,90,g,2.9044966409229804,51.568117893572,1554.3476997424732,-62.49647041766105,-9.785271780351763
2025-02-19 14:28:22.776,785,-30,617,-7,4,-10,-20,5,29,598,100,g,2.7836641073960013,51.80023358069407,1570.8594142666457,-60.03284385732404,-0.6754886656310646
2025-02-19 14:28:22.883,928,-15,567,-17,-21,58,-20,3,29,0,98,g,1.5154079000221272,58.566511632267805,1781.2461306013556,-28.79169392135811,45.67396977266344
2025-02-19 14:28:22.994,734,-157,655,26,13,-32,-19,4,31,743,99,g,13.479190063748725,47.459030292711084,1470.7940633397636,-314.5976402511484,-2.493339901287527
2025-02-19 14:28:23.099,701,-38,689,-42,-26,73,-20,5,31,0,102,g,3.156801270817707,45.45112921344778,1413.6523449137298,-76.63165350459592,-11.452875385962784
2025-02-19 14:28:23.206,993,-67,595,56,46,-26,-20,8,30,182,97,g,6.424729905902914,58.9108106127469,1849.364529272799,-124.78088968910126,81.87120350723512
2025-02-19 14:28:23.312,615,-117,719,-1,3,-11,-18,9,26,316,42,g,9.242501970453771,40.1727274629033,1260.0940510921678,-239.72520971997335,-35.1831263988106
2025-02-19 14:28:24.028,721,-21,675,-24,-12,-14,-19,5,28,554,59,h,1.7819605903266322,46.87345932708727,1450.8456907634163,-42.25764147854611,-8.281333238982256
2025-02-19 14:28:24.127,777,-9,634,-25,-8,-4,-21,5,29,576,79,h,0.8132924006277212,50.7841438497256,1551.769549959811,-17.97416467134916,1.8199553738479608
2025-02-19 14:28:24.234,804,-58,647,-3,4,-19,-19,0,29,603,98,h,5.122559674958615,51.06340612099323,1581.8419200707885,-114.11297433346485,21.050096659452493
2025-02-19 14:28:24.342,772,-168,728,-40,-8,51,-20,3,30,183,97,h,12.994616791916505,45.937795434581126,1490.5852036852916,-324.37605468799086,50.370429685372756
2025-02-19 14:28:24.446,809,27,558,19,-5,-58,-21,4,31,0,102,h,-2.770215797200193,55.37308232792664,1631.869503575673,54.462888252834574,-9.566357225247998
2025-02-19 14:28:24.546,711,14,683,-48,-22,41,-17,4,31,0,104,h,-1.1742732049743894,46.14468080620756,1432.0916261238895,28.198709937741846,-9.694206248405862
2025-02-19 14:28:24.661,947,-101,599,20,65,25,-21,7,31,313,79,h,9.570866180092079,57.321763589565066,1788.715929516558,-190.77118150071,66.59467605024486
2025-02-19 14:28:24.766,641,-210,653,9,-9,-6,-20,7,28,421,45,h,17.8274091552917,43.060424901784046,1323.7692761339983,-433.684162227987,-42.55122826131185
2025-02-19 14:28:25.586,762,-111,622,0,0,-2,-20,6,31,452,72,i,10.118295184497306,50.335532693751205,1531.795546910778,-223.1355717940897,-6.363294197511664
2025-02-19 14:28:25.684,777,-113,627,0,0,-4,-21,7,31,483,75,i,10.216365060142367,50.649956082248586,1550.2867000478072,-225.4599705346232,2.996446679568521
2025-02-19 14:28:25.791,770,-115,613,3,-3,-2,-20,6,31,574,81,i,10.625298512570756,50.99280444151879,1547.0669213803244,-231.05544929706144,-5.626003644336038
2025-02-19 14:28:25.900,816,-91,627,5,-13,-19,-20,3,31,616,103,i,8.257994506734901,52.173059006954375,1605.866730603393,-179.08562804523137,20.080343029010237
2025-02-19 14:28:26.007,762,-120,683,-28,-18,38,-20,4,31,0,104,i,9.964903874746648,47.6960943598028,1501.5852165002404,-236.47011283468356,20.09094111592617
2025-02-19 14:28:26.114,827,-37,565,58,33,-44,-19,8,33,439,103,i,3.7467630942133514,55.602288157132044,1652.1360600723688,-73.91660728256062,1.2734293338714906
2025-02-19 14:28:26.224,356,-346,615,26,-83,-60,-20,4,29,650,91,i,29.3621765611176,26.77093832383945,806.4247436031675,-783.7723631648762,-163.12139695490998
2025-02-19 14:28:26.327,1020,-132,669,12,36,23,-19,3,31,646,91,i,11.161626214608368,56.23618205764336,1851.3356020340275,-239.5846073220506,123.74164925415278
2025-02-19 14:28:26.438,560,-192,706,7,-14,-2,-20,4,29,592,48,i,15.213908607421525,37.43050360571006,1167.7986907185277,-400.38812253206663,-60.260492227286704
2025-02-19 14:28:26.540,805,-76,645,-1,1,0,-18,4,28,598,60,i,6.720144584836171,51.10392433166122,1583.2861574655499,-149.47794778556744,21.40425892511837
2025-02-19 14:28:26.650,742,-87,643,-2,-5,2,-19,5,30,556,59,i,7.705511934844509,48.8311793995885,1494.7732451958182,-175.26317025880888,-9.335844556483835
2025-02-19 14:28:26.757,779,-111,636,6,-7,3,-20,5,28,600,63,i,9.900020183153908,50.348999859357356,1548.9455535267734,-220.70982855131177,7.39233370599743
2025-02-19 14:28:26.860,773,-82,632,2,-4,1,-20,5,29,606,66,i,7.392647471393985,50.496231645816664,1544.5827467347808,-163.8496574802743,1.1587374691054038
2025-02-19 14:28:26.970,767,-96,634,3,-3,-3,-20,6,30,612,68,i,8.610293938827576,50.103719373120505,1534.206790098653,-192.02588246345596,-0.1709321024069368
2025-02-19 14:28:27.077,771,-98,622,-1,-2,1,-19,6,29,609,68,i,8.95370462763415,50.761610622094054,1545.52084185655,-196.44752594285592,-2.840419759758788
2025-02-19 14:28:28.296,754,-103,616,-4,3,0,-19,5,28,416,65,j,9.492485816459325,50.36443270076494,1524.1174028972614,-208.20171418888316,-13.167533401476135
2025-02-19 14:28:28.387,769,-70,625,-1,1,-1,-20,5,30,443,64,j,6.390495314646983,50.72282554267287,1543.0924751378827,-140.46355430383846,-4.138877712843623
2025-02-19 14:28:28.498,774,-78,627,-1,0,1,-19,5,30,448,62,j,7.091273255327595,50.77448969522353,1548.663007926336,-156.06681475226642,-0.537087816295525
2025-02-19 14:28:28.609,763,-74,627,-1,-1,0,-19,6,29,422,62,j,6.731043720645484,50.393615140418035,1533.4422054880827,-148.7217866397354,-6.115678690730988
2025-02-19 14:28:28.715,766,-96,627,0,-1,-1,-18,6,31,480,62,j,8.70495710639893,50.37263828425206,1536.2087518077922,-192.52746758948828,-3.445022693845317
2025-02-19 14:28:28.822,761,-83,620,1,-1,-1,-20,6,29,480,63,j,7.62490735242017,50.580290695105795,1533.5151853965485,-167.25592692235682,-9.381622793508768
2025-02-19 14:28:28.927,772,-71,623,2,-2,-2,-20,5,28,544,64,j,6.501644730371926,50.91585709954026,1548.2209222950528,-142.38819363076263,-3.4062624220439375
2025-02-19 14:28:29.033,779,-75,634,4,4,12,-19,4,30,725,60,j,6.746537979218943,50.66405225210102,1552.4426701315856,-149.46495540419625,4.5229103165276
2025-02-19 14:28:29.145,764,-61,615,3,-10,-1,-19,6,31,782,62,j,5.664468707346686,51.029779419265985,1541.4729450643204,-123.0757194357638,-10.845368081880792
2025-02-19 14:28:29.252,761,-76,607,5,-13,-3,-20,7,30,774,75,j,7.136633497873397,51.205505505294894,1540.3981711889464,-153.8373994879894,-14.675019594862647
2025-02-19 14:28:29.358,816,-27,583,-1,-2,-5,-20,4,30,765,92,j,2.6515977133352644,54.42664294759608,1629.3713644761638,-53.913023089284835,1.8780569980349355
2025-02-19 14:28:29.469,793,-37,539,1,-1,-17,-19,5,31,771,105,j,3.9269449754313044,55.7335163974908,1619.4277998072885,-75.55968296704877,-22.720787006467162
2025-02-19 14:28:29.576,835,76,581,-65,-22,46,-21,6,31,0,114,j,-7.452486544098788,54.941274441084985,1653.5637244513105,150.50400366263426,11.436498315914491
2025-02-19 14:28:29.686,592,-176,496,-45,26,-64,-19,4,31,461,70,j,19.536654938128386,48.362239944795746,1339.3603760032688,-398.1882198928636,-130.166801516252
2025-02-19 14:28:29.788,825,-2,528,27,11,23,-20,3,31,644,104,j,0.2170284298800586,57.38057030527594,1667.2696448539946,-4.041865805706653,-11.052572706556361
2025-02-19 14:28:29.899,592,-131,666,-10,31,30,-18,5,28,628,54,j,11.1278315053678,41.09418582176172,1249.2987733936325,-276.4495596529829,-73.46112006783665
2025-02-19 14:28:30.001,873,-6,594,12,-23,-9,-18,4,29,598,76,j,0.5787255656077621,55.76678517254042,1699.7545910310348,-11.68216213767034,31.465948370636283
2025-02-19 14:28:31.516,747,-1,649,3,2,-5,-19,4,28,407,5,k,0.08828310349763627,49.01557506095897,1501.8878928604818,-2.0105594281934156,-6.853068897526782
2025-02-19 14:28:31.609,744,-16,640,4,-2,-2,-19,7,29,418,6,k,1.4320961841646465,49.28853729306316,1502.0038609304122,-32.30115829957875,-12.046331983150253
2025-02-19 14:28:31.725,752,-1,656,-25,-9,-2,-19,4,27,518,5,k,0.0873410596531861,48.90046076496754,1505.5686788007524,-2.0020860090435537,-1.368421932571323
2025-02-19 14:28:31.832,770,-63,659,-37,-12,-3,-20,5,30,588,70,k,5.460846093685353,49.312831021535196,1528.2803504319077,-125.04111958079248,10.030193591392958
2025-02-19 14:28:31.942,752,-133,632,-13,-7,-1,-21,6,30,635,82,k,11.884088998209185,49.34290818998455,1510.6224730041654,-267.17126184781114,-5.565695397117679
2025-02-19 14:28:32.045,757,-103,615,3,-3,0,-20,3,29,694,86,k,9.507639187381448,50.52060484996366,1528.853281509405,-208.02098810497847,-12.067064898657804
2025-02-19 14:28:32.152,774,-108,609,0,-2,0,-21,4,33,681,89,k,10.056276316706443,51.37170152711917,1555.2122420255314,-217.00635935239973,-5.674748570476254
2025-02-19 14:28:32.263,778,-105,611,-5,2,-4,-21,6,30,651,88,k,9.751001762252871,51.45008872735668,1560.0655774965594,-210.54869619169503,-3.1928892678635066
2025-02-19 14:28:32.366,780,-141,596,3,3,-13,-20,3,30,589,90,k,13.310157608428113,51.86119547961992,1566.5169436964566,-283.1780628989748,-4.979613388574421
2025-02-19 14:28:32.476,786,-187,536,8,13,-27,-21,2,32,497,104,k,19.23288858962038,54.16152189394168,1596.67079630604,-379.8695151516914,-16.823850916078072
2025-02-19 14:28:32.582,843,77,530,24,-1,18,-22,4,32,0,112,k,-8.266268460520376,57.571900377990225,1687.065037943189,154.09728104581916,-0.6695968088851032
2025-02-19 14:28:32.692,1156,-269,727,35,1,-29,-19,4,29,436,107,k,20.30516691867047,56.15565298736164,1986.553646828726,-462.2689714506291,204.67084667432198
2025-02-19 14:28:32.798,826,-58,533,-27,19,-6,-22,3,32,0,108,k,6.21037660766174,57.01289383423762,1664.7931122005643,-116.89830569931325,-8.255119616102888
2025-02-19 14:28:32.904,712,-54,633,7,-22,18,-21,6,31,0,115,k,4.875986212462188,48.25829425374353,1458.1537616304076,-110.59031338208149,-30.364229089955188
2025-02-19 14:28:33.009,708,-189,554,0,59,10,-20,6,28,258,55,k,18.837343683724875,50.41713266623856,1478.7038117621253,-394.73872941107584,-49.0648470568043
2025-02-19 14:28:33.926,762,-99,620,0,-1,-4,-20,5,30,611,77,l,9.072254846834054,50.51298745625825,1533.768745876873,-199.26916777140477,-7.948323416878225
2025-02-19 14:28:34.027,757,-64,625,3,-2,-8,-20,5,31,673,83,l,5.846708923984534,50.30919770828014,1526.5020867177363,-129.0569795904031,-10.322066312530183
2025-02-19 14:28:34.138,882,-105,671,-7,4,-22,-20,1,28,722,102,l,8.893682694304925,52.402682220133485,1674.318205561947,-199.3235959002318,68.22730619947106
2025-02-19 14:28:34.244,712,-185,702,-17,-25,71,-20,4,31,0,102,l,14.763648294356894,44.44347767520768,1412.2053013124105,-366.93536621179203,11.629042807145993
2025-02-19 14:28:34.347,841,-91,610,27,-11,-2,-20,5,32,0,108,l,8.484829774754504,53.745408173175434,1647.397212646125,-178.255822058023,25.098335655010374
2025-02-19 14:28:34.458,566,-211,676,-18,23,2,-21,6,27,288,47,l,17.33471850287925,38.63357165647324,1190.3374105209923,-443.7476919080025,-69.67506980952453
2025-02-19 14:28:34.559,792,-95,637,5,-9,-10,-19,5,30,360,55,l,8.482377631076327,50.88239884532338,1567.8526280410292,-188.06313088875982,12.987217093263325
2025-02-19 14:28:35.376,768,-88,626,0,-2,-3,-18,6,31,597,73,m,8.001924090332443,50.54157038692506,1540.0858805226671,-176.46817380988892,-3.3304182385282957
2025-02-19 14:28:35.477,788,-78,615,1,-7,-6,-21,4,29,595,83,m,7.2281899099778375,51.80755565387403,1573.938436498687,-155.79593660773804,1.6089613620653154
2025-02-19 14:28:35.584,743,-66,640,2,3,-3,-19,4,30,608,87,m,5.887814284398801,49.109370561308126,1498.960540050995,-133.15127273669674,-11.16385684069553
2025-02-19 14:28:35.692,793,-72,552,-14,6,-9,-19,5,29,387,101,m,7.431407971172507,54.9316363049657,1611.46708625965,-146.31227012697957,-17.727404306843482
2025-02-19 14:28:35.796,821,14,572,7,-2,11,-19,6,29,0,104,m,-1.402064329041399,55.12658896712365,1641.4173004385716,27.99006358847747,0.4059733850634757
2025-02-19 14:28:35.909,736,-186,618,-10,-7,-31,-20,4,31,547,102,m,16.75026450502572,48.753127533554114,1487.8757972499589,-376.0120900658863,-13.330492799557646
2025-02-19 14:28:36.014,822,25,598,-2,-13,21,-18,2,31,0,107,m,-2.3939145081162234,53.94053717785477,1630.4065423155507,49.58657367139753,9.889157780171104
2025-02-19 14:28:36.124,718,-301,621,19,-8,-17,-20,6,31,647,104,m,25.859565244142555,46.13498633215949,1438.9743869827034,-603.2469226765929,-2.572554758020601
2025-02-19 14:28:36.231,890,-36,563,18,-9,30,-20,2,32,385,109,m,3.658692249906575,57.63036314389876,1734.6117612855228,-70.16407124300991,28.711885838483795
2025-02-19 14:28:36.337,518,-226,673,-11,26,12,-18,10,30,570,44,m,18.562556138687597,36.116218571431084,1107.4250493983486,-483.1622802394339,-92.79740973955325
2025-02-19 14:28:37.156,743,-112,616,2,1,-5,-20,6,30,417,63,n,10.304846468766033,49.880381350309726,1507.7008016886707,-227.27118410381036,-17.991512570956957
2025-02-19 14:28:37.250,821,-80,618,0,-1,-4,-19,3,29,489,76,n,7.37591186889383,52.800727791268585,1617.5375977918632,-157.6163310881231,18.413842344249247
2025-02-19 14:28:37.357,769,-99,633,1,5,-3,-20,5,30,377,73,n,8.888942478424527,50.20051498705773,1537.2892770091403,-197.9085025018269,0.5850294580159243
2025-02-19 14:28:37.464,682,-84,604,4,-8,-21,-21,7,30,516,76,n,7.917503034828343,48.19837951114603,1427.4571479361673,-175.81583640269514,-56.19958556223639
2025-02-19 14:28:37.574,750,-213,663,-19,-8,42,-20,4,29,0,100,n,17.810496387922033,47.123298263605335,1482.819640703796,-421.1207779598781,15.187437617844239
2025-02-19 14:28:37.677,853,3,531,48,-2,-67,-20,7,32,0,103,n,-0.32370152492022336,58.09696286793596,1701.9436750012999,5.985733909734934,2.525097976916527
2025-02-19 14:28:37.787,740,8,686,-32,-20,27,-20,4,31,238,7,n,-0.6681420683287296,47.166707365042036,1473.3349403510335,15.927945301092254,6.178690431339078
2025-02-19 14:28:37.894,1125,-34,477,34,43,-5,-19,4,31,497,95,n,4.077080460086743,66.97083254172615,2045.3058254014636,-61.813687167688684,86.79033002977934
2025-02-19 14:28:38.000,527,-186,695,-4,0,0,-18,8,29,535,39,n,14.982716098545088,36.22259037729229,1117.923787163365,-394.56133664589356,-84.30176864997838
2025-02-19 14:28:38.818,758,-84,622,0,-1,-2,-19,7,30,603,66,o,7.6911617519411255,50.37423902542052,1528.2265702666862,-169.35492335409185,-10.032884836251696
2025-02-19 14:28:38.917,764,-109,639,-1,-7,-1,-20,2,29,599,74,o,9.680286333515273,49.68644605168305,1526.5153031041734,-217.78817806067397,1.2417818277921242
2025-02-19 14:28:39.024,770,-96,611,22,-18,-1,-20,4,31,628,91,o,8.929282753649883,51.22713317936252,1549.6346141113406,-193.20119864245285,-7.645128859778083
2025-02-19 14:28:39.131,785,-57,663,4,9,-30,-20,5,32,734,101,o,4.913798762374737,49.712003948542886,1547.803820864713,-112.38830291629125,18.746581868401677
2025-02-19 14:28:39.237,942,85,549,-8,-17,60,-18,4,28,118,93,o,-8.801050771368587,59.47017152988781,1803.3648166732667,162.72400150448797,46.99439028277783
2025-02-19 14:28:39.348,732,-300,690,12,-2,-35,-18,5,32,733,97,o,23.498565675952094,44.21278357245797,1429.3250393188068,-585.7889505404946,32.68541375686232
2025-02-19 14:28:39.454,654,-56,627,-47,49,48,-19,6,29,448,42,o,5.103784143053766,46.093743309224564,1374.4753880057096,-117.69208215339408,-63.73099125318015
2025-02-19 14:28:39.561,666,-116,675,23,-30,-19,-18,7,26,597,7,o,9.751136701265631,44.19865976018837,1363.1483329794705,-237.42523517360146,-31.56925639811209
2025-02-19 14:28:40.476,751,-57,649,3,-6,-4,-20,5,28,644,6,p,5.019261700665207,49.05811031072808,1506.3745776777228,-114.33202520323596,-3.7804273140374107
2025-02-19 14:28:40.573,737,-59,630,-1,-2,-4,-18,5,28,672,7,p,5.35019040851105,49.352022702487076,1495.7261077325807,-119.73926778320521,-18.57184243083543
2025-02-19 14:28:40.676,765,-15,639,1,-1,-9,-19,4,29,662,6,p,1.3447243887023312,50.120426089980626,1532.393781471727,-30.046936891602485,-1.9995115822659955
2025-02-19 14:28:40.789,722,-144,577,-4,9,-10,-21,3,28,565,6,p,14.012876511834921,50.522378369128134,1493.8729615543205,-297.9469618612495,-39.85692356903428
2025-02-19 14:28:40.896,800,65,583,17,-1,21,-21,6,31,1,104,p,-6.361763951032548,53.7486940149646,1606.4311259002839,130.52252897939803,-4.686682999831646
2025-02-19 14:28:41.007,844,-159,552,27,-1,-45,-21,3,28,743,95,p,16.068700831466224,55.76001702496214,1670.6881317172301,-314.738640927772,11.322454137546174
2025-02-19 14:28:41.109,623,16,738,-29,3,54,-18,4,31,401,97,p,-1.241990354423108,40.16353320961068,1267.971427156026,32.564274212674825,-26.027148059626484
2025-02-19 14:28:41.216,895,-12,566,-39,77,34,-19,6,28,481,6,p,1.2145695479437102,57.68483194077561,1740.120343130925,-23.33122247773307,31.54400646692352
2025-02-19 14:28:41.327,561,-119,664,17,-41,-20,-18,7,25,565,6,p,10.160505775609991,39.74791441154544,1200.4110154179875,-254.63263963411856,-92.8073337567622
2025-02-19 14:28:42.140,770,-42,633,6,-12,-8,-20,4,28,621,7,q,3.796051626481842,50.515385008429845,1541.7953546886993,-84.09792843756541,-1.4759214518785484
2025-02-19 14:28:42.239,754,-47,629,0,-4,-1,-19,4,29,649,6,q,4.273301368566136,50.08606445507963,1521.0091150135518,-94.81091300482349,-10.852431490084655
2025-02-19 14:28:42.346,759,-25,621,1,-3,-1,-20,5,29,646,7,q,2.305348506496879,50.68785492288332,1532.7059335958465,-50.48438516455357,-12.032127487510934
2025-02-19 14:28:42.448,753,0,633,0,1,-8,-21,4,30,644,7,q,0.0,49.948333750024354,1518.464500476624,0.0,-10.478125898676012
2025-02-19 14:28:42.554,891,35,586,-1,6,24,-20,3,29,0,6,q,-3.418042325558989,56.620709441499926,1726.0467788546325,67.80206202010342,36.79976160626859
2025-02-19 14:28:42.669,688,-105,684,18,-1,-35,-20,4,31,679,7,q,8.727277695172774,44.83341724961107,1393.047940861522,-212.6017933000869,-16.948824926280395
2025-02-19 14:28:42.776,766,-112,654,-41,-17,59,-18,3,31,181,7,q,9.717851740610897,49.10038900304096,1521.857914436935,-222.51708409521768,8.659169658282508
2025-02-19 14:28:42.886,773,-82,518,51,-10,-25,-20,6,31,307,104,q,8.99534500367926,55.84464629821182,1600.5183124974976,-169.78331387424944,-36.5336169129414
2025-02-19 14:28:42.993,631,-124,649,-39,60,32,-20,8,28,579,44,q,10.81674857107365,43.68111168836793,1321.6440378562233,-259.7208568845827,-61.34545256527565
2025-02-19 14:28:43.096,744,-114,649,5,-13,-22,-19,8,28,390,41,q,9.962646886451065,48.46974683781404,1492.6057415583045,-228.70571846457892,-4.017642837822223
2025-02-19 14:28:43.915,755,-49,635,0,0,-2,-20,5,29,599,62,r,4.412504916268466,49.85036247961918,1519.3630850532436,-98.6076704206741,-7.874912594449938
2025-02-19 14:28:44.012,715,-84,658,6,-11,-10,-20,5,30,626,69,r,7.275004957889255,47.14643207503643,1448.094309329956,-170.1257650121906,-16.65182592882661
2025-02-19 14:28:44.120,764,-39,631,-2,3,-3,-19,6,29,650,81,r,3.536761568601993,50.39250686796224,1534.4298739887927,-78.32822655178393,-5.310537286555132
2025-02-19 14:28:44.226,798,37,576,-9,3,-10,-20,4,27,601,95,r,-3.6754083573302783,54.12207912610825,1608.2675409043457,74.56879575621652,-8.854766367046295
2025-02-19 14:28:44.333,796,122,604,-5,-10,15,-20,7,29,1,99,r,-11.419345032647804,52.25589699897799,1586.752580212241,243.19574721845902,3.9817104922193494
2025-02-19 14:28:44.443,786,-254,619,5,-2,-29,-19,3,28,722,96,r,22.31026786500635,49.59373298594463,1547.4674116074389,-500.07216609197127,19.320193657755
2025-02-19 14:28:44.550,750,-9,575,-27,49,16,-19,4,29,715,69,r,0.8967302800580951,52.520431899247626,1543.5703765511732,-18.52284451861408,-33.403955355899484
2025-02-19 14:28:44.656,731,-42,649,4,-8,-6,-18,5,28,658,53,r,3.7027300004619503,48.34108358934393,1478.1149896714048,-84.9258954393967,-14.30728905163005
2025-02-19 14:28:44.762,751,-59,642,0,1,0,-19,4,26,624,55,r,5.250751099478413,49.35514589746466,1509.761614975268,-118.60976735491454,-6.6350956246631085
2025-02-19 14:28:45.576,765,-51,641,5,-3,-1,-20,5,28,756,69,s,4.549051759596782,49.95105421363746,1530.4950526290488,-102.03300350860326,-0.41480880420954236
2025-02-19 14:28:45.676,754,-55,634,0,-3,-1,-19,4,31,776,74,s,4.9580413450344585,49.83540453956977,1518.194727737064,-110.74364724872484,-8.572224648937208
2025-02-19 14:28:45.787,750,-39,616,3,-12,-1,-19,4,29,784,82,s,3.6226573801750788,50.54637824392,1522.1392060021342,-79.15123871211097,-18.183667863086043
2025-02-19 14:28:45.893,727,-47,669,-7,4,-10,-22,3,30,758,98,s,4.018661156077191,47.30882739095968,1462.0190684780237,-94.51842671040868,-7.379307856668333
2025-02-19 14:28:46.004,965,-48,651,-12,-13,43,-19,4,31,524,96,s,4.21694282916858,55.92390173065398,1793.294140911506,-89.2001230712459,92.22333084622755
2025-02-19 14:28:46.106,752,-59,629,5,7,15,-19,5,29,404,103,s,5.358646800031588,49.96612117857169,1517.6642308514718,-119.07206066520857,-11.429256922308127
2025-02-19 14:28:46.216,642,-36,601,-28,66,25,-19,6,27,379,49,s,3.4279308022020882,46.83800573701392,1371.4225443920052,-76.90219875095354,-81.83948470341898
2025-02-19 14:28:46.323,629,-125,688,7,-27,-21,-19,8,27,497,39,s,10.297517768433389,41.97195920049306,1297.7668279839631,-257.90278775515964,-43.4969438043986
2025-02-19 14:28:47.142,713,-2,667,-33,-7,-13,-20,6,28,462,55,t,0.17180092293381896,46.90902393274479,1443.2698813647141,-4.04844286497816,-16.155695470216415
2025-02-19 14:28:47.241,743,-61,650,-40,-9,-11,-21,5,28,572,63,t,5.361286204685202,48.69501334470164,1494.2066883676744,-122.67376580138375,-7.179471654089184
2025-02-19 14:28:47.347,797,-33,644,-12,-7,-11,-20,4,29,612,80,t,2.9333981791873165,51.02401532492397,1574.409670616813,-65.18885712717042,15.829576063704621
2025-02-19 14:28:47.453,733,-142,653,-6,-14,-29,-20,4,30,667,97,t,12.268416412070412,47.645206820937986,1471.9871406045104,-285.1598553422108,-5.3337009750957804
2025-02-19 14:28:47.561,795,-147,683,-3,-4,64,-21,3,30,0,92,t,12.146307799442628,48.69123373513569,1546.163144333425,-285.894317254105,37.66109738398836
2025-02-19 14:28:47.671,675,-114,678,22,-5,-33,-18,4,30,222,102,t,9.544525565558134,44.47364578430181,1375.5811179001707,-232.32036657869548,-25.694811757504795
2025-02-19 14:28:47.773,976,-7,761,26,30,-27,-21,4,28,0,99,t,0.5270159599342027,52.054814870947034,1764.5993962130228,-12.655938292511435,146.11870848554258
2025-02-19 14:28:47.884,692,-105,675,8,-18,11,-20,3,29,411,102,t,8.841814560191672,45.37007919259175,1403.6592729363747,-212.98298216520135,-19.176313919151426
2025-02-19 14:28:47.988,663,-140,623,-20,41,16,-21,5,29,268,54,t,12.665063765042362,46.076791901678455,1383.2701848072325,-292.093251693835,-53.81497003756567
2025-02-19 14:28:48.907,742,-94,645,-1,-2,1,-20,4,28,510,64,u,8.291708593784517,48.7021488286192,1493.2888857664593,-189.1767591132711,-8.074570511275056
2025-02-19 14:28:49.002,738,-79,642,-5,-1,1,-21,6,31,481,66,u,7.015149216997531,48.76607904318595,1490.0248115669535,-159.50130096719425,-12.20044583466722
2025-02-19 14:28:49.112,697,-95,640,-16,0,-10,-19,4,30,291,67,u,8.443190929176636,47.130010905927676,1429.899352467538,-194.8930250852455,-32.96353741639075
2025-02-19 14:28:49.219,715,-176,752,12,-3,-22,-19,4,30,0,101,u,13.172553423326894,42.79291995620871,1394.350632019723,-343.2247709587011,37.49416044918644
2025-02-19 14:28:49.325,851,99,668,-6,-28,35,-20,5,31,0,104,u,-8.430077516459887,51.56685411660599,1634.3339892358053,190.1281609099233,53.11503547647703
2025-02-19 14:28:49.432,773,-245,595,0,6,-21,-19,2,29,464,104,u,22.380135051959574,50.22504108267399,1541.5632097311632,-488.5937728125938,3.4151231694150965
2025-02-19 14:28:49.538,856,64,575,4,-13,28,-20,6,32,0,105,u,-6.351128141942979,55.946140969450205,1684.5115552824898,125.94478917999923,18.464784710944514
2025-02-19 14:28:49.649,607,-230,633,-20,44,17,-21,8,29,355,43,u,19.968569980409754,42.02755439195569,1276.487918359062,-483.67746494659673,-65.164501353025
2025-02-19 14:28:50.566,747,-111,638,1,-1,-2,-20,6,29,259,59,v,9.869596847795938,49.077559551507164,1502.5969756028244,-223.27746223817067,-7.342530702278395
2025-02-19 14:28:50.660,704,-152,657,7,-12,-7,-21,4,27,352,63,v,13.02645839112431,46.2321526909518,1426.148524639157,-307.91843145618157,-16.93690438625856
2025-02-19 14:28:50.771,768,-60,611,15,-5,-17,-20,6,30,436,87,v,5.6084451785203004,51.36117240419671,1549.0975088959822,-121.0232428824986,-10.42002335344398
2025-02-19 14:28:50.878,761,-204,621,-14,2,-6,-20,1,27,292,99,v,18.18547675861238,49.339588149152085,1519.5847183784565,-407.35253948647187,1.9709459750047245
2025-02-19 14:28:50.980,760,98,619,5,-10,18,-22,5,30,0,105,v,-8.996390935189858,50.490395118798666,1531.5179424279079,197.4852083657039,-9.381061003782861
2025-02-19 14:28:51.087,783,-102,647,25,6,-9,-19,4,32,569,103,v,8.958983680116596,50.08702999818465,1550.0199276977885,-201.91830475756632,13.204478645633344
2025-02-19 14:28:51.201,575,-183,655,-12,20,17,-18,6,27,319,50,v,15.609795294212285,40.21398565345572,1220.644107819952,-388.483255184437,-80.47285325577161
2025-02-19 14:28:51.304,838,-68,635,6,-7,-8,-20,5,31,359,61,v,6.112317635488364,52.689374056264676,1633.3610819580063,-132.5400400634182,32.30991999602145
2025-02-19 14:28:52.316,739,-93,635,2,1,-2,-21,4,30,486,67,w,8.33211396137521,49.02777988508397,1494.0275820241068,-188.01700287989436,-13.772008911106695
2025-02-19 14:28:52.418,720,-76,647,-2,2,-6,-20,5,28,428,71,w,6.699560459644888,47.86153818547407,1461.5256262994988,-154.2721494427249,-19.343166966355284
2025-02-19 14:28:52.525,807,3,575,13,15,-12,-22,3,29,0,98,w,-0.2989317894025211,54.52917065123024,1621.4110625899975,6.027550418550177,-5.2804968887840005
2025-02-19 14:28:52.630,797,-149,650,-11,3,9,-20,2,28,0,95,w,12.910898167257935,50.08038994377354,1563.9455643045112,-292.3812911936916,24.511145799331985
2025-02-19 14:28:52.741,826,1,591,5,-18,-13,-21,5,29,0,102,w,-0.09694708093644566,54.41637857851038,1639.26713356624,1.9845849074651816,9.110319688077425
2025-02-19 14:28:52.848,789,-109,614,15,2,-9,-20,3,29,485,99,w,10.066526327710461,51.67829857539718,1573.5415659275936,-217.38406931065617,3.4695545252945976
2025-02-19 14:28:52.958,828,-59,532,14,-17,-30,-20,6,29,1,106,w,6.328370871410189,57.119302484276076,1667.8028079590215,-118.8410213400752,-7.5834466596610355
2025-02-19 14:28:53.065,835,-11,576,-44,60,49,-19,6,30,482,67,w,1.094057244375989,55.39641519333126,1658.1008388257887,-21.843244583333746,8.208283636342003
2025-02-19 14:28:53.172,680,-119,657,5,-15,-7,-18,7,29,197,44,w,10.266470198876522,45.523331526507164,1393.5358086433782,-243.86876651259115,-32.40150923338149
2025-02-19 14:28:53.278,799,-95,623,-2,-2,-5,-18,6,30,258,56,w,8.670127372379442,51.73581793999528,1584.1636664359812,-188.35487898800778,10.788530426012244
2025-02-19 14:28:53.384,785,-107,641,0,-3,-4,-19,7,29,285,58,w,9.476816460059736,50.380040762841986,1555.2911465746622,-211.9950989598584,12.010668847951138
2025-02-19 14:28:53.491,756,-125,634,0,-3,-1,-20,7,31,335,60,w,11.153434527665267,49.47721691801157,1516.147659101684,-250.6857901953842,-3.478327870988778
2025-02-19 14:28:53.601,772,-108,625,0,-2,-2,-18,6,29,346,64,w,9.803894866674046,50.59403486154616,1544.6674866866633,-216.09337896652806,-0.5403875377779741
2025-02-19 14:28:53.708,776,-102,618,-1,-1,-1,-19,7,30,362,66,w,9.372092708579087,51.09070623431499,1554.1412784031932,-204.28145669732695,-1.7052964602748943
2025-02-19 14:28:53.806,768,-98,623,-1,0,-1,-18,4,31,358,66,w,8.939565003151525,50.608088381074495,1540.8231699935095,-196.61545658771342,-3.9125454504639947
2025-02-19 14:28:53.921,748,-99,625,-1,-1,-1,-19,5,29,272,65,w,9.000869684994528,49.76948323089641,1511.452137867363,-200.04513589420975,-12.911211453344663
2025-02-19 14:28:54.026,760,-98,618,-1,1,-1,-20,7,32,256,65,w,9.010709546817646,50.53474513705948,1532.0101701568658,-197.5486798360169,-9.76616468018824
2025-02-19 14:28:54.138,760,-100,616,-1,-1,0,-19,6,28,261,66,w,9.220824040637911,50.609316835002865,1532.8367764581837,-201.6890495339715,-10.404545129264534
2025-02-19 14:28:54.241,769,-91,625,1,-1,-1,-18,5,30,264,67,w,8.284053921444,50.603277435351366,1541.769880111985,-182.4461106504429,-3.063946775020213
2025-02-19 14:28:54.346,769,-91,622,0,-1,0,-20,6,30,266,67,w,8.323450707442925,50.735608919907065,1543.2337019644133,-182.61933274221278,-4.233241380838763
2025-02-19 14:28:54.456,769,-95,621,0,-1,-1,-20,5,29,280,67,w,8.69762415767234,50.753345455286215,1543.4295859262184,-190.67075508841447,-4.384620104267128
2025-02-19 14:28:54.556,772,-101,622,0,-2,-1,-19,7,30,288,67,w,9.223155198449449,50.77687682503999,1546.6893540373057,-202.35184554115014,-2.166811154409743
2025-02-19 14:28:55.486,777,-79,623,-2,-1,0,-21,4,32,655,74,x,7.226865346033378,51.054078063979524,1554.739593142128,-158.07519672873627,-0.5930071139583788
2025-02-19 14:28:55.580,783,-81,622,-2,-4,0,-20,4,29,679,77,x,7.419593596569227,51.30219931736036,1563.4544069085828,-161.73666278364647,2.022169735455577
2025-02-19 14:28:55.686,803,-58,616,7,-20,-9,-20,3,31,680,97,x,5.378874736678853,52.385166676180546,1595.1316561169356,-115.21498886025188,8.337359691117854
2025-02-19 14:28:55.797,737,-117,628,4,-2,-1,-20,5,31,720,102,x,10.553538433288216,49.082394516296496,1492.65224888382,-236.96107614573532,-15.893639483092215
2025-02-19 14:28:55.903,792,-68,597,1,-1,-1,-18,5,30,721,103,x,6.498146995939136,52.813795268610114,1588.6754659918429,-136.40142889828954,-3.5243095923361807
2025-02-19 14:28:56.010,797,-69,597,0,-1,-2,-21,4,30,725,103,x,6.592872707594245,52.982047033601795,1595.4468991040949,-138.12526479069328,-1.0838127542591565
2025-02-19 14:28:56.120,697,-164,680,-3,14,-14,-21,5,31,432,106,x,13.559451870534044,44.897554207504314,1402.841333039512,-330.08031365635577,-8.62569077025546
2025-02-19 14:28:56.222,813,31,547,-21,9,32,-20,6,31,0,104,x,-3.2436403166923355,56.02411414847061,1642.2728473603238,62.620489874747875,-10.948643918938274
2025-02-19 14:28:56.329,562,-156,708,31,6,-27,-21,1,31,97,99,x,12.425942865427487,37.78251528216359,1174.6658967562976,-326.0638432277267,-63.82821157199032
2025-02-19 14:28:56.436,754,24,646,-2,-33,39,-20,6,31,0,111,x,-2.12765723248679,49.3916992970103,1513.1770187144461,48.164785741573894,-4.435482877363597
2025-02-19 14:28:56.546,671,-186,588,-8,65,13,-19,5,29,424,51,x,17.553544826339873,47.41383754233388,1407.2605384225558,-390.0901045403805,-57.188072417977196
2025-02-19 14:28:56.653,707,-119,655,12,-16,-9,-17,6,28,342,45,x,10.297148527187591,46.722368437959595,1435.0404476565104,-241.54146148673937,-19.492918267347022
2025-02-19 14:28:57.575,722,-104,648,-24,-11,-1,-20,5,27,674,62,y,9.117862753795789,47.729396827563846,1461.976301105508,-210.5893840927601,-16.133854731813017
2025-02-19 14:28:57.669,762,-137,625,-7,-10,-4,-22,5,29,671,74,y,12.363690646040444,49.98036499545583,1527.8241177339721,-274.68753822776137,-3.136579506210637
2025-02-19 14:28:57.776,732,-100,638,-7,3,-6,-20,4,29,632,79,y,8.908052426073642,48.58042371087472,1481.885074962985,-202.44331625177387,-15.588357686317295
2025-02-19 14:28:57.883,797,-95,496,-8,4,-4,-20,3,29,456,101,y,10.84267628147007,57.63977345766014,1641.6996810995306,-195.68565834937945,-29.685121487286438
2025-02-19 14:28:57.986,790,-128,675,-3,-13,42,-19,5,31,84,100,y,10.737484413408488,48.987915379610186,1544.571189818696,-250.25963581872543,30.27145173719032
2025-02-19 14:28:58.095,863,-82,645,18,15,-8,-20,5,29,660,97,y,7.245247682277101,53.00532047081505,1661.691390986577,-157.8895643811116,48.063792368085615
2025-02-19 14:28:58.206,833,-135,465,11,9,-1,-17,3,30,665,101,y,16.189206257026942,59.8317213003846,1697.5531620154122,-275.11365770958065,-17.61370988855549
2025-02-19 14:28:58.306,788,-26,549,-51,-19,39,-20,5,32,0,115,y,2.7114354132332124,55.10494466787149,1608.2012494288174,-53.062477773032036,-22.434626822868722
2025-02-19 14:28:58.419,538,-151,578,-3,64,25,-20,7,26,0,52,y,14.641048558048974,42.00529362627202,1207.1992635508745,-338.82358512301494,-140.95385563644118
2025-02-19 14:28:58.526,731,-147,671,11,-27,-15,-20,8,27,203,50,y,12.356911839174728,46.78090101295987,1459.7403998512766,-293.5456070836357,2.0741336522482925
2025-02-19 14:28:59.343,747,-146,636,-3,0,-3,-20,7,31,369,58,z,12.92880499049769,48.861124384216794,1500.1171848452223,-293.1955943606458,-5.208205571032522
2025-02-19 14:28:59.443,742,-139,636,-2,-4,1,-18,3,29,433,61,z,12.328340121685422,48.73709336886,1493.6912620507626,-279.81547900950943,-8.306796043510758
2025-02-19 14:28:59.548,750,-136,632,-6,0,-3,-19,5,29,435,64,z,12.144278049567005,49.2400938873686,1507.4521146334932,-273.35131678687344,-6.279648597823666
2025-02-19 14:28:59.654,764,-129,611,8,-4,-3,-20,6,31,529,68,z,11.921736011754403,50.73852510714081,1538.2659137069736,-259.7333807175387,-8.210043553613787
2025-02-19 14:28:59.761,770,-95,642,14,-2,0,-19,4,29,729,74,z,8.417265547567617,49.87429862433183,1534.6323870967408,-189.33776204440306,4.475334394665651
2025-02-19 14:28:59.869,734,-150,645,-11,0,-7,-20,5,29,647,72,z,13.091893064346847,47.943334172769944,1476.48268845033,-301.73351943807836,-7.454133583736734
2025-02-19 14:28:59.974,803,-77,608,6,-1,2,-20,5,31,666,81,z,7.217784176379882,52.64881862517638,1597.931844107711,-153.2263412158079,6.10889014011434
2025-02-19 14:29:00.082,764,-73,625,1,2,-3,-19,5,29,740,83,z,6.66196178263318,50.52430994327092,1535.8943946318325,-146.75430734047615,-6.458110791747799
2025-02-19 14:29:00.187,764,-81,632,-15,10,-16,-19,4,28,638,83,z,7.303472550535005,50.17218021084837,1531.9726297503785,-162.42118194997465,-3.2862591652342417
2025-02-19 14:29:00.298,773,-29,559,67,14,-7,-18,6,30,502,97,z,2.9697484290761276,54.0906119423669,1582.945550986368,-59.38605559974731,-26.71741656064637
2025-02-19 14:29:00.406,656,-27,721,-26,-7,47,-19,2,29,658,99,z,2.144609590996783,42.277429105688526,1328.7210936699735,-54.68821574556294,-18.377909353736186
2025-02-19 14:29:00.505,1130,-82,562,58,-25,-7,-19,5,29,0,7,z,8.301304373061006,63.31538342130853,2023.4919943913283,-146.83747215937075,117.6261054443126
2025-02-19 14:29:00.618,905,-70,601,-10,60,-16,-19,5,31,514,7,z,6.643451846234012,56.23419619883431,1736.3163386460155,-134.3007112764874,48.932464611872774
2025-02-19 14:29:00.729,929,133,682,57,-31,-4,-17,3,28,518,6,z,-11.035018339976208,53.205272667619894,1729.7864929505395,247.6443525967941,94.12444758636389
2025-02-19 14:29:00.835,1045,39,617,-16,27,31,-20,6,32,696,90,z,-3.6168015720412034,59.39106128191739,1905.6626009468544,71.12042242768165,108.8384451825749
2025-02-19 14:29:01.846,763,-83,670,-6,9,-4,-19,4,29,659,51,0,7.061857330376359,48.496794929687184,1511.9186532946467,-164.46821523388687,12.365009557780695
2025-02-19 14:29:01.949,802,-8,629,10,-13,1,-21,2,28,683,62,0,0.7286828664012605,51.89104025919148,1588.8385221349713,-15.848763313067046,11.890984510103408
2025-02-19 14:29:02.056,767,-37,631,1,-10,3,-20,4,29,697,69,0,3.35581484796088,50.5081026238077,1538.7145282400952,-74.22742835056522,-3.8785753839634936
2025-02-19 14:29:02.166,625,-49,641,8,-19,-12,-18,3,31,755,80,0,4.371363061908576,44.192492169624984,1322.071155513212,-103.65037859223582,-73.91617709435025
2025-02-19 14:29:02.272,709,-93,642,7,21,-31,-20,3,28,620,99,0,8.242520351518872,47.54298167089423,1446.7839379461448,-189.77560822142658,-26.063876109202965
2025-02-19 14:29:02.379,937,327,519,-16,-42,45,-20,5,29,0,101,0,-32.213298550813256,56.78847618493666,1773.6541659568804,618.9806961236925,55.581096977992615
2025-02-19 14:29:02.486,719,69,507,8,26,-37,-18,1,30,701,97,0,-7.750036422919296,54.56258244228223,1533.7493168155765,147.18873833139747,-67.51725121765958
2025-02-19 14:29:02.592,617,40,596,-50,53,58,-18,4,28,379,5,0,-3.839596337953471,45.927492781386654,1335.460141564665,86.57764288911929,-98.00687904787742
2025-02-19 14:29:03.516,689,-78,712,10,-17,-28,-20,5,28,723,53,1,6.2518541971679715,43.88869541329933,1382.2596484185974,-156.48222434927519,-4.401842777999036
2025-02-19 14:29:03.607,816,-18,667,-2,-8,-9,-19,2,29,776,73,1,1.5458377500172937,50.72714878513855,1590.1402413057926,-35.07662296998072,34.21624883460345
2025-02-19 14:29:03.714,726,-33,651,1,-4,-8,-21,3,29,777,82,1,2.901910468883643,48.08106001532087,1470.0907434377332,-66.82230651989697,-16.221864983421938
2025-02-19 14:29:03.818,936,73,578,38,-1,-15,-20,4,29,724,100,1,-7.198206574597042,58.10075289078501,1784.9786314591488,139.2130770261943,53.7375545049274
2025-02-19 14:29:03.926,896,-145,720,1,-16,35,-19,0,29,832,95,1,11.386428796409188,50.65835922050758,1669.3796840019206,-270.1563104690608,98.53418249845674
2025-02-19 14:29:04.038,864,-48,708,3,31,28,-20,5,30,783,99,1,3.878524502847706,50.602864917896085,1636.7653104851922,-90.93140613806622,74.76175946352328
2025-02-19 14:29:04.145,759,-16,620,37,10,-5,-21,4,29,202,103,1,1.4782726566888706,50.74649604508161,1533.3539491916326,-32.323666913130594,-12.542092883810597
2025-02-19 14:29:04.251,764,17,656,13,-3,10,-19,2,31,751,102,1,-1.4844669167449749,49.3398278276156,1522.5874440238172,33.87956354503258,4.647430262272451
2025-02-19 14:29:04.361,603,-160,685,-18,34,3,-20,7,29,664,47,1,13.147242375269492,40.60379039710438,1253.824445366336,-332.6897367472865,-54.327935449320194
2025-02-19 14:29:05.275,771,-68,652,4,-4,-3,-21,2,31,449,80,2,5.954107431165024,49.62742162523456,1532.8484089669064,-135.1928557843705,7.739088655741739
2025-02-19 14:29:05.377,703,-59,637,9,-11,-13,-20,1,30,373,100,2,5.291732713730225,47.697961492391954,1442.6071496206405,-121.07229278466258,-33.17034752254335
2025-02-19 14:29:05.484,914,-21,618,20,-21,-23,-21,1,29,572,101,2,1.9461951170307557,55.92011364908926,1742.2570955784922,-40.02997703189096,57.97496163292317
2025-02-19 14:29:05.590,674,-94,687,-16,3,61,-19,3,31,444,102,2,7.79121631908494,44.1871272557131,1371.0040156840964,-191.20827518442886,-23.44771331598531
2025-02-19 14:29:05.696,1134,-8,551,51,-25,-25,-19,2,28,0,103,2,0.831822199369744,64.08294269683,2033.4277005359968,-14.345168963216908,113.97648765843542
2025-02-19 14:29:05.806,771,-34,688,-24,-9,25,-20,5,30,554,102,2,2.8291758376302902,48.221232724748795,1516.7229527290626,-66.88531827858381,22.55591248042151
2025-02-19 14:29:05.910,620,-133,666,-8,17,3,-19,7,29,412,46,2,11.293387346119399,42.39312809842409,1294.213814388122,-277.6297376026132,-58.23612964917618
2025-02-19 14:29:06.826,727,-12,642,2,1,-8,-20,1,29,719,79,3,1.0708244547869632,48.547918283334994,1476.509629023844,-24.37154820947197,-19.87782920675056
2025-02-19 14:29:06.926,884,18,676,-9,-1,-16,-20,1,31,517,99,3,-1.5252668574020076,52.58484537184754,1678.2539429580283,34.17259159869289,68.6293377379784
2025-02-19 14:29:07.032,605,-27,757,16,-12,6,-18,1,29,798,97,3,2.042708786702302,38.61434559152365,1229.0752525327634,-54.85129226179275,-23.86771267322615
2025-02-19 14:29:07.138,878,44,465,-2,12,-3,-19,2,28,402,100,3,-5.405441679378041,61.98798482146738,1760.8491231810067,88.2430084509844,-2.5681574933578304
2025-02-19 14:29:07.250,683,-52,715,-24,-11,37,-19,3,31,276,101,3,4.1596422937126425,43.61325803100678,1372.787095956117,-104.51673351349643,-7.105085810576043
2025-02-19 14:29:07.356,1112,-2,695,-13,57,24,-17,5,29,276,79,3,0.16487948591554338,57.99451016874429,1959.9973177151228,-3.525175031861732,165.0016764280482
2025-02-19 14:29:07.467,542,-164,702,13,-18,-24,-19,6,28,377,44,3,13.149502073539429,36.937151192654035,1142.938623105805,-345.8338269176237,-76.33747863519386
2025-02-19 14:29:08.176,741,-19,645,2,-6,-5,-20,2,29,686,73,4,1.687294722902143,48.94990493100042,1495.1356837456178,-38.33681240373379,-11.433894758331348
2025-02-19 14:29:08.277,783,18,630,-1,-2,-4,-19,2,30,704,82,4,-1.6365770416167182,51.16850640885112,1561.9934238679862,35.9078948015629,3.2236819452986083
2025-02-19 14:29:08.384,722,-11,619,8,-13,-15,-21,3,30,741,90,4,1.0180730916783514,49.38770100156428,1481.1315959398235,-22.56571683564829,-31.834429206026243
2025-02-19 14:29:08.490,723,-131,700,9,11,3,-18,2,28,680,96,4,10.599886181964019,45.433063078763695,1435.4311115665305,-260.0850285134378,10.232672065599559
2025-02-19 14:29:08.596,846,-132,580,61,3,3,-19,0,29,0,98,4,12.821343793398924,54.88856354714088,1664.0349279188808,-259.6366554199672,19.172271639538053
2025-02-19 14:29:08.707,760,117,666,-8,-12,25,-19,4,30,745,97,4,-9.96380418990718,48.33937678613031,1507.0951885229974,232.01333823314565,11.308690057478543
2025-02-19 14:29:08.815,545,-168,677,21,-48,-36,-20,0,28,789,96,4,13.936633381368363,38.00138189517398,1160.6804808790653,-357.7877445645559,-87.79942303693065
2025-02-19 14:29:08.920,784,156,571,-12,-10,47,-19,2,29,2,104,4,-15.280587265395633,52.94689216776886,1582.07734077563,314.8011035216815,-10.252757121026548
2025-02-19 14:29:09.031,577,-161,659,-24,48,8,-19,6,27,561,49,4,13.728975518859551,40.38293789852499,1224.8930939523532,-341.781261917381,-80.96802238232351
2025-02-19 14:29:09.846,761,-15,640,1,-1,-3,-20,1,27,748,82,5,1.3426240265377571,49.928458709436356,1526.2412415836907,-30.08359871715553,-3.566878598635981
2025-02-19 14:29:09.941,775,2,638,0,1,-5,-19,0,29,748,85,5,-0.17961000574707633,50.53776900650476,1547.0437143481956,3.992370875737279,2.433690639807992
2025-02-19 14:29:10.046,745,1,654,-2,2,-4,-20,4,29,729,84,5,-0.08760815727925762,48.72161162080347,1496.513028683811,2.0087423203809545,-5.717477529144162
2025-02-19 14:29:10.156,805,-18,659,-4,3,-22,-21,0,28,440,97,5,1.564594338689019,50.684620588790565,1578.6701688940539,-35.299457192662075,25.647650557538668
2025-02-19 14:29:10.264,697,38,681,17,-10,3,-20,1,29,832,97,5,-3.193809246013274,45.62071358247646,1411.7255753782829,76.9663871798777,-17.318675513071298
2025-02-19 14:29:10.374,611,-55,526,-27,8,-10,-18,1,31,581,84,5,5.96931173813338,49.12128358176717,1367.0966326516782,-123.06107167895632,-124.91134005692754
2025-02-19 14:29:10.481,758,150,609,-1,-6,19,-19,2,26,480,96,5,-13.836839007881874,50.39422092245742,1528.4489457672557,302.46351169536723,-10.001857483191088
2025-02-19 14:29:10.586,642,-25,761,-5,-5,-5,-19,2,27,745,96,5,1.8815762559682037,40.136647273098326,1286.6127536134854,-50.101742741958155,-3.0970490652063063
2025-02-19 14:29:10.693,853,-73,507,5,18,12,-20,3,31,0,102,5,8.193377623311308,59.01508649933751,1710.3028851909032,-146.36824222618515,-2.5575179270667263
2025-02-19 14:29:10.800,600,-95,707,-8,15,-1,-19,3,26,423,51,5,7.653027190407528,40.06709290978613,1243.6842008319245,-196.9166651317214,-51.474549980284564
2025-02-19 14:29:11.721,750,9,629,-4,-4,-4,-20,-1,28,738,79,6,-0.8197564853154732,50.01167299680079,1516.175383771728,18.194104605260733,-13.565755189889273
2025-02-19 14:29:11.816,740,0,618,4,-13,-11,-19,1,31,780,93,6,0.0,50.133556920530616,1507.540703635947,0.0,-23.00020925272338
2025-02-19 14:29:11.922,752,-9,646,-1,6,-12,-21,-1,28,730,98,6,0.7981867749175499,49.33327032083463,1510.5128666717085,-18.07794654261353,-5.594829614259993
2025-02-19 14:29:12.028,966,46,520,18,-8,88,-19,2,29,219,94,6,-5.055313518054194,61.61301742763731,1845.756610542939,87.89317193061615,46.42501295825235
2025-02-19 14:29:12.134,662,-50,714,18,6,-44,-19,3,29,732,99,6,4.005770035608293,42.76591692967887,1341.004716208331,-101.2843441244963,-18.340434097806906
2025-02-19 14:29:12.246,955,94,623,-41,41,29,-20,2,27,554,74,6,-8.580228285986081,56.5855716351301,1789.7092133729984,176.15985974561448,78.47241892002296
2025-02-19 14:29:12.352,547,-76,706,-1,-7,-11,-18,4,27,578,41,6,6.144157184377288,37.60838958996894,1157.2611691377708,-160.78948602279814,-81.6496991065195
2025-02-19 14:29:13.266,746,38,648,-2,5,0,-20,0,29,644,87,7,-3.3560941392959354,48.97265512603,1500.396384807191,76.42769788562099,-7.293374470589356
2025-02-19 14:29:13.364,733,25,625,3,-3,-15,-20,0,30,490,95,7,-2.2906100426385296,49.52447597708475,1493.6833315748436,50.944179112375295,-23.604477809382388
2025-02-19 14:29:13.474,730,135,650,22,-20,15,-18,1,29,802,88,7,-11.733084156412238,47.71622008719702,1469.82159109331,271.8163216405436,-8.745252343358175
2025-02-19 14:29:13.580,768,22,671,-19,7,76,-18,1,29,574,91,7,-1.8778774472853594,48.84110462707098,1520.887266346345,43.56708315054634,13.203963908336505
2025-02-19 14:29:13.688,796,39,645,9,47,-42,-20,5,29,684,90,7,-3.460183228986457,50.93095037776483,1572.3869760641082,77.03906038505053,15.892462862625848
2025-02-19 14:29:13.798,1152,121,560,64,-27,-18,-20,2,28,522,94,7,-12.192543269180723,63.55750130543864,2047.3817092148465,215.04616911023993,124.74500246500537
2025-02-19 14:29:13.905,920,89,676,-29,34,23,-18,2,29,789,89,7,-7.5002425767368015,53.45698913281828,1723.4101118525377,166.72119560312592,85.66822216052651
2025-02-19 14:29:14.011,677,8,662,16,-25,-8,-19,3,28,685,61,7,-0.6923624247634949,45.63973165590534,1391.9576881025882,16.448539888952297,-37.116675810802576
2025-02-19 14:29:14.726,754,4,615,5,-11,3,-19,4,29,668,87,8,-0.3726502218434856,50.797005894272736,1528.911459688863,8.11093612567036,-17.056429321818086
2025-02-19 14:29:14.822,801,15,623,-3,4,-9,-18,2,27,710,98,8,-1.3792466732336641,52.11697024028623,1590.265993245343,29.780262045792934,9.126449698066835
2025-02-19 14:29:14.932,803,-82,576,0,19,-16,-20,3,29,357,97,8,8.102248307000227,54.07507819755345,1612.786510902323,-164.69301854793338,-4.868032726946694
2025-02-19 14:29:15.040,770,148,612,2,-23,14,-19,4,29,278,100,8,-13.594836334074971,50.72659080578565,1544.1340766123358,296.79460173847485,-3.2857855672070855
2025-02-19 14:29:15.149,893,-86,508,13,-2,-35,-18,-1,29,787,91,8,9.60857786869409,60.01663743876887,1759.1705563138212,-169.41620139192452,15.262438289562056
2025-02-19 14:29:15.252,654,75,729,-34,7,59,-20,3,30,511,93,8,-5.873961516191936,41.74600791899285,1319.8296828686214,151.35661500786944,-13.186297876490698
2025-02-19 14:29:15.363,840,59,549,-37,65,41,-20,3,31,556,63,8,-6.133927830719847,56.681690273711304,1675.6318702124759,117.6931908839715,2.8548848254176846
2025-02-19 14:29:16.280,794,45,616,5,-5,-3,-20,1,29,707,82,9,-4.178146508414096,52.12115315340142,1583.3108203408315,89.73424044752824,3.6379529849467644
2025-02-19 14:29:16.374,711,67,612,3,-10,-10,-19,1,29,759,87,9,-6.247696397450983,49.11063492679465,1466.974985527422,138.23814912846314,-38.71264577043928
2025-02-19 14:29:16.485,712,28,633,-9,12,-29,-20,1,30,665,95,9,-2.5327594384300247,48.333657928674015,1459.0288374687261,57.377538552140926,-31.142210839471545
2025-02-19 14:29:16.592,747,273,555,0,-19,42,-19,1,29,370,95,9,-26.1921988729654,50.37553922791985,1517.2410428728451,554.4937144635699,-17.267441491872773
2025-02-19 14:29:16.698,688,-51,563,24,-3,-25,-19,1,29,829,90,9,5.176076640741332,50.59126621592312,1460.6368104608312,-108.27394961264885,-69.25948297884895
2025-02-19 14:29:16.805,664,212,682,-43,-17,87,-20,1,30,85,98,9,-17.267880027664496,42.914344337105994,1344.904244069013,429.3971381666124,-17.362491649196727
2025-02-19 14:29:16.914,1042,15,529,-24,90,36,-20,5,27,377,65,9,-1.6242088217304533,63.074823192503985,1933.598635474535,27.834913178616155,76.355395234137
2025-02-19 14:29:17.022,514,-147,691,11,-20,3,-17,7,26,217,36,9,12.009790585396386,36.03844301933116,1102.3279357733402,-315.25721120365955,-99.92335334509357
