Timestamp,Acc_X,Acc_Y,Acc_Z,Gyro_X,Gyro_Y,Gyro_Z,Mag_X,Mag_Y,Mag_Z,Force,IR_A,Letter,Roll,Pitch,Lin_Acc_X,Lin_Acc_Y,Lin_Acc_Z
2025-02-19 14:07:22.653,51,258,957,-1,-2,0,-2,-1,0,0,19,noise,-15.087810026850946,2.9455264246507706,102.38649244781013,517.9551970889218,-7.2524171089075935
2025-02-19 14:07:22.743,49,262,961,-1,-1,0,0,1,0,0,18,noise,-15.250073728208346,2.8162863017744773,98.13367805228046,524.7147683611731,-2.6217266988068104
2025-02-19 14:07:22.849,49,263,966,0,-1,-1,1,-1,1,0,18,noise,-15.23002199878761,2.8019992611550855,97.88462179735743,525.3807251572449,2.27459885209646
2025-02-19 14:07:22.957,47,265,964,-1,-1,0,0,-1,1,0,19,noise,-15.370725435267614,2.691565147164401,93.95939767392971,529.7710719913059,0.8327796240798762
2025-02-19 14:07:23.066,48,263,957,-1,0,-1,0,1,0,0,19,noise,-15.366510145366949,2.7688760697248402,96.30719607965091,527.6831785197539,-6.124721838040045
2025-02-19 14:07:23.166,50,266,958,-1,0,-1,-2,-2,0,0,19,noise,-15.517941536294298,2.8789504618896404,100.22602341198711,533.2024445517715,-4.330608573673089
2025-02-19 14:07:23.283,50,264,958,-1,-1,-1,-1,-1,0,0,19,noise,-15.406828267786556,2.8804926672720255,100.25290598343734,529.3353435925492,-4.845678642659436
2025-02-19 14:07:23.386,49,264,958,-1,-1,0,0,-2,1,0,19,noise,-15.406828267786556,2.8229769511946516,98.25031054036614,529.3486118909524,-4.893826483077078
2025-02-19 14:07:23.497,50,263,959,-1,-1,0,-1,-1,3,0,18,noise,-15.335973515517736,2.8784708467377094,100.21766311174488,527.144907967778,-4.1747784832664365
2025-02-19 14:07:23.604,48,266,961,-1,-1,0,-1,-1,0,0,19,noise,-15.471822614677977,2.755973590297954,96.08226701339615,532.4558963659036,-1.6470541640354668
2025-02-19 14:07:23.707,48,268,962,-1,-1,-1,1,0,-1,0,19,noise,-15.567107392691746,2.751843999654251,96.01027529848848,536.0573704165606,-0.2059341072066445
2025-02-19 14:07:23.816,46,268,964,-1,-1,0,-2,0,0,0,19,noise,-15.536372023640302,2.6322776450294207,91.92575215101415,535.5674255754737,1.5559766613557713
2025-02-19 14:07:23.916,50,268,957,-1,-1,0,1,-1,-1,0,18,noise,-15.64446713778252,2.8801825723124996,100.24750064281798,537.3266034455044,-4.737162303536024
2025-02-19 14:07:24.027,57,263,960,0,-1,0,-1,-2,1,0,18,noise,-15.320749578720518,3.27745874295383,114.17125572296789,526.7901799147467,-2.8843069131435186
2025-02-19 14:07:24.136,49,268,959,-1,-1,-1,-1,-1,-2,0,9,noise,-15.613433449167179,2.8172219734506694,98.14998887334244,536.8203473072607,-2.935496521130517
2025-02-19 14:07:24.241,48,267,962,-1,-1,-1,0,0,0,0,10,noise,-15.51182301677793,2.7525812961070293,96.02312870604915,534.1286534273984,-0.4635378170682998
2025-02-19 14:07:24.349,47,268,959,-1,-1,-1,1,-1,1,0,14,noise,-15.613433449167179,2.702407401072361,94.14842109897026,536.8463160537027,-3.02842199813756
2025-02-19 14:07:24.459,52,260,961,-1,-1,-1,-1,1,0,0,14,noise,-15.139023105726855,2.989979097622695,104.1612973941462,520.806486970731,-2.980899918740647
2025-02-19 14:07:24.565,47,264,960,-1,-1,0,0,1,-1,0,15,noise,-15.376251248826186,2.702691844878839,94.1533800583241,528.861539051012,-3.132869276407064
2025-02-19 14:07:24.666,48,262,963,0,-1,0,-1,0,1,0,14,noise,-15.219872160655196,2.7535744816350345,96.04044305641364,524.2207516829244,-0.811388819298827
2025-02-19 14:07:24.776,55,272,959,-2,-1,-1,-1,1,0,0,14,noise,-15.834862633997814,3.158095074319484,110.09125159467251,544.4512806136531,-1.591095987107792
2025-02-19 14:07:33.896,699,-9,710,2,-13,-5,-13,11,22,0,31,A,0.7262456324075651,44.55040235934978,1400.5364302542998,-18.032657900269953,-2.576345465740701
2025-02-19 14:07:33.991,624,-37,732,-6,3,-5,-16,10,22,0,31,A,2.893635463265856,40.41014626609943,1272.2547484826227,-75.43818220169399,-28.45268571999975
2025-02-19 14:07:34.105,675,-21,717,4,-29,-15,-14,8,23,0,36,A,1.6776394661534724,43.25951263538116,1360.3039099894308,-42.320566088560064,-10.94504216655082
2025-02-19 14:07:34.207,784,-25,668,-11,-10,-1,-15,9,24,0,45,A,2.1433028324351846,49.547852286793,1544.9481063301614,-49.2649268600179,19.641154300321773
2025-02-19 14:07:34.319,687,-44,684,-26,-4,0,-16,11,24,152,42,A,3.680622173030453,45.06622328971351,1394.9235929234378,-89.34008455404842,-20.8322235220254
2025-02-19 14:07:34.428,662,-35,649,-8,-9,-12,-15,9,26,306,44,A,3.0869207696404364,45.52654075867697,1375.5750503494405,-72.72677758645078,-50.56224724590152
2025-02-19 14:07:34.538,811,-21,631,-11,-19,-15,-15,10,26,497,53,A,1.9061290685586207,52.09986477449256,1600.0826350393563,-41.43247267056286,17.052844994039674
2025-02-19 14:07:34.639,688,-70,659,-24,-9,-13,-16,9,28,600,54,A,6.063310447525289,46.07276691052987,1408.221451504428,-143.27834535655518,-30.863279856712097
2025-02-19 14:07:34.746,813,-31,585,12,-20,-7,-17,6,29,645,73,A,3.0333494195084345,54.22473145946221,1624.3162377112149,-61.93579750190364,1.2115632705280177
2025-02-19 14:07:34.846,803,0,587,-1,-4,-5,-17,9,30,707,87,A,0.0,53.83287075902285,1610.299011552872,0.0,-3.1426149209662526
2025-02-19 14:07:34.963,707,-51,599,12,-41,-20,-16,7,30,773,128,A,4.866534954017158,49.625246176128755,1468.8238139568289,-105.95475885685752,-46.44903049524805
2025-02-19 14:07:35.071,626,-293,786,-13,2,4,-16,5,31,636,130,A,20.44412392853757,36.732973916278134,1224.0864725964573,-572.9350422855623,35.04797530221174
2025-02-19 14:07:35.177,837,-1,538,54,31,28,-16,8,30,285,130,A,0.10649760879088205,57.268188599112634,1678.2107034385199,-2.0050307090065944,-2.7065214455477644
2025-02-19 14:07:35.288,509,-187,764,-11,-22,-40,-16,7,30,672,104,A,13.753565381548064,32.90802564602181,1052.292053490528,-386.59845580103865,-51.471765946489654
2025-02-19 14:07:35.388,721,-210,689,4,-18,60,-19,6,30,550,11,A,16.950673567395103,45.02813316771806,1428.4538969620382,-416.0545330957393,12.944889033502932
2025-02-19 14:07:35.496,677,11,473,10,26,-44,-16,9,31,516,134,A,-1.3322198538696388,55.05185910447443,1496.6708596664166,24.318138044801454,-99.67993592646246
2025-02-19 14:07:35.607,814,-139,337,-31,3,-21,-16,6,30,116,126,A,22.414331275600215,65.87531169040317,1726.658146049535,-294.84702985366744,-40.84495727112187
2025-02-19 14:07:35.714,781,-4,599,18,-6,7,-17,7,30,638,130,A,0.38260385891816245,52.51242410818549,1574.4853264372664,-8.063945333865641,-9.575813746379708
2025-02-19 14:07:35.821,711,-89,675,-27,71,16,-18,7,29,432,55,A,7.51122726789508,46.24126763781319,1433.2585612225566,-179.40929950605837,-10.68850748976854
2025-02-19 14:07:36.738,782,21,612,-3,1,-3,-17,5,27,664,81,B,-1.9652605719205243,51.936594773637346,1569.328961799414,42.143105112260486,-4.170491843019704
2025-02-19 14:07:36.832,778,26,611,2,-5,-2,-19,6,27,676,85,B,-2.436648246810131,51.83060741525269,1564.1871349007422,52.273606050667475,-6.429742190685715
2025-02-19 14:07:36.939,780,35,615,3,-8,-4,-17,6,28,678,94,B,-3.2572219406669563,51.700531651687484,1564.7821214738183,70.2145823738252,-3.770518854356851
2025-02-19 14:07:37.047,770,74,601,-1,-1,-11,-17,5,28,656,101,B,-7.019391311733248,51.81800203911069,1556.0511551187697,149.54257854388175,-12.528239255039693
2025-02-19 14:07:37.156,725,-165,585,-40,7,-9,-16,6,30,570,117,B,15.751173663453025,50.0242745910065,1491.3167051742441,-339.40311221206935,-33.33830693370044
2025-02-19 14:07:37.266,842,152,563,47,13,28,-16,7,30,369,123,B,-15.10862657953688,55.29405140741434,1664.0849325614545,300.4048809374598,13.316131790856502
2025-02-19 14:07:37.373,1058,-99,914,0,-5,-32,-17,5,30,535,118,B,6.181897502552712,49.011088029755896,1812.8365283562885,-169.6321515191612,261.9011465806733
2025-02-19 14:07:37.478,739,56,798,-12,-18,-2,-18,4,31,596,119,B,-4.014175695411026,42.73154404397088,1417.5641724108923,107.42028911368058,65.26088013005176
2025-02-19 14:07:37.586,835,-21,407,9,28,0,-18,6,30,391,123,B,2.953674004896828,63.984220915045846,1733.6732861245373,-43.601364082174,-31.035961021181834
2025-02-19 14:07:37.696,656,25,762,11,-11,40,-16,6,31,446,124,B,-1.8791087672265667,40.709671943972985,1308.2263731243343,49.85618800016519,4.383389754965151
2025-02-19 14:07:37.796,942,-30,499,11,29,-22,-18,8,30,62,124,B,3.4404948727427276,62.04598143125107,1825.324072265846,-58.131339881077906,31.08204664473743
2025-02-19 14:07:37.910,427,-156,740,-36,10,-6,-17,7,26,344,50,B,11.904265715491741,29.449823073912004,918.6611551341564,-335.6232791590828,-112.05914472898257
2025-02-19 14:07:38.016,908,69,555,17,-21,-10,-15,7,28,458,75,B,-7.086895410073673,58.369458454375,1759.447502185424,133.70250842598483,34.56678005186109
2025-02-19 14:07:39.129,792,16,587,-3,-2,-3,-17,6,30,509,96,C,-1.5613382323348535,53.44539835765551,1595.2896423955858,32.22807358374921,-8.36744960379906
2025-02-19 14:07:39.230,804,14,578,-1,-5,-3,-17,5,29,536,102,C,-1.3875157474432052,54.27947158762328,1615.8743987335815,28.13711639585838,-5.660948343296013
2025-02-19 14:07:39.339,783,43,568,9,-21,-9,-17,4,30,593,124,C,-4.329274661147332,53.96445437663615,1591.6521836979784,87.40874061176638,-18.608480639146478
2025-02-19 14:07:39.445,756,-6,607,-15,-5,-20,-18,4,31,510,126,C,0.566331929739395,51.23730261379938,1535.7457522943366,-12.188458351542353,-19.06570323103483
2025-02-19 14:07:39.551,908,35,568,-8,21,26,-18,5,31,196,119,C,-3.5260914594414987,57.92309994933953,1755.3360965853603,67.66163367895112,37.94834486730747
2025-02-19 14:07:39.661,734,-37,614,17,-20,11,-17,6,30,533,121,C,3.4485070696591205,50.03599226971703,1500.4480805885373,-75.63566618770555,-27.143217277059648
2025-02-19 14:07:39.766,690,-65,602,-51,81,14,-18,7,28,546,57,C,6.162547184426799,48.73192411141505,1441.6317571629552,-135.80589016752475,-53.7714750899986
2025-02-19 14:07:39.875,750,-84,637,30,-35,-12,-17,8,27,488,53,C,7.512144103052749,49.413794426458125,1509.4279645311813,-169.0559320274923,-8.007484541816552
2025-02-19 14:07:40.789,790,9,604,1,-4,-6,-16,8,29,523,79,D,-0.8536818817893306,52.59695901883321,1584.3823828625207,18.04992588071226,-3.3505813278004553
2025-02-19 14:07:40.887,814,28,599,1,3,-3,-18,5,29,548,85,D,-2.6763186551496694,53.62182585869889,1619.1197918452876,55.69453829443249,6.534698629819218
2025-02-19 14:07:40.997,730,38,636,10,-14,-25,-16,4,28,549,93,D,-3.419267818535506,48.88598047538306,1483.4025186572467,77.21821329996627,-20.389043652067016
2025-02-19 14:07:41.107,794,-51,535,-29,-5,-21,-17,4,29,474,116,D,5.44538590587227,55.90757455388417,1622.134444368503,-104.192514688657,-22.99990898885278
2025-02-19 14:07:41.211,918,231,441,24,1,38,-18,7,30,82,123,D,-27.64597536373868,61.528737455892866,1797.0563273979712,452.20044839752876,18.708234877445136
2025-02-19 14:07:41.317,575,-169,547,23,-31,-72,-15,5,29,473,105,D,17.16894982252728,45.12422631031457,1283.6382372817056,-377.2780210445361,-127.13063616190084
2025-02-19 14:07:41.428,706,60,792,-31,-17,11,-20,5,30,574,114,D,-4.332313983188515,41.632841720258504,1370.3547385478714,116.46074265279358,46.7181969831247
2025-02-19 14:07:41.527,908,87,443,31,30,30,-18,6,28,0,124,D,-11.110816752541187,63.56320894064308,1803.426064178743,172.79522861624523,6.134640494291602
2025-02-19 14:07:41.641,662,-105,707,-37,38,13,-16,7,29,305,56,D,8.447527247908466,42.805612875804,1341.5131794997005,-212.77777016233918,-18.70365242641708
2025-02-19 14:07:41.748,828,-15,612,23,-23,-4,-16,9,27,409,59,D,1.4040272191042868,53.522541583944275,1632.090816470121,-29.56686261721233,17.67200521773691
2025-02-19 14:07:42.566,777,8,606,2,-5,-7,-17,7,29,451,77,E,-0.7563359928257636,52.04609908555916,1565.5058479116315,16.11846432856249,-8.973672888608348
2025-02-19 14:07:42.661,788,8,604,3,-4,-4,-17,6,27,486,85,E,-0.7588401242685469,52.527500404743336,1581.64543770712,16.05731408839716,-4.327213673985398
2025-02-19 14:07:42.766,766,35,603,-2,0,-16,-16,7,30,554,90,E,-3.3218985261867457,51.74311843857207,1551.2425683778456,70.87922962561957,-15.147870407102914
2025-02-19 14:07:42.877,697,18,611,13,-27,-27,-16,4,28,582,113,E,-1.6874399825494708,48.749419781559105,1448.8331304285402,37.416063626562014,-48.06749310163286
2025-02-19 14:07:42.986,793,22,716,-38,-5,67,-17,3,28,478,114,E,-1.7599311327332465,47.90766094434281,1535.0654762162262,42.58693628847034,45.98880079341984
2025-02-19 14:07:43.091,824,63,500,38,-6,-50,-17,6,31,500,117,E,-7.1814236942152965,58.55029859828224,1677.0985247725134,128.2247658503257,-17.656871827981604
2025-02-19 14:07:43.202,828,123,359,-26,-6,-12,-17,4,30,407,117,E,-18.91240260023159,65.37720749332591,1737.0704388254826,258.0430724342202,-35.15010572264276
2025-02-19 14:07:43.304,773,20,640,7,-8,3,-19,4,30,627,117,E,-1.7899106082460694,50.36344182620658,1543.1063708868692,39.92513249383879,2.395760197158893
2025-02-19 14:07:43.414,1003,18,451,3,18,-15,-16,5,30,410,116,E,-2.2855364767691126,65.77182434582802,1914.9184229889768,34.36543530787794,40.954926452613904
2025-02-19 14:07:43.516,785,61,581,10,-35,28,-18,6,28,576,118,E,-5.9936052465905165,53.343543295045315,1587.2295921563557,123.33886002743654,-12.75209304820703
2025-02-19 14:07:43.628,571,49,597,-52,57,-6,-17,7,29,431,94,E,-4.692151083764961,43.62872175136183,1260.982476554037,108.21040516838494,-124.40024256175127
2025-02-19 14:07:43.727,821,2,533,6,-41,17,-16,6,28,476,118,E,-0.21499253510452213,57.0078487342009,1659.7451681374112,4.043228180602706,-11.52031013062117
2025-02-19 14:07:43.840,717,80,503,-57,86,2,-17,9,29,488,74,E,-9.036957870362171,54.611856789189865,1532.2476547257565,170.9620814198891,-68.92408692755293
2025-02-19 14:07:43.952,773,-50,627,14,-22,-21,-16,6,27,491,64,E,4.559393011841242,50.86473459407565,1548.658080745103,-100.17193277782037,-2.1560370338675057
2025-02-19 14:07:44.766,781,27,609,1,-2,-3,-18,6,28,529,81,F,-2.5385445983987927,52.02669791651008,1569.2975456994795,54.25228391022529,-5.690403752859311
2025-02-19 14:07:44.864,781,38,609,1,-4,-4,-17,7,28,544,85,F,-3.5704771086598446,51.99998523760779,1569.0105949800702,76.34110449326846,-5.466648326328709
2025-02-19 14:07:44.971,769,70,605,0,-3,-13,-17,6,29,538,94,F,-6.5999169819138706,51.62131986058028,1552.924533249762,141.35854008775465,-11.741667901308006
2025-02-19 14:07:45.082,824,15,590,-6,-4,-8,-19,3,28,480,115,F,-1.4563586343396875,54.38783845327965,1636.97718187289,29.799341903025912,7.892551814314174
2025-02-19 14:07:45.192,966,291,487,-24,-13,62,-17,4,31,104,118,F,-30.85983443410067,59.57488126700475,1828.2917388001479,550.7586915019078,52.283564393714244
2025-02-19 14:07:45.296,977,157,458,13,37,-60,-16,7,28,394,110,F,-18.92144603604378,63.63882263569325,1873.0128317547747,300.98568534851546,37.96532554382105
2025-02-19 14:07:45.405,812,-23,563,-21,1,-28,-17,2,29,198,113,F,2.339379314032374,55.24213291004536,1633.5686658669395,-46.27103363908819,-6.634432122028215
2025-02-19 14:07:45.508,751,37,609,12,-8,4,-17,3,30,666,117,F,-3.4767507668875934,50.9091081720535,1527.1466542744251,75.23891638901962,-20.391894078728342
2025-02-19 14:07:45.614,633,6,502,21,-7,-3,-19,6,30,292,111,F,-0.6847775070091451,51.581868391596785,1416.496851981042,13.42651044531793,-119.3513739249338
2025-02-19 14:07:45.716,770,51,609,-6,-41,15,-17,5,30,556,116,F,-4.7869991209500204,51.56175687217726,1553.2786862081784,102.87949739820402,-10.502233637377344
2025-02-19 14:07:45.830,750,81,490,-38,67,-5,-17,6,28,513,84,F,-9.38645892298032,56.48748599148766,1583.7652532622474,171.04664735232274,-54.72663213133501
2025-02-19 14:07:45.937,784,-7,621,8,-13,-4,-17,7,28,547,70,F,0.6458187939745008,51.61577108993612,1567.8644031863587,-13.998789314163918,0.1074051291724345
2025-02-19 14:07:46.656,770,16,600,-1,-4,-4,-19,6,29,567,83,G,-1.5275254422129272,52.06366376335095,1558.694354510605,32.38845411970088,-14.567029488782964
2025-02-19 14:07:46.752,789,27,588,3,-13,-5,-17,4,30,598,96,G,-2.629081885638657,53.275868384638464,1590.5238676842737,54.428573418853475,-9.33337667725334
2025-02-19 14:07:46.859,795,55,503,0,-3,-7,-16,6,31,631,120,G,-6.2401555673096025,57.52424595448027,1638.6187402992266,113.36356064963203,-30.76129103208939
2025-02-19 14:07:46.970,747,-82,580,-32,18,-12,-17,6,30,443,118,G,8.047105145893504,51.89786006552582,1533.911975799831,-168.38123429127998,-30.98921815783399
2025-02-19 14:07:47.076,860,145,576,25,-12,46,-17,5,28,493,119,G,-14.12982571139436,55.3685815003232,1682.824864118356,283.73209918274597,24.89869566026414
2025-02-19 14:07:47.187,791,-81,556,-37,-14,-25,-16,6,31,600,119,G,8.28873612315161,54.61276741505106,1606.256858700349,-164.48395139662233,-17.0503330434816
2025-02-19 14:07:47.289,890,83,552,19,1,-17,-16,8,31,515,118,G,-8.551067063439248,57.90419443429279,1737.1608210425156,162.00488555789755,26.569917735428476
2025-02-19 14:07:47.400,838,-74,512,-23,5,-19,-17,3,30,457,120,G,8.224081131844088,58.31184678324799,1688.919740578543,-149.14088401290235,-7.893683981162326
2025-02-19 14:07:47.502,844,28,601,22,2,15,-17,6,33,666,121,G,-2.667425321408986,54.51653665580401,1658.2830864049292,55.01413082859955,21.16097757184548
2025-02-19 14:07:47.609,629,-75,672,1,4,-5,-17,7,27,470,64,G,6.368264149108506,42.93008279391566,1310.1053922224767,-156.21288460522373,-55.66744606280463
2025-02-19 14:07:48.427,771,10,607,-3,-1,-7,-18,7,27,487,76,H,-0.9438319085069526,51.783243696577934,1556.6760043879844,20.190350251465425,-11.554260263951392
2025-02-19 14:07:48.526,773,27,614,7,-7,-8,-15,5,28,522,84,H,-2.5178991248311062,51.51265005741952,1555.7455797657626,54.340401880563505,-7.740990913555038
2025-02-19 14:07:48.626,800,75,599,1,4,-11,-16,4,30,520,94,H,-7.136788647793685,52.961929577921374,1598.2354552506565,149.83457392974907,1.321202881070917
2025-02-19 14:07:48.743,846,78,483,-17,-13,-12,-16,4,28,435,114,H,-9.173535442281915,59.958403183909255,1711.6621748852895,157.81282463481392,-11.225567930963166
2025-02-19 14:07:48.846,874,360,448,-7,-14,44,-17,6,30,0,121,H,-38.784364100297346,56.67206863414737,1709.5396165701402,704.1581944682499,19.71424688395564
2025-02-19 14:07:48.956,490,-2,639,-42,18,-41,-17,6,30,155,94,H,0.17932892776297768,37.48169080485119,1098.507877318198,-4.48370562170693,-154.54394613536408
2025-02-19 14:07:49.067,821,102,506,32,-24,40,-19,6,31,551,119,H,-11.397008059737342,57.84164637691172,1667.580272416541,207.17806064127547,-15.765673377307735
2025-02-19 14:07:49.173,522,-183,687,17,-39,-35,-17,3,28,647,107,H,14.915843441224796,36.28697039246912,1113.8298877034542,-390.4805928155788,-91.90255335684492
2025-02-19 14:07:49.280,875,208,496,25,-7,71,-17,5,31,317,123,H,-22.750976342787634,58.42166752718196,1726.9250288222775,410.51474970861,13.080212233314626
2025-02-19 14:07:49.387,710,-30,565,-44,71,1,-16,10,30,474,74,H,3.039399568926921,51.44881165901637,1492.0516868539821,-63.04443747270347,-57.336905735915366
2025-02-19 14:07:49.492,769,-7,640,22,-32,-20,-16,6,27,464,66,H,0.6266476008324131,50.2294061841804,1537.6119489239618,-13.996467675510708,0.32295538187815964
2025-02-19 14:07:50.810,793,11,599,2,-3,-3,-18,5,28,507,79,I,-1.052057998782162,52.92943636437224,1590.89372857751,22.067882741932678,-3.696523856151998
2025-02-19 14:07:50.906,794,-8,603,4,-6,-7,-16,6,29,546,85,I,0.7600984180788196,52.782868920380444,1590.349111070254,-16.023668625392986,-1.7840226389963618
2025-02-19 14:07:51.012,748,39,617,0,8,-17,-17,7,28,553,88,I,-3.6168015720412034,50.42584300637403,1518.8006716425684,79.18880507227294,-18.807505886984814
2025-02-19 14:07:51.120,1142,38,660,1,-5,-23,-17,3,29,288,115,I,-3.2952099528510614,59.933854468418694,2007.4475981498658,66.79773093668555,159.82888373125087
2025-02-19 14:07:51.226,712,48,656,10,-17,21,-16,4,32,713,116,I,-4.1849161251184155,47.26789495099169,1446.5344806121957,97.51917846823793,-20.762105732584928
2025-02-19 14:07:51.334,632,-76,583,3,-6,-32,-17,6,29,538,104,I,7.427206476752152,47.068774693254746,1364.1718077572432,-164.04597688220008,-92.40532266214018
2025-02-19 14:07:51.443,838,163,561,6,-6,52,-18,5,29,435,119,I,-16.20135935463089,55.11824334556176,1658.3340092306216,322.5637750651448,11.826516493581494
2025-02-19 14:07:51.551,429,-178,656,26,-7,-23,-16,5,28,143,101,I,15.181188706005843,32.25773374089676,962.7286667546321,-399.45385240635073,-160.1445347110456
2025-02-19 14:07:51.659,764,32,554,16,-44,28,-19,7,30,443,121,I,-3.305830231549703,54.00761243131635,1573.0950815528458,65.88879922734432,-32.699836623398596
2025-02-19 14:07:51.766,908,19,419,-53,92,8,-17,8,29,451,84,I,-2.596359346671156,65.2064656643303,1815.8248067168242,37.99633406125514,0.08084359653145157
2025-02-19 14:07:52.676,790,26,591,0,-2,-3,-16,7,28,583,83,J,-2.519002251705658,53.173218404574705,1590.4512836687963,52.34396629796037,-7.81861854209933
2025-02-19 14:07:52.777,772,37,595,2,2,-13,-18,7,29,616,87,J,-3.5583488844779945,52.32417287153323,1563.481463475544,74.93369708367243,-15.014858507705185
2025-02-19 14:07:52.885,763,62,633,0,8,-21,-18,6,26,501,90,J,-5.594065586388524,50.185754761834005,1531.1243517376606,124.4163955540432,-4.251264285634647
2025-02-19 14:07:52.992,829,-3,513,-6,1,-22,-17,3,28,299,106,J,0.3350592186091239,58.249599892150854,1679.3485503181096,-6.077256515023317,-13.21086406898712
2025-02-19 14:07:53.096,804,112,589,4,-3,7,-18,5,31,729,115,J,-10.766416685490999,53.28759309394414,1605.6462148845799,223.6721095361604,1.7243525285849728
2025-02-19 14:07:53.209,1584,-96,493,22,-9,-21,-18,5,30,513,111,J,11.019093451669663,72.40704987730226,2537.227865248389,-153.77138577262969,196.31986264680802
2025-02-19 14:07:53.319,851,267,509,21,-12,46,-19,7,30,374,121,J,-27.679614449562703,55.96431562016221,1679.6891409016514,527.0000007294252,13.34456789783718
2025-02-19 14:07:53.425,1153,4,511,-7,39,7,-18,6,29,288,106,J,-0.4484900923964887,66.09682736815587,2067.231519979575,7.171661821264786,105.82020233342348
2025-02-19 14:07:53.531,602,-49,702,16,-19,6,-18,10,26,448,60,J,3.9928019910382373,40.54594324460077,1252.0575792758223,-101.91166342942739,-56.0405658664904
2025-02-19 14:07:54.447,769,56,614,1,-4,-7,-18,7,29,443,86,K,-5.21125586158673,51.27898234907991,1549.2009988163168,112.81567741705297,-8.943320251259593
2025-02-19 14:07:54.547,803,53,583,3,-6,-10,-18,5,29,390,100,K,-5.194428907734806,53.90715274900747,1611.0634322979477,106.33419914295297,-3.6761905724825965
2025-02-19 14:07:54.647,841,63,615,2,-2,-17,-17,5,29,255,115,K,-5.84892164592896,53.68042439760119,1646.7259687522896,123.35759337859005,25.7949217804304
2025-02-19 14:07:54.758,797,128,681,-21,-7,65,-19,6,30,176,118,K,-10.645052339878788,48.99576511217448,1551.6610870434765,249.20027495804896,36.17666213725522
2025-02-19 14:07:54.866,955,80,416,15,9,-62,-19,8,29,420,114,K,-10.885527054658738,66.07870443329338,1869.1033099727451,156.57409926473258,17.814683823390624
2025-02-19 14:07:54.976,706,60,485,35,-55,-35,-17,5,31,595,120,K,-7.052306007841189,55.30879572354349,1528.2314239108007,129.87802469496893,-79.84736628433222
2025-02-19 14:07:55.080,908,84,482,-6,13,-6,-16,5,30,0,119,K,-9.88587200250332,61.68253274090743,1788.332781503466,165.4404775840211,14.686783386926606
2025-02-19 14:07:55.191,693,150,645,17,-26,65,-17,7,29,0,127,K,-13.091893064346847,46.30142535873551,1415.9843329078126,306.49011534801144,-27.90749599644903
2025-02-19 14:07:55.296,692,-65,482,-54,90,-4,-16,7,30,338,69,K,7.680275583995445,54.89904190715162,1510.140102144836,-141.84841999915363,-87.86059137833945
2025-02-19 14:07:55.408,751,-26,638,29,-34,-16,-18,6,28,401,63,K,2.3336464237635868,49.62751129222448,1512.8494226928747,-52.37561250334852,-9.216952966782856
2025-02-19 14:07:56.226,799,41,595,-2,-4,-11,-17,7,29,470,88,L,-3.941881402398033,53.260620891807534,1600.364710075055,82.1213430701843,-1.7609543112109804
2025-02-19 14:07:56.316,780,44,609,2,-1,-8,-18,4,29,472,89,L,-4.132416122728433,51.9460046596446,1567.4302065710535,88.4191398578543,-5.801276668938158
2025-02-19 14:07:56.427,765,64,601,3,-5,-13,-16,5,28,424,94,L,-6.078473396667824,51.689048751260984,1549.6578945180563,129.64458202504,-15.44365307889143
2025-02-19 14:07:56.534,790,16,553,-18,1,-16,-17,6,30,427,113,L,-1.6572817258939214,54.996717076411144,1609.1191782616697,32.5897555090971,-20.383424783168607
2025-02-19 14:07:56.640,834,105,524,5,0,35,-16,4,28,0,116,L,-11.330958447209605,57.34877217671916,1675.970348515411,211.00346114402657,-5.007748947332743
2025-02-19 14:07:56.746,755,14,620,1,-15,11,-18,6,30,508,118,L,-1.2935558411722816,50.60026950041147,1527.7365590513684,28.32888983671411,-14.56512134019647
2025-02-19 14:07:56.856,724,-4,614,-30,62,10,-17,9,29,464,72,L,0.37325712687132734,49.69924610225151,1486.659819171084,-8.21359016116621,-32.786089739013164
2025-02-19 14:07:57.774,785,16,614,-1,-2,-7,-17,5,28,431,77,M,-1.4927118137042579,51.95926756715466,1572.5728714951335,32.05244069289444,-2.0124115898242962
2025-02-19 14:07:57.870,767,30,606,2,-6,-10,-17,8,27,447,83,M,-2.8341110163065135,51.653929880420925,1551.2777678988343,60.67579274702091,-13.651013489822276
2025-02-19 14:07:57.975,833,61,589,2,-9,-17,-15,5,29,383,99,M,-5.912778715630644,54.59232144483234,1648.0501554229777,120.68554559520005,12.69202695782235
2025-02-19 14:07:58.086,826,87,622,-13,-9,-11,-17,5,29,300,114,M,-7.962382695029781,52.75220032703234,1622.0252470232158,170.84285289469705,22.571787350556633
2025-02-19 14:07:58.193,807,294,486,5,-10,58,-16,6,29,159,118,M,-31.17134902771985,54.860196900798336,1624.7500666867204,591.9163811721138,-6.474017855943146
2025-02-19 14:07:58.296,613,-68,582,-5,-5,-54,-18,5,29,469,112,M,6.664137292412569,46.29201252010562,1335.8708244716709,-148.18795442752628,-104.31455112971025
2025-02-19 14:07:58.408,759,8,637,-13,-16,57,-18,5,29,545,115,M,-0.719532401488709,49.9923100555446,1524.958164576975,16.073340338097232,-5.83972442099207
2025-02-19 14:07:58.516,745,-26,633,9,-7,-31,-16,4,30,650,115,M,2.3520590287132657,49.6227972248402,1506.7961254946508,-52.586173507195866,-14.271070386730116
2025-02-19 14:07:58.623,843,200,500,7,-7,62,-16,5,29,477,120,M,-21.80140948635181,57.42916965947875,1685.7265795801939,399.9351315729998,0.1621710675005943
2025-02-19 14:07:58.729,750,-35,570,-39,70,2,-17,10,29,497,65,M,3.5137502606049664,52.71321579383119,1545.6132364410996,-72.12861770058466,-34.666059695235845
2025-02-19 14:07:59.647,770,43,608,3,-7,-8,-16,5,28,484,83,N,-4.045432721446205,51.63547290451809,1554.077871482757,86.78616684903709,-11.116033586384901
2025-02-19 14:07:59.741,773,61,594,5,-3,-8,-17,3,28,486,93,N,-5.863356060337043,52.31477532811856,1564.3812061028482,123.45052208573577,-14.124756047984306
2025-02-19 14:07:59.846,1154,15,636,6,-5,-14,-16,6,32,391,111,N,-1.3510650827196373,61.132940483231195,2029.742230954228,26.383131251571424,153.3552349333716
2025-02-19 14:07:59.957,787,264,552,0,-9,59,-17,6,29,172,115,N,-25.559965171823812,52.13539518922627,1576.4634166582846,528.8263557786369,-1.7278348098769811
2025-02-19 14:08:00.068,737,54,584,-49,25,-57,-17,4,28,268,97,N,-5.282875548676179,51.48786064376037,1519.4762460314946,111.332045163773,-36.03545140080428
2025-02-19 14:08:00.175,821,-83,587,-32,-11,48,-16,3,29,551,110,N,8.048095092150966,54.16718659921525,1631.728679636637,-164.96160829456866,7.3438063986527595
2025-02-19 14:08:00.281,882,176,634,55,-20,32,-16,9,30,309,125,N,-15.514788546541524,53.27690766127551,1683.5347138792345,335.94343496909903,57.8401263044957
2025-02-19 14:08:00.390,1065,168,669,-18,23,25,-16,5,30,624,115,N,-14.096682031493815,57.069961217923826,1904.3349760183294,300.40213706204634,141.75577562792262
2025-02-19 14:08:00.495,610,-74,683,24,-12,5,-15,8,28,454,53,N,6.1836211258806095,41.60258561222515,1273.95995819452,-154.5459621416303,-60.41746138829046
2025-02-19 14:08:01.711,779,23,580,4,-10,-4,-17,7,30,482,90,O,-2.2708841673891556,53.309119293237806,1580.8707531177301,46.67525971977894,-17.028288585729797
2025-02-19 14:08:01.808,802,23,573,0,-7,-2,-18,6,29,522,102,O,-2.298596630196655,54.43374670583068,1615.4434852556801,46.32817975172151,-8.175956423322646
2025-02-19 14:08:01.920,809,104,501,-3,-5,-13,-17,4,29,534,123,O,-11.727180678900794,57.687250698000824,1654.1429096561646,212.64630729819672,-22.38269188842844
2025-02-19 14:08:02.026,761,-29,573,-43,36,-26,-17,3,30,276,115,O,2.8973143049665744,52.98661611844138,1559.4949086032832,-59.42884671418557,-28.23204024925269
2025-02-19 14:08:02.132,772,199,625,18,-27,32,-17,7,30,352,116,O,-17.6614751633555,49.647695749758604,1534.077569645806,395.4422750770924,8.033055662398056
2025-02-19 14:08:02.240,832,-65,456,-23,21,-39,-17,3,30,518,115,O,8.11251077364855,61.03033895136452,1706.876298280676,-133.34971080317786,-23.499509634601452
2025-02-19 14:08:02.346,670,-22,683,-29,33,31,-17,5,28,443,57,O,1.8449069973241279,44.43465205417357,1370.095320201469,-44.988204543928845,-30.67925925015436
2025-02-19 14:08:02.452,804,13,625,21,-17,-2,-17,8,29,443,59,O,-1.191580391912869,52.13381568103956,1593.446495419828,25.76468213987284,11.313358659959476
2025-02-19 14:08:03.271,779,26,605,1,-6,-6,-17,7,29,343,78,P,-2.4607837933221925,52.14016405047799,1568.5145017296795,52.35093330548352,-8.165948069905085
2025-02-19 14:08:03.366,753,38,636,4,-3,-7,-17,5,28,347,82,P,-3.419267818535506,49.76451246445155,1516.3961022262274,76.5246372969411,-8.780771601435163
2025-02-19 14:08:03.476,929,25,601,32,-7,-15,-17,4,31,407,115,P,-2.3819786501257076,57.07728020281257,1768.4044107038917,47.58892386178397,57.962270362713525
2025-02-19 14:08:03.582,778,55,741,-26,2,72,-17,5,30,13,114,P,-4.244939181286063,46.31673334618816,1501.1688886543395,106.1237646220934,52.22346209143245
2025-02-19 14:08:03.690,749,41,533,37,-5,-28,-17,6,30,189,118,P,-4.398705354995532,54.483875923807396,1562.9520657298253,85.55545353127215,-46.220895906537976
2025-02-19 14:08:03.799,809,-25,721,-77,-30,-9,-16,3,28,544,110,P,1.9858819002133588,48.2747185146865,1555.3445799374135,-48.06380036889411,55.83999736109388
2025-02-19 14:08:03.906,788,73,490,54,13,31,-19,6,30,192,118,P,-8.47357850496074,57.842825436569306,1634.5912253573179,151.42786732371093,-36.433629981073295
2025-02-19 14:08:04.012,682,-13,530,-51,54,20,-17,6,28,139,67,P,1.4050864376559633,52.13993966185458,1471.5120981529162,-28.04935084455706,-83.55045750886484
2025-02-19 14:08:04.119,802,-15,643,35,-34,-5,-17,7,27,306,67,P,1.33636211669593,51.2716505531034,1582.120947261491,-29.590790784192478,17.541435050949417
2025-02-19 14:08:04.839,794,17,603,-3,-1,-4,-16,7,30,250,82,Q,-1.6148761508778373,52.7743341896445,1590.2590061923343,34.04836663132202,-1.715592863951656
2025-02-19 14:08:04.935,796,20,584,1,-7,-4,-17,6,27,316,87,Q,-1.9614176677703405,53.71766535876857,1602.110772658002,40.25403951402015,-7.417953809388223
2025-02-19 14:08:05.039,708,15,615,22,-40,-22,-16,7,28,487,113,Q,-1.3971810272963767,49.01254519548211,1462.853209513448,30.992652743928986,-40.698762501088254
2025-02-19 14:08:05.154,743,-132,625,-34,17,-42,-17,5,31,368,120,Q,11.925614112557081,49.313019634418986,1501.282496521907,-266.71505994736435,-12.855397478050804
2025-02-19 14:08:05.256,861,239,611,36,-22,44,-16,7,29,222,119,Q,-21.36355046247795,52.69265037504138,1656.395741054987,459.7892939746131,46.555403269922294
2025-02-19 14:08:05.368,877,-69,518,-33,20,-24,-16,6,31,569,116,Q,7.5873980753178385,59.21068145449876,1736.0553403882982,-136.58816247068705,10.599012176581198
2025-02-19 14:08:05.472,651,24,565,57,-36,-13,-16,6,30,349,99,Q,-2.4323407792760077,49.01986573031774,1405.9370052165914,51.83177899416005,-90.20646382085113
2025-02-19 14:08:05.578,749,61,636,20,-37,67,-18,7,30,60,125,Q,-5.4785915605331645,49.53486439200112,1509.801012916915,122.96109718014927,-10.020619779917183
2025-02-19 14:08:05.688,746,-87,514,-26,80,-15,-14,8,29,119,75,Q,9.606871329322514,55.05383798182596,1565.6906437022594,-182.5939490644726,-50.77344619699909
2025-02-19 14:08:05.794,805,-15,618,8,-16,-15,-16,8,28,288,66,Q,1.3904012640440198,52.4783335410746,1598.1230798018296,-29.778690927984403,9.117933767042587
2025-02-19 14:08:06.607,770,23,602,2,3,-8,-17,7,29,456,83,R,-2.1879772295120485,51.9607795363131,1557.5891325922303,46.52538967483285,-13.751503663016479
2025-02-19 14:08:06.708,680,26,606,8,-13,-24,-16,3,29,389,91,R,-2.4567280733915298,48.26715558019107,1426.2567208091732,54.53334520740956,-59.046430603468934
2025-02-19 14:08:06.816,738,-104,565,-52,9,-27,-16,4,30,260,111,R,10.429731980657202,52.10122669459326,1527.0972364137078,-215.20069456236536,-39.11915795900427
2025-02-19 14:08:06.922,884,127,610,56,2,33,-16,8,30,0,119,R,-11.760787029672278,54.82221428363401,1701.3683268637503,244.42735012635328,45.978869471846565
2025-02-19 14:08:07.031,897,-158,548,-37,-7,-36,-17,2,28,458,109,R,16.083391249494646,57.55133916626464,1740.8725477666685,-306.64198723203305,32.45690504332845
2025-02-19 14:08:07.138,750,136,592,44,1,35,-17,5,30,264,119,R,-12.93805631718645,50.99618213353231,1527.1040253826138,276.9148632693807,-21.39411070201004
2025-02-19 14:08:07.241,811,36,670,-5,-47,71,-17,6,30,83,121,R,-3.0756216410792496,50.39794824200058,1581.490416171685,70.20179405940895,33.46661056100015
2025-02-19 14:08:07.351,1040,91,463,-23,81,3,-18,8,30,11,96,R,-11.119423518525752,65.59574607086714,1950.6529873291015,170.68213639129638,57.584295064063554
2025-02-19 14:08:07.456,709,-49,653,13,-17,-13,-16,9,29,0,60,R,4.291334612539481,47.274281547185666,1443.6101144523518,-99.76995149247566,-23.587312746665475
2025-02-19 14:08:08.276,789,23,604,1,-4,-4,-16,7,27,358,83,S,-2.1807392782915413,52.54496753424392,1582.830871068189,46.14082387144277,-3.698157319627512
2025-02-19 14:08:08.375,826,38,569,6,-8,-4,-17,7,29,412,100,S,-3.8207581166014735,55.37893820647892,1648.9275749022922,75.85865356693354,2.116476853021368
2025-02-19 14:08:08.486,718,32,621,21,-26,-11,-18,6,30,541,126,S,-2.949830456266846,49.105798698756075,1473.9197292478013,65.69001578820286,-32.796868889811435
2025-02-19 14:08:08.593,799,-23,504,-27,18,-21,-17,4,31,358,121,S,2.6128755458342092,57.72984358130333,1644.5400459903055,-47.339700948406794,-29.356925130305285
2025-02-19 14:08:08.699,746,123,708,13,-12,32,-17,7,28,429,121,S,-9.85556091681428,46.071579568901136,1466.2070748736344,241.74727910114882,24.479076393387118
2025-02-19 14:08:08.805,1001,-25,469,-5,28,-25,-16,6,29,0,117,S,3.051258254565703,64.86418802756761,1906.3034818759309,-47.609977069828446,44.836830170018345
2025-02-19 14:08:08.911,544,-75,773,-3,-8,4,-15,8,25,220,51,S,5.541752764109763,35.0097951286435,1117.716467945708,-154.09693951457373,-42.225789930206474
2025-02-19 14:08:09.017,817,-4,618,1,-3,-1,-17,10,27,206,62,S,0.37084129082806133,52.89461579153246,1614.5272405428943,-7.9046621324009525,14.72970054405289
2025-02-19 14:08:09.832,773,61,615,2,2,-8,-16,6,29,441,85,T,-5.664468707346686,51.35746983649623,1554.0571567041989,122.63581702322915,-6.410286381736455
2025-02-19 14:08:09.932,760,78,628,5,2,-14,-19,4,28,404,90,T,-7.080096107605182,50.21703483396751,1528.4738031712411,156.8696797991537,-7.002037357288714
2025-02-19 14:08:10.039,894,-56,426,-16,4,-16,-17,4,28,0,111,T,7.488899201640063,64.3306136359235,1795.3086005290288,-112.45780942911144,-3.482621728597678
2025-02-19 14:08:10.148,718,67,639,-3,-16,6,-17,5,28,595,114,T,-5.98566755572497,48.17620210431295,1463.1990900360333,136.53807664681648,-24.20643249724992
2025-02-19 14:08:10.254,669,114,598,-34,47,-19,-16,5,27,441,91,T,-10.793103120223122,47.69877774687015,1408.6167378776088,240.03334546793334,-63.12228587565039
2025-02-19 14:08:10.366,750,-84,633,-18,-10,48,-17,5,29,204,114,T,7.559066981041208,49.58896540862106,1511.4134720343409,-169.2783088678462,-9.632970396983751
2025-02-19 14:08:10.468,881,86,607,41,-6,28,-18,9,28,0,120,T,-8.06401728598351,55.16707860844564,1701.8211491882553,166.12556053370025,41.462613442371435
2025-02-19 14:08:10.573,571,-85,714,-27,24,1,-16,9,28,0,56,T,6.788974574438791,38.453527356563974,1192.879657959003,-177.57402964363442,-63.62184900652903
2025-02-19 14:08:10.680,857,-14,606,3,-4,-2,-17,7,27,0,65,T,1.3234294612547972,54.727981264776886,1673.4196982981632,-27.337077918523086,28.69505581250087
2025-02-19 14:08:11.496,767,32,625,2,-2,-5,-16,7,28,170,73,U,-2.9309845655843816,50.787946673266326,1541.8115114029338,64.3259039959503,-6.365312420904047
2025-02-19 14:08:11.595,764,33,634,4,-5,-8,-17,7,29,194,79,U,-2.979583562491734,50.274560830834965,1533.115868057646,66.22097335851088,-4.245366948360356
2025-02-19 14:08:11.705,764,74,623,5,-6,-17,-16,6,27,99,93,U,-6.773860373078806,50.607936209648955,1536.8214845045732,148.85443698080945,-7.193435662760635
2025-02-19 14:08:11.812,848,-43,535,-19,2,-23,-17,5,30,0,114,U,4.595203399741157,57.6690233618606,1692.9728151363115,-85.84649888073278,1.909839507162019
2025-02-19 14:08:11.920,926,212,543,38,-24,36,-17,5,30,64,119,U,-21.326845548359437,57.809555780049756,1772.2820273702891,405.7492330480576,46.746068183513046
2025-02-19 14:08:12.028,763,-191,624,-32,-5,-24,-16,4,28,555,118,U,17.018812272220913,49.46035346139507,1522.9563898067836,-381.2381002006497,2.489138611490148
2025-02-19 14:08:12.135,912,213,469,52,-8,42,-17,7,30,120,123,U,-24.425543540846803,60.54203242967363,1782.7167057419533,416.35817798578523,21.230115139280485
2025-02-19 14:08:12.238,501,-228,772,-51,44,-5,-17,9,27,354,49,U,16.453809268956633,31.89762300762059,1029.4031135367072,-468.470878016705,-42.22595538989583
2025-02-19 14:08:13.060,755,18,620,2,-5,-6,-16,7,26,423,81,V,-1.6629587413422697,50.59559375400926,1527.6847582142252,36.42162337464378,-14.522582904396927
2025-02-19 14:08:13.155,815,46,629,-6,-1,-9,-15,5,28,432,92,V,-4.182706236605102,52.26585380068393,1605.8589446191108,90.63743736500501,18.631562987213897
2025-02-19 14:08:13.260,720,71,638,8,-1,-22,-16,6,28,379,95,V,-6.350048236353379,48.280403737565585,1466.410616999391,144.60438028743994,-23.40274117446029
2025-02-19 14:08:13.370,789,-15,546,-21,4,-12,-18,4,28,0,108,V,1.573664054102554,55.306062156151725,1611.204268812342,-30.63125986335251,-22.97785902603141
2025-02-19 14:08:13.479,800,226,537,22,-6,25,-17,6,29,0,121,V,-22.824113626925364,53.93512756093197,1608.350963356616,454.359147148244,-5.605584153128461
2025-02-19 14:08:13.587,742,-187,660,-26,4,-31,-16,5,30,651,120,V,15.81919394750014,47.24656188742415,1476.2817757351108,-372.054841054536,6.865266866343404
2025-02-19 14:08:13.686,624,-2,653,-14,35,28,-17,7,28,521,66,V,0.17548422773839317,43.698932288017524,1314.8689383993878,-4.21432352051086,-69.97662944679553
2025-02-19 14:08:13.796,880,38,587,11,-6,2,-16,6,28,461,73,V,-3.7039281587487447,56.23958107799666,1711.368571168216,73.90000648226388,32.4393735502922
2025-02-19 14:08:14.719,764,50,610,4,-2,-4,-17,6,27,353,88,W,-4.685899839502703,51.30153788575782,1544.4471893016234,101.07638673439945,-13.131918159673205
2025-02-19 14:08:14.814,772,51,613,6,-7,-5,-16,6,29,338,101,W,-4.755906335094347,51.45269530730707,1554.0939280001203,102.66682684974887,-8.01499723325594
2025-02-19 14:08:14.920,775,94,626,0,2,-29,-17,6,28,202,108,W,-8.53971667682002,50.758131562905724,1549.4824314340935,187.93722394168367,0.4180618351706471
2025-02-19 14:08:15.035,818,-42,796,-56,-27,94,-17,4,27,402,110,W,3.0203433236717934,45.74112630528587,1534.193864404607,-78.77279010390401,99.06807326886678
2025-02-19 14:08:15.142,857,92,431,26,-20,-31,-15,7,30,206,122,W,-12.049356310354943,62.785643937665036,1746.301814662992,187.46763938039123,-16.24513666248498
2025-02-19 14:08:15.246,812,-103,591,-78,1,-30,-18,5,29,645,114,W,9.886262415086787,53.54288674285877,1616.3018690853105,-205.02351295047657,5.602949963770357
2025-02-19 14:08:15.353,911,88,547,71,-26,33,-18,8,30,234,125,W,-9.139293045897192,58.693722894283844,1765.4019084849683,170.53278589097388,33.98370588224168
2025-02-19 14:08:15.456,853,-40,576,-33,0,-15,-17,5,31,636,124,W,3.972495940750659,55.90631947506991,1681.122165626259,-78.83339580896876,16.799100350849812
2025-02-19 14:08:15.566,541,-107,720,11,2,5,-16,8,27,556,61,W,8.452923419525092,36.62071076192458,1137.515031232026,-224.97986754496637,-73.88322086332505
2025-02-19 14:08:15.670,873,35,551,6,-1,1,-16,7,28,513,84,W,-3.6345946662519673,57.68955358955648,1718.1643937780275,68.88402495100912,17.568635771256368
2025-02-19 14:08:16.389,806,27,585,1,-3,-4,-16,7,30,473,90,X,-2.642545294064724,53.998628978284074,1615.0029291222768,54.100594399877764,-2.179545330684846
2025-02-19 14:08:16.484,801,24,574,2,-8,-6,-15,7,29,501,96,X,-2.3942477664919917,54.35076030321324,1613.600187375074,48.34757115730558,-8.312743512225211
2025-02-19 14:08:16.587,911,14,597,19,-15,-6,-17,7,30,567,121,X,-1.3433734023978348,56.75499887963451,1747.3339895540294,26.85255307766895,48.93041518797406
2025-02-19 14:08:16.706,694,-83,688,-58,20,-4,-16,6,28,332,122,X,6.87889316110668,45.04178635924504,1401.6222928177417,-167.62917911220825,-13.504520833726474
2025-02-19 14:08:16.808,808,212,739,56,21,27,-17,9,30,0,117,X,-16.006817116822642,46.42382726239667,1532.4585868754216,402.0807183386007,76.40730730082112
2025-02-19 14:08:16.919,536,-142,688,18,-53,-36,-19,3,28,245,111,X,11.661828426015836,37.34319595639533,1142.5879447267598,-302.7005375955222,-90.60542158957219
2025-02-19 14:08:17.025,767,195,563,39,-26,78,-17,6,29,0,124,X,-19.103977411125545,52.15956051391082,1556.7222244664522,395.7768367287591,-16.678764504058336
2025-02-19 14:08:17.137,785,-25,510,-64,97,-18,-16,10,31,238,69,X,2.80637025178825,56.95754283564834,1623.2667507704746,-51.696393336639325,-34.60642406744216
2025-02-19 14:08:17.240,677,-56,683,17,-21,-14,-17,7,26,278,47,X,4.687265878639202,44.65126013212627,1379.789791759608,-114.13327671866774,-26.018357122322527
2025-02-19 14:08:18.056,770,64,590,1,0,-8,-17,6,28,417,97,Y,-6.190928794932634,52.37753011651963,1562.050299700762,129.83275218292047,-16.89568418629824
2025-02-19 14:08:18.155,813,107,522,-7,1,-13,-17,3,30,347,113,Y,-11.584072867753434,56.75850392388352,1649.3675251239379,217.0754307358688,-15.00350321610756
2025-02-19 14:08:18.262,757,44,604,-4,-27,69,-19,5,29,380,116,Y,-4.166504885548681,51.340167359566834,1537.8685435590169,89.38733938784247,-19.044386142201233
2025-02-19 14:08:18.370,1004,-20,525,-51,43,-21,-17,7,29,577,102,Y,2.181641403551466,62.37749242783713,1890.0215137016633,-37.64983095023233,61.69193755640123
2025-02-19 14:08:18.476,772,45,562,-12,-3,3,-17,3,31,584,123,Y,-4.577973295220349,53.85899947913236,1579.5680516306181,92.07326725826142,-25.892804425398253
2025-02-19 14:08:18.582,854,58,482,-4,15,6,-17,6,30,135,123,Y,-6.861522030912379,60.38288091636854,1723.3473085850505,117.04232306549521,-8.662064096011932
2025-02-19 14:08:18.689,853,81,504,36,5,29,-16,9,31,0,131,Y,-9.130176482278692,59.102103665407064,1711.0837602682273,162.48274863039438,-3.00376925578729
2025-02-19 14:08:18.800,548,-153,707,-45,41,-4,-16,9,27,150,58,Y,12.210930652457714,37.14646769767594,1151.8546412839885,-321.5944527672449,-72.06064121857605
2025-02-19 14:08:19.618,788,27,605,5,-5,-9,-18,7,31,414,99,Z,-2.5553061905230656,52.45661689956931,1580.8921721871109,54.16762518915229,-3.756045905079077
2025-02-19 14:08:19.716,784,76,577,5,-13,-18,-17,5,30,346,117,Z,-7.503563518753568,53.41253627158418,1586.947909508041,153.83678714618765,-13.945081359872006
2025-02-19 14:08:19.826,1003,101,542,-35,-43,25,-18,4,29,544,111,Z,-10.555815993923325,61.20323335649537,1879.33386531711,189.24498544070602,68.447701892449
2025-02-19 14:08:19.930,710,-62,601,-6,18,37,-17,7,32,512,118,Z,5.889877764927382,49.60317430321139,1471.5742135342916,-128.50366371707895,-43.65648216071702
2025-02-19 14:08:20.036,874,62,600,5,-29,31,-16,7,30,57,117,Z,-5.899625046527686,55.388336986090266,1697.0207623482347,120.38362387367337,34.997188319289876
2025-02-19 14:08:20.143,853,-11,557,7,-3,-2,-16,7,30,415,120,Z,1.1313674306824661,56.85077310255763,1690.24921227771,-21.796883159501537,10.28509819614942
2025-02-19 14:08:20.252,692,-16,664,18,-6,-27,-15,6,30,306,76,Z,1.380354073444452,46.17462304136425,1413.4535991551966,-32.68100807295252,-28.26183502752974
2025-02-19 14:08:20.352,814,57,627,-4,-4,13,-17,6,29,433,92,Z,-5.194428907734806,52.279960842408734,1605.0096034372427,112.39010736599859,17.70881897401557
2025-02-19 14:08:20.456,796,1,624,-4,3,2,-17,7,28,430,83,Z,-0.09182008087167853,51.90637135902373,1583.003632221003,1.9886980304283957,7.052429012681159
2025-02-19 14:08:20.568,748,-47,613,-16,6,5,-16,6,28,354,68,Z,4.384410001122234,50.58239392741821,1520.5384945286523,-95.541857276533,-20.10975554286631
2025-02-19 14:08:21.787,799,29,579,1,-5,4,-16,5,28,427,97,a,-2.8673406881990395,54.03670486500613,1608.3933757676846,58.377231410842114,-7.531620237157995
2025-02-19 14:08:21.887,844,79,580,1,-8,-2,-17,8,29,493,118,a,-7.756349248546003,55.2567919329722,1665.7145004932777,155.91403499877836,15.314679755804377
2025-02-19 14:08:21.996,686,-27,600,-28,16,-32,-18,6,29,144,120,a,2.5765718302688305,48.79718246232208,1438.3825167280684,-56.612722961600355,-58.060510257785836
2025-02-19 14:08:22.101,807,153,571,23,-14,39,-18,6,27,88,117,a,-15.000094662370236,53.776509241846256,1613.7181012768,305.94655451716284,0.1994599392156715
2025-02-19 14:08:22.206,799,-126,643,-28,-8,-18,-17,6,30,503,118,a,11.08699282282269,50.646147797813605,1572.2445544396828,-247.93844037471843,20.726847929016344
2025-02-19 14:08:22.318,938,70,560,32,-15,13,-17,8,29,263,118,a,-7.125016348901798,58.9663169665042,1794.8643721005883,133.94510239556627,48.439180835469756
2025-02-19 14:08:22.427,532,-104,710,-17,10,-14,-16,9,26,437,54,a,8.333358109961033,36.55266064162314,1127.5613615224688,-220.42552932018182,-84.8281328589336
2025-02-19 14:08:23.236,787,25,594,2,-4,-5,-16,7,29,448,85,b,-2.410016200184429,52.93139284859553,1584.9143119155517,50.346706223492745,-8.237739870187625
2025-02-19 14:08:23.337,828,61,571,11,-12,-9,-18,7,29,481,107,b,-6.09778797118083,55.25723987026925,1649.7189559303438,121.53726607699389,4.331492951417658
2025-02-19 14:08:23.447,774,64,601,3,-10,-19,-18,5,30,509,116,b,-6.078473396667824,52.014575681813625,1562.167348469245,129.1714603385422,-11.00074474162318
2025-02-19 14:08:23.553,758,-210,770,-55,8,76,-17,4,29,502,114,b,15.255118703057777,43.52302290252682,1446.6459939986084,-400.78582947191,70.45195860299668
2025-02-19 14:08:23.661,745,16,430,21,-1,-54,-17,8,29,431,118,b,-2.1309528871049226,59.9901018393817,1610.9390131154978,34.59734793268184,-69.80372569082431
2025-02-19 14:08:23.768,714,83,724,-31,-13,11,-18,8,29,556,116,b,-6.539888304885878,44.41456699957596,1413.8449669364695,164.35452696880526,14.353282826325085
2025-02-19 14:08:23.874,890,-5,936,18,26,-23,-16,6,29,40,118,b,0.30606428702437644,43.55652029493858,1579.0697972577302,-8.871178636279383,211.3153592884995
2025-02-19 14:08:23.984,561,-27,715,-15,6,10,-16,10,28,349,59,b,2.16258929822136,38.098452929291305,1178.014626507427,-56.69589111533071,-71.39119064672059
2025-02-19 14:08:24.091,878,-4,568,12,-13,-4,-16,7,28,408,79,b,0.40348473505875015,57.099521046174154,1717.615323935369,-7.825126760525598,24.832000005365103
2025-02-19 14:08:24.192,780,-7,606,1,-5,-4,-16,8,28,285,80,b,0.6618030030553396,52.15368972035941,1569.65936186932,-14.086686580878514,-7.504581144625604
2025-02-19 14:08:24.301,772,-9,604,0,-4,-4,-17,10,28,273,82,b,0.8536818817893306,51.95787641017947,1559.5579092381245,-18.181374589563625,-12.172250232936562
2025-02-19 14:08:24.410,798,-14,590,-2,1,-2,-17,7,28,268,85,b,1.3593057860686109,53.51498217414655,1602.012372313394,-28.105480216024457,-4.445237675316434
2025-02-19 14:08:24.516,795,3,598,-2,-1,-2,-17,6,29,276,85,b,-0.2874346096476211,53.04912266546795,1594.15118392848,6.015664845013132,-3.1225257726174505
2025-02-19 14:08:24.623,788,1,592,0,-2,-1,-15,9,30,289,86,b,-0.09678331928718172,53.08355679483342,1587.5123121160836,2.014609533142238,-8.648843620204957
2025-02-19 14:08:26.440,802,17,589,-1,-2,-1,-16,7,28,382,90,c,-1.6532392492256467,53.69453828396282,1607.8718449734884,34.082071526869456,-2.843537019182918
2025-02-19 14:08:26.536,796,12,591,-1,-1,-1,-18,7,28,382,92,c,-1.1632062452411367,53.4018536931856,1598.8367644637883,24.103066800961635,-5.0760399473605275
2025-02-19 14:08:26.643,787,20,598,2,-4,0,-16,6,29,409,94,c,-1.9155328093077622,52.75527531901618,1583.0577295985706,40.23018372550371,-6.882493392560832
2025-02-19 14:08:26.756,671,-14,664,15,-41,-12,-17,7,30,503,120,c,1.2078645800532561,45.294058613311684,1381.7265302999294,-28.82886948464831,-39.3120955576054
2025-02-19 14:08:26.856,739,-121,586,-40,13,-23,-17,7,29,99,124,c,11.666735403671192,51.003206290790395,1516.181177217545,-248.25158652682404,-30.27627855139565
2025-02-19 14:08:26.970,847,66,569,41,-17,34,-17,7,28,379,123,c,-6.6163404631870995,55.930026927239744,1675.3540342705192,130.547067605495,12.526038370808237
2025-02-19 14:08:27.077,635,-68,666,-53,61,4,-16,7,26,479,55,c,5.829817239081026,43.48666022428984,1323.185673195906,-141.6954736650734,-55.7821391314543
2025-02-19 14:08:27.186,802,-41,615,25,-32,-7,-15,11,28,381,61,c,3.8140748342903548,52.45645780417076,1594.8904801452102,-81.53430135405688,6.985479689147041
2025-02-19 14:08:28.002,801,5,588,0,-4,-1,-16,8,27,390,92,d,-0.4871972669649197,53.71727489454304,1607.1067398303271,10.031877277342865,-3.748767815520978
2025-02-19 14:08:28.096,794,22,587,5,-8,0,-17,8,28,480,99,d,-2.1463670431604,53.505454737878125,1597.9134859687463,44.27468097142621,-7.328987737599391
2025-02-19 14:08:28.202,926,38,531,2,1,-6,-17,7,30,434,123,d,-4.09328484463909,60.10537812901308,1792.9435361960195,73.5765166041563,33.86499166297364
2025-02-19 14:08:28.313,814,-118,521,-48,27,-15,-16,8,28,0,123,d,12.761479646454715,56.72471069485849,1650.0440678289347,-239.19557740026323,-14.109286657094572
2025-02-19 14:08:28.417,778,81,542,31,-21,-29,-17,9,29,288,125,d,-8.499747416003002,54.839332569987384,1595.540416659711,166.116675770484,-27.546151451880746
2025-02-19 14:08:28.526,813,-83,489,-70,5,-38,-16,5,31,583,122,d,9.633240499714203,58.613524344413605,1666.6737548698306,-170.1524251589126,-24.464287984436737
2025-02-19 14:08:28.637,962,116,517,50,-16,29,-19,10,30,98,124,d,-12.64609675619287,61.15475100751266,1837.9259447827474,221.62100789480115,46.25809412403288
2025-02-19 14:08:28.744,520,-121,725,-18,12,-11,-16,9,28,431,52,d,9.475137188691614,35.27773230521931,1097.5403932906545,-255.38920690032538,-80.22458679947033
2025-02-19 14:08:29.557,796,-13,595,0,0,0,-16,7,27,383,83,e,1.2516414218591536,53.21579071081567,1596.8964313775787,-26.07996684410619,-3.6600209417831593
2025-02-19 14:08:29.653,793,-7,601,2,-1,0,-17,9,29,395,84,e,0.6673083558350854,52.840315584658015,1589.9551407396623,-14.034912969959189,-2.997527849353105
2025-02-19 14:08:29.763,795,-1,588,-1,1,-4,-16,9,29,411,87,e,0.09744170794908412,53.51249248262393,1598.9865336674886,-2.011303815933948,-6.646643769161415
2025-02-19 14:08:29.866,791,-11,600,1,-1,-8,-18,8,26,428,90,e,1.0503049618957292,52.813828826527256,1587.6758199907401,-22.078930492918005,-4.3052996137092805
2025-02-19 14:08:29.976,891,34,375,-38,3,4,-15,8,28,377,115,e,-5.180652572459754,67.09099450775966,1812.1242334397562,69.14952181476058,-12.678549427506425
2025-02-19 14:08:30.086,767,-34,606,8,-12,-13,-15,9,30,596,122,e,3.2112480181116068,51.64423953390107,1551.1728277245113,-68.76124660056504,-13.56810117477687
2025-02-19 14:08:30.194,899,-21,494,-31,21,12,-16,7,29,228,119,e,2.434184971682109,61.18939440715906,1775.2174912156493,-41.467816813713725,12.518975905972411
2025-02-19 14:08:30.304,811,-33,604,30,-17,4,-15,11,30,454,123,e,3.1272893005584814,53.28183575092844,1612.5861412740865,-65.61694532927848,7.011061245933206
2025-02-19 14:08:30.410,489,-110,737,-14,7,-10,-16,11,24,341,50,e,8.488943880504715,33.27415143121182,1037.6456938066174,-233.41723173563986,-89.89545262878721
2025-02-19 14:08:31.216,805,-27,581,1,-3,2,-16,10,28,382,95,f,2.660712321785376,54.15120935740982,1615.565399966229,-54.186665588929415,-4.016766932147789
2025-02-19 14:08:31.323,796,-29,578,3,-4,3,-14,10,28,360,102,f,2.8722931852012756,53.98119770678998,1604.8240620778274,-58.467208291780146,-9.311944574100721
2025-02-19 14:08:31.430,842,27,527,10,-1,0,-16,10,28,145,122,f,-2.9328930427006843,57.924149132084516,1689.3458209962719,54.17142181341964,-3.3458998397093183
2025-02-19 14:08:31.544,718,-219,650,-34,-14,-37,-17,10,30,666,123,f,18.61985848827959,46.309766079659184,1441.0848964829913,-439.55096424759756,-4.603318543097998
2025-02-19 14:08:31.643,822,-5,595,10,30,41,-17,7,28,641,116,f,0.48146580583835247,54.100354798521465,1632.045271483843,-9.927282673259388,8.653361882133026
2025-02-19 14:08:31.753,657,122,696,3,-6,-19,-16,9,27,430,117,f,-9.942219794803519,42.91635396363768,1337.9299313208162,248.443609773424,-25.350429527074425
2025-02-19 14:08:31.860,673,-79,670,6,-21,14,-16,10,29,590,120,f,6.724721405494416,44.93021551773388,1379.2450227946288,-161.90246181393115,-33.09682804220074
2025-02-19 14:08:31.966,655,-108,571,-31,75,-1,-15,9,27,218,58,f,10.710504744699678,48.420174401310575,1403.031819015036,-231.33959763912048,-81.10102085127573
2025-02-19 14:08:32.786,796,-26,581,-1,-3,2,-16,9,28,424,87,g,2.56230127723861,53.847015895270275,1603.4446808862688,-52.373821234978635,-8.353466827791635
2025-02-19 14:08:32.884,791,-12,572,4,-18,-3,-16,11,29,362,101,g,1.2018330644521196,54.12199539412648,1601.2666844358814,-24.292288512301617,-13.932419086377308
2025-02-19 14:08:32.991,821,-14,581,-5,1,-14,-17,9,29,311,122,g,1.380354073444452,54.70612487572872,1637.1993579622056,-27.91813765099985,3.397287483506261
2025-02-19 14:08:33.097,809,-102,537,-37,28,-3,-16,7,30,0,122,g,10.754877700950258,55.95504993943844,1637.598615788669,-206.47102448757016,-13.009217155148576
2025-02-19 14:08:33.204,782,1,546,10,-17,-41,-15,11,28,403,119,g,-0.10493720778188684,55.0768352729853,1601.9204898398352,2.0484916749870017,-26.476454542902843
2025-02-19 14:08:33.314,861,-79,665,-33,2,37,-17,10,29,451,116,g,6.774814982261331,52.12462765916571,1650.3480524368183,-151.4256633478614,55.340935109774364
2025-02-19 14:08:33.416,755,-172,382,68,32,-11,-16,11,28,0,131,g,24.240217189658164,60.97484565785487,1629.4067787846743,-371.2026039085616,-60.41508542482859
2025-02-19 14:08:33.527,612,-98,724,-32,48,11,-14,11,23,0,47,g,7.708654356796774,39.95172370919553,1254.1419276927586,-200.8266485521084,-35.6580974665967
2025-02-19 14:08:33.636,831,-48,626,10,-21,-4,-13,12,26,149,50,g,4.384706875060754,52.92820430801484,1628.8807661593937,-94.08697566263648,24.94902573311606
2025-02-19 14:08:34.348,802,-5,601,3,-13,-8,-15,8,25,477,84,h,0.47665938175312106,53.15201885083974,1602.2294504838856,-9.988961661370858,1.3268083032228333
2025-02-19 14:08:34.445,801,22,578,-1,-2,-9,-16,8,27,537,97,h,-2.179755991741522,54.1661769485281,1611.7183633616992,44.266921340770764,-7.012751589340951
2025-02-19 14:08:34.556,849,55,517,-12,-7,-5,-17,8,29,554,121,h,-6.0724564072077,58.51720278216715,1701.7970036006677,110.24597785398907,-2.312191827497486
2025-02-19 14:08:34.662,754,52,572,-9,3,73,-16,9,26,448,119,h,-5.194428907734806,52.701697487505406,1549.491433970184,106.86147820484028,-31.476260253243026
2025-02-19 14:08:34.773,879,-40,439,-25,-9,-45,-17,9,27,494,121,h,5.206196371014223,63.36623219145387,1772.8901905194452,-80.67759683820002,-7.436625299245179
2025-02-19 14:08:34.879,812,130,541,11,-6,52,-16,11,30,421,125,h,-13.51175447003588,55.58021106615765,1636.9183196063966,262.0682038778714,-8.606909984064714
2025-02-19 14:08:34.985,747,-77,539,-30,93,9,-16,10,26,459,63,h,8.13010235415598,53.91249787729576,1555.1183855508634,-160.30002100055754,-44.100147003902634
2025-02-19 14:08:35.096,708,-88,659,20,-32,-13,-15,12,27,412,47,h,7.606033047302979,46.800285850522265,1436.9720426402916,-178.60669456545997,-19.520587711796907
2025-02-19 14:08:35.806,818,-22,572,2,-5,-1,-16,9,27,392,90,i,2.2025981617658053,55.016305013988735,1637.3152373082894,-44.03537313054078,-0.9197013940604393
2025-02-19 14:08:35.906,779,-15,583,1,-1,-3,-15,11,27,390,91,i,1.473837263204874,53.17989319921398,1579.5211063702993,-30.41439871059626,-16.106296551841183
2025-02-19 14:08:36.019,703,-51,614,11,-26,-14,-14,10,28,460,114,i,4.748196003133472,48.76843392749427,1455.0519016914636,-105.55853056367658,-42.84191698230234
2025-02-19 14:08:36.116,839,81,529,11,-4,45,-15,10,28,0,130,i,-8.705463463097487,57.46778418590462,1682.08920396979,162.3947860805161,-2.5782942789260233
2025-02-19 14:08:36.231,351,-161,662,-30,18,-71,-17,11,26,454,80,i,13.669098606601851,27.25725875027116,808.9865402164484,-371.0735982189408,-201.78088211763213
2025-02-19 14:08:36.337,1010,-43,635,-9,6,11,-15,7,27,554,120,i,3.873957525188083,57.7828089664386,1856.0332437699553,-79.01923711099809,103.08801010502805
2025-02-19 14:08:36.441,504,-42,712,-22,36,27,-15,11,26,444,45,i,3.3758951733911453,35.246433869774044,1081.0943605658897,-90.09119671382413,-103.26028714863764
2025-02-19 14:08:36.554,882,-36,563,14,-25,-2,-13,10,26,429,64,i,3.658692249906575,57.39597660306665,1724.4145616246908,-70.38426782141595,25.26825601507835
2025-02-19 14:08:37.366,811,-31,588,1,-7,-1,-15,12,26,373,91,j,3.01790182886074,54.01893426057717,1620.2111927603532,-61.93162389096294,1.2969403907675314
2025-02-19 14:08:37.468,810,-20,570,3,-12,-3,-14,11,26,404,103,j,2.009553813021139,54.84921597765798,1627.6397411334794,-40.188635583542705,-5.376114130967039
2025-02-19 14:08:37.575,811,-92,513,-7,2,-4,-15,10,29,439,125,j,10.167187404113854,57.2734184560869,1652.260054750117,-187.4327065807778,-19.141070390641175
2025-02-19 14:08:37.681,867,59,503,20,-5,46,-16,12,27,2,139,j,-6.6900089923598145,59.70913800743036,1730.476005887007,117.7601895586314,2.0444856272611105
2025-02-19 14:08:37.791,891,30,417,-74,61,-69,-17,10,25,309,87,j,-4.114909098237253,64.86294763171695,1796.2942859221998,60.48128908828956,-6.689918327224916
2025-02-19 14:08:37.894,861,100,412,26,8,14,-15,10,31,494,125,j,-13.642914775990068,63.78405107794797,1758.13543681405,204.19691484483735,-17.291289160729946
2025-02-19 14:08:38.005,586,-42,672,-23,50,23,-15,13,26,467,53,j,3.5763343749973515,41.03388611310938,1242.5052677687322,-89.05327857728116,-80.85245723649848
2025-02-19 14:08:38.111,842,-78,577,15,-36,-7,-13,11,26,387,66,j,7.698687343686041,55.335901082918994,1664.5005856664593,-154.19364095247482,13.362425261820704
2025-02-19 14:08:38.931,819,-42,580,3,-4,-5,-15,11,24,327,91,k,4.141775330492021,54.62391323101361,1634.369496190705,-83.81382031747206,2.5710527587192473
2025-02-19 14:08:39.025,802,-11,588,5,0,-11,-14,13,25,352,92,k,1.071734807507232,53.747576969996175,1608.4195971491695,-22.060617916011047,-3.240303146772362
2025-02-19 14:08:39.131,685,-54,650,16,-34,-14,-14,11,26,228,118,k,4.749051474715323,46.40339814176744,1409.2127606453864,-111.09122492678961,-37.2091889335785
2025-02-19 14:08:39.239,701,-76,730,-22,6,73,-16,10,25,175,119,k,5.943627832095905,43.68475378011914,1391.6900074219793,-150.88222619696205,10.736511529180007
2025-02-19 14:08:39.352,848,-78,445,10,-28,-37,-14,14,28,315,121,k,9.941860839175003,61.95289617513554,1730.5613340459086,-159.1789906315812,-18.13654911607233
2025-02-19 14:08:39.448,830,-18,464,-18,1,9,-16,11,27,386,125,k,2.22156713293605,60.7748793262264,1702.7080969351146,-36.92619969256876,-23.875369852883352
2025-02-19 14:08:39.556,777,-191,381,-17,4,-4,-16,10,25,0,128,k,26.6251726445326,61.25464831365037,1653.7657746608322,-406.5241479539497,-48.91989722751231
2025-02-19 14:08:39.672,841,-67,581,21,-13,11,-14,14,28,52,130,k,6.578201545526769,55.18437575178622,1661.9935481108591,-132.40614473653696,13.821341911522836
2025-02-19 14:08:39.778,556,-101,715,-10,29,6,-12,12,22,89,48,k,8.040332306949269,37.595488333276805,1166.0827743984614,-211.82438887454066,-69.54889153758961
2025-02-19 14:08:40.597,770,-69,621,-2,-6,-9,-15,14,23,352,79,l,6.34019174590991,50.94216995646716,1546.5103771178176,-138.5833974300382,-5.250576870343707
2025-02-19 14:08:40.691,801,-27,585,2,-2,-5,-14,12,25,388,91,l,2.642545294064724,53.82891943321298,1608.25831124724,-54.21095431170472,-4.570676753602243
2025-02-19 14:08:40.797,813,-7,579,4,-1,-15,-15,13,24,398,97,l,0.6926613431496996,54.54042167299384,1627.5249965956023,-14.013130351991656,-1.0860676861668708
2025-02-19 14:08:40.906,885,-67,677,-22,-15,-16,-14,13,24,395,119,l,5.651931397489266,52.45020182004085,1677.8239404563,-127.02169944697411,70.51208170744053
2025-02-19 14:08:41.012,895,117,502,-10,3,61,-14,11,25,0,126,l,-13.119589211541191,60.06122204079672,1761.5591723846887,230.28203706034475,15.952285433392603
2025-02-19 14:08:41.116,1000,-70,585,-5,91,42,-14,15,23,390,91,l,6.823462399033519,59.49454995518403,1861.5808788720278,-130.31066152104194,80.97518585986387
2025-02-19 14:08:41.228,665,-73,685,2,-12,-5,-13,15,23,368,54,l,6.083014597416155,43.98956053119434,1359.5272929854962,-149.2413419367537,-30.41533187227799
2025-02-19 14:08:41.335,784,-76,614,-2,-6,-6,-13,12,22,413,62,l,7.056096037901021,51.721619153795075,1569.010173041991,-152.09792493774404,-0.7911304180900061
2025-02-19 14:08:42.148,770,-65,624,2,-4,0,-12,13,24,328,83,m,5.946863053973501,50.82773394726156,1545.2503308649789,-130.44320974834238,-4.254813584086605
2025-02-19 14:08:42.249,771,-64,631,4,-9,-8,-12,13,24,283,93,m,5.791493933377507,50.55872131811641,1543.2760820883168,-128.10592639903018,-1.0443680904382973
2025-02-19 14:08:42.358,666,-38,632,6,-34,-16,-14,12,23,174,117,m,3.4408569222297065,46.448848680104646,1390.759547318051,-79.35264684397288,-55.759810668180535
2025-02-19 14:08:42.461,728,65,665,-6,8,52,-13,11,26,0,117,m,-5.582605756531074,47.45382847699382,1464.7326764236836,130.77970325211461,-7.976964040864914
2025-02-19 14:08:42.575,809,-135,616,-26,-9,-44,-15,11,27,373,118,m,12.361276667549644,52.06340703318321,1597.6915997799706,-266.61108278157735,15.463503752210158
2025-02-19 14:08:42.677,863,51,532,9,-2,49,-14,13,25,67,120,m,-5.475906840749357,58.23087995747378,1713.1765760152134,101.2421846776082,7.905053951224318
2025-02-19 14:08:42.792,850,-163,594,-36,-8,-40,-15,12,27,513,119,m,15.34485999015117,54.07076506276605,1659.7423409136989,-318.28000184580344,28.132999408544492
2025-02-19 14:08:42.895,910,-17,425,34,-4,31,-15,11,26,0,123,m,2.2906100426385296,64.94831026746456,1815.926150663086,-33.92389512227743,1.9026219430642755
2025-02-19 14:08:43.001,534,-131,708,-17,61,8,-14,16,22,371,54,m,10.48278310017642,36.56243485062397,1129.698391187963,-277.1357476509797,-81.80236135033272
2025-02-19 14:08:43.816,780,-79,614,0,-4,-3,-14,13,23,314,78,n,7.331652205417125,51.56207804674485,1563.2821710045337,-158.33242501199766,-2.583657688184303
2025-02-19 14:08:43.915,766,-70,622,7,1,-6,-13,13,23,345,82,n,6.42106082349074,50.74648966615068,1540.3538787451535,-140.76340928480514,-6.783436787839719
2025-02-19 14:08:44.025,778,-22,614,10,2,-16,-14,14,24,102,83,n,2.052065370408695,51.7015133998982,1562.7927409855997,-44.19208264997839,-5.360852140305951
2025-02-19 14:08:44.130,791,-68,512,-20,1,-17,-15,11,25,27,115,n,7.565321068432294,56.856840267602465,1628.3071116095912,-139.98088949361846,-29.973756187244817
2025-02-19 14:08:44.230,773,-82,580,21,7,9,-13,13,23,0,121,n,8.047105145893504,52.84569381299866,1570.011836988636,-166.54718063786305,-18.016643536104652
2025-02-19 14:08:44.346,701,-74,789,-48,-8,15,-15,13,26,501,114,n,5.358074582685721,41.49546961420605,1363.5608261043644,-143.94222700673745,43.26463367140741
2025-02-19 14:08:44.446,977,-108,516,32,-8,-10,-14,13,25,393,116,n,11.821488340607257,61.64906491834217,1857.0555483971739,-205.28352019129454,51.20095908603719
2025-02-19 14:08:44.558,550,-75,765,-8,3,-2,-12,15,23,415,44,n,5.599339336520571,35.58462124529546,1131.9047048931309,-154.35064157633602,-44.376544078627376
2025-02-19 14:08:47.077,769,-77,620,-2,-1,-2,-14,14,24,343,73,o,7.079516434294769,50.90835575322154,1545.1383736756825,-154.7147656346262,-5.755255759327838
2025-02-19 14:08:47.166,768,-81,615,0,-2,-1,-13,14,21,347,72,o,7.503087391049606,51.07229748476753,1545.9394373696314,-163.04830003507828,-7.959315081149839
2025-02-19 14:08:47.282,777,-69,609,1,-3,-4,-14,14,23,358,76,o,6.464074319376841,51.73367776765959,1562.140533578483,-138.7229045262746,-6.380418210162702
2025-02-19 14:08:47.388,783,-73,605,0,-2,-1,-14,14,24,361,77,o,6.880114243836072,52.107320408981764,1572.162562689594,-146.57454288166076,-4.761622512393842
2025-02-19 14:08:47.496,797,-71,603,0,-1,-6,-13,15,22,368,79,o,6.715349727927843,52.69935179287885,1592.4666250460305,-141.863400725556,1.1601318660525521
2025-02-19 14:08:47.596,750,-67,626,-7,-2,-4,-13,13,25,469,76,o,6.109040056863552,49.988770561056384,1515.9184480245367,-135.4220480235253,-13.28659795114686
2025-02-19 14:08:47.712,785,-63,608,2,-10,-1,-14,14,23,508,78,o,5.915786326548434,52.09320916001834,1574.011272664637,-126.32192379346768,-3.106820102037318
2025-02-19 14:08:47.818,795,-73,587,1,-3,2,-13,14,24,515,84,o,7.088973716092786,53.34881499892036,1597.2845193282837,-146.66889296976692,-5.378632510317516
2025-02-19 14:08:47.925,701,-104,628,-1,-8,1,-14,13,24,521,87,o,9.403132374212689,47.75852581171007,1441.3181698159774,-213.83322348197095,-35.22369564113217
2025-02-19 14:08:48.028,836,-78,545,-2,-8,5,-13,14,26,523,108,o,8.144819995628596,56.63283220239976,1671.1631681758108,-155.9219223896091,0.5455422777309877
2025-02-19 14:08:48.140,799,-30,561,-9,0,-29,-14,14,26,497,126,o,3.061029799417655,54.88776369566954,1617.026898462278,-60.714401694453485,-13.359311686280307
2025-02-19 14:08:48.248,1086,-21,421,-13,-2,91,-14,13,26,1,123,o,2.8556174309162694,68.78662003722482,2018.239327632491,-39.026727329910045,59.60703781466049
2025-02-19 14:08:48.354,741,-227,666,4,0,-46,-13,15,25,472,130,o,18.82120665345107,46.4821031438412,1466.159321836901,-449.14732261400343,14.237370656712415
2025-02-19 14:08:48.461,872,-42,603,7,50,50,-14,13,24,473,76,o,3.984316002372223,55.270720952286,1693.8530228749908,-81.58466394581376,34.677324777959484
2025-02-19 14:08:50.980,789,-85,582,-1,-3,-1,-13,13,24,375,77,p,8.309194132923013,53.29664749292186,1590.7406744573143,-171.37256949159914,-9.398064048361107
2025-02-19 14:08:51.066,795,-91,591,-1,-6,2,-13,15,24,426,82,p,8.753447167730586,53.05108545442177,1594.1717764510563,-182.47752409691338,-3.1012828711627662
2025-02-19 14:08:51.185,794,-87,577,-4,-7,-2,-14,13,24,425,90,p,8.574462069200976,53.687296535800115,1599.797002890686,-175.29261870464694,-8.572884972198608
2025-02-19 14:08:51.291,816,-61,542,4,-14,-21,-13,11,26,467,111,p,6.421396481290891,56.24087071619263,1647.3810793758325,-123.14981108079141,-10.216354193261395
2025-02-19 14:08:51.402,825,-105,719,-19,24,82,-14,13,27,234,123,p,8.308523823393733,48.62771290769003,1575.4308461793123,-200.50938042282155,64.98814739039335
2025-02-19 14:08:51.509,896,-115,453,16,2,-100,-13,15,24,314,124,p,14.244374600500178,62.45266884825237,1782.6290872235659,-228.79726007891742,4.737749428264351
2025-02-19 14:08:51.619,705,-114,766,-34,-16,11,-13,12,27,638,119,p,8.464916830918371,42.31282501384074,1378.1780547243507,-222.854323742661,34.575333448435686
2025-02-19 14:08:51.721,876,-105,474,49,11,7,-13,14,27,25,126,p,12.490405717909184,61.00421572858658,1750.6553762609806,-209.83882934635037,0.7275703793325761
2025-02-19 14:08:51.827,473,-79,695,-39,38,9,-13,16,23,330,57,p,6.484923435576597,34.067381420106365,1033.1674876489114,-172.55862901535733,-128.079078046498
2025-02-19 14:08:51.937,867,-150,528,6,-34,-12,-12,15,26,373,78,p,15.85936626660569,57.66230056583077,1711.910057515434,-296.1782106428087,13.452698537313495
2025-02-19 14:08:52.650,806,-109,565,-2,-3,-2,-13,13,24,424,93,q,10.91937424570781,54.476265924742584,1619.8748994244406,-219.0649677881688,-5.520245874452712
2025-02-19 14:08:52.754,821,-101,562,-2,-6,-2,-14,15,25,446,100,q,10.188172893558196,55.181480765076316,1641.9646992768803,-201.9956572801034,0.024164441404764148
2025-02-19 14:08:52.861,799,-95,589,1,-21,-8,-13,12,25,468,124,q,9.16234704572171,53.25135800671233,1600.2679937692405,-190.26966133676828,-1.6719002879634672
2025-02-19 14:08:52.966,712,-241,572,-12,31,-9,-13,14,27,87,125,q,22.847087073774837,48.919198065731926,1465.7836163623324,-496.1430499203962,-33.56773674052545
2025-02-19 14:08:53.066,814,-64,566,6,-24,-12,-13,15,25,333,125,q,6.451272993927394,55.01710375700845,1633.3232300331056,-128.41853405665697,-3.7014105635601027
2025-02-19 14:08:53.177,768,-218,751,-40,48,38,-14,14,26,281,121,q,16.186936488002534,44.482480386345365,1468.6911374216456,-416.89409890354,65.81895285982307
2025-02-19 14:08:53.287,800,-159,478,23,-43,7,-13,17,27,255,130,q,18.39898160886866,57.80184397957629,1646.210315520922,-327.18430020978315,-27.610663523750702
2025-02-19 14:08:53.396,472,-101,804,29,63,100,-13,17,23,391,52,q,7.160097183038252,30.220226574961455,975.325021855228,-208.70302374444495,-53.35872366865078
2025-02-19 14:08:53.503,828,-169,616,5,-42,-6,-13,15,24,323,58,q,15.341656269362625,52.3515452792832,1619.7733637370845,-330.60591602846284,26.951217316372095
2025-02-19 14:08:54.216,835,-93,563,0,-4,-1,-13,15,26,414,99,r,9.379787290303934,55.65174424315631,1660.6233876147853,-184.95565874032937,6.322194937576114
2025-02-19 14:08:54.318,828,-84,575,0,-3,-3,-13,15,25,432,105,r,8.311373380804202,54.93822566768109,1646.5331579801534,-167.03959573711705,6.574195847115561
2025-02-19 14:08:54.425,785,-68,574,2,-6,-6,-13,15,24,457,109,r,6.7561644948615855,53.63491602717062,1590.2552771310684,-137.7545972546658,-14.810865061443678
2025-02-19 14:08:54.526,794,-133,563,-14,5,-13,-14,10,26,467,126,r,13.291560386256538,53.923488189957645,1602.231354834788,-268.38384155293045,-10.090998453382099
2025-02-19 14:08:54.642,846,-33,492,10,6,-24,-11,14,26,105,130,r,3.837262117327651,59.7635030910137,1709.9542073384273,-66.70034142100249,-10.441453913127987
2025-02-19 14:08:54.749,848,-14,600,-40,-13,-4,-14,13,25,558,126,r,1.3366589783291134,54.71143976312866,1664.2529497505452,-27.475874170409945,22.46253555385954
2025-02-19 14:08:54.847,514,-256,656,42,86,72,-13,14,25,501,58,r,21.317912275461552,36.126646233838684,1103.572061045093,-549.6390031664278,-96.44994561397084
2025-02-19 14:08:55.766,798,-99,582,1,-7,-2,-14,13,24,446,87,s,9.653786088536545,53.50597985078549,1601.9189367541785,-198.73430418378902,-4.316818535002199
2025-02-19 14:08:55.870,803,-102,570,-1,-2,-1,-13,14,24,454,93,s,10.145544433896339,54.20410551395831,1614.1057318949343,-205.0296197425695,-5.753757384947107
2025-02-19 14:08:55.977,788,-57,560,-7,-23,-14,-13,14,24,555,108,s,5.811876007984291,54.46057574194266,1601.715753768217,-115.86014970150808,-18.2751549621845
2025-02-19 14:08:56.083,774,-66,612,-11,2,-18,-14,13,25,540,129,s,6.155168343274003,51.50538954288166,1556.6667103963787,-132.73902181674543,-6.852747755275914
2025-02-19 14:08:56.193,987,-70,661,-16,18,67,-13,13,27,376,123,s,6.045100624434318,56.04166362069809,1816.4439801601943,-128.82581419575845,105.51624023719512
2025-02-19 14:08:56.301,743,-186,499,41,27,-9,-14,14,25,138,127,s,20.442713056265244,54.36929437360912,1555.7886762869425,-389.47065112970563,-46.87018770818872
2025-02-19 14:08:56.407,619,-88,617,-19,80,29,-11,14,23,371,52,s,8.117101269851528,44.80425865161992,1323.6869486307153,-188.181666364302,-85.41009257698113
2025-02-19 14:08:56.513,804,-147,629,6,-42,-5,-12,15,23,415,53,s,13.154177612695529,51.220941413630484,1583.566934445163,-289.5327604022873,19.114923176607704
2025-02-19 14:08:57.337,794,-67,593,-3,-17,-12,-14,14,24,515,82,t,6.44621638342708,53.07135715248328,1593.3844013007274,-134.45435124326036,-4.021347570946318
2025-02-19 14:08:57.431,805,-53,551,-4,-11,-19,-14,11,24,544,104,t,5.494305944528975,55.48637198541286,1628.9914434777188,-107.2503683283467,-12.999112243755349
2025-02-19 14:08:57.537,809,-69,545,-7,-1,-8,-14,11,26,518,126,t,7.215571806711689,55.821579434146535,1636.2922142941416,-139.5601517753965,-12.32293793610279
2025-02-19 14:08:57.643,1050,197,274,8,-26,53,-14,15,25,249,121,t,-35.71530795509287,72.18266817111984,2002.0368771221795,375.6202521838754,25.563710160498175
2025-02-19 14:08:57.751,636,-43,647,8,46,-47,-12,12,24,493,107,t,3.8023194426799454,44.445658601733314,1336.2324765251715,-90.34276177764525,-65.34341558456913
2025-02-19 14:08:57.859,1160,61,640,-72,-49,6,-14,11,24,277,112,t,-5.444556760352892,61.00370446666218,2034.651050745302,106.99458111677882,157.43390303707474
2025-02-19 14:08:57.966,1104,-75,519,29,19,2,-14,14,26,596,109,t,8.222813890574903,64.59265979738828,2007.280334268896,-136.36415314326737,94.36006024858989
2025-02-19 14:08:58.069,623,-64,683,2,-11,6,-13,14,20,434,50,t,5.3532263590982145,42.244908572754184,1295.3010273916975,-133.0646320273975,-54.04911991738254
2025-02-19 14:08:58.887,800,-111,581,1,-2,0,-12,15,23,421,81,u,10.816015575401458,53.521323125371026,1604.078173445705,-222.56584656559158,-2.961773464943235
2025-02-19 14:08:58.987,779,-97,576,3,-5,-2,-11,15,24,414,86,u,9.559078287477377,53.1366725717225,1579.0687978974536,-196.62345750456097,-15.578469305434169
2025-02-19 14:08:59.092,735,-3,538,4,-22,-25,-12,15,24,297,109,u,0.3194898829217858,53.796462876658914,1541.9238498910213,-6.293566734249067,-52.64630100866589
2025-02-19 14:08:59.205,824,-286,671,-30,28,21,-13,14,23,51,118,u,23.085133672808276,48.48459531872459,1572.7775400992016,-545.8912335781208,61.25518275902414
2025-02-19 14:08:59.311,761,-95,531,7,-30,-36,-14,13,25,485,122,u,10.143343289851586,54.669262778885454,1576.8274718531552,-196.8444281551245,-38.25675105653784
2025-02-19 14:08:59.416,907,-47,675,-22,27,53,-14,14,24,489,121,u,3.9830552119655604,53.27656147985159,1708.5311010579317,-88.53468770641985,78.49118719503417
2025-02-19 14:08:59.524,920,-151,476,2,105,-17,-14,14,24,445,78,u,17.60042713853159,61.506860849220296,1798.8742434547203,-295.2500116974595,21.278108821253397
2025-02-19 14:08:59.630,653,-95,642,3,-40,-6,-12,16,21,406,51,u,8.417265547567617,45.17643143312356,1362.2808258697069,-198.18786900095276,-55.33275682749104
2025-02-19 14:09:00.446,797,-116,587,0,-3,-2,-12,14,24,434,77,v,11.178477294454277,53.102419334464074,1596.7100107295973,-232.39443067080714,-1.9959552048604792
2025-02-19 14:09:00.548,782,-112,585,2,-2,-2,-11,16,23,436,80,v,10.838295287699347,52.70461226444729,1577.5222598592418,-225.9366919491497,-10.115757055826634
2025-02-19 14:09:00.651,768,-98,582,2,-4,-7,-13,15,23,442,85,v,9.558081081839925,52.45841690559776,1560.9113155306409,-199.17878765885786,-18.878106300564014
2025-02-19 14:09:00.766,1178,-151,626,22,-20,-15,-12,14,23,295,118,v,13.561487045765203,61.33675972590557,2055.45408410855,-263.47501417690245,159.71285513416615
2025-02-19 14:09:00.866,747,-120,584,-18,-5,75,-14,14,24,426,120,v,11.61148642388849,51.40566694831248,1528.5821745970734,-245.55536941318445,-27.036131144164415
2025-02-19 14:09:00.978,802,-178,605,-11,-8,-50,-14,16,24,547,125,v,16.394667473127413,51.82074366649564,1588.0807335069233,-352.46679621475346,12.008922977944508
2025-02-19 14:09:01.077,922,-84,515,2,63,13,-14,14,25,588,81,v,9.263755399146834,60.49232660631331,1792.289739824529,-163.2888700057055,28.883713655496194
2025-02-19 14:09:01.192,733,-105,582,4,-23,6,-11,15,23,450,64,v,10.226857706341352,51.10287059250259,1511.2746093089293,-216.48544880960105,-35.947916258931514
2025-02-19 14:09:02.006,806,-108,577,-1,1,-2,-12,16,24,437,83,w,10.601667903520946,53.93365451888955,1614.3358279233798,-216.31298934953475,-1.6721745803847625
2025-02-19 14:09:02.104,797,-99,577,0,-1,0,-13,14,25,438,84,w,9.735846738295928,53.70108511080223,1602.9394940972702,-199.11042649388924,-6.471879666405016
2025-02-19 14:09:02.208,765,-86,579,4,2,-2,-13,18,24,424,88,w,8.448485868255263,52.57801009123198,1559.181453426461,-175.28052940480478,-22.086354946301867
2025-02-19 14:09:02.322,782,-66,541,9,-9,-19,-12,15,24,317,114,w,6.955502702924723,55.12562311817754,1602.407661936275,-135.24156737569584,-26.571029549264154
2025-02-19 14:09:02.426,774,-171,551,-35,6,-31,-13,12,25,92,119,w,17.241459398939977,53.299867455828135,1575.7742617361105,-348.13617410448956,-19.77211655891074
2025-02-19 14:09:02.534,893,-109,528,7,-15,3,-12,16,26,103,126,w,11.66424889290798,58.87923418124926,1749.0798202056565,-213.49350548982818,21.829624783217696
2025-02-19 14:09:02.645,759,-178,595,-32,7,-2,-14,14,26,632,122,w,16.655061809443726,50.70811761044114,1532.929938746975,-359.5013558589744,-11.703970427470608
2025-02-19 14:09:02.750,848,-138,452,7,-50,-15,-14,17,24,453,128,w,16.977940598664627,60.86873173273634,1721.50668307554,-280.15085172691573,-13.595543337434151
2025-02-19 14:09:02.854,982,-81,380,2,94,52,-12,16,27,633,0,w,12.0329604665903,68.4133325687263,1911.8621222754791,-157.69942149115457,20.175553498287172
2025-02-19 14:09:02.965,734,-119,583,5,-24,3,-12,17,23,533,53,w,11.536546109150699,50.96986258249864,1510.8148332239875,-244.94136941914786,-34.00687707027896
2025-02-19 14:09:03.685,820,-144,550,-1,-2,-1,-12,18,24,520,79,x,14.671750795901831,55.26489773066564,1641.795117561147,-288.3152401570795,-1.2040422666228778
2025-02-19 14:09:03.776,843,-127,536,0,-13,-2,-12,16,25,552,92,x,13.329858376329721,56.83825282075426,1680.1297007770177,-253.11562514671562,3.732479695751408
2025-02-19 14:09:03.886,841,-132,513,-3,-2,-4,-13,13,24,562,96,x,14.429752249755778,57.79491062386261,1687.1458293238288,-264.8076688118257,-3.138894700504352
2025-02-19 14:09:03.996,742,-133,550,2,-30,-16,-14,16,25,628,122,x,13.594193074433667,52.67069771507899,1537.1634614337615,-275.52929969095726,-39.40687842125169
2025-02-19 14:09:04.099,800,-68,621,0,39,8,-13,15,26,338,122,x,6.249037144433687,52.01408142996014,1588.1620392751286,-134.99377333838592,9.189217012681524
2025-02-19 14:09:04.209,925,-146,645,0,30,-54,-12,17,23,468,106,x,12.754343481829794,54.437583770830045,1738.482435788947,-274.3983087839851,77.7608961255454
2025-02-19 14:09:04.321,1045,-294,558,-46,7,56,-13,15,25,415,116,x,27.78392641220929,58.88675280933522,1901.1476355449904,-534.8683300002174,100.8417410199956
2025-02-19 14:09:04.426,934,-195,437,9,-5,-40,-12,15,25,277,121,x,24.047587672153913,62.8717511648845,1823.988096755592,-380.81121934404746,20.592293059749977
2025-02-19 14:09:04.527,651,-99,737,-14,28,-3,-12,18,21,142,42,x,7.650650955359412,41.200449948207606,1309.6953688711012,-199.17026346887712,-8.711961379418653
2025-02-19 14:09:05.746,783,-146,596,-1,-1,-1,-11,16,23,218,62,y,13.764486867795462,51.914883921638136,1570.0952849382406,-292.7636163486374,-3.1172283821089195
2025-02-19 14:09:05.846,780,-139,592,-1,-3,-1,-12,17,21,282,63,y,13.213544503096973,52.059495688869724,1568.649628854389,-279.54140821892315,-6.564846515125964
2025-02-19 14:09:05.954,797,-142,584,-2,-4,-1,-11,16,22,353,65,y,13.666300072913543,52.980140630939836,1595.4268661434999,-284.2542220732459,-1.0455330336310453
2025-02-19 14:09:06.057,774,-156,574,-3,-2,-5,-11,17,24,401,66,y,15.204429439213857,52.457629985256055,1566.902946606929,-315.80989621535,-14.018464279557065
2025-02-19 14:09:06.168,788,-154,578,-5,-6,2,-12,18,22,496,67,y,14.919076928594768,52.798186949284414,1584.51078586968,-309.66327541107955,-6.2426830363896215
2025-02-19 14:09:06.274,775,-143,592,-1,-1,-2,-11,14,24,563,68,y,13.579894858328814,51.83830772547195,1561.2701828389522,-288.07953051092926,-8.60896547181892
2025-02-19 14:09:06.385,759,-143,605,-3,-8,-6,-11,14,24,573,74,y,13.29857033049428,50.68029499890531,1532.62233342283,-288.75493238401145,-11.65548316312561
2025-02-19 14:09:06.495,813,-127,531,-5,-16,-22,-12,17,24,539,102,y,13.450833840343314,56.11637163386552,1643.1716206915276,-256.68240569228044,-11.215412776384824
2025-02-19 14:09:06.601,791,-253,601,-18,6,-13,-15,14,24,504,122,y,22.829392050460324,50.49865434537156,1562.6096441757632,-499.7980277831455,14.732748230551579
2025-02-19 14:09:06.707,970,-48,433,18,-14,39,-12,15,26,501,123,y,6.325668101224002,65.81390388907225,1882.2195647812155,-93.14076196855498,25.79270974199352
2025-02-19 14:09:06.819,715,-154,542,-11,-27,-13,-12,16,25,667,118,y,15.861589359745187,51.760227250064915,1500.427426135954,-323.1689840908208,-53.386944007953616
2025-02-19 14:09:06.917,868,-63,482,33,11,-2,-13,15,25,0,129,y,7.446652967578976,60.75017951889059,1740.4975380144924,-126.3264342107293,-2.4974807868495077
2025-02-19 14:09:07.023,658,14,636,-3,103,16,-10,17,22,42,56,y,-1.2610241992825593,45.96708791066505,1376.9406530188376,29.296609638698673,-58.90312358659662
2025-02-19 14:09:07.131,758,-137,657,0,-55,-2,-11,17,20,357,55,y,11.778736104975993,48.478377751578684,1506.7056082897136,-272.3201429230749,8.055956930947332
2025-02-19 14:09:07.856,725,-122,570,-4,-8,-5,-12,14,22,455,77,z,12.081026959970083,51.20024116430996,1504.3406023697203,-253.14421170911154,-42.72295634584907
2025-02-19 14:09:07.950,800,-138,569,-3,-8,-2,-13,15,23,509,89,z,13.632758732867728,53.8007449309754,1606.9679908341345,-277.20197841888825,-4.9559834807784
2025-02-19 14:09:08.057,825,-108,551,-1,-2,-9,-12,16,25,536,96,z,11.08979608791415,55.76128862288846,1651.7006189570734,-216.22262648165326,-1.1358073276940104
2025-02-19 14:09:08.166,672,-126,616,11,-33,-14,-13,13,24,229,119,z,11.560130794217766,46.90418923918865,1402.2122329258507,-262.91479367359705,-53.36121351536315
2025-02-19 14:09:08.266,702,0,698,-12,-9,16,-14,13,26,660,118,z,0.0,45.16370178173419,1411.1241918971023,0.0,-7.083598211078538
2025-02-19 14:09:08.374,979,-327,230,-5,2,-2,-12,14,25,0,120,z,54.87882969750359,67.7867718622607,1904.783326310455,-636.2248699729508,12.502385034315893
2025-02-19 14:09:08.486,786,-103,574,8,2,4,-12,18,24,537,125,z,10.173031257658808,53.426650189741345,1589.0947125336709,-208.24014680784745,-12.483924929169234
2025-02-19 14:09:08.596,585,-139,553,-12,-89,3,-11,16,25,451,117,z,14.109355864882675,45.73392609706364,1301.1061553383345,-309.15171896073247,-123.9345365847845
2025-02-19 14:09:08.696,781,-121,551,4,-4,12,-14,15,27,586,122,z,12.385596099362653,54.158786040979415,1591.642837860031,-246.59255234451186,-20.913192907653183
2025-02-19 14:09:08.807,545,-158,770,18,58,10,-12,18,23,323,54,z,11.595837184396975,34.73535226781952,1114.78668898353,-323.18586579706005,-35.019725719849475
2025-02-19 14:09:09.926,808,-135,554,0,-1,-1,-12,17,25,439,72,0,13.69505612985097,54.78910818171391,1625.0353048884135,-271.50961158407904,-6.1949986487391016
2025-02-19 14:09:10.022,817,-132,554,1,-2,-1,-11,17,23,440,73,0,13.4018186873785,55.1206919821427,1637.3584489867808,-264.54261354498783,-2.2773326054792733
2025-02-19 14:09:10.126,822,-129,554,-1,-2,-2,-11,15,27,472,74,0,13.107864330920735,55.316920779243794,1644.3121266893604,-258.04898338555654,-0.2103627565760462
2025-02-19 14:09:10.235,823,-116,557,-5,1,-6,-13,16,23,501,73,0,11.764181118756026,55.34338183812531,1645.574838684205,-231.9400744682476,0.28774587229406734
2025-02-19 14:09:10.346,796,-133,573,-10,3,-12,-14,15,23,575,66,0,13.067623607034273,53.53611350237585,1600.231617432783,-267.375383314774,-5.925523604252021
2025-02-19 14:09:10.447,801,-102,569,-1,-4,0,-13,14,25,615,66,0,10.163003578558815,54.18256334650897,1611.8857630112502,-205.25886120742513,-7.022470853185155
2025-02-19 14:09:10.558,813,-112,556,1,-5,0,-13,15,23,675,72,0,11.389179698054521,55.09944301866504,1633.1463139144892,-224.9844860497205,-4.887270032541096
2025-02-19 14:09:10.666,874,-121,516,-2,-20,-4,-14,15,23,662,92,0,13.19718906167283,58.76720629772212,1729.0676231269147,-239.37892722924101,11.177467352988742
2025-02-19 14:09:10.772,829,-94,549,-1,-7,3,-12,14,27,713,94,0,9.715991357158826,56.10360234904452,1659.0473504803128,-188.1187586793117,-0.6936012227886295
2025-02-19 14:09:10.876,821,-127,536,-1,-3,-1,-13,16,24,755,99,0,13.329858376329721,56.140830144225916,1651.4095348810315,-255.4555553348246,-6.143131176897441
2025-02-19 14:09:10.983,816,-97,504,-3,1,0,-12,16,24,714,99,0,10.893959725068537,57.830839076939505,1662.479860695165,-197.62321873459678,-18.825796311719387
2025-02-19 14:09:11.096,887,-96,472,-8,-5,-14,-13,15,27,706,124,0,11.49656301758578,61.496903165460544,1765.791320966813,-191.11157476078247,4.368090759486222
2025-02-19 14:09:11.207,840,-209,570,0,74,37,-14,16,26,419,118,0,20.136303428248134,54.14253591232775,1650.4767351631767,-410.6543305346475,20.03364399641589
2025-02-19 14:09:11.313,821,-67,581,-5,-47,-12,-11,17,26,508,128,0,6.578201545526769,54.53531677576671,1635.4733055038068,-133.46737085110243,4.61876918670896
2025-02-19 14:09:11.423,1036,-266,358,-2,30,-19,-13,14,27,625,121,0,36.61296762134051,66.70781956175313,1954.500355692005,-501.8311724074067,40.60315894040747
2025-02-19 14:09:11.523,544,-21,708,6,37,25,-11,18,22,477,47,0,1.698952971445941,37.52512075845599,1153.1092082820014,-44.51340693735668,-84.73771960231068
2025-02-19 14:09:12.336,822,-126,529,0,-3,-2,-13,14,25,565,96,1,13.39737855955862,56.513149469092724,1656.0124704881764,-253.8413275930781,-7.730653148716783
2025-02-19 14:09:12.443,846,-117,500,1,-7,-8,-14,15,25,516,114,1,13.170241897951412,58.74301275606614,1700.8485997033047,-235.22374251215916,-5.229668855381021
2025-02-19 14:09:12.549,875,-105,424,1,6,-5,-13,16,27,484,123,1,13.908990418944743,63.47122424247374,1769.7101540515282,-212.36521848618335,-9.550977506111792
2025-02-19 14:09:12.660,797,-115,574,-13,-6,-14,-14,13,26,728,122,1,11.329127039303174,53.70224169367343,1602.951444109058,-231.29161364183398,-6.446836786197309
2025-02-19 14:09:12.756,984,-31,309,14,0,42,-14,18,24,287,124,1,5.728951284744876,72.48426549333246,1937.6343352765384,-61.04335812354948,9.535559349135838
2025-02-19 14:09:12.871,494,-61,591,16,58,-20,-10,15,24,351,103,1,5.8929103601636035,39.74197374734905,1133.3312928560565,-139.94576693161832,-173.86800420633494
2025-02-19 14:09:12.980,838,-42,494,-33,-76,35,-13,17,24,122,125,1,4.859614430972414,59.39035661328444,1698.6563386379594,-85.13552055226049,-13.355884590873302
2025-02-19 14:09:13.087,962,-121,499,19,1,-21,-12,21,25,505,123,1,13.630281110505264,61.9092401053378,1844.2028147553133,-231.96313990165586,41.3916792485432
2025-02-19 14:09:13.190,655,-125,656,0,-9,-14,-10,17,24,357,55,1,10.788311301256869,44.44546431476835,1355.2300556734049,-258.63169001400854,-45.29910919351687
2025-02-19 14:09:14.011,846,-131,527,2,1,-2,-11,16,24,546,90,2,13.95947382269339,57.30405730639575,1687.5490360651813,-261.31078454437204,2.772645382564633
2025-02-19 14:09:14.106,842,-132,543,3,0,-2,-13,15,25,533,95,2,13.663229340128519,56.428784952099846,1675.1991551765086,-262.62029511080664,5.675604203272769
2025-02-19 14:09:14.216,792,-84,522,9,-14,-7,-12,15,24,504,105,2,9.141640223524895,56.274116293153895,1623.7033829973839,-172.21096486335887,-26.168138793730236
2025-02-19 14:09:14.326,949,-173,433,-42,-14,-19,-13,16,26,553,115,2,21.778591574570044,63.83329794802002,1846.5148031609333,-336.6143950967771,23.491138283789212
2025-02-19 14:09:14.429,705,-146,645,5,34,36,-12,15,25,614,117,2,12.754343481829794,46.83117271846524,1434.3409587112828,-297.0408226551025,-22.269387757131085
2025-02-19 14:09:14.536,815,-159,476,7,6,-7,-13,16,24,247,115,2,18.47105201884512,58.376433037337726,1666.511335643758,-325.12307038939576,-21.324411983348227
2025-02-19 14:09:14.646,766,-136,555,11,-9,12,-13,19,27,425,126,2,13.768735405494414,53.2778225597615,1567.544261809167,-278.31073055619675,-25.753348960950007
2025-02-19 14:09:14.752,617,-201,697,15,63,6,-11,16,20,291,53,2,16.086438057550694,40.38320180057535,1264.896602449032,-412.06518167302335,-34.90264490595655
2025-02-19 14:09:15.671,817,-137,541,-2,-11,-6,-13,18,25,556,86,3,14.21054560583816,55.663765174787315,1642.7417458645373,-275.46587415353935,-5.788597934779432
2025-02-19 14:09:15.769,864,-108,519,1,-2,-8,-13,14,25,576,101,3,11.75506275969946,58.46828687167767,1716.3508315865795,-214.5438539483224,6.997590748339462
2025-02-19 14:09:15.872,870,-84,436,-3,-3,-15,-12,15,24,373,119,3,10.905022045234448,62.961800156954006,1760.7036447979094,-169.99897260117746,-10.375619691825875
2025-02-19 14:09:15.981,767,-17,599,-14,-7,11,-14,16,25,723,116,3,1.6256541974990986,52.00022677013446,1555.0131903181707,-34.46574215829062,-16.410561930357517
2025-02-19 14:09:16.088,979,-224,276,2,8,-6,-14,14,26,516,117,3,39.06258390051848,70.04479720345475,1918.959744963466,-439.06739823474607,11.006241460759327
2025-02-19 14:09:16.195,742,-53,703,4,11,42,-14,18,24,505,119,3,4.311440310072132,46.46494369437507,1466.9530669230976,-104.78236192307838,16.150935246715107
2025-02-19 14:09:16.304,1421,-314,551,18,61,10,-10,18,23,448,95,3,29.677645912768572,65.94886943872379,2334.1821235151674,-515.7869013256598,196.9089725145269
2025-02-19 14:09:16.411,538,-78,721,-2,-40,-9,-10,16,21,433,42,3,6.174420956633092,36.57014125085723,1133.8064189560325,-164.3808562798709,-77.46919715111426
2025-02-19 14:09:17.226,843,-109,520,-4,-11,-3,-12,17,25,555,95,4,11.83867142807426,57.77879585114991,1688.9959001531552,-218.38737024518846,-1.8480048394311552
2025-02-19 14:09:17.329,804,-102,514,-5,-12,-9,-13,16,27,576,110,4,11.22416041307309,56.90490662074441,1641.765479911397,-208.2836802872668,-21.586388898579685
2025-02-19 14:09:17.435,825,-93,529,-10,-3,-9,-13,15,25,599,120,4,9.970903158959329,56.93403613023757,1663.0429765860717,-187.47029917879354,-8.363314683674957
2025-02-19 14:09:17.538,997,-44,269,4,16,15,-13,14,26,0,119,4,9.28953690698514,74.70928092955573,1961.6001486931561,-86.5701168931784,8.741785357613935
2025-02-19 14:09:17.646,748,-122,592,-11,-19,13,-12,15,26,535,121,4,11.644556843058057,51.059182698614585,1525.7955925219612,-248.85970894074762,-23.58153846657865
2025-02-19 14:09:17.755,767,-74,454,-2,43,-66,-12,17,25,572,97,4,9.25754902874732,59.047707940061784,1624.5958554350498,-156.74066923362932,-53.62518691983382
2025-02-19 14:09:17.866,787,-166,633,-5,36,62,-14,15,28,568,117,4,14.694542581289598,50.25588259438679,1555.9074796330267,-328.1837885884148,14.552179659839908
2025-02-19 14:09:17.976,1307,-274,450,45,-12,-20,-12,19,25,474,109,4,31.336770659871487,68.04551874173369,2234.481168863037,-468.43752124596193,130.6683045230552
2025-02-19 14:09:18.079,515,-48,705,-9,-9,-5,-11,18,22,400,42,4,3.8949781687068716,36.08490916100423,1103.9835246429825,-102.89555181138479,-101.27841722971391
2025-02-19 14:09:18.792,837,-106,525,0,-2,-4,-13,15,25,542,89,5,11.414831257425227,57.384930455839,1679.3106640621054,-212.67255721694525,-3.331061687700526
2025-02-19 14:09:18.889,845,-95,526,5,-3,-7,-12,14,24,517,92,5,10.237732969241256,57.68434381109277,1690.1157887951408,-190.01301767519334,-0.07207681212321404
2025-02-19 14:09:18.995,835,-76,527,7,-3,-8,-13,16,24,488,97,5,8.206192322057793,57.47568984144761,1678.1633978132525,-152.74301584887087,-5.1522283204598125
2025-02-19 14:09:19.106,817,-238,387,-21,-8,-15,-13,13,25,244,110,5,31.59097859003415,60.92192444078802,1690.9582570826433,-492.59249104733055,-26.98022703914677
2025-02-19 14:09:19.217,876,-75,588,-11,-13,-1,-12,16,27,763,118,5,7.268884921647515,55.914924565065846,1704.2063433433586,-145.90807734104098,32.08067364623878
2025-02-19 14:09:19.323,842,-225,589,-5,-21,-10,-13,14,25,474,108,5,20.907026670015707,53.17313286549137,1642.4503888037411,-438.8970753929236,29.064989304746632
2025-02-19 14:09:19.430,909,-43,398,6,-6,19,-13,15,26,421,113,5,6.166329224481413,66.2317019606659,1824.1828108457262,-86.2924762006229,-2.70710529878869
2025-02-19 14:09:19.536,787,-2,669,-11,9,21,-13,16,26,551,117,5,0.17128732084778162,49.633223858627964,1548.9140019994366,-3.936249052095138,21.324692074176255
2025-02-19 14:09:19.647,1045,-286,453,22,32,-13,-11,17,23,298,114,5,32.266125952755885,62.85765364362269,1934.875875851164,-529.5449765487394,67.24519448748606
2025-02-19 14:09:19.749,536,-61,721,-4,-11,11,-11,18,21,433,50,5,4.835976505347902,36.529770287517174,1131.2403820529905,-128.74190915155302,-79.68715570933978
2025-02-19 14:09:20.668,811,-121,551,-2,-3,-2,-13,17,26,581,79,6,12.385596099362653,55.1776292665546,1631.9263154573741,-243.48099157872045,-6.744019503098798
2025-02-19 14:09:20.766,828,-136,547,-1,-5,-2,-12,15,27,601,82,6,13.962281659379306,55.755289536705206,1654.641703660665,-271.7768981858096,0.8973286203097359
2025-02-19 14:09:20.876,823,-83,506,-9,-42,-15,-12,15,26,658,118,6,9.315363172778376,58.07543236265868,1671.7450225462562,-168.59639960065522,-15.828652987127157
2025-02-19 14:09:20.982,775,-89,578,-9,-1,-25,-13,14,27,493,122,6,8.753611011799917,52.961940040009935,1573.2355652376705,-180.66834233051955,-17.329234461127044
2025-02-19 14:09:21.089,934,11,343,18,-35,56,-13,16,25,509,115,6,-1.8368444300609648,69.8253307943073,1872.6455893604962,22.054712508528336,-1.7060354932017958
2025-02-19 14:09:21.196,680,-235,627,-8,-6,-47,-12,18,24,591,122,6,20.546030225888384,45.44183633842849,1392.5385555485846,-481.2449419910551,-30.002462248474558
2025-02-19 14:09:21.302,1042,-70,410,-5,90,23,-11,15,25,500,61,6,9.688786560366802,68.23971471183289,1970.7430183472948,-132.391565531968,44.56368759847311
2025-02-19 14:09:21.412,632,-141,649,10,-44,7,-11,19,21,450,40,6,12.25744315225263,43.57954263966449,1321.3609354558357,-294.797297308976,-58.90387201081853
2025-02-19 14:09:22.226,854,-115,519,0,-3,-1,-12,15,25,532,92,7,12.493735822379211,58.09903274546161,1702.9627665303578,-229.32168401755405,3.0612695207778415
2025-02-19 14:09:22.322,820,-96,534,6,-4,-8,-13,16,25,442,94,7,10.191501850027691,56.5090169997155,1653.9726735594297,-193.6358251972015,-9.099277659433369
2025-02-19 14:09:22.429,805,-209,416,2,6,-10,-14,14,25,115,110,7,26.675129388447786,59.95820706549424,1670.6604612725296,-433.7491135477748,-31.347517874996754
2025-02-19 14:09:22.542,783,-172,658,-20,-1,-1,-13,14,26,673,113,7,14.649227706229574,49.02262716645361,1537.968611247266,-337.8424024706637,23.556390548274862
2025-02-19 14:09:22.645,913,-86,406,30,2,22,-12,18,24,430,115,7,11.959762221930779,65.55560658952176,1823.3633095514424,-171.7516370442761,1.172504186324602
2025-02-19 14:09:22.754,1079,-346,686,8,-47,-30,-13,15,25,101,116,7,26.76515203819866,54.546679976593396,1893.5883580099116,-607.2118367668484,168.1060114969422
2025-02-19 14:09:22.860,725,-155,640,8,-6,11,-12,16,27,643,120,7,13.614182744829353,47.751799042875966,1465.239238916297,-313.25804418210487,-13.452569526110437
2025-02-19 14:09:22.969,611,-162,680,10,20,1,-12,17,23,424,52,7,13.400091627730898,41.15564779575874,1269.1068244698918,-336.4898618070745,-52.42658042475705
2025-02-19 14:09:23.788,838,-164,515,-2,-5,1,-12,19,27,556,101,8,17.663899451155267,57.179326633449705,1678.3710905403118,-328.4640320389153,-1.457173780740277
2025-02-19 14:09:23.887,887,-131,518,-4,-6,-9,-13,15,27,552,119,8,14.19229150563332,58.93622788396276,1743.5935152950378,-257.509301582469,17.757112826573064
2025-02-19 14:09:23.992,839,-265,462,-6,39,-2,-12,17,27,93,118,8,29.838283742520147,57.5921982758449,1683.2549564046667,-531.6597895676242,-2.8936708688391377
2025-02-19 14:09:24.100,789,-53,522,6,-28,-47,-13,16,26,527,124,8,5.797520102115339,56.3761585923067,1621.6908962616824,-108.93487642822456,-28.90576406666446
2025-02-19 14:09:24.206,913,-176,521,-35,2,-25,-14,16,26,721,0,8,18.66558038728296,58.938309834122826,1769.6122642647201,-341.1300750389822,32.17744832210383
2025-02-19 14:09:24.306,869,-3,497,33,11,56,-13,17,28,526,0,8,0.3458455753732066,60.23337196385855,1737.0547689636267,-5.996736831865224,0.5405981876612032
2025-02-19 14:09:24.422,698,-107,447,-9,113,10,-13,15,23,533,66,8,13.4617931598108,56.63537609485624,1533.1875870673773,-235.03018884843752,-87.85508799300533
2025-02-19 14:09:24.530,804,-141,567,3,-46,3,-12,16,22,501,60,8,13.964891350997318,53.99400310434023,1612.955469062802,-282.86905614161077,-3.4947151226475626
2025-02-19 14:09:26.047,824,-146,556,-1,0,-2,-11,15,25,491,73,9,14.713124139398216,55.09910276250536,1644.1429161127535,-291.3165846510461,2.6025954384820125
2025-02-19 14:09:26.143,819,-147,548,-1,-3,-1,-13,15,24,502,74,9,15.015981732272518,55.28717379165259,1641.0165817645395,-294.5414377526096,-2.018421009728513
2025-02-19 14:09:26.250,820,-147,545,-3,-3,-3,-13,16,24,522,76,9,15.094876107925282,55.457009332806,1643.700965823355,-294.66346582443066,-2.4597882606442454
2025-02-19 14:09:26.356,823,-135,543,-6,0,-3,-13,15,26,583,77,9,13.961736644497197,55.789527171883606,1649.9778198613708,-270.6524977901398,-2.6244911114513343
2025-02-19 14:09:26.463,831,-140,545,-4,0,-2,-13,14,25,640,76,9,14.40668515643687,55.896921786135096,1659.0302131159688,-279.4996748931837,1.9476941658207352
2025-02-19 14:09:26.573,817,-144,548,-1,-3,1,-13,18,26,674,78,9,14.722975061750224,55.25800907685925,1638.726606775871,-288.8330861391988,-3.1703555852842555
2025-02-19 14:09:26.676,841,-120,514,-3,-9,-2,-13,16,26,685,90,9,13.141069757715407,57.88711278913456,1688.00237552201,-240.85646261907397,-3.66851488503346
2025-02-19 14:09:26.786,722,-105,566,-8,-40,-24,-13,16,26,729,119,9,10.509600558103143,51.434333204635514,1503.8941778731432,-218.71037212836566,-46.95305356814265
2025-02-19 14:09:26.897,784,-284,488,-15,-1,-35,-14,15,28,488,123,9,30.198001916566202,54.23919369552025,1595.4637747762504,-577.9486122913968,-17.094798585217006
2025-02-19 14:09:26.999,911,-63,475,3,-16,-17,-14,18,27,702,0,9,7.555134493655688,62.25692640157887,1796.043918443217,-124.20501302077133,13.533631986247997
2025-02-19 14:09:27.110,880,-236,647,-18,13,17,-14,15,28,755,0,9,20.03996870843014,51.95286076790212,1667.503960839511,-447.19424404332347,68.00561061004123
2025-02-19 14:09:27.216,808,-175,367,62,18,14,-12,17,27,278,0,9,25.49363784720227,63.288309858700394,1701.2796945241066,-368.47023086846366,-38.734712735578114
2025-02-19 14:09:27.323,487,-103,752,0,68,35,-11,18,20,111,39,9,7.799163391467988,32.68487646369803,1027.0181802585453,-217.21329069123234,-81.86790873598761
2025-02-19 14:09:27.429,898,-230,584,4,-14,6,-10,18,22,43,42,9,21.49628691776285,55.04828836486061,1717.6351583451594,-439.92882674764667,50.96332686684502
