Timestamp,Acc_X,Acc_Y,Acc_Z,Gyro_X,Gyro_Y,Gyro_Z,Mag_X,Mag_Y,Mag_Z,Force,IR_A,Letter,Roll,Pitch,Lin_Acc_X,Lin_Acc_Y,Lin_Acc_Z
2025-02-19 15:40:35.088,600,-98,805,-25,0,-24,-6,-2,6,0,15,noise,6.940983428742579,36.49696565405281,1194.7802141985317,-195.14743498576013,7.003212616970245
2025-02-19 15:40:35.188,599,-138,795,-18,-10,2,-4,-2,6,0,16,noise,9.84755697411625,36.58863641241732,1195.0656388301654,-275.32397021462907,3.8945194157239484
2025-02-19 15:40:35.302,613,-137,774,-21,-13,7,-6,-1,5,405,17,noise,10.037537648077942,37.94950314059431,1227.966733699961,-274.4395473358804,-2.4832820289884694
2025-02-19 15:40:35.408,642,-236,745,-17,21,-4,-3,0,6,611,16,noise,17.577083414313368,39.40349468690445,1276.777643973041,-469.3450529246693,8.381082928480396
2025-02-19 15:40:35.508,572,-195,802,9,-20,-3,-5,0,6,605,15,noise,13.66583806420076,34.722961730414305,1141.6089583422038,-389.18487216211497,3.352474492224701
2025-02-19 15:40:35.616,616,-118,784,24,-2,5,-3,0,7,557,16,noise,8.559352749655586,37.84589094649516,1229.539730156199,-235.52871454290823,3.131252528473965
2025-02-19 15:40:35.728,572,-136,802,2,-16,8,-1,0,6,571,16,noise,9.624435945422517,35.11405478484865,1147.2059287252337,-272.7622487878177,-4.495025939925199
2025-02-19 15:40:35.838,556,-190,758,-7,-10,-18,-4,-2,9,471,18,noise,14.071808813770197,35.43177172930805,1135.7330889699317,-388.1102282451206,-32.355542156849424
2025-02-19 15:40:35.938,649,-124,762,-2,0,-6,-6,-1,9,536,20,noise,9.242705730076212,40.05202667094984,1292.4829410654102,-246.94589320818315,6.477656252939028
2025-02-19 15:40:36.048,608,-122,747,1,-6,4,-6,-2,9,521,18,noise,9.275651128138803,38.77420806095096,1234.252925586709,-247.66259362101727,-22.4258806139336
2025-02-19 15:40:36.153,627,-149,753,-3,1,-2,-5,1,8,505,18,noise,11.19282322573224,39.24303284192598,1259.6111578572581,-299.33343304741857,-6.738758957759501
2025-02-19 15:40:36.265,631,-142,762,1,-3,-2,-6,-1,8,511,26,noise,10.556084140949446,39.147985747148496,1262.325532239442,-284.0732576513483,-0.3931150023056489
2025-02-19 15:40:36.368,585,-72,747,12,7,0,-4,-2,9,569,104,noise,5.505477857978346,37.93712662961444,1199.796383325763,-147.66724717855544,-38.04768947751245
2025-02-19 15:40:36.478,647,-134,732,2,-4,2,-6,-1,8,471,53,noise,10.373711555211843,41.00474201118078,1303.121489307016,-269.8891492536942,-10.319830251523513
2025-02-19 15:40:36.583,640,-137,741,1,-4,-3,-5,-2,9,483,41,noise,10.474863119646333,40.341376777741075,1287.3403801346137,-275.57130012256573,-8.498783874607511
2025-02-19 15:40:36.691,642,-138,739,-2,1,0,-4,-3,7,486,34,noise,10.57751914912006,40.49664457382942,1291.403515383652,-277.59140984882237,-8.5221150599981
2025-02-19 15:40:36.799,638,-144,743,1,-1,-1,-6,-1,11,489,33,noise,10.968448326532396,40.13071226562246,1282.533558142025,-289.47465889099,-7.608830250038295
2025-02-19 15:40:36.908,647,-138,739,-1,-1,-1,-6,-2,10,493,33,noise,10.57751914912006,40.71628550017598,1299.313866252737,-277.1334057849732,-6.069470109385406
2025-02-19 15:40:37.015,648,-146,741,1,-3,-2,-4,0,7,490,33,noise,11.146273200956818,40.629534944434965,1299.165521496963,-292.7132193496244,-3.6198324525456655
2025-02-19 15:40:37.121,651,-131,741,0,-2,-1,-6,-2,10,491,33,noise,10.025622843074023,40.86397282638962,1305.2654090937933,-262.65709461027177,-3.7168481390181114
2025-02-19 15:40:38.247,779,-170,649,-5,-21,-24,-7,-6,15,786,65,A,14.678360171901078,49.26408765684227,1536.7254594372826,-335.35728896577405,17.724232124780087
2025-02-19 15:40:38.340,764,-133,610,-8,-10,-14,-7,-6,17,795,75,A,12.299864707895328,50.74475386257834,1538.334708836101,-267.79910507225316,-8.251534541912974
2025-02-19 15:40:38.444,787,-118,581,3,-10,-9,-7,-9,18,793,87,A,11.480511531939573,53.0086069284329,1585.7259052312006,-237.75814080976073,-8.656608563313398
2025-02-19 15:40:38.550,794,-82,584,-2,1,-3,-9,-10,17,796,97,A,7.992702666670688,53.39756714070321,1596.7921579215267,-164.9080062337093,-6.466776103490588
2025-02-19 15:40:38.658,774,-155,597,6,-19,-27,-9,-9,18,808,116,A,14.55443733252458,51.44898822034011,1556.0536073305307,-311.61280250159206,-6.211890925486841
2025-02-19 15:40:38.767,723,-313,670,11,3,33,-10,-10,20,582,119,A,25.04029670346014,44.353384372281894,1422.081816762814,-615.6453784879127,22.164844770283025
2025-02-19 15:40:38.868,887,1,604,3,-8,1,-8,-8,17,442,121,A,-0.09486047543355106,55.747174406877186,1713.5619928886433,1.9318624497053474,41.155080377970194
2025-02-19 15:40:38.982,826,-177,599,19,-20,-14,-7,-8,19,681,116,A,16.46201417622644,52.904193053440615,1623.6280710111791,-347.920300930967,20.57480080424159
2025-02-19 15:40:39.086,822,-29,558,8,-8,41,-7,-7,19,594,122,A,2.9750610063346827,55.79416171217062,1649.023295176802,-58.177220876067224,-3.4099740981212108
2025-02-19 15:40:39.198,849,-276,482,-17,-4,-13,-7,-9,18,109,120,A,29.7960610774462,56.80672304258913,1685.8285583447578,-548.0432062463524,6.9100528596308095
2025-02-19 15:40:39.300,734,-72,628,42,-10,23,-8,-8,20,796,117,A,6.54038582819662,49.2652776176801,1491.7390123989721,-146.32862246965396,-20.310762651981577
2025-02-19 15:40:39.408,747,-145,576,3,69,25,-7,-6,15,687,54,A,14.12982571139436,51.51034086563278,1529.7204968873093,-296.9336975216329,-27.54351567214178
2025-02-19 15:40:40.228,761,-86,623,-6,-2,-6,-8,-8,17,746,77,B,7.859537383156612,50.42889511436395,1531.8346071835604,-173.11140107462046,-8.051196156843616
2025-02-19 15:40:40.328,750,-72,615,-4,-4,-10,-8,-8,16,728,84,B,6.677402178041245,50.45690637791793,1521.1459544736113,-146.03001162946669,-17.33968266836132
2025-02-19 15:40:40.434,808,-98,557,-4,-3,-8,-8,-7,17,689,106,B,9.97863647740989,55.01009864876031,1627.2531270907066,-197.36485947387283,-7.757415581093483
2025-02-19 15:40:40.541,819,116,532,-35,-25,43,-7,-7,17,152,111,B,-12.30053887899809,56.382653952485526,1651.7536656625077,233.94801613779111,-8.934005045731624
2025-02-19 15:40:40.649,747,-170,625,13,24,-66,-8,-9,16,700,107,B,15.216326712022974,49.072150770645685,1502.535136084475,-341.9424004476047,-7.1411781161936005
2025-02-19 15:40:40.750,705,8,633,4,-30,11,-8,-10,18,768,106,B,-0.7240787271407185,48.07793563006105,1449.0543114663596,16.443169491816846,-35.065786040008106
2025-02-19 15:40:40.865,889,116,500,-11,9,16,-7,-10,16,509,111,B,-13.061551083328114,59.99926230315897,1755.0189660932788,229.0013499064346,12.925215920540609
2025-02-19 15:40:40.971,679,-139,708,14,-15,10,-8,-9,17,638,109,B,11.10747473180202,43.26119340802007,1364.3252731315906,-279.2948644555097,-6.595424708639484
2025-02-19 15:40:41.073,863,34,413,3,26,24,-9,-7,19,169,113,B,-4.7062311092253,64.35051495471774,1764.4590075853985,69.51518685736215,-18.40506388501683
2025-02-19 15:40:41.181,554,-188,715,-29,17,-7,-6,-5,15,542,49,B,14.731728940698268,36.84621692783801,1153.6693035639828,-391.4978864079942,-58.941429689977895
2025-02-19 15:40:41.292,878,-45,593,11,-21,-18,-7,-7,15,632,69,B,4.33959185570902,55.888623620577775,1705.949000469066,-87.43474375980404,33.80437667635999
2025-02-19 15:40:42.012,802,-73,594,-5,-7,-3,-8,-9,17,710,96,C,7.006268789364252,53.26894380479809,1603.4515940116548,-145.95008274669675,0.406176006330611
2025-02-19 15:40:42.106,789,-48,588,-2,-9,-3,-7,-7,18,744,107,C,4.666858371438996,53.213573968767754,1589.873263425081,-96.72232781293268,-8.848515708425225
2025-02-19 15:40:42.215,810,-103,602,-3,-2,-11,-8,-8,17,726,110,C,9.709085816125663,52.98335019459484,1608.460592540253,-204.53264324894573,8.576201593540418
2025-02-19 15:40:42.323,709,-208,609,33,23,0,-6,-10,18,422,109,C,18.857268787690497,47.77078562227447,1449.4619983525913,-425.23003618806615,-27.02448095448233
2025-02-19 15:40:42.430,910,116,619,33,-34,32,-7,-8,18,488,109,C,-10.61406653451142,55.31440896850286,1732.2871796900795,220.81902510335078,59.663995353671226
2025-02-19 15:40:42.532,889,61,490,-53,83,40,-7,-7,18,773,66,C,-7.096231734637668,60.9506435905449,1763.2017522297888,120.98459717212275,8.156514519014081
2025-02-19 15:40:42.646,680,-149,646,6,-18,-13,-6,-5,14,680,43,C,12.988139032813175,45.7269183447402,1396.0207798067895,-305.8927885164876,-34.219740816449644
2025-02-19 15:40:43.458,789,-71,612,-3,-4,-5,-6,-8,17,697,78,D,6.61747691698757,52.01486841781932,1577.170492976644,-141.92535488129496,0.6434198964434472
2025-02-19 15:40:43.556,788,-62,598,0,-4,-4,-8,-9,17,702,87,D,5.919216371305521,52.658139818935716,1583.030534688794,-124.55316389683404,-5.335355004947587
2025-02-19 15:40:43.666,781,-49,597,0,-5,-12,-8,-9,16,679,100,D,4.692151083764961,52.51269399683772,1574.4881931556401,-98.78351019798512,-9.546032412185923
2025-02-19 15:40:43.768,777,-37,604,-2,-1,-5,-7,-9,16,675,104,D,3.505460341034212,52.08832950090914,1565.958945552784,-74.56947359775162,-9.296271703837192
2025-02-19 15:40:43.880,777,-33,637,-3,-19,53,-7,-9,19,435,107,D,2.9655760947026484,50.61677026153537,1549.9193236543779,-65.8266894216145,3.3454193464109494
2025-02-19 15:40:43.982,724,-2,520,62,28,-70,-7,-7,18,580,108,D,0.2203672961231626,54.31268049225743,1536.2126542079768,-4.243681365215405,-63.35715495600539
2025-02-19 15:40:44.096,698,-46,675,27,-32,-5,-8,-9,18,782,96,D,3.8985735138313293,45.89337431892998,1416.045817640857,-93.32107107661807,-19.385282102547876
2025-02-19 15:40:44.202,902,145,431,-52,6,45,-7,-9,17,188,109,D,-18.594324710927232,63.24534733211691,1794.942390505013,288.543954127746,4.3279708340790535
2025-02-19 15:40:44.308,681,-65,531,-36,55,32,-7,-5,15,280,57,D,6.978887851773348,51.8483857050793,1467.378852513285,-140.0581870974501,-82.16765151916923
2025-02-19 15:40:44.418,670,-135,666,29,-28,-18,-7,-5,14,557,48,D,11.458752345877201,44.59478041885062,1372.088185308744,-276.46552987564246,-31.89661405316963
2025-02-19 15:40:45.132,783,-65,607,-1,-2,-3,-7,-9,16,629,85,E,6.1121706723613505,52.05804078694377,1571.634016000165,-130.46770247766375,-4.367621599106087
2025-02-19 15:40:45.231,779,-52,607,2,-3,-3,-8,-9,17,633,90,E,4.896415206020307,51.97252616099089,1566.7154478379464,-104.58177572217357,-6.791112756910707
2025-02-19 15:40:45.337,775,-37,600,0,-2,-4,-8,-9,16,633,93,E,3.528771219366493,52.200547909538514,1565.1608734627325,-74.72380944273692,-11.73745042276073
2025-02-19 15:40:45.442,780,9,590,-4,3,-13,-6,-10,16,587,101,E,-0.8739356346346694,52.89255814847583,1577.505574541994,18.20198739856147,-13.241396127918733
2025-02-19 15:40:45.550,755,-177,680,-12,-18,64,-5,-9,18,592,102,E,14.589999724129967,47.056488366101156,1487.0257336909076,-348.6139799513784,20.69205442408304
2025-02-19 15:40:45.661,704,17,509,43,9,-47,-7,-6,17,662,106,E,-1.9129004397623444,54.117477274069174,1514.2204674216655,36.56498287807999,-76.79860499663027
2025-02-19 15:40:45.764,953,-69,481,59,-4,-37,-6,-9,15,508,100,E,8.163452629500755,62.98348264286285,1843.8756097559872,-133.50201161926876,31.35554219031485
2025-02-19 15:40:45.868,705,-66,700,10,0,42,-7,-11,18,799,99,E,5.386250270288207,45.07712605963317,1413.0579793022603,-132.28627891340307,-3.0362915057902455
2025-02-19 15:40:45.981,831,-49,398,28,13,-8,-7,-9,15,321,99,E,7.018683443736137,64.24003498202138,1731.622665949931,-102.10530761918963,-33.34515168239744
2025-02-19 15:40:46.083,724,-63,736,1,-5,48,-9,-9,17,796,98,E,4.892468409016351,44.4245351357419,1423.9692270606358,-123.90892445417133,24.429073043331755
2025-02-19 15:40:46.198,814,-117,536,39,7,-4,-8,-8,16,130,100,E,12.313581396303677,56.02075598852091,1643.2400915631401,-236.19052913131128,-10.035244567374889
2025-02-19 15:40:46.301,744,15,683,-11,-2,23,-6,-8,19,702,101,E,-1.258123801332704,47.44085171013465,1480.5795104081762,29.850393355003554,6.812089235504914
2025-02-19 15:40:46.408,630,-119,657,-2,18,-12,-7,-5,15,678,47,E,10.266470198876522,43.33637179275234,1316.2802103433917,-248.6307063981962,-58.69221935810833
2025-02-19 15:40:46.514,778,-25,616,-5,-3,-11,-6,-9,15,704,53,E,2.324040315384152,51.60579477835063,1561.7562749379522,-50.18497027435579,-4.557667560126788
2025-02-19 15:40:47.234,790,-8,618,0,-2,-2,-6,-9,17,610,91,F,0.7416515137060664,51.96236325148885,1577.6061647234078,-15.975758630110455,1.872645823967332
2025-02-19 15:40:47.332,783,-11,598,-3,-2,-9,-8,-10,17,509,99,F,1.0538168966883692,52.62529407314363,1577.6826782030835,-22.164124470285977,-8.92240302100106
2025-02-19 15:40:47.443,777,-202,642,4,-11,35,-8,-10,16,568,99,F,17.465751772547808,49.10124446886574,1532.867690011641,-398.50614334922966,17.460673117794727
2025-02-19 15:40:47.545,801,6,631,3,0,26,-8,-7,18,388,103,F,-0.5447928950334333,51.768928163981016,1586.5214111470366,11.884055514210011,12.193495088913892
2025-02-19 15:40:47.659,558,-241,642,-17,-7,-56,-9,-10,15,502,76,F,20.575603429956445,39.13575242010009,1189.1599355920798,-513.5977499600201,-84.17325922959742
2025-02-19 15:40:47.762,753,62,632,7,-41,31,-7,-11,17,750,97,F,-5.602860679980772,49.85777707006189,1517.4465197833397,124.9424757324928,-9.607171982829755
2025-02-19 15:40:47.868,844,9,702,-1,65,18,-6,-10,17,721,90,F,-0.7345210342548154,50.24557411735276,1612.7924355309751,17.198023601633622,62.554159072577704
2025-02-19 15:40:47.979,1042,176,677,11,-45,10,-7,-10,15,535,96,F,-14.572630726250082,56.12620467061959,1872.2672873428967,316.2370850022552,137.56530371291637
2025-02-19 15:40:48.080,1034,19,652,-4,59,22,-7,-6,17,789,87,F,-1.6691898991511602,57.75509843434789,1879.7753017583593,34.54132566093697,118.6871404773209
2025-02-19 15:40:48.188,671,-79,664,7,-7,-8,-7,-8,14,682,49,F,6.784922968921867,45.09909227452025,1379.3286546546965,-162.39487886396574,-36.93923500852202
2025-02-19 15:40:48.909,784,-16,607,-1,-3,-1,-8,-9,16,764,88,G,1.5099180297860257,52.24208839436775,1574.6050290599924,-32.13479651142841,-5.113842652315384
2025-02-19 15:40:49.004,951,-52,706,2,-6,-8,-7,-11,17,798,97,G,4.21247920845649,53.33646727442274,1753.1558546912775,-95.8613085635609,110.49838757934629
2025-02-19 15:40:49.114,777,-21,639,-11,-7,-11,-7,-10,17,759,99,G,1.882282443010753,50.551160325330166,1549.192240203066,-41.87006054602881,3.9538719565517795
2025-02-19 15:40:49.219,822,-35,634,29,9,37,-7,-9,18,455,100,G,3.1598088820967734,52.31520795555112,1613.3858220414256,-68.69647660760327,23.61239516512933
2025-02-19 15:40:49.327,769,4,625,-3,-25,10,-8,-7,18,627,101,G,-0.3666879824251568,50.897152915772516,1545.0150672007849,8.03648929623295,-5.701452536398392
2025-02-19 15:40:49.437,719,-142,543,9,17,-13,-6,-9,17,700,100,G,14.655231696536907,52.02396643218305,1507.268211639225,-297.6802309496105,-52.31243243407391
2025-02-19 15:40:49.539,742,-6,538,3,7,-31,-8,-6,18,591,104,G,0.6389598989916327,54.05366429921234,1551.567170103489,-12.546365256901527,-48.99075136883698
2025-02-19 15:40:49.648,1105,91,593,12,-39,-4,-8,-9,16,625,100,G,-8.724379556908536,61.50097649750276,1983.8252447971572,163.37384368917765,121.3770405749193
2025-02-19 15:40:49.757,1033,-44,562,3,47,32,-6,-7,18,773,95,G,4.476658748410617,61.378203149106625,1910.8008046808054,-81.38938567856287,84.43557383290141
2025-02-19 15:40:49.863,644,-131,669,10,-9,-9,-7,-6,14,637,50,G,11.07916821168978,43.37085393069328,1330.7178171111075,-270.68949385334633,-44.37611746479956
2025-02-19 15:40:50.580,774,-14,618,3,-1,-3,-7,-10,16,603,85,H,1.2977406767389963,51.38723083629022,1555.3814127406463,-28.1335139255414,-5.893686141756234
2025-02-19 15:40:50.678,768,-17,617,0,-5,-4,-6,-10,16,605,94,H,1.578252651745488,51.21149751465082,1547.4636895043811,-34.25375354371677,-9.20976096901461
2025-02-19 15:40:50.784,775,3,622,-6,2,-5,-7,-11,16,543,98,H,-0.2763440606082768,51.249821277962305,1554.8825306535095,6.018900118658747,-3.9186246019133932
2025-02-19 15:40:50.888,770,-112,571,7,0,-26,-7,-10,16,329,98,H,11.097512289652459,52.9220577493774,1567.8160929381684,-228.04597715464274,-20.62725852947301
2025-02-19 15:40:50.998,810,56,562,2,-5,33,-8,-6,16,0,104,H,-5.69040435062796,55.11335709940008,1630.2852353004519,112.71107799608063,-7.136175603523498
2025-02-19 15:40:51.108,533,-160,548,-49,29,-34,-8,-8,14,220,74,H,16.27626294205996,43.03464681801375,1215.4404856956999,-364.8601833232871,-153.64612788225838
2025-02-19 15:40:51.213,833,134,549,-6,-47,40,-6,-10,15,611,98,H,-13.716570761969168,55.84657906979486,1660.5372511670948,267.12123848306203,3.600299050738272
2025-02-19 15:40:51.318,619,-33,533,-35,41,-37,-7,-9,17,811,75,H,3.542871127130038,49.21516642916168,1376.1679922580704,-73.36598343217501,-118.97179301058418
2025-02-19 15:40:51.431,791,-31,615,-17,-17,68,-7,-12,15,568,100,H,2.885637638881585,52.09981482218874,1580.0820994838334,-61.924835757267815,1.4911615896868398
2025-02-19 15:40:51.534,1179,77,634,3,58,4,-7,-7,15,724,89,H,-6.924721178952549,61.55580327368601,2058.281424958772,134.42550442902922,161.1718206752659
2025-02-19 15:40:51.646,612,-171,691,5,-17,-30,-6,-6,15,681,48,H,13.899592804850132,40.686927988137924,1263.925418779224,-353.1556317177243,-45.07919015758773
2025-02-19 15:40:52.363,786,-40,615,2,-1,-4,-8,-9,16,762,82,I,3.7213132647497598,51.900148248578425,1572.9366184932492,-80.04766506326968,-0.732850347771091
2025-02-19 15:40:52.456,791,-14,615,4,5,-7,-7,-8,17,733,87,I,1.3040689383499853,52.12785497837837,1580.3826331317455,-27.971374037730012,1.257497628289002
2025-02-19 15:40:52.562,682,11,630,1,1,-14,-6,-10,15,492,87,I,-1.000300856228831,47.26532885143495,1416.5040887770353,22.846840141565085,-48.5008444714548
2025-02-19 15:40:52.902,781,-119,541,59,9,-15,-9,-11,14,152,97,I,12.405398153639705,54.65339079248289,1596.6672420813484,-243.2822046193091,-24.01405629450619
2025-02-19 15:40:52.908,707,20,640,10,-6,4,-6,-9,19,803,101,I,-1.7899106082460694,47.83364188879967,1448.1988771853185,40.96743641259741,-30.957965203117055
2025-02-19 15:40:52.913,691,-115,540,10,0,-21,-7,-12,15,611,90,I,12.022276686183519,51.37511535504373,1472.2494359621946,-245.0198048272828,-70.52777918897993
2025-02-19 15:40:52.997,784,21,635,-7,-21,68,-7,-9,17,488,101,I,-1.8941307303587867,50.978975984775815,1560.914987396571,41.810222876693864,5.738498728542709
2025-02-19 15:40:53.098,552,-145,523,-27,22,-9,-6,-7,17,236,84,I,15.495855855779581,45.48525006913549,1265.069987044711,-332.3100509447157,-152.6079768557678
2025-02-19 15:40:53.210,811,59,612,2,-47,22,-5,-7,15,469,102,I,-5.506595431893963,52.83341404152198,1607.8823757119562,116.97294718496352,10.653496996649778
2025-02-19 15:40:53.312,706,-68,478,-28,65,22,-8,-4,15,495,58,I,8.096537167888455,55.63292613552605,1531.43803130681,-147.50394635816298,-80.86597587061624
2025-02-19 15:40:54.132,774,-23,625,0,-1,-1,-8,-9,16,606,80,J,2.1075336606115265,51.06039789805799,1551.8089227161836,-46.11318504195377,-3.0756804878742514
2025-02-19 15:40:54.231,761,-17,628,0,3,-4,-7,-8,15,475,82,J,1.5506217156415276,50.45922753059593,1532.171745990941,-34.2272269143837,-8.394029543115494
2025-02-19 15:40:54.338,714,-10,608,2,-4,-14,-6,-10,16,316,90,J,0.9422798335170006,49.58043174387692,1475.3169104142357,-20.662701826529915,-40.29227105301891
2025-02-19 15:40:54.449,949,204,615,-29,-74,16,-7,-11,15,616,96,J,-18.35106047947839,55.675801581152626,1774.8602200609498,381.5294888223749,79.80080575607576
2025-02-19 15:40:54.551,735,48,621,10,24,26,-8,-9,18,779,97,J,-4.419871138854705,49.72145476340116,1497.9104707031768,97.82272461735033,-23.58149973696959
2025-02-19 15:40:54.662,886,-103,584,-22,-14,32,-7,-11,15,695,96,J,10.002382870765278,56.20499333962493,1717.0329474022135,-199.60992503660043,36.23110464684805
2025-02-19 15:40:54.770,736,54,572,-30,-3,23,-6,-8,18,168,111,J,-5.393058296260039,52.023352121392115,1524.2616141626722,111.83441190867434,-40.61636318077251
2025-02-19 15:40:54.877,789,21,561,-31,55,58,-7,-7,15,394,58,J,-2.1437608652234097,54.567213200246705,1603.7961758156787,42.68659023083555,-18.34176759517834
2025-02-19 15:40:54.979,647,-135,648,6,-21,-27,-7,-7,14,523,41,J,11.768288932020644,44.34722727197926,1346.004973150806,-280.85111495418676,-52.0853517800964
2025-02-19 15:40:55.801,786,-13,620,2,-3,-5,-8,-9,15,577,87,K,1.2011871070060307,51.727356405355174,1571.0722003606563,-25.984654713344188,0.7318521328156748
2025-02-19 15:40:55.896,776,-6,623,1,0,-5,-9,-10,15,551,91,K,0.5517882006375755,51.23998486738539,1555.7750616094704,-12.029188620691778,-3.0307517818297356
2025-02-19 15:40:56.002,797,4,614,0,-3,-7,-7,-11,15,440,97,K,-0.37325712687132734,52.38915305074952,1589.174119539573,7.975779771842275,3.717805022210996
2025-02-19 15:40:56.109,776,-230,657,3,-4,21,-7,-9,15,505,98,K,19.29393067881079,48.10693157966558,1520.3923344237419,-450.631748604975,26.760613767527957
2025-02-19 15:40:56.212,810,71,560,24,3,21,-7,-9,16,142,103,K,-7.225733941514368,55.12764756320108,1630.4278642250924,142.9140473580019,-7.2093876124095
2025-02-19 15:40:56.329,681,-37,559,-15,-15,-49,-7,-9,14,720,73,K,3.786862402466592,50.55765155265052,1453.2642205536677,-78.95855530174113,-74.91438955873741
2025-02-19 15:40:56.433,747,-11,643,4,9,11,-7,-10,17,737,98,K,0.980081029693423,49.274761024967596,1504.8470112087562,-22.159728411373923,-9.3368516830393
2025-02-19 15:40:56.540,835,55,491,-8,11,3,-7,-10,14,72,97,K,-6.391417283904495,59.387128611740884,1695.6276500963486,111.68804880874148,-15.069672092583119
2025-02-19 15:40:56.650,795,-48,609,14,-11,24,-8,-7,17,275,105,K,4.506606883768322,52.46083981946011,1587.937082360013,-95.87544648211399,1.5802727581788076
2025-02-19 15:40:56.748,632,-164,674,-18,36,-7,-6,-7,15,363,52,K,13.675645420936926,42.33670772950197,1305.4862353568353,-338.76541550398895,-44.24323201029597
2025-02-19 15:40:57.768,739,-62,634,-3,2,0,-7,-9,15,618,71,L,5.585297974342883,49.23838002957824,1496.4325847261587,-125.54644147905525,-15.813611253565
2025-02-19 15:40:57.866,764,-63,628,-4,0,0,-7,-8,16,635,74,L,5.728658966796289,50.43936536780213,1534.951006400273,-126.573185082745,-5.7136544756167496
2025-02-19 15:40:57.976,774,-51,622,-2,-3,-1,-6,-10,17,639,79,L,4.687399846820031,51.120268050040295,1552.4652381220021,-102.29422111656602,-3.5883438138051815
2025-02-19 15:40:58.078,807,-22,621,2,1,-2,-7,-8,16,638,87,L,2.0289536416908316,52.40374793636802,1599.3295535919615,-43.60006217970651,11.289153927375423
2025-02-19 15:40:58.194,748,-88,625,14,-15,-22,-7,-11,15,536,99,L,8.014560943306162,49.84221976175771,1512.271442120159,-177.91428730825396,-13.595790541576548
2025-02-19 15:40:58.298,791,-216,716,10,-7,37,-8,-11,17,564,99,L,16.787301202849093,46.60534893044887,1517.6388118540103,-414.4247577249889,58.258673467166545
2025-02-19 15:40:58.407,889,-23,583,22,-13,18,-8,-8,18,392,102,L,2.2592107968364883,56.72298299649086,1725.0275230722123,-44.629508470934624,34.738980932396316
2025-02-19 15:40:58.511,823,-51,648,10,6,15,-7,-6,18,793,99,L,4.500113708420656,51.69838743524178,1607.7589268113738,-99.6302615642528,30.10961777184673
2025-02-19 15:40:58.620,655,-160,658,-4,1,-13,-6,-7,15,514,54,L,13.666863187466275,44.046420920019266,1350.2409499940509,-329.8298503802261,-40.42525968867983
2025-02-19 15:40:58.728,798,-46,641,5,-10,-11,-7,-5,15,607,67,L,4.104673025230004,51.15467800689441,1576.8420662678993,-90.89565795529245,15.388766318642297
2025-02-19 15:40:59.348,775,-17,613,0,-1,-2,-7,-11,14,709,91,M,1.5885459411301126,51.64642338990737,1559.1964794281525,-34.201729226165924,-7.27411856704191
2025-02-19 15:40:59.444,778,-16,619,-1,-1,-3,-8,-9,14,697,92,M,1.4806597570432096,51.48387346478814,1560.4329121784285,-32.09116528901652,-3.526957118826658
2025-02-19 15:40:59.544,788,6,619,-2,1,-6,-7,-8,16,653,95,M,-0.555353652993688,51.84788887064878,1574.3734957759002,11.987615450070304,1.277672734413386
2025-02-19 15:40:59.650,791,-14,616,-3,-1,-4,-9,-11,16,597,96,M,1.3019526725788753,52.082758465680705,1579.899197460588,-27.962817654169704,1.6360232165329762
2025-02-19 15:40:59.764,725,-98,631,-12,-15,64,-7,-11,13,662,98,M,8.828023065784823,48.627077428810786,1475.4235154167177,-199.43655794598385,-22.127225141998224
2025-02-19 15:40:59.868,778,38,520,53,26,-60,-8,-7,17,760,99,M,-4.179569873429808,56.17147976800953,1608.7074579821501,78.57440026133894,-35.22863515516451
2025-02-19 15:40:59.978,845,-70,576,-14,-11,-18,-6,-9,15,725,95,M,6.929050359691924,55.52370203328426,1669.3604281929488,-138.2902129863981,14.06910456906678
2025-02-19 15:41:00.086,870,163,566,17,-19,4,-6,-8,18,759,102,M,-16.0656527242448,55.901394801929925,1698.07398250895,318.1448955735159,27.27600678153385
2025-02-19 15:41:00.194,761,-101,612,12,-17,41,-6,-10,18,799,102,M,9.371207872671738,50.81710849509322,1536.1331778313381,-203.87575684752323,-11.365972184992074
2025-02-19 15:41:00.299,1049,-7,518,0,40,2,-7,-7,16,777,95,M,0.7742201649280623,63.717596431490705,1945.6224622068933,-12.983181349331032,75.24458014950363
2025-02-19 15:41:00.410,494,-200,718,-28,9,-20,-6,-7,15,664,35,M,15.565259926416887,33.53599421205428,1046.4607380410778,-423.6683149963877,-84.96925083703195
2025-02-19 15:41:01.228,779,-37,622,-1,-2,-3,-7,-10,15,766,70,N,3.404258269537648,51.3446987638784,1559.9179469781773,-74.09109632630623,-1.5314031070938654
2025-02-19 15:41:01.319,797,-1,617,-4,0,0,-6,-8,16,745,76,N,0.09286179796542801,52.25460816185417,1587.7388103510284,-1.9921440531380536,4.847119213820974
2025-02-19 15:41:01.426,766,2,627,-3,3,-6,-8,-8,15,714,76,N,-0.18276103728975313,50.69823281664417,1539.8206738857402,4.020419514061986,-6.401517658432681
2025-02-19 15:41:01.536,745,1,622,-2,0,-22,-7,-9,15,604,82,N,-0.09211532178133783,50.14148082388872,1512.629345472718,2.030374960366064,-18.89322534769201
2025-02-19 15:41:01.647,774,-40,583,-5,1,-19,-7,-11,17,502,99,N,3.9249487143038104,52.94716709466797,1572.0802320541773,-81.2444564369084,-18.137952567939806
2025-02-19 15:41:01.754,818,247,523,10,0,31,-6,-9,15,335,104,N,-25.280210435469446,54.73657911693535,1634.506343079126,493.5489813454085,0.9549909164023802
2025-02-19 15:41:01.860,929,-182,738,20,6,-35,-7,-11,17,680,96,N,13.853424115449425,50.70986870810747,1702.9492926866824,-333.6240810215029,123.17268245126854
2025-02-19 15:41:01.967,704,145,577,-8,-36,70,-7,-8,17,580,101,N,-14.106315727543866,49.799325447621264,1467.7884295050867,302.3143782361329,-49.00273270516334
2025-02-19 15:41:02.073,947,-391,547,5,3,-73,-8,-9,18,782,104,N,35.55748960982693,54.62499141327965,1762.380390458361,-727.6565286897774,76.02526549026038
2025-02-19 15:41:02.184,538,-64,664,-33,45,38,-7,-8,14,780,48,N,5.505477857978346,38.88629243878148,1165.7768511735867,-138.67977411730396,-110.80265646702878
2025-02-19 15:41:02.998,815,-43,550,33,1,-17,-7,-9,17,294,56,O,4.470394740025567,55.90569503740997,1643.1160564522545,-86.69201279441342,-8.851326440171533
2025-02-19 15:41:03.096,968,-2,728,-17,16,-9,-7,-9,16,267,79,O,0.15740559167323548,53.054310582939394,1767.2056107225665,-3.651251261823485,126.94454069625158
2025-02-19 15:41:03.198,788,5,548,-21,3,-8,-7,-7,17,337,73,O,-0.5227572048740929,55.1829153375706,1608.9789951981647,10.209257583744703,-22.934631178419522
2025-02-19 15:41:03.310,625,-98,642,-19,-15,-3,-7,-9,16,762,83,O,8.679086925001508,43.9015170060389,1318.4209058845224,-206.72839804269313,-70.28195452458147
2025-02-19 15:41:03.418,738,-107,628,-18,2,-26,-8,-9,17,693,104,O,9.669325413980904,49.198855686866516,1494.982005363665,-216.75213356898666,-16.152709171248944
2025-02-19 15:41:03.526,990,90,516,-12,-20,87,-8,-9,16,661,102,O,-9.893920669735412,62.11754063223043,1873.9088415406986,170.3553492309726,55.29599774242382
2025-02-19 15:41:03.628,770,-269,760,6,-4,-51,-7,-10,16,815,105,O,19.491283275612048,43.68428404262347,1460.6840786702514,-510.2909313796073,78.28584442936233
2025-02-19 15:41:03.739,1051,60,662,5,47,15,-6,-9,15,661,86,O,-5.1788212318710425,57.68836131653386,1896.1532710022643,108.24852165569543,129.6579777321606
2025-02-19 15:41:03.844,625,-80,712,-6,-1,18,-8,-8,13,440,39,O,6.410840020232449,41.09883791202072,1282.3599616891531,-164.1420750962116,-36.86446835628317
2025-02-19 15:41:04.860,750,-54,642,-3,-2,-3,-6,-9,16,594,64,P,4.807953963030471,49.33667302851979,1508.5515662980324,-108.61571277345834,-7.3201407511159005
2025-02-19 15:41:04.960,769,-25,645,-1,-2,-3,-7,-7,16,600,69,P,2.2196555531978914,49.99052675638276,1534.9381546004838,-49.900460162564485,2.5681278058364114
2025-02-19 15:41:05.067,738,-39,649,3,-7,-11,-8,-9,15,581,75,P,3.4389083229029143,48.62026560348256,1488.3449297068373,-78.65237433410115,-10.856178021324467
2025-02-19 15:41:05.178,765,-168,578,18,8,-14,-8,-10,16,460,95,P,16.206899240359483,51.803486707629716,1550.8945246713872,-340.5886014964615,-15.786974196159122
2025-02-19 15:41:05.280,793,140,663,5,0,31,-7,-9,15,293,98,P,-11.923496238276337,49.4860444160409,1553.247756406805,274.2177627956529,27.383023332015455
2025-02-19 15:41:05.394,808,-104,613,18,-8,-29,-8,-11,14,625,93,P,9.628967315760308,52.42155760819063,1600.5191551451194,-206.0074160087777,11.744749871338968
2025-02-19 15:41:05.498,688,32,714,-13,3,50,-8,-9,17,671,97,P,-2.566160822700446,43.90885264712073,1381.5131507944052,64.25642561834442,-5.721496609309952
2025-02-19 15:41:05.609,944,-71,681,-28,41,24,-8,-9,15,554,78,P,5.952064982916603,54.04630601858055,1753.491773733666,-131.88338552446,97.0340064484891
2025-02-19 15:41:05.710,716,-28,642,8,-24,-15,-6,-9,15,630,70,P,2.4972987350536417,48.09201039204379,1460.2184131077486,-57.103513361755525,-25.301984937394423
2025-02-19 15:41:06.431,766,-40,630,-1,-1,-1,-8,-8,15,713,78,Q,3.6329507394882063,50.50771027575801,1537.7101732549286,-80.29818137101455,-4.696356593479095
2025-02-19 15:41:06.526,756,-34,617,0,-5,-2,-7,-9,16,721,80,Q,3.1541138830304596,50.73826829595427,1530.2630770917979,-68.82135531894329,-14.905183287882664
2025-02-19 15:41:06.636,741,-47,630,10,-8,-4,-7,-9,16,760,84,Q,4.2665434173952415,49.550247914463924,1501.9752335578614,-95.26698512445279,-16.982992093728626
2025-02-19 15:41:06.743,764,-29,644,-1,9,-18,-7,-10,15,637,98,Q,2.5783476038795956,49.842790452774466,1528.2778655153543,-58.01054725123727,-0.23422171713116313
2025-02-19 15:41:06.853,956,333,531,-30,-27,83,-8,-10,15,596,95,Q,-32.092591328734166,56.75015058348246,1792.2875968568378,624.3010143863255,66.49297705964341
2025-02-19 15:41:06.955,732,-258,579,24,6,-57,-6,-9,16,799,95,Q,24.017554579453087,49.10882801558599,1487.9543413100148,-524.4429235764807,-18.94749128210185
2025-02-19 15:41:07.061,515,20,601,-4,-12,0,-8,-9,15,647,80,Q,-1.9059781515861567,40.577776728431104,1165.4796703214738,45.26134642025141,-158.1034599285548
2025-02-19 15:41:07.168,743,-1,613,-34,-57,65,-7,-9,16,669,93,Q,0.09346774663590139,50.47618421856904,1514.3601220459998,-2.0381697470336473,-23.398054931625666
2025-02-19 15:41:07.274,798,-6,538,-15,74,4,-6,-6,16,769,66,Q,0.6389598989916327,56.01107214924169,1627.145618564262,-12.234177583189938,-20.997923292697692
2025-02-19 15:41:07.385,788,-35,637,18,-19,-22,-7,-6,14,675,60,Q,3.1449574646980225,51.00654395960545,1565.2178333613388,-69.52109665945034,8.716040798004087
2025-02-19 15:41:08.098,754,-43,646,-13,-4,-3,-9,-9,15,488,71,R,3.808188080020193,49.34863737682452,1512.687617810239,-86.26733098917809,-4.016181837419822
2025-02-19 15:41:08.200,759,-39,639,-8,-1,-2,-7,-8,15,506,74,R,3.492593160856053,49.85358005067646,1523.3992932338908,-78.27743403968609,-4.545650034856521
2025-02-19 15:41:08.298,750,-8,634,-5,0,-10,-6,-8,15,489,78,R,0.7229367684375153,49.78880068561407,1513.6698497156071,-16.145811730299812,-11.555579626259942
2025-02-19 15:41:08.418,811,-104,539,-4,0,-12,-7,-12,17,423,96,R,10.921006753964273,55.90710082634702,1639.129809823118,-210.19667105006687,-11.384670153711909
2025-02-19 15:41:08.524,858,229,515,-12,-10,32,-7,-8,15,127,99,R,-23.97281067857625,56.699159914904016,1693.7993113681096,452.07464137913416,13.325588164829298
2025-02-19 15:41:08.628,746,-209,630,27,5,-45,-7,-9,14,610,95,R,18.353058769802534,48.33851429838394,1493.085182285542,-418.304025600105,-0.9164408041441447
2025-02-19 15:41:08.729,720,69,707,-38,-11,39,-7,-9,17,646,99,R,-5.574155763827473,45.38618035470484,1431.8566671499536,137.21959726853723,7.996300451364846
2025-02-19 15:41:08.848,805,-41,647,-13,-46,58,-7,-9,16,557,100,R,3.6259506442862515,51.15415656176833,1583.8363579468423,-80.66744183331741,21.028417898625094
2025-02-19 15:41:08.948,967,-5,608,-10,61,3,-8,-8,18,729,89,R,0.4711717758805643,57.83955173299837,1813.5608132203204,-9.377253429267428,75.72598300108086
2025-02-19 15:41:09.668,771,-36,631,-3,-3,-2,-7,-11,15,680,83,S,3.265316123810232,50.65686412688878,1544.3631414329961,-72.1103412342255,-1.9340366332303347
2025-02-19 15:41:09.765,752,-51,621,2,-6,-5,-6,-11,15,714,88,S,4.694914279251024,50.35560054800577,1522.0190610344662,-103.22203738398642,-14.880102263834374
2025-02-19 15:41:09.872,749,-17,637,-1,0,-12,-7,-10,18,705,99,S,1.5287238730419492,49.60985723679892,1510.6497996158012,-34.28711160676718,-10.758240794746712
2025-02-19 15:41:09.981,880,-28,510,62,14,24,-7,-12,15,518,94,S,3.1424957770727664,59.868338907102014,1744.8741585175494,-55.5187232255584,8.76611267732926
2025-02-19 15:41:10.089,678,92,764,-11,-20,36,-6,-9,15,763,99,S,-6.86642980249771,41.38229281324705,1339.0800128875244,181.70407254520978,19.066180168040546
2025-02-19 15:41:10.195,1089,16,685,-24,59,22,-7,-7,16,601,72,S,-1.3380522768598846,57.822348167850514,1935.400949670733,28.435642970368896,152.59903533108172
2025-02-19 15:41:10.306,590,-112,707,-1,-19,-20,-6,-6,14,697,46,S,9.001755122561306,39.49650003962833,1226.0310837612342,-232.73810403603085,-55.15928172744475
2025-02-19 15:41:11.018,750,-11,650,-1,3,-2,-7,-9,16,458,67,T,0.9695283365560804,49.081556724952264,1505.6426716449034,-22.082759184125244,-4.8903154255827985
2025-02-19 15:41:11.112,760,18,628,4,1,-8,-8,-10,15,383,70,T,-1.6417862223927175,50.420987501331,1530.7466801230773,36.25452663449394,-8.880151470121746
2025-02-19 15:41:11.224,707,-22,651,10,-1,-10,-7,-11,15,219,78,T,1.9355263067278203,47.34508052375078,1442.4479460647663,-44.885226044448174,-26.194643406171053
2025-02-19 15:41:11.334,866,278,694,23,-53,17,-6,-9,14,444,90,T,-21.82987236504029,49.196270465565235,1622.9525211658306,520.9939964019642,87.38908811883778
2025-02-19 15:41:11.441,686,38,658,-28,28,11,-6,-10,14,781,88,T,-3.3052036167273577,46.145836155131285,1407.1055968425494,77.9446248979838,-33.672715338772036
2025-02-19 15:41:11.546,845,-69,629,-29,-17,32,-6,-10,16,689,90,T,6.260197690363773,53.17251206562724,1645.4438942674915,-134.36169077450523,33.16661598313351
2025-02-19 15:41:11.649,819,71,612,15,7,30,-7,-8,16,642,96,T,-6.61747691698757,53.04715166637418,1618.130504325808,140.27749182800045,14.84753522906658
2025-02-19 15:41:11.759,591,-118,699,-9,5,-9,-6,-6,12,529,49,T,9.581909700328517,39.81789222927143,1231.3495865513833,-245.85321694257735,-58.36778510899637
2025-02-19 15:41:12.478,755,-12,642,2,2,-5,-7,-10,14,437,70,U,1.0708244547869632,49.61951235620437,1516.7589837543242,-24.107427556360115,-5.747374265266217
2025-02-19 15:41:12.577,753,12,645,2,0,-4,-8,-10,15,474,73,U,-1.0658450275615834,49.41261097157806,1512.4145262840211,24.10222352643858,-5.494514546073674
2025-02-19 15:41:12.680,763,29,648,1,0,-5,-7,-10,15,465,77,U,-2.562453157939891,49.631165423485896,1524.890732715804,57.95783912025992,0.9420775886749198
2025-02-19 15:41:12.791,661,22,648,3,-10,-18,-7,-12,14,392,85,U,-1.9444802136472092,45.55250198461864,1374.892415553739,45.760413225691764,-51.85217137492111
2025-02-19 15:41:12.898,887,92,587,4,-18,89,-6,-11,15,538,89,U,-8.907455137738186,56.183452159671475,1717.823768491243,178.17337846808834,37.17637868730583
2025-02-19 15:41:13.006,707,-34,710,35,-4,-53,-6,-9,15,771,90,U,2.741647122960003,44.84588686053831,1412.2022626660878,-67.91354587078783,1.8053656394308746
2025-02-19 15:41:13.108,744,173,619,-42,-21,84,-7,-9,15,659,93,U,-15.61477635047352,49.177183433586364,1500.7347877330817,348.9611804809451,-10.595206460722693
2025-02-19 15:41:13.222,679,-115,562,-26,66,15,-7,-9,16,781,57,U,11.564578706293068,49.8075881291182,1442.8815049561376,-244.3761017230572,-70.25538407267948
2025-02-19 15:41:13.328,704,-43,661,9,-22,-15,-6,-7,14,690,50,U,3.722015014716204,46.7439518647791,1432.298637994872,-87.48414976389134,-22.814488230980714
2025-02-19 15:41:15.343,740,57,659,1,-1,-5,-6,-11,14,435,77,V,-4.943477194058768,48.20756775811616,1485.5640303190287,114.42858071376303,-4.954994567891731
2025-02-19 15:41:15.438,796,83,709,1,-6,-7,-7,-12,14,383,86,V,-6.677013302337842,48.11468730735318,1540.4827152216553,160.62822281833843,45.88662676865124
2025-02-19 15:41:15.544,758,80,647,1,-1,-1,-6,-11,14,250,87,V,-7.048709229521515,49.302420585615295,1516.1618848454668,160.0170854718171,-0.13817875332085805
2025-02-19 15:41:15.655,750,64,639,0,-1,-2,-6,-13,14,284,87,V,-5.7194706985555115,49.42778965249921,1509.5868571337455,128.81807847541293,-8.168002277951018
2025-02-19 15:41:15.765,715,154,622,-31,-24,55,-7,-10,13,662,92,V,-13.906124585989472,48.1334034619389,1459.700766359174,314.3970881388991,-25.837589755813042
2025-02-19 15:41:15.868,760,62,533,21,0,-66,-7,-9,15,722,95,V,-6.6349811776025245,54.77620340103176,1576.9054188049677,128.6422841656684,-39.90866871453659
2025-02-19 15:41:15.978,788,-40,629,-5,14,4,-6,-12,18,778,90,V,3.6387109907582245,51.345930259858264,1568.9313724601943,-79.6411864192992,5.642343556519904
2025-02-19 15:41:16.078,535,-125,713,-5,2,8,-7,-8,15,732,46,V,9.943788013863971,36.467313542564995,1129.3641006537084,-263.8701169751655,-79.11514722634365
2025-02-19 15:41:16.998,722,-18,657,1,-4,-2,-6,-10,14,419,67,W,1.5693548047489854,47.68797363857043,1461.4898136263116,-36.43603413472799,-15.915245917571724
2025-02-19 15:41:17.095,769,32,641,-2,0,-3,-8,-10,14,456,78,W,-2.857947104465509,50.15202626023781,1536.7472906776995,63.947871653688395,1.044195937054269
2025-02-19 15:41:17.204,718,3,649,1,-1,-13,-7,-10,15,356,83,W,-0.26484763372735903,47.88927591911038,1459.8503438801908,6.099653247410267,-21.558319189754457
2025-02-19 15:41:17.313,761,-61,651,2,-1,-11,-6,-11,14,114,90,W,5.353098619849249,49.33080818092816,1519.4848626291353,-121.79839240522634,2.151582691764702
2025-02-19 15:41:17.418,728,183,624,-17,-16,36,-8,-9,16,501,96,W,-16.344789669211327,48.22740981525212,1473.794777850374,370.47313783876166,-15.252666728891995
2025-02-19 15:41:17.528,741,-293,672,28,3,-30,-6,-10,14,667,95,W,23.55777482548079,45.30712628833034,1451.8869546348246,-574.0929523724747,27.308996606474693
2025-02-19 15:41:17.633,758,230,572,4,-4,25,-7,-7,17,471,99,W,-21.90495596310315,50.877262365010985,1533.7960644178975,465.39986123498204,-13.42922011482517
2025-02-19 15:41:17.740,867,-40,603,1,7,0,-7,-10,17,799,96,W,3.7951549298003577,55.12233586135707,1687.374855647187,-77.84889760771335,32.42786856372118
2025-02-19 15:41:17.850,563,-94,676,-6,-3,-2,-5,-7,14,730,50,W,7.916401722391898,39.519335566999395,1199.338583666095,-200.24480793004076,-88.05840596497399
2025-02-19 15:41:18.768,771,-10,625,1,-4,-1,-6,-8,15,733,72,X,0.9166542563852879,50.96695951510011,1547.7829250605878,-20.075005513107495,-4.687844569218328
2025-02-19 15:41:18.858,789,-1,612,1,-6,-3,-6,-10,17,758,81,X,0.09362047144048438,52.20046777379602,1579.1600162407694,-2.001470236046603,-0.8997844605210048
2025-02-19 15:41:18.972,967,13,624,11,-3,-7,-7,-10,15,782,97,X,-1.193489423982035,57.16039642910506,1807.1919671258574,24.295238441195604,81.82855482261107
2025-02-19 15:41:19.078,700,-119,744,21,19,8,-7,-9,15,592,98,X,9.0872733676948,42.89366726254182,1380.6398989447828,-234.70878282061307,20.577021692973858
2025-02-19 15:41:19.183,815,27,593,-4,14,42,-6,-8,14,122,98,X,-2.6069449592810603,53.931858870658296,1623.317377005084,53.77861248973899,4.862325688325427
2025-02-19 15:41:19.289,877,-72,818,2,-6,-33,-7,-11,13,392,91,X,5.030185667721393,46.883268244290996,1606.9627129947194,-131.9285237578333,137.14538286239406
2025-02-19 15:41:19.398,771,111,617,19,-19,46,-7,-9,17,641,101,X,-10.198576775578559,50.88521629904112,1546.883651578269,222.70309380698814,-3.908188098303526
2025-02-19 15:41:19.508,714,-78,543,-29,63,-3,-8,-6,15,557,59,X,8.17441462646027,52.46455357946343,1506.9765741277442,-164.62769297193844,-60.06201645849467
2025-02-19 15:41:20.324,775,26,619,0,-1,-3,-7,-11,16,434,80,Y,-2.405194056379013,51.36067255244998,1556.0920614848815,52.20437883691214,-4.865788463408194
2025-02-19 15:41:20.422,766,39,638,-2,1,-3,-7,-10,16,431,81,Y,-3.4980538622542454,50.1565940004988,1533.7983703978298,78.09156193931508,-1.4978594175133821
2025-02-19 15:41:20.529,729,55,633,5,0,-13,-9,-12,14,386,84,Y,-4.9658348190896255,48.9251059484404,1482.8513695955717,111.8749318624917,-21.578761253768107
2025-02-19 15:41:20.638,769,-38,594,11,12,-20,-8,-10,15,377,89,Y,3.6603985478754284,52.25974464624311,1559.7936858725589,-77.07693116145283,-16.834134471131165
2025-02-19 15:41:20.739,924,129,574,5,-8,23,-7,-9,16,781,94,Y,-12.666131401525544,57.514814928509445,1767.5303467909525,246.76560036367192,49.98872396319621
2025-02-19 15:41:20.848,501,-174,739,37,-61,-29,-7,-9,14,860,79,Y,13.249162464260067,33.42074361174027,1051.7829559309441,-365.2898888861962,-73.43234417758026
2025-02-19 15:41:20.959,678,-37,674,-11,15,28,-7,-11,17,638,94,Y,3.142163411829754,45.12641269120581,1386.6651610724616,-75.67346749215497,-30.484245667903906
2025-02-19 15:41:21.070,706,-126,695,-36,-20,63,-6,-10,15,236,96,Y,10.27582492913677,44.98664316151971,1412.941920669094,-252.16810482196297,-0.9272448513036124
2025-02-19 15:41:21.173,1118,45,553,26,66,-5,-6,-6,18,567,84,Y,-4.652154758586148,63.60625493461267,2013.7602953701626,81.05475249701011,109.9271526478534
2025-02-19 15:41:21.990,744,-7,640,0,0,-3,-5,-9,14,567,73,Z,0.6266476008324131,49.295692443072305,1502.0853086117145,-14.132523064895166,-12.11639450470068
2025-02-19 15:41:22.089,760,10,635,11,-10,-6,-4,-12,14,602,83,Z,-0.9022211615301559,50.116860183014026,1527.3538752260267,20.096761516131927,-6.144356274377515
2025-02-19 15:41:22.196,711,10,671,5,12,-13,-5,-10,15,485,77,Z,-0.8538232223279761,46.65470525999851,1438.2303618500378,20.228275131505452,-15.317261324015817
2025-02-19 15:41:22.303,775,-40,590,123,6,-24,-6,-12,15,370,83,Z,3.878524502847706,52.65499572508756,1569.9972481230293,-81.03211603215635,-15.223711474306128
2025-02-19 15:41:22.408,558,5,752,-12,14,41,-6,-11,15,804,85,Z,-0.38095036714191355,36.57559517679468,1153.882865187042,10.339452197016504,-51.05361043128221
2025-02-19 15:41:22.518,1044,107,672,38,-24,24,-5,-10,15,477,88,Z,-9.04704236125077,56.90422734104861,1881.759006299938,192.86227363418902,132.75282353107457
2025-02-19 15:41:22.622,755,57,636,-15,2,13,-7,-8,15,800,89,Z,-5.1213165107786125,49.77677971723786,1518.5343810301306,114.64431750823505,-7.189226933990881
2025-02-19 15:41:22.733,702,-25,659,-6,1,-10,-5,-9,14,737,59,Z,2.1725461792300864,46.78906570444696,1430.8379755485862,-50.955768359992376,-25.19405396939908
2025-02-19 15:41:22.839,811,74,612,-5,-1,-2,-5,-9,15,718,70,Z,-6.89445107631267,52.76079453938324,1607.1160259478124,146.64190619005933,11.231802860590392
2025-02-19 15:41:22.938,748,30,639,-7,1,-2,-6,-8,15,626,63,Z,-2.687968965603574,49.46230836940763,1507.9785662074542,60.48042377837384,-10.233026479362707
2025-02-19 15:41:23.958,755,-7,650,-9,-5,3,-8,-9,14,663,65,a,0.6170076196569482,49.2723034002883,1512.8190253137598,-14.026136658538169,-2.4269754356871545
2025-02-19 15:41:24.056,755,2,626,6,-9,-2,-7,-9,15,739,73,a,-0.18305298584346993,50.33640240618887,1524.805235654811,4.039219167297513,-12.27559936412149
2025-02-19 15:41:24.167,764,27,558,2,3,-14,-8,-8,16,680,91,a,-2.770215797200193,53.82494461661983,1571.2173651031194,55.52731525887988,-31.564515350184138
2025-02-19 15:41:24.271,872,55,562,16,17,-3,-7,-9,16,322,88,a,-5.589439246852866,57.07394003832779,1711.3727245016266,107.94208698118055,21.028129392300457
2025-02-19 15:41:24.381,679,-2,676,7,-13,-26,-7,-8,15,803,92,a,0.1695136459770759,45.12672853860388,1387.6690504326298,-4.08739042837299,-29.537964790070305
2025-02-19 15:41:24.490,826,217,532,-19,-17,54,-6,-9,15,769,91,a,-22.190288896122546,55.17803911105274,1646.9304001211588,432.66815596403336,3.2651660236602993
2025-02-19 15:41:24.588,603,-76,588,-7,54,-1,-5,-6,17,788,51,a,7.3647462449826495,45.48430539953271,1316.0584276127756,-165.87137727789536,-107.32065578161166
2025-02-19 15:41:25.608,767,20,636,2,-6,-5,-7,-9,14,663,71,b,-1.801160515722367,50.320404450426544,1536.6269873406645,40.06850032179047,-2.1783102329369513
2025-02-19 15:41:25.710,754,51,631,3,2,-12,-8,-10,14,655,74,b,-4.620834717557599,49.9832134851306,1519.856086359518,102.80193687577642,-9.922003306174929
2025-02-19 15:41:25.808,771,-32,595,0,6,-20,-7,-12,15,630,88,b,3.0784878488253478,52.301704395718275,1562.2417239061529,-64.84012343060556,-15.621045037822114
2025-02-19 15:41:25.923,792,198,582,4,-5,21,-6,-9,14,741,92,b,-18.788621982168472,52.181020412139745,1581.9519397051367,395.4879849262842,1.5050140045586886
2025-02-19 15:41:26.028,895,-7,676,1,-27,4,-5,-9,15,815,84,b,0.5932782875270037,52.93450673117117,1692.9470698304144,-13.240926803142901,73.30478301077108
2025-02-19 15:41:26.137,791,64,474,1,21,16,-7,-7,16,769,95,b,-7.68963490274526,58.83952377220994,1646.7214019887415,133.23662418113707,-38.78374784154653
2025-02-19 15:41:26.239,541,-69,748,-24,26,10,-6,-5,12,739,42,b,5.270390484856664,35.761595544028616,1125.4139003563528,-143.53707786430374,-60.02513394926382
2025-02-19 15:41:27.060,773,-2,624,0,-2,0,-6,-8,15,746,74,c,0.18363969011977455,51.08784362278597,1551.1098968373833,-4.0132209491264765,-4.124936127460842
2025-02-19 15:41:27.160,762,8,627,4,-5,-2,-7,-9,16,792,76,c,-0.7310069618353912,50.548980310293324,1534.1680640849095,16.106751328975427,-8.366635408449156
2025-02-19 15:41:27.271,767,31,629,-4,2,-13,-6,-10,16,720,91,c,-2.8215153737548317,50.61148576617943,1539.8607988649078,62.236877137955865,-4.806313541104373
2025-02-19 15:41:27.377,896,150,520,25,-6,42,-6,-10,15,548,89,c,-16.09081634885217,58.8671633529481,1751.9709148153609,293.29870225703587,23.23116550894241
2025-02-19 15:41:27.484,1018,20,702,-9,49,12,-7,-8,15,827,77,c,-1.6319169538260114,55.399478232078835,1841.1311973925447,36.171536294549014,134.37907606132967
2025-02-19 15:41:27.591,578,-126,702,-12,-5,-6,-5,-7,14,742,38,c,10.175510843043206,39.021700592105255,1207.6146874370154,-263.2516446662006,-62.68773456883196
2025-02-19 15:41:28.408,759,13,624,1,-3,-1,-6,-10,15,712,80,d,-1.193489423982035,50.56910213406146,1531.391170352298,26.229361284031455,-11.009341633509848
2025-02-19 15:41:28.504,784,52,607,-3,-3,-5,-6,-9,17,711,91,d,-4.896415206020307,52.150274412138366,1573.6227880166052,104.37294002150952,-4.353357558774633
2025-02-19 15:41:28.608,670,-110,632,27,19,-19,-7,-9,15,376,92,d,9.873458622995221,46.24482877497978,1392.3015466739225,-228.58682109571865,-49.33519029540162
2025-02-19 15:41:28.721,841,195,632,-11,-23,18,-5,-9,14,722,90,d,-17.147312158875113,51.816937337162926,1627.0396679641453,377.2565222984641,41.30193798651612
2025-02-19 15:41:28.831,778,-69,558,-1,-2,-35,-6,-11,15,768,88,d,7.04917816749529,54.144875977411665,1588.5006584458515,-140.88244914236986,-23.310240890469345
2025-02-19 15:41:28.934,838,134,584,2,-3,36,-7,-9,16,724,91,d,-12.922943349801486,54.4349559819478,1651.455761164566,264.0752649117564,17.10481560846472
2025-02-19 15:41:29.042,632,-75,674,-19,18,-5,-6,-8,14,649,51,d,6.349521786458134,42.98216992713755,1313.770734541783,-155.90633716872424,-53.078283356268685
2025-02-19 15:41:29.761,771,12,618,-1,0,-2,-7,-9,15,654,86,e,-1.1123996162977925,51.280586908950816,1551.218516355058,24.143478853775225,-7.389160969423983
2025-02-19 15:41:29.855,771,15,618,-1,1,-4,-7,-9,15,614,88,e,-1.3904012640440198,51.277623139456935,1551.186159372952,30.178719053948484,-7.363225022677398
2025-02-19 15:41:29.958,793,0,570,6,4,-6,-7,-9,14,597,92,e,0.0,54.29181985597093,1605.0002061762257,0.0,-13.65714693625307
2025-02-19 15:41:30.070,724,22,621,4,-3,-22,-6,-10,16,804,90,e,-2.0289536416908316,49.361401982627896,1482.832732903104,45.05845320976283,-29.877247421032394
2025-02-19 15:41:30.175,897,174,561,3,5,35,-8,-9,15,649,88,e,-17.231821757397046,56.7828250374758,1733.600138509874,336.28363890826984,37.775164209543846
2025-02-19 15:41:30.286,771,13,664,18,-8,5,-4,-8,15,831,88,e,-1.1216114256054808,49.25890866336434,1528.6664699077837,25.77518042646069,11.483092063854087
2025-02-19 15:41:30.388,600,-102,673,-11,-2,-7,-6,-7,12,726,46,e,8.61817011644441,41.395019332836554,1261.2466563891926,-214.41193158616272,-68.69833291654425
2025-02-19 15:41:31.508,770,-43,640,-9,-6,0,-7,-8,13,580,71,f,3.8437833142127644,50.20425663050396,1538.3310766421855,-85.90680038391426,1.387157076625158
2025-02-19 15:41:31.609,832,-116,658,1,-10,-13,-6,-9,15,651,96,f,9.998044691516103,51.23341341113398,1611.7032514627597,-224.7086264058655,41.35968814603882
2025-02-19 15:41:31.715,870,-28,586,62,8,-98,-8,-7,15,545,97,f,2.7356016991131584,56.0069643762934,1699.1055370529805,-54.68385636492351,27.545006076957975
2025-02-19 15:41:31.825,814,113,679,-30,-13,39,-6,-10,15,755,95,f,-9.448638000138429,49.78131126092591,1577.5854525990692,219.0014203239494,42.05341238972005
2025-02-19 15:41:31.932,544,-167,525,13,-30,-39,-7,-9,16,627,80,f,17.645619480611387,44.63783553044819,1246.6230895286442,-382.69495579280067,-153.082944857607
2025-02-19 15:41:32.038,749,97,648,44,-24,20,-7,-8,16,792,95,f,-8.513470076698482,48.82079917060309,1501.6539728155783,194.47321143272507,-3.161247509338523
2025-02-19 15:41:32.140,720,14,532,-69,59,9,-5,-7,15,715,60,f,-1.507435758774968,53.53023731805689,1524.1706608892382,29.636651739512967,-62.192766101492566
2025-02-19 15:41:32.251,747,-16,645,19,-25,-14,-8,-8,14,606,58,f,1.4209992328947616,49.182189955889,1503.7919072679083,-32.209732953529496,-8.454859689157729
2025-02-19 15:41:32.968,777,-17,610,-4,2,0,-6,-8,14,679,77,g,1.5963544295742491,51.85477368117647,1563.4477207137975,-34.20670688820406,-7.417129517910325
2025-02-19 15:41:33.062,779,-30,632,-1,1,1,-7,-8,14,740,75,g,2.7176963827077487,50.916149559265726,1555.224140400729,-59.89309911684451,2.2520452718090382
2025-02-19 15:41:33.168,769,-42,629,1,-5,3,-6,-8,14,743,77,g,3.8201206060852724,50.65623776118392,1542.3562108089016,-84.2379204863119,-3.563142521194891
2025-02-19 15:41:33.279,735,8,586,0,-15,-9,-8,-8,17,755,93,g,-0.7821463540566593,51.43278086647727,1516.8772872503487,16.510228976874544,-37.37427255606019
2025-02-19 15:41:33.390,789,-89,559,-7,11,-27,-7,-9,17,548,99,g,9.04629859056827,54.34376599085903,1601.529034093663,-180.654098902834,-16.670126816676543
2025-02-19 15:41:33.488,770,27,627,26,-13,10,-7,-8,16,740,98,g,-2.465758994997765,50.81857673202382,1545.1493677566805,54.180562246013466,-4.193056601868307
2025-02-19 15:41:33.602,839,-34,715,12,-10,42,-5,-8,15,779,97,g,2.722503712397278,49.53025102661403,1599.7487551889053,-64.82891260598663,66.68610255057524
2025-02-19 15:41:33.708,781,-150,460,-8,34,-20,-7,-8,16,339,103,g,18.060471936199185,58.22129127234024,1631.088452553429,-313.2692290435523,-40.69230240022699
2025-02-19 15:41:33.819,613,-97,734,-11,15,-12,-7,-4,15,463,45,g,7.528163111593079,39.62310317286318,1250.7346292277182,-197.9139625368494,-29.61699486646853
2025-02-19 15:41:34.536,755,-11,641,-2,0,-1,-6,-9,14,489,63,h,0.9831384055510634,49.66436069919948,1517.2658639676565,-22.105860269727444,-6.168766626844786
2025-02-19 15:41:34.629,766,-5,632,-3,-3,-2,-7,-10,13,501,65,h,0.4532799380897668,50.474263288362906,1537.338785348563,-10.034848468332656,-4.404846397247752
2025-02-19 15:41:34.737,757,-2,642,-4,-3,-3,-9,-9,15,536,70,h,0.17849094755360373,49.69910063163427,1519.6581769819054,-4.014948948433039,-4.798612447005667
2025-02-19 15:41:34.841,735,-23,630,-7,2,-18,-7,-9,15,497,75,h,2.0908221074799704,49.37985018722029,1494.0423957345465,-46.75234707740758,-20.607767772468378
2025-02-19 15:41:34.952,770,-37,582,4,4,-21,-6,-13,15,471,94,h,3.6376198147899603,52.86080282037525,1567.171075661589,-75.30562311620622,-20.537098746811125
2025-02-19 15:41:35.056,791,169,539,4,-5,22,-6,-9,17,561,98,h,-17.408482536814283,54.468393059584564,1604.7950525152141,342.87024510122785,-15.532911890898163
2025-02-19 15:41:35.169,757,-153,664,1,-15,-17,-6,-10,15,779,90,h,12.975709374437693,48.00863557712625,1500.2456679018578,-303.2200623368352,12.064566067590931
2025-02-19 15:41:35.270,838,98,538,7,5,33,-8,-7,17,778,98,h,-10.323588954035712,56.8727795046899,1675.4591760020667,195.93675327947795,0.34721158817183095
2025-02-19 15:41:35.385,550,-146,705,-28,44,13,-5,-6,14,750,39,h,11.700118348337439,37.37738043697531,1157.0621687485555,-307.14741206779837,-73.14332539587565
2025-02-19 15:41:36.302,761,-11,646,3,-6,-3,-6,-8,15,603,61,i,0.975530451424989,49.66853970185469,1523.3130716684664,-22.01898001097652,-1.1146442809846349
2025-02-19 15:41:36.396,770,-41,645,5,-9,16,-7,-8,15,629,67,i,3.637163767705306,49.991483158442364,1535.9488862531791,-81.78429134594847,3.3934654112980525
2025-02-19 15:41:36.505,636,-10,633,10,-22,-35,-6,-9,14,666,84,i,0.9050713078765924,45.13187641940306,1344.7324386503249,-21.143591802678067,-72.38936110952147
2025-02-19 15:41:36.614,780,-79,732,-34,-25,70,-7,-10,16,693,94,i,6.159719660927947,46.65273374841526,1507.206743053636,-152.65299064261188,49.544441134279964
2025-02-19 15:41:36.715,936,42,718,1,58,-57,-6,-9,17,732,83,i,-3.347748783130623,52.461133516753776,1728.940205630181,77.5806502526363,109.74031234778863
2025-02-19 15:41:36.822,803,82,520,20,12,7,-7,-9,15,692,91,i,-8.961310047887103,56.75220503010076,1639.3072563127712,167.401239125339,-21.568833477759654
2025-02-19 15:41:36.932,645,1,636,-16,21,24,-6,-8,14,805,51,i,-0.09008762939838802,45.40250442877335,1357.0567367914514,2.103963933010002,-66.12106139436128
2025-02-19 15:41:37.039,834,-18,630,22,-21,-3,-5,-7,15,801,63,i,1.6365770416167182,52.92151469310946,1631.81037853542,-35.218929033138565,27.337483840150185
2025-02-19 15:41:37.758,781,-1,627,-2,-2,-4,-5,-8,16,733,78,j,0.09138075108799634,51.241878773166405,1560.7957555217654,-1.9984580736514277,0.966787820554714
2025-02-19 15:41:37.854,756,-15,590,2,-9,-14,-6,-9,15,669,87,j,1.4563586343396875,52.02171522857097,1544.2440340811477,-30.63976258097515,-25.16399485168938
2025-02-19 15:41:37.958,807,-102,640,-3,-11,31,-8,-9,15,756,90,j,9.055357508085182,51.233111767363724,1586.6999549786083,-200.54943668874603,21.65059332551516
2025-02-19 15:41:38.069,770,85,523,-58,-2,28,-5,-7,17,246,105,j,-9.231220410208165,55.46686479604557,1593.7984876720411,175.9387940936669,-36.54105071750337
2025-02-19 15:41:38.178,314,-281,725,-5,-56,-39,-7,-9,14,797,85,j,21.185643827993733,21.990426950442835,688.4516731650697,-616.0984718451737,-139.57790778559047
2025-02-19 15:41:38.284,787,-41,603,1,-17,55,-7,-9,15,836,90,j,3.889746081747664,52.476824676161954,1580.1070401016877,-82.31815583757202,-4.679218781852001
2025-02-19 15:41:38.388,541,-82,714,-5,-2,0,-6,-8,14,784,43,j,6.551484381857864,36.97079089719179,1142.407804564275,-173.15608128330973,-79.72490288150163
2025-02-19 15:41:39.208,799,41,626,4,3,-8,-6,-11,13,319,73,k,-3.747247001733573,51.862486794340796,1585.5308620707774,81.36015687722387,9.769312069703915
2025-02-19 15:41:39.304,787,22,540,1,-5,-14,-6,-12,16,298,87,k,-2.332982301969856,55.52186859533363,1611.3423139490972,45.043876628818474,-25.622426343726147
2025-02-19 15:41:39.411,830,297,539,-25,-12,52,-5,-9,15,0,96,k,-28.85566121971652,53.44460490996734,1633.2813944444279,584.4392459638495,17.35099806560629
2025-02-19 15:41:39.518,554,-179,666,9,-18,-25,-6,-8,14,741,81,k,15.043803674180916,38.77571468754725,1180.2734259405343,-381.35188311075024,-86.88466006569627
2025-02-19 15:41:39.628,662,-44,674,5,20,-5,-6,-9,16,595,92,k,3.7350773549822787,44.42447710219282,1361.9685036912172,-90.52358634805674,-38.65675451341474
2025-02-19 15:41:39.735,723,8,610,-84,-50,68,-6,-9,14,472,92,k,-0.7513769830242889,49.84301869396445,1487.2804344558253,16.45676829273389,-34.82858232095896
2025-02-19 15:41:39.842,1039,86,641,0,66,7,-7,-6,16,719,81,k,-7.64147755005842,58.099092267680746,1887.9633155175513,156.27030330559137,117.24111140832497
2025-02-19 15:41:40.558,728,10,656,1,-3,-4,-7,-9,14,438,63,l,-0.8733436290602005,47.97471043571267,1470.8494081055733,20.203975386065565,-13.380785325901115
2025-02-19 15:41:40.655,718,9,648,5,-8,-7,-7,-10,13,421,68,l,-0.795723552739274,47.93077971823354,1460.3358920525175,18.3050460006583,-21.96331204739772
2025-02-19 15:41:40.766,699,20,603,8,-15,-16,-6,-10,14,369,84,l,-1.8996611388513196,49.20136364962945,1456.0106069626527,41.65981708047647,-50.04348497636556
2025-02-19 15:41:40.869,729,70,676,5,-8,51,-7,-11,14,470,88,l,-5.9119244769802,47.00794219815099,1460.4482315053012,140.235083957985,-2.270239365683892
2025-02-19 15:41:40.976,793,18,632,21,6,14,-7,-8,15,460,91,l,-1.6314008035322296,51.43476033623653,1574.8988252899544,35.74801873293717,8.84734226576154
2025-02-19 15:41:41.085,573,-101,724,-17,9,-5,-6,-9,13,428,50,l,7.941666536802079,38.09098080148684,1189.9119923481458,-209.740159209708,-55.48391354285741
2025-02-19 15:41:41.904,793,15,686,-2,0,-2,-7,-9,12,404,73,m,-1.252623559056397,49.13114586250774,1549.209273171361,29.30408461232083,31.826530396527573
2025-02-19 15:41:41.999,734,13,650,0,-2,-3,-8,-9,15,382,73,m,-1.1457628381751033,48.46754243852548,1482.5802321320973,26.258232994165212,-12.911649708260597
2025-02-19 15:41:42.110,797,91,715,-4,-6,-14,-6,-10,16,323,89,m,-7.253194612725333,47.87535762812987,1538.6874282236786,175.6845118799934,49.62169237148032
2025-02-19 15:41:42.216,768,171,630,-15,-8,36,-6,-9,14,191,92,m,-15.185837262201321,49.63569033570666,1529.9418826392346,340.65112230639204,4.969549397502988
2025-02-19 15:41:42.320,791,-33,671,-2,-3,-37,-7,-9,15,593,88,m,2.8155566842112285,49.65813770924736,1553.1955590460705,-64.79829765931774,24.43461426053932
2025-02-19 15:41:42.429,779,146,585,-17,-9,43,-7,-8,15,592,94,m,-14.013196092052466,52.260238718121016,1569.7989639438815,294.2113590960292,-8.860582679295021
2025-02-19 15:41:42.540,779,-181,664,-8,-11,-24,-6,-10,15,762,90,m,15.247817087255187,48.54019056248058,1528.4203363893153,-355.12718984141986,25.212961023741514
2025-02-19 15:41:42.642,811,78,577,14,8,38,-6,-9,16,730,96,m,-7.698687343686041,54.32397318636585,1623.3276158816352,156.12768685421395,-0.9445553189930251
2025-02-19 15:41:42.751,544,-137,733,-11,17,0,-6,-7,14,749,44,m,10.586615453094284,36.11160256664013,1133.3599656385181,-285.42337369940617,-61.119218406311575
2025-02-19 15:41:43.567,737,31,635,4,-2,-8,-7,-9,13,239,82,n,-2.794897858662091,49.21805150158384,1494.2008835566103,62.849697951499216,-17.405103200064673
2025-02-19 15:41:43.667,755,-10,639,-2,0,-7,-7,-10,14,323,89,n,0.8965743795383533,49.7533792086275,1518.270575759751,-20.109544049798025,-6.999864782093823
2025-02-19 15:41:43.769,778,107,577,6,0,11,-5,-8,14,258,91,n,-10.50569962083011,52.973130411705675,1576.3531933882996,216.799218113815,-15.09484908103957
2025-02-19 15:41:43.883,863,-138,618,-16,-14,-37,-7,-8,13,602,86,n,12.58769338164879,53.73089586129023,1669.2473989948903,-266.9248447987194,40.640912423126224
2025-02-19 15:41:43.986,798,134,596,-4,-7,43,-6,-9,16,735,92,n,-12.67123300407312,52.565533931563465,1592.0491120904933,267.3365676943936,2.9507884637417874
2025-02-19 15:41:44.096,679,17,605,-27,58,21,-5,-8,15,746,49,n,-1.6095405300744126,48.28721391534057,1425.4897113711609,35.68972767792302,-60.1344261849074
2025-02-19 15:41:44.910,770,3,616,-4,-1,-1,-7,-8,16,683,85,o,-0.2790356811815523,51.339860298006826,1550.8651956583162,6.042331931136298,-8.69215652665298
2025-02-19 15:41:45.006,776,4,611,-3,-3,1,-7,-9,16,683,85,o,-0.3750897610209729,51.78352873375365,1561.6790820025712,8.049892175270985,-7.621029772642942
2025-02-19 15:41:45.110,767,23,607,1,-2,-3,-7,-8,14,741,91,o,-2.169971653706253,51.62208014348132,1550.9327715937452,46.5077623815595,-13.400511548113741
2025-02-19 15:41:45.220,753,-4,630,4,2,-19,-5,-10,14,633,92,o,0.36377783886457454,50.08177974548268,1519.96112984428,-8.074162708336146,-11.680626562943303
2025-02-19 15:41:45.333,842,379,484,11,-19,68,-7,-9,16,749,91,o,-38.06299880286092,53.867303205701425,1649.6535176011375,742.5400037658327,19.74310864732729
2025-02-19 15:41:45.440,866,-19,535,10,8,-42,-7,-9,16,813,94,o,2.033948569142771,58.27678849744127,1716.5981620378302,-37.66208438651129,9.51499227455065
2025-02-19 15:41:45.543,633,7,625,-33,38,30,-6,-8,15,751,55,o,-0.6416859004175293,45.36255962806827,1344.5670666400247,14.868830120821759,-77.57411793051415
2025-02-19 15:41:46.560,770,10,624,2,-9,-4,-8,-8,14,712,75,p,-0.9181230023350578,50.97545229084956,1546.8762651499733,20.08930214480485,-5.572453835822671
2025-02-19 15:41:46.660,770,27,613,-11,4,-6,-6,-8,16,700,81,p,-2.5220013282783933,51.449508374820496,1552.0592650637104,54.422857346389854,-9.600427901369585
2025-02-19 15:41:46.766,762,-96,573,-3,7,-8,-7,-9,15,647,92,p,9.51096037929061,52.67632294141151,1557.2229927007247,-196.18557388355586,-24.982644117474024
2025-02-19 15:41:46.874,818,116,568,7,1,23,-7,-6,15,556,98,p,-11.54252570043687,54.674451136528575,1633.8798354230585,231.69934096463913,1.4721925179740083
2025-02-19 15:41:46.983,742,-180,686,3,-19,-24,-7,-9,15,819,91,p,14.702443438109622,46.29388571205929,1464.8934146524978,-355.3649792957541,17.664578906181646
2025-02-19 15:41:47.083,808,93,520,-8,6,42,-7,-8,16,616,98,p,-10.139925107154083,56.82431017016791,1644.9965651082155,189.33747593448516,-18.661155762712724
2025-02-19 15:41:47.192,550,-79,651,-25,33,10,-7,-7,14,746,51,p,6.9191122209767935,39.986600362059285,1192.608438980707,-171.30193941722882,-109.61471595716398
2025-02-19 15:41:47.912,778,11,617,-1,-2,-1,-6,-9,13,748,78,q,-1.021372468577071,51.57907112204419,1561.4665135348869,22.07729003712565,-4.335268446047962
2025-02-19 15:41:48.008,768,5,614,-1,-6,-2,-6,-8,17,765,82,q,-0.4665676959696719,51.357465891500354,1549.0571137081797,10.085007250704294,-10.438890386487401
2025-02-19 15:41:48.114,793,17,586,-3,1,-2,-5,-9,16,725,92,q,-1.6616981982677077,53.52534116765785,1597.1198642583718,34.238382966446814,-8.217201078696121
2025-02-19 15:41:48.225,737,-45,636,2,3,-16,-7,-9,14,620,93,q,4.047201915122181,49.136415197470434,1493.2694468853438,-91.17656052895586,-16.62872214257618
2025-02-19 15:41:48.332,840,172,565,4,-17,42,-7,-9,17,520,92,q,-16.931548262359478,54.88910519281456,1658.0403652384016,339.50350335833934,14.770468619408462
2025-02-19 15:41:48.440,808,-131,628,-2,-4,-14,-8,-9,16,772,94,q,11.782861521396272,51.55191525123741,1591.1718910867814,-257.9746506588717,19.297094551363216
2025-02-19 15:41:48.542,819,194,501,7,-7,19,-6,-6,15,428,97,q,-21.16767627679508,56.73583561364397,1655.1505838856103,392.0625314698516,-10.49138281647231
2025-02-19 15:41:48.651,877,-17,649,0,17,9,-7,-6,15,814,89,q,1.500470835654396,53.488318424778086,1680.7355702814218,-32.57982291309483,54.21734878832058
2025-02-19 15:41:48.762,647,-79,674,-2,-8,-13,-5,-6,14,755,48,q,6.685174369751376,43.63383526963109,1337.0470736399698,-163.25613418478764,-44.843473930973005
2025-02-19 15:41:49.573,751,20,633,1,0,-3,-9,-7,14,389,78,r,-1.8096911586829085,49.85917272719733,1515.462223369731,40.358514603721204,-11.346987207775896
2025-02-19 15:41:49.675,770,27,562,-7,0,-4,-7,-11,15,298,90,r,-2.7505293454578745,53.84395399698903,1577.4131530420618,55.31188978199437,-27.306742869660525
2025-02-19 15:41:49.782,763,149,605,-23,-15,33,-7,-10,14,209,94,r,-13.835519487377448,50.76438180810357,1537.551434988492,300.25578481426646,-9.15939471564559
2025-02-19 15:41:49.891,788,-135,654,2,1,-38,-7,-7,16,500,91,r,11.66329403486387,49.720495372428545,1550.8996451872883,-265.699812310005,20.83202036486489
2025-02-19 15:41:49.999,779,45,610,-20,33,15,-6,-9,13,738,74,r,-4.219095349248455,51.861598256612616,1565.5212850519938,90.43447731365816,-5.889581362921945
2025-02-19 15:41:50.101,786,5,633,8,-10,-4,-7,-9,15,704,66,r,-0.4525638858464698,51.15312127610223,1564.8250243618447,9.954357661334889,5.778320075002853
2025-02-19 15:41:50.207,737,-24,644,0,0,0,-6,-7,14,692,63,r,2.1342587625022915,48.83292325130503,1489.7932802243217,-48.514299491701124,-13.800369693980088
2025-02-19 15:41:50.315,751,-6,645,-2,1,-2,-6,-9,14,659,61,r,0.5329686226542456,49.3409816129132,1509.6005647897575,-12.060723553579953,-6.527782009844941
2025-02-19 15:41:51.333,761,-8,635,0,-1,0,-5,-7,15,727,71,s,0.721798405882954,50.155184320098,1528.7826068696327,-16.07130204330757,-5.659599687538275
2025-02-19 15:41:51.433,767,-21,610,3,-6,3,-7,-8,15,753,76,s,1.9716989716717572,51.488013879309236,1549.4779113656384,-42.42377593048033,-12.309681790142804
2025-02-19 15:41:51.532,802,5,691,0,-8,-5,-7,-9,15,784,93,s,-0.414578723432429,49.25120223438856,1559.57868104152,9.723059108737658,38.273231172455894
2025-02-19 15:41:51.648,741,-50,619,10,5,-22,-7,-8,17,661,94,s,4.6180656719785524,50.034353276858454,1507.4297065763556,-101.71590462728446,-21.24289928578139
2025-02-19 15:41:51.751,800,96,608,19,-13,37,-6,-10,14,730,91,s,-8.972626614896393,52.424763902732536,1592.5532811853018,191.1063937422362,5.659506299170744
2025-02-19 15:41:51.863,819,14,575,-9,4,18,-7,-7,16,674,96,s,-1.3947521079068832,54.92025485348704,1637.3529386371736,27.98893912200296,0.454286060592608
2025-02-19 15:41:51.973,1037,102,647,-10,42,16,-7,-6,15,554,80,s,-8.958983680116596,57.72263875299011,1882.4729009511793,185.16126894601763,119.49665678359406
2025-02-19 15:41:52.075,567,-70,697,-5,-11,2,-7,-6,12,527,41,s,5.735008951155152,38.987214643435095,1196.1469579287527,-147.67246394182132,-76.39581953499248
2025-02-19 15:41:52.182,777,-21,665,-3,0,-7,-7,-7,14,409,49,s,1.8087393224920654,49.427134722627166,1536.5794225009422,-41.52917358110655,14.909503264959312
2025-02-19 15:41:52.292,745,-6,666,-3,-2,-5,-6,-6,14,398,48,s,0.5161642297648367,48.203413004249185,1490.5157024740824,-12.004153308516102,-0.4610172452871666
2025-02-19 15:41:52.398,727,-24,659,0,-2,-6,-5,-8,13,418,49,s,2.085722680852593,47.78990099700632,1467.6861867354196,-48.451813592365994,-12.406048223716198
2025-02-19 15:41:52.505,734,-30,663,-3,-1,-1,-5,-7,13,363,50,s,2.590801985195112,47.880302856155716,1475.7453178630644,-60.316566125193376,-6.996111366773562
2025-02-19 15:41:52.611,737,-12,669,-7,0,-5,-6,-9,14,409,51,s,1.0276167864416665,47.76431789159628,1477.3861250393202,-24.055133650572376,-3.0737010194098957
2025-02-19 15:41:52.722,731,-24,653,-7,-1,-7,-6,-8,13,455,50,s,2.10486989482592,48.20647083808131,1476.551271392603,-48.47774352041377,-12.998604951258017
2025-02-19 15:41:52.825,732,-21,672,3,-9,-4,-5,-9,15,526,55,s,1.7899106082460694,47.433117926105524,1468.4882098488247,-42.12876011861381,-4.12032379564198
2025-02-19 15:41:54.644,749,13,636,3,-8,-5,-8,-8,14,735,76,t,-1.1709770858537716,49.658438027391306,1511.198952130219,26.229087286639313,-11.207654946353955
2025-02-19 15:41:54.742,669,3,619,1,-15,-16,-7,-10,14,757,89,t,-0.2776833485426913,47.22276333153478,1402.9997452786265,6.29147867837949,-60.14176730563486
2025-02-19 15:41:54.849,709,-51,637,8,-1,-22,-7,-11,15,696,91,t,4.5774962133817825,47.9709204627027,1451.8051234655936,-104.43168024928812,-30.37216311365728
2025-02-19 15:41:54.950,804,161,557,-3,-5,34,-6,-8,14,149,93,t,-16.121857113581047,54.20287836145329,1615.0932044169656,323.4204053621038,-4.914073209266007
2025-02-19 15:41:55.065,774,-48,669,-8,56,-15,-8,-8,14,596,69,t,4.103875472636941,49.08900886605342,1529.7278553643405,-94.86684374352497,15.793365324620709
2025-02-19 15:41:55.170,794,-7,422,-20,-4,-8,-5,-10,13,318,88,t,0.9503167717468689,62.006708198515696,1677.0025526086338,-14.784657264811628,-47.30362367864393
2025-02-19 15:41:55.270,677,73,680,3,-16,8,-7,-9,15,726,93,t,-6.127403618975418,44.70920310795515,1380.5088655712716,148.85841534224937,-26.62633469492573
2025-02-19 15:41:55.387,898,108,620,-37,63,18,-7,-10,14,655,67,t,-9.881406120350205,54.97646867692577,1716.91640790479,206.48883302195688,54.60114376284014
2025-02-19 15:41:56.204,773,42,643,6,-6,-3,-7,-9,15,397,81,u,-3.7371836722669247,50.18552521457851,1541.12178645935,83.73494829403973,4.057815403153654
2025-02-19 15:41:56.297,745,40,637,3,0,-2,-6,-8,14,409,82,u,-3.5931333716366995,49.412752519659676,1504.4161335935396,80.7740205956263,-12.326277985348838
2025-02-19 15:41:56.404,759,50,642,2,0,-3,-8,-9,15,321,84,u,-4.453298744393908,49.68835354379483,1521.5368416243193,100.23299351938863,-2.991636788950018
2025-02-19 15:41:56.513,781,21,630,-6,-2,-8,-6,-11,14,242,87,u,-1.9091524329963763,51.09278724892928,1559.1640904425112,41.923746349926674,2.2876095021996434
2025-02-19 15:41:56.622,793,224,582,2,-19,52,-6,-9,14,487,90,u,-21.05070369834388,51.818343416848336,1579.0548382130673,446.0381888521147,5.097205750309058
2025-02-19 15:41:56.731,739,-158,675,-9,3,-33,-7,-10,15,725,92,u,13.174265636203682,46.829757719735866,1468.3240624460718,-313.93126098305726,8.837967319217341
2025-02-19 15:41:56.834,785,182,563,-7,-9,46,-7,-8,14,623,94,u,-17.91437081704765,52.99317389662114,1583.563805353987,367.1447293941728,-9.72792664241365
2025-02-19 15:41:56.945,719,-82,583,-36,58,6,-6,-8,14,714,54,u,8.00623465964502,50.68836787047486,1492.711605454262,-170.23971021870582,-44.36281777445731
2025-02-19 15:41:57.051,709,-45,661,9,-17,-19,-6,-7,12,567,46,u,3.894611017513303,46.940545791067784,1439.6456176013598,-91.37384032730772,-20.1801879188979
2025-02-19 15:41:57.150,709,-47,665,-3,0,-2,-6,-7,13,410,50,u,4.042753642027797,46.76294038821699,1437.5257015139377,-95.29436949387173,-18.313951349461718
2025-02-19 15:41:57.264,750,-51,650,2,1,-5,-6,-8,14,358,52,u,4.486323817888329,48.99857949757038,1504.6933146838082,-102.31914539849893,-4.067539392633648
2025-02-19 15:41:57.371,741,-23,646,0,-2,-2,-7,-7,13,358,54,u,2.039081308799968,48.90027166469108,1494.566509200636,-46.390053591922566,-10.955418277477293
2025-02-19 15:41:57.478,749,-17,657,-1,-1,-2,-7,-6,14,396,55,u,1.4822084628570968,48.734241249728896,1500.658431200363,-34.06033822484136,-2.331894924751168
2025-02-19 15:41:57.588,758,-21,650,-3,-2,-1,-7,-8,12,412,55,u,1.850450768670028,49.37148874483337,1516.9473781504153,-42.02624662421995,-0.8123955115698891
2025-02-19 15:41:59.200,753,37,639,0,0,-4,-7,-8,14,461,81,v,-3.3138957428443088,49.63456632155621,1514.9291771484677,74.43875106838422,-7.577349532365133
2025-02-19 15:41:59.300,746,43,637,1,-2,-5,-6,-11,14,405,84,v,-3.8618312554152956,49.44207391031958,1505.7489844793645,86.79250178634405,-11.740084602352681
2025-02-19 15:41:59.407,764,46,634,-2,0,-5,-6,-10,13,276,88,v,-4.149835290981962,50.23872031576506,1532.715932335443,92.28394356993506,-3.913483116061343
2025-02-19 15:41:59.517,770,25,621,-16,-21,60,-6,-9,14,591,89,v,-2.305348506496879,51.09137777834326,1548.1486399671733,50.26456623270043,-6.571825220278697
2025-02-19 15:41:59.620,782,38,505,1,-12,-46,-7,-8,14,617,96,v,-4.303255863611781,57.07267472092928,1621.360720424692,78.7873495858546,-37.04240896990984
2025-02-19 15:41:59.727,844,71,618,-8,3,9,-6,-8,15,761,91,v,-6.553791212563023,53.60815287955435,1648.978229505186,138.71736290861162,28.572812992648096
2025-02-19 15:41:59.830,658,-68,674,7,-7,1,-7,-8,14,705,63,v,5.761088817298879,44.166782789459944,1354.7493570117142,-140.0044928218793,-39.691590616862186
2025-02-19 15:42:00.650,760,31,648,-1,-1,-1,-6,-10,12,412,80,w,-2.7389136286864697,49.51570668302923,1520.5839723842716,62.02381992620055,-0.497913296063075
2025-02-19 15:42:00.750,750,41,650,-3,1,0,-7,-8,13,345,79,w,-3.609259826509349,49.02930872961294,1505.0450778555683,82.27579758943773,-4.372400808159341
2025-02-19 15:42:00.861,647,-6,636,13,-19,-23,-5,-9,13,400,88,w,0.5405101871306666,45.48994765655274,1360.1274661066457,-12.61323770732593,-65.00319697654822
2025-02-19 15:42:00.962,766,7,662,4,-1,-22,-7,-11,15,388,86,w,-0.6058240328054,49.163863055160206,1522.5827870757735,13.913941918447014,8.138635712582413
2025-02-19 15:42:01.073,794,108,633,5,-15,15,-6,-8,14,647,94,w,-9.682351001648154,51.03581389669351,1571.5391791690076,213.76099666278694,13.123047337554453
2025-02-19 15:42:01.180,752,-71,671,4,0,-16,-7,-8,15,756,92,w,6.040118393858738,48.09937244662619,1496.3042315016069,-141.27340483592297,6.866835987263244
2025-02-19 15:42:01.285,818,154,620,1,-4,20,-7,-9,15,590,97,w,-13.94923399872552,52.010965258008305,1606.1285643792949,302.3762822914565,22.640941424006314
2025-02-19 15:42:01.393,814,33,582,5,6,-2,-7,-9,16,790,97,w,-3.245254903890165,54.39218022981892,1627.0213049028162,65.9603231717358,0.6997549712051523
2025-02-19 15:42:01.504,647,-99,674,-19,20,6,-6,-7,15,727,52,w,8.356096575708206,43.52366643162153,1335.65413803628,-204.3736625434184,-43.392409639030234
2025-02-19 15:42:02.420,770,-15,621,0,-2,-2,-6,-9,15,723,72,x,1.3836869673685084,51.105883688882685,1548.3076297876569,-30.16183694391539,-6.700049478097185
2025-02-19 15:42:02.516,778,-7,622,0,-2,-2,-7,-8,16,741,75,x,0.644780587823116,51.3563888649169,1559.045375191038,-14.027400547991343,-2.434734407230735
2025-02-19 15:42:02.622,787,-9,614,0,-3,-1,-6,-7,15,753,78,x,0.8397802757080026,52.03644783412863,1575.4022377737292,-18.01603575598928,-1.0939949086019851
2025-02-19 15:42:02.732,680,-51,618,8,-20,-11,-6,-7,15,777,89,x,4.717602504561685,47.637907924894314,1418.9013096340204,-106.41759822255153,-53.530896108565685
2025-02-19 15:42:02.839,675,-37,663,16,21,7,-5,-9,15,439,97,x,3.1941887645005127,45.46931490298957,1387.8749707409934,-76.07610950728409,-37.20163792782034
2025-02-19 15:42:02.945,825,105,615,4,11,-43,-6,-7,13,444,91,x,-9.688786560366802,52.901924918769595,1622.6041938534277,206.5132610358908,20.422328218353755
2025-02-19 15:42:03.057,1144,-59,611,-26,-30,17,-6,-10,14,599,91,x,5.515552333123477,61.78309754531061,2025.164009595444,-104.44464734801677,140.37831305697893
2025-02-19 15:42:03.159,780,2,588,20,3,13,-6,-8,15,718,98,x,-0.19488285223860277,52.98916745244359,1578.5217144467438,4.047491575504471,-13.96252319831433
2025-02-19 15:42:03.262,645,-77,691,-13,13,0,-5,-6,13,584,55,x,6.358392437646206,42.85170855170168,1325.1032072907924,-158.1906154440171,-37.60669184176379
2025-02-19 15:42:04.080,750,33,633,-1,-1,-2,-6,-9,15,628,75,y,-2.9842821435933766,49.79730528893885,1513.765670894767,66.60568951936973,-11.618226235183442
2025-02-19 15:42:04.179,710,1,643,3,-9,-7,-6,-8,14,642,80,y,-0.0891068947430828,47.83491304884056,1451.2137700947274,2.043963056471447,-28.268245311140504
2025-02-19 15:42:04.288,774,41,628,-3,2,-4,-6,-9,14,589,88,y,-3.735346933972919,50.885548885958656,1549.8873136344523,82.09997397805238,-1.5313087369974028
2025-02-19 15:42:04.400,757,-40,617,-12,-5,-16,-7,-9,13,442,90,y,3.7092843915065195,50.759065569578816,1531.4927435801392,-80.92431934373258,-14.257625877075043
2025-02-19 15:42:04.500,858,190,593,10,-6,35,-6,-9,15,729,93,y,-17.765704030173918,54.02966806146459,1667.3212442549343,369.22032215435604,33.64394190772043
2025-02-19 15:42:04.609,771,-16,618,8,3,-14,-7,-9,14,776,91,y,1.4830545774750703,51.27648900545258,1551.1737769017218,-32.19037669316154,-7.353299773364597
2025-02-19 15:42:04.718,789,122,559,-7,-4,42,-8,-8,14,101,99,y,-12.311573567090411,54.05154869275106,1598.5454939820947,247.1768697919082,-14.556313226857924
2025-02-19 15:42:04.820,724,-14,631,-29,49,18,-6,-9,11,244,66,y,1.2710132021648664,48.919336887365716,1477.785208499181,-28.57595707042615,-25.959207959921628
2025-02-19 15:42:04.931,733,0,686,2,-13,-8,-6,-6,11,487,51,y,0.0,46.897052519629604,1463.1271258398701,0.0,2.6886653122088546
2025-02-19 15:42:05.750,741,-6,655,0,-3,-1,-6,-9,14,677,66,z,0.524832155798528,48.52403483287204,1490.233615359719,-12.066668950281123,-7.27802707235594
2025-02-19 15:42:05.845,764,5,642,6,-4,-2,-7,-8,13,680,75,z,-0.44621979066314077,49.958333850506406,1529.5767980652386,10.010319359065697,-1.3250057040354477
2025-02-19 15:42:05.952,747,16,631,10,-4,-9,-7,-8,13,526,83,z,-1.4525135896837489,49.80273513834072,1510.8268400874188,32.36041424551365,-14.213836807444864
2025-02-19 15:42:06.062,748,28,693,9,-2,-19,-5,-10,13,488,90,z,-2.3137224978242164,47.16250348043419,1481.2850553894377,55.449173196396075,13.63296338919747
2025-02-19 15:42:06.162,651,37,676,5,-15,9,-6,-9,13,789,91,z,-3.132885616224766,43.877888925859416,1344.123708017056,76.39412779820442,-43.7413619347617
2025-02-19 15:42:06.270,938,107,453,-10,12,1,-6,-10,12,640,91,z,-13.289858131137253,63.60793401931835,1833.7733224011986,209.1830975446996,20.39305432010366
2025-02-19 15:42:06.380,639,20,684,-3,-26,9,-5,-9,15,789,97,z,-1.6748379905292097,43.039702238870696,1321.5049767109545,41.361658113018926,-46.56870746524726
2025-02-19 15:42:06.490,655,92,619,-24,70,-26,-6,-7,15,691,70,z,-8.453803879076203,46.30604071138546,1378.039981833171,193.55676080710188,-64.30037977821803
2025-02-19 15:42:06.600,1030,134,561,-36,-38,-11,-6,-11,12,672,89,z,-13.43391305579982,60.751953371065305,1902.5126650107932,247.51135641887987,85.77708245528646
2025-02-19 15:42:06.700,796,109,598,11,3,9,-5,-9,15,804,0,z,-10.330138894806977,52.63341093664214,1590.7686650383844,217.831387549226,0.9250481244297362
2025-02-19 15:42:06.812,627,-56,686,-12,13,5,-7,-9,13,732,52,z,4.666858371438996,42.33239100398315,1300.4305413419215,-116.1469064037442,-50.79960344586641
2025-02-19 15:42:08.030,779,45,633,0,-3,-4,-6,-10,14,699,70,0,-4.066318774805974,50.832673819837346,1554.3047873325645,89.78654098840232,3.0026567631408625
2025-02-19 15:42:08.127,777,43,628,-1,-2,-4,-5,-9,14,715,72,0,-3.9170048991635773,50.98805675687225,1554.0147634207588,86.00081702328524,-0.011932340072803527
2025-02-19 15:42:08.233,790,54,638,0,-2,-3,-6,-10,15,737,76,0,-4.83795524115997,50.975837846196065,1566.8805022017702,107.10322420113366,10.595239994013468
2025-02-19 15:42:08.344,796,53,736,-2,-7,-20,-6,-10,17,743,92,0,-4.118809271876051,47.16894749214102,1529.3615209750787,101.82934750210953,57.916985631082866
2025-02-19 15:42:08.451,957,48,605,23,12,68,-6,-11,17,643,89,0,-4.536278679735616,57.618336109217346,1801.4993604887215,90.35733469535907,71.12109394391166
2025-02-19 15:42:08.550,623,-12,710,-4,-14,-56,-6,-9,16,815,98,0,0.9682871795413129,41.261755254844275,1282.5000546173012,-24.703050811248175,-41.59717299885028
2025-02-19 15:42:08.663,1061,132,626,-3,29,19,-5,-11,14,749,86,0,-11.907107815037008,58.91071277032666,1917.36364747776,238.5410004402114,120.73737670020967
2025-02-19 15:42:08.770,610,-35,697,-49,31,7,-5,-7,12,699,32,0,2.874704856587518,41.15599228623721,1268.1113514117696,-72.76048737608514,-54.97313431803843
2025-02-19 15:42:09.790,766,-5,660,-4,4,-2,-7,-9,15,498,64,1,0.43405063213940953,49.25038153100683,1523.5693310763427,-9.944969523997015,7.264022832393948
2025-02-19 15:42:09.884,751,39,645,9,-7,-8,-8,-8,14,397,78,1,-3.460183228986457,49.29052579485792,1509.0264974017014,78.36489134309767,-6.034741443538337
2025-02-19 15:42:09.990,812,54,571,6,4,-1,-7,-11,15,269,87,1,-5.402447398448658,54.76492620753885,1628.791880388565,108.31867184850063,-3.369659731367733
2025-02-19 15:42:10.100,696,-11,682,1,-1,-8,-6,-12,16,702,90,1,0.9240453527727062,45.57836007155361,1410.2083742313052,-22.28777602951775,-17.84211383010063
2025-02-19 15:42:10.207,843,309,506,-2,-4,51,-6,-10,15,713,93,1,-31.411241227676264,54.880970928472436,1660.9587015895129,608.8211610808535,15.030720042356393
2025-02-19 15:42:10.319,539,-118,571,15,-7,-24,-7,-10,13,473,90,1,11.676096278355004,42.75106477246762,1217.8143919076156,-266.60871659573036,-148.11506081493235
2025-02-19 15:42:10.421,702,55,604,-4,-36,9,-7,-9,17,294,93,1,-5.202981793103891,49.17434116844752,1458.7023576896959,114.2857972548907,-47.0658462173451
2025-02-19 15:42:10.527,832,57,613,3,5,20,-5,-8,17,767,92,1,-5.31239064006225,53.50014402593289,1635.8583558366206,112.07202678207616,20.73416811556706
2025-02-19 15:42:10.638,564,-106,687,-10,2,1,-5,-5,13,577,41,1,8.771228772828689,39.054480084018884,1194.0590610005602,-224.4153554362755,-80.46555834642697
2025-02-19 15:42:57.340,704,-156,676,-17,3,0,-6,0,15,749,35,2,12.994616791916505,45.41947211882379,1416.2646333976754,-313.831367627894,-7.935926387540803
2025-02-19 15:42:57.437,732,-197,687,-37,8,-16,-5,-3,13,694,33,2,16.00045621408423,45.68563173887647,1447.517567180857,-389.56415400905587,15.469168506490519
2025-02-19 15:42:57.543,638,-162,660,9,-20,-25,-5,-3,14,578,31,2,13.790866897360983,43.19200288448565,1322.4453527385233,-335.79333408094163,-48.04691662605853
2025-02-19 15:42:57.650,726,-193,655,-5,-19,-4,-5,-4,15,535,37,2,16.417951462043227,46.75460661787831,1454.4260566855007,-386.64494344394166,-2.1887976983510953
2025-02-19 15:42:57.757,825,-116,596,9,-9,-7,-7,-5,16,743,43,2,11.013832890351413,53.64766767741791,1630.3872182849914,-229.24232402552605,14.168748972297294
2025-02-19 15:42:57.866,637,-159,664,-2,-4,-9,-7,-4,17,840,41,2,13.46635752766635,43.01369686664088,1319.1731746399596,-329.2755647845425,-47.087893188278144
2025-02-19 15:42:57.974,852,-92,595,-4,-6,-18,-6,-5,15,849,57,2,8.789573629052924,54.752846818138195,1668.6702303913817,-180.18504835212104,24.672785113999907
2025-02-19 15:42:58.077,750,-149,630,1,6,8,-6,-7,17,847,57,2,13.306400403902376,49.20011072093373,1506.9963183496204,-299.3899352454579,-5.876907413681124
2025-02-19 15:42:58.187,755,-103,614,8,-9,-10,-7,-6,17,857,65,2,9.522840568950553,50.49072304754197,1526.5215837087262,-208.25393790993218,-13.436095890275283
2025-02-19 15:42:58.293,848,-42,585,4,-6,-11,-7,-7,17,852,82,2,4.106497165170428,55.33094251496862,1670.4513598291414,-82.73461923682069,17.62494634428333
2025-02-19 15:42:58.400,713,-94,647,-2,9,-2,-7,-6,17,865,68,2,8.266432093554156,47.48040840171883,1450.04628381886,-191.17019730571224,-21.82040060421093
2025-02-19 15:42:58.506,808,12,599,-9,5,-20,-6,-9,16,814,79,2,-1.1476751197147808,53.443605620977856,1611.271006537565,23.92976742382522,3.505776094057751
2025-02-19 15:42:58.616,871,-38,727,8,-5,-15,-7,-9,17,667,100,2,2.992104601496045,50.11071014441083,1638.2850428485563,-71.4751224204881,86.56805263960916
2025-02-19 15:42:58.723,666,-45,710,7,-22,8,-8,-9,17,826,97,2,3.626571783879617,43.11118772990095,1349.4163341281915,-91.17677933298592,-18.566962809333404
2025-02-19 15:42:58.832,878,228,490,-17,10,35,-6,-8,16,764,105,2,-24.952847250010283,58.38585890408724,1729.5975839314551,449.14379172707487,14.73483356900573
2025-02-19 15:42:58.940,774,152,534,48,-53,27,-6,-6,17,787,105,2,-15.88869549438219,54.34707644068163,1586.5627128761282,311.57303922115176,-26.60528252694121
2025-02-19 15:42:59.047,1130,2,647,-31,81,12,-7,-6,18,828,90,2,-0.17711158274607872,60.20588065184581,1997.8164565838588,3.5359583302369186,150.11748016835696
2025-02-19 15:42:59.150,675,-50,709,-14,36,3,-5,-6,12,693,36,2,4.033926535817063,43.521756706539165,1363.6299696865424,-101.00962738418832,-14.31651630779038
2025-02-19 15:43:00.075,735,-68,650,-3,-3,-10,-7,-6,14,770,55,3,5.972295547965294,48.3571469735527,1482.3013134419448,-137.1380806993908,-10.878712567706202
2025-02-19 15:43:00.165,753,-44,650,-5,-4,-6,-7,-7,14,800,59,3,3.8725757119732624,49.133991710004345,1509.2417724147094,-88.18942627655672,-2.7983427218606494
2025-02-19 15:43:00.270,775,-38,628,-8,-3,-2,-6,-5,13,809,64,3,3.4627200493655605,50.930146178562964,1551.3781297552662,-76.0675728138066,-1.116729659751286
2025-02-19 15:43:00.381,757,-11,634,-3,-1,3,-6,-7,16,835,62,3,0.9939910800396934,50.04902556739453,1523.5941687054992,-22.13941328369946,-8.03527471504185
2025-02-19 15:43:00.489,760,-46,638,-3,-2,-7,-7,-6,16,852,61,3,4.123907560315601,49.914262512929895,1525.0817175022548,-92.30757763829439,-4.265968113735084
2025-02-19 15:43:00.596,775,-19,614,4,-7,-6,-7,-6,15,855,68,3,1.7724308367296686,51.59834395836549,1558.675503728738,-38.21268976883358,-6.8732377928324695
2025-02-19 15:43:00.700,743,-48,645,1,5,-5,-7,-7,16,847,68,3,4.256026725483663,48.96033780891029,1497.2552518723278,-96.72712259740474,-9.770709902626209
2025-02-19 15:43:00.815,640,-280,742,38,-32,-25,-8,-10,15,788,98,3,20.67442476087389,38.903113525132795,1268.005347439237,-554.7523395046662,13.906300312634471
2025-02-19 15:43:00.915,639,-43,758,14,-8,11,-6,-8,16,876,95,3,3.24680842443242,40.08580131083903,1282.9340518482763,-86.3320253982408,-5.852912834105496
2025-02-19 15:43:01.025,940,99,334,13,16,-5,-7,-10,16,771,99,3,-16.510201930105133,69.66533094902611,1877.6788359517425,197.75553697789627,0.8247540341681088
2025-02-19 15:43:01.131,651,-25,737,-16,-13,33,-6,-8,16,822,101,3,1.9428025368152575,41.438159861852164,1312.8113040132273,-50.41518064566926,-12.239525434329721
2025-02-19 15:43:01.231,1196,27,659,14,55,18,-8,-5,17,722,86,3,-2.346162835326742,61.124774978951336,2071.6734188460287,46.76854708097221,176.5010175421968
2025-02-19 15:43:01.348,563,-131,714,1,-31,-28,-6,-7,14,786,53,3,10.396621295855661,37.79606981572684,1175.8528518000016,-273.5998642731798,-63.223687717941516
2025-02-19 15:43:02.064,824,12,589,1,-1,-2,-8,-9,17,773,85,4,-1.1671549210397512,54.43696997203228,1637.4762052846588,23.84674085366008,7.522469766184486
2025-02-19 15:43:02.156,795,0,603,2,0,-3,-7,-9,18,797,86,4,0.0,52.82002599736428,1591.7411886010186,0.0,-1.3206751275650959
2025-02-19 15:43:02.266,794,13,593,0,0,-2,-6,-8,17,803,85,4,-1.255861459775569,53.23913501472763,1595.1403381313103,26.11690729937913,-5.3327714255250385
2025-02-19 15:43:02.377,700,0,585,7,-19,-18,-8,-10,16,812,93,4,0.0,50.114013831395134,1467.3220194275627,0.0,-56.26197337874896
2025-02-19 15:43:02.483,691,-177,729,24,5,-4,-8,-12,17,746,101,4,13.647238333144033,42.64855249295513,1368.4994958859193,-350.5418390330068,14.242934152192447
2025-02-19 15:43:02.590,845,190,636,8,-44,37,-7,-9,17,708,99,4,-16.633101949362725,51.84925181170696,1631.3881905044168,366.8210132495138,44.11492407004869
2025-02-19 15:43:02.696,847,80,580,-6,11,16,-5,-9,17,859,99,4,-7.85331330197822,55.345718948135705,1669.5980336640719,157.6952097911756,16.709729013976812
2025-02-19 15:43:02.807,848,-50,410,-12,-5,-30,-6,-12,17,799,98,4,6.952957468173915,64.03055768515596,1747.0277159160532,-103.00870966486161,-24.671419251865245
2025-02-19 15:43:02.910,869,153,458,8,5,34,-6,-8,18,632,110,4,-18.47247061160724,60.940250844043675,1743.113662744437,306.90033417709884,-2.695117994191321
2025-02-19 15:43:03.020,568,-171,715,-20,41,3,-7,-5,16,780,45,4,13.45026285530152,37.690277028839155,1179.392762441098,-355.06366615744327,-54.622931593987914
2025-02-19 15:43:03.736,766,-60,622,1,-4,-6,-7,-7,16,815,59,5,5.509876259651899,50.793135435750486,1540.8687601871015,-120.69468095460329,-7.201525896053909
2025-02-19 15:43:03.835,788,-34,628,5,-4,-7,-8,-7,16,820,66,5,3.0989753074042734,51.40588151189066,1569.5845106319407,-67.72318954503297,5.112851932920535
2025-02-19 15:43:03.940,697,-67,647,11,3,-18,-7,-9,17,744,71,5,5.912183697539817,46.978163075597486,1428.0937210448856,-137.277301736022,-31.64797348068987
2025-02-19 15:43:04.048,1248,54,599,63,-36,0,-9,-9,15,590,95,5,-5.151303987748773,64.26991479803362,2148.8491888717153,92.97905144156462,166.6212627130147
2025-02-19 15:43:04.154,746,58,603,15,2,29,-6,-9,18,867,97,5,-5.494135079136349,50.921968294382424,1522.2881631475686,118.35484378359112,-24.482255198369785
2025-02-19 15:43:04.265,864,41,455,7,-3,-15,-6,-12,18,565,95,5,-5.149010146330267,62.13217047189236,1748.0282243059623,82.95041342192647,-10.54727090186691
2025-02-19 15:43:04.367,816,101,522,4,-1,19,-7,-8,15,658,99,5,-10.950649742549793,56.9129323340984,1653.8419569423154,204.70347751369346,-13.97242833809878
2025-02-19 15:43:04.472,697,27,808,0,-25,8,-6,-8,17,828,99,5,-1.9138745477516699,40.76602389965621,1349.971594985831,52.29445202958024,51.04010222589511
2025-02-19 15:43:04.588,1110,-17,544,52,36,-14,-7,-7,17,562,96,5,1.7899106082460694,63.87993192441626,2007.873430228588,-30.75121469719459,103.96112968977309
2025-02-19 15:43:04.695,538,-133,746,-5,-17,-25,-7,-6,16,775,47,5,10.108721455045293,35.37415661353406,1116.913448256073,-276.1142911116315,-56.73128698704545
2025-02-19 15:43:05.410,783,-17,598,0,-6,-4,-7,-11,16,792,78,6,1.6283712203838916,52.61880527223059,1577.6139269464725,-34.252154224891484,-8.869895675594307
2025-02-19 15:43:05.507,791,-18,587,-2,-6,-4,-6,-9,16,801,86,6,1.75639005177671,53.408055385490165,1593.9012922998772,-36.27082586775953,-8.831932465269233
2025-02-19 15:43:05.612,781,-21,596,-2,1,-9,-7,-8,17,796,101,6,2.017976194849267,52.63472767360448,1575.7826125243705,-42.37059521512391,-10.51784515304064
2025-02-19 15:43:05.720,921,18,475,51,15,37,-6,-10,17,366,96,6,-2.170170088207698,62.701111033830095,1809.6261262524035,35.36728585509584,16.69662326830428
2025-02-19 15:43:05.830,706,41,741,-7,-20,-11,-8,-7,17,806,101,6,-3.1669825725394407,43.57066865627519,1395.2487291565647,81.02719248642939,17.581716281849367
2025-02-19 15:43:05.930,1109,105,565,-8,23,50,-6,-9,17,740,89,6,-10.527786119963555,62.607215665887026,1996.873334334751,189.06375122195567,112.65695771042891
2025-02-19 15:43:06.040,622,-53,692,-15,-6,1,-7,-6,12,766,45,6,4.379710180695409,41.86730486471227,1289.4077144881935,-109.86914608983,-50.51790743702577
2025-02-19 15:43:06.760,766,-14,623,-1,-7,-3,-8,-8,15,703,72,7,1.2873289415250384,50.87091278750808,1541.7261333851407,-28.17776222897124,-7.9104191892201925
2025-02-19 15:43:06.858,745,-13,637,4,-4,-3,-6,-9,16,671,76,7,1.169139327907419,49.462554512575956,1504.9813583832984,-26.26141967648708,-12.809564147867036
2025-02-19 15:43:06.964,874,92,566,-16,-6,-10,-7,-8,15,521,95,7,-9.232351850900354,56.73126236249787,1710.1068008936004,180.01124219932638,24.539531686753094
2025-02-19 15:43:07.075,621,-116,746,12,-14,1,-7,-9,16,837,95,7,8.838481666267615,39.439169419238915,1256.258632811087,-234.66344831897925,-17.128727982401074
2025-02-19 15:43:07.180,884,243,425,-14,10,37,-6,-8,17,643,99,7,-29.759397582294937,61.02202271012694,1758.8059882198204,483.4726868070321,4.4201979712402135
2025-02-19 15:43:07.287,1393,-172,578,-8,11,-31,-9,-8,17,0,95,7,16.571839597539963,66.59154776605929,2310.696028714774,-285.31207246155134,197.21873323967043
2025-02-19 15:43:07.394,641,29,646,-9,-32,25,-5,-8,19,806,103,7,-2.5703758259891147,44.74857036484977,1344.997003804613,60.85009845605893,-63.4884000901402
2025-02-19 15:43:07.501,743,-12,481,-37,58,9,-6,-8,15,778,67,7,1.429120089241441,57.073837175897495,1582.3717486601608,-25.556475079302736,-62.388709428718016
2025-02-19 15:43:08.210,800,-44,581,-8,0,1,-7,-8,18,802,87,8,4.330828327961106,53.933039260174176,1608.329506012697,-88.45812283069833,-6.049303741721246
2025-02-19 15:43:08.313,817,13,549,-1,-2,1,-6,-7,17,835,100,8,-1.35647716804822,56.09262419267048,1646.9404785061888,26.2059072467325,-8.695621419703343
2025-02-19 15:43:08.426,762,-26,635,-9,5,-16,-6,-8,17,814,102,8,2.344659249465977,50.170826720051096,1529.9574994969278,-52.20327426105003,-4.964582914106586
2025-02-19 15:43:08.528,953,-24,508,27,1,46,-7,-9,17,509,100,8,2.70487598573565,61.91347518806852,1835.23761720855,-46.21794628856789,37.72013689197962
2025-02-19 15:43:08.639,701,45,622,14,-3,-45,-6,-7,18,830,105,8,-4.137983523773956,48.34297437072096,1448.1369244329605,92.96171412194468,-40.93747075221313
2025-02-19 15:43:08.746,838,62,623,-35,-35,11,-7,-10,18,864,99,8,-5.683274745014908,53.236254818247495,1639.1102523551963,121.27068692842738,27.42519425144735
2025-02-19 15:43:08.850,886,149,330,9,25,32,-6,-7,17,812,104,8,-24.299897124057278,67.77179897963522,1811.6844991823027,304.6738040385587,-14.780908273318005
2025-02-19 15:43:08.962,489,-152,754,-27,24,11,-6,-6,14,809,43,8,11.397585306475719,32.44622427760583,1025.5077954548728,-318.7672493029461,-73.25332877908772
2025-02-19 15:43:09.680,764,-36,601,3,-5,-5,-8,-8,16,802,85,9,3.4279308022020882,51.759797167052376,1549.4227800212097,-73.00945036749157,-16.8522130795119
2025-02-19 15:43:09.775,794,-5,587,-3,0,-2,-7,-9,17,807,94,9,0.48802720516414083,53.523685601857466,1598.1026867490245,-10.063618934187812,-7.468862873649186
2025-02-19 15:43:09.881,804,0,600,-2,-1,-2,-8,-10,16,807,97,9,0.0,53.26717333551064,1605.4331132758907,0.0,1.915587107544411
2025-02-19 15:43:09.990,757,-39,650,-1,5,-14,-6,-8,18,760,100,9,3.4336303624505224,49.29798899963382,1515.1114480042188,-78.05726086151195,-0.9543476918657916
2025-02-19 15:43:10.097,930,215,556,-12,-34,67,-8,-8,16,680,97,9,-21.141020089339936,57.3404939550711,1771.8923881288665,409.6310359652756,52.67508838747352
2025-02-19 15:43:10.204,770,-67,618,9,25,-28,-7,-9,16,864,94,9,6.187511934501867,51.0860502321956,1548.0902356863403,-134.7039555727075,-6.49320214825741
2025-02-19 15:43:10.311,740,19,677,2,-31,60,-6,-9,17,808,103,9,-1.6075836497186469,47.534467729525815,1477.6836218042436,37.94052542470354,2.1191730250369574
2025-02-19 15:43:10.422,1021,-69,472,38,57,-21,-7,-6,16,712,100,9,8.316954219062909,64.95776198405014,1926.9959898062982,-130.22793662745795,53.16541901217164
2025-02-19 15:43:10.520,460,-166,759,3,1,1,-5,-4,13,708,35,9,12.336835970684403,30.62832029032808,969.466803108401,-349.851063730423,-81.62022512886142
