Timestamp,Acc_X,Acc_Y,Acc_Z,Gyro_X,Gyro_Y,Gyro_Z,Mag_X,Mag_Y,Mag_Z,Force,IR_A,Letter,Roll,Pitch,Lin_Acc_X,Lin_Acc_Y,Lin_Acc_Z
2025-02-19 14:50:10.717,721,-53,674,2,0,-2,0,-1,0,198,61,noise,4.496202333233841,46.84155784770984,1450.4649522039988,-106.62225030071004,-7.9131453335576225
2025-02-19 14:50:10.811,718,-41,678,0,0,0,0,-1,-1,189,60,noise,3.4605748530783225,46.58906177858017,1444.4434872439974,-82.48214899304163,-7.9730979824933
2025-02-19 14:50:10.919,728,-42,678,0,0,0,0,-1,1,183,60,noise,3.5447664555948797,46.98196034702623,1459.1389372749181,-84.18109253509141,-2.9233509236186137
2025-02-19 14:50:11.029,720,-45,680,-1,-1,0,-1,0,0,178,60,noise,3.7861120353815854,46.57408304381656,1446.263802084335,-90.39148763027094,-5.915813079649638
2025-02-19 14:50:11.137,726,-40,680,-1,-1,-1,-1,-1,0,183,61,noise,3.3664606634298013,46.82449823327975,1455.2612558909618,-80.1796835201632,-3.054619842774173
2025-02-19 14:50:11.242,729,-44,680,0,0,-1,-1,1,0,191,61,noise,3.7022128531994083,46.932033665090415,1459.5441760162826,-88.0932012959073,-1.4403836640220788
2025-02-19 14:50:11.346,725,-48,680,-1,0,0,-2,-1,0,193,60,noise,4.037710620977124,46.76341469074583,1453.5313721682942,-96.23380119183187,-3.312183550951545
2025-02-19 14:50:11.460,726,-42,679,0,-1,0,-1,-2,0,195,61,noise,3.5395591685499532,46.861359743374436,1455.7013109820177,-84.21412542871178,-3.4616944308402253
2025-02-19 14:50:11.566,722,-43,678,-1,-1,0,-1,-1,1,201,62,noise,3.628942733652762,46.742741814771136,1450.284165584721,-86.37426470933934,-5.901197044931905
2025-02-19 14:50:11.666,721,-41,675,-1,-1,0,-1,0,0,204,62,noise,3.4759175595615805,46.83464815998746,1450.3824564941779,-82.47667228330276,-7.847653444618572
2025-02-19 14:50:11.778,722,-46,682,-1,0,0,-1,-2,0,208,62,noise,3.858680336772069,46.56700178095132,1448.1788378528822,-92.26624174685954,-3.947323290395616
2025-02-19 14:50:11.886,723,-43,677,-1,-1,0,0,0,0,213,61,noise,3.634288706923993,46.82434950530857,1452.2594797553065,-86.3722788789463,-5.861227931317444
2025-02-19 14:50:11.992,720,-43,673,-1,-1,-1,0,0,1,237,62,noise,3.6558308268704,46.87420683224141,1449.8546093938091,-86.58853917213025,-9.211322391713225
2025-02-19 14:50:12.096,729,-46,675,-1,-1,-1,-1,-2,0,239,62,noise,3.8985735138313293,47.13641955880901,1461.975445009112,-92.2508511254035,-3.680967601029579
2025-02-19 14:50:12.210,727,-45,673,-1,-1,0,-2,-2,0,250,64,noise,3.8253757768485572,47.14517131936051,1460.0793434083944,-90.37630048607669,-5.627782825102372
2025-02-19 14:50:13.428,770,-139,591,10,-13,-26,0,0,5,621,42,A,13.235116182343369,51.745091805328805,1555.2638938378627,-280.7554301863155,-11.715534101528192
2025-02-19 14:50:13.517,958,-85,670,-7,-4,-20,-1,-1,4,617,67,A,7.230242639251577,54.81695166770407,1775.3154072256543,-157.51754657012592,98.39110350606632
2025-02-19 14:50:13.635,736,-149,667,-2,-6,-11,-1,-2,5,689,59,A,12.59245955673039,47.12062579519632,1468.787902685835,-297.3497248643878,2.9109631909622067
2025-02-19 14:50:13.737,821,-71,582,3,-4,-4,-2,-1,6,727,73,A,6.955323400348856,54.467581787299515,1634.7868236864083,-141.376205215268,5.113360066394989
2025-02-19 14:50:13.847,724,-83,595,13,-14,-18,-2,-3,5,761,80,A,7.941275139214994,50.314769397599925,1493.5641876119275,-171.22351874556625,-37.44570667002313
2025-02-19 14:50:13.946,805,-56,592,-8,-4,-13,-2,-4,5,770,109,A,5.403791360249714,53.54721287201919,1609.3467335607459,-111.95455537813886,0.4804145739606156
2025-02-19 14:50:14.059,913,164,435,-18,-2,41,0,-2,5,365,108,A,-20.657019550241454,63.015375748133295,1804.1283238273736,324.07124327238694,10.420787661656675
2025-02-19 14:50:14.171,899,-23,686,-38,51,-36,-2,-2,5,694,90,A,1.9202762069697203,52.63830794185679,1693.8205342567167,-43.33467440256339,79.49623303658768
2025-02-19 14:50:14.277,830,-179,651,6,-24,36,-1,-4,5,722,107,A,15.37420562850812,50.873485108246896,1605.754464771799,-346.3012640893397,42.54679931754083
2025-02-19 14:50:14.384,839,-74,548,28,-3,33,-3,-2,6,744,117,A,7.690501418874668,56.611652768743085,1673.9598023190626,-147.64365360144296,2.638889546071141
2025-02-19 14:50:14.493,580,-372,510,0,-67,-44,-3,-1,6,414,108,A,36.10745129175187,42.57689913396351,1256.5791305074617,-805.9438561185789,-84.92302854966476
2025-02-19 14:50:14.601,769,-116,589,23,-27,14,-2,-3,6,804,112,A,11.141471013816973,52.02288848841372,1557.2566348515336,-234.90477196720138,-14.749230074841535
2025-02-19 14:50:14.704,776,-112,468,-23,68,9,-2,-1,4,721,63,A,13.458684608615021,58.19601392162955,1625.8560305143817,-234.65963327011698,-44.5420390215603
2025-02-19 14:50:15.517,803,-58,606,-6,-4,-1,-1,-2,5,729,84,B,5.467101588088836,52.833556604488884,1599.8838789127917,-115.55823782931746,4.615653024717631
2025-02-19 14:50:15.617,747,-65,599,-6,-5,-13,-2,-3,3,734,86,B,6.19317210648778,51.11099412238738,1525.3636300316227,-132.7290976600475,-25.149684590283755
2025-02-19 14:50:15.728,780,-232,610,2,0,-10,-1,-3,5,697,105,B,20.823204378686302,50.080667719560566,1546.9486753815659,-460.1180675493889,10.206805150313699
2025-02-19 14:50:15.827,834,52,555,22,9,27,-2,-1,7,645,110,B,-5.352627019889484,56.24193944446965,1665.3914446578324,103.83735626163941,1.7359091305792163
2025-02-19 14:50:15.943,1061,-342,792,-4,-1,-23,-3,-4,5,735,103,B,23.355564859286005,50.88584938895201,1836.8906223976942,-592.098579509907,212.82434218758374
2025-02-19 14:50:16.052,598,-147,759,-5,-21,37,-2,-4,6,779,113,B,10.961104032021247,37.72213478937652,1209.8326639388129,-297.40033712208276,-17.55684269156984
2025-02-19 14:50:16.158,817,-37,633,-27,-17,34,-1,-1,7,746,112,B,3.3452360748421825,52.184666355351354,1606.9909563111282,-72.77682421482467,20.9262235679995
2025-02-19 14:50:16.260,821,-76,428,-6,9,19,-3,-1,6,552,117,B,10.06906269888942,62.100099650861054,1704.7664439275609,-157.81029200791062,-32.721118149812526
2025-02-19 14:50:16.371,617,-60,557,-54,46,24,0,1,3,637,60,B,6.148190049530598,47.76124996280397,1357.3501316946372,-131.99515056998092,-111.35498112465609
2025-02-19 14:50:16.478,841,-153,608,16,-34,-23,0,0,5,725,68,B,14.12490224360655,53.29591579498348,1642.7330417980957,-298.8563084365145,28.388003075811753
2025-02-19 14:50:17.294,815,-105,578,-1,-6,-6,-2,-1,5,799,82,C,10.296122994486137,54.215576537484445,1626.222816699525,-209.51336902263816,2.678787665858522
2025-02-19 14:50:17.391,787,-107,587,1,-9,-10,0,-2,6,826,88,C,10.330612819680727,52.83202696786302,1583.8677499852274,-215.34161276800427,-7.360062568396984
2025-02-19 14:50:17.502,792,-121,574,-2,0,-13,-2,-5,6,794,114,C,11.90374911377762,53.473564476103725,1595.5823316049223,-243.76952288408535,-8.39426558235516
2025-02-19 14:50:17.608,838,-171,544,41,14,36,-1,-1,5,504,6,C,17.449927096360422,55.765463732624184,1664.741616157907,-339.7026448245848,7.308545119449491
2025-02-19 14:50:17.709,841,-64,566,29,-17,12,0,-1,7,773,7,C,6.451272993927394,55.89032770972454,1668.9656794987027,-127.00808975971103,8.772206187555753
2025-02-19 14:50:17.816,652,-144,565,-33,52,15,-1,-1,2,782,7,C,14.2984103465202,48.19480103727335,1397.4155161126532,-308.6316477304019,-80.95056227553516
2025-02-19 14:50:17.928,795,-125,612,4,-12,-13,0,1,5,750,57,C,11.54379149989348,51.84311936901077,1581.3220692627451,-248.63554548156372,6.680369322264028
2025-02-19 14:50:18.647,773,-105,607,-1,-1,-2,-1,-1,5,790,71,D,9.814013261783789,51.448164050627945,1555.0446426841652,-211.22857371518415,-7.1023261439693215
2025-02-19 14:50:18.743,778,-101,608,-1,0,-1,-1,0,3,793,72,D,9.431756310944959,51.613721618406515,1561.8421919296256,-202.7584336566738,-4.565620428293528
2025-02-19 14:50:18.852,785,-112,602,-3,-1,-4,-1,-1,5,792,74,D,10.53918372862823,52.04440883843223,1573.4877040322267,-224.49760872816483,-2.6746469138859084
2025-02-19 14:50:18.955,727,-87,611,0,-4,-19,-2,-2,5,789,78,D,8.10384397858232,49.67149731476813,1489.3464796070562,-178.22990883880863,-29.706601155311205
2025-02-19 14:50:19.066,794,-125,547,4,2,-22,-3,-4,6,703,107,D,12.872157390862611,54.752070214533894,1610.6624080731435,-253.5677594573588,-15.612515385402162
2025-02-19 14:50:19.172,862,52,484,7,-4,31,-1,-2,5,595,116,D,-6.132222497679305,60.54587858619104,1732.7497163655814,104.52782511718127,-4.912833782994767
2025-02-19 14:50:19.283,630,-228,556,13,-15,-66,-2,-3,4,720,93,D,22.29715787678718,46.3527380622009,1353.6027642269087,-489.875286101167,-82.60815382565283
2025-02-19 14:50:19.385,677,-100,701,4,-26,21,-3,-1,6,833,7,D,8.11865921879523,43.71387108780764,1368.057418393476,-202.07642812311315,-14.555761143023119
2025-02-19 14:50:19.496,878,-62,285,-10,45,8,-1,-3,6,267,114,D,12.27311979913899,71.62384744627266,1827.007307774284,-129.0141834646989,-23.049069152244954
2025-02-19 14:50:19.603,581,-148,678,-19,36,16,0,1,1,689,49,D,12.313882379585595,39.936659698011496,1222.9403573812338,-311.52353337766374,-71.11456506794605
2025-02-19 14:50:19.709,795,-115,638,6,-20,-14,-1,1,2,705,49,D,10.217891020261815,50.80452764795313,1569.9944307342548,-227.10611262193618,16.054783888736438
2025-02-19 14:50:20.427,770,-85,641,-18,-6,-8,0,-1,3,667,65,E,7.553655081603909,49.97797997201038,1535.7973491382052,-169.53607100876295,3.4985703927408167
2025-02-19 14:50:20.524,776,-68,613,-8,-6,-8,-3,-2,3,732,76,E,6.32993287770923,51.522536113735555,1558.85294960759,-136.60051620272696,-5.413476945170942
2025-02-19 14:50:20.630,715,-66,594,-8,-11,-23,-3,-2,5,712,88,E,6.34019174590991,50.10836644094535,1482.2588093564273,-136.82389009443943,-43.415010849955024
2025-02-19 14:50:20.737,773,-225,611,2,3,-21,-4,-5,5,641,105,E,20.216167717109588,49.891981383331334,1537.8312475126372,-447.622290673148,6.456801772029394
2025-02-19 14:50:20.842,825,19,545,14,9,28,-3,-1,4,452,111,E,-1.9966589009605662,56.53500203619877,1659.2228451761518,38.212404919208346,-6.092667419397344
2025-02-19 14:50:20.954,523,-300,645,-14,-19,-57,-2,-1,4,647,90,E,24.94390526342458,36.32396808321302,1115.350264494888,-639.7802664406624,-85.52757284742415
2025-02-19 14:50:21.059,764,1,601,40,-27,28,-2,-3,4,806,108,E,-0.09533398775028315,51.809629322615365,1549.96081388438,2.028744520791073,-17.275456995435093
2025-02-19 14:50:21.166,920,-66,691,-9,58,11,-1,-3,6,776,96,E,5.455983407933165,52.96525622384688,1718.2704266444782,-123.26722625927778,91.42949477028856
2025-02-19 14:50:21.273,812,-159,479,31,5,-8,-3,-3,4,624,103,E,18.363149638057614,58.13691556174239,1661.3119832067869,-325.30616419935853,-22.010394034545527
2025-02-19 14:50:21.379,762,-38,653,-6,0,5,-2,-2,5,843,106,E,3.330454702051281,49.35703834195151,1520.783128860965,-75.83957860461504,2.7567150312204376
2025-02-19 14:50:21.490,811,-17,706,22,-18,-4,-3,-2,4,626,104,E,1.379376863396909,48.951220590320105,1565.1507635056491,-32.80833906238721,49.48897776203694
2025-02-19 14:50:21.593,765,34,573,5,-22,16,0,-2,6,833,111,E,-3.395767964972564,53.117745138041506,1564.8705769303283,69.5498034191257,-26.118745857618364
2025-02-19 14:50:21.704,622,-110,612,-18,52,15,-1,1,4,753,56,E,10.189463869680216,45.0088884871031,1329.2164685320763,-235.07043655711954,-83.84642884506525
2025-02-19 14:50:22.518,743,-85,629,-2,-3,-6,0,0,4,786,67,F,7.696051722016569,49.49396721879234,1503.3375797692868,-171.98343779325623,-14.677439670096192
2025-02-19 14:50:22.617,766,-58,617,-1,-6,-9,-1,-4,4,779,77,F,5.370207957382144,51.0259613155269,1543.4310333052317,-116.8655351588818,-9.207503328104508
2025-02-19 14:50:22.727,740,-105,582,-2,-18,-24,-3,-3,4,764,102,F,10.226857706341352,51.368727940023305,1521.1798422890301,-215.84308573020024,-32.387389475966984
2025-02-19 14:50:22.827,782,-346,748,15,-18,47,0,-5,6,734,106,F,24.823696302558005,43.496806689451155,1470.3141467668006,-650.5482030451574,89.6125552665386
2025-02-19 14:50:22.937,892,-40,625,8,1,23,-2,0,6,756,114,F,3.661935575519803,54.927070716700136,1710.421300632175,-76.70050675480604,51.55458195615563
2025-02-19 14:50:23.046,532,-269,689,4,-41,-55,-3,-2,3,745,81,F,21.326712659306747,35.72592346134927,1115.9085786070111,-564.2470068520413,-67.22746364705017
2025-02-19 14:50:23.147,785,24,638,49,-23,12,-3,-4,5,826,103,F,-2.1543113375859386,50.87806980217151,1560.804956439284,47.71887764909913,7.473169161448027
2025-02-19 14:50:23.258,988,-16,689,-1,70,19,-1,-4,5,783,89,F,1.3302869935150408,55.10205168921422,1808.1723631661978,-29.282143533055834,117.03769410778318
2025-02-19 14:50:23.367,830,-133,517,90,-2,-12,-2,-2,5,682,97,F,14.426712976081152,57.251984074943124,1671.057745670541,-267.7719038243156,-6.887776520083889
2025-02-19 14:50:23.477,770,53,630,-14,14,15,-1,-2,4,860,98,F,-4.808797950531892,50.611540611122926,1542.8614062960773,106.19695393985987,-2.341150605881353
2025-02-19 14:50:23.577,610,-85,687,3,1,-1,0,-1,2,778,50,F,7.053152839445394,41.38648023825978,1271.1348474388312,-177.1253475939355,-57.58957408274932
2025-02-19 14:50:24.397,769,-33,618,-6,-4,-7,-2,-3,3,754,63,G,3.0565804481494387,51.173375511094136,1548.046707412156,-66.43113308790788,-8.073946919001969
2025-02-19 14:50:24.497,779,-22,606,-1,-8,-6,-3,-2,4,775,70,G,2.079131721904763,52.10163706669236,1568.1016359945588,-44.28528368662425,-7.858268822467949
2025-02-19 14:50:24.597,770,-35,609,5,-10,-6,-2,-3,2,802,79,G,3.2892426784918265,51.61323564190758,1553.83692498636,-70.62895113574365,-10.943749761939443
2025-02-19 14:50:24.710,806,19,571,2,-7,-10,-1,-3,4,811,94,G,-1.9058113764071793,54.669886864531605,1621.8337707999617,38.23181345558223,-6.966604375655152
2025-02-19 14:50:24.821,788,-170,618,32,18,1,-2,-3,4,620,101,G,15.380560822305318,50.875254041751695,1563.7739467921976,-337.3623996886721,9.588452896474337
2025-02-19 14:50:24.927,849,52,606,13,-9,25,-2,-1,5,782,106,G,-4.904455720599123,54.38203973409517,1661.918245474317,101.79004565920434,25.75446789465707
2025-02-19 14:50:25.027,800,-125,574,-2,-9,-27,0,-4,2,827,101,G,12.285492530602932,53.70955819171831,1606.0270318065436,-250.94172371977243,-4.324395321195084
2025-02-19 14:50:25.140,919,75,656,-30,5,0,-1,-1,5,821,105,G,-6.522265026785007,54.303908773117556,1731.1233347440134,141.27774766681287,76.29063374094335
2025-02-19 14:50:25.247,841,-133,515,31,-5,-19,-2,-1,5,722,107,G,14.480387901038407,57.688393570910364,1686.1535719098024,-266.65686690131236,-2.5435071742545006
2025-02-19 14:50:25.353,785,-2,591,3,3,12,-1,-3,5,858,104,G,0.19389360675342718,53.02498614324577,1583.8978798932653,-4.0354086111930325,-10.463244607541242
2025-02-19 14:50:25.458,658,-124,676,-9,20,9,-1,1,3,789,57,G,10.394324448361438,43.7532095188957,1349.553519122535,-254.32315557932267,-34.47139654533976
2025-02-19 14:50:26.276,778,-6,604,-34,-9,-11,-2,-2,3,646,79,H,0.5691446520966676,52.17466730760131,1567.8839451072477,-12.09164996226669,-9.226096201513315
2025-02-19 14:50:26.376,788,-31,586,-12,-5,-7,-3,-4,5,665,94,H,3.028182697591545,53.325141337094394,1590.0378044295262,-62.55224865141537,-10.439280959012876
2025-02-19 14:50:26.483,824,-46,577,-8,-1,-6,-3,-4,6,643,104,H,4.558134037179064,54.913322129067026,1642.2833926630558,-91.68086900788904,4.003012661913544
2025-02-19 14:50:26.589,844,154,520,-36,-23,60,-1,-3,5,0,111,H,-16.496858005748532,57.27663042917047,1685.2903609163225,307.5055871814143,1.669445880938838
2025-02-19 14:50:26.700,823,-136,573,-2,27,-42,-3,-2,5,626,105,H,13.351935972151773,54.41342501782362,1636.2371364029314,-270.3866956874832,6.797230669648002
2025-02-19 14:50:26.807,888,63,599,0,-38,23,-2,-4,5,703,110,H,-6.004026746634279,55.852125930423576,1715.5915980203763,121.71426877847264,40.74846034436325
2025-02-19 14:50:26.913,734,-51,565,-23,32,-23,-3,-3,5,830,93,H,5.157853247517634,52.30012547475598,1525.224872177779,-105.97611509682116,-44.049118229489295
2025-02-19 14:50:27.020,810,-229,678,10,-2,47,-2,-3,6,796,109,H,18.662814177298,48.539637592152644,1559.4139463789302,-440.8713502725617,50.71277080874734
2025-02-19 14:50:27.127,844,-65,552,17,14,26,-2,-1,5,764,115,H,6.715859067511199,56.63321069562711,1679.1668014466543,-129.31971812089165,5.7771630348894405
2025-02-19 14:50:27.237,574,-164,679,-10,17,-4,-1,-2,4,779,49,H,13.578682733803541,39.411028060670624,1208.8792340871114,-345.3940668820319,-72.01567934694913
2025-02-19 14:50:28.047,775,-58,603,2,2,-7,-1,-3,5,764,73,I,5.494135079136349,51.98684504448129,1562.86937863371,-116.963127691297,-10.013206859518846
2025-02-19 14:50:28.151,773,-52,613,-3,3,-15,-2,-4,4,641,81,I,4.848719054580792,51.48503876024823,1555.445577349746,-104.63540753193632,-7.490477251480343
2025-02-19 14:50:28.257,867,-97,435,9,0,-10,-2,-6,5,177,101,I,12.570639616671,62.794444847212084,1756.3720508584245,-196.50298608219975,-11.224731399555537
2025-02-19 14:50:28.359,739,-1,671,5,1,5,-1,-2,6,839,99,I,0.08538857987263518,47.76102977930795,1479.3475483912207,-2.001823475495563,-1.2235520575227383
2025-02-19 14:50:28.472,621,-185,600,24,-41,-16,-3,-6,3,695,92,I,17.136274503575986,44.684665761134276,1324.2044442569413,-394.48924667879896,-79.42458382313168
2025-02-19 14:50:28.576,839,75,565,-9,-8,48,-1,-3,3,665,106,I,-7.56142842766696,55.810637063822064,1666.184911803867,148.94382405874853,7.956525424094366
2025-02-19 14:50:28.682,795,-42,587,-7,38,5,-3,-3,4,604,86,I,4.092553314990997,53.489216535382134,1598.744896590992,-84.4619945368826,-6.456923646430596
2025-02-19 14:50:28.791,1034,-91,570,15,-23,8,-1,-3,3,422,102,I,9.070673876728495,60.828075162127874,1907.1610256570214,-167.8449258556953,88.66365123355672
2025-02-19 14:50:28.900,795,20,574,6,-1,14,-1,-1,4,825,107,I,-1.995561315707744,54.153743745395374,1605.5913043899568,40.39223407270332,-11.25711788658532
2025-02-19 14:50:29.006,618,-114,656,-23,42,8,0,0,3,746,51,I,9.858434866502161,42.86631406205634,1298.2900670001518,-239.4904007087659,-66.12020056974063
2025-02-19 14:50:29.824,775,-23,611,7,-2,-4,-1,-2,3,800,69,J,2.1557790676753554,51.72848553529524,1560.0844068297697,-46.29927917043187,-7.950416223211846
2025-02-19 14:50:29.920,761,-17,611,1,-1,-8,-1,-3,4,769,72,J,1.5937430867796358,51.22851219522399,1540.649686331653,-34.41661585760592,-14.973664058659779
2025-02-19 14:50:30.026,800,12,607,11,-4,-2,0,-2,3,778,80,J,-1.1325532192604923,52.80520076139391,1596.5847944522116,23.948771916783173,2.5912872093846318
2025-02-19 14:50:30.137,700,31,644,-2,13,-14,-1,-3,3,687,80,J,-2.7558993687449638,47.35290521561265,1435.5404741949565,63.573935285776656,-32.697236259360125
2025-02-19 14:50:30.243,999,320,623,-4,-47,13,-2,-3,4,710,91,J,-27.18701158109809,54.96651583224979,1817.8167012070176,582.2836280142599,112.36656170973782
2025-02-19 14:50:30.350,730,-7,533,-23,13,12,0,-5,5,818,97,J,0.7524341462386939,53.86308292382373,1537.6100825384215,-14.744206270916372,-56.66599177120372
2025-02-19 14:50:30.457,921,114,672,18,-9,-4,0,-4,4,715,94,J,-9.628156128486703,53.49610461558023,1724.816418373839,213.49519185083346,85.50202698456064
2025-02-19 14:50:30.567,920,256,440,-41,-19,23,-2,0,5,648,112,J,-30.191622960957606,61.043385171473886,1794.9865610374045,499.47452133214733,21.52816646037178
2025-02-19 14:50:30.669,891,98,588,-22,67,44,0,-2,1,564,70,J,-9.462322208025617,56.21606797166937,1722.1404435870033,189.416120618997,39.50327628601792
2025-02-19 14:50:30.780,723,-67,645,-1,-14,-13,-1,0,3,614,50,J,5.9303855974660165,48.110551206599595,1467.434517175496,-135.9863245515328,-19.122079637890465
2025-02-19 14:50:31.597,791,-34,610,2,-9,-8,-2,-2,4,731,67,K,3.190234292532353,52.318481889922495,1582.420751974242,-68.01808541987893,-0.32447370959255295
2025-02-19 14:50:31.693,770,-33,628,0,-3,-7,-1,-3,2,741,72,K,3.00799888910773,50.76115505896781,1544.5158123914275,-66.19353481677545,-3.68302621015107
2025-02-19 14:50:31.800,783,-9,604,4,-2,-11,-1,-3,4,732,82,K,0.8536818817893306,52.35061424633708,1574.763438139335,-18.100729174015342,-6.760046789474131
2025-02-19 14:50:31.907,775,-120,541,-1,-6,-21,-1,-4,4,686,100,K,12.506378358364154,54.43406297041728,1588.4466958355538,-245.95303677453734,-26.838274125205658
2025-02-19 14:50:32.017,877,102,492,-5,-6,31,-1,0,5,439,108,K,-11.712472311087508,60.19019609131497,1744.6804032097189,202.91607882256704,5.228325679382408
2025-02-19 14:50:32.123,749,-38,505,-24,13,-36,-1,-4,5,759,73,K,4.303255863611781,55.93586315509875,1577.4110932297774,-80.02886721325973,-53.54152480779385
2025-02-19 14:50:32.226,802,84,515,-13,-7,2,-1,-4,4,835,100,K,-9.263755399146834,56.95075144843382,1640.2021140445868,171.7917426181363,-23.246993432621366
2025-02-19 14:50:32.337,958,19,344,-12,14,0,-2,-2,4,435,103,K,-3.1613803444552024,70.21995821904912,1898.9987066967178,37.66281359836914,6.104848534790335
2025-02-19 14:50:32.442,668,67,614,8,-34,44,-1,-1,4,735,106,K,-6.2275057523426804,47.242976609887435,1402.2392956531771,140.6437616897648,-60.884622052471514
2025-02-19 14:50:32.547,779,-107,438,-27,88,2,-1,1,4,743,62,K,13.728038912346502,59.93801421885311,1644.4839691013792,-225.87905608966315,-48.62641651656514
2025-02-19 14:50:32.657,758,-63,632,17,-23,-9,0,0,1,698,53,K,5.692640520348449,50.0401777530417,1524.4949993147711,-126.70604875571317,-7.082901803344839
2025-02-19 14:50:33.377,780,-37,616,0,-1,-5,-2,-3,3,703,74,L,3.437337507443122,51.6501204824869,1564.2365172632708,-74.2009629983859,-3.345762351506096
2025-02-19 14:50:33.474,747,-23,624,-4,-4,-7,-2,-1,2,702,75,L,2.1109080653990766,50.10745884977024,1514.2486501812164,-46.62345241521817,-16.914535091136372
2025-02-19 14:50:33.581,752,10,586,-2,-10,-17,-3,-3,3,704,92,L,-0.9776487850298482,52.06826207466191,1540.7436919945326,20.488612925459208,-28.63271743190967
2025-02-19 14:50:33.687,752,-187,657,21,2,5,-1,-5,3,582,98,L,15.887789063795816,47.748926169072725,1492.2055259352505,-371.06706562485624,10.304480665612004
2025-02-19 14:50:33.790,835,34,575,1,2,24,0,-2,3,27,102,L,-3.383984094276967,55.40109611103613,1658.1472316585787,67.5173723070559,8.162085983613338
2025-02-19 14:50:33.901,764,-4,589,8,-5,14,0,-2,5,804,101,L,0.3890994819025273,52.36920748815326,1555.961618199049,-8.146395906801306,-21.55679727649226
2025-02-19 14:50:34.007,626,-114,665,-31,47,4,-1,0,3,721,51,L,9.727578551401605,42.85574011777513,1306.1547906828923,-237.8620545333063,-57.52865144428654
2025-02-19 14:50:34.118,808,-53,635,12,-12,-12,0,1,2,692,54,L,4.771108884677526,51.73984972612307,1593.2072425366514,-104.50493051292393,17.912624986666174
2025-02-19 14:50:35.031,771,-63,613,2,-6,-4,0,-3,4,721,64,M,5.867871646336905,51.366081551593695,1552.151005888089,-126.82945962509676,-8.070773812449488
2025-02-19 14:50:35.130,782,-30,622,1,-3,-6,-1,-2,4,726,72,M,2.7613221594313333,51.468952449905665,1564.2707125078969,-60.01038539032851,-0.21532375947765559
2025-02-19 14:50:35.240,766,-20,621,-7,-3,-16,-2,-2,3,713,82,M,1.844637105314732,50.95361717134931,1542.6362511915631,-40.27770890839591,-8.622861605692947
2025-02-19 14:50:35.347,802,-64,589,-3,-4,-16,-3,-5,5,643,95,M,6.201357882742114,53.54535546356024,1606.3274717165136,-128.18573340381155,-1.7093277319531808
2025-02-19 14:50:35.454,882,184,468,11,-1,21,-1,-2,5,459,103,M,-21.4628859247198,60.3104002500824,1750.7214350947297,365.2298685458393,7.045769133408669
2025-02-19 14:50:35.557,755,-146,714,-12,-5,-34,-2,-2,4,731,94,M,11.556629677233852,46.012596519671625,1474.4925041115828,-285.13364980171,33.57927425739069
2025-02-19 14:50:35.667,775,175,600,-9,-28,61,-1,-3,3,788,98,M,-16.26020470831196,51.115503566285405,1553.4130394753292,350.7706863331389,-2.642353142190359
2025-02-19 14:50:35.772,813,-88,648,-2,0,-45,-1,-1,5,835,96,M,7.7335980990228625,51.1880499570699,1592.2072587317668,-172.3422371074975,26.93443584479087
2025-02-19 14:50:35.878,864,196,491,-4,-9,66,2,-1,5,791,101,M,-21.761159560051865,58.53786638037247,1716.9852937719434,389.50129349456114,6.259514766175869
2025-02-19 14:50:35.989,771,-48,539,-39,77,18,0,-2,3,809,58,M,5.08898255286061,54.93656795704254,1589.5165370893296,-98.95822798999717,-33.21843513767658
2025-02-19 14:50:38.796,779,14,623,-2,1,0,-2,-4,5,730,82,N,-1.2873289415250384,51.342107538258254,1559.8896968625158,28.03396117596305,-1.5112723303558369
2025-02-19 14:50:38.897,768,13,617,0,2,1,-1,-3,2,728,80,N,-1.20702583928898,51.215904235472244,1547.511868388968,26.194862355542426,-9.248467182282639
2025-02-19 14:50:39.005,765,1,624,-1,0,0,-1,-2,3,720,78,N,-0.09182008087167853,50.79631082289437,1539.9037918135577,2.012946133089618,-8.07838704792141
2025-02-19 14:50:39.115,779,15,622,-3,0,0,-3,-3,3,719,79,N,-1.381463253007444,51.38592794348881,1560.3672217002984,30.045581932611647,-1.890130805629724
2025-02-19 14:50:39.220,800,32,610,-12,11,3,-1,-4,1,733,72,N,-3.0029276213839093,52.63651207982007,1594.8015131091925,63.79206052436769,3.9638462542409343
2025-02-19 14:50:39.328,695,-62,664,3,-6,1,-2,-2,2,763,60,N,5.334440037031728,46.18251494528511,1416.5489719322507,-126.36839749611445,-25.364773184193382
2025-02-19 14:50:39.435,776,-4,629,4,-8,-2,-1,-5,1,774,71,N,0.36435616643114144,50.9723494232901,1552.8421649760653,-8.004341056577655,-0.6826311468362292
2025-02-19 14:50:39.545,768,-7,630,-2,-1,-2,-2,-3,3,783,75,N,0.6365935759634864,50.63580872308411,1541.1301165081238,-14.046758874423002,-4.20829869807028
2025-02-19 14:50:39.652,774,-2,625,3,-6,-5,-2,-3,3,782,77,N,0.18334586862300742,51.0792059535638,1552.0151940522783,-4.010375178429659,-3.2422432592684345
2025-02-19 14:50:39.758,736,-4,617,-9,-9,-16,0,-5,4,757,86,N,0.3714423133708045,50.02579140776393,1502.3337131156304,-8.16485713649799,-25.429213304814994
2025-02-19 14:50:39.869,746,-313,736,19,-7,25,-2,-2,4,678,96,N,23.03867822952318,43.00701910662863,1428.087950542376,-599.1843545841336,63.055319572133044
2025-02-19 14:50:39.971,864,-1,590,12,6,26,-2,-2,4,638,102,N,0.09711139770835238,55.6719505375054,1689.8223182515744,-1.9558128683467295,26.07040767542958
2025-02-19 14:50:40.082,916,-120,849,0,-11,-17,-1,-5,3,726,94,N,8.045051779050048,46.89129788346173,1646.0584921787715,-215.64085050376917,172.34098268583284
2025-02-19 14:50:40.188,769,28,633,2,-30,89,-1,-2,4,773,100,N,-2.5327594384300247,50.51312068196997,1540.770224494504,56.10086643152941,-2.2803018270755047
2025-02-19 14:50:40.289,794,35,483,20,5,-86,0,-2,3,804,98,N,-4.1446237411042945,58.620676921473475,1647.7387638332323,72.63332082388303,-36.339827369585805
2025-02-19 14:50:40.396,883,46,622,4,33,7,0,-4,5,841,90,N,-4.229608611774089,54.76489138333382,1699.791529730595,88.55086111846813,46.63835618071346
2025-02-19 14:50:40.506,632,-85,665,3,-12,-1,-2,-1,2,757,49,N,7.2840236544168615,43.31073848236634,1317.9547414152785,-177.25657123464975,-56.771998482848176
2025-02-19 14:50:41.326,770,-42,615,0,-3,-1,0,-3,5,778,68,O,3.906816384103421,51.32057472094849,1550.6548795416938,-84.58117524772877,-8.51006612745698
2025-02-19 14:50:41.422,771,-44,613,1,-2,0,-2,-3,3,783,70,O,4.105543435621647,51.44106057847936,1552.9673701965598,-88.62589401899953,-8.719841673788892
2025-02-19 14:50:41.532,781,-34,610,1,-2,-1,-1,-1,3,790,72,O,3.190234292532353,51.96527022095452,1568.637426282267,-68.28895325684644,-5.184161372833387
2025-02-19 14:50:41.638,711,-27,607,15,-33,-20,-2,-4,5,803,96,O,2.5468978351635867,49.4837500199126,1471.2217413855878,-55.86918005261726,-42.021936738469435
2025-02-19 14:50:41.739,762,-82,623,18,9,-20,-2,-3,4,628,97,O,7.49823663738308,50.489750666188925,1533.510786430997,-165.02347045582908,-7.775879194896561
2025-02-19 14:50:41.854,797,205,553,3,-23,45,-2,-2,4,738,103,O,-20.34000738435856,53.49881282524996,1600.8445356521688,411.76051418907736,-4.749094373462299
2025-02-19 14:50:41.962,697,-210,618,15,-1,-63,-2,-1,5,822,101,O,18.76806006684338,46.87966830580524,1426.919767534866,-429.9184378512509,-29.188545676538297
2025-02-19 14:50:42.068,846,195,550,-62,86,55,-1,-2,2,731,56,O,-19.52173027592021,55.40326312099609,1669.1687071530118,384.7374679608006,14.843039084921429
2025-02-19 14:50:42.175,702,-52,637,16,-35,-15,1,-3,2,701,46,O,4.666858371438996,47.6844625738188,1441.4485607605682,-106.7739674637458,-33.98110143088604
2025-02-19 14:50:43.088,769,-33,626,0,0,-3,-2,-3,2,727,64,P,3.0175913760185735,50.81395811475408,1544.0984375632215,-66.26170148190681,-4.9643978082924605
2025-02-19 14:50:43.191,762,-26,611,0,-5,-4,-2,-2,3,729,68,P,2.436648246810131,51.2507644639777,1541.8928343532016,-52.61051665772078,-14.347141456438408
2025-02-19 14:50:43.287,794,-4,610,2,-3,-6,-1,-3,4,708,79,P,0.3757046446567899,52.46570250743577,1586.9887910428617,-7.99490574832676,0.7768733801691496
2025-02-19 14:50:43.404,894,-97,667,11,-7,-12,-3,-3,3,669,96,P,8.274363348964647,52.9861451370886,1692.48996001792,-183.6370538274477,71.25860924837525
2025-02-19 14:50:43.507,833,84,648,-1,-16,78,-3,-2,5,358,102,P,-7.386043151267269,51.8886574760464,1619.8128554124928,163.34247281470516,35.92949542941733
2025-02-19 14:50:43.616,776,-1,547,44,23,-81,-1,-3,2,658,99,P,0.10474536687922106,54.82006416268524,1593.34670658219,-2.053281838379111,-29.14516559337369
2025-02-19 14:50:43.728,672,-37,672,-11,-18,2,-1,-4,4,809,94,P,3.1514962659900707,44.95664193277955,1378.5714820586832,-75.90348933954061,-34.57148205868327
2025-02-19 14:50:43.833,829,23,471,10,18,25,-1,-3,5,599,103,P,-2.7956623171242514,60.36742143674625,1698.2139320391693,47.11570619650287,-22.84772254577632
2025-02-19 14:50:43.940,657,-35,581,-27,44,18,0,-2,1,705,57,P,3.4473868518651978,48.461438179311315,1405.5095875361767,-74.87493997529099,-80.92400358983036
2025-02-19 14:50:44.046,818,-28,634,10,-22,-9,-1,0,4,713,58,P,2.5287697396347486,52.195095611467806,1608.1025460299588,-55.04507492523088,21.62223205012947
2025-02-19 14:50:45.367,779,-33,628,2,-8,-2,-1,-5,3,739,66,Q,3.00799888910773,51.08696442652983,1557.1002582011301,-65.96188513560628,0.7253374193712716
2025-02-19 14:50:45.457,785,-31,594,17,-20,5,-2,0,3,789,79,Q,2.987473474058281,52.84814751488144,1582.037701109272,-62.47537418393303,-9.108782750200476
2025-02-19 14:50:45.567,799,-72,607,2,1,-31,-3,-2,5,773,99,Q,6.764597165271385,52.58309464616644,1593.235377235365,-143.57064726025817,3.6196821253236067
2025-02-19 14:50:45.680,1063,116,468,-13,-30,107,-1,-4,2,618,96,Q,-13.92096036492075,65.60162658497397,1973.6953881696459,215.37974132425109,67.05414707112504
2025-02-19 14:50:45.787,753,-169,751,7,-4,-51,-1,-2,4,821,102,Q,12.682198889921713,44.36864686360691,1452.2722652809437,-325.94158410687845,53.58503157239227
2025-02-19 14:50:45.886,674,49,547,-19,27,40,-1,-1,3,735,73,Q,-5.11886577381475,50.826080049382185,1449.2320972372952,105.35960350834935,-82.15720651157335
2025-02-19 14:50:46.000,878,-136,471,-7,2,-11,-1,-3,3,617,97,Q,16.105932828849372,60.82267173680439,1751.1150532629445,-271.2433339906155,2.6205124295595397
2025-02-19 14:50:46.103,797,35,566,8,-6,23,-1,1,5,811,106,Q,-3.538519544157683,54.56740336347983,1611.7980999784602,70.78159786605534,-12.63955406249488
2025-02-19 14:50:46.214,635,-169,672,-15,54,9,1,2,2,700,47,Q,14.116461517735566,42.50230379615837,1310.6198521273368,-348.8106378102675,-42.98667815680335
2025-02-19 14:50:47.129,778,-33,615,1,-1,-3,-2,-2,2,756,66,R,3.0714621170703906,51.63396049208813,1562.0614878454098,-66.25710681092355,-4.791536021757224
2025-02-19 14:50:47.225,782,-17,644,3,-1,-5,-2,-1,2,764,67,R,1.5121150661689566,50.517747119360514,1553.8215688405257,-33.77872975740273,8.382237425449375
2025-02-19 14:50:47.331,736,16,613,6,-6,-25,-1,-2,3,737,73,R,-1.4951458019679433,50.20015200804374,1504.2852218280025,32.70185264843484,-26.8897295931597
2025-02-19 14:50:47.437,779,-27,580,-9,-2,-20,-1,-3,3,666,93,R,2.665293147417968,53.300973858279036,1580.7858019825312,-54.789751801705194,-16.965038703296727
2025-02-19 14:50:47.549,862,178,459,0,-3,20,-2,-1,4,527,107,R,-21.196270982353344,60.26843034745144,1730.3583876538323,357.312984921557,-3.3857307808689825
2025-02-19 14:50:47.657,613,-128,543,20,-31,-63,-1,-3,2,763,88,R,13.264042762890774,47.69511618274152,1352.5737255859042,-282.4297502039082,-112.11995594314203
2025-02-19 14:50:47.762,667,8,701,-11,-6,59,-3,-3,3,781,99,R,-0.653846417223842,43.57441206922322,1356.296064427349,16.267419063596392,-23.432595447633616
2025-02-19 14:50:47.868,978,3,563,26,-2,-9,-2,-5,4,557,97,R,-0.30530321796414495,60.07213653256297,1844.6542272383,5.658448549810737,64.09782215218496
2025-02-19 14:50:47.969,994,31,564,-4,30,24,0,0,5,755,98,R,-3.1460704579478107,60.39212526319602,1863.4270338810427,58.11492761600837,70.68325240552508
2025-02-19 14:50:48.085,626,-129,688,10,-9,-14,0,2,1,682,50,R,10.619655276155134,41.80624700786166,1292.613746173576,-266.3692863520628,-44.636193877668234
2025-02-19 14:50:50.200,778,-48,616,-5,-1,-3,-1,-2,3,703,65,S,4.455602833326315,51.54431401069414,1561.0893913579548,-96.31399843853706,-4.029646627892248
2025-02-19 14:50:50.297,803,-55,608,-17,1,-1,-2,0,4,771,68,S,5.168937683176293,52.75600406168877,1599.0654273114242,-109.52502926790575,5.250585547514561
2025-02-19 14:50:50.407,761,-74,634,-2,-5,-3,-3,-1,3,800,70,S,6.65739697294584,50.01108338772182,1527.1687706544765,-148.50261370358905,-4.306176865884481
2025-02-19 14:50:50.514,785,-57,622,-1,-2,-1,-2,-3,3,819,74,S,5.235953599343381,51.49154838775503,1567.5163221625996,-113.81965651371742,1.9679587450484632
2025-02-19 14:50:50.618,755,-30,600,-1,-8,-3,-3,0,4,829,77,S,2.8624052261117474,51.490918303152846,1537.509475020714,-61.09309172267738,-21.861834453547544
2025-02-19 14:50:50.728,777,-62,600,-5,-2,-16,-3,-1,6,835,102,S,5.899625046527686,52.17736275756799,1566.912794557346,-125.03036455927342,-9.971269928452557
2025-02-19 14:50:50.833,902,-56,500,41,7,23,-3,-3,4,723,98,S,6.390495314646983,60.847675982950626,1775.3277244452067,-110.21990306976893,15.89372259134882
2025-02-19 14:50:50.937,706,-62,670,-4,-6,34,-1,-1,5,789,105,S,5.286940850235303,46.37669350616942,1429.8912815048684,-125.57118902733967,-16.978978198670802
2025-02-19 14:50:51.051,1029,86,637,-25,78,37,-1,0,2,663,71,S,-7.688889451186789,58.00846792990408,1877.1264053886032,156.88325642703583,111.96936809276951
2025-02-19 14:50:51.157,646,-89,672,7,-28,-16,0,0,0,688,47,S,7.544374126701749,43.62104960640415,1335.8855470245435,-184.0461512154556,-45.651838390855914
2025-02-19 14:50:52.069,754,-52,631,-7,-3,-7,-1,-2,4,714,72,T,4.711035402178155,49.979588062772564,1519.8153978828473,-104.81485502640325,-9.887952339623894
2025-02-19 14:50:52.172,809,-17,615,-1,-3,-7,-2,-3,3,723,86,T,1.583382572160924,52.74744134904291,1604.9749711977483,-33.72629729340139,9.901597915185107
2025-02-19 14:50:52.275,764,-25,631,-4,4,-8,-3,-3,3,675,87,T,2.2688521527300796,50.42408291715936,1534.7811007051007,-50.22189465658053,-5.6006211320923285
2025-02-19 14:50:52.385,797,-85,438,49,5,-14,0,-4,3,195,98,T,10.982531583175824,60.75930171434148,1669.575321054624,-178.06010324923844,-41.5332379196052
2025-02-19 14:50:52.487,757,30,654,-7,0,2,0,-4,5,838,99,T,-2.626405638290746,49.14527285236467,1513.370583375046,59.9750561443215,0.5437760537912482
2025-02-19 14:50:52.601,651,-162,640,30,-29,-10,-1,-3,4,680,79,T,14.20463616313261,44.59865081227681,1353.1362861763541,-336.725158771996,-50.27223218566303
2025-02-19 14:50:52.710,724,-29,703,-11,-13,63,-1,-4,4,604,104,T,2.362213456241836,45.818770364365896,1441.1389637117225,-57.725179485690546,6.662028329639725
2025-02-19 14:50:52.815,963,12,556,8,24,-35,-1,-1,5,694,100,T,-1.2364076028561433,59.99370089418528,1828.9704284825978,22.790908766138294,56.02122716892575
2025-02-19 14:50:52.922,662,-101,681,-4,-8,-21,-1,0,1,692,53,T,8.43611634397968,43.8779870183789,1355.1249420845531,-206.7486694116916,-32.01825613229687
2025-02-19 14:50:53.025,801,-61,611,1,-3,-2,0,-3,3,703,66,T,5.701308454464225,52.52663809196408,1594.6362813696824,-121.43921743264744,5.6170188303673285
2025-02-19 14:50:53.134,779,-58,638,-5,2,-1,-2,0,3,707,64,T,5.194428907734806,50.566939768769814,1551.3671990992202,-115.50615859788805,5.4322554232314815
2025-02-19 14:50:53.953,762,-30,632,0,-1,-3,-1,-1,2,670,69,U,2.7176963827077487,50.29612611553751,1531.35636489391,-60.28962066511456,-6.101342011746851
2025-02-19 14:50:54.047,744,-21,635,5,0,-5,-2,-3,0,658,72,U,1.8941307303587867,49.503957985665636,1504.4508275799471,-42.464337875240446,-14.040692894175322
2025-02-19 14:50:54.159,734,21,620,18,-20,-26,-3,-5,3,473,95,U,-1.9399218728788021,49.79647311821139,1497.7562955881247,42.851338157153435,-25.134745592149102
2025-02-19 14:50:54.266,860,-159,635,31,-1,53,-1,-3,3,36,95,U,14.057471988449379,52.72280311865347,1655.7145948693278,-306.11467509793385,47.46654913718237
2025-02-19 14:50:54.369,773,4,598,14,-14,-24,-1,-3,3,769,81,U,-0.3832436456347507,52.27350971551646,1563.9407133581785,8.09283680909795,-13.879102960143314
2025-02-19 14:50:54.478,789,-93,592,0,-5,-32,-3,-3,3,775,94,U,8.927891479055893,52.78264440653462,1585.3467410058706,-186.8659656698935,-5.512383619107027
2025-02-19 14:50:54.585,902,76,551,-9,0,34,-2,-3,3,735,102,U,-7.85331330197822,58.34001509906302,1753.1778887943271,147.71787089619608,31.045436002578526
2025-02-19 14:50:54.696,542,-194,726,-33,36,3,-2,-1,2,727,43,U,14.960885260322256,35.80102419630128,1126.9721731442487,-403.3811837453583,-57.5605123666503
2025-02-19 14:50:55.606,766,-42,630,0,-2,-3,-1,-2,4,681,68,V,3.8140748342903548,50.501925038345476,1537.6459540719377,-84.30956928331773,-4.643539249765809
2025-02-19 14:50:55.706,745,-34,636,2,-5,-6,-1,-3,2,689,73,V,3.060069041159091,49.47252736921404,1505.0944757442417,-68.68887540309294,-12.886022246091215
2025-02-19 14:50:55.814,778,-10,627,6,2,-19,-1,-3,3,623,83,V,0.9137308158871255,51.1306615997075,1556.5790889089944,-20.00744330217216,-0.46669504619444524
2025-02-19 14:50:55.920,799,-51,557,-5,-3,-17,-2,-6,4,328,95,V,5.23152555487427,55.006538117975865,1618.2174907295162,-103.29047813167122,-14.094045477271948
2025-02-19 14:50:56.031,806,157,506,10,-18,35,0,-3,2,658,101,V,-17.237897779033265,56.68241972156317,1641.6388633007923,319.77332697050167,-18.607028325311262
2025-02-19 14:50:56.142,769,-129,649,-12,-8,-63,-3,-2,4,803,97,V,11.242006270499058,49.28921195558103,1527.0115411760385,-256.15668245995965,9.273744833226374
2025-02-19 14:50:56.247,1003,-33,624,-15,44,33,-2,-4,4,812,84,V,3.027245182279991,58.07697087387815,1851.7592216856547,-60.92527848018606,95.9583705564819
2025-02-19 14:50:56.351,685,-65,656,3,-13,-2,0,-1,2,706,54,V,5.658702634391995,46.09903680987175,1405.539454911976,-133.37235703544297,-34.03486485000917
2025-02-19 14:50:57.167,777,-36,614,2,0,-2,-1,-2,3,687,70,W,3.355520090808698,51.63571191166747,1561.0804605456183,-72.32805222605182,-5.5951129665504595
2025-02-19 14:50:57.264,775,-42,620,7,-3,0,-2,-3,4,703,74,W,3.875406195486407,51.2761934870567,1555.1705503826702,-84.28021047235117,-4.136440306136251
2025-02-19 14:50:57.371,766,16,625,16,3,-6,-1,-2,2,709,79,W,-1.4664516602477826,50.77887573143514,1540.7114143961257,32.1819616584047,-7.107877281433957
2025-02-19 14:50:57.476,787,40,624,9,4,-17,-1,-4,3,565,83,W,-3.667788055531429,51.53244616415215,1569.9605566513574,79.79469157058995,3.2028114987969047
2025-02-19 14:50:57.587,780,20,566,5,-1,-16,-1,-6,3,223,91,W,-2.0237438392341622,54.016827173312876,1589.1895858849318,40.74845092012645,-21.18116103957857
2025-02-19 14:50:57.692,807,205,545,5,-11,29,-1,-2,2,657,98,W,-20.613628898198616,54.18817406444087,1617.9430655649371,411.00164614722695,-2.662912927993375
2025-02-19 14:50:57.804,799,-61,627,-8,-5,-50,-1,-4,4,797,93,W,5.556742890979156,51.74648407922732,1584.2789390773219,-120.95245967924485,10.767340673991384
2025-02-19 14:50:57.911,809,240,498,-11,-21,54,-1,-3,2,787,99,W,-25.7307056015312,55.65400158998212,1634.6456162527518,484.93813090316485,-10.246621624067188
2025-02-19 14:50:58.017,776,-253,631,-11,-9,-41,-3,-1,4,848,99,W,21.84836040142021,48.77934837154287,1528.1774427127548,-498.23310954423573,19.371177381767666
2025-02-19 14:50:58.118,644,-11,592,-25,44,21,-1,0,2,823,59,W,1.0644950280445449,47.404154228924625,1380.1461620585173,-23.57392512832871,-84.70578872459964
2025-02-19 14:50:58.938,789,-4,598,1,-4,-3,0,-3,3,774,72,X,0.3832436456347507,52.84011517167037,1585.953027888771,-8.04031953302292,-6.027770186926773
2025-02-19 14:50:59.038,803,0,591,-2,-2,-2,-2,-2,4,785,77,X,0.0,53.64730196249444,1608.383434793206,0.0,-1.7541842624964374
2025-02-19 14:50:59.140,802,16,580,5,-8,-8,0,-2,2,808,84,X,-1.5801724728000146,54.11549750260595,1612.2002142417323,32.163595296593165,-5.930329501502229
2025-02-19 14:50:59.250,757,10,584,3,-10,-10,-2,-4,4,837,95,X,-0.9809962441298757,52.346961812794156,1548.7244980933726,20.458711995949436,-26.788780563447176
2025-02-19 14:50:59.356,792,-54,629,-11,-13,-21,-2,-3,5,832,99,X,4.906843156655185,51.441185966666126,1573.968734289665,-107.31605006520442,7.966750166415181
2025-02-19 14:50:59.466,984,11,363,-2,2,26,-2,-2,3,438,107,X,-1.735704588928389,69.74231961205075,1922.144931174314,21.487392523290097,16.91604673142689
2025-02-19 14:50:59.567,463,-99,599,-21,16,-53,-1,-2,2,658,73,X,9.38474876569706,37.329483504022214,1069.397658116562,-228.66170227546363,-185.51878447477475
2025-02-19 14:50:59.681,991,-156,608,18,-8,19,-1,-3,4,631,93,X,14.39046324874091,57.65004522519957,1835.7956233975037,-288.98498208880983,89.69955698720264
2025-02-19 14:50:59.790,837,-18,525,19,-1,23,-1,-1,4,779,108,X,1.9636575340519626,57.88726059431458,1684.0037468527164,-36.215134340918624,-6.2747516101266
2025-02-19 14:50:59.898,626,-140,688,-17,34,-6,-1,1,1,702,53,X,11.501984646970913,41.7205552643936,1291.4981735447764,-288.83345734228226,-43.41013322492995
2025-02-19 14:51:00.815,775,-11,608,2,0,-4,-2,-4,3,724,83,Y,1.0364881947066227,51.88069060782483,1561.727028491886,-22.16644814633645,-9.200042997505534
2025-02-19 14:51:00.909,780,-10,607,5,2,-6,-3,-1,4,651,86,Y,0.9438319085069526,52.105995161571876,1569.148356436403,-20.117286620979527,-7.119297893457201
2025-02-19 14:51:01.015,817,-7,612,-3,-4,-7,-1,-3,3,530,94,Y,0.6553153069441329,53.16198107261052,1617.3337093144792,-13.857204363771547,12.484418481687499
2025-02-19 14:51:01.122,793,-7,601,-3,-3,-5,-1,-4,4,348,96,Y,0.6673083558350854,52.840315584658015,1589.9551407396623,-14.034912969959189,-2.997527849353105
2025-02-19 14:51:01.233,795,67,565,5,-11,29,-1,-2,4,706,100,Y,-6.762784940915015,54.409788089285435,1608.2001958015182,135.533852979499,-12.934730349506367
2025-02-19 14:51:01.340,712,-46,513,-16,24,-14,-1,-1,5,805,75,Y,5.123929654054784,54.118157562304766,1522.2274265875053,-98.34615396492309,-70.77341269577278
2025-02-19 14:51:01.446,816,26,509,-14,-15,-4,0,-3,4,851,101,Y,-2.9241584429057883,58.01160470762426,1664.1554087979644,53.024559594052775,-20.05772436049483
2025-02-19 14:51:01.549,893,49,489,-17,5,24,-1,-3,6,569,105,Y,-5.722193821591595,61.17448562458948,1769.092063504801,97.07224088660163,9.258657274526513
2025-02-19 14:51:01.663,846,-133,611,-5,-8,19,-2,0,4,546,104,Y,12.280345348520862,53.53060897446808,1650.1745165141533,-259.4245989318941,30.207293628667003
2025-02-19 14:51:01.765,988,-10,582,8,16,5,-1,-1,3,712,104,Y,0.9843667030547196,59.495288987608085,1849.5874263659653,-18.720520509776975,74.46570633098008
2025-02-19 14:51:01.874,599,-145,700,4,-9,-15,0,1,2,727,51,Y,11.702901480221364,39.96052208729178,1241.2596375432126,-300.47186551546883,-50.55383352295314
2025-02-19 14:51:02.691,766,-53,623,1,-2,-3,0,-2,2,769,67,Z,4.862571746969791,50.77682943823942,1540.6888310549907,-106.60118543853068,-7.06676468310593
2025-02-19 14:51:02.790,793,-45,616,1,-1,-6,-2,-2,5,772,71,Z,4.178146508414096,52.0861542009931,1581.9356168410163,-89.76936035037295,3.1572005371170917
2025-02-19 14:51:02.895,711,-31,640,10,-1,-22,-2,-2,3,713,79,Z,2.7730969366397518,47.97495112895743,1453.8522204205055,-63.388774730007974,-28.671478296938744
2025-02-19 14:51:03.006,1029,84,484,65,-10,-12,-2,-6,3,538,93,Z,-9.84582236785257,64.48061783928053,1931.4395983299164,157.66853863917686,59.52889641236197
2025-02-19 14:51:03.109,637,-70,707,11,1,34,0,0,3,814,99,Z,5.6544208226407005,41.879597300653735,1304.5674680509505,-143.3590624231814,-33.92653047413205
2025-02-19 14:51:03.215,997,-90,576,78,-2,1,2,-2,3,547,98,Z,8.880659150520245,59.683334299329076,1860.2487614540823,-167.9261670319633,77.27253099543486
2025-02-19 14:51:03.326,807,-8,578,-7,-1,7,-1,-2,5,834,106,Z,0.792970536235863,54.38591565366123,1619.9576400516457,-16.059059628764764,-4.267058178254274
2025-02-19 14:51:03.431,654,-41,656,-3,29,-10,-1,1,4,815,67,Z,3.5763343749973515,44.85668214689837,1359.3358363363195,-85.21830166634419,-51.4928266615068
2025-02-19 14:51:03.536,848,18,603,-13,0,-5,0,-3,1,781,74,Z,-1.709814044141531,54.57189043360786,1662.8434997011364,35.296206361580715,23.577086887046107
2025-02-19 14:51:03.645,809,-1,615,-3,4,3,-1,-1,1,773,70,Z,0.09316378702087871,52.757947354905426,1605.0859536987573,-1.9840370255856086,9.817229264850653
2025-02-19 14:51:03.752,770,-18,625,-5,0,-1,-1,-1,3,744,62,Z,1.649662452139926,50.92254291005247,1546.2944851308605,-36.14714380825387,-5.109160008815252
2025-02-19 14:51:06.074,782,-32,613,-3,-2,-1,-1,-3,2,742,75,a,2.9882581026880994,51.86968805028097,1568.6084731389778,-64.18858202103235,-3.612524340400796
2025-02-19 14:51:06.167,781,-45,604,-4,-5,-1,-2,-1,3,755,78,a,4.260853295962703,52.206032477175626,1571.2195388889418,-90.5312154289403,-7.130091535109727
2025-02-19 14:51:06.275,802,-68,573,5,-12,7,-1,-1,4,784,84,a,6.767846081763072,54.265841253552395,1613.7354854784862,-136.8254526340861,-6.955652343107886
2025-02-19 14:51:06.380,818,-15,565,1,5,-14,0,-3,3,807,102,a,1.520769661143766,55.357372085004144,1640.7136664475313,-30.08643642629947,-3.255772057280069
2025-02-19 14:51:06.488,796,-81,498,23,13,0,-1,-2,3,516,100,a,9.23829293129311,57.63144622619685,1640.6218815976788,-166.94770403192462,-30.41921738146243
2025-02-19 14:51:06.589,809,17,632,3,-15,-1,-2,0,4,791,105,a,-1.5408124001617811,51.99258926028858,1596.9311162471909,33.55726696687546,16.459251584394906
2025-02-19 14:51:06.704,832,-88,714,7,11,36,-1,-3,2,811,101,a,7.026230620040212,49.15112632262498,1588.437408237128,-168.0078027943116,64.8457818734264
2025-02-19 14:51:06.811,918,10,594,-19,61,14,-1,-2,4,818,80,a,-0.9644843022265389,57.091054291409336,1757.5350473503504,19.145261953707518,50.77143994977337
2025-02-19 14:51:06.918,671,-118,683,0,-12,-10,1,0,2,759,48,a,9.802070239183166,44.07106656256141,1366.5500657670364,-240.31729919599144,-24.989113142899782
2025-02-19 14:51:07.636,726,-83,606,7,-14,-14,-1,-1,2,793,71,b,7.798916565740594,49.88574294191009,1490.7610982780725,-170.43136523013777,-32.3543051742588
2025-02-19 14:51:07.733,873,21,560,-3,9,-2,-1,-2,4,798,91,b,-2.147585428298503,57.30290146875763,1714.5381387349712,41.243185467851546,20.181720857292134
2025-02-19 14:51:07.840,794,30,580,-1,2,-24,-2,-5,4,783,89,b,-2.96093613416375,53.8162059772104,1601.1273312935887,60.49599488514819,-9.589234446198361
2025-02-19 14:51:07.946,793,-137,545,0,0,-29,-2,-4,3,701,97,b,14.110428725796947,54.67689587430763,1608.9045066533772,-277.95702069547633,-15.74143269368301
2025-02-19 14:51:08.057,840,125,543,13,5,22,-1,-3,3,666,103,b,-12.963787750224975,56.442265188490786,1673.3292325720518,249.0073262756029,4.312174658780918
2025-02-19 14:51:08.163,777,-42,665,-12,-25,5,0,-3,4,825,98,b,3.6138807520036442,49.38489303180494,1536.099693691845,-83.03241587523488,15.32008197544792
2025-02-19 14:51:08.264,859,4,435,1,16,18,-2,-1,5,623,107,b,-0.5268428938425135,63.14124235717738,1751.1229677979131,8.154239663785393,-16.77356343666156
2025-02-19 14:51:08.376,575,-97,701,-26,30,6,0,-1,0,705,50,b,7.878204067203792,39.0943740681,1205.599603591052,-203.3794113884036,-67.78316889969994
2025-02-19 14:51:08.483,872,-43,584,2,-18,-10,1,0,2,733,60,b,4.211097055238418,56.11714916763776,1702.1791862898926,-83.9377351037447,28.008434870071824
2025-02-19 14:51:09.199,807,-29,592,0,-7,-4,0,0,4,771,81,c,2.804477083902039,53.70417617877027,1612.9714308054972,-57.963037786071155,0.7545389877889193
2025-02-19 14:51:09.297,742,-58,603,8,-19,-6,-1,-1,4,789,93,c,5.494135079136349,50.771143575377714,1516.626075436362,-118.55028622009297,-26.514182598552907
2025-02-19 14:51:09.407,751,-80,640,-10,0,-25,-2,-1,4,756,102,c,7.125016348901798,49.343057767986956,1509.624173905659,-160.81216233349232,-6.49729866793848
2025-02-19 14:51:09.514,903,83,468,16,-25,69,-1,-1,5,539,103,c,-10.056861015248273,62.23947676617676,1787.9021054096663,164.33651688704572,9.379639721236174
2025-02-19 14:51:09.617,968,-57,632,15,31,2,-1,-1,3,842,97,c,5.153555908880539,56.75345273017448,1804.3191953070582,-106.24606831870076,85.97341794001977
2025-02-19 14:51:09.726,513,-150,699,-12,-8,-3,1,2,1,667,41,c,12.111549508979438,35.662070068855,1096.0034824598133,-320.4688545204132,-95.38486206512562
2025-02-19 14:51:10.547,790,-58,595,-1,-3,-2,-1,-2,4,786,77,d,5.567544717563738,52.88395239145859,1587.4149488750263,-116.5443886515842,-5.584676684355259
2025-02-19 14:51:10.641,796,-38,586,1,-5,-2,-3,1,5,798,84,d,3.710231215301274,53.58279762788078,1600.7155941618284,-76.41607107807724,-6.416253993506984
2025-02-19 14:51:10.747,781,-2,548,-1,1,-13,-1,-1,5,797,101,d,0.20910775593061465,54.94384325129109,1599.5894770959285,-4.0962598645222235,-26.37520287908933
2025-02-19 14:51:10.856,905,-16,511,23,14,21,-1,-2,3,508,98,d,1.793411083529659,60.53713060407405,1775.6746288812114,-31.393142610054568,19.38150789138234
2025-02-19 14:51:10.961,775,-2,549,2,4,-60,-1,0,4,827,105,d,0.20872687085926997,54.68655604120363,1591.0019783240477,-4.105811556965285,-29.04527238697051
2025-02-19 14:51:11.071,740,-224,748,30,17,40,-2,-2,7,808,98,d,16.67113050734258,43.46250255366868,1427.8797042273472,-432.2230456039538,52.683758429654404
2025-02-19 14:51:11.178,980,-44,506,8,37,-20,-1,1,4,821,95,d,4.969740728110304,62.60342453121231,1867.8428893902824,-83.86233380935963,47.58316119236429
2025-02-19 14:51:11.280,636,-94,681,-4,-2,-9,1,2,0,784,47,d,7.859007292470092,42.77342251813795,1315.1008798912114,-194.37025583297782,-46.15047044955202
2025-02-19 14:51:12.001,794,-34,607,-2,-1,-2,-1,-1,3,768,73,e,3.205968703595182,52.55937089000325,1587.9837235005007,-67.99930302143201,0.01244311737548287
2025-02-19 14:51:12.099,787,-40,607,3,-2,-2,-2,1,4,778,76,e,3.770218040604011,52.297547739287175,1578.1973588710748,-80.21333463131256,-3.2373530301680375
2025-02-19 14:51:12.206,733,-31,593,16,-12,-9,-1,-1,5,792,90,e,2.992502222852444,50.988764296744016,1510.0225367766056,-63.86179896326708,-35.61441242636704
2025-02-19 14:51:12.312,802,74,613,4,-20,15,0,-3,3,838,103,e,-6.88331200332209,52.40774747629779,1594.3721393124447,147.11164377695872,7.358950874652919
2025-02-19 14:51:12.423,727,-75,652,-12,23,-36,-1,-3,5,774,100,e,6.561930993706463,47.92584510335271,1469.2781829585979,-151.57615367523363,-13.702029283364254
2025-02-19 14:51:12.529,810,111,552,13,-10,33,0,-1,4,808,104,e,-11.369802650258109,55.19594289829173,1631.108794971282,223.52231634791644,-7.57043805450337
2025-02-19 14:51:12.636,690,-69,552,-35,59,11,0,-2,2,820,60,e,7.125016348901798,51.12334486365567,1468.498944161523,-146.84989441615232,-70.79915532921848
2025-02-19 14:51:12.742,776,-38,620,2,-19,-8,-1,2,3,783,52,e,3.5072894843221327,51.323833674152404,1556.6904258029986,-76.22968579963135,-3.7475051518799773
2025-02-19 14:51:13.562,802,-47,585,5,-8,-1,-1,0,2,778,86,f,4.593384463008824,53.80419974213322,1609.003600974474,-94.29322848603525,-3.6497588155451695
2025-02-19 14:51:13.655,784,-81,606,8,-16,-8,0,0,3,794,102,f,7.61322176596662,52.051703657233055,1572.5660050162282,-162.47174286519703,-3.5293355099925066
2025-02-19 14:51:13.766,857,194,549,-8,11,-75,-1,0,5,793,102,f,-19.461868028801064,55.80675818539956,1684.1468677092485,381.24211474398385,19.124118585324027
2025-02-19 14:51:13.873,776,70,659,0,-10,-16,-1,-4,5,853,97,f,-6.063310447525289,49.50253115956616,1536.4346555688157,138.59590965182616,13.218507706379569
2025-02-19 14:51:13.979,714,110,533,0,53,16,-1,-2,3,824,77,f,-11.660929254953988,52.68424957837933,1509.3068665796618,232.52626796045206,-60.69546202655408
2025-02-19 14:51:14.086,1084,64,569,-2,-30,-18,0,-3,3,752,95,f,-6.417543763831633,62.15619300597122,1968.224128533967,116.2051145997914,104.86390301122952
2025-02-19 14:51:14.190,790,20,598,5,2,13,-1,-2,3,854,100,f,-1.9155328093077622,52.860248694145824,1587.1652365267769,40.18139839308296,-5.423811953180575
2025-02-19 14:51:14.296,583,-119,686,-9,12,6,-1,0,1,761,50,f,9.841131759634388,39.941088837942175,1224.9996279493773,-250.04280570493293,-69.42323288726038
2025-02-19 14:51:15.116,794,-5,595,0,-2,-1,0,-2,2,781,73,g,0.48146580583835247,53.15223004466204,1594.2316609668542,-10.03924219752427,-4.669821505388313
2025-02-19 14:51:15.212,782,-13,595,3,-5,0,0,-1,4,788,76,g,1.2516414218591536,52.72700931931994,1577.7590563311746,-26.22873111547989,-10.468847208502325
2025-02-19 14:51:15.323,836,-5,580,-4,2,-8,-1,-1,5,728,100,g,0.4939168986187558,55.24686702404787,1657.6157688657695,-9.913969909484265,9.979490499825033
2025-02-19 14:51:15.429,1007,21,596,17,-8,68,-1,-4,1,634,99,g,-2.017976194849267,59.36495267579389,1867.4304898379435,38.94343623296605,86.74819072153497
2025-02-19 14:51:15.538,754,-145,611,10,10,-32,-1,-1,5,846,99,g,13.350231768858688,50.21073828921442,1522.4034785010945,-292.76989971174896,-11.671784302611172
2025-02-19 14:51:15.645,775,63,638,-4,-17,44,-2,-3,3,751,106,g,-5.639451433239455,50.40143977352167,1545.5292602250975,125.63657212152405,3.6804283566293634
2025-02-19 14:51:15.753,962,-45,497,52,45,-37,-2,0,2,551,103,g,5.173639438577101,62.5821810760565,1849.6722205806632,-86.52312882134078,38.40011057319168
2025-02-19 14:51:15.855,608,-58,730,-2,4,-7,1,1,1,695,44,g,4.54272460638292,39.70150174046287,1246.7879835013355,-118.93701158400897,-36.965835453905925
2025-02-19 14:51:16.680,727,-60,644,-2,-16,-12,-1,-1,2,745,68,h,5.322750707768238,48.34151794956798,1474.1200287119682,-121.66052506563699,-17.822969037836856
2025-02-19 14:51:16.772,797,-14,608,-3,2,-7,-2,-2,3,756,81,h,1.3190776155085453,52.654089241632114,1591.9876507253427,-27.96465133018168,1.5351422321100472
2025-02-19 14:51:16.879,905,-151,750,-3,-9,-18,-2,-1,2,741,95,h,11.383369731310264,49.79019994660019,1668.6856163149253,-278.42157797077755,117.11136769481334
2025-02-19 14:51:16.989,826,224,580,10,-12,60,-1,-3,4,623,100,h,-21.1169046644634,53.030242184925044,1624.9530522184605,440.66523449992144,18.991803526989315
2025-02-19 14:51:17.096,890,-122,539,7,-6,-43,-1,0,4,766,98,h,12.753716385216304,58.16229300513631,1739.5457134463054,-238.454580944325,24.499843204990498
2025-02-19 14:51:17.196,877,116,479,-1,-6,37,-1,-2,5,801,106,h,-13.613300021906008,60.66541257146646,1748.7736907375047,231.3087207816996,2.854506427292165
2025-02-19 14:51:17.309,610,-136,648,-20,62,18,1,1,2,747,48,h,11.853004167744002,42.653942333751715,1287.5686839033658,-287.06449346042257,-71.77788060554258
2025-02-19 14:51:17.412,718,-69,638,16,-17,-10,1,0,0,542,38,h,6.172574214847028,48.21090003566167,1463.6027883362176,-140.6526356479095,-24.527268744438402
2025-02-19 14:51:18.137,810,-78,696,-6,-12,-13,0,-1,1,652,48,i,6.394397765227589,49.15204976717335,1566.4479498187097,-150.84313590846835,46.0150949705901
2025-02-19 14:51:18.230,734,-54,647,-4,1,-1,-1,-1,2,684,53,i,4.770970391058822,48.50607712655187,1483.0259979461707,-109.10545488977277,-13.24498729042557
2025-02-19 14:51:18.337,798,-50,621,3,-12,-6,0,0,4,697,62,i,4.60325669644819,52.02034952237086,1586.229366027205,-99.3878048889226,7.603463279581206
2025-02-19 14:51:18.444,761,-44,642,-5,-3,-4,0,0,1,714,67,i,3.920682529253573,49.78194533564008,1524.5925983901147,-88.14990056394882,-2.1871855012534525
2025-02-19 14:51:18.554,924,-120,633,17,-16,-11,-3,-1,3,747,98,i,10.734377793491475,55.11323744794161,1744.2840408789382,-226.5303949193426,71.0521668004676
2025-02-19 14:51:18.661,789,89,553,-7,-18,38,-1,-2,4,660,104,i,-9.142801067569414,54.62881817973606,1604.4190548901752,180.98009617899314,-18.516777381833663
2025-02-19 14:51:18.767,604,-158,514,-39,38,-46,-2,-1,3,736,75,i,17.087061542723415,48.32160286628041,1350.8889484226474,-353.37823485228193,-121.59754882324603
2025-02-19 14:51:18.874,849,-61,509,19,16,-3,-3,-3,3,733,98,i,6.833895851575071,58.87563060218728,1705.047311983875,-122.50634397057289,-4.225066901993387
2025-02-19 14:51:18.981,591,-86,666,-15,31,30,0,-2,2,793,45,i,7.357838700467842,41.35037149210417,1251.6618854683063,-182.1369241121393,-78.50222626377638
2025-02-19 14:51:19.087,820,-49,610,11,-28,-11,-2,1,2,774,60,i,4.592586811596899,53.266070684413094,1621.4216030574553,-96.88982749977475,13.820514798722229
2025-02-19 14:51:19.906,773,-73,605,1,-4,0,0,0,3,808,72,j,6.880114243836072,51.74981011750059,1558.314879152772,-147.16298341287495,-9.63842417519652
2025-02-19 14:51:20.004,777,-66,599,1,-5,-3,-1,-1,3,821,78,j,6.287694253258819,52.203586123995464,1567.1933724788687,-133.12067256577262,-10.170952528754583
2025-02-19 14:51:20.111,801,-76,524,7,3,-7,-1,0,4,819,100,j,8.252529047136086,56.534212951103676,1635.2152507647138,-155.151509435853,-21.72882821561791
2025-02-19 14:51:20.216,840,158,540,-14,-25,49,0,1,4,627,111,j,-16.309084929224376,56.18543805868509,1670.843057780954,314.2776227730842,5.886605712243863
2025-02-19 14:51:20.327,1211,55,505,-60,93,-25,-3,-1,3,737,70,j,-6.215635899702657,67.24308856023846,2133.15431703103,96.88149251586015,120.45175053619317
2025-02-19 14:51:20.438,977,436,216,-14,-39,-15,-2,-3,4,824,104,j,-63.64559412207739,63.52548866931375,1872.1327691362947,835.4655960526352,18.099612964749525
2025-02-19 14:51:20.536,717,2,495,-21,55,47,0,-1,4,836,63,j,-0.23149683933003878,55.37949159595013,1539.9330622868474,4.295489713491904,-73.13370408924607
2025-02-19 14:51:20.646,770,-66,624,14,-35,-9,1,-2,2,808,63,j,6.037682521422889,50.823065590192215,1545.1988622502117,-132.44561676430388,-4.213103953418454
2025-02-19 14:51:21.462,767,-76,625,0,0,-6,-2,1,5,721,71,k,6.933128127853605,50.61860802574611,1539.9396750055837,-152.5885466759118,-4.840022005853712
2025-02-19 14:51:21.561,784,-30,616,6,1,-9,-1,-2,4,697,75,k,2.7881759176651015,51.809798669936505,1569.9626413006658,-60.07510107017854,-1.542075307665982
2025-02-19 14:51:21.671,810,-22,540,-10,-9,-13,-3,-3,3,623,97,k,2.332982301969856,56.28800102043006,1641.8379074241996,-44.593128349793076,-14.558604949466485
2025-02-19 14:51:21.774,889,204,492,-4,-9,36,-1,-2,2,0,101,k,-22.520565602896884,59.07340252702482,1746.8264205084713,400.84655768698315,17.25241969609948
2025-02-19 14:51:21.878,773,-71,603,-5,-16,-21,0,0,4,781,103,k,6.715349727927843,51.85155516301346,1559.4130233784117,-143.23198532971182,-10.463199349524189
2025-02-19 14:51:21.987,598,47,559,-35,43,-5,0,0,3,658,76,k,-4.806051586395501,46.8299017208724,1327.3257819600976,104.3215915587368,-122.76105704965676
2025-02-19 14:51:22.102,752,-19,584,-18,-41,61,-1,-2,4,706,103,k,1.8634177421462705,52.15255599373263,1541.6472213287068,-38.95119309208169,-29.236671882931887
2025-02-19 14:51:22.197,878,-66,523,-31,87,5,0,-1,3,769,66,k,7.192423117230109,59.01954886673398,1735.3429777233773,-130.4471942252197,12.304809397122597
2025-02-19 14:51:22.311,670,-120,682,10,-18,-13,0,1,2,746,44,k,9.979221674604322,44.054879946292274,1365.3470610782992,-244.53977213342674,-25.801038291641817
2025-02-19 14:51:23.129,765,-62,613,2,-8,-6,0,-1,3,779,69,l,5.775365470467081,51.15219377991913,1543.814870564938,-125.11963656866163,-11.0699551062836
2025-02-19 14:51:23.227,795,-44,607,-4,1,-5,-1,-2,2,771,78,l,4.145984589013049,52.56502879758603,1589.0437530696208,-87.94707564158907,0.7301155808054318
2025-02-19 14:51:23.334,741,-27,606,-1,-8,-24,-2,-2,4,760,88,l,2.551095089000937,50.695383245532284,1514.789170925183,-55.194747118731364,-26.815435331526032
2025-02-19 14:51:23.441,785,-121,611,3,-3,-22,-2,-3,5,681,98,l,11.201691205724611,51.56941258485698,1568.3617452382516,-241.74747920232923,1.2751256808004428
2025-02-19 14:51:23.547,906,110,463,13,-1,21,-1,-1,4,325,105,l,-13.364611169993273,62.28874961561242,1791.3023340456916,217.4870383499184,10.577284036252593
2025-02-19 14:51:23.646,639,-126,560,-35,58,9,0,0,4,686,57,l,12.68038349181982,48.067326564782945,1382.9305876882108,-272.69053841739367,-91.9579485217497
2025-02-19 14:51:23.761,712,-79,644,9,-20,-12,-1,0,1,703,52,l,6.993579119293307,47.65788772154097,1451.1362324467386,-161.01090219563534,-24.544569797331064
2025-02-19 14:51:24.779,770,-62,631,3,-5,-3,-1,0,3,708,71,m,5.611683384114864,50.53104333465568,1541.969102636363,-124.15855112136947,-1.6136412513570804
2025-02-19 14:51:24.872,774,-50,620,1,-3,-2,0,-2,3,717,76,m,4.61064931866061,51.21345100095245,1553.4850476303295,-100.35433124226935,-4.3937074041399455
2025-02-19 14:51:24.978,649,-91,616,5,-19,-24,-1,-2,2,684,88,m,8.403371090560825,46.18543896135843,1370.584304864236,-192.1774603122426,-68.89357749825763
2025-02-19 14:51:25.086,755,-9,639,9,-3,40,-2,-2,4,206,99,m,0.8069294551023743,49.75403642982556,1518.2779866705987,-18.09867798680184,-7.00613706293052
2025-02-19 14:51:25.198,791,-79,541,5,2,-38,-2,-2,3,563,99,m,8.307946934098073,55.3478503653813,1613.619186023626,-161.15792123371233,-21.625764397953958
2025-02-19 14:51:25.306,762,-21,647,-16,-10,31,-2,-2,2,753,100,m,1.8590249046548335,49.65115078377356,1524.1166127633117,-42.003213737571585,-0.09901372422916666
2025-02-19 14:51:25.410,858,4,426,13,-7,-43,-2,0,5,764,103,m,-0.5379727301122598,63.594434767392094,1753.6685678732738,8.17561103903624,-18.702575657359716
2025-02-19 14:51:25.517,833,131,508,1,-6,44,0,0,3,779,107,m,-14.460060274350758,57.797497451375065,1679.1698905032567,264.0711352412084,-8.031577881938006
2025-02-19 14:51:25.626,708,-70,578,-36,55,11,-3,0,3,813,59,m,6.905306298593852,50.567852931253285,1480.3773222450436,-146.36498948750432,-52.556627482535646
2025-02-19 14:51:26.437,763,-77,623,4,-1,-3,0,0,1,771,74,n,7.045769124867488,50.55496006713539,1535.2343762340386,-154.93190952820572,-7.539995273664545
2025-02-19 14:51:26.541,766,-50,617,6,4,-7,-1,1,3,758,77,n,4.63297002947556,51.05750726488941,1543.777213189841,-100.76874759724811,-9.486345350041688
2025-02-19 14:51:26.646,769,-36,608,4,3,-14,0,-1,1,672,78,n,3.3885569907235045,51.62000426726394,1552.910277295592,-72.69801038054787,-11.788619760363986
2025-02-19 14:51:26.754,724,-101,640,-2,2,-4,0,-3,2,632,94,n,8.96802934462518,48.174070907952064,1469.17428540132,-204.95387130598525,-18.71760035475802
2025-02-19 14:51:26.864,786,-43,611,12,3,17,-1,0,3,244,100,n,4.02563517857465,52.07155604012161,1574.779031404191,-86.15203352465674,-2.160290315471343
2025-02-19 14:51:26.975,637,-158,726,-21,-12,-13,-1,-1,3,807,98,n,12.277878892236847,40.607875399471006,1287.8785742125042,-319.4424093023166,-15.817652870138204
2025-02-19 14:51:27.077,860,61,497,14,7,24,-1,-2,3,758,105,n,-6.9972825957885165,59.79017154007531,1724.1885017065892,122.29709140011856,-2.420564358342915
2025-02-19 14:51:27.180,554,-175,701,-20,33,5,-1,1,3,784,48,n,14.017010242897614,37.47981807238086,1162.481939606387,-367.20999897313675,-68.93833874382187
2025-02-19 14:51:27.996,763,-67,619,0,-2,-3,0,0,4,763,72,o,6.17759330475637,50.785218986847724,1537.7814136765373,-135.03454091261858,-9.557922759864482
2025-02-19 14:51:28.097,776,-83,613,2,-4,-3,-3,-1,3,755,77,o,7.710936319754053,51.43966591827353,1557.9521974910726,-166.63663968010184,-4.701929203643772
2025-02-19 14:51:28.204,833,1,600,15,-3,3,-1,-2,3,805,97,o,-0.09549287743587173,54.235204661119504,1644.4230856493414,1.9740973417158956,15.541594970462597
2025-02-19 14:51:28.310,675,-62,654,13,10,-38,-1,-2,4,746,99,o,5.415525085154913,45.77717278428101,1391.632793160239,-127.82404914953307,-40.33755070636494
2025-02-19 14:51:28.421,871,179,492,-9,-21,59,0,1,3,727,100,o,-19.99245635528844,58.990296846872226,1728.0800656981496,355.13930167619833,7.862925001734084
2025-02-19 14:51:28.526,737,-196,631,4,5,-31,-3,-2,4,810,99,o,17.255738364779308,48.12294433921655,1481.5789229382528,-394.015561595519,-6.4888743202678825
2025-02-19 14:51:28.638,601,-92,701,-30,40,31,0,-2,1,715,46,o,7.476828117379242,40.36643639251949,1248.6736842027276,-191.14472370491,-54.43968822980344
2025-02-19 14:51:29.450,770,-37,609,1,-5,-7,-1,0,3,793,82,p,3.4767507668875934,51.607840435138485,1553.7784487248227,-74.6620813023616,-10.897500355087004
2025-02-19 14:51:29.552,801,-24,604,-2,-6,-3,0,-1,3,787,95,p,2.2754564382542033,52.95987996842988,1599.2139073735943,-47.91652156924628,2.1008738406354723
2025-02-19 14:51:29.659,768,-121,607,-2,-1,-10,-3,-2,3,754,98,p,11.273623366388259,51.13414138156205,1546.6172006625657,-243.67276208355526,-8.391459377834849
2025-02-19 14:51:29.761,842,62,515,7,-2,26,0,1,4,482,103,p,-6.864707329143526,58.3646313534133,1693.403315733456,124.69240567158465,-5.751434207517605
2025-02-19 14:51:29.875,792,-58,539,-15,0,-58,-2,-2,4,767,96,p,6.141775702305492,55.60897005744803,1617.2019377259353,-118.43145503548516,-22.59576317459471
2025-02-19 14:51:29.981,730,66,671,-5,-14,29,-1,-1,3,826,102,p,-5.61758059012683,47.27400501484081,1464.6068397822146,132.4165088022276,-4.234506155980739
2025-02-19 14:51:30.084,1137,27,463,1,32,-12,0,-1,5,697,96,p,-3.3374427983427855,67.80926726901649,2062.931686313883,48.98782368555395,85.94954198476017
2025-02-19 14:51:30.193,544,-84,717,10,-26,-12,0,2,2,775,54,p,6.682016572257864,37.00032995712888,1145.8196223548234,-176.928029922436,-76.20711255222147
2025-02-19 14:51:30.909,783,-59,600,-1,-2,-3,-1,0,3,811,84,q,5.616030127944141,52.40447054477565,1575.3372479625987,-118.70357296269901,-7.154979281684859
2025-02-19 14:51:31.006,802,-50,595,2,-7,0,-1,-1,5,813,91,q,4.803485759069079,53.33194215192894,1604.1086930923702,-100.0067763773298,-0.08063889022457715
2025-02-19 14:51:31.116,790,-30,573,-3,-5,-3,0,1,3,817,101,q,2.997042580283685,54.00872550991349,1599.1064981492134,-60.7255632208562,-13.858257518353525
2025-02-19 14:51:31.227,757,-148,545,18,16,-17,-2,-1,5,699,102,q,15.192831034383897,53.27628374514828,1558.5282025396793,-304.7056459390654,-32.057952951288144
2025-02-19 14:51:31.333,819,25,568,-11,-13,-15,-2,-2,3,760,105,q,-2.5201947142181713,55.231613411923966,1640.4639799721263,50.075213063862215,-1.7088408109494821
2025-02-19 14:51:31.436,691,-196,713,19,-8,53,0,0,5,773,103,q,15.370647932292373,43.06014120845269,1373.7656584768333,-389.6643546475532,8.49650579742115
2025-02-19 14:51:31.541,858,-74,474,-3,-25,6,0,1,5,708,110,q,8.873284227210082,60.78872495637332,1730.8260561080097,-149.2787041398516,-8.190618409319939
2025-02-19 14:51:31.652,672,-86,635,-34,73,24,-1,1,2,777,48,q,7.71281537698615,46.36156183436084,1395.709051687142,-178.61752744805688,-48.86197592460576
2025-02-19 14:51:31.759,793,-105,628,4,-25,-17,1,2,3,731,48,q,9.491909491485556,51.238243323245655,1572.756031736832,-208.24638503451115,10.488287603114259
2025-02-19 14:51:32.475,765,-68,623,2,0,-6,-1,0,4,749,69,r,6.2291339863794235,50.67512406164015,1538.565143708684,-136.7613461074386,-6.975273896091835
2025-02-19 14:51:32.574,806,-51,609,1,-5,-6,-2,-2,2,745,79,r,4.7869991209500204,52.82957843459828,1602.8419307655736,-101.4205191923626,6.919682585317219
2025-02-19 14:51:32.680,766,-28,615,3,-2,-8,-1,-2,5,743,85,r,2.6067881782638707,51.21102962935902,1545.4585738218557,-56.49195831202606,-10.805512924857908
2025-02-19 14:51:32.791,766,-118,596,-12,1,-14,-1,-3,3,689,98,r,11.198965964254612,51.579571547420535,1549.471941153398,-238.69150007323884,-13.594356302121582
2025-02-19 14:51:32.893,850,11,606,-18,-4,-2,0,-1,3,564,104,r,-1.0399081978750682,54.50890409317407,1664.2057530993002,21.536780334226236,25.519192496263713
2025-02-19 14:51:33.000,799,10,586,-3,-8,19,0,-1,5,831,101,r,-0.9776487850298482,53.73907558435157,1605.3318463597702,20.09176278297585,-5.377299082384525
2025-02-19 14:51:33.109,669,-131,654,-14,26,11,-2,-1,3,806,59,r,11.32677921846653,45.08615842447342,1377.1692918494023,-269.6699211244719,-38.291056606142206
2025-02-19 14:51:33.829,785,-75,605,0,-7,-4,-3,0,4,809,84,s,7.066729716401078,52.16708500418147,1574.8027822004717,-150.4588645414463,-3.7015073010003334
2025-02-19 14:51:33.922,805,-61,592,1,-4,0,-1,0,4,819,96,s,5.88302599447869,53.52457806435941,1609.1119466775972,-121.93270651842661,0.6530777228106217
2025-02-19 14:51:34.033,786,-85,632,-5,-1,-12,-2,0,3,794,103,s,7.6599545915622125,50.9472037182558,1562.5657324003096,-168.97975477611493,7.585823311710328
2025-02-19 14:51:34.139,783,35,594,0,-20,49,-1,2,3,732,103,s,-3.3721150381783533,52.76747360883025,1579.1865632364443,70.58943769256138,-10.00359969661315
2025-02-19 14:51:34.242,826,-48,492,28,33,-10,-1,0,5,663,105,s,5.572197803963795,59.10076014594269,1684.0717188253375,-97.86373184457167,-19.103251406859727
2025-02-19 14:51:34.351,591,-79,735,-31,30,8,0,1,0,703,42,s,6.134770052401312,38.64152755873375,1215.4458730689998,-162.4707681428951,-41.59512132946702
2025-02-19 14:51:35.066,793,-40,612,-2,-4,-3,-2,-1,4,792,75,t,3.739503362931072,52.28165172888506,1584.0276583608406,-79.90051240155566,1.5221602561986174
2025-02-19 14:51:35.167,770,-45,617,-2,-2,-3,-3,-1,3,809,76,t,4.17139871906697,51.22066278050934,1549.5638886060747,-90.55892855490046,-7.663531519413141
2025-02-19 14:51:35.277,737,-47,615,-3,-13,-14,-2,-2,3,822,86,t,4.3702070835266555,50.074127854603766,1503.8754243872154,-95.90521702333663,-24.929967433021943
2025-02-19 14:51:35.384,729,-207,620,8,0,-25,-2,-3,5,792,100,t,18.46266811418614,48.119661694036544,1473.540676687933,-418.4127847385489,-13.217036414977315
2025-02-19 14:51:35.490,896,108,559,14,-5,37,-1,0,5,748,103,t,-10.934939615956967,57.56726050424987,1740.0216098186397,209.7347476120682,32.42848226716569
2025-02-19 14:51:35.598,523,-125,617,-6,0,-44,-1,-1,3,638,83,t,11.452725398356346,39.71886173463304,1162.021068749004,-277.7297009438346,-136.8738038587677
2025-02-19 14:51:35.707,742,59,617,-24,-37,31,-2,-3,4,829,103,t,-5.462242461873639,50.12699698132964,1509.4673088647583,120.02502860245383,-21.176994029051116
2025-02-19 14:51:35.810,759,-10,483,-46,77,15,-1,1,3,744,60,t,1.18607857041729,57.52324653085359,1602.6093741549937,-21.114748012582268,-53.84232900772338
2025-02-19 14:51:36.626,771,-40,621,-1,0,-3,0,0,3,713,72,u,3.6854581214356372,51.09242410308455,1549.1601097191817,-80.37147132135833,-5.767092264087978
2025-02-19 14:51:36.723,753,-32,623,2,-3,-7,-2,-1,2,713,77,u,2.9403773402994497,50.36002098667777,1523.0682828252548,-64.72534535246766,-14.121567330854873
2025-02-19 14:51:36.826,803,-44,575,4,2,-6,-1,-2,3,560,96,u,4.375844957413647,54.31567315701054,1615.2431231507735,-88.50647250141225,-6.6186747343646175
2025-02-19 14:51:36.940,828,95,585,-3,-17,19,0,0,5,775,102,u,-9.223922282105343,54.40577841774734,1641.15946541933,188.29728166043037,10.485160301560313
2025-02-19 14:51:37.047,783,-67,569,-2,-4,-27,0,-3,4,812,100,u,6.7156791427538245,53.80659104426332,1590.0282473774587,-136.05605692757308,-17.46114017595653
2025-02-19 14:51:37.153,963,63,574,-1,1,25,-2,-1,3,800,102,u,-6.26349061433454,59.05169041481281,1820.631602645902,119.10674036001228,62.805254497666
2025-02-19 14:51:37.260,514,-173,706,-17,14,-6,0,2,2,771,41,u,13.768597462371822,35.26507977453695,1091.360103337728,-367.3254822518034,-87.02769057672378
2025-02-19 14:51:38.177,763,-70,632,4,-1,1,-1,0,3,767,70,v,6.320290468657776,50.19303595547414,1531.2057154612016,-140.47758857442216,-4.311942557640123
2025-02-19 14:51:38.276,773,-37,618,-1,3,-5,-2,1,2,720,74,v,3.426239981076774,51.30826989107947,1553.5206447504358,-74.35997911483328,-6.012624134242174
2025-02-19 14:51:38.386,1099,-67,653,-3,-4,-14,-1,-3,2,497,96,v,5.858239961161782,59.150300329753996,1957.515416137986,-119.33897441423574,142.89029414185183
2025-02-19 14:51:38.489,754,92,596,3,-23,44,0,1,4,705,102,v,-8.775055744479678,51.34673160186436,1534.9401083101338,187.2871219688758,-21.29483362445592
2025-02-19 14:51:38.598,775,-172,570,3,1,-32,-1,0,5,791,106,v,16.79141883194156,52.467108103174205,1568.0037367539767,-347.9956680279794,-13.241457999699037
2025-02-19 14:51:38.707,697,-122,629,-25,47,28,0,-1,3,796,57,v,10.976719269972087,47.4090033239131,1433.2034407278006,-250.86200827660218,-35.37871480313743
2025-02-19 14:51:38.813,816,-90,628,12,-20,-11,0,1,2,771,57,v,8.155646614395362,52.13597285900436,1605.469605072803,-177.0738535006768,20.418000017499708
2025-02-19 14:51:39.626,784,-55,617,4,0,-3,0,1,3,715,71,w,5.0939394822488735,51.687371087502726,1568.6397421911486,-110.04487987310353,-0.5034705764524006
2025-02-19 14:51:39.726,755,-34,628,5,-2,-6,-1,-1,2,702,74,w,3.0989753074042734,50.20549110093313,1523.344866764628,-68.60096088741372,-11.10010109693576
2025-02-19 14:51:39.836,709,-47,615,19,-17,-26,0,-1,3,624,93,w,4.3702070835266555,48.978418172625844,1463.462406344848,-97.01372792412955,-39.43495049658884
2025-02-19 14:51:39.939,768,-25,615,-5,-19,50,0,-2,3,618,97,w,2.3278150890411546,51.28982771545148,1548.3193895468635,-50.40102179514529,-9.865136160574139
2025-02-19 14:51:40.046,727,-145,615,4,-4,-36,-2,-1,3,779,101,w,13.266480846583711,49.00489926364345,1481.7656759437439,-295.53785833816073,-23.48815777909556
2025-02-19 14:51:40.156,822,79,565,-7,-24,52,1,0,4,760,102,w,-7.959664246535096,55.23802182532773,1643.527757270343,157.9546141415537,0.32459506357201917
2025-02-19 14:51:40.263,734,-316,588,4,1,-21,0,-2,4,810,106,w,28.254249461679912,47.71519907610037,1473.809601620986,-634.501136392686,-4.654013287656198
2025-02-19 14:51:40.369,689,-57,607,-18,38,17,-1,1,4,811,66,w,5.364597042712105,48.49558312283229,1437.9046378141156,-118.9558263503695,-52.77520341533841
2025-02-19 14:51:41.583,800,-78,587,1,-3,-1,0,0,6,792,86,x,7.569067751714931,53.49117330887569,1603.7652157600182,-156.36710853660176,-2.762727063913303
2025-02-19 14:51:41.676,800,-62,581,0,-4,-3,-1,-1,4,803,91,x,6.0911283120982755,53.85660139417024,1607.5433662234645,-124.58461088231851,-5.478369719791203
2025-02-19 14:51:41.789,801,-76,592,-3,0,-1,-1,0,4,806,92,x,7.31552530439626,53.30867138346353,1602.8660821561198,-152.08217508597392,-0.6401006696914919
2025-02-19 14:51:41.897,794,-89,590,-2,-2,-1,-1,-2,5,813,94,x,8.57824697764271,53.07587801817168,1593.4318059021773,-178.60885481775034,-4.036228567109106
2025-02-19 14:51:42.003,801,-72,579,2,-3,0,-1,-2,5,824,97,x,7.088475678146005,53.92988601409558,1609.2971042934246,-144.6559194870494,-5.274685875022442
2025-02-19 14:51:42.110,794,-93,583,-4,-8,-4,-2,-1,6,836,105,x,9.06344408297727,53.36770708209793,1596.481304777388,-186.99340219684768,-6.227456782389368
2025-02-19 14:51:42.216,699,-79,692,19,11,16,0,-2,6,656,109,x,6.512796235774906,45.102857780242864,1407.3750440758834,-159.0595543376177,-9.281159514322212
2025-02-19 14:51:42.326,909,140,596,9,27,-62,-1,1,2,658,101,x,-13.21908490701659,56.039270348699475,1738.4206468701655,267.7435539734028,52.17744165608519
2025-02-19 14:51:42.436,910,-24,637,-28,-45,44,0,-3,5,697,104,x,2.157690107916617,54.98888598918363,1729.0407687689235,-45.6010752202793,63.67146186175364
2025-02-19 14:51:42.544,893,-74,490,26,39,-28,-1,3,6,770,106,x,8.58793559647603,60.97260703966508,1767.3878209946654,-146.45766937693756,10.21272980135933
2025-02-19 14:51:42.646,517,-171,711,1,2,-4,0,1,1,693,42,x,13.523160650416017,35.25974232684151,1094.2840398956187,-361.9392085534832,-82.90513030132468
2025-02-19 14:51:43.366,791,-62,593,0,0,-3,-1,-1,5,777,88,y,5.968766631645741,52.99209673217809,1589.5524892619342,-124.59197766654859,-5.661979939730713
2025-02-19 14:51:43.461,795,-46,613,5,1,-7,0,-2,5,762,93,y,4.291476947096318,52.28747320605755,1586.0898135780249,-91.77375021960898,3.015024247384531
2025-02-19 14:51:43.576,824,-102,621,-11,-5,-11,-2,-2,3,676,100,y,9.327614510667603,52.6296106705686,1618.7284085112235,-200.37657483998157,22.060264944818186
2025-02-19 14:51:43.681,819,101,520,21,-22,43,-1,-1,3,726,106,y,-10.991743707835692,57.10577115246867,1658.674571854086,204.5496114252292,-13.126712288308681
2025-02-19 14:51:43.789,593,-239,602,-12,23,-20,-1,-1,5,841,85,y,21.653570933821044,42.47524734586041,1268.2716294807433,-511.1583801785795,-83.52027141215422
2025-02-19 14:51:43.889,732,-43,675,-11,-19,54,1,0,7,756,109,y,3.6450279816359115,47.2620565577832,1466.465330930134,-86.14482135245325,-2.2733584396728475
2025-02-19 14:51:44.002,1071,-112,398,32,38,-22,-2,0,4,565,104,y,15.7169753987347,68.89096347029927,2003.8967455350191,-209.5578295984333,51.321284105567315
2025-02-19 14:51:44.108,556,-135,721,-6,-1,-13,1,2,3,658,46,y,10.605260557545071,37.16135319339516,1160.06170676858,-281.6696590175509,-62.3246233455867
2025-02-19 14:51:44.927,798,-109,605,0,-2,-3,-2,-1,4,814,76,z,10.21314662349973,52.391083282525635,1590.1946792620424,-217.2070426560935,4.401277000581786
2025-02-19 14:51:45.020,792,-96,604,3,-1,-3,-1,0,4,826,80,z,9.03107179644063,52.324718356334394,1583.4872823078085,-191.9378524009465,0.39101197737829807
2025-02-19 14:51:45.128,785,-85,606,4,-1,-5,0,-1,3,828,86,z,7.984446653452612,52.0624641125354,1573.6814820470136,-170.39863181400784,-2.8420103445735094
2025-02-19 14:51:45.238,791,-79,629,7,-4,-31,-2,-2,0,689,101,z,7.158647207598524,51.28980401117361,1571.319130815526,-156.93326338107022,8.493383965909175
2025-02-19 14:51:45.342,681,-29,688,13,-20,11,-1,1,4,854,104,z,2.413654942689473,44.68161093439516,1384.1665356793578,-58.94394939016356,-22.394385532156093
2025-02-19 14:51:45.452,1006,34,395,-29,6,0,-1,-1,2,629,107,z,-4.919662489348702,68.4907979153108,1936.3586934387197,65.4435343706923,29.700115399309993
2025-02-19 14:51:45.559,692,-121,641,13,-15,4,0,-2,5,828,113,z,10.689797922502864,46.69067537687702,1419.6611342547562,-248.23554515148197,-33.03292927355335
2025-02-19 14:51:45.666,540,-171,471,-19,33,-36,0,1,5,684,73,z,19.95379922035722,47.14091557833754,1273.0288226038492,-403.12579382455226,-168.36402860446856
2025-02-19 14:51:45.776,814,-33,546,-8,-35,14,-1,-1,4,830,108,z,3.4587243188064174,56.09946447335234,1644.0070719810983,-66.64893535058508,-10.736930346044005
2025-02-19 14:51:45.876,932,73,514,-38,68,9,-2,-2,4,787,79,z,-8.083279335829983,60.880599187379595,1805.6074958686543,141.42633819572077,32.20359133424006
2025-02-19 14:51:47.396,783,-89,604,0,-1,0,-1,-1,4,682,70,0,8.382271170870544,52.05569263791081,1571.6088164533858,-178.63752830696205,-4.326596600057428
2025-02-19 14:51:47.489,777,-85,604,-1,-1,0,0,-2,3,699,70,0,8.010542588990829,51.86778349519383,1563.5879481287689,-171.04887463442128,-7.453179755181964
2025-02-19 14:51:47.598,785,-93,606,0,-1,0,-2,1,5,712,71,0,8.724846869374478,52.009727913454086,1573.115271789632,-186.36907041584175,-2.404910451613887
2025-02-19 14:51:47.707,785,-92,595,-2,0,-2,-2,-2,3,725,72,0,8.789573629052924,52.51291544594635,1578.4905453430122,-184.99507028223834,-6.435508890563142
2025-02-19 14:51:47.806,790,-82,594,-7,3,-7,0,0,5,738,73,0,7.8598412476618424,52.80043328386375,1586.534490118996,-164.6782635313388,-4.91327484896658
2025-02-19 14:51:47.922,804,-108,616,-2,-2,0,-1,1,5,783,76,0,9.944294263185931,52.122239458519466,1593.32246127708,-214.02839032080178,11.245477429500966
2025-02-19 14:51:48.026,779,-84,610,2,-2,-3,-2,-2,2,816,76,0,7.840599271450611,51.675578396653826,1563.5121262576267,-168.59437561699696,-4.316299123430326
2025-02-19 14:51:48.139,783,-74,596,2,-6,-5,-1,-1,3,824,79,0,7.077684034586007,52.511084846006504,1576.4711007269348,-148.9896059435417,-7.970339761497939
2025-02-19 14:51:48.239,800,-53,593,8,-9,-2,0,0,5,830,84,0,5.107300356414564,53.343204015818735,1602.2260568905092,-106.14747626899623,-1.6500646700898187
2025-02-19 14:51:48.346,792,-52,588,-11,3,-14,0,0,4,842,81,0,5.053826050064366,53.30203534949106,1593.7968735046784,-104.64322906848898,-7.273436389836888
2025-02-19 14:51:48.458,742,-62,626,4,-15,-5,-1,-2,2,858,93,0,5.6562156345159735,49.70893772757862,1504.769214947822,-125.73543305493934,-17.522275683742237
2025-02-19 14:51:48.569,777,-96,621,-2,-2,-16,-1,-1,5,842,107,0,8.787756287562821,51.036792755762164,1554.5499222613264,-192.06794406317545,-0.43951315866615914
2025-02-19 14:51:48.672,922,-113,608,43,8,52,-1,-3,4,700,103,0,10.528592228543111,56.14911651998695,1752.4901042625565,-214.78457893890334,60.344920399528746
2025-02-19 14:51:48.780,749,-69,623,-3,-18,-11,-2,1,5,816,115,0,6.320002959038226,50.0753293611077,1515.88888283726,-139.64797452038846,-14.879538060898653
2025-02-19 14:51:48.887,890,-74,441,24,48,-22,-1,-3,5,811,105,0,9.525516056863916,63.323529304966485,1783.5558320578584,-148.29565345200172,-1.7619347612534284
2025-02-19 14:51:48.988,535,-108,734,-22,30,48,0,2,1,720,40,0,8.370380615670145,35.79607331030357,1119.902088438348,-226.07369261933007,-68.46379983878057
2025-02-19 14:51:49.906,797,-36,584,-1,0,0,-1,-1,6,798,89,1,3.527468050374119,53.71616710197904,1603.0952980239165,-72.41082901990089,-6.664559656169786
2025-02-19 14:51:50.010,787,-29,594,-1,0,-3,-1,-2,4,790,90,1,2.7950493991182084,52.92297504335344,1584.8257451586283,-58.39891564116928,-8.17089278808794
2025-02-19 14:51:50.116,779,-41,613,2,-10,-3,-1,-2,5,771,99,1,3.8264818889931527,51.738411721015844,1564.1917008251326,-82.32587899079645,-4.872288325810473
2025-02-19 14:51:50.227,865,44,533,-6,-21,-15,-4,-1,4,777,104,1,-4.719157398800257,58.272286377716654,1715.5568424442122,87.2653191532316,8.899656621080794
2025-02-19 14:51:50.334,790,-120,589,1,-10,-22,-2,-4,4,824,107,1,11.515560816181019,52.73300698764366,1585.8224470067573,-240.88442233014035,-4.341039603772288
2025-02-19 14:51:50.438,851,51,505,15,8,22,-1,-1,5,771,111,1,-5.766754440345475,59.18654486739785,1709.839626961546,102.46982488253683,-4.652187562374422
2025-02-19 14:51:50.547,800,-150,612,14,-19,-16,0,1,2,642,105,1,13.771599717082418,51.774516703428326,1585.58176754378,-297.29658141445873,11.029947829008506
2025-02-19 14:51:50.657,788,-32,600,-9,-38,12,-2,-1,4,413,116,1,3.052882514792428,52.67435411679106,1583.2021576778125,-64.29247340823603,-5.4838764044257005
2025-02-19 14:51:50.756,1122,49,611,-10,72,8,-1,0,4,737,91,1,-4.585102378508633,61.35170637649688,1999.5791824898906,87.32565057219665,133.10260204873157
2025-02-19 14:51:50.871,702,-99,629,-12,-18,-28,-1,2,3,705,59,1,8.944558795694974,47.790660336733836,1442.695090699191,-203.45699997039878,-34.671242236169974
2025-02-19 14:51:51.588,749,-38,603,2,-3,-4,0,-2,4,696,84,2,3.6059109672045824,51.10790731730353,1527.3298054933937,-77.48802751501863,-23.61264714621666
2025-02-19 14:51:51.681,771,-41,607,1,-2,-1,-1,-3,3,670,88,2,3.864191401008724,51.72362419453734,1556.0318510934408,-82.74618144595468,-11.047125309621833
2025-02-19 14:51:51.791,791,-15,565,-3,-2,-5,-1,-3,2,612,100,2,1.520769661143766,54.45277478030533,1604.6366058362073,-30.429265597399635,-16.16900416871954
2025-02-19 14:51:51.899,731,-9,654,10,-21,15,0,-2,3,838,102,2,0.7884242624401321,48.17942562780854,1476.236606122743,-18.175279692345676,-12.736990977119035
2025-02-19 14:51:52.005,862,166,482,-16,16,20,0,-1,4,668,105,2,-19.003622749411033,59.400054701702615,1722.7425129980238,331.7578389300139,0.7031423839355284
2025-02-19 14:51:52.112,709,-66,605,1,-42,23,-1,-1,4,754,113,2,6.225829064425768,49.35796452121864,1467.7936576474522,-136.63523470342997,-42.48965144810802
2025-02-19 14:51:52.218,991,89,601,-23,94,16,-1,1,4,738,77,2,-8.423513930155604,58.48871442229725,1843.5372310169153,165.56489763925876,83.97187099781434
2025-02-19 14:51:52.325,606,-131,698,8,-3,-15,1,1,-2,453,35,2,10.629567183246479,40.474022660892125,1255.1032210553667,-271.31769300041753,-49.646944383904156
2025-02-19 14:51:53.146,750,-50,637,-3,-2,-8,-1,-1,2,709,54,3,4.488111732274859,49.570803865201036,1511.2079470772433,-100.74719647181621,-9.519283050938611
2025-02-19 14:51:53.242,726,-57,641,-5,-3,-11,-1,-3,3,712,59,3,5.081578615681013,48.44609053316182,1474.331931684507,-115.75333347936213,-19.71731158370369
2025-02-19 14:51:53.348,697,-52,634,0,-10,-15,-1,-3,3,673,69,3,4.688843065447259,47.61432733567147,1435.6239330389226,-107.10537233575893,-37.86165501675305
2025-02-19 14:51:53.459,1031,134,576,-5,-20,-2,-3,-3,3,690,98,3,-13.096282200198004,60.161424607777484,1898.4306602515753,246.74074536732408,91.38306468971149
2025-02-19 14:51:53.556,723,-57,632,18,3,18,-2,-4,5,711,101,3,5.153555908880539,48.72710751701279,1474.5763063799773,-116.25290382248784,-24.979565189689538
2025-02-19 14:51:53.668,699,8,670,-7,-4,19,-1,-3,3,731,101,3,-0.6840962011419872,46.21149459617863,1420.8990703323905,16.26207805816756,-21.949037371532995
2025-02-19 14:51:53.778,932,37,403,15,20,15,-2,-2,3,310,105,3,-5.245700285112533,66.52845155733742,1849.2579694724213,73.41474771510684,6.3745046165389
2025-02-19 14:51:53.885,477,-109,728,-30,30,11,1,1,1,645,47,3,8.515370761252154,32.94310640110162,1020.8059830180349,-233.26593741921556,-101.95965542375154
2025-02-19 14:51:53.992,854,-86,604,-1,-21,-19,0,-1,2,661,59,3,8.103539639548563,54.45824434571188,1667.6921011891072,-167.94089075206466,28.5081626250344
2025-02-19 14:51:54.808,783,-22,609,-1,1,-7,-1,-2,3,723,76,4,2.0688986162223832,52.10690911077765,1572.1581537418733,-44.173026031061575,-4.78967513256805
2025-02-19 14:51:54.904,787,-14,602,0,-8,-14,-2,-3,2,747,84,4,1.3322198538696388,52.57906234211122,1581.1926134956725,-28.127949922413492,-5.501846663780043
2025-02-19 14:51:55.012,828,11,617,-5,-3,-11,-2,-4,5,752,98,4,-1.021372468577071,53.30329778607969,1629.8100405607802,21.652065756242248,19.51594803623027
2025-02-19 14:51:55.117,863,61,561,27,9,15,0,-4,3,135,97,4,-6.205642217477714,56.81974787095503,1699.9529898340056,120.15890194655198,16.93206570466134
2025-02-19 14:51:55.225,1004,12,581,24,-18,9,0,-4,2,0,94,4,-1.1832213632473223,59.93736914558502,1869.4783291752026,22.344362500102022,80.16044895339382
2025-02-19 14:51:55.331,775,25,622,0,-2,8,-3,-3,4,783,104,4,-2.3016461477052075,51.2275714616531,1554.6394044512806,50.14965820810582,-3.723496217672846
2025-02-19 14:51:55.441,461,-155,616,-12,-7,-30,-2,-2,3,748,74,4,14.12375127237531,35.970415082480045,1048.3674346140747,-352.48796608499254,-168.85540069906722
2025-02-19 14:51:55.548,753,-141,710,2,2,32,-3,-3,4,703,99,4,11.232316997908153,46.13014893354112,1473.9158786723624,-275.99221632510375,30.251960348768534
2025-02-19 14:51:55.655,818,27,574,23,15,21,0,-2,5,605,103,4,-2.693112549099729,54.91244343947517,1636.2745771886994,54.009063061240695,-0.19267396859834207
2025-02-19 14:51:55.765,551,-149,708,-13,12,-3,-1,1,2,687,55,4,11.8845794676308,37.29168004209293,1156.872882648684,-312.83858351116874,-70.50816863025113
2025-02-19 14:51:56.479,776,-42,616,11,4,-6,-2,-3,4,580,83,5,3.90049374238189,51.49222778230872,1558.5237050506748,-84.35308712903137,-5.178611225793247
2025-02-19 14:51:56.576,768,4,611,9,-1,-7,-1,-5,4,486,89,5,-0.3750897610209729,51.494594499805075,1550.5494229880924,8.075778244729648,-11.575126882453674
2025-02-19 14:51:56.683,796,-48,574,-5,-4,-11,-1,-5,3,2,95,5,4.780162964637686,54.109656641281646,1606.140456245902,-96.85269082889862,-10.19676116224582
2025-02-19 14:51:56.793,639,-90,687,11,-1,4,-3,-2,4,741,102,5,7.463494459985338,42.683821529793256,1316.9521267848759,-185.48621504012337,-41.87810813960846
2025-02-19 14:51:56.900,746,-53,478,20,33,-15,-1,-4,2,278,77,5,6.327035424783367,57.191040732335075,1586.481887000521,-112.71252012202092,-60.53933242124526
2025-02-19 14:51:57.003,790,-26,700,0,0,23,0,-4,2,323,91,5,2.1271511128508025,48.437014355150104,1538.2268456078336,-50.625187323802116,37.014187436096904
2025-02-19 14:51:57.108,776,-40,613,18,4,5,-1,-3,1,0,93,5,3.7334202981042024,51.63386097025655,1560.060409727736,-80.41548503751218,-6.367308199873946
2025-02-19 14:51:57.218,697,34,738,-17,-15,23,0,-3,2,749,98,5,-2.6377777970285408,43.333103252138585,1383.238716967492,67.47505936426792,11.394299681478628
2025-02-19 14:51:57.326,993,-51,465,61,30,-16,0,-2,3,0,95,5,6.259036305122252,64.77553100575159,1897.645134732169,-97.46213682914464,41.37463479309304
2025-02-19 14:51:57.432,593,-95,735,-25,1,12,1,1,0,633,47,5,7.3647462449826495,38.664935775858154,1217.7649266715127,-195.08881624585786,-39.37136779690036
2025-02-19 14:51:58.354,777,-63,611,2,-5,-4,-3,-2,4,788,85,6,5.886944404801606,51.67268252044767,1561.4807831239993,-126.60654998302697,-5.882572057610787
2025-02-19 14:51:58.448,777,-36,583,-1,-3,-7,-3,-3,5,798,98,6,3.533503279110696,53.0659527044137,1576.3277251572924,-73.03448919647687,-16.752977820722435
2025-02-19 14:51:58.557,707,-60,640,14,12,-18,-1,-3,4,653,100,6,5.355825042855191,47.72280259925264,1446.898882209905,-122.79198434596083,-29.781166356915264
2025-02-19 14:51:58.661,883,-11,539,15,0,60,-1,-3,2,1,94,6,1.169139327907419,58.59400931212219,1736.4963172869982,-21.632456953745162,18.009609266486905
2025-02-19 14:51:58.768,720,-26,706,-5,-26,3,-1,3,3,779,109,6,2.109089737257767,45.54308312338682,1433.77729082539,-51.77529105758353,6.101712051770164
2025-02-19 14:51:58.882,860,-32,579,14,43,-45,-2,-3,3,170,100,6,3.1633878648593763,56.0088711979418,1689.124143356552,-62.85113091559262,20.78734999599601
2025-02-19 14:51:58.984,832,46,605,-45,37,44,-1,-2,3,636,65,6,-4.3480075479017275,53.898138538138014,1639.9707412842167,90.67145925369468,17.473198945972285
2025-02-19 14:51:59.095,707,-104,654,2,-23,-18,0,2,3,734,60,6,9.035598870368046,46.873285061414585,1436.8436115476895,-211.36030495185247,-21.131148447226224
2025-02-19 14:51:59.201,763,-59,632,-12,6,-2,-1,-1,2,701,66,6,5.333357212228749,50.242562152356555,1531.758816865773,-118.44530825043333,-4.7700815978619175
2025-02-19 14:51:59.916,763,-44,621,1,-3,-9,-1,-3,4,690,86,7,4.052831375271473,50.78786179869886,1537.8105749099084,-88.68108164618081,-9.61253868814299
2025-02-19 14:52:00.013,792,-9,600,-3,-3,-7,-2,-5,5,506,97,7,0.8593722436446809,52.85021105733065,1589.0594514835238,-18.05749376685823,-3.8329177905484357
2025-02-19 14:52:00.119,747,34,587,2,-26,16,-1,-3,3,788,98,7,-3.31496142476503,51.792762457405544,1532.7787702079036,69.76503104025264,-30.47274178318537
2025-02-19 14:52:00.230,762,-97,658,29,-5,43,0,-3,4,780,102,7,8.385939771378602,48.883936635616216,1515.3790618867502,-192.9025839934577,7.444327137163327
2025-02-19 14:52:00.336,831,-24,625,0,10,13,0,-1,4,738,102,7,2.199077467441056,53.032679000013566,1629.9786290256795,-47.07519506211349,24.083461924128073
2025-02-19 14:52:00.447,588,-119,571,12,-42,-41,-1,-1,1,388,81,7,11.772295910090417,45.23145893751831,1297.9575174562337,-262.68187853280915,-118.43153480868921
2025-02-19 14:52:00.553,670,-44,674,-11,-32,19,-2,-2,5,754,107,7,3.7350773549822787,44.76856383690957,1374.2447876151882,-90.24891142547504,-34.449234108413066
2025-02-19 14:52:00.655,1064,12,654,6,61,-5,0,-2,5,763,93,7,-1.0511807495437469,58.41824999277291,1915.8937922145915,21.607824724224713,130.37355252975306
2025-02-19 14:52:01.578,786,-62,599,-3,-2,-1,-1,0,4,730,81,8,5.909404528901281,52.542182979679765,1579.8013148107814,-124.61537088838223,-5.945276808725225
2025-02-19 14:52:01.671,734,-52,596,4,-13,-9,-2,0,3,782,95,8,4.986333771235495,50.817425858908024,1509.1366773753646,-106.9143150184182,-33.402533672639265
2025-02-19 14:52:01.782,692,-90,648,-3,7,-21,-1,-3,4,721,105,8,7.907162702958458,46.607506892713495,1418.6646869362896,-184.5084130408469,-32.460573894097706
2025-02-19 14:52:01.888,841,97,546,-11,-38,67,-1,0,3,668,104,8,-10.073816351870557,56.59942831547802,1675.842370647677,193.2897859129901,3.9976999124473878
2025-02-19 14:52:01.993,708,-37,587,6,9,-58,0,-2,2,784,106,8,3.6067171166150414,50.28218256849356,1477.200878403156,-77.19835098999543,-50.74140624668428
2025-02-19 14:52:02.106,904,42,577,-38,-24,-6,-2,-5,3,831,100,8,-4.163234167795833,57.38225977434715,1746.2855395361282,81.13273524393517,39.390756291652565
2025-02-19 14:52:02.208,782,98,522,-9,7,45,-1,-2,6,724,105,8,-10.632908983879199,55.81639640386218,1609.241392499131,201.66963742316477,-30.199497294816524
2025-02-19 14:52:02.314,703,-28,573,-30,55,36,0,-1,1,731,62,8,2.797568455940072,50.783807762829184,1477.7658413166744,-58.85838343793297,-58.49477535484266
2025-02-19 14:52:03.138,774,-51,605,-2,-1,-4,-3,-1,2,761,83,9,4.818500168914328,51.88843787705683,1560.810489880606,-102.8441020463965,-10.013367413134915
2025-02-19 14:52:03.228,790,-21,594,0,-2,-2,-1,-2,5,780,88,9,2.0247650815610374,53.04335068391319,1589.0906219785968,-42.241649445000675,-6.8352271585905555
2025-02-19 14:52:03.334,785,-40,596,1,-3,-3,-1,0,5,796,93,9,3.839596337953471,52.73090942040706,1580.8002783488707,-80.55033265471951,-8.199956555320796
2025-02-19 14:52:03.445,778,-51,620,3,0,-16,-4,-2,5,790,101,9,4.702452789131307,51.353933462739136,1559.018612720854,-102.19787821177836,-2.4055782608351137
2025-02-19 14:52:03.551,915,55,525,23,10,20,-1,-5,3,325,98,9,-5.9805995247634485,60.01890207167996,1781.1903083471025,107.06608410829577,28.005560784449415
2025-02-19 14:52:03.657,742,-16,621,2,-6,-19,-2,-3,5,820,102,9,1.4758932391500612,50.0637629144052,1508.7593094488573,-32.53389346520447,-20.721740118248476
2025-02-19 14:52:03.764,894,-48,674,20,-2,5,-2,-3,3,814,97,9,4.073534161108629,52.91712114592712,1691.7641440459356,-90.832974176963,72.5536542651447
2025-02-19 14:52:03.875,801,56,516,-13,-5,42,-2,-1,4,662,111,9,-6.193904967150984,57.05767616468757,1640.218397810444,114.67194791184127,-24.620091473394496
2025-02-19 14:52:03.981,499,-80,548,-27,59,25,0,0,2,535,53,9,8.305676205556,42.019903878610954,1168.3887257337165,-187.31682977694854,-187.12028397209724
