Timestamp,Acc_X,Acc_Y,Acc_Z,Gyro_X,Gyro_Y,Gyro_Z,Mag_X,Mag_Y,Mag_Z,Force,IR_A,Letter,Roll,Pitch,Lin_Acc_X,Lin_Acc_Y,Lin_Acc_Z
2025-02-19 14:55:12.305,661,-101,719,0,-2,1,-8,1,9,117,42,noise,7.9961818044720445,42.31454216624599,1334.200216623326,-203.8641783342752,-13.270734874691811
2025-02-19 14:55:12.407,686,-99,727,-5,-2,0,-6,0,11,169,43,noise,7.754614957312065,43.075283277096354,1368.9587267268405,-197.56109904658487,3.223040334674806
2025-02-19 14:55:12.515,666,-99,724,-2,-2,-3,-8,1,11,202,42,noise,7.7863539790668055,42.34630028226612,1339.6099839462568,-199.13121382984895,-8.272715280915577
2025-02-19 14:55:12.625,668,-104,721,2,-2,-1,-9,1,11,277,44,noise,8.207964945826877,42.52083516090654,1343.8582680630109,-209.22344293196576,-8.481753403339553
2025-02-19 14:55:12.731,670,-101,728,-1,-1,-2,-8,0,10,300,45,noise,7.898583242907567,42.35225034222241,1343.686733121561,-202.55576126160844,-4.0058831529796635
2025-02-19 14:55:12.838,674,-99,717,-2,-1,-2,-9,1,11,294,46,noise,7.861425404361093,42.95946545006173,1355.4807849526724,-199.0988096592204,-7.958045713747765
2025-02-19 14:55:12.939,678,-101,720,-1,-1,0,-7,0,12,261,46,noise,7.985219345773575,43.00064732035504,1360.0066227591224,-202.59685678270108,-4.25482062915637
2025-02-19 14:55:13.054,687,-100,713,-1,-1,-1,-9,-1,9,240,46,noise,7.983796419220416,43.65727772456831,1377.343142684303,-200.48662921168898,-3.469666279342391
2025-02-19 14:55:13.161,680,-93,711,-1,-2,-2,-9,0,11,248,47,noise,7.4520774434046775,43.480603758481585,1368.1089765192428,-187.10902178866115,-8.478650448796543
2025-02-19 14:55:13.268,680,-84,710,-3,-1,-1,-9,1,11,253,48,noise,6.747291144316346,43.56470400657865,1369.1733003787065,-169.13317239972255,-9.578004807178786
2025-02-19 14:55:13.371,688,-94,716,0,-1,-2,-8,-1,9,228,49,noise,7.47929696976309,43.612959674937244,1377.7833258007608,-188.24365207161554,-1.855903013582406
2025-02-19 14:55:13.481,687,-91,712,-1,-2,-2,-9,0,11,191,49,noise,7.283428330294473,43.74432989692359,1378.441565837213,-182.58832968149397,-4.603194870590187
2025-02-19 14:55:13.588,681,-103,708,0,-2,0,-10,1,13,152,50,noise,8.277333722847784,43.58669693891862,1370.4513853210854,-207.27825651699237,-8.786462272141875
2025-02-19 14:55:15.006,774,-121,625,-10,-2,-8,-10,-5,18,816,75,A,10.956913037879497,50.56314224321783,1546.325098347949,-241.73816136964064,1.352472264252924
2025-02-19 14:55:15.105,747,-105,620,-8,-3,-14,-12,-4,17,820,84,A,9.612114754365889,49.909162379865585,1512.0243953278573,-212.53354954407632,-14.960006831688702
2025-02-19 14:55:15.206,806,-127,584,0,-3,-6,-9,-6,17,825,102,A,12.26884679104848,53.4430393656762,1609.2651200364849,-253.5690697824238,1.9816003705866478
2025-02-19 14:55:15.316,779,-106,611,-3,-3,-5,-9,-6,19,808,103,A,9.84206067953562,51.478292547613,1561.372250738559,-212.45886852154973,-2.6449874213857356
2025-02-19 14:55:15.430,750,-134,712,41,-4,51,-12,-5,18,482,98,A,10.658519628012492,45.99078114597026,1469.22802094328,-262.5020730751993,29.212865451179596
2025-02-19 14:55:15.537,1096,64,537,25,2,-32,-11,-3,15,502,106,A,-6.796489103491588,63.73684188092008,1992.7711451789137,116.36619825862269,97.61486773624387
2025-02-19 14:55:15.646,542,-580,957,39,-28,-23,-12,-4,16,788,100,A,31.218402764346372,25.8429497097097,977.9058684443436,-1046.4675344976372,187.32856807889868
2025-02-19 14:55:15.750,792,105,576,5,-41,80,-11,-2,18,621,111,A,-10.33110484433969,53.526050212757085,1596.1272208302826,211.60777548886318,-8.819796967477942
2025-02-19 14:55:15.856,356,-282,556,-3,9,-77,-11,-4,14,429,93,A,26.893861223092568,29.728012525847394,851.8832925352478,-674.8064283565727,-218.46941193707244
2025-02-19 14:55:15.956,721,1,630,2,-57,42,-11,-3,18,752,104,A,-0.09094560538689955,48.853444690087905,1474.028997653968,2.044423020324505,-27.986502804438032
2025-02-19 14:55:16.071,1125,-21,616,15,88,27,-10,-3,18,749,78,A,1.9525090493996085,61.28282663977782,2002.0021861113144,-37.37070747407787,135.79258076038246
2025-02-19 14:55:16.888,763,-104,630,-7,-4,-7,-11,-3,16,786,82,B,9.373811805446557,50.07528588325293,1529.8883958340948,-208.53000415038775,-3.2106020648488993
2025-02-19 14:55:16.987,767,-90,613,-7,8,-10,-12,-4,17,801,86,B,8.352431357345598,51.06921843649315,1544.905669589417,-181.27967439771516,-8.716004508881952
2025-02-19 14:55:17.098,762,-122,583,-8,2,-13,-11,-5,16,771,102,B,11.819298720876862,51.98652784768164,1549.865969239043,-248.14127066556853,-19.789842606774187
2025-02-19 14:55:17.204,812,117,522,-7,-18,46,-12,-3,18,439,110,B,-12.63336193527501,56.62282269135467,1647.0670706292244,237.32370352662468,-14.82883111878698
2025-02-19 14:55:17.306,528,-250,527,-14,-4,-51,-11,-4,16,766,93,B,25.37888167570109,42.151637899978674,1199.0950533356677,-567.75333964757,-142.8240399770774
2025-02-19 14:55:17.416,681,-42,750,-2,-15,20,-12,-5,19,803,100,B,3.205215931013497,42.194810345754384,1352.6534870404043,-83.42356307738177,10.293516475325646
2025-02-19 14:55:17.521,947,-96,378,6,18,2,-12,-3,17,548,108,B,14.250032697803595,67.61682199411514,1871.6578757141156,-189.7351172846411,8.917975691725758
2025-02-19 14:55:17.634,656,-176,731,-3,-25,45,-10,-3,18,650,107,B,13.537228328798586,41.10369780157689,1313.4238785115529,-352.38201618602636,-1.5866694999161837
2025-02-19 14:55:17.738,1233,-33,695,9,46,10,-11,-2,16,669,93,B,2.7184772805953465,60.563923616215014,2103.9045400665473,-56.30888063438448,204.100847245539
2025-02-19 14:55:17.846,490,-249,721,-2,-20,-33,-10,0,16,739,45,B,19.052541100101926,32.71597012992169,1030.4748549242058,-523.6494670941373,-74.27014367418883
2025-02-19 14:55:18.565,778,-111,608,0,-1,-1,-12,-4,15,818,80,C,10.346305057415398,51.53609329631808,1561.0001526839064,-222.71338939320515,-3.907574333952539
2025-02-19 14:55:18.658,778,-80,611,-1,-3,0,-11,-5,18,817,83,C,7.45946858997369,51.619008396386995,1561.8994856238924,-160.6066309124825,-4.633143594085141
2025-02-19 14:55:18.760,772,-98,606,2,-9,-3,-12,-4,17,824,88,C,9.18612616015352,51.50925502964265,1554.7087018916893,-197.35939479972222,-8.406053557465953
2025-02-19 14:55:18.876,777,-76,593,-7,-2,-4,-12,-4,17,821,104,C,7.303322141066876,52.42408862152186,1569.5460940688558,-153.52059607365902,-11.864650943155084
2025-02-19 14:55:18.985,811,-151,535,49,21,19,-13,-5,17,538,102,C,15.76134782289738,55.571257672237365,1635.8299797589598,-304.5750023965511,-9.12335286195264
2025-02-19 14:55:19.087,820,-60,603,22,-18,26,-11,-2,18,768,104,C,5.6823686178550545,53.53570186136033,1624.2273475540542,-118.84590347956494,11.598670030372432
2025-02-19 14:55:19.199,692,-134,579,-31,60,13,-10,-1,16,775,51,C,13.030747307693078,49.34333944647264,1450.6273769518948,-280.901833109182,-55.74747291206245
2025-02-19 14:55:19.305,772,-140,638,20,-24,-14,-9,0,17,744,52,C,12.376577500737188,49.7658412928086,1535.4110827220734,-278.4424243278371,7.09809484885659
2025-02-19 14:55:20.122,724,-88,651,3,-5,-3,-10,-3,15,831,70,D,7.69838775086157,47.78099478807595,1464.581743450472,-178.01546052989158,-14.90982732908435
2025-02-19 14:55:20.219,762,-68,625,-1,-4,-7,-11,-2,16,840,80,D,6.2093567135835475,50.47565446275404,1533.354237879473,-136.83476138556978,-7.672439205604405
2025-02-19 14:55:20.330,716,-141,652,10,-14,-15,-12,-3,16,842,95,D,12.202737687442685,47.026070719685755,1447.663948721061,-285.08466029283454,-14.263819226440773
2025-02-19 14:55:20.436,696,-302,713,13,-6,15,-10,-5,16,808,96,D,22.955689732488317,41.95085276094305,1364.4929046523075,-592.0644500071795,28.17896405589761
2025-02-19 14:55:20.542,806,-60,629,-3,-1,34,-11,-2,17,598,105,D,5.4489291919452745,51.905702226367154,1592.9964270939277,-118.5853419672899,14.830331709577422
2025-02-19 14:55:20.653,859,-212,595,-16,-15,-31,-10,-5,16,773,93,D,19.611111557276335,53.67220939189506,1664.641038798984,-410.8310829166294,36.959932380214696
2025-02-19 14:55:20.755,651,-40,670,-1,-9,60,-11,-4,17,634,103,D,3.4165881917713445,44.125027951098126,1347.226422226459,-82.77888923050439,-46.54639461094837
2025-02-19 14:55:20.866,1148,-130,679,-9,34,25,-10,-2,18,540,88,D,10.838573574528384,58.94338642777549,2004.6579767082062,-227.00830746695715,172.31814792258552
2025-02-19 14:55:20.972,553,-166,686,0,-11,-18,-10,-2,15,705,47,D,13.60308775140955,38.079031860441134,1169.7478446685475,-351.13588103974485,-79.07960477870449
2025-02-19 14:55:21.788,736,-111,647,-6,0,-3,-11,-4,15,775,70,E,9.734952209227965,48.26961404535408,1482.2852823938533,-223.55117710015998,-9.0415458000316
2025-02-19 14:55:21.886,739,-85,636,-2,-4,-8,-11,-5,16,788,78,E,7.6123454626254325,49.03304924782444,1494.0878814301307,-171.8504329114494,-13.84559213743296
2025-02-19 14:55:21.992,813,-91,694,-2,0,-13,-11,-3,16,778,97,E,7.470228635059172,49.27366532761613,1570.8345342638531,-175.8252676728298,47.090815769847495
2025-02-19 14:55:22.103,677,-261,755,0,-11,31,-10,-5,17,708,98,E,19.07003042412652,40.28055609540521,1323.530923029262,-510.2534282284157,33.97954669557919
2025-02-19 14:55:22.204,824,-69,624,2,3,27,-11,-3,17,526,103,E,6.309956508867874,52.69632495973438,1619.4346101816195,-135.60799527006282,21.632042775084074
2025-02-19 14:55:22.316,516,-252,642,3,-21,-60,-12,-5,18,738,96,E,21.431167276233193,36.80257210170239,1115.0595440591458,-544.5639633777223,-103.34152574800703
2025-02-19 14:55:22.422,742,37,601,38,-30,30,-11,-5,16,821,100,E,-3.5229145193877636,50.940444113013065,1518.4913969790464,75.71992141270177,-27.937101865777322
2025-02-19 14:55:22.529,855,23,691,-22,50,20,-11,-4,16,785,91,E,-1.9063915897703974,51.03979386011353,1632.582858316674,43.91743361553626,62.567537898454134
2025-02-19 14:55:22.635,769,-40,603,46,1,-7,-11,-4,17,528,97,E,3.7951549298003577,51.8376622386647,1555.2632218013052,-80.8979569207441,-13.53670058021737
2025-02-19 14:55:22.741,717,-58,711,-6,1,0,-11,-3,16,847,100,E,4.6635909550863985,45.14573611970578,1425.9030710591228,-115.34501830045903,8.02917221333837
2025-02-19 14:55:22.852,617,-116,507,20,-45,-12,-10,-3,15,566,99,E,12.887275062239093,49.87074248316124,1381.5923859147044,-259.748325390771,-121.27931873380066
2025-02-19 14:55:22.959,702,18,568,40,-36,25,-11,-1,16,808,105,E,-1.8151038701216524,51.00903428829249,1479.2451818243358,37.92936363652142,-60.882141419120444
2025-02-19 14:55:23.069,666,-150,386,-29,77,13,-10,-1,15,677,55,E,21.236177980671922,58.12652980786371,1515.2162807327325,-341.2649280929578,-106.18841495921123
2025-02-19 14:55:23.177,749,-72,673,17,-25,-27,-10,-3,13,774,58,E,6.106485342931799,47.89717767688989,1490.9428156440476,-143.32160577619686,6.341101564160226
2025-02-19 14:55:23.279,715,-61,650,-13,4,-8,-9,-1,16,777,61,E,5.361286204685202,47.601253524289874,1453.470092921824,-124.00234359193186,-21.33644811074919
2025-02-19 14:55:23.386,783,-118,615,-1,-6,-6,-12,-2,15,762,69,E,10.861337040620048,51.348312685066304,1563.9573440801983,-235.69216679624952,1.6043849178520304
2025-02-19 14:55:23.495,764,-75,635,-2,-1,-3,-9,-4,15,785,71,E,6.736011214119352,50.07305851320587,1530.8634460762178,-150.28109745512612,-2.379958453401173
2025-02-19 14:55:23.602,767,-71,628,-3,-1,-1,-10,-5,17,775,73,E,6.450318043047799,50.51179815478404,1538.755546121832,-142.4402135262713,-3.8937196408220416
2025-02-19 14:55:23.709,747,-86,627,1,-1,-2,-11,-4,16,754,74,E,7.810017530374309,49.72819121110353,1509.9864769865126,-173.84047793954494,-13.418368233658953
2025-02-19 14:55:23.815,751,-85,625,-2,0,0,-10,-4,15,754,72,E,7.744710546422914,49.97360936288902,1516.7482916403949,-171.66924738939224,-12.2738778631782
2025-02-19 14:55:25.037,759,-63,624,-3,-1,0,-10,-4,15,747,70,F,5.765134557972361,50.43260531932088,1529.8758569762908,-126.98574306917828,-9.763550399480096
2025-02-19 14:55:25.130,766,-76,636,0,-5,-2,-12,-5,14,758,74,F,6.814352889409749,50.09782663161298,1533.1408195174301,-152.11318835943172,-0.9472078499813961
2025-02-19 14:55:25.240,767,-66,630,-1,-1,-3,-12,-4,17,760,77,F,5.9805995247634485,50.447480740362266,1538.0412083787512,-132.34774413689382,-3.3193758521687187
2025-02-19 14:55:25.347,750,-78,633,1,-4,-8,-12,-5,16,748,81,F,7.024732123106733,49.622711319708735,1511.7951542042579,-157.22669603724285,-9.955110148393828
2025-02-19 14:55:25.458,768,-119,597,-13,-1,-28,-10,-5,16,731,100,F,11.273015095422215,51.59838211096825,1551.6759173588339,-240.42895073659014,-12.18557638440609
2025-02-19 14:55:25.555,878,143,505,4,-6,27,-10,-3,18,484,107,F,-15.810441422513522,59.129605721974144,1736.330146824041,282.7963678768085,11.313526029452419
2025-02-19 14:55:25.668,375,-142,575,-54,25,-45,-10,-5,14,611,69,F,13.872005401551958,32.34004558617859,909.9429954223258,-344.56508093325397,-245.24592631423275
2025-02-19 14:55:25.777,831,90,536,28,-31,26,-10,-6,14,803,95,F,-9.531645561388583,56.81389170963357,1667.8970488913387,180.6386695550186,-3.8036320165551842
2025-02-19 14:55:25.880,812,-14,674,0,43,20,-9,-2,17,818,90,F,1.1899489321424406,50.29958243949094,1581.3948998107153,-27.2654293070813,35.36433193051448
2025-02-19 14:55:25.986,774,-194,651,52,2,-18,-10,-5,14,527,96,F,16.594218247046914,48.728592961005674,1525.5934080401878,-382.3838774674373,18.845854477826492
2025-02-19 14:55:26.097,737,25,696,-12,4,19,-8,-3,17,862,96,F,-2.057153639035443,46.62042076508984,1463.819509393883,49.654664497757224,9.614140382438904
2025-02-19 14:55:26.201,564,-156,692,-2,12,-1,-8,-1,15,713,45,F,12.70402361405684,38.487376725708955,1186.3421991024697,-328.1372040070661,-71.58298187749813
2025-02-19 14:55:27.019,770,-49,629,-3,-4,-1,-9,-4,15,777,73,G,4.4544269805238645,50.670247270983005,1543.5112014342556,-98.22344009127082,-2.868241171619161
2025-02-19 14:55:27.115,759,-41,619,9,-8,-6,-9,-3,15,806,79,G,3.7895001930724006,50.73971007315528,1533.2790020809025,-82.82534793849408,-12.460740827508289
2025-02-19 14:55:27.218,783,8,625,-4,0,-1,-9,-5,18,804,95,G,-0.7333459290514632,51.40042414814584,1564.5250908418418,15.984930685484976,1.1772901964864104
2025-02-19 14:55:27.333,837,-70,584,39,15,21,-10,-4,16,419,96,G,6.835035967774116,54.903354589817695,1655.183381796708,-138.4263282267259,13.128918794172591
2025-02-19 14:55:27.440,747,-11,638,1,-14,-8,-10,-3,16,787,99,G,0.98776039963981,49.49571835292625,1507.3574309783287,-22.196695770765217,-11.408354704382532
2025-02-19 14:55:27.546,850,85,679,2,-2,43,-11,-4,17,762,98,G,-7.135401663182314,51.16390466996635,1628.9430609627261,162.89430609627263,56.76195483095171
2025-02-19 14:55:27.657,657,-174,616,-21,50,-27,-10,-2,16,775,82,G,15.773263175626026,45.746328747833424,1373.257230724907,-363.69369580842294,-55.55929090797986
2025-02-19 14:55:27.755,714,-6,521,26,-31,17,-11,-3,16,772,99,G,0.6598070643459423,53.88026534425444,1521.7868962919124,-12.78812517892363,-68.43553636986849
2025-02-19 14:55:27.869,984,44,599,-25,82,28,-10,-3,16,804,74,G,-4.2011597137072245,58.60094654437053,1837.5594044024947,82.16729044076195,79.40438695417254
2025-02-19 14:55:28.686,737,-30,627,-27,-3,1,-11,-4,16,500,67,H,2.739335721918572,49.57831497538429,1498.2929557698749,-60.98885844382123,-20.667141475863673
2025-02-19 14:55:28.787,775,-48,625,-16,-7,-3,-10,-3,17,656,79,H,4.391694981910109,51.033152234587796,1552.5099659697858,-96.15545595683835,-2.0241661046658237
2025-02-19 14:55:28.893,760,-65,626,-11,-3,-8,-11,-3,16,691,86,H,5.927999004507587,50.37141714660662,1530.1951584558824,-130.8719543416215,-8.397591043923853
2025-02-19 14:55:29.004,765,-180,581,-5,-2,-13,-11,-4,18,712,101,H,17.213538993135618,51.512125241576705,1547.7398792283427,-364.1740892301983,-13.473032459695787
2025-02-19 14:55:29.111,844,152,505,-18,-12,44,-12,-5,18,170,107,H,-16.75127453163575,58.00050594769105,1692.052775550546,304.72988374843953,-2.424942716855014
2025-02-19 14:55:29.218,512,-149,640,-26,16,-33,-11,-3,16,568,87,H,13.105718312496023,37.92439081060596,1126.6210574855568,-327.86433118232026,-128.27632185694586
2025-02-19 14:55:29.324,799,-18,543,58,-35,28,-10,-5,18,719,105,H,1.8986123706588542,55.785363879797615,1625.9369639424144,-36.62936839920333,-18.985946709300606
2025-02-19 14:55:29.426,442,-174,604,-27,15,-41,-9,-2,16,836,90,H,16.07060500998338,35.11453213915549,1017.212743866037,-400.4412159110643,-182.03732419702783
2025-02-19 14:55:29.541,767,116,670,-16,-19,64,-11,-5,16,589,108,H,-9.822494027424366,48.44208531576888,1515.2855606710334,229.16965454737922,16.347684941861417
2025-02-19 14:55:29.648,1109,-109,630,-20,88,21,-12,-4,17,683,74,H,9.815904427652953,60.03572374096613,1975.336983881751,-194.14944205871134,137.85184865148494
2025-02-19 14:55:30.356,762,-102,629,1,-3,-4,-10,-5,15,787,70,I,9.211026540816668,50.096207289771215,1529.1226891958909,-204.6857143018122,-4.228571527841723
2025-02-19 14:55:30.459,762,-110,626,5,-5,-2,-12,-4,16,808,77,I,9.966203812115982,50.16821035020106,1529.9282506957084,-220.85578422116527,-4.8701902040859295
2025-02-19 14:55:30.565,765,-71,639,3,0,-3,-10,-5,18,823,82,I,6.34019174590991,49.95514989844098,1530.5410459409986,-142.05021472132142,-0.4519324918926486
2025-02-19 14:55:30.675,871,-20,703,-17,-4,-24,-11,-7,17,651,98,I,1.629596845162348,51.08103910445279,1649.03529406518,-37.86533396246108,75.03351121949322
2025-02-19 14:55:30.782,691,18,683,21,-17,13,-11,-4,16,860,100,I,-1.509641818357779,45.3236515208537,1402.0897724654114,36.523322582311735,-19.857184651050602
2025-02-19 14:55:30.893,579,-195,570,13,-11,-11,-10,-5,16,796,89,I,18.88608736970929,43.86374277994299,1271.9457190588355,-428.37550123743165,-112.17454207864637
2025-02-19 14:55:30.995,833,101,563,-3,-8,38,-12,-4,17,729,102,I,-10.170454738263436,55.52417205720237,1657.3650718617637,200.953027920814,5.836091886947429
2025-02-19 14:55:31.100,478,-139,602,1,-9,-16,-9,-4,17,543,94,I,13.001567632536668,37.727843214326086,1089.911467600443,-316.94078241937575,-168.65000731269197
2025-02-19 14:55:31.209,824,9,574,42,-60,26,-10,-3,15,720,7,I,-0.8982922721627141,55.13555299910001,1644.5067441347348,17.961845506325986,2.433408818764633
2025-02-19 14:55:31.315,987,37,626,-64,91,19,-9,-2,16,762,75,I,-3.3825564901942475,57.57007924622726,1831.0479932390585,68.64111018221394,90.66662232254248
2025-02-19 14:55:32.135,746,-57,641,3,-1,-3,-10,-5,16,765,72,J,5.081578615681013,49.21763564047784,1503.1961426461135,-114.8554693442741,-9.620278064556032
2025-02-19 14:55:32.232,771,-36,629,-10,-2,-5,-10,-3,18,659,77,J,3.2756761134635024,50.74572462317895,1545.3454298328556,-72.1562068404446,-2.729280628879337
2025-02-19 14:55:32.342,839,-123,609,14,-4,-19,-11,-6,17,518,97,J,11.418447078199103,53.47927895014125,1642.6416900685263,-240.81636219121424,25.665328663012588
2025-02-19 14:55:32.446,690,9,635,14,-22,24,-11,-4,16,857,97,J,-0.8120117968208123,47.37408358930238,1425.790842756023,18.597271862035083,-42.1408480435864
2025-02-19 14:55:32.555,756,-123,495,4,14,-19,-11,-4,16,742,96,J,13.954509173136845,55.99351538198858,1584.974278947404,-257.8727993525538,-47.78077788222879
2025-02-19 14:55:32.655,693,149,681,-7,-19,75,-10,-5,17,638,104,J,-12.34159639938932,44.83061013811009,1398.0131959170922,300.58292379747,-11.805175208570745
2025-02-19 14:55:32.769,928,-56,568,42,24,-15,-11,-5,15,517,96,J,5.6306827576352605,58.406966249558444,1779.790636145331,-107.40115907773549,46.64538649725432
2025-02-19 14:55:32.875,572,-120,729,-12,-10,-10,-9,-2,14,718,55,J,9.347577809664934,37.74766138404413,1184.185006305252,-248.4304209031997,-51.214806986938356
2025-02-19 14:55:33.685,733,-64,649,5,-7,-6,-10,-5,16,684,78,K,5.631914209899628,48.340602290072034,1480.109406037815,-129.23192631162368,-12.492502753808935
2025-02-19 14:55:33.789,717,-43,648,-1,1,-4,-10,-5,15,629,77,K,3.7964688388863563,47.83118556232501,1458.1700978338756,-87.44953166925615,-21.844105155301804
2025-02-19 14:55:33.899,1229,-97,684,27,-1,-17,-10,-5,17,498,92,K,8.07145776919723,60.65885192649588,2100.717588086083,-165.80114405561443,198.84554088618307
2025-02-19 14:55:34.006,801,206,603,-11,-11,62,-12,-4,15,238,97,K,-18.861460395036293,51.496826746711925,1583.573678477153,407.2611457756474,13.871500472255775
2025-02-19 14:55:34.112,951,-96,567,8,22,-55,-12,-3,16,609,90,K,9.609738125052788,58.838652634470385,1806.7135346653722,-182.38117700092084,56.81117333831139
2025-02-19 14:55:34.216,804,91,598,0,-17,-8,-10,-5,15,816,92,K,-8.652541791114725,53.044259356443064,1603.100156673785,181.44541574292845,3.6444108321846898
2025-02-19 14:55:34.329,1065,-1,364,-8,13,-4,-10,-3,15,154,97,K,0.15740559167323548,71.13032460569417,2011.2566642081983,-1.8885039100546464,40.58457674010873
2025-02-19 14:55:34.436,664,45,668,-7,-15,30,-9,-2,16,626,102,K,-3.853922861307423,44.76308663441704,1368.17691588105,92.72283315458922,-40.418945494791274
2025-02-19 14:55:34.542,589,-158,594,-15,43,-3,-9,-2,13,632,52,K,14.895389654372057,43.778997613790835,1280.8785583763033,-343.59730428430544,-103.75189079036352
2025-02-19 14:55:35.455,745,-36,645,4,-2,-4,-12,-5,16,568,76,L,3.194589465110435,49.07081045852967,1500.519811025425,-72.5083398616313,-9.107755854227321
2025-02-19 14:55:35.550,766,-8,644,0,0,-4,-12,-4,15,544,80,L,0.7117122060356939,49.94301351083052,1531.4047465707476,-15.993783254002583,0.5004480527919668
2025-02-19 14:55:35.664,747,-58,668,5,-4,-13,-11,-6,15,537,90,L,4.962338172658846,48.0885941304858,1491.1785860724167,-115.78093439384227,2.523031464023461
2025-02-19 14:55:35.768,741,-126,722,11,-4,37,-12,-5,15,443,92,L,9.899293660202586,45.3144038472759,1451.9762810119046,-246.89475223684207,29.25388003968294
2025-02-19 14:55:35.877,870,-60,618,18,-12,25,-10,-2,15,245,96,L,5.545317308862041,54.48512622487755,1683.9647425596563,-116.13549948687285,39.80435528520991
2025-02-19 14:55:35.984,818,-62,680,-11,5,-2,-9,-3,15,784,95,L,5.209622696695305,50.14676066025639,1585.6884009391943,-120.18665141592916,41.823823180131626
2025-02-19 14:55:36.095,548,-152,694,-2,5,-5,-11,-1,14,592,45,L,12.353859307780537,37.64449283733542,1158.760229626749,-321.4079469037698,-79.48102073168582
2025-02-19 14:55:37.005,721,-51,657,10,-7,-5,-11,-5,14,551,70,M,4.4387163677047035,47.573446731482264,1459.1427613129008,-103.21259476693194,-15.621073762241053
2025-02-19 14:55:37.106,790,35,623,-6,5,-17,-11,-4,15,518,82,M,-3.21548399174821,51.69651766500911,1574.7387000227059,69.76690443138571,4.149101121334297
2025-02-19 14:55:37.217,771,-256,726,3,-2,34,-11,-4,15,483,91,M,19.423520697054567,45.04414041419952,1478.6513232208013,-490.9659387088524,59.65128319286396
2025-02-19 14:55:37.316,881,182,548,10,-6,-36,-8,-4,15,582,95,M,-18.37219333924045,56.75803604996241,1717.3630487798432,354.7787456049165,27.765095651130537
2025-02-19 14:55:37.426,758,-146,608,-5,-3,-24,-11,-5,15,568,90,M,13.502861394657158,50.48034018487769,1529.4062813992664,-294.5822125122598,-10.753323338725522
2025-02-19 14:55:37.537,913,148,597,22,-5,28,-11,-4,16,739,94,M,-13.92327874932945,56.03256577199572,1742.3552726568455,282.44094233648764,54.69430692646563
2025-02-19 14:55:37.647,761,-99,679,17,-9,-20,-10,-6,17,809,90,M,8.295423600466412,47.95961820254882,1503.6730408207818,-195.61580951544994,16.3521751415102
2025-02-19 14:55:37.749,859,91,590,15,8,28,-11,-1,17,773,95,M,-8.768053160437969,55.20197912473367,1680.1689223705034,177.9922839763863,25.98409290035272
2025-02-19 14:55:37.856,578,-125,712,-30,34,11,-9,-2,12,700,39,M,9.95747467992467,38.64475193236783,1202.48982741785,-260.0540284208153,-57.26774588496403
2025-02-19 14:55:38.676,772,-26,648,-2,2,-3,-10,-4,15,580,67,N,2.297672261204155,49.967939509601315,1537.6846442571448,-51.787306671872756,5.30097217794048
2025-02-19 14:55:38.773,746,-29,659,1,-5,-7,-9,-3,15,564,72,N,2.5197363932030834,48.51582651346921,1495.1387242838196,-58.12201475097959,-2.7726800308811335
2025-02-19 14:55:38.880,765,-3,642,4,2,-12,-11,-4,15,500,80,N,0.2677353387022093,49.99579012567364,1530.9972114807247,-6.003910633257744,-0.8368755171572957
2025-02-19 14:55:38.986,780,-142,728,-18,0,32,-9,-5,16,293,92,N,11.037241769567633,46.44102861666133,1504.6655015564554,-273.926283616688,51.645531880641556
2025-02-19 14:55:39.091,773,121,586,33,3,-65,-9,-3,16,448,93,N,-11.666735403671192,52.25735107427062,1563.768114988125,244.7812961365629,-13.46974823161861
2025-02-19 14:55:39.199,771,-158,542,7,1,-20,-10,-6,14,338,88,N,16.252085708860406,53.78677634574876,1577.8239810465725,-323.3413605776374,-25.18365463974351
2025-02-19 14:55:39.310,822,200,596,22,0,28,-10,-1,15,434,101,N,-18.550231925927744,52.59139598897428,1616.3234029682924,393.26603478547264,20.06721633929169
2025-02-19 14:55:39.416,755,-27,649,5,6,-17,-11,-5,15,794,92,N,2.382271930187913,49.2930679928504,1513.0554356444113,-54.1092672349657,-2.6264605738051614
2025-02-19 14:55:39.526,707,-22,633,-11,18,22,-10,-4,15,636,65,N,1.9905213056476267,48.143697518459966,1451.8206626120873,-45.17688059047514,-33.8620642623074
2025-02-19 14:55:40.346,764,-17,638,-4,-3,-3,-10,-4,15,559,77,O,1.526328888468362,50.12546373293887,1531.4501529237089,-34.07677041845949,-2.881148645715143
2025-02-19 14:55:40.440,761,-25,627,-2,-3,-2,-12,-5,14,628,80,O,2.2833112172623315,50.49201176808297,1532.5358932598049,-50.346120015105285,-8.680689978840633
2025-02-19 14:55:40.547,716,-9,633,-4,-8,-9,-11,-4,16,688,90,O,0.8145770497597191,48.5179289162084,1465.1630302679814,-18.416853732418762,-29.31871251345285
2025-02-19 14:55:40.656,750,-104,615,-14,10,-23,-12,-5,17,305,93,O,9.598237086354821,50.251666504426744,1518.8604304641738,-210.61531302436543,-15.46555298062242
2025-02-19 14:55:40.764,872,201,576,10,-23,39,-10,-4,15,552,100,O,-19.236859156709812,55.022838641289425,1691.380612214753,389.87098974216207,34.757760738878915
2025-02-19 14:55:40.870,737,-77,536,-1,26,-39,-11,-5,18,608,98,O,8.17499326650058,53.69382912400282,1542.8645165094754,-161.19480023233325,-50.08328473416407
2025-02-19 14:55:40.976,628,-30,660,-28,26,38,-9,-3,15,596,53,O,2.6025622024998065,43.54726799432029,1316.952762275248,-62.91175615964561,-64.0586355122033
2025-02-19 14:55:41.790,858,26,606,4,0,0,-11,-3,15,705,83,P,-2.4567280733915298,54.74184873291231,1674.559438500968,50.74422540912025,29.269207772043615
2025-02-19 14:55:41.890,773,-11,630,2,0,-9,-11,-2,16,734,81,P,1.000300856228831,50.815466771445294,1548.1150743033886,-22.030098081936963,-1.7237992382077891
2025-02-19 14:55:41.997,695,-35,624,2,-13,-17,-11,-5,17,709,87,P,3.210341759571508,48.03644427772275,1438.57029078595,-72.44598586691833,-43.60843374162994
2025-02-19 14:55:42.106,796,-34,722,-30,-20,88,-11,-5,13,593,96,P,2.6961473854725573,47.75928467508405,1536.327073564835,-65.62201067990502,50.4973026208404
2025-02-19 14:55:42.214,721,-115,648,45,26,-81,-11,-4,15,732,94,P,10.063454968917652,47.61031983280749,1459.5767806624526,-232.80350870482945,-15.797162093299903
2025-02-19 14:55:42.320,700,121,699,-12,-18,20,-10,-6,15,814,91,P,-9.820831097381705,44.6180522016471,1402.3773564400942,242.41094304178773,-2.3739602166084524
2025-02-19 14:55:42.426,1023,-72,464,37,28,-5,-12,-4,15,605,92,P,8.820379552021057,65.34506309589503,1931.8365487003,-135.9650356856516,51.780881136912
2025-02-19 14:55:42.534,404,-159,783,13,-26,2,-9,-4,13,727,42,P,11.478697168612872,26.823183066732014,855.2386625994462,-336.59145384483156,-91.55414063209491
2025-02-19 14:55:43.249,742,-51,642,2,-5,-3,-9,-5,15,682,67,Q,4.541995680266741,49.04349398392353,1497.2073858079757,-102.9077852779067,-11.4274146748254
2025-02-19 14:55:43.347,778,-54,626,4,-6,1,-11,-4,15,716,75,Q,4.93024274766301,51.07512436761207,1555.9704376850414,-107.99794811695658,0.023786644170058935
2025-02-19 14:55:43.449,766,31,718,4,-6,-4,-10,-5,16,821,91,Q,-2.472237788191711,46.825965110418814,1495.2787733331606,60.51389291557177,34.420157632886
2025-02-19 14:55:43.565,684,-156,661,-31,13,-47,-10,-5,15,589,92,Q,13.27916473152627,45.20347257433659,1393.6134416017717,-317.8416621197023,-24.752170904635932
2025-02-19 14:55:43.672,833,241,644,7,-18,35,-11,-2,15,655,97,Q,-20.51703533317681,50.46133329046363,1604.1951430734089,464.11888293000175,47.781906195347915
2025-02-19 14:55:43.778,869,-47,618,10,26,23,-11,-5,15,800,89,Q,4.349074077149132,54.50292953549396,1683.1452086574523,-91.03317008849282,39.01065713428591
2025-02-19 14:55:43.889,637,-95,603,30,-63,-18,-11,-4,15,678,92,Q,8.953108380422968,46.21984979297107,1358.9999737974772,-202.676605197426,-80.46308351629341
2025-02-19 14:55:43.991,787,63,610,1,-10,30,-10,-3,17,741,101,Q,-5.896527190344913,52.07363297644734,1575.8013125392526,126.14419655650943,-1.3961888804880118
2025-02-19 14:55:44.099,603,-215,671,-5,46,4,-9,-1,14,618,42,Q,17.766356969065626,40.55692939990763,1253.2032711480206,-446.8303537260769,-52.526359768360976
2025-02-19 14:55:44.206,824,-56,631,5,-12,-6,-8,-1,13,579,48,Q,5.0715997843809015,52.44740365460253,1616.7941756434157,-109.87921582042631,23.896693166267823
2025-02-19 14:55:44.926,763,-27,625,-5,-2,-5,-9,-4,14,734,73,R,2.4736396382774966,50.651708163327335,1536.3060888708178,-54.364697771313345,-8.442078039660714
2025-02-19 14:55:45.023,747,-24,640,-4,-5,-11,-11,-4,15,698,77,R,2.147585428298503,49.39144908032309,1506.1741762274978,-48.39113819204812,-10.430351787949803
2025-02-19 14:55:45.130,809,-26,642,-11,-7,-11,-11,-4,16,652,92,R,2.319122495877381,51.54259535705775,1592.070736116048,-51.16667384303739,20.576745875769006
2025-02-19 14:55:45.241,795,266,539,-10,-14,57,-11,-4,14,382,97,R,-26.26663835708311,52.90873724233746,1592.675904936788,532.8953342304221,-1.8142298879605505
2025-02-19 14:55:45.346,673,-168,664,11,2,-60,-10,-4,16,730,89,R,14.19855402386317,44.496922806152035,1373.870956629888,-342.9573859046377,-27.49823952785391
2025-02-19 14:55:45.453,687,121,745,-13,-14,41,-9,-5,15,817,90,R,-9.225203149929353,42.30910279453931,1360.1300129707756,239.5571056324074,15.040961188896745
2025-02-19 14:55:45.560,1136,-173,557,11,-14,12,-9,-5,16,660,92,R,17.254400286244053,62.82302186172706,2025.599966766621,-308.476051276959,120.8141008019295
2025-02-19 14:55:45.666,1010,-4,595,-4,37,-6,-11,-1,18,786,91,R,0.38517590846516875,59.4967160008421,1871.6000686539448,-7.4122774996195835,87.4237219315869
2025-02-19 14:55:45.766,536,-171,707,-3,-1,-4,-9,-2,12,519,39,R,13.5968379683215,36.38596335434325,1129.2216813413684,-360.2554244577873,-75.47710579915554
2025-02-19 14:55:50.488,750,-70,630,-1,-1,0,-8,-3,15,716,75,S,6.34019174590991,49.79653194916498,1513.7569583879758,-141.28398278287773,-11.55584504589956
2025-02-19 14:55:50.585,765,-69,629,-1,-2,0,-11,-3,16,726,75,S,6.260197690363773,50.403992217042514,1535.5576549082195,-138.50127867799625,-4.5696273689803775
2025-02-19 14:55:50.692,776,-59,630,-1,-1,-2,-10,-5,15,743,78,S,5.35019040851105,50.80591950527577,1551.0097825853206,-117.92471285120348,0.8039136227424706
2025-02-19 14:55:50.803,764,-55,618,-1,-4,-1,-11,-4,16,770,80,S,5.0857401232283745,50.92003079719501,1540.266846020032,-110.88308446479289,-9.922658168036264
2025-02-19 14:55:50.905,890,58,703,-5,-3,-1,-10,-4,18,811,96,S,-4.716423611400216,51.60066277123501,1673.7006424253498,109.07262613558458,83.96454873593154
2025-02-19 14:55:51.015,716,-111,656,1,3,-26,-12,-5,15,683,98,S,9.603897851474423,47.101010255529864,1448.5549013380646,-224.56647213481168,-15.167619103031143
2025-02-19 14:55:51.122,744,59,663,29,-19,56,-8,-2,15,800,94,S,-5.0853239099619945,48.18257604775408,1489.2732691347346,118.10097161149105,-1.1346470918400655
2025-02-19 14:55:51.229,813,-41,551,9,21,11,-11,-1,18,563,100,S,4.255545737416809,55.799562591829975,1640.076283186375,-82.70987405982949,-9.54001480404986
2025-02-19 14:55:51.336,545,-79,669,-31,57,25,-9,0,11,507,40,S,6.7346810432621576,38.97381213495472,1173.9651195209035,-170.1710907195438,-103.06911001740264
2025-02-19 14:55:51.445,703,-102,702,19,-41,-18,-8,-1,13,509,42,S,8.267173335510636,44.7415265053122,1406.9096871712966,-204.13198875031617,-0.9083931639404454
2025-02-19 14:55:51.546,710,-78,660,-8,0,-5,-9,0,15,513,52,S,6.740056097946948,46.89196174749542,1440.0664102435082,-158.20447887182206,-18.653282761571063
2025-02-19 14:55:51.658,749,-80,661,-5,-2,-7,-8,-1,13,579,56,S,6.900872304243262,48.364504754896366,1496.3866388307224,-159.8276783797834,1.4238073870395738
2025-02-19 14:55:51.766,743,-69,651,-2,-9,-8,-10,-1,13,613,62,S,6.050235822898786,48.61719307770018,1493.3094795519928,-138.67880765691453,-6.404402676106656
2025-02-19 14:55:51.866,748,-67,656,-4,-1,-2,-9,-3,15,626,66,S,5.831634290341218,48.60164168733284,1498.1300177917237,-134.19079036369715,-1.868036993810847
2025-02-19 14:55:51.978,754,-71,645,0,-1,1,-10,-2,14,629,66,S,6.281686885869139,49.284556584605966,1511.958543069527,-142.3727540556186,-3.3862868432954656
2025-02-19 14:55:52.079,746,-74,645,-2,0,-1,-9,-2,14,622,67,S,6.544853465994758,48.967504611977226,1500.3373739917452,-148.82703173644657,-7.208587432541208
2025-02-19 14:55:52.195,754,-64,646,-2,1,-1,-9,-2,15,595,65,S,5.657899302405305,49.27292207428378,1511.8260705181615,-128.3247593012763,-3.278039197257499
2025-02-19 14:55:52.295,751,-74,641,-3,-1,-1,-11,-4,13,568,66,S,6.585337346997417,49.33091114995137,1509.486033812787,-148.73763848488178,-6.3895441730975335
2025-02-19 14:55:52.408,752,-73,645,-1,-3,-1,-11,-3,15,578,67,S,6.457161531377376,49.199612498606356,1508.990636436436,-146.48446337747316,-4.280532581783518
2025-02-19 14:55:53.428,746,-81,658,-6,1,-3,-10,-3,13,651,62,T,7.017821376661344,48.37265211024613,1493.481106228447,-162.1608171642148,-1.3063912846089352
2025-02-19 14:55:53.521,740,-62,664,-9,-3,-1,-10,-2,15,685,63,T,5.334440037031728,47.97481134179874,1482.8505871169618,-124.23883297466436,-2.5578241157602406
2025-02-19 14:55:53.629,732,-89,653,-1,-3,-1,-10,-5,13,722,65,T,7.761250500115767,48.00253252811384,1475.1744009625768,-179.35863618260836,-9.968420530823096
2025-02-19 14:55:53.739,728,-69,663,-1,2,-6,-10,-2,15,709,65,T,5.941519793752762,47.5217518332083,1465.5337654878995,-138.9036123882762,-8.682536426480056
2025-02-19 14:55:53.846,729,-47,605,11,-30,-29,-12,-4,17,528,95,T,4.442155128905915,50.22585105554587,1497.57225394132,-96.55129757920717,-32.84117096639011
2025-02-19 14:55:53.952,669,16,650,-9,-45,23,-11,-5,15,826,94,T,-1.4100728997660759,45.81660722131819,1386.112651319825,33.15067626474918,-46.746223255435325
2025-02-19 14:55:54.059,791,-33,664,7,42,3,-9,-4,16,840,92,T,2.8451902399211204,49.95362662937856,1556.523940543169,-64.937155547313,21.38571868436884
2025-02-19 14:55:54.166,815,-91,561,-17,-4,1,-9,-4,14,672,91,T,9.213716104703023,55.11036812999534,1635.2553968211669,-182.5867989088665,-3.617518548067096
2025-02-19 14:55:54.276,829,48,563,16,10,23,-10,-2,16,595,98,T,-4.873113211494503,55.721842810388736,1655.3130669089514,95.84442365697186,1.8247808567675747
2025-02-19 14:55:54.382,535,-182,715,-25,34,5,-9,0,14,545,40,T,14.281095735970823,35.94694327865028,1122.0358389361747,-381.7019115633342,-69.543223998813
2025-02-19 14:55:55.301,732,-50,663,-12,-5,-6,-12,-4,14,280,64,U,4.3127848825837605,47.75082729332661,1472.227835708912,-100.56201063585463,-7.452261031432158
2025-02-19 14:55:55.395,732,-33,655,-1,-2,-6,-11,-3,15,327,71,U,2.88421889273201,48.141450245112075,1476.7944903701655,-66.57680079537631,-11.448621847620757
2025-02-19 14:55:55.509,616,-145,650,11,-27,-29,-11,-4,15,337,92,U,12.575465499744428,42.76750531805934,1295.0250680532613,-304.8354462138359,-66.50372440685044
2025-02-19 14:55:55.612,836,-77,665,-10,1,31,-11,-6,14,0,91,U,6.604835496753972,51.31332867193678,1616.5758359253318,-148.89514278259637,44.087403241213224
2025-02-19 14:55:55.716,738,-2,625,28,-17,-21,-9,-2,15,649,98,U,0.18334586862300742,49.73914396360163,1501.1100326603328,-4.068048868998192,-21.26527156193481
2025-02-19 14:55:55.828,760,-129,588,4,-1,-26,-11,-5,17,701,96,U,12.373954628054014,51.61780101276974,1543.886401594413,-262.0544023758938,-18.480531759887867
2025-02-19 14:55:55.927,950,63,609,-11,-7,32,-9,-4,16,590,100,U,-5.9061411137704996,57.19928720799234,1790.5598642731286,118.74239099916537,70.15688700806822
2025-02-19 14:55:56.042,570,-153,720,-15,18,-2,-10,-2,14,666,47,U,11.996899307923579,37.75333222317961,1182.263264133517,-317.34434984636505,-53.38517574760044
2025-02-19 14:55:56.861,745,-69,647,0,-1,-2,-11,-4,15,577,65,V,6.08736068716367,48.86665288559723,1498.1806611602633,-138.75767197323245,-7.104547343208424
2025-02-19 14:55:56.955,735,-78,645,1,-3,-2,-11,-4,14,602,67,V,6.895309414332636,48.525104893176675,1484.2459845024239,-157.51181876352254,-12.501578236820933
2025-02-19 14:55:57.061,739,-57,649,2,-3,-2,-10,-2,15,654,72,V,5.019261700665207,48.60077942634526,1489.1200657540471,-114.8577046657384,-9.765795229196897
2025-02-19 14:55:57.168,751,-28,668,1,8,-15,-12,-4,15,612,76,V,2.400214460856639,48.32255020986821,1497.8999427599633,-55.847135016350165,3.6469217527890123
2025-02-19 14:55:57.274,819,2,629,-8,2,-11,-10,-7,15,233,91,V,-0.18217992503695454,52.47524544261934,1612.0902517721643,3.9367283315559556,19.89893972565187
2025-02-19 14:55:57.385,749,168,591,-19,-23,48,-10,-3,15,612,99,V,-15.868540441299874,50.63752949570768,1522.1491646068364,341.4166350520007,-19.054948307931
2025-02-19 14:55:57.491,774,-80,583,29,2,-79,-11,-5,15,698,99,V,7.81340215999461,52.75469180273914,1570.0515658200898,-162.27923160931158,-16.609900352858176
2025-02-19 14:55:57.596,1086,26,565,-15,55,38,-11,-7,15,799,81,V,-2.6347611760362253,62.48912148864086,1972.9231469020538,47.23388749489264,103.57129097637164
2025-02-19 14:55:57.708,677,-78,669,9,-15,-5,-10,-4,14,651,50,V,6.650200316659209,45.14713939826447,1385.9203450799346,-159.67767639030265,-31.54314750144215
2025-02-19 14:55:58.826,748,-58,654,-2,-1,-1,-11,-4,15,607,62,W,5.068018126605165,48.72453169512396,1499.546650189825,-116.27500763503988,-3.100948160622238
2025-02-19 14:55:58.916,753,-58,646,-1,-2,-1,-11,-4,14,622,64,W,5.130447047659961,49.259950080193214,1510.678332302347,-116.36034963285007,-4.013549358985415
2025-02-19 14:55:59.028,745,-61,650,0,-2,-1,-10,-5,13,608,67,W,5.361286204685202,48.77137087286819,1497.0856859514147,-122.58017025910911,-6.18214210526105
2025-02-19 14:55:59.136,730,-20,652,-23,26,-20,-11,-5,14,313,63,W,1.7569883099082007,48.21695681372317,1475.673228803726,-40.4294035288692,-13.998555041135887
2025-02-19 14:55:59.245,712,-127,615,19,-8,10,-11,-3,14,529,55,W,11.667802770231349,48.58806327135945,1461.973278801945,-260.7733236065267,-32.79995289774729
2025-02-19 14:55:59.346,698,-37,685,0,0,4,-11,-4,13,782,57,W,3.091804005670189,45.49683263366184,1411.2117011194937,-74.80635091894165,-14.928388634460134
2025-02-19 14:55:59.456,739,-52,661,-5,-2,-2,-11,-3,14,727,61,W,4.498119563234455,48.101054356526205,1483.3238355550545,-104.37461359791995,-4.761915158174702
2025-02-19 14:55:59.561,743,-54,654,4,-8,-1,-10,-3,14,710,68,W,4.72013693104356,48.54871257580335,1492.5188061793388,-108.47377595381465,-5.7379532184219215
2025-02-19 14:55:59.665,730,-11,654,5,4,-15,-11,-5,14,633,75,W,0.963599621159668,48.139115904600196,1474.7673029115836,-22.222521002777285,-13.229885074213257
2025-02-19 14:55:59.781,752,-51,612,14,3,-11,-11,-6,15,443,89,W,4.763641690726178,50.76318182470343,1526.5381877239652,-103.52852071000297,-18.342248520035582
2025-02-19 14:55:59.887,777,168,568,-1,-15,41,-9,-4,15,645,97,W,-16.476881393687968,52.6809272344971,1572.2717138178214,339.95064082547486,-13.356928505177052
2025-02-19 14:55:59.994,684,-340,721,6,-1,-34,-12,-3,14,827,90,W,25.247030650017305,40.631627533282575,1335.1932393429195,-663.6925458722114,34.5813953709868
2025-02-19 14:56:00.099,805,238,529,14,0,23,-8,-2,15,767,95,W,-24.22324164090692,54.22393437742405,1616.3081047446585,477.8650048810294,-4.145325975061155
2025-02-19 14:56:00.206,788,-35,651,14,-1,-5,-10,-5,17,876,93,W,3.0774553994243767,50.39784653328713,1558.4892845970676,-69.2222397980931,14.466339755468312
2025-02-19 14:56:00.315,474,-157,723,-29,35,18,-10,0,14,761,37,W,12.251612873750815,32.646485201249725,1013.4541059347952,-335.6799464805123,-99.83822487522548
2025-02-19 14:56:01.136,784,-34,630,-5,-2,-2,-11,-4,16,794,87,X,3.08915637533654,51.17494735155605,1563.0639071704295,-67.78593474973802,3.966503166619191
2025-02-19 14:56:01.230,751,-24,618,-5,-5,-5,-10,-5,15,829,89,X,2.223961240385479,50.52775583706695,1522.9326286810372,-48.66895218155112,-17.225518674941327
2025-02-19 14:56:01.337,777,-41,625,-5,-1,-5,-11,-5,15,831,97,X,3.753225473657424,51.127549203995486,1555.5449984602676,-82.08152501527796,-1.2427593792371
2025-02-19 14:56:01.448,814,128,567,-25,11,32,-11,-5,15,164,98,X,-12.721254089609175,54.46978631807712,1627.8091841168643,255.96999455400322,0.13291474906384337
2025-02-19 14:56:01.554,886,-21,639,9,37,-43,-11,-4,13,381,86,X,1.882282443010753,54.18546992190147,1696.915448987474,-40.22034359902591,54.15240191535463
2025-02-19 14:56:01.661,777,-83,447,12,1,-21,-10,-5,15,447,91,X,10.519014232021513,59.667118589207504,1640.1058656501968,-175.19792387254358,-49.53580687984311
2025-02-19 14:56:01.767,770,73,577,9,-18,40,-9,-3,16,704,105,X,-7.210550611782519,52.93537156492488,1567.9561674272575,148.65038989894776,-20.948972214970695
2025-02-19 14:56:01.874,583,-107,594,-32,59,7,-11,-3,14,584,53,X,10.21144797789554,44.00729961094312,1277.7500103266668,-234.50986467401952,-113.85850108754744
2025-02-19 14:56:01.977,800,-80,648,6,-23,-16,-10,-2,16,561,55,X,7.037940763184669,50.78041344255998,1574.728384263537,-157.4728384263537,20.470008746535086
2025-02-19 14:56:02.087,729,-63,655,0,1,-11,-10,-5,14,534,60,X,5.493991343440076,47.9294039856106,1471.3198037551538,-127.15109415167994,-11.967724910323227
2025-02-19 14:56:02.194,754,-64,663,0,-2,-3,-11,-5,15,594,64,X,5.513730612392829,48.542696633903226,1503.4492951556895,-127.6137332758145,4.001481845859075
2025-02-19 14:56:02.296,755,-46,649,-1,-1,-1,-10,-5,15,636,67,X,4.054245900765704,49.246579652988814,1512.5260156811778,-92.15390294216448,-2.171369770972774
2025-02-19 14:56:02.411,732,-36,643,3,0,-11,-12,-6,12,620,69,X,3.2045053033142135,48.6589732166106,1482.7913451332224,-72.92416451474863,-16.50660508287126
2025-02-19 14:56:02.517,764,-22,647,1,-1,-4,-10,-5,15,628,75,X,1.947483280183955,49.72379047623694,1526.9368253793618,-43.96938502401304,0.9003586119802094
2025-02-19 14:56:04.335,741,1,645,-2,0,-2,-11,-6,14,674,78,Y,-0.08883059473771729,48.962176574799415,1495.2763228319955,2.01791676495546,-11.556313396271435
2025-02-19 14:56:04.426,767,0,655,-4,3,1,-10,-5,12,685,76,Y,0.0,49.503450721874756,1527.4450781767162,0.0,5.5977494058031425
2025-02-19 14:56:04.536,745,-21,658,-3,5,2,-11,-6,15,686,69,Y,1.827968244305005,48.53389549582051,1494.3475877792519,-42.12254945418025,-3.8398828976479535
2025-02-19 14:56:04.643,745,-12,660,2,-2,2,-10,-5,13,717,67,Y,1.0416266760099742,48.45737313325082,1493.4625380425832,-24.055772424846978,-3.0674833665837014
2025-02-19 14:56:04.753,738,-36,663,-4,3,2,-12,-5,12,748,63,Y,3.108030934999836,48.02236885891042,1481.4060042748497,-72.26370752560241,-4.856613596511124
2025-02-19 14:56:04.860,729,-37,662,0,-1,0,-11,-4,14,796,59,Y,3.1990038092725155,47.71314997019159,1468.7855387852164,-74.54741417702743,-9.794275275463974
2025-02-19 14:56:04.966,743,-12,660,-1,-3,-2,-12,-4,13,808,63,Y,1.0416266760099742,48.380910493372625,1490.5768455523848,-24.07391944364551,-4.065569400503023
2025-02-19 14:56:05.073,794,-3,645,1,-5,-4,-10,-4,15,787,74,Y,0.2664900760584054,50.911271528681944,1570.17046192829,-5.932633987134597,14.483692766061608
2025-02-19 14:56:05.183,832,56,735,-7,1,-26,-10,-5,15,553,90,Y,-4.356975005846297,48.45989621312403,1580.4917410163016,106.37925179917414,73.77232013583932
2025-02-19 14:56:05.289,715,161,649,-2,-21,47,-10,-5,14,718,90,Y,-13.932333934561305,46.91766431499439,1445.3728955332747,325.461589064136,-13.953859022510983
2025-02-19 14:56:05.396,894,-60,638,-21,29,-1,-11,-3,14,827,75,Y,5.372516374538697,54.36721919631018,1706.7675762510007,-114.54815947993293,57.97123753004655
2025-02-19 14:56:05.507,780,-35,606,-13,-5,-6,-11,-5,15,823,91,Y,3.3054900397724265,52.10931101929972,1569.1839006394457,-70.41209810561614,-7.135184342953835
2025-02-19 14:56:05.609,916,84,517,-24,9,9,-12,-5,14,78,96,Y,-9.228536583417192,60.23857248590358,1784.099827958248,163.60740780403145,27.03535911090171
2025-02-19 14:56:05.715,709,-53,666,-24,-11,67,-12,-4,15,13,99,Y,4.549985330486955,46.70095324323383,1436.7841676762223,-107.40417614504906,-17.644930426465294
2025-02-19 14:56:05.826,986,-96,603,-31,92,36,-12,-2,15,562,59,Y,9.045801261590764,58.231571742671406,1836.1829328488693,-178.77643159583312,83.06053903867326
2025-02-19 14:56:06.646,749,-47,660,1,-3,-2,-11,-2,15,688,67,Z,4.07327785919802,48.542416066128254,1498.4460531419313,-94.02798998353907,-0.393050832676181
2025-02-19 14:56:06.739,776,-38,633,4,-8,-5,-9,-2,15,721,76,Z,3.4354341585559918,50.74464366487512,1550.333491808076,-75.91839264008618,1.3594068111958677
2025-02-19 14:56:06.845,749,-25,644,1,0,-6,-13,-5,13,732,79,Z,2.2230987677893093,49.289298653029576,1507.0125281177181,-50.30081869551796,-7.749089596542603
2025-02-19 14:56:06.946,873,55,618,-9,4,-19,-12,-5,15,433,92,Z,-5.0857401232283745,54.59852711081425,1688.1129040137876,106.3530466446258,40.978494065841005
2025-02-19 14:56:07.062,637,9,733,34,-22,15,-10,-3,15,852,87,Z,-0.7034598973626579,40.98952714200048,1292.9210677963072,18.267330628205283,-21.772594497163595
2025-02-19 14:56:07.170,868,88,498,-62,28,11,-9,-5,14,500,94,Z,-10.021105982085256,59.774008818712375,1732.0465272470897,175.59918709417502,2.268236671600505
2025-02-19 14:56:07.275,680,64,614,23,-40,26,-9,-2,15,780,96,Z,-5.950709440884552,47.76579394097956,1420.4034414887633,133.68502978717777,-54.540754520736414
2025-02-19 14:56:07.382,942,16,562,-50,93,27,-10,-1,15,754,64,Z,-1.6307560745014122,59.1693587520891,1800.685938368832,30.58489916550033,49.70541681180089
2025-02-19 14:56:08.206,766,-49,643,-10,-1,-3,-10,-4,14,759,71,a,4.357818744776142,49.907334400609486,1531.0038485557293,-97.93627751857798,0.8361950113136345
2025-02-19 14:56:08.300,769,-39,625,-8,-1,-2,-11,-4,15,789,77,a,3.570627055610602,50.84322619364526,1544.4210959272496,-78.32564725768886,-5.218706052706011
2025-02-19 14:56:08.407,750,-52,634,-1,-4,-2,-9,-4,15,802,79,a,4.688843065447259,49.696326999819455,1512.6268650575446,-104.87546264398975,-10.673909928644207
2025-02-19 14:56:08.509,750,-75,640,-1,1,1,-12,-3,15,820,79,a,6.683864108034118,49.331727262551965,1508.495316301669,-150.8495316301669,-7.249336577424174
2025-02-19 14:56:08.619,761,-54,636,1,-2,-1,-10,-5,16,829,79,a,4.85309638699237,50.0117758068099,1527.176536891263,-108.36732324852589,-4.326251593749362
2025-02-19 14:56:08.725,780,-42,619,-3,0,1,-11,-4,15,828,80,a,3.8816478247946833,51.50075459805945,1562.616355439673,-84.14088067752083,-2.0763128425094237
2025-02-19 14:56:08.837,730,-54,647,10,-20,-9,-12,-3,16,849,93,a,4.770970391058822,48.3506507388567,1477.2259688378374,-109.27424974964825,-15.26739977819284
2025-02-19 14:56:08.943,728,-159,589,-3,12,-21,-11,-5,16,561,98,a,15.106855084703225,50.03608619275333,1494.4491334984773,-326.3975442668378,-31.107884107971472
2025-02-19 14:56:09.045,769,29,601,3,-17,-19,-9,-3,15,780,97,a,-2.7625454741432436,51.958818145360496,1556.5680378969969,58.70022509624567,-14.511561477367081
2025-02-19 14:56:09.156,851,45,641,0,6,46,-10,-2,16,738,95,a,-4.015736165479357,52.944081337868646,1649.0477795283678,87.19994133816282,39.885280049725225
2025-02-19 14:56:09.262,740,-43,547,-28,80,19,-9,-2,14,780,57,a,4.494812247548662,53.44418801996944,1543.2770607783596,-89.67691028847221,-46.77371925103034
2025-02-19 14:56:10.081,783,-24,625,3,-3,-6,-11,-3,15,736,77,b,2.199077467441056,51.382129748873155,1564.3258496571457,-47.948685046962325,1.3363269020227335
2025-02-19 14:56:10.180,759,-10,632,6,-5,-13,-11,-4,16,747,86,b,0.9065031439480534,50.21318496851882,1527.430806005837,-20.124253043555164,-7.852792352686379
2025-02-19 14:56:10.287,781,-24,618,-6,-1,-6,-10,-6,15,659,91,b,2.223961240385479,51.62466047582978,1564.9607307691367,-48.09098276371227,-2.342806165590787
2025-02-19 14:56:10.391,806,218,527,-4,-10,53,-10,-4,15,500,97,b,-22.473032276395294,54.71753469268399,1622.3143983193254,438.78975041391186,-6.744029670328246
2025-02-19 14:56:10.495,815,-257,619,33,-1,-30,-10,-3,15,709,90,b,22.547530133418704,50.56715672796689,1587.3696042854338,-500.55704086056005,32.37817784946833
2025-02-19 14:56:10.606,699,58,643,-28,1,48,-9,-3,16,659,97,b,-5.15425518026066,47.2738058020816,1433.6044807127673,118.95430598188914,-32.75204735094326
2025-02-19 14:56:10.716,667,-28,532,-36,69,42,-10,-2,13,571,47,b,3.0127875041833403,51.38545792359354,1448.3621021689755,-60.8008078871534,-91.21534985591438
2025-02-19 14:56:10.823,759,-88,671,11,-39,-19,-10,0,13,696,47,b,7.471559176592376,48.27890013428677,1505.3931525162182,-174.53833652361953,11.145184007401213
2025-02-19 14:56:11.542,768,-56,628,-1,-2,-2,-11,-3,15,734,75,c,5.095699919558609,50.615614662846944,1540.9065261785136,-112.35776753384995,-4.012107343888715
2025-02-19 14:56:11.638,767,-53,622,1,-7,-5,-10,-2,16,748,79,c,4.870351812546389,50.8581870743407,1542.5859501418608,-106.5932925130621,-6.962791379709756
2025-02-19 14:56:11.744,762,-49,613,0,-6,-3,-11,-3,16,763,88,c,4.57020630305506,51.09550115747755,1540.1938387097734,-99.04133608501166,-13.027326941064189
2025-02-19 14:56:11.852,733,-94,659,-7,4,-21,-12,-4,16,710,94,c,8.117929892152352,47.75599591331788,1473.2884855636817,-188.9346761841556,-6.552676652750279
2025-02-19 14:56:11.963,934,127,540,16,-34,65,-10,-4,13,496,95,c,-13.234605817405455,59.29253281833194,1793.785726815875,243.90876585183736,42.90760976384115
2025-02-19 14:56:12.064,811,42,609,-43,96,46,-9,-2,13,773,54,c,-3.945186229037563,53.03091421932508,1609.9601060347563,83.37647898083819,9.041054777846512
2025-02-19 14:56:12.173,650,-118,686,2,-21,-11,-8,-1,14,555,36,c,9.760030239540148,43.03959165652608,1332.503566090449,-241.90064738257388,-34.3037635969971
2025-02-19 14:56:12.992,761,-60,635,0,-2,-2,-11,-1,15,718,68,d,5.397748776480396,50.032112139587525,1527.404581178737,-120.42611678150357,-4.509735937579421
2025-02-19 14:56:13.088,750,-56,627,2,-7,-3,-10,-2,14,712,73,d,5.103784143053766,49.99233014162355,1515.958389953872,-113.19155978322243,-13.341214001436924
2025-02-19 14:56:13.196,769,-34,638,10,-10,-15,-9,-2,16,740,94,d,3.0504944941414087,50.27931096611329,1538.1688510962576,-68.00746545809201,-0.14008712537372503
2025-02-19 14:56:13.302,887,-118,560,24,19,9,-10,-3,15,0,91,d,11.898970454835748,57.16967664985718,1727.2797908895434,-229.78468469556498,29.496411614267913
2025-02-19 14:56:13.407,715,73,611,4,-11,-50,-9,-2,15,775,98,d,-6.813189948362716,49.283956662775026,1472.9517130197414,150.38527979082673,-36.70419112596062
2025-02-19 14:56:13.516,640,-174,645,28,18,-5,-9,-5,16,786,91,d,15.097155158190708,43.77120289533823,1331.7803266761698,-362.0777763150837,-52.18486047832744
2025-02-19 14:56:13.625,960,49,581,4,22,-14,-11,-2,15,747,90,d,-4.820766078092657,58.72730938121083,1814.7063559355188,92.6256369175421,63.72459083485808
2025-02-19 14:56:13.732,485,-154,732,-10,-4,-8,-8,1,11,658,35,d,11.880768232529253,32.958361307631165,1029.0294022735202,-326.74335659818985,-89.09179889529207
2025-02-19 14:56:14.446,742,-62,650,-1,-1,-1,-9,-3,13,637,60,e,5.448651441359858,48.65264804745925,1492.718420288441,-124.72849333946539,-7.637430171814685
2025-02-19 14:56:14.546,724,-53,643,1,-5,-6,-11,-4,15,662,67,e,4.712017241240044,48.29470090530083,1470.576654165292,-107.65271087121613,-20.05081302249016
2025-02-19 14:56:14.645,726,-53,634,8,-3,-6,-10,-2,16,621,80,e,4.778599471227795,48.77112850990248,1478.0828980773858,-107.90412341336291,-22.77762724664308
2025-02-19 14:56:14.759,741,98,586,2,-21,20,-8,-4,14,703,94,e,-9.494029885758899,51.277162191592495,1521.1811267825974,201.18184942603853,-30.98534452712829
2025-02-19 14:56:14.870,687,-114,674,-5,14,-32,-11,-5,15,680,93,e,9.600118429878684,45.14326429430328,1395.8726424500126,-231.62952145458723,-21.458749652559618
2025-02-19 14:56:14.976,833,137,573,9,-19,39,-9,-1,15,648,97,e,-13.446558860066618,54.72963646189396,1649.4363799618318,271.2758512062076,11.393702619292299
2025-02-19 14:56:15.083,578,-100,585,-43,71,14,-8,-2,13,692,43,e,9.700391943945801,44.242670713538296,1275.698824658806,-220.70913921432629,-121.1484644038087
2025-02-19 14:56:15.995,769,-57,622,-1,-1,2,-9,-2,14,732,80,f,5.235953599343381,50.91539754470564,1545.2158655031517,-114.53485609061073,-5.83649979578729
2025-02-19 14:56:16.094,776,-74,625,3,-2,5,-10,-1,15,734,83,f,6.752384487312232,50.956631265131094,1552.6693891424286,-148.06383350069552,-0.5391342964148862
2025-02-19 14:56:16.205,841,-56,652,-9,-5,-2,-9,-3,17,671,97,f,4.909062138655492,52.11273457144218,1630.220596495085,-108.55214435639091,40.142890707734296
2025-02-19 14:56:16.316,793,-326,646,-15,-14,-54,-9,-4,15,840,95,f,26.7775191012451,47.62017673138163,1531.6927506851594,-629.674447318237,44.24020562091698
2025-02-19 14:56:16.418,682,-21,665,-2,9,66,-9,-5,17,864,95,f,1.8087393224920654,45.708798239049464,1397.799972687123,-43.04076162233078,-32.95745137380777
2025-02-19 14:56:16.525,773,-64,805,13,1,-21,-10,-4,13,595,91,f,4.5456312412088264,43.74809468428325,1464.4890338852204,-121.25135597497298,84.88528812729305
2025-02-19 14:56:16.631,702,5,649,10,-7,17,-10,-4,15,816,95,f,-0.44140713385150776,47.24572530766461,1436.271863795419,10.229856579739455,-29.83538405018112
2025-02-19 14:56:16.741,609,-146,682,-26,45,19,-9,-2,13,672,44,f,12.08328185595322,41.12673791954546,1266.7268356589789,-303.68163876225105,-54.567655040104
2025-02-19 14:56:17.457,769,-41,607,0,-4,-2,-10,-3,15,633,78,g,3.864191401008724,51.651232261211305,1553.248556683799,-82.81299196883712,-12.036246953271643
2025-02-19 14:56:17.557,775,-59,621,-1,-4,-5,-11,-2,17,697,95,g,5.427269690739431,51.16945935310694,1554.003852567324,-118.30480942125433,-3.2082483152363466
2025-02-19 14:56:17.663,754,-42,629,-7,2,-12,-10,-4,14,642,94,g,3.8201206060852724,50.10184217291143,1521.185775296222,-84.73448615708398,-10.999804590614758
2025-02-19 14:56:17.771,862,57,584,-1,-7,42,-10,-4,14,401,94,g,-5.574568140695568,55.75635055898831,1688.652124314393,111.66261146858514,23.94798074291714
2025-02-19 14:56:17.875,899,-120,641,-7,32,-4,-11,0,16,783,86,g,10.603463929700379,54.04282188291788,1708.4560689996028,-228.047528676254,63.846117654343175
2025-02-19 14:56:17.988,687,-22,622,8,-24,-23,-10,-4,14,797,80,g,2.0256943781226804,47.824936407984836,1428.0968739788873,-45.73235986540834,-48.9785380129083
2025-02-19 14:56:18.089,781,-123,774,0,-1,39,-9,-4,15,766,93,g,9.029637321965113,44.900681862037196,1486.880000395231,-234.16932144508758,74.44670895530248
2025-02-19 14:56:18.195,845,-120,496,18,34,0,-10,0,16,560,101,g,13.600542516658743,58.87151603565773,1701.0101899560796,-241.5635772718693,-6.462786057059759
2025-02-19 14:56:18.307,491,-140,760,-22,27,13,-9,0,11,486,34,g,10.43747535111818,32.43034715778796,1027.2739246884526,-292.909062029294,-70.07776530188153
2025-02-19 14:56:20.225,732,-85,666,-1,-2,-5,-10,0,15,505,50,h,7.273203883467837,47.472448028447076,1468.952378746686,-170.57507130255232,-4.505852794115754
2025-02-19 14:56:20.322,732,-83,658,-2,-2,-3,-10,-3,13,601,52,h,7.189309323053489,47.82247051994175,1473.0679777510586,-167.02819966302985,-8.151269617754679
2025-02-19 14:56:20.429,744,-58,649,-4,-6,-8,-10,-2,12,687,54,h,5.10685726901362,48.788502619833636,1496.2827164181322,-116.64569563474689,-7.225111499150557
2025-02-19 14:56:20.525,748,-72,650,-11,-2,-6,-9,-1,14,756,57,h,6.320841601588819,48.836835775968126,1500.8382284945415,-144.46571183369917,-4.204342943117467
2025-02-19 14:56:20.646,726,-81,657,-3,-3,-4,-11,-3,14,803,58,h,7.028396238949605,47.64111702999484,1464.9390484078017,-163.44361283888693,-11.709304137638355
2025-02-19 14:56:20.753,715,-131,653,2,-11,-5,-10,-4,14,821,63,h,11.343675567594417,47.031638775612656,1446.7301901396936,-265.06525161999986,-15.279460365342857
2025-02-19 14:56:20.858,825,-28,612,-6,4,-3,-10,-2,17,801,79,h,2.619548795394677,53.40263579994487,1627.8449027055362,-55.248069425157595,16.43505399298408
2025-02-19 14:56:20.965,691,-175,669,-1,1,0,-11,-4,15,808,72,h,14.65921757204444,44.978866316289846,1397.845915083081,-354.01307545519415,-15.34141416871364
2025-02-19 14:56:21.071,721,-36,640,2,-6,12,-9,-3,13,765,74,h,3.219494896852829,48.36100928175518,1468.3461046963341,-73.31547818178643,-23.38627878731461
2025-02-19 14:56:21.178,760,-52,632,2,1,-2,-11,-2,15,766,79,h,4.703614704293191,50.158751573165134,1527.8224962129739,-104.53522342509821,-6.505023166578212
2025-02-19 14:56:21.288,735,-44,638,-2,1,-14,-11,-3,16,775,78,h,3.945186229037563,48.973827468736296,1489.4098157990707,-89.16194815667906,-16.848248271846273
2025-02-19 14:56:21.388,759,-34,649,2,1,3,-11,-4,15,775,79,h,2.9988863852859238,49.428372581691654,1518.5934743457658,-68.02658514855868,-0.507463571017297
2025-02-19 14:56:21.505,593,-129,657,8,-38,-20,-11,-3,16,798,93,h,11.108542162752466,41.53056053638841,1256.01943342646,-273.2318834941203,-77.5763368654035
2025-02-19 14:56:21.605,725,-73,712,20,-9,70,-11,-3,14,698,96,h,5.853971683095072,45.368549872208746,1436.6405211188153,-144.65483867817034,13.11992960469479
2025-02-19 14:56:21.718,746,-195,636,-3,-3,-43,-9,-3,14,770,98,h,17.045737164725516,48.27599938774422,1492.359458639847,-390.0939603683247,-0.3064553551513427
2025-02-19 14:56:21.821,859,49,520,3,-4,56,-11,-3,15,688,103,h,-5.383129874058204,58.69886217603771,1713.448512951456,97.74036919047882,2.7552657336940456
2025-02-19 14:56:21.925,534,-239,699,-37,62,11,-9,0,13,705,39,h,18.876431537195447,35.86174456894666,1119.8313748554851,-501.1979374353201,-67.8466873108315
2025-02-19 14:56:22.745,774,-73,632,2,0,-1,-11,-3,15,760,82,i,6.588826617731316,50.58094337867166,1546.5224188921839,-145.86064157510262,1.2065003360978608
2025-02-19 14:56:22.845,760,-69,630,5,0,-1,-10,-4,15,741,85,i,6.25033957778048,50.17512596252326,1528.0055579125205,-138.72682038942622,-6.636186164326318
2025-02-19 14:56:22.946,793,-39,624,-1,6,-5,-11,-3,16,706,91,i,3.5763343749973515,51.74702491238401,1578.2847833226685,-77.62056311422961,6.070990172326333
2025-02-19 14:56:23.055,726,-183,693,-11,-1,8,-10,-5,14,685,95,i,14.792387519593364,45.36713189176406,1437.6231340469817,-362.37607924324743,13.723372046062991
2025-02-19 14:56:23.168,817,98,515,16,31,-52,-12,-4,17,671,95,i,-10.774072869096493,57.31307886044877,1658.6340802334782,198.95488355309777,-15.528214590258699
2025-02-19 14:56:23.276,778,178,484,-36,-30,-8,-12,-5,15,541,94,i,-20.191937132830212,56.46177616150026,1611.5174217942608,368.70192940794146,-34.53783052496442
2025-02-19 14:56:23.381,729,47,586,-42,65,56,-9,-3,13,733,59,i,-4.58557938091057,51.11652437502192,1507.4242236866862,97.18647258336661,-39.72921135857098
2025-02-19 14:56:23.489,680,-87,655,21,-39,-16,-9,-3,12,727,54,i,7.56599261614746,45.82246267457738,1397.1838744748375,-178.7573486460454,-35.81682026620376
2025-02-19 14:56:24.306,780,-66,620,0,-2,-2,-10,-3,15,802,84,j,6.076344821149005,51.362459132762915,1561.1115314593058,-132.09405266194125,-0.8835250061147235
2025-02-19 14:56:24.396,754,-55,598,2,-6,-9,-9,-1,16,805,89,j,5.254894806679214,51.46440143868462,1536.221229944072,-112.05857778106628,-22.382354783229516
2025-02-19 14:56:24.512,786,-219,679,20,0,18,-10,-3,15,775,97,j,17.87623109476652,47.770311434476504,1526.4564359493093,-425.3103810087769,39.343613219362965
2025-02-19 14:56:24.619,825,16,467,-38,-4,29,-10,-1,16,159,107,j,-1.9622570187930026,60.47309921800792,1695.1244036037347,32.87513994867849,-25.54314725205336
2025-02-19 14:56:24.726,101,-359,718,-45,-30,-56,-11,-2,14,779,59,j,26.56505117707799,7.171144635723329,225.8335677804411,-802.7153547839439,-169.4307095678878
2025-02-19 14:56:24.836,1052,-95,669,13,-6,62,-11,-4,15,808,98,j,8.082136036761455,57.28690887901212,1893.3873241632803,-170.9807944824255,133.93524727639317
2025-02-19 14:56:24.939,495,-120,690,-6,0,8,-9,-1,16,715,45,j,9.865806943084369,35.2519952702948,1072.173628442279,-259.92087962237076,-114.54505782863146
2025-02-19 14:56:25.755,738,-5,653,2,-1,-8,-9,-5,15,560,79,k,0.43870336767275575,48.495998225950586,1486.9094388394296,-10.073912187259008,-9.652931656026567
2025-02-19 14:56:25.855,786,-4,604,-2,0,-3,-10,-5,15,510,91,k,0.37943670141897917,52.45899421532243,1578.9174551434337,-8.035203334063274,-5.315703443554298
2025-02-19 14:56:25.960,706,-170,704,3,-2,22,-10,-5,13,384,92,k,13.575738076668422,44.269547420845484,1404.0347977079127,-338.0820334424153,7.9426379796448145
2025-02-19 14:56:26.069,835,122,538,21,4,11,-9,-4,14,292,96,k,-12.77664476925212,56.54846333554477,1669.3523767216677,243.90537719765683,0.41727104639858226
2025-02-19 14:56:26.178,405,-185,794,21,-69,-10,-9,-2,16,824,90,k,13.115771610772113,26.416784765756425,849.8975583486038,-388.2248106036832,-78.21891686121307
2025-02-19 14:56:26.286,811,-52,663,31,29,-34,-11,-5,16,335,97,k,4.484606009544626,50.64756771157013,1584.2602687726935,-101.5801898596548,30.85257928940132
2025-02-19 14:56:26.392,757,11,680,-8,-31,52,-11,-2,16,605,102,k,-0.926762659901782,48.0634691196065,1500.8855955270901,21.809434016906195,11.780442591253632
2025-02-19 14:56:26.498,737,-138,481,-22,65,0,-10,0,14,632,60,k,16.00830642135977,55.82446187878664,1564.3204749485667,-292.91211064165833,-58.94728419302635
2025-02-19 14:56:27.315,745,-55,654,1,-1,-4,-10,-5,13,689,71,l,4.807140945569752,48.6215239951893,1495.3594481422624,-110.39566395681132,-4.704804140992792
2025-02-19 14:56:27.412,759,-46,647,1,-3,-3,-11,-5,14,627,72,l,4.066736361222936,49.48315851359891,1519.2150343908315,-92.07363844792918,-1.0357407784823636
2025-02-19 14:56:27.520,824,-27,641,11,-7,-16,-12,-4,15,533,91,l,2.411968975493547,52.09558879448495,1613.0367886415538,-52.854360792866444,27.198323398985508
2025-02-19 14:56:27.628,750,-291,752,9,-6,35,-11,-6,16,478,93,l,21.15484706731994,42.926762303615284,1431.0629583811478,-555.2524278518854,69.12087372983581
2025-02-19 14:56:27.735,790,-33,587,28,7,24,-11,-2,15,366,98,l,3.217670519739557,53.342963228148,1592.2235478827301,-66.51060389889884,-9.082560262230913
2025-02-19 14:56:27.842,493,-166,746,-24,40,15,-9,0,13,532,38,l,12.545071057994628,32.82526187613072,1035.078765882597,-348.5255073762902,-74.26523194405127
2025-02-19 14:56:27.948,760,-112,676,0,-9,-7,-9,-2,11,534,39,l,9.407335872206914,47.96220890997997,1502.7033193969773,-221.4510154900808,15.384942220583639
2025-02-19 14:56:28.766,753,-71,663,3,-8,-5,-11,-3,13,688,66,m,6.112452185369452,48.47471264294228,1501.6632020604477,-141.59108545324273,3.818455556338904
2025-02-19 14:56:28.866,760,-62,648,4,-2,-1,-11,-3,14,667,73,m,5.465366596633348,49.41910629155168,1519.4882772935794,-123.9582542002657,0.4363109391584885
2025-02-19 14:56:28.968,729,-62,652,1,0,-6,-12,-3,14,647,75,m,5.432037911272898,48.063144669701934,1472.8818110804625,-125.26566843208323,-13.30993254384282
2025-02-19 14:56:29.078,737,-50,651,0,-1,0,-10,-3,14,636,75,m,4.391974968615931,48.46187496659447,1485.5146427579186,-100.78118336213831,-10.171007375040745
2025-02-19 14:56:29.187,751,-19,729,-21,-7,-13,-10,-4,15,619,94,m,1.4929676498298756,45.841908805148776,1468.4203548951673,-37.15044839282047,32.59595377020389
2025-02-19 14:56:29.287,801,34,594,9,-1,7,-10,-3,16,382,97,m,-3.275981813234144,53.395520511061875,1603.7708587853122,68.07516753895207,-1.3132211216922087
2025-02-19 14:56:29.406,720,-197,673,-20,-11,-20,-10,-2,15,688,94,m,16.315765026971302,45.75623207040149,1436.377837958636,-393.00893621923797,3.3857153525526655
2025-02-19 14:56:29.509,835,41,583,3,-9,30,-11,-2,16,550,101,m,-4.022754192054977,55.010747499554924,1654.2596209168362,81.22711911088658,10.989989228125182
2025-02-19 14:56:29.619,752,-151,678,-9,-17,-27,-10,-2,16,777,98,m,12.55564832844657,47.27179263838713,1486.5806404112966,-298.5022296570555,15.705220480240541
2025-02-19 14:56:29.720,858,35,507,11,-6,36,-11,-1,16,585,104,m,-3.949064640966459,59.3610858761419,1718.3960979684362,70.09774292412035,-1.415876072257788
2025-02-19 14:56:29.827,506,-174,697,-29,44,14,-9,0,13,730,45,m,14.016899856401759,35.15903718461994,1081.8479625982004,-372.0188646088672,-96.2134978872441
2025-02-19 14:56:30.550,740,-49,658,1,-3,-1,-11,-3,15,713,68,n,4.258846122170349,48.278167139618816,1486.3846385328716,-98.42276660555503,-5.677151560310222
2025-02-19 14:56:30.638,738,-54,665,1,-4,-3,-9,-2,15,698,71,n,4.642403602850419,47.88484301721684,1479.798460857775,-108.277936160325,-3.42273234474294
2025-02-19 14:56:30.754,724,-39,643,3,-9,-10,-12,-4,13,697,78,n,3.470919580533853,48.33879408694095,1471.088428298892,-79.24371367908395,-20.50533065771765
2025-02-19 14:56:30.860,747,-80,640,-11,-1,-11,-10,-3,14,661,92,n,7.125016348901798,49.1917591192095,1503.9010660078407,-161.06035512801506,-8.48284102412049
2025-02-19 14:56:30.964,802,37,580,6,0,11,-10,-3,15,483,94,n,-3.650129477924706,54.07058161488314,1611.740462157272,74.35710361573449,-5.597840462864838
2025-02-19 14:56:31.076,704,-125,733,-8,-20,-12,-12,-4,14,768,92,n,9.677671238562425,43.433726415186435,1391.515080471304,-247.07299014050145,17.163985816099625
2025-02-19 14:56:31.176,792,0,541,13,2,35,-11,0,18,701,99,n,0.0,55.66376686798864,1617.7417625332596,0.0,-23.048350417289726
2025-02-19 14:56:31.287,625,-128,665,-37,51,17,-9,-2,15,682,44,n,10.895113632290375,42.70418475088088,1303.2133445171448,-266.8980929571113,-56.618998566242226
2025-02-19 14:56:32.007,832,-32,615,0,-7,-1,-12,-1,15,752,92,o,2.978557717644487,53.4917976593078,1635.771698828174,-62.914296108775915,20.86587165946287
2025-02-19 14:56:32.101,774,-52,625,0,-3,-3,-11,-2,16,758,89,o,4.756054855559571,50.982718808475376,1550.956114465224,-104.19860200541555,-2.387043334321561
2025-02-19 14:56:32.206,773,-55,612,0,-3,0,-9,-2,16,766,93,o,5.135335005513132,51.51841467775698,1555.808190614617,-110.69786608512798,-7.76534625633326
2025-02-19 14:56:32.319,733,-45,637,1,-3,-4,-12,-3,15,768,96,o,4.040869443698158,48.937713139784144,1486.995925551405,-91.28897223712579,-18.24611811220302
2025-02-19 14:56:32.425,794,-189,578,28,18,-3,-10,-5,16,415,95,o,18.107207428954556,52.551889983121136,1587.9043402901455,-377.9772296156643,0.06963641347113025
2025-02-19 14:56:32.536,696,39,699,-4,-21,-25,-10,-2,15,752,101,o,-3.1934492732832966,44.83226329507051,1401.033658026182,78.50619635491537,-9.072596207329298
2025-02-19 14:56:32.635,1000,-42,515,9,19,22,-9,-1,14,742,92,o,4.662347425535387,62.67415885078605,1888.410285309859,-79.31323198301409,57.46870306542252
2025-02-19 14:56:32.745,453,-154,745,5,-18,2,-8,-2,13,707,43,o,11.679196370803208,30.77230862771292,964.6276649379087,-327.9308176610109,-96.41856595748777
2025-02-19 14:56:33.465,756,-62,640,-1,-4,0,-10,-1,14,715,66,p,5.533262290807535,49.61803945039584,1517.7423289160515,-124.47093173650157,-4.86123082840345
2025-02-19 14:56:33.564,764,-57,638,-1,-1,-1,-10,-1,16,725,71,p,5.1053472021793205,50.02337393879487,1530.306605981039,-114.17208971324506,-1.9261971412339562
2025-02-19 14:56:33.669,725,-61,640,3,-7,-7,-11,-3,14,741,76,p,5.444556760352892,48.43469518911851,1473.1999907582338,-123.95199922241692,-20.479991841751257
2025-02-19 14:56:33.776,907,-100,674,-4,-2,-12,-9,-4,14,729,95,p,8.439292019357783,53.08452478992299,1706.5224597993508,-188.15021607490092,79.86754365516799
2025-02-19 14:56:33.884,833,141,499,0,-10,45,-9,-2,16,268,100,p,-15.778441784139911,58.097942897100225,1681.9527144448894,284.7002793958336,-9.556307932772938
2025-02-19 14:56:33.985,821,-111,569,-10,-6,-64,-10,-5,14,771,93,p,11.038574248148791,54.77326063857358,1637.8757942199074,-221.44240335981695,2.858310705082431
2025-02-19 14:56:34.100,699,69,674,-3,-12,51,-10,-4,15,727,99,p,-5.845228294630759,45.893889502208665,1417.052075758936,139.8806770062469,-18.37067104652772
2025-02-19 14:56:34.207,1063,1,669,-28,72,34,-11,-3,14,686,69,p,-0.08564385177957527,57.8156752056992,1909.3389208544077,1.7961796056955857,136.35584378965336
2025-02-19 14:56:34.306,600,-69,698,8,-36,-16,-8,-1,12,728,46,p,5.645567454522086,40.544650714169265,1250.040436932822,-143.75465024727453,-58.21370829851628
2025-02-19 14:56:35.130,743,-41,631,2,-7,-2,-10,-1,14,781,82,q,3.717637678124333,49.60053464878837,1504.5443553577647,-83.02330897667342,-15.748974738559241
2025-02-19 14:56:35.226,768,-40,615,-1,0,-1,-9,-1,16,791,88,q,3.7213132647497598,51.25389007136465,1547.9269780899822,-80.62119677551992,-9.550900423618714
2025-02-19 14:56:35.333,725,-38,629,0,-7,-9,-11,-1,15,795,96,q,3.457228293370369,49.00387485194817,1479.7539470633956,-77.55951722539177,-25.81411407293217
2025-02-19 14:56:35.439,733,-84,661,-5,2,-12,-9,-3,15,658,98,q,7.242338145957836,47.72835012670109,1472.9640130703206,-168.7980587965988,-6.2799626732359
2025-02-19 14:56:35.551,849,97,578,-3,-18,32,-11,-2,15,607,98,q,-9.52660917068407,55.381855997759345,1671.9565067217823,191.0244772108515,17.730434764204688
2025-02-19 14:56:35.655,771,-172,613,-3,-5,-18,-11,-2,16,793,98,q,15.673443865682138,50.45091949184386,1542.0794252714152,-344.01771873759196,-0.06314875665032105
2025-02-19 14:56:35.763,872,167,478,14,0,10,-8,-1,15,335,101,q,-19.258004589843864,59.858107640465434,1736.7845049572084,332.61813340350204,3.955282833089882
2025-02-19 14:56:35.869,1017,-19,686,-26,92,45,-9,-1,14,773,66,q,1.5865037525307786,55.98885330722636,1845.9287678504973,-34.4863781604321,126.86024115492512
2025-02-19 14:56:35.979,639,-150,688,-2,-14,-18,-9,3,11,656,35,q,12.299343398798937,42.22254058990523,1311.0119754255743,-307.7492900060033,-35.5434101608688
2025-02-19 14:56:36.798,733,-68,656,-2,-2,-2,-9,-2,14,729,62,r,5.918060352107625,48.02077901716427,1476.3874450225949,-136.96363746457905,-9.296267305350739
2025-02-19 14:56:36.893,787,-37,628,2,-9,-5,-10,-4,13,739,78,r,3.371808911291901,51.36288214743822,1568.116141319933,-73.723376402589,4.695124842543805
2025-02-19 14:56:37.001,697,-90,630,9,-16,-17,-10,-2,15,744,92,r,8.13010235415598,47.60234707411361,1435.4829622446473,-185.35648006028444,-37.495360421990995
2025-02-19 14:56:37.106,769,89,635,-9,-10,50,-9,-3,14,668,96,r,-7.978459709963637,50.178016523805994,1537.0378671727808,177.88864782623858,0.7944789925674058
2025-02-19 14:56:37.218,833,-243,586,11,1,-59,-11,-4,15,682,97,r,22.522600470939967,52.70828865019596,1628.5611373800898,-475.0784590436517,26.33754321160518
2025-02-19 14:56:37.324,1019,41,659,-14,40,24,-9,-2,15,832,85,r,-3.5600956093916016,57.05825999479978,1858.2239389012966,74.76661579485099,116.26341929739488
2025-02-19 14:56:37.430,703,-95,660,7,-14,-7,-9,-2,14,758,54,r,8.190861376463381,46.51372677988009,1428.5392644649432,-193.04584654931665,-21.160618132094555
2025-02-19 14:56:38.145,763,-61,638,-2,-2,-1,-9,-1,13,728,70,s,5.461521297610903,49.970202576685885,1528.7100493935409,-122.21666187812056,-2.266070135096925
2025-02-19 14:56:38.246,761,-63,640,-1,-4,-1,-10,-4,14,762,73,s,5.6219412207576935,49.800068278753386,1524.7967978189622,-126.23153516766703,-2.3521032905857737
2025-02-19 14:56:38.349,774,-81,667,12,-22,-11,-10,-3,16,803,96,s,6.924053574936021,49.03913639902381,1529.157531163276,-160.02811372638936,16.237631413559257
2025-02-19 14:56:38.458,758,-90,624,6,6,-18,-11,-2,16,675,96,s,8.207216411918147,50.24843476804991,1526.8243633034708,-181.2852146402538,-8.9108215057596
2025-02-19 14:56:38.565,741,87,682,7,-10,24,-10,-3,15,733,98,s,-7.269728455616008,47.143721243525015,1474.0621297047596,173.06802332566002,7.305840136780262
2025-02-19 14:56:38.675,1000,-82,548,33,32,-8,-10,-1,14,478,91,s,8.510313788752471,61.009116247216134,1874.6968334140329,-153.7251403399507,68.66613528911006
2025-02-19 14:56:38.782,366,-173,840,-32,15,14,-7,2,11,645,29,s,11.637483099032934,23.110730653151712,758.5093787009948,-358.53038938598934,-60.84119701867655
2025-02-19 14:56:38.888,844,-73,642,2,-27,-20,-9,-1,13,643,44,s,6.487078570359914,52.563590562085075,1638.0284943359718,-141.67782000773218,38.011500753917176
2025-02-19 14:56:39.706,750,-56,645,-3,-1,-4,-11,-4,13,759,67,t,4.962074202496986,49.19808218832068,1506.9731838494486,-112.52066439409215,-5.996938110525548
2025-02-19 14:56:39.801,758,-65,648,0,-6,-6,-10,-4,15,783,74,t,5.728101396546154,49.33177322710252,1516.4958390992501,-130.04251918397264,-0.4238835571427444
2025-02-19 14:56:39.906,853,-35,635,-1,-2,-6,-12,-4,15,808,93,t,3.154842864791977,53.2932114423702,1654.704830385893,-67.89527440035903,38.185735879200365
2025-02-19 14:56:40.017,764,-38,646,-1,-2,-1,-11,-4,14,808,94,t,3.3664606634298013,49.73502161732646,1527.0635326203019,-75.9534217795438,0.7918297477554006
2025-02-19 14:56:40.125,766,-37,630,-2,-1,-1,-12,-2,15,807,94,t,3.3611293356780823,50.515862648066935,1537.8006555269178,-74.28018832179627,-4.770774127882532
2025-02-19 14:56:40.232,759,-66,639,-1,-2,-6,-10,-5,13,761,95,t,5.896963510210823,49.756223796933945,1522.302650980385,-132.37414356351172,-3.6223899558179937
2025-02-19 14:56:40.339,884,89,583,13,-1,43,-9,-3,14,474,96,t,-8.679685301844925,56.29105237535946,1715.8674644230252,172.7513623683815,34.381525159927946
2025-02-19 14:56:40.445,736,-66,662,5,-9,-1,-9,-2,16,791,98,t,5.693454107345849,47.88907915919534,1477.848041081289,-132.5244167273982,-5.260058689963671
2025-02-19 14:56:40.555,629,-105,691,-5,30,-15,-10,-2,13,695,58,t,8.640209130667703,41.98545343635593,1297.9419111516422,-216.66756863421693,-43.878951678513204
2025-02-19 14:56:40.655,665,-98,561,20,-60,-32,-10,-2,13,513,91,t,9.908902669829828,49.423777774827855,1424.5413135434587,-209.93240410114132,-79.75590510959455
2025-02-19 14:56:40.766,702,-23,691,-5,-32,17,-9,-2,17,768,101,t,1.9063915897703974,45.43657516875685,1414.4741252855229,-46.34316934696159,-10.310000815237231
2025-02-19 14:56:40.868,999,38,558,-35,97,31,-8,-1,14,735,64,t,-3.895848013087516,60.757617996585815,1871.5609660122223,71.19050721568013,70.62360456974972
2025-02-19 14:56:41.695,747,-84,644,-1,-3,-1,-10,-2,14,719,59,u,7.431407971172507,48.99572046925089,1501.6605758208927,-168.86143021279113,-6.604298298065487
2025-02-19 14:56:41.788,752,-72,653,3,-5,3,-9,-1,13,719,62,u,6.292035949959499,48.85909742847865,1505.0939102932005,-144.10473609190217,-0.9498981668351689
2025-02-19 14:56:41.894,648,-94,641,1,-4,0,-9,-2,15,698,56,u,8.342724877736792,45.00638044478254,1355.1855200499203,-196.58555383440205,-58.54617029629469
2025-02-19 14:56:42.005,637,-96,638,-2,-10,-26,-10,-2,13,696,67,u,8.557112533066444,44.63437643845425,1339.5801294264093,-201.88334760586386,-65.68308096397027
2025-02-19 14:56:42.112,872,-33,544,-3,-14,58,-9,-3,15,594,97,u,3.471409177856778,57.9946167919165,1719.998304005088,-65.09167893597237,14.973535116091853
2025-02-19 14:56:42.223,642,-264,683,10,-7,-31,-10,-1,15,784,100,u,21.133013265805094,41.2427904620221,1301.2512057457866,-535.0939537646225,-18.35291826226205
2025-02-19 14:56:42.317,841,90,531,1,-8,35,-7,0,15,639,102,u,-9.619727799698852,57.36465986800316,1683.1199220597975,180.11984897191653,-0.7071089343073709
2025-02-19 14:56:42.431,583,-245,645,-36,57,9,-8,0,13,719,45,u,20.799028408841497,40.196870809817824,1228.4159722920745,-516.2296967608204,-69.05369147236377
2025-02-19 14:56:43.250,736,-100,648,5,1,0,-11,-1,13,731,70,v,8.772737297529416,48.30353409785547,1482.6792133667172,-201.45098007699966,-9.402350898957707
2025-02-19 14:56:43.348,668,-91,644,14,-4,-11,-11,0,15,729,74,v,8.042894233505312,45.7649323755782,1384.4837766310284,-188.6048258584185,-46.74184453650025
2025-02-19 14:56:43.455,790,-31,599,9,8,-16,-11,-4,13,566,90,v,2.962580910380123,52.79268447711127,1586.4527163404682,-62.25320785639812,-4.89262922524108
2025-02-19 14:56:43.566,752,-111,633,-22,-18,50,-11,-1,14,630,92,v,9.946004942417295,49.48282885738663,1512.2112964370112,-223.21203976663327,-6.911902452962863
2025-02-19 14:56:43.672,843,0,570,-5,-21,-10,-10,-1,15,562,99,v,0.0,55.93514940069945,1671.4041155394107,0.0,9.869103371928873
2025-02-19 14:56:43.775,1023,-16,682,1,33,24,-10,-2,16,803,0,v,1.3439359833866094,56.30265676644856,1854.9798489959826,-29.012392555166883,127.34676733601168
2025-02-19 14:56:43.885,590,-151,712,4,-14,-4,-7,1,13,719,43,v,11.9737988890581,39.028997634851414,1219.7136272733112,-312.16399613266094,-47.92559765863973
2025-02-19 14:56:44.800,726,-78,651,2,-2,1,-9,-2,13,628,66,w,6.832361677416983,47.914566060759164,1468.1462566860034,-157.73472179271113,-14.478254962242659
2025-02-19 14:56:44.900,730,-90,655,-4,-2,-1,-11,-2,15,639,71,w,7.823710731885269,47.83315299004355,1471.1931491509763,-181.37997729258612,-10.043168073821107
2025-02-19 14:56:45.006,697,-100,657,2,-5,-11,-10,0,13,654,75,w,8.65439470423461,46.364557007843175,1420.7451263893447,-203.83717738728046,-25.210255434432725
2025-02-19 14:56:45.114,775,-86,629,-9,0,-7,-10,-3,14,491,93,w,7.7854894353911765,50.6769067352469,1548.5848604967273,-171.8429651647981,1.1485454807209408
2025-02-19 14:56:45.220,768,71,597,1,-13,23,-10,0,15,643,99,w,-6.78221507395738,51.94538713987496,1555.4235630770868,143.79566794072025,-15.098785360704255
2025-02-19 14:56:45.330,651,-284,706,3,0,-12,-10,-3,13,768,101,w,21.9132605487803,40.54615342428862,1301.060366778379,-567.5900832028567,1.0190185168421522
2025-02-19 14:56:45.433,809,50,561,-2,-12,34,-9,-1,14,632,0,w,-5.093118359944099,55.1544617531325,1629.695351049719,100.7228276297725,-8.11012600604738
2025-02-19 14:56:45.543,779,-108,619,-24,-9,-25,-10,1,18,707,0,w,9.897054212200281,51.10992386913221,1557.3519026852614,-215.91014825418256,0.5149836172313371
2025-02-19 14:56:45.646,795,-72,550,-19,62,33,-9,0,15,716,0,w,7.458127592823165,55.09549054357585,1615.1068426715642,-146.2738272608209,-17.369513797937316
2025-02-19 14:56:46.465,760,-109,618,7,-10,-4,-8,0,13,800,74,x,10.002690797531955,50.45320579572397,1531.1048327904941,-219.59266680811032,-9.02998245332276
2025-02-19 14:56:46.564,740,-97,644,-1,-1,0,-8,0,16,817,75,x,8.565566777645083,48.64942345505272,1490.6812394373778,-195.40010841273732,-9.295565131988155
2025-02-19 14:56:46.670,751,-86,621,1,-1,-3,-10,0,14,821,76,x,7.884532053050539,50.1452382487497,1518.6713732921032,-173.90910533038732,-13.785516397331776
2025-02-19 14:56:46.781,650,-104,632,5,-27,-14,-9,-1,15,835,89,x,9.344671902099691,45.42178329091379,1362.2929461982176,-217.96687139171488,-60.56791076503646
2025-02-19 14:56:46.887,807,-94,674,26,16,16,-11,-1,14,561,100,x,7.939593398661517,49.85988507389789,1571.4702383424997,-183.04609963345104,35.52051964951045
2025-02-19 14:56:46.993,870,-3,689,1,24,-43,-9,-2,13,458,90,x,0.24947206430963,51.622130628998896,1653.9333186445124,-5.703218340153491,68.16085454474842
2025-02-19 14:56:47.104,899,-19,678,-65,-35,64,-10,-2,13,670,94,x,1.605213823827523,52.96663773928128,1697.2849490465096,-35.87142828908085,75.95640105279915
2025-02-19 14:56:47.206,853,-64,603,21,-1,-17,-10,-1,16,771,99,x,6.058462811428875,54.59146352436309,1668.0414798079587,-125.15199848500512,26.833514274092295
2025-02-19 14:56:47.314,472,-181,737,-7,7,-1,-8,2,12,707,39,x,13.798199093356695,31.879645613791944,1000.1367032943431,-383.52699850905947,-87.6541320507007
2025-02-19 14:56:48.132,771,-73,639,-1,-1,-3,-9,0,15,735,82,y,6.517272918207021,50.1656583669467,1538.8997201394727,-145.70645858648703,2.569492647051902
2025-02-19 14:56:48.231,773,-75,616,-2,-2,-1,-10,-2,15,710,88,y,6.941780421085178,51.24319956085869,1552.8101867093503,-150.66075550220086,-5.427005191409762
2025-02-19 14:56:48.337,760,-66,628,-2,0,-7,-9,-3,14,711,90,y,5.999507320394364,50.277939465917164,1529.1535539173283,-132.7949138928206,-7.563726131686963
2025-02-19 14:56:48.444,725,-160,619,-2,7,-7,-10,-1,14,501,96,y,14.492687290391059,48.592409703679635,1475.0234553214236,-325.5224177261073,-21.364853577877625
2025-02-19 14:56:48.550,888,-7,557,0,-16,5,-9,0,14,751,101,y,0.720016775373243,57.89987803992002,1735.1207902425704,-13.677753977137378,25.641576390640125
2025-02-19 14:56:48.655,780,-101,583,-2,-4,2,-11,0,14,776,98,y,9.828475303133139,52.817163238746176,1576.7109929877233,-204.1638593484103,-12.490396040823953
2025-02-19 14:56:48.755,817,-28,543,-3,0,30,-9,1,16,539,107,y,2.95186403032021,56.355849039385774,1649.494561205313,-56.531025353425655,-10.298098818218932
2025-02-19 14:56:48.865,650,-97,561,-33,57,18,-8,1,12,240,47,y,9.80976564475155,48.78542288399243,1402.2473016498134,-209.25844347697216,-88.24728650083887
2025-02-19 14:56:49.791,758,-93,643,-1,2,-3,-10,1,12,786,71,z,8.229877228508752,49.399733292199855,1517.2682780187133,-186.15560666984214,-1.0758611689085456
2025-02-19 14:56:49.885,741,-85,650,-1,4,-8,-9,0,13,731,72,z,7.450249068656181,48.50205106032609,1489.979440619817,-170.9153204489669,-6.999509315629098
2025-02-19 14:56:49.996,782,-104,501,30,4,-5,-10,-2,15,500,94,z,11.727180678900794,56.8023545813927,1618.7868149713672,-215.28622603199767,-35.09999271183506
2025-02-19 14:56:50.105,682,-127,738,20,-13,34,-10,-1,14,775,96,z,9.764207165986067,42.32514328743148,1355.337023340405,-252.3868063991664,9.374306121379732
2025-02-19 14:56:50.205,781,-84,561,18,12,1,-9,0,15,75,94,z,8.515782404350063,54.008442276745,1590.1035931193883,-171.02266558518386,-20.187088015335007
2025-02-19 14:56:50.315,708,-65,667,17,-7,8,-11,2,16,645,0,z,5.565971580981847,46.572782840139055,1434.2482024771994,-131.67532932347166,-17.191456288547442
2025-02-19 14:56:50.426,668,-166,598,18,-39,-30,-12,1,12,555,77,z,15.514227301921625,47.10604419171265,1400.6147046677502,-348.05694756713547,-57.84370268160865
2025-02-19 14:56:50.533,689,-91,656,5,-16,13,-10,-2,15,716,101,z,7.897641573136565,46.13273833815931,1409.9471981465085,-186.2194412646332,-30.417071094498624
2025-02-19 14:56:50.640,862,-62,456,-28,79,25,-10,2,14,637,58,z,7.742736667637976,61.90359611168802,1744.156426864797,-125.4497662014123,-10.662796578129075
2025-02-19 14:56:50.746,718,-74,638,0,-22,-9,-8,0,11,525,49,z,6.6160289935208665,48.186206246550626,1463.3155127789914,-150.81524783516068,-24.272001605844707
2025-02-19 14:56:52.155,742,-89,651,-2,-1,-2,-9,0,11,381,55,0,7.784802654682022,48.47448033127656,1490.6605140527683,-178.79890262897084,-5.843658555730599
2025-02-19 14:56:52.261,703,-105,661,-3,-5,-7,-9,0,12,476,56,0,9.026032639056377,46.40727427938329,1427.2594097849442,-213.17530302620074,-19.989288574463558
2025-02-19 14:56:52.367,822,-71,621,7,-22,0,-10,0,15,751,68,0,6.52240385799577,52.75078289454689,1618.0102732503517,-139.75514525641722,19.63457458823791
2025-02-19 14:56:52.466,712,-97,659,-5,-3,-11,-9,2,14,841,67,0,8.373395072420827,46.90760422548495,1442.2529534458774,-196.4867085452951,-16.894236405664742
2025-02-19 14:56:52.581,792,-76,619,-1,-5,-8,-11,0,14,845,74,0,6.9996677870221236,51.781883760036706,1577.6613205600602,-151.391742882026,4.954094158235648
2025-02-19 14:56:52.691,762,-53,615,2,-10,-2,-10,-1,15,849,83,0,4.925515519389704,50.9898253997066,1539.0341943157769,-107.0456854314123,-12.133896987142862
2025-02-19 14:56:52.794,784,-73,599,-4,1,-3,-9,-1,15,852,90,0,6.948359828999617,52.415115485068995,1576.4505812180307,-146.78685258790335,-6.456502741837198
2025-02-19 14:56:52.904,791,-67,622,-3,0,-15,-9,-1,14,848,99,0,6.148026568703167,51.65969641363779,1575.3402050704635,-133.43589600470423,5.2369057473727025
2025-02-19 14:56:53.011,940,-56,513,13,6,81,-8,-2,15,682,97,0,6.229842638690723,61.23380038189065,1816.590727501989,-108.22242631926743,34.60527318242515
2025-02-19 14:56:53.117,657,-59,673,-4,-14,-65,-9,2,15,811,0,0,5.0101493624725855,44.201131523548966,1354.179260851059,-121.60818324233254,-41.15775122186096
2025-02-19 14:56:53.224,860,-18,484,22,18,13,-10,-2,13,808,0,0,2.129853202265453,60.61266883605563,1731.3223349754362,-36.236979104137035,-6.372104800129023
2025-02-19 14:56:53.331,573,-116,718,-14,27,11,-8,2,13,778,42,0,9.17739979417469,38.23225955848756,1191.8507626509718,-241.28217882637477,-57.45348618394041
2025-02-19 14:56:53.436,818,-76,629,2,-4,-3,-8,2,11,748,48,0,6.8894633749451275,52.24073912386075,1608.5906090347416,-149.45340621838676,21.076414324141297
2025-02-19 14:56:54.156,746,-82,623,-2,-3,-3,-8,0,14,798,67,1,7.49823663738308,49.891778797756025,1510.8289696465013,-166.0696722667736,-15.72446124634098
2025-02-19 14:56:54.257,774,-55,617,-3,-1,-4,-10,-1,14,788,73,1,5.0939394822488735,51.32906584713621,1554.7474892096825,-110.47947274745806,-5.37881245784763
2025-02-19 14:56:54.362,757,-59,622,5,-10,-6,-10,-1,14,774,85,1,5.418596152111542,50.465347864636136,1528.2397460915622,-119.10983490013494,-11.700293353965094
2025-02-19 14:56:54.463,794,-25,598,7,6,1,-10,0,13,794,96,1,2.3939145081162234,52.99077614868541,1592.5386155592685,-50.14290351257143,-3.4182520207085645
2025-02-19 14:56:54.579,729,-114,672,6,-10,-3,-11,-1,16,872,98,1,9.628156128486703,46.92452571322738,1459.4546880952732,-228.22748208897275,-1.340947050786781
2025-02-19 14:56:54.681,902,88,454,10,7,35,-10,1,16,784,0,1,-10.969757966800584,62.856057430634884,1791.8631660755823,174.81591864152023,6.1087833721569496
2025-02-19 14:56:54.790,500,-176,571,-3,-15,-25,-9,2,13,690,82,1,17.130929178175787,39.92284518027171,1141.755467433886,-401.89792453672794,-161.88474380949776
2025-02-19 14:56:54.899,735,-92,610,-17,-37,18,-8,1,15,622,0,1,8.576690399338093,49.992660270908694,1500.9620941732567,-187.8755274339315,-25.69643189889348
2025-02-19 14:56:55.006,1071,-48,609,-13,101,17,-9,2,17,622,0,1,4.506606883768322,60.29995631628219,1939.6311366880095,-86.93024702243179,115.07249090289673
2025-02-19 14:56:55.815,770,-89,624,6,-1,-5,-9,1,14,804,74,2,8.117247120018295,50.69655562243105,1543.8021321751808,-178.43946722544297,-3.081208412094611
2025-02-19 14:56:55.919,765,-77,632,2,1,-5,-10,1,14,771,76,2,6.946421082358287,50.230985659006215,1533.6295836868676,-154.36533064560626,-2.9985580262749636
2025-02-19 14:56:56.025,742,-72,635,2,1,-5,-9,-1,15,721,76,2,6.468901592246632,49.262377487907514,1499.7059810356072,-145.52403050480288,-13.441102368747579
2025-02-19 14:56:56.136,638,-94,545,12,-39,-30,-9,-2,15,686,93,2,9.785927509806733,49.07978719524996,1393.622442677739,-205.3299523694474,-100.47685150371092
2025-02-19 14:56:56.242,711,-88,705,13,-15,24,-8,1,14,843,94,2,7.1150135942001596,45.02132379325366,1418.369896424017,-175.5507044800471,3.599469790531998
2025-02-19 14:56:56.349,953,-85,415,-7,15,4,-9,0,13,596,96,2,11.5751888173962,66.03450705419526,1866.7902538541057,-166.50280333431166,17.074548426596095
2025-02-19 14:56:56.455,720,-30,633,-3,-21,17,-7,3,15,677,104,2,2.713409445033328,48.64726742705277,1470.6563782385358,-61.27734909327232,-26.952065868046134
2025-02-19 14:56:56.565,744,-130,524,-10,79,16,-8,3,13,672,53,2,13.93328620315808,54.03340516921753,1553.35955340065,-271.4203520726942,-46.03280373916721
2025-02-19 14:56:57.479,761,-81,613,5,-11,-15,-9,1,13,799,74,3,7.527287027423911,50.90542041244433,1537.106068075495,-163.607873211715,-12.16822566396661
2025-02-19 14:56:57.578,745,-71,628,8,-1,-8,-8,1,14,801,82,3,6.450318043047799,49.69128493313873,1507.5699398718007,-143.67445064550046,-14.810633878511112
2025-02-19 14:56:57.688,720,-33,623,11,-6,-14,-9,-1,14,798,89,3,3.03209526402977,49.09137118989765,1475.754855878955,-67.63876422778542,-30.937882239706482
2025-02-19 14:56:57.794,707,20,576,-14,-16,29,-10,-2,14,849,0,3,-1.9886378564740679,50.81304606824182,1482.0883796924354,41.92612106626407,-55.47228670840536
2025-02-19 14:56:57.896,790,9,541,3,13,11,-9,2,14,766,96,3,-0.953076623625031,55.59256615306717,1615.0401896303874,18.399192033763903,-23.995876696252594
2025-02-19 14:56:58.008,682,-76,711,1,-11,17,-7,0,13,825,96,3,6.101276366658995,43.64479308321416,1372.185480924293,-152.9121650296866,-8.53354389614708
2025-02-19 14:56:58.114,912,-98,401,12,14,12,-9,3,14,524,100,3,13.733272134547903,65.64691756394538,1823.0216326015639,-195.89486841551894,0.4301812793560771
2025-02-19 14:56:58.221,485,-154,732,-27,48,5,-7,4,10,732,40,3,11.880768232529253,32.958361307631165,1029.0294022735202,-326.74335659818985,-89.09179889529207
2025-02-19 14:56:58.328,850,-120,641,6,-33,-20,-7,3,10,739,52,3,10.603463929700379,52.503912678051954,1643.3949102203153,-232.0086932075739,42.68689711620925
2025-02-19 14:56:58.434,703,-120,674,-8,5,-6,-8,3,13,734,52,3,10.095246956098316,45.75975045766796,1419.4206813505803,-242.29087021631523,-12.867054381637217
2025-02-19 14:56:58.544,729,-107,655,-5,0,-4,-8,2,12,733,52,3,9.277818230056491,47.68524768667469,1468.4577855980015,-215.5349561851662,-9.3962271148024
2025-02-19 14:56:58.651,769,-112,642,-1,-2,-3,-8,2,11,758,56,3,9.895934864331823,49.720079126878964,1531.8949483152396,-223.11083772601665,5.0968051776545735
2025-02-19 14:56:58.757,752,-106,645,-4,3,-5,-8,3,13,662,54,3,9.332628763633288,49.00223846280435,1506.7352109192207,-212.38554834765608,-2.346025323001527
2025-02-19 14:56:58.864,721,-112,647,-1,-2,-1,-9,1,13,632,54,3,9.820954101169798,47.675538809456576,1460.343699484225,-226.84950671599609,-16.460989689727512
2025-02-19 14:56:58.970,729,-98,644,1,-12,-6,-9,0,12,705,61,3,8.652541791114725,48.21692441379289,1474.6728520139623,-198.24134361778917,-14.728829488328643
2025-02-19 14:57:00.989,796,-83,604,-1,2,-2,-10,1,13,828,0,4,7.824421438917323,52.55060054656449,1589.8906561412805,-165.78005585392754,1.600557400334651
2025-02-19 14:57:01.084,791,-73,606,-2,-1,-7,-8,0,14,834,0,4,6.86886947801308,52.344159646871994,1582.6946209074845,-146.06410534291575,-0.532162161739052
2025-02-19 14:57:01.189,771,-81,618,1,-15,-7,-8,1,15,845,0,4,7.467076640260332,51.0475100159037,1548.6675305943502,-162.70047986788893,-5.3444019550044
2025-02-19 14:57:01.295,782,-84,614,-4,-3,-3,-11,2,14,836,0,4,7.790149641629582,51.603882377206006,1565.735544664888,-168.1864267926478,-1.3626910795921958
2025-02-19 14:57:01.395,834,-66,560,5,9,20,-7,2,15,464,99,4,6.721709119960218,55.936974817406394,1662.4219606270694,-131.5585724237249,3.7454461017279073
2025-02-19 14:57:01.512,764,-66,584,-24,-26,16,-8,2,14,689,0,4,6.447849979813445,52.43021542293434,1556.6112984782249,-134.47165667482045,-21.87041663780542
2025-02-19 14:57:01.620,828,-105,558,8,-8,4,-10,2,15,782,0,4,10.656848246921296,55.559990881533864,1652.718785855579,-209.58390400342486,2.211253010370797
2025-02-19 14:57:01.731,354,-230,735,-11,12,-26,-8,1,14,769,0,4,17.37621509971923,24.68602107308786,771.6454050852665,-501.35153437743304,-132.14512072788386
2025-02-19 14:57:01.833,746,-163,655,0,0,-10,-9,0,15,818,0,4,13.974480165030299,47.86136396867206,1487.5235862447848,-325.0219095950401,3.9303632837345504
2025-02-19 14:57:01.940,901,47,459,18,5,15,-9,2,15,637,0,4,-5.846511272588927,62.88311780980838,1791.0785397520613,93.43029008695547,5.563762767817934
2025-02-19 14:57:02.050,411,-207,734,-27,74,26,-6,3,11,756,0,4,15.749319611112055,28.321305886824014,885.4155886993017,-445.9392381040279,-113.2531438084851
2025-02-19 14:57:02.161,780,-142,658,13,-49,-29,-7,5,13,713,40,4,12.177983923765755,49.20547722745258,1537.057516362026,-279.8232914402662,19.354043889470518
2025-02-19 14:57:02.876,741,-105,632,8,-5,-3,-9,1,14,753,75,5,9.432917140290074,49.15355716712669,1497.465157121259,-212.19141902527957,-13.190255466444569
2025-02-19 14:57:02.972,753,-87,639,-1,-1,-6,-10,0,12,765,76,5,7.753161874558844,49.42210300455267,1512.5223001343595,-174.75357252548378,-5.5348602733809
2025-02-19 14:57:03.079,709,-76,643,5,2,-12,-9,1,15,615,82,5,6.740855001702063,47.596919666062924,1447.419087734469,-155.15352703500656,-26.68049846722647
2025-02-19 14:57:03.186,767,-138,536,13,5,-5,-10,-2,13,74,92,5,14.437960142147887,54.18515977380953,1577.912281424773,-283.90077553666055,-30.68707020036277
2025-02-19 14:57:03.291,732,-46,649,13,-9,4,-8,0,15,824,0,5,4.054245900765704,48.36814449342897,1479.428842936209,-92.9695720970842,-13.679397630600874
2025-02-19 14:57:03.403,614,-226,617,26,-25,4,-9,0,14,718,78,5,20.117201197264546,43.05848947489056,1296.744595239155,-477.30338521832084,-69.08048088364592
2025-02-19 14:57:03.504,818,6,560,9,3,9,-10,0,14,662,93,5,-0.613859863109328,55.603059093579006,1643.1436613996275,12.052398494373797,-4.890526141554346
2025-02-19 14:57:03.615,665,-59,739,-5,-9,7,-9,1,13,775,0,5,4.5646765260199595,41.89243649335598,1332.7342945039497,-118.24259154245567,-3.0385618622838138
2025-02-19 14:57:03.721,940,-59,408,35,20,6,-10,2,13,570,93,5,8.228379752650842,66.31979563387948,1855.8014112360338,-116.48115240736804,10.503217250743148
2025-02-19 14:57:03.829,498,-120,754,-29,30,-9,-6,2,10,725,39,5,9.042851558026278,33.11514094960597,1044.3233170081458,-251.64417277304716,-73.16421892397955
2025-02-19 14:57:03.939,852,-88,618,10,-34,-21,-8,4,12,714,55,5,8.104141422759476,53.77092489439801,1658.6605016752133,-171.31704712138355,32.88710089755659
2025-02-19 14:57:04.758,769,-79,618,-1,-11,-4,-9,0,12,811,86,6,7.284709527497179,50.98627934843807,1545.9952354780528,-158.82135709072327,-6.425299772999551
2025-02-19 14:57:04.849,752,-74,627,2,-4,1,-9,0,13,845,0,6,6.731043720645484,49.98440834226641,1517.8694956884879,-149.36481739487778,-11.56406089984273
2025-02-19 14:57:04.956,745,-78,628,4,1,-13,-10,0,15,819,96,6,7.080096107605182,49.654426060832826,1507.1536220043045,-157.7959496863567,-14.459697474769314
2025-02-19 14:57:05.065,681,-174,680,26,11,12,-9,0,14,626,94,6,14.353010272351664,44.13378511446363,1377.3361270026608,-351.9184817892261,-15.313606992377913
2025-02-19 14:57:05.175,901,14,593,-21,-15,31,-7,2,13,635,0,6,-1.3524315888372234,56.64145127015646,1736.2458961762704,26.978293614281668,43.27656333792663
2025-02-19 14:57:05.280,721,-167,598,34,26,-44,-9,3,14,702,0,6,15.603146421424444,49.266993704123074,1478.7585570496776,-342.51411792967576,-30.487679772132196
2025-02-19 14:57:05.389,699,-64,666,-44,62,41,-7,4,10,613,42,6,5.489046016302847,46.2533757129401,1421.4047028918799,-130.14291986420645,-22.299759836898374
2025-02-19 14:57:05.495,610,-153,726,7,-36,-11,-6,4,9,689,36,6,11.900589688666884,39.42572339160227,1245.0773740470668,-312.2898987363954,-29.846186160935076
2025-02-19 14:57:06.415,751,-84,637,-1,-4,-3,-9,2,14,765,69,7,7.512144103052749,49.45151014403963,1510.8560605050616,-168.99055803252352,-7.511731746636656
2025-02-19 14:57:06.514,730,-112,641,12,-24,-12,-9,0,14,703,93,7,9.911067242679199,48.28666321604302,1476.4833158632246,-226.52894709134404,-14.473706120995757
2025-02-19 14:57:06.618,766,-105,553,15,4,-4,-9,0,12,498,0,7,10.750966993188051,53.690422782077015,1571.8293136274115,-215.45963176354857,-28.754060621355734
2025-02-19 14:57:06.723,705,-70,676,4,-15,-4,-8,2,15,841,96,7,5.9119244769802,46.05033815414323,1424.949826231957,-141.48437990955603,-14.334868840855279
2025-02-19 14:57:06.830,794,-65,581,0,1,2,-9,1,13,827,0,7,6.383482844217351,53.635668680764205,1599.2630659354006,-130.92203940277207,-8.241613738624324
2025-02-19 14:57:06.941,584,-300,758,30,-2,66,-9,1,13,784,98,7,21.592587524365943,35.6171161780882,1166.3658447475586,-599.1605366853897,2.121043974915324
2025-02-19 14:57:07.046,803,-115,594,6,15,11,-10,4,15,657,0,7,10.957061794333256,53.003374737596076,1601.6709557367835,-229.38002479418444,3.202306715255986
2025-02-19 14:57:07.154,422,-185,775,-6,-7,-21,-8,3,11,748,0,7,13.425809249714684,27.907272049421632,890.0419790907268,-390.18427993313855,-84.55576728747224
2025-02-19 14:57:07.260,1211,-118,556,-29,-33,10,-9,1,12,718,0,7,11.982108847593913,64.85695512608426,2116.249853157097,-206.2076652952415,140.37744149021802
2025-02-19 14:57:07.366,806,-143,549,35,-9,6,-8,2,15,830,0,7,14.599629725788715,54.859480969667274,1623.7428746276853,-288.0834132403957,-7.998558524316422
2025-02-19 14:57:07.473,487,-174,755,-2,12,9,-7,4,10,667,0,7,12.977988434200208,32.15168832982641,1019.1625785811614,-364.13611637191394,-70.01590724594826
2025-02-19 14:57:08.395,776,-108,612,-2,-3,1,-7,4,12,665,73,8,10.007979801441337,51.31065408846375,1556.5466570434291,-216.63278216583808,-3.585765606415748
2025-02-19 14:57:08.493,771,-123,637,1,-10,-4,-8,2,13,713,80,8,10.928889981331496,49.920693076865284,1536.153984212734,-245.06736713121444,4.829976726962855
2025-02-19 14:57:08.600,777,-112,617,1,-7,-2,-9,2,12,757,90,8,10.288501930766062,51.094508597618244,1555.1829590556251,-224.17051662063068,-0.9393638832955276
2025-02-19 14:57:08.706,769,-108,625,-2,2,-6,-8,4,13,748,98,8,9.803894866674046,50.48457072664497,1540.4532648762922,-216.3445417511568,-1.9938758747498468
2025-02-19 14:57:08.813,797,-158,545,17,10,4,-8,4,14,477,0,8,16.167310180318594,54.55024329381253,1611.6244300286498,-319.493927157499,-12.051837347069295
2025-02-19 14:57:08.915,814,-79,602,-1,-16,4,-8,4,13,687,0,8,7.476160754419911,53.28079558484653,1615.575287048117,-156.7941617651121,9.188792625348242
2025-02-19 14:57:09.027,773,-131,632,6,7,-53,-9,3,13,791,0,8,11.710352247462898,50.13903733905403,1540.60201265851,-261.08520525001916,4.413360931205489
2025-02-19 14:57:09.137,704,-83,688,-19,-19,14,-10,0,13,860,0,8,6.87889316110668,45.45161571277479,1416.6583014826867,-167.02079406685084,-8.461521903534845
2025-02-19 14:57:09.238,907,-54,463,16,19,24,-8,4,15,716,0,8,6.652390250229588,62.799814716262134,1796.414895118216,-106.95303675455754,8.976740419256714
2025-02-19 14:57:09.350,646,-105,660,-26,72,28,-7,6,10,635,0,8,9.03948280335512,44.027940403237125,1341.0090753631384,-217.96587138255342,-50.07119154747852
2025-02-19 14:57:10.771,761,-112,628,-3,-2,-1,-9,4,12,731,70,9,10.112040310912619,50.02854181745044,1527.3645518630412,-224.78952668680762,-4.4269889224572125
2025-02-19 14:57:10.865,774,-120,626,0,-5,-4,-8,2,11,771,74,9,10.851576016019783,50.52815459959422,1545.9370529859857,-239.68016325364124,1.6684816935049867
2025-02-19 14:57:10.971,778,-105,611,-1,-4,-3,-8,2,14,802,0,9,9.751001762252871,51.45008872735668,1560.0655774965594,-210.54869619169503,-3.1928892678635066
2025-02-19 14:57:11.076,760,-126,625,4,-24,-17,-9,1,13,819,98,9,11.398052643717506,50.00625659160052,1526.1146297523042,-253.0137412484083,-5.02847841472385
2025-02-19 14:57:11.176,784,-186,573,28,5,0,-11,1,15,631,0,9,17.98381027613473,52.461004322636335,1576.9388317415282,-374.1206922243932,-6.533100239662872
2025-02-19 14:57:11.291,776,-21,612,7,-15,-23,-9,4,14,824,0,9,1.9652605719205243,51.72218318446109,1561.0162713124091,-42.243997032938914,-7.11077067421968
2025-02-19 14:57:11.397,817,-147,600,8,5,15,-8,4,14,854,0,9,13.766300685466259,52.90656542767821,1614.6530441845748,-290.51896878229195,14.208290684522922
2025-02-19 14:57:11.503,780,-40,479,5,18,27,-8,4,12,592,0,9,4.773540754123378,58.35696097896613,1631.3330900143608,-83.65810718022362,-43.80583348317805
2025-02-19 14:57:11.614,537,-151,671,-8,85,31,-7,5,9,284,33,9,12.682415329100895,37.9817344905363,1152.410231512758,-324.04831463394123,-97.9762855587719
2025-02-19 14:57:11.720,612,-198,762,10,-21,-9,-6,7,6,216,26,9,14.565764246556588,37.85921142984671,1225.7232995949526,-396.5575381042493,-2.1456769466564083
2025-02-19 14:57:11.823,658,-185,730,4,2,-4,-6,5,7,0,28,9,14.220770300187967,41.14529145807456,1315.9707209543617,-369.99176804947865,0.03248283178709244
