Timestamp,Acc_X,Acc_Y,Acc_Z,Gyro_X,Gyro_Y,Gyro_Z,Mag_X,Mag_Y,Mag_Z,Force,IR_A,Letter,Roll,Pitch,Lin_Acc_X,Lin_Acc_Y,Lin_Acc_Z
2025-02-19 13:26:54.499,690,-117,762,-6,1,0,-4,1,4,260,37,noise,8.72921084899268,41.829272667464444,1356.9132502318985,-230.0852902567132,25.495801917816493
2025-02-19 13:26:54.595,665,-103,733,-2,-4,1,-4,2,7,409,38,noise,7.99874046086897,41.93665807197831,1333.3086322945032,-206.51246485162983,-3.646958604317092
2025-02-19 13:26:54.703,720,-38,741,2,1,-14,-3,-2,6,408,40,noise,2.935673446421173,44.13889930992987,1416.40018721937,-74.75445432546675,24.28814065339816
2025-02-19 13:26:54.810,670,-116,743,2,-2,2,-5,-1,7,491,40,noise,8.873601861241628,41.69965373276213,1335.2258423318249,-231.17342941864428,5.294327085752457
2025-02-19 13:26:54.923,693,-113,734,-13,-12,-3,-3,-2,6,600,45,noise,8.752027923828031,43.01939712737634,1375.2459161912711,-224.24644809468057,11.390328305349385
2025-02-19 13:26:55.025,689,-95,705,-20,3,-6,-4,-3,7,676,47,noise,7.674479516893931,44.08473798637576,1384.7214828886076,-190.92676469436535,-6.87756957397437
2025-02-19 13:26:55.132,689,-116,715,-1,-5,2,-6,-1,7,708,48,noise,9.215247068930509,43.56729788802075,1378.2061034420017,-232.03469956353,-0.21388093037899125
2025-02-19 13:26:55.239,685,-117,703,-7,-12,3,-6,0,7,710,54,noise,9.44910518876454,43.86586510596551,1377.972425180984,-235.36171349806588,-8.181919565301655
2025-02-19 13:26:55.345,724,-131,690,-6,0,5,-5,-1,10,732,57,noise,10.749952459686375,45.87060510782447,1441.7691738037179,-260.87259912746833,5.938218336235423
2025-02-19 13:26:55.455,661,-142,699,-5,-5,-1,-6,0,9,727,52,noise,11.48322135302005,42.821513757659815,1340.71676158061,-288.0208474197377,-19.792763002793322
2025-02-19 13:26:55.561,753,-111,681,0,-1,-2,-5,-2,8,732,60,noise,9.25754902874732,47.50043088524661,1490.2824174750726,-219.68306552421387,14.214706108201312
2025-02-19 13:26:55.668,727,-117,680,8,-2,-1,-5,-1,8,768,64,noise,9.762654732339035,46.496069552329736,1452.3271486959316,-233.7307790886162,1.5647027328288914
2025-02-19 13:26:55.775,658,-181,666,12,21,-6,-5,-1,6,721,56,noise,15.204150301634629,43.633598422057446,1348.044081758151,-370.8145574441115,-32.43367545733827
2025-02-19 13:26:55.882,638,-182,710,4,-6,11,-6,-2,7,452,50,noise,14.37751144778831,41.03788529912222,1294.5579170239348,-369.2939512513419,-20.652227409081206
2025-02-19 13:26:55.989,515,-237,780,64,28,6,-5,0,8,0,47,noise,16.901202437106296,32.28216954315589,1049.0892778853934,-482.78477448318097,-28.911916020595527
2025-02-19 13:26:56.095,652,-91,721,-14,-2,-4,-3,-1,7,0,46,noise,7.193470055295538,41.89787762865729,1319.8049839507612,-184.20591033668597,-17.477597282973306
2025-02-19 13:26:56.205,625,-141,745,2,-2,9,-5,-2,4,288,44,noise,10.717136456485305,39.4985189248948,1261.0582738498279,-284.4947465805212,-13.181462428994905
2025-02-19 13:26:56.307,703,-92,712,-4,1,-2,-3,-2,9,424,48,noise,7.362592511212546,44.398434011718614,1402.6438125337095,-183.56078343257653,3.39915430440783
2025-02-19 13:26:56.418,640,-99,718,1,-8,-10,-4,-2,7,480,52,noise,7.850612963611236,41.44484661715595,1301.8987904689336,-201.38746915066315,-24.567705557334875
2025-02-19 13:26:56.525,714,-64,710,-2,8,5,-5,-1,6,467,54,noise,5.150769444877129,45.04502652524014,1421.6622505069909,-127.43191040959022,6.302243893608534
2025-02-19 13:26:56.631,674,-93,726,13,1,10,-3,-2,8,452,47,noise,7.299786867897969,42.64042432856071,1351.395145366035,-186.46846961282088,-3.657085364601585
2025-02-19 13:26:56.737,663,-80,748,-4,6,3,-4,-2,7,219,41,noise,6.104684876928885,41.390930038857654,1324.1931139420853,-159.78197453298168,2.0385381166215666
2025-02-19 13:26:56.848,631,-86,695,-8,-29,-13,-4,-1,7,195,39,noise,7.053980172654746,42.020166595618285,1300.3921321853468,-177.23252514728972,-42.2861043879808
2025-02-19 13:26:56.945,701,-90,650,5,0,-7,-4,-2,10,6,54,noise,7.8831393167297295,46.890545956077545,1431.0495236430659,-183.7296107387674,-26.93607755776452
2025-02-19 13:26:57.061,707,-65,704,-22,11,-2,-4,-2,8,250,55,noise,5.275137469367022,45.00022925418685,1414.1096104850963,-130.01007734304278,-0.10914537695589388
2025-02-19 13:26:57.169,683,-71,705,-4,5,2,-5,-1,7,288,52,noise,5.750823280806228,43.94746781975434,1376.9985450398067,-143.14333337895502,-11.352817354412423
2025-02-19 13:26:57.275,687,-97,713,-2,0,-1,-4,-2,7,282,52,noise,7.747235312522281,43.673600250614676,1377.549221566131,-194.5011273535876,-3.6835443619379475
2025-02-19 13:26:57.385,683,-87,710,-1,-2,-1,-3,-2,7,319,54,noise,6.985925081788045,43.6763157711371,1373.583500738716,-174.96598032835766,-7.8832877371715995
2025-02-19 13:26:57.491,686,-85,711,0,-4,-4,-4,-1,7,340,57,noise,6.8173509941049,43.77165968344235,1377.7860836288198,-170.71693456042232,-5.996946734826452
2025-02-19 13:26:57.595,696,-68,710,-2,-2,-4,-4,-3,7,373,60,noise,5.470796353277877,44.298746951794485,1394.399633194962,-136.2344469213469,-2.447901678768858
2025-02-19 13:26:57.704,692,-92,706,0,-3,-2,-4,-2,7,377,63,noise,7.424468915918426,44.18511879567909,1388.9788790089854,-184.661931891368,-5.079607775063209
2025-02-19 13:26:57.810,695,-71,703,-1,-1,0,-5,-2,8,374,65,noise,5.76707396085938,44.526779007698764,1396.242548050208,-142.63772793030904,-6.314404718411765
2025-02-19 13:26:57.917,697,-79,700,-2,-1,1,-5,-2,6,378,65,noise,6.4389929608246455,44.695676995314756,1400.3410705151864,-158.71871530946873,-6.368363501621957
2025-02-19 13:26:58.024,692,-78,707,0,-1,0,-5,0,7,379,65,noise,6.295714360407533,44.21245961420279,1389.320986675606,-156.5997643940712,-5.436325982158223
2025-02-19 13:26:58.135,693,-78,695,-1,-3,-1,-5,-2,8,375,69,noise,6.403521967488581,44.738152635623024,1396.867860459004,-157.22322238932514,-10.899225135653296
2025-02-19 13:26:58.241,693,-61,697,-1,-3,-1,-4,-3,7,364,74,noise,5.0016643312959,44.72582915939177,1396.7150624830122,-122.94317288811506,-10.776909885511373
2025-02-19 13:26:58.347,705,-71,703,0,-3,-2,-5,-2,8,361,79,noise,5.76707396085938,44.9360200670539,1411.3167422928261,-142.13260808906477,-1.3130068536977433
2025-02-19 13:26:58.454,707,-70,697,-2,-2,-2,-5,-2,9,351,95,noise,5.735008951155152,45.26434133896436,1417.3615707829908,-140.33282879039513,-3.314023812934238
2025-02-19 13:26:58.562,706,-79,700,0,-1,-1,-6,-2,8,356,87,noise,6.4389929608246455,45.06321868209701,1413.8865539447975,-158.21110164538106,-1.8705209084396301
2025-02-19 13:26:58.665,698,-78,693,2,0,0,-7,-2,9,347,90,noise,6.421848383517537,45.02563057727315,1405.4230261328262,-157.05300292028716,-9.355525945628187
2025-02-19 13:26:58.773,704,-60,691,0,-1,0,-6,-1,8,314,97,noise,4.962584570086804,45.42634762766007,1416.3488577799424,-120.71155037897236,-8.19468853116507
2025-02-19 13:26:58.884,700,-64,692,-1,-1,1,-5,-4,7,299,97,noise,5.2840001419773035,45.20728797047375,1409.660359619627,-128.88323287950874,-9.549955509688175
2025-02-19 13:26:58.991,711,-67,695,0,-1,-1,-4,-3,8,294,96,noise,5.506461966453079,45.51950920734659,1424.4890673386383,-134.2345534622908,-2.4330545715240532
2025-02-19 13:26:59.098,701,-51,698,-1,-2,0,-5,-2,8,299,98,noise,4.178941798959565,45.04659781148181,1408.6816267757408,-102.48610979395546,-6.653032081978608
2025-02-19 13:26:59.204,713,-57,695,0,-2,0,-6,-2,7,293,100,noise,4.688584740133965,45.63643658469378,1427.9174778952265,-114.15329065922568,-1.8690703186289284
2025-02-19 13:27:00.825,752,-211,640,2,-5,-5,-6,-3,15,704,109,A,18.246741871228682,48.13572978072247,1496.7278634076588,-419.9595467806063,6.189052419014047
2025-02-19 13:27:00.919,762,-195,591,-16,8,-6,-6,-4,12,673,97,A,18.260267109533427,50.76086762007892,1536.512639010483,-393.2020532900842,-9.704684586870599
2025-02-19 13:27:01.030,760,-188,598,-9,-8,-16,-7,-3,14,683,107,A,17.452171098242513,50.48384477221,1531.4452028831115,-378.8311817658223,-9.005567531711222
2025-02-19 13:27:01.137,806,-129,569,-1,3,-2,-6,-3,14,683,124,A,12.773796535636716,54.100321717502155,1616.0449329312091,-258.64739001008184,-2.855541982454156
2025-02-19 13:27:01.243,766,-166,591,-2,0,-12,-6,-3,13,735,123,A,15.68898329403291,51.29140030272411,1546.3365539818337,-335.10687723366107,-11.061231596949938
2025-02-19 13:27:01.354,801,-151,578,-8,-1,-7,-6,-4,14,710,130,A,14.641048558048974,53.28383917015485,1602.6070463882065,-302.1144369595745,-0.438043461152688
2025-02-19 13:27:01.457,681,-429,680,12,18,4,-4,-5,14,106,129,A,32.24710424523023,40.2645507884004,1327.3177886866697,-836.1517347233205,34.631282956042014
2025-02-19 13:27:01.563,792,-192,588,14,11,47,-6,-4,12,0,127,A,18.08344538304866,52.010111856640485,1580.1193964676609,-383.05924762852374,2.881054137645947
2025-02-19 13:27:01.673,629,-254,633,-2,-6,-36,-4,-5,13,351,115,A,21.863806172289745,42.68246919407203,1306.9347761002937,-527.7606250071137,-49.24596704528733
2025-02-19 13:27:01.780,753,-253,587,-4,2,-5,-6,-6,14,361,130,A,23.31628915563616,49.6729853495738,1515.3632870477513,-509.1459649708912,-7.299136118233719
2025-02-19 13:27:01.889,753,-312,605,-41,-67,83,-8,-6,13,0,126,A,27.28027014291303,47.886413221381574,1494.8168391551496,-619.3663397296236,8.985142511466847
2025-02-19 13:27:01.992,797,-221,624,10,-17,26,-5,-3,14,0,131,A,19.502448506662216,50.28734346129684,1566.2584335689394,-434.30754556930447,21.71987133372852
2025-02-19 13:27:02.095,499,-378,571,-6,-24,-43,-7,-4,12,14,101,A,33.504419639376636,36.08082864971959,1087.9259683872315,-824.120272646039,-102.90125841504823
2025-02-19 13:27:02.205,803,-97,561,1,-62,6,-5,-5,13,1,127,A,9.80976564475155,54.66349402342874,1618.7692427562738,-195.5424863603469,-8.920977816027062
2025-02-19 13:27:02.316,813,-100,540,8,-2,16,-6,-7,13,351,128,A,10.4914770123316,55.9609878520784,1641.6566313124565,-201.92578490928122,-10.399238510118607
2025-02-19 13:27:02.423,693,-219,634,-14,43,39,-4,-3,11,446,62,A,19.056236554413626,45.9343513597109,1411.543399242744,-446.07215647065067,-23.368708686723835
2025-02-19 13:27:02.534,721,-219,668,24,-14,-4,-4,-1,10,513,51,A,18.151436258493387,45.724901234445305,1436.9962033422726,-436.48012279051005,4.63597249287352
2025-02-19 13:27:02.636,778,-154,635,-3,0,2,-5,-2,10,476,59,A,13.632159666251832,49.97461056758301,1543.759529963331,-305.57707919582646,9.99061500422215
2025-02-19 13:27:03.959,672,-120,544,1,-1,-5,-5,-3,13,183,76,B,12.43956201884655,50.34176914769268,1441.8650181408925,-257.4758960965879,-79.22406230453203
2025-02-19 13:27:04.049,745,-128,575,5,3,0,-6,-4,12,463,89,B,12.549907240332903,51.66642656301121,1529.4130657542514,-262.7716408275761,-30.419480280127004
2025-02-19 13:27:04.157,707,-181,624,5,-9,-9,-6,-2,13,634,94,B,16.17554684291651,47.417530572438544,1443.3041538358007,-369.5021949706928,-25.863920782941136
2025-02-19 13:27:04.271,764,-94,604,-12,12,-12,-5,-4,13,669,108,B,8.845930932015403,51.33695398673861,1544.8335069552872,-190.07113829031022,-13.308165184546397
2025-02-19 13:27:04.375,785,-229,546,-10,7,-24,-5,-6,12,585,117,B,22.753855093702818,52.97493408170194,1583.3721499057658,-461.9009201635928,-9.300883883500774
2025-02-19 13:27:04.479,866,141,574,-7,-14,37,-6,-2,13,0,118,B,-13.801136951983201,55.6855926229278,1691.9565662800946,275.48022614953044,26.54149071042218
2025-02-19 13:27:04.589,754,-144,630,-29,36,-29,-7,-2,13,394,99,B,12.875001559612478,49.40037367265643,1513.2755515498543,-289.0075323914841,-4.407954212742766
2025-02-19 13:27:04.697,778,-214,535,-2,6,-13,-5,-6,11,440,115,B,21.80140948635181,53.475123201638084,1581.5985234859209,-435.0412391079525,-17.603097769881174
2025-02-19 13:27:04.806,678,-142,703,10,-16,7,-5,-4,13,648,116,B,11.419604327113579,43.39070121087949,1364.969582692967,-285.87858516578365,-9.300319517928642
2025-02-19 13:27:04.909,913,-59,417,0,15,11,-5,-3,14,0,118,B,8.053143663683777,65.23683396521652,1821.0469457533488,-117.67992311001927,2.262238357999422
2025-02-19 13:27:05.020,663,-213,664,-25,-18,32,-5,-4,12,0,120,B,17.78536464343713,43.55448203292828,1352.044016244855,-434.3670821420122,-26.08329832063896
2025-02-19 13:27:05.126,1114,-38,652,56,40,15,-6,-2,13,231,102,B,3.3355512367323548,59.6181202942421,1976.673663699396,-67.42692928238515,147.0958449443392
2025-02-19 13:27:05.232,524,-253,704,19,-13,-18,-3,0,10,548,52,B,19.767168676791652,35.00966740618144,1097.7146421275963,-530.0034436226754,-66.79219095005328
2025-02-19 13:27:06.150,759,-133,628,-8,3,-3,-5,-2,10,419,73,C,11.95761152789663,49.77691415010498,1522.5358961890768,-266.79482765895546,-3.75302082574467
2025-02-19 13:27:06.248,725,-127,652,0,-3,-1,-5,-4,12,454,73,C,11.022356426628512,47.5037111488372,1462.3210944345155,-256.1583158526669,-11.080487684557625
2025-02-19 13:27:06.355,782,-129,625,-1,-9,-9,-5,-1,12,521,88,C,11.662084029313107,50.78282993513037,1556.7550510568453,-256.8048613635973,5.7904003701683
2025-02-19 13:27:06.461,750,-123,620,2,-7,-2,-5,-2,12,532,90,C,11.221046756445228,49.87656714539562,1514.6579029712257,-248.40389608728105,-12.117199789546703
2025-02-19 13:27:06.571,751,-146,652,-24,7,-22,-7,-3,11,587,115,C,12.621820256524325,48.341277134240386,1498.1172350033523,-291.24516153194327,3.3709224737876866
2025-02-19 13:27:06.674,815,14,592,5,-1,58,-4,-5,10,0,107,C,-1.3547152510306297,53.99846517149589,1624.0012486045202,27.89695396375863,4.357375246777906
2025-02-19 13:27:06.785,667,-251,699,29,-5,-9,-6,0,12,451,110,C,19.752421896668842,41.92623840505126,1335.173340343,-502.44154186820543,-1.2296325333689992
2025-02-19 13:27:06.888,658,-201,634,-22,7,-2,-4,-1,9,0,58,C,17.590421703458567,44.692575874281246,1361.3025947527676,-415.8386345673348,-43.6502204760709
2025-02-19 13:27:06.998,794,-153,628,4,0,-15,-3,-2,11,123,66,C,13.692257930255195,50.85210653237721,1569.5189549181173,-302.4387910610478,14.617249762496726
2025-02-19 13:27:07.816,754,-139,629,-5,-2,-3,-5,-2,12,328,82,D,12.461276092571719,49.49127478323942,1514.3070563923766,-279.1627066824143,-5.2614568578313765
2025-02-19 13:27:07.915,743,-179,635,-16,-1,-2,-5,-1,11,465,81,D,15.742600942710073,48.39652225661406,1490.7577900795443,-359.1462239895537,-4.066213594226724
2025-02-19 13:27:08.022,764,-139,604,-3,-4,-19,-7,-1,12,568,98,D,12.959971869598093,50.94963048399824,1540.5924169216728,-280.29102873313155,-9.955261545406302
2025-02-19 13:27:08.125,806,-221,592,-10,3,-11,-5,-5,15,522,117,D,20.471146923483808,51.903472585736516,1592.9724178600236,-436.782759735813,13.975593829858553
2025-02-19 13:27:08.234,930,157,566,-14,-25,40,-6,-2,12,2,118,D,-15.503224902896534,57.72423054629743,1775.4877367403337,299.7328759873466,51.43434516663581
2025-02-19 13:27:08.346,755,-250,659,-16,41,-32,-7,-4,11,398,102,D,20.774875595063218,46.968434781248156,1485.9778661637388,-492.0456510475956,20.967663838537987
2025-02-19 13:27:08.452,816,-59,602,36,-19,-10,-4,-5,11,634,112,D,5.597490906688871,53.45120804669916,1619.350029876744,-117.08535755236261,9.332453448774686
2025-02-19 13:27:08.555,611,-37,636,-22,-14,55,-4,-4,13,0,117,D,3.3294922422909803,43.803125054506424,1303.1825394412067,-78.91612759300268,-84.50424727431653
2025-02-19 13:27:08.665,1007,-159,625,31,18,1,-7,-2,13,0,110,D,14.273268657590904,57.36349462342188,1849.108954147443,-291.964571707491,102.34052001772409
2025-02-19 13:27:08.767,545,-312,676,-1,6,-5,-5,1,9,126,51,D,24.775140568831922,36.20445136486198,1135.66835936931,-650.144088299495,-56.64552464890596
2025-02-19 13:27:08.878,828,-139,627,5,-17,-11,-7,-1,12,293,75,D,12.499777591970204,52.20172524916896,1618.1734674324107,-271.649893687325,28.644004734152873
2025-02-19 13:27:09.696,762,-164,611,-2,-1,-2,-4,-1,14,262,90,E,15.024761202285438,50.29988988870226,1531.398327458487,-329.59229094907073,-5.9322546944038095
2025-02-19 13:27:09.795,763,-163,609,-3,-1,-3,-4,-3,10,270,89,E,14.984105629170852,50.43444046990712,1533.896258854118,-327.68688098718377,-6.3025185349381445
2025-02-19 13:27:09.902,749,-167,612,-1,-4,-4,-5,-1,12,268,92,E,15.26304014355937,49.73660019632605,1512.081339448183,-337.13963109191786,-11.505713941639215
2025-02-19 13:27:10.008,767,-140,609,-2,-3,-6,-5,-2,12,351,101,E,12.946509515636931,50.82985177551393,1542.2736782145312,-281.51018898309565,-6.569322076466051
2025-02-19 13:27:10.119,789,-145,594,-13,3,-24,-6,-3,11,516,115,E,13.71806311592216,52.225824739227804,1579.4311856953896,-290.26301891740366,-1.0774705995705744
2025-02-19 13:27:10.221,773,-215,584,2,5,-13,-6,-5,15,417,116,E,20.21121866176155,51.16350418451531,1551.9386776839124,-431.6517667555513,-4.48665946624169
2025-02-19 13:27:10.326,771,155,579,-16,-27,41,-5,-3,13,0,118,E,-14.98683489493649,52.13792075172554,1560.4904717103477,313.71728030493375,-13.885840622946148
2025-02-19 13:27:10.438,868,-197,634,-55,63,-31,-5,-3,11,418,92,E,17.26135475289959,52.588952387239104,1662.2974932493926,-377.2725877536064,53.83339778788593
2025-02-19 13:27:10.544,759,-57,593,42,15,-19,-5,-5,11,322,113,E,5.490483492267911,51.87190891821342,1545.6324058919363,-116.07516091678573,-21.58895480094634
2025-02-19 13:27:10.651,774,-99,652,23,-11,4,-6,-5,13,725,116,E,8.633869548167128,49.567918709628096,1535.175290197202,-196.35963014150258,10.803243916568817
2025-02-19 13:27:10.755,1022,-66,602,-13,16,-9,-4,-3,12,0,112,E,6.256609340556053,59.35026546350449,1882.2998388443357,-121.55752383926237,95.24804013278867
2025-02-19 13:27:10.868,681,-71,624,16,-29,6,-4,-5,12,629,115,E,6.491314429169647,47.317383378216334,1416.1203130572285,-147.64249959921176,-49.59041901279079
2025-02-19 13:27:10.974,945,-69,585,-4,23,13,-7,-4,12,340,110,E,6.726884049001321,58.06311133967185,1793.631287994469,-130.96355436150088,59.656821717709704
2025-02-19 13:27:11.080,723,-142,651,13,-11,2,-6,-1,12,426,95,E,12.304960775733466,47.33675440543645,1458.3494734301175,-286.4254844081282,-11.119650349939775
2025-02-19 13:27:11.190,806,-117,715,-17,8,-12,-5,-4,11,0,110,E,9.293308599397115,48.047780956336915,1549.7025784410432,-224.95682590273208,55.26384170552626
2025-02-19 13:27:11.299,710,-106,657,20,-27,14,-5,-2,14,124,117,E,9.165088864139156,46.85314887951765,1439.6033152972082,-214.92669214296347,-18.139969225726418
2025-02-19 13:27:11.405,746,-99,535,-35,57,22,-5,-2,12,221,79,E,10.483806894638048,53.895479631248776,1553.9433965493795,-206.22037031955568,-44.423213343053476
2025-02-19 13:27:12.822,746,-152,613,-2,-7,-9,-5,-2,12,603,87,F,13.926228665508717,49.74873321900807,1509.2181841183665,-307.5082627158066,-14.148454242035768
2025-02-19 13:27:12.920,800,-134,621,-1,-5,-3,-5,-4,11,585,105,F,12.17664412918092,51.546346642415884,1583.1114537867397,-265.17116850927886,13.109733998043453
2025-02-19 13:27:13.028,727,-147,616,-1,-4,-15,-4,-3,11,625,107,F,13.421835067886203,48.9405535470424,1481.0284890504277,-299.465182792865,-22.901718370100866
2025-02-19 13:27:13.135,778,-189,598,-2,4,-15,-7,-4,12,523,118,F,17.539323762266157,51.1272447994274,1556.5416641566806,-378.13158679384657,-0.4163434006361513
2025-02-19 13:27:13.237,834,99,553,-4,-12,29,-6,-3,13,0,119,F,-10.149771500878456,56.03534897865539,1663.3824122060546,197.4518690748194,3.06178183459474
2025-02-19 13:27:13.352,968,-146,583,-26,43,-29,-4,-1,13,216,106,F,14.059365250171357,58.16504486567159,1817.5710484988103,-274.1377821082916,71.32652760867137
2025-02-19 13:27:13.458,790,-58,544,-38,-9,-26,-6,-3,13,201,117,F,6.085751119517576,55.296997976234564,1612.114212388376,-118.35775230193138,-22.114090556045994
2025-02-19 13:27:13.564,689,-93,637,33,-17,15,-6,-2,13,735,119,F,8.306319046601123,46.944443831428195,1419.6920663464796,-191.6275212920503,-38.545495301462324
2025-02-19 13:27:13.670,675,-110,533,-46,44,22,-4,-3,13,274,93,F,11.660929254953988,51.1217969942812,1453.4819877613459,-236.863731338886,-81.71244366932956
2025-02-19 13:27:13.775,808,-174,626,66,-3,-10,-5,-1,11,420,112,F,15.533551724879906,51.196400777439486,1587.2986012175143,-341.81925323248447,22.236479749797127
2025-02-19 13:27:13.883,768,-32,603,-17,2,11,-5,-4,12,682,118,F,3.0377225620194643,51.8234087958445,1554.109484861267,-64.75456186921946,-14.218775223104103
2025-02-19 13:27:13.994,720,-152,627,-22,49,19,-4,-3,12,520,59,F,13.626994859891541,48.13784071484386,1464.7524505850606,-309.22551734573494,-21.55525905115678
2025-02-19 13:27:14.095,722,-144,657,13,-17,-15,-6,1,10,630,54,F,12.362492415714312,47.02888447852925,1453.6974239930337,-289.9341122645385,-8.824387206956999
2025-02-19 13:27:14.917,758,-147,608,-2,-2,-1,-6,-2,12,550,81,G,13.591926825962085,50.46980522471009,1529.2892641464703,-296.57720557985635,-10.659462534371869
2025-02-19 13:27:15.013,764,-137,607,-3,-1,-1,-5,-3,11,531,82,G,12.718561209358679,50.83761550804259,1539.3592580490854,-276.0369350166553,-9.02496025627579
2025-02-19 13:27:15.120,762,-132,608,-1,-3,-3,-6,-2,13,530,86,G,12.249123419755794,50.76876956689538,1536.5998709339701,-266.18265480745936,-10.053440325267388
2025-02-19 13:27:15.226,748,-156,616,2,-9,-7,-6,-2,12,532,93,G,14.211191869297453,49.65119595012249,1510.1171231408243,-314.9442128475516,-11.625866115973167
2025-02-19 13:27:15.333,785,-84,587,-2,-5,-1,-6,-4,12,658,118,G,8.143766980539661,52.933030074380426,1582.9315357563628,-169.3837566924006,-9.669823552846879
2025-02-19 13:27:15.443,760,-167,590,2,18,-9,-6,-4,13,131,120,G,15.804210350071616,51.10288920571235,1538.274813297427,-338.0156497640399,-14.18702611247636
2025-02-19 13:27:15.546,770,31,628,22,-14,33,-6,-1,11,0,114,G,-2.8260009552497234,50.765698420629505,1544.5659693940138,62.183824741836915,-3.723933479793004
2025-02-19 13:27:15.656,781,-314,571,-5,-2,-31,-5,-2,12,469,117,G,28.806941666905644,50.15944481157887,1548.8302477216153,-622.7051188022882,9.628589693928006
2025-02-19 13:27:15.763,927,-114,626,3,-14,12,-6,-2,14,91,118,G,10.32095436249771,55.53418140597976,1751.4639474902947,-215.39038836450226,69.24225336685595
2025-02-19 13:27:15.870,792,-227,592,42,9,-33,-4,-2,12,208,118,G,20.979118789311674,51.32126493662293,1572.6624081167342,-450.7504629324478,8.47456362991602
2025-02-19 13:27:15.975,788,-52,640,11,0,22,-4,-2,13,804,117,G,4.645078425891606,50.82481477114236,1563.218147564874,-103.15652750428103,10.381199947310279
2025-02-19 13:27:16.086,540,-304,686,-18,23,0,-5,-1,9,550,45,G,23.9004637977106,35.741528990938136,1124.1296704746144,-632.8433700449682,-56.061025825158595
2025-02-19 13:27:17.605,737,-113,626,5,-4,-8,-5,-4,11,703,77,H,10.232340599762017,49.20196946663133,1494.017515673472,-229.06917133121073,-17.002665958742796
2025-02-19 13:27:17.697,786,-74,618,-1,3,-3,-4,-4,12,723,88,H,6.828149681577104,51.62513713953807,1569.9658954818456,-147.8084939766623,1.599334086793192
2025-02-19 13:27:17.805,770,-59,628,-1,2,-5,-7,-5,14,733,88,H,5.367129887479976,50.67649368867093,1543.5802921714117,-118.2743340754718,-2.9200304982422267
2025-02-19 13:27:17.914,740,-84,629,-1,-3,-19,-5,-5,11,723,95,H,7.606576260122147,49.385389086978805,1499.1053296668915,-170.1687130973228,-16.239530216857702
2025-02-19 13:27:18.018,782,-203,554,24,15,-37,-4,-7,11,706,108,H,20.12414710752393,52.965344554132464,1580.2713551806883,-410.2238939919178,-11.527277199618084
2025-02-19 13:27:18.125,790,92,591,6,1,30,-6,-4,12,173,115,H,-8.848124899699155,52.87022693351179,1587.2703713404185,184.84667615609942,-5.438974002768759
2025-02-19 13:27:18.236,984,-179,652,-9,4,-21,-8,-4,12,389,112,H,15.351738813009971,55.50630724841385,1808.1885349023269,-328.92860543446807,105.89133662975894
2025-02-19 13:27:18.335,758,3,656,9,-19,23,-4,-5,11,773,113,H,-0.26202155529972854,49.125632948431665,1514.1463110342615,5.992663500135599,1.6042479703488652
2025-02-19 13:27:18.455,1064,-134,637,-10,-11,-32,-5,-5,13,805,111,H,11.879591534519207,58.54223706496752,1917.0251059684483,-241.42985357121435,126.30733787415261
2025-02-19 13:27:18.561,866,231,496,-10,-14,49,-6,-6,14,78,119,H,-24.97261056138013,57.7146055705243,1711.3980203437218,456.50455277066953,11.799748163410925
2025-02-19 13:27:18.667,678,-105,561,-45,65,24,-5,-4,12,635,63,H,10.601154863652113,49.909266893552285,1443.0255700544735,-223.477411291622,-72.00788318666605
2025-02-19 13:27:18.773,608,-288,677,17,-23,-26,-4,-1,10,595,41,H,23.045202214613294,39.5706568741939,1245.029300022787,-589.7507210634254,-32.32374361089933
2025-02-19 13:27:19.685,780,-87,625,0,-4,-3,-4,-4,13,665,89,I,7.924649968889912,51.026868206129805,1557.440988659173,-173.7145718119847,2.0504898564317955
2025-02-19 13:27:19.785,770,-101,625,1,-2,-4,-3,-6,11,658,92,I,9.179639533983298,50.57232679757805,1542.426915841978,-202.31833571433737,-1.9698992223844698
2025-02-19 13:27:19.896,776,-66,604,-1,-1,-6,-5,-5,10,620,97,I,6.23605558374478,51.939639117102985,1563.3617194467688,-132.9663318086169,-8.843400187948532
2025-02-19 13:27:20.002,754,-73,623,-1,-1,-13,-4,-5,12,540,107,I,6.683155343953537,50.24249381119919,1522.7580540372762,-147.42883016541268,-12.193988945919045
2025-02-19 13:27:20.113,986,120,674,68,-55,-18,-5,-5,10,700,110,I,-10.095246956098316,55.22699365176354,1807.4179971909489,219.96973596644403,112.50331632180598
2025-02-19 13:27:20.215,792,-12,637,-25,-6,1,-4,-7,13,794,111,I,1.0792276900658841,51.185561492191724,1571.1800363403363,-23.80575812636873,10.311006125260064
2025-02-19 13:27:20.326,821,-64,630,10,4,-19,-4,-6,12,633,111,I,5.800624143716974,52.35677257984022,1612.8290872949153,-125.72601898523092,22.38450061413323
2025-02-19 13:27:20.432,842,141,578,-10,-18,47,-6,-5,13,0,115,I,-13.70924297713552,54.75531850880042,1658.6951254282644,277.76248537456684,17.370804634754336
2025-02-19 13:27:20.535,666,-155,548,-19,41,9,-5,-2,9,124,89,I,15.79338140603348,49.46613328600786,1426.0219533540335,-331.8819861409537,-77.36340906608143
2025-02-19 13:27:20.649,1102,-88,589,66,-21,-22,-6,-4,11,254,108,I,8.497465177248731,61.61253762176909,1981.7526292172781,-158.25247855818554,118.78738783214459
2025-02-19 13:27:20.756,765,-22,611,-11,-2,18,-4,-3,14,504,115,I,2.0621323002958487,51.36778875590967,1546.1696086496636,-44.465008353323654,-12.91455017639771
2025-02-19 13:27:20.862,617,-191,675,-17,47,23,-4,-2,10,449,48,I,15.799548333880564,41.332935943429156,1277.4334160577414,-395.4453524587174,-47.51629795620033
2025-02-19 13:27:21.780,765,-83,631,-1,-3,-5,-5,-5,12,656,79,J,7.493508778192492,50.2415183402584,1533.747165647208,-166.40655522708272,-3.0907993769784525
2025-02-19 13:27:21.874,766,-76,616,5,0,-6,-4,-4,13,680,85,J,7.033416459694935,50.983016632977666,1542.959386891803,-153.08735431302486,-8.813292852938275
2025-02-19 13:27:21.980,804,-47,623,2,2,-4,-4,-5,11,690,90,J,4.314302107166623,52.150022401005344,1593.6200891686285,-93.1593833220467,11.14264234818961
2025-02-19 13:27:22.087,694,-56,638,8,5,-14,-5,-6,11,655,94,J,5.016240741853261,47.29785099103713,1428.889158707011,-115.29941338269828,-37.58974532431262
2025-02-19 13:27:22.201,1041,211,710,31,-53,-11,-5,-6,11,660,103,J,-16.55105943698783,54.56748968186247,1855.7989733862862,376.15137693036155,154.27735724854642
2025-02-19 13:27:22.301,783,-8,626,-16,-8,-4,-5,-7,12,764,107,J,0.7321745775638068,51.35576187867194,1564.0385415382912,-15.979959555946781,1.5681647471644737
2025-02-19 13:27:22.406,853,3,610,8,9,-16,-5,-4,10,700,103,J,-0.28178025039946714,54.430237474353326,1666.4078594080702,5.860754487953353,28.31325411615137
2025-02-19 13:27:22.517,862,241,564,-37,-22,24,-4,-3,13,0,116,J,-23.13725915245214,54.56727970838255,1676.7968487779103,468.80283127085426,30.884660428374332
2025-02-19 13:27:22.624,833,-44,567,-60,45,59,-5,-2,11,63,73,J,4.437340399384675,55.67791616760411,1658.8810301449862,-87.62396797884682,4.845685363496727
2025-02-19 13:27:22.734,638,-194,653,26,-20,-17,-5,0,10,156,55,J,16.546176570764523,43.12404245140511,1321.5801041647933,-401.8597808902349,-46.651736707852365
2025-02-19 13:27:24.045,772,-105,619,-1,-4,-5,-5,-3,10,615,79,K,9.627352800254444,50.87967061837225,1547.8225852093874,-210.5199112007586,-3.0650003168532294
2025-02-19 13:27:24.147,772,-107,621,1,-6,-6,-5,-3,10,676,89,K,9.776227590555031,50.77670011699785,1546.6874038041683,-214.3724769521322,-2.1617587595707164
2025-02-19 13:27:24.254,794,-85,612,-4,1,-3,-5,-3,12,695,93,K,7.907162702958458,52.11067510154942,1583.198522096723,-169.48598788189105,3.700887250384767
2025-02-19 13:27:24.360,749,-123,623,0,-1,-6,-6,-4,10,708,88,K,11.168374319770578,49.707663337524494,1511.7548313116386,-248.2588040738739,-11.440934455475258
2025-02-19 13:27:24.467,742,-101,627,-5,-4,-8,-6,-3,10,715,94,K,9.150854561769311,49.43956418628498,1501.7205023517013,-204.4120899427518,-14.974063307974006
2025-02-19 13:27:24.581,885,-169,570,-11,-6,-17,-4,-6,12,731,112,K,16.514628215866807,56.10755875225439,1715.0858584594757,-327.5135707114705,35.36843014474459
2025-02-19 13:27:24.683,818,229,563,-2,-18,48,-6,-4,10,0,114,K,-22.13401186416446,53.38688015704598,1620.6809279157098,453.71140891527824,10.543566727940515
2025-02-19 13:27:24.793,784,-126,543,-27,19,-16,-5,-4,12,699,91,K,13.063954127386307,54.587021361640424,1598.9965560622204,-256.9815893671426,-21.468277986971657
2025-02-19 13:27:24.901,791,23,594,-11,-13,-2,-4,-4,12,669,114,K,-2.217415716103617,53.07473899396199,1590.419862864694,46.244825342462654,-6.32288058360075
2025-02-19 13:27:25.003,879,57,448,-7,15,10,-5,-3,11,0,110,K,-7.250906351233956,62.80686249694169,1768.4711149776986,114.6790142818303,-5.336814004560949
2025-02-19 13:27:25.114,795,-36,583,23,-10,22,-2,-2,13,0,122,K,3.533503279110696,53.694154799421845,1600.8678820568748,-72.49213050823585,-7.969780175041478
2025-02-19 13:27:25.220,577,-286,636,-22,48,-1,-4,-2,9,0,51,K,24.21276015299885,39.60511595069244,1214.492786476777,-601.9842927770507,-66.67835736435029
2025-02-19 13:27:26.135,759,-90,621,-2,-1,-4,-5,-4,12,545,85,L,8.24632081446853,50.418449657680235,1529.718457985783,-181.38954047262246,-9.587829261094953
2025-02-19 13:27:26.235,763,-85,623,6,-10,-10,-5,-4,13,604,96,L,7.769270006636427,50.508802107227915,1534.7222922769033,-170.97168393648332,-7.121871675636498
2025-02-19 13:27:26.347,802,-135,606,-10,-4,-10,-6,-5,12,641,109,L,12.558836940947574,52.25534635069662,1592.7466971668389,-268.10574079491676,8.503119098373759
2025-02-19 13:27:26.449,728,17,654,-13,-12,57,-5,-5,12,0,110,L,-1.4890045303261428,48.05538905679479,1471.791341007246,34.36875384220218,-14.186177223542586
2025-02-19 13:27:26.555,957,-99,584,42,-42,2,-3,-2,13,85,112,L,9.621344224104933,58.24470726828354,1807.303612043268,-186.96244262516564,65.11043946366954
2025-02-19 13:27:26.663,858,-63,616,9,2,21,-5,-2,11,569,112,L,5.839492311517449,54.18225275844856,1668.8825907321143,-122.54033008872166,33.82788357694369
2025-02-19 13:27:26.768,604,-226,652,-7,10,-6,-4,-2,11,299,53,L,19.11763432688283,41.195295059873324,1262.6276720713481,-472.44015544391505,-58.968944024038024
2025-02-19 13:27:27.687,759,-80,621,-2,-2,-5,-5,-5,9,641,93,M,7.340669017300713,50.47931030525078,1530.3948431435215,-161.30643933001542,-10.141235299244727
2025-02-19 13:27:27.784,795,-51,606,-11,1,-3,-6,-3,13,479,101,M,4.810586194365647,52.5855002058227,1589.260887011279,-101.95258520449714,0.5633993347985324
2025-02-19 13:27:27.891,876,-71,612,1,1,-7,-5,-6,11,564,109,M,6.61747691698757,54.88067152175591,1693.9556953921578,-137.29549585941007,40.551500479451306
2025-02-19 13:27:28.000,778,-138,597,-2,2,-15,-5,-7,11,508,109,M,13.015642765105898,51.77651360170843,1563.6033322938392,-277.34866305469126,-5.8344336496426195
2025-02-19 13:27:28.100,838,102,527,11,3,28,-3,-4,14,0,115,M,-10.954062643398334,57.3584399251687,1680.06137256063,204.49434367683085,-2.5541089969593713
2025-02-19 13:27:28.219,736,-207,624,13,-3,-33,-4,-5,12,683,109,M,18.352270987792103,48.22690929554507,1481.7889582990592,-416.75314452161047,-8.299334210072061
2025-02-19 13:27:28.325,797,-61,643,-9,-46,71,-4,-7,11,303,112,M,5.4193060578161125,50.978770099073785,1573.9127249775656,-120.46257995436827,16.20591949739685
2025-02-19 13:27:28.431,748,-79,535,55,9,-45,-5,-4,14,771,113,M,8.399798069206005,54.133208726921346,1558.3813667357897,-164.58840637984946,-44.61768877492966
2025-02-19 13:27:28.538,836,174,600,-18,-16,71,-5,-4,10,8,112,M,-16.17215901578255,53.230208082678814,1637.0470831570824,340.72511060924916,25.08582548534764
2025-02-19 13:27:28.645,802,-104,501,-46,78,21,-5,0,10,420,65,M,11.727180678900794,57.4618926793419,1645.0339022895446,-213.32110453630006,-25.633397814291584
2025-02-19 13:27:28.755,670,-168,654,19,-34,-26,-4,-1,11,366,50,M,14.40668515643687,44.77710625225055,1374.350629636318,-344.61329220731557,-33.530316092764
2025-02-19 13:27:29.565,774,-81,604,-2,0,-4,-4,-4,12,651,81,N,7.638133975787736,51.78495574712364,1559.694489515009,-163.2238419259893,-9.125932386389422
2025-02-19 13:27:29.664,773,-61,610,3,-1,-3,-5,-3,14,712,84,N,5.710593137499642,51.583152839944034,1556.5107821426618,-122.82944076416868,-8.294407641686803
2025-02-19 13:27:29.772,776,-66,605,-1,2,-3,-6,-4,11,728,86,N,6.225829064425768,51.894164794477646,1562.872176757038,-132.92469544583057,-8.476374920113471
2025-02-19 13:27:29.877,773,-52,613,-1,2,-5,-4,-3,11,739,92,N,4.848719054580792,51.48503876024823,1555.445577349746,-104.63540753193632,-7.490477251480343
2025-02-19 13:27:29.988,848,-76,712,-18,4,-19,-6,-4,10,743,106,N,6.092771657336066,49.82250931665512,1612.0495452825994,-144.47613849230845,70.48670254574199
2025-02-19 13:27:30.095,679,3,706,-17,-18,66,-4,-4,11,264,107,N,-0.243465019816317,43.88292558778527,1372.1870698638004,6.062682193801769,-14.751209608016325
2025-02-19 13:27:30.201,757,0,578,47,18,-57,-5,-1,12,560,109,N,0.0,52.636807747610774,1551.8046447735296,0.0,-28.865369457199563
2025-02-19 13:27:30.312,770,-69,723,-11,-2,-18,-5,-5,11,758,104,N,5.451551098712735,46.67345708170049,1497.4549664608548,-134.1875229685701,39.94812889454818
2025-02-19 13:27:30.416,936,-136,673,17,-30,47,-5,-7,10,714,102,N,11.424491149295193,53.73804412602127,1742.3211985015437,-253.1577809788568,93.24127500903955
2025-02-19 13:27:30.525,751,49,608,19,-12,15,-4,-1,15,71,118,N,-4.607629061974702,50.916077510189325,1527.223347604414,99.64573106873007,-20.420499791589464
2025-02-19 13:27:30.633,752,-262,612,-3,5,-52,-5,-5,12,782,113,N,23.175988629411066,48.4824706200051,1500.752960186527,-522.8687175117952,2.6425377205393943
2025-02-19 13:27:30.738,771,82,570,-54,50,52,-6,-5,12,685,73,N,-8.186385027126432,53.243558114812075,1572.1865367316345,167.21050066406485,-22.3168948599631
2025-02-19 13:27:30.848,780,-100,634,21,-24,-18,-4,-3,11,644,72,N,8.963344940020015,50.550087446375116,1552.180342237502,-198.9974797740387,6.355978232594566
2025-02-19 13:27:31.665,784,-38,593,2,-6,-2,-4,-5,12,705,101,O,3.666554402540639,52.84045843755419,1580.9566467582076,-76.62800073572947,-9.800116744409706
2025-02-19 13:27:31.761,792,-29,584,-1,-2,-1,-6,-5,12,712,110,O,2.842831982526735,53.56220397169934,1596.5021645045488,-58.4577812760504,-9.218767765980374
2025-02-19 13:27:31.865,779,-24,617,-3,3,-10,-3,-5,10,686,111,O,2.227562087522824,51.598247044236004,1562.674453036063,-48.14401395746535,-3.7023588231716076
2025-02-19 13:27:31.975,755,-154,576,8,23,-7,-3,-6,11,440,109,O,14.968557911599866,51.701475664626216,1539.7923328096736,-314.0768466923043,-22.728985030956437
2025-02-19 13:27:32.085,786,157,567,5,-37,36,-4,-3,11,137,109,O,-15.477194255751238,53.184494706534736,1586.5692348089547,316.9101397773612,-10.509867858368011
2025-02-19 13:27:32.191,747,-258,640,-18,14,-47,-3,-5,12,738,110,O,21.955595818980537,47.26958256557421,1481.5544672269807,-511.70154289767197,10.662839323604317
2025-02-19 13:27:32.298,591,-106,653,-49,37,47,-4,-1,9,502,53,O,9.220268913525643,41.77632662022986,1257.224398766967,-225.4920241443291,-83.11596005893284
2025-02-19 13:27:32.405,807,-37,638,22,-31,-19,-5,-2,12,622,63,O,3.319078333367746,51.623918344371916,1590.9526895711476,-72.94330794811953,18.2207980837768
2025-02-19 13:27:33.315,769,-39,621,0,0,-1,-5,-4,10,568,87,P,3.593566187865195,51.022528602161884,1546.393349072906,-78.42567049914607,-6.7779841017874105
2025-02-19 13:27:33.416,766,-34,612,0,-3,-2,-5,-4,10,570,90,P,3.179830119864234,51.333637573022685,1546.797344282851,-68.65680118226754,-11.822421280815774
2025-02-19 13:27:33.517,832,8,620,0,1,-5,-5,-5,11,576,107,P,-0.7392593554078476,53.304519154055875,1633.8227789059024,15.709834412556754,22.487833026851717
2025-02-19 13:27:33.633,774,-13,608,-4,3,-7,-6,-4,11,592,107,P,1.2248875943571655,51.84295158371852,1560.32026004107,-26.206929432214345,-9.677930368178863
2025-02-19 13:27:33.735,685,-164,571,-3,8,30,-7,-6,11,370,106,P,16.024881324400546,49.06564021913142,1440.4606909035688,-344.8694208878617,-58.73438614005522
2025-02-19 13:27:33.846,813,-4,586,30,-1,36,-4,-3,13,2,112,P,0.39109139705703094,54.215785936431836,1624.2249537336245,-7.991266685036283,1.2794306421845931
2025-02-19 13:27:33.957,723,-89,570,23,-18,-79,-5,-3,11,640,100,P,8.874526340320164,51.41243728057832,1504.6558804825547,-185.22043342039743,-46.243225276702674
2025-02-19 13:27:34.063,701,14,719,-1,-11,-9,-4,-4,12,748,102,P,-1.1154931320949122,44.26832639054041,1399.0195375135881,27.940475784864812,3.0569936201570727
2025-02-19 13:27:34.170,1033,-17,485,9,26,9,-5,-5,11,460,106,P,2.0074838040075127,64.83611435087874,1938.0952474950145,-31.89508151734293,60.05208612286333
2025-02-19 13:27:34.275,519,-182,755,-17,9,10,-6,-1,8,519,41,P,13.553123735397223,33.75380690349327,1074.6254771289005,-376.84361625714814,-53.27983667113642
2025-02-19 13:27:34.386,824,-50,624,10,-19,-13,-3,-3,10,609,57,P,4.581220085277059,52.77574565384023,1620.2739088553772,-98.31759155675832,20.996457371656334
2025-02-19 13:27:35.595,773,-76,623,0,-4,-2,-4,-3,11,634,82,Q,6.95516769767994,50.92596938455526,1549.3321819502025,-152.32761426677285,-2.685574844730013
2025-02-19 13:27:35.699,810,-55,609,4,-11,-5,-3,-4,12,648,99,Q,5.160495965588375,52.950415317214826,1608.1143907114413,-109.19295245571516,8.9362173539904
2025-02-19 13:27:35.809,773,-59,614,11,-6,-2,-5,-4,13,690,106,Q,5.4887683532085285,51.411302238408624,1554.6435244962474,-118.65972567306417,-6.865619716294873
2025-02-19 13:27:35.915,764,-31,626,-2,0,-7,-7,-4,11,729,109,Q,2.835015006137982,50.63537540037974,1537.1253197309827,-62.37026820897967,-7.477028994234615
2025-02-19 13:27:36.015,818,-206,583,35,32,7,-4,-5,13,386,105,Q,19.460594898887173,52.91444800793798,1615.7360115940392,-406.89684399556484,14.442426944590807
2025-02-19 13:27:36.131,605,-103,696,13,-11,-49,-4,-1,12,705,110,Q,8.418018420713071,40.69183677531725,1256.9903819102537,-214.00001543265472,-54.058356709977716
2025-02-19 13:27:36.238,1023,-36,612,-24,36,52,-5,-3,11,632,94,Q,3.3664606634298013,59.066814079197904,1880.7673168764832,-66.18536012468563,98.84887788034439
2025-02-19 13:27:36.345,1160,-2,701,5,23,-16,-4,-5,10,436,108,Q,0.1634682569228362,58.85489391820951,2015.8601786242907,-3.475620997628088,183.79484033135532
2025-02-19 13:27:36.448,795,-6,599,-1,-29,52,-4,-4,13,335,113,Q,0.5738951257459131,53.00208793316114,1593.6574404437588,-12.02760332410384,-2.7557318563666513
2025-02-19 13:27:36.556,660,-242,610,-35,55,2,-4,0,12,341,49,Q,21.639282642570233,45.163237476143784,1369.1184781151587,-502.01010864222485,-45.397381288252745
2025-02-19 13:27:36.668,771,-119,654,16,-25,-18,-5,-2,11,438,53,Q,10.312555803960773,49.23285137709777,1528.3695795060496,-235.89621266046674,11.561990924829729
2025-02-19 13:27:37.475,768,-70,624,-2,1,-6,-3,-4,10,616,78,R,6.40065156818942,50.73069215531661,1542.1793876195743,-140.56322543407578,-5.020752440903834
2025-02-19 13:27:37.578,777,-50,620,0,1,-3,-5,-4,10,646,82,R,4.61064931866061,51.321632954436865,1557.666422250098,-100.23593450772832,-2.925587895831086
2025-02-19 13:27:37.684,792,-52,622,1,-1,-4,-4,-4,12,668,90,R,4.778888039358625,51.75859432837264,1577.4097857214688,-103.56730916353078,5.175648082382054
2025-02-19 13:27:37.795,766,-43,622,4,-6,-12,-5,-4,12,701,104,R,3.954670191571739,50.856184972048354,1541.5638920051128,-86.53687644415126,-7.765980192141228
2025-02-19 13:27:37.901,771,-16,611,3,2,-3,-5,-5,11,659,106,R,1.5000376638458126,51.594414506196536,1554.632900850937,-32.26216136655641,-10.011287185372794
2025-02-19 13:27:38.012,789,49,684,-11,-18,82,-3,-6,10,122,107,R,-4.097522396325724,49.004730754525276,1543.7637466351375,95.87379415097811,29.6800979741015
2025-02-19 13:27:38.119,744,-34,583,39,34,-62,-6,-3,11,587,108,R,3.3376543413154334,51.87044108106136,1530.6165881617035,-69.94753225470149,-33.3944501320874
2025-02-19 13:27:38.220,806,-8,681,-5,-32,-3,-4,-5,11,772,99,R,0.6730472139206741,49.80314448697751,1569.8314512679303,-15.581453610599807,35.62876139769162
2025-02-19 13:27:38.327,818,11,533,4,11,19,-5,-2,11,425,109,R,-1.1822966561007606,56.906586988926506,1655.7814935021324,22.266010303818412,-12.88940835774656
2025-02-19 13:27:38.435,704,-3,664,-42,-47,41,-4,-2,12,223,108,R,0.2588647123134489,46.67454609860716,1431.4680080380804,-6.100005716071365,-22.13459849046228
2025-02-19 13:27:38.545,711,-52,536,-24,98,17,-3,0,11,439,61,R,5.541204778039854,52.859451807674105,1508.1568391621981,-110.30120342677115,-64.95086609133352
2025-02-19 13:27:38.652,709,-150,679,26,-35,-29,-3,0,9,323,51,R,12.457310907062757,45.556015822326174,1422.9353595002644,-301.0441522214946,-4.726529055965557
2025-02-19 13:27:39.765,774,-100,626,-2,-6,-5,-3,-3,13,642,82,S,9.075997599120928,50.681154508465305,1547.6318388462196,-199.9524339594599,0.2977634137811265
2025-02-19 13:27:39.867,764,-74,608,-4,-5,-4,-2,-3,10,657,89,S,6.939368462298645,51.28139983432491,1544.2273911108525,-149.57176301335483,-12.913944758374782
2025-02-19 13:27:39.965,790,-86,598,-1,-5,-2,-5,-3,12,669,98,S,8.183750072104578,52.59305759102979,1584.3410202522361,-172.47256676163585,-3.285987482072528
2025-02-19 13:27:40.080,769,-75,589,1,-7,-5,-3,-4,13,696,106,S,7.256675522776524,52.3277588296021,1560.5197145349573,-152.19633106647825,-17.248519975409295
2025-02-19 13:27:40.186,768,-40,602,-5,3,-7,-5,-3,12,687,112,S,3.8014407045032668,51.84743862734659,1554.3686413206624,-80.95670006878449,-14.398336035206398
2025-02-19 13:27:40.297,821,-105,571,15,10,-12,-3,-4,14,512,113,S,10.419596759597908,54.733787189801134,1637.4782094732768,-209.4216954868381,3.1448750191947283
2025-02-19 13:27:40.404,717,-19,655,22,-11,23,-3,-5,12,495,108,S,1.6615490499348482,47.575408761304764,1455.1658633272818,-38.560880618156695,-19.335621310138777
2025-02-19 13:27:40.511,739,-65,562,-5,39,6,-6,-1,12,131,113,S,6.597422679928284,52.56389522302407,1533.0317266301188,-134.84040897287917,-41.85092065781703
2025-02-19 13:27:40.615,598,-180,671,-36,51,23,-3,0,9,0,43,S,15.01641780861189,40.72100980902296,1250.3763605225247,-376.3674663780174,-61.014277442498496
2025-02-19 13:27:40.725,637,-179,693,26,-44,-33,-2,-1,8,306,45,S,14.482795906438088,41.66852482352717,1301.8200920009729,-365.81757687311483,-30.265814374684737
2025-02-19 13:27:42.039,741,-81,624,-2,-4,-5,-4,-3,13,734,85,T,7.396076559712661,49.663070568490085,1503.2512893112141,-164.32301543078052,-17.895822577864692
2025-02-19 13:27:42.136,776,-58,623,3,-2,-1,-4,-4,12,768,93,T,5.31878650332682,51.12053417889047,1554.4681536130083,-116.18447539891042,-1.9815202331241153
2025-02-19 13:27:42.239,739,-84,642,2,7,-4,-5,-3,12,768,94,T,7.454298812748468,48.776902476246384,1491.1493117063324,-169.49464436174821,-11.423353336218383
2025-02-19 13:27:42.354,718,-84,645,-8,5,-8,-4,-7,11,712,96,T,7.420014895261208,47.8261059641267,1459.1105788092352,-170.70374459606649,-20.76089600551063
2025-02-19 13:27:42.463,1132,-78,647,56,-17,-8,-4,-5,10,633,104,T,6.874198969575844,60.07125697745568,1998.64656831398,-137.7159296188078,151.66401970040198
2025-02-19 13:27:42.566,765,-33,625,-9,-7,1,-4,-6,11,782,111,T,3.0224105775750663,50.71232030986774,1538.976387706431,-66.38721672459113,-7.333650086953185
2025-02-19 13:27:42.675,547,-166,629,-13,20,-9,-6,-5,10,666,81,T,14.783908813341593,40.058639183776606,1190.5712786629774,-361.30682314086704,-111.04814310605639
2025-02-19 13:27:42.783,750,-125,660,-11,7,1,-4,-5,11,575,107,T,10.724448537471181,48.15098332685764,1494.9055068669081,-249.15091781115132,4.483153957120976
2025-02-19 13:27:42.885,804,8,593,11,10,36,-5,-2,13,0,114,T,-0.7729147245201524,53.58642713700743,1608.753199091572,16.0074945183241,-0.555531170773861
2025-02-19 13:27:42.997,671,-191,667,-20,38,12,-3,-1,12,144,54,T,15.979426254976943,44.042576579706385,1366.1927210994136,-388.8864526527392,-24.0485021956913
2025-02-19 13:27:43.107,790,-133,650,11,-18,-15,-4,-3,9,250,57,T,11.563976535696911,49.97537937921382,1555.768159561785,-261.9204623059714,19.937590233974447
2025-02-19 13:27:45.425,763,-135,621,-1,-1,-1,-5,-1,14,416,79,U,12.264773727892402,50.20900385414478,1531.3841053617307,-270.952626767803,-4.382083131893751
2025-02-19 13:27:45.516,771,-123,620,-1,0,0,-4,-2,10,417,78,U,11.221046756445228,50.65433268840475,1544.3351309525096,-246.37253061888282,-1.8777966155067816
2025-02-19 13:27:45.626,765,-134,615,-1,0,-1,-5,-1,12,401,78,U,12.291845643298759,50.55302790225366,1537.2129505291277,-269.2634449292852,-5.7986465038087545
2025-02-19 13:27:45.729,767,-138,621,-1,0,0,-3,-2,13,387,77,U,12.528807709151511,50.32774234200726,1536.708753161569,-276.48736367183375,-2.1931365232518374
2025-02-19 13:27:45.839,762,-135,616,-1,0,-1,-4,-4,10,400,76,U,12.361276667549644,50.389363214877946,1532.3948936968468,-271.4872843163705,-6.7864232509942894
2025-02-19 13:27:45.949,765,-140,626,-3,-1,-1,-5,-2,13,413,75,U,12.606312943599143,50.019663517059165,1531.2649982838939,-280.2315029539152,-1.0351489225066643
2025-02-19 13:27:46.053,768,-109,620,-6,0,-5,-4,0,12,412,76,U,9.971072614442232,50.659466590474935,1541.3919362356592,-218.76526178344645,-4.352865190245893
2025-02-19 13:27:46.162,772,-133,616,1,-1,-2,-5,-1,10,500,77,U,12.183656585987386,50.77475646067111,1546.6659522117084,-266.45928969450415,-2.1272364798088574
2025-02-19 13:27:46.269,731,-152,629,0,-1,-4,-5,-3,11,587,77,U,13.585274006563177,48.48369605983488,1479.7671370063972,-307.6943978453794,-15.288001610155675
2025-02-19 13:27:46.375,704,-161,644,0,-3,-10,-5,-4,13,610,81,U,14.036243467926477,46.68259145967673,1431.564347524901,-327.38900561293894,-21.556022451756007
2025-02-19 13:27:46.486,798,-94,591,2,-10,-9,-5,-3,10,604,103,U,9.037333835555023,53.13337534205951,1598.0342733438786,-188.23962618336415,-1.506585897534137
2025-02-19 13:27:46.593,775,-108,607,-3,5,-4,-5,-4,12,595,105,U,10.0887311049884,51.496820864205105,1557.5736145596738,-217.05541983541255,-5.931850371253859
2025-02-19 13:27:46.699,787,-99,604,-7,6,-8,-7,-4,12,604,106,U,9.308425775781625,52.12735134941827,1576.377236917108,-198.29904250926768,-1.824461369673486
2025-02-19 13:27:46.805,753,-126,593,-6,6,-15,-5,-5,12,343,111,U,11.99574373171638,51.16254620841602,1531.9281925635123,-256.33858202257977,-20.41888205864916
2025-02-19 13:27:46.912,868,181,608,29,-25,41,-4,-4,13,0,114,U,-16.578129977849986,53.839143623780814,1675.3636167929499,349.35577723447454,42.47341127867128
2025-02-19 13:27:47.015,796,-157,607,-9,12,-50,-5,-4,12,781,116,U,14.50169217267859,51.774002544942,1581.5762149285865,-311.9440524419449,7.948790877321471
2025-02-19 13:27:47.128,780,144,593,-29,-27,74,-6,-4,11,0,115,U,-13.64911571377553,51.96212519879256,1567.603604614144,289.40374239030353,-5.780689148958231
2025-02-19 13:27:47.236,833,-73,538,-37,64,26,-4,-3,12,434,75,U,7.727143109357165,56.90462710311999,1670.7628160914383,-146.41738964546815,-3.0761045104363802
2025-02-19 13:27:48.345,784,-105,605,-1,0,-1,-3,-3,11,495,90,V,9.84582236785257,51.93126555820486,1571.2716131944933,-210.4381624814053,-2.52465048809745
2025-02-19 13:27:48.448,787,-102,605,0,0,-1,-3,-3,13,512,90,V,9.569790050001027,52.060342532859,1575.658716278685,-204.21497974641153,-1.2751249664605666
2025-02-19 13:27:48.554,766,-118,605,1,0,-1,-5,-2,11,531,92,V,11.036489849872233,51.1763740804148,1545.079518547133,-238.01486055948004,-10.330429139706894
2025-02-19 13:27:48.661,798,-77,603,0,4,-5,-5,-3,11,474,100,V,7.27699418746569,52.70075961651089,1593.481514863554,-153.75698827630788,1.9030658361865562
2025-02-19 13:27:48.771,833,-119,573,11,7,-20,-6,-3,12,392,109,V,11.73234678746239,54.90993468404604,1651.2494069806894,-235.89277242581275,10.146566386632685
2025-02-19 13:27:48.879,799,-264,593,43,11,-10,-5,-4,9,471,104,V,23.998338042018414,50.90944864140663,1575.150401199517,-520.4501951397654,16.95846318984536
2025-02-19 13:27:48.978,881,66,662,24,-23,20,-5,-3,13,0,116,V,-5.693454107345849,52.94193946266108,1679.0252523285087,125.78395760917319,62.34878882920236
2025-02-19 13:27:49.095,779,-178,602,-15,-1,-25,-6,-4,13,738,114,V,16.471950603724835,51.136077680304254,1557.638406420831,-355.9173765634248,0.27943431920380135
2025-02-19 13:27:49.201,625,-150,608,-39,52,43,-4,-2,9,570,61,V,13.858720319454843,44.94367686472523,1331.4113366004945,-319.5387207841187,-79.19694824496116
2025-02-19 13:27:50.215,762,-91,625,2,0,-2,-5,-2,13,523,78,W,8.284053921444,50.34607921603709,1531.9130249909645,-182.94499379813357,-6.490342020148091
2025-02-19 13:27:50.311,770,-82,626,2,2,-1,-3,-5,11,531,79,W,7.462708585110368,50.650571556265,1543.2935110688697,-164.35073754239914,-2.677581726120252
2025-02-19 13:27:50.424,761,-84,623,2,-1,-1,-6,-1,11,565,81,W,7.678963807368697,50.440992498327404,1531.9690931180753,-169.10039924036573,-8.16129436604615
2025-02-19 13:27:50.525,743,-64,636,7,5,-9,-3,-1,11,593,88,W,5.74626920979624,49.29418564257554,1501.0681575561193,-129.2979301259645,-12.898180626772387
2025-02-19 13:27:50.635,812,-20,587,-2,8,-16,-5,-6,9,295,104,W,1.951401156687373,54.12081066440492,1622.254566017657,-39.957009015213224,1.2617854034917855
2025-02-19 13:27:50.745,814,-170,700,-12,-47,88,-6,-5,10,494,104,W,13.65041913475699,48.49286331268907,1562.873179893232,-326.39857565337763,56.00586495668017
2025-02-19 13:27:50.845,861,14,588,12,-24,-4,-3,-2,12,50,114,W,-1.3639275316029187,55.66222112376802,1686.72654515246,27.426447888657883,24.089188676368963
2025-02-19 13:27:50.959,792,-97,602,14,-2,-31,-3,-4,11,526,106,W,9.153369799305421,52.407148439165354,1584.3657612176871,-194.04479651277228,-0.27801547101978485
2025-02-19 13:27:51.065,908,-1,552,-3,-28,-5,-3,-2,13,76,115,W,0.1037965884674599,58.7033055353188,1762.4888010540894,-1.9410669615133145,32.53103724465052
2025-02-19 13:27:51.172,813,-50,600,6,3,-3,-4,-3,13,753,112,W,4.763641690726178,53.4776294312997,1616.6245566956932,-99.42340447082987,6.9191463500417285
2025-02-19 13:27:51.282,695,-96,619,-44,51,35,-6,-2,11,534,55,W,8.815704380989187,47.97182018637559,1437.8156367473164,-198.60474982408977,-42.58687646991211
2025-02-19 13:27:52.298,775,-59,604,1,-2,-2,-5,-3,11,591,80,X,5.579073297472364,51.93677450845413,1562.3308958379932,-118.93873916702142,-9.610143336964938
2025-02-19 13:27:52.392,789,-59,606,-1,-2,-1,-4,-4,10,623,83,X,5.560776111364697,52.34290232147805,1580.6812144675373,-118.20049639237604,-2.0593358267775557
2025-02-19 13:27:52.499,804,-43,599,3,-7,-6,-5,-3,12,655,91,X,4.106009155260357,53.24239927642787,1605.1744333044737,-85.84888138319944,2.1051174758960087
2025-02-19 13:27:52.610,795,-29,584,-3,-1,-3,-4,-5,11,678,97,X,2.842831982526735,53.6656542623806,1600.5732574167223,-58.38569115105024,-7.767021800460043
2025-02-19 13:27:52.715,780,-21,590,-9,-3,-11,-6,-4,12,685,113,X,2.0384807603056583,52.87831285048379,1577.3555501341316,-42.46726481130354,-13.127916127099638
2025-02-19 13:27:52.815,975,187,443,-11,5,28,-4,-3,13,0,111,X,-22.885672928440545,63.74836743425652,1871.8601387505869,359.01317532959973,35.503547213835986
2025-02-19 13:27:52.932,747,-6,623,-24,54,-49,-4,-3,10,435,88,X,0.5517882006375755,50.17049628498096,1514.9538056007739,-12.168303659443964,-17.47552997226512
2025-02-19 13:27:53.040,767,-199,479,36,20,-26,-4,-5,10,677,102,X,22.560385441512697,55.93102349524369,1595.363778010134,-413.92098021384186,-38.32235940919725
2025-02-19 13:27:53.146,806,16,567,26,-6,27,-5,-4,15,311,114,X,-1.6163831722252224,54.86388056336367,1623.7870697898577,32.23398649706914,-8.29189648988745
2025-02-19 13:27:53.254,639,-211,667,-37,49,12,-6,-1,10,337,48,X,17.554341630260346,42.408801434978415,1313.4158167203582,-433.69442461345153,-36.96768349370711
2025-02-19 13:27:53.363,779,-103,632,19,-28,-21,-5,-1,9,385,54,X,9.256381910509225,50.57978688016749,1551.5096016985767,-205.14183437092865,5.265637646340679
2025-02-19 13:27:54.580,768,-71,619,0,-2,-2,-5,-4,10,586,83,Y,6.543295395409214,50.94847169482796,1544.579675142736,-142.79317309262274,-6.915128793429176
2025-02-19 13:27:54.674,774,-74,612,-2,-1,-1,-4,-4,9,606,86,Y,6.89445107631267,51.46419003411451,1556.2189312492274,-148.7857892925618,-6.498689824970484
2025-02-19 13:27:54.777,746,-45,619,1,2,-1,-5,-3,11,605,91,Y,4.15796820227373,50.241288961409744,1514.7446052450082,-91.37199361397502,-18.87253437890081
2025-02-19 13:27:54.891,701,-45,616,-3,-7,-31,-7,-5,9,467,106,Y,4.178146508414096,48.61716546655097,1451.309160970591,-93.16535270139315,-43.33016142351494
2025-02-19 13:27:54.997,767,-48,765,-50,-55,66,-6,-5,10,306,108,Y,3.5903226021396164,45.018516809345485,1474.335266523266,-92.26609229871809,59.50915398918073
2025-02-19 13:27:55.096,897,-47,518,-23,64,-5,-5,-4,13,689,84,Y,5.184455752132643,59.89258262266561,1762.0864889155603,-92.32783163771609,18.429430035384257
2025-02-19 13:27:55.211,806,-8,562,-8,-3,0,-4,-4,12,734,112,Y,0.8155432028971262,55.11035121739868,1626.2552279786396,-16.141491096562177,-9.939749533493
2025-02-19 13:27:55.310,904,2,447,-33,10,7,-5,-4,12,0,116,Y,-0.25635524465628384,63.688802571154056,1800.3998229744784,3.9831854490585807,3.7580521354071834
2025-02-19 13:27:55.427,720,-40,616,-22,-27,57,-4,-1,14,0,119,Y,3.7152891054287682,49.39161957040932,1479.1761130137434,-82.17645072298575,-33.51734113398038
2025-02-19 13:27:55.534,837,-146,511,-12,72,14,-5,-1,12,44,73,Y,15.945395900922856,57.58674446730647,1681.2039379370062,-293.2566008826798,-4.398103089379106
2025-02-19 13:27:56.945,780,-87,609,1,-2,-2,-5,-3,13,577,94,Z,8.13010235415598,51.737295869734886,1565.1796405558773,-174.57772913892475,-4.044103972473181
2025-02-19 13:27:57.045,766,-88,612,3,-3,-1,-5,-3,11,600,98,Z,8.182522997821403,51.090472024913744,1544.1387109402965,-177.394525538833,-9.698291247338716
2025-02-19 13:27:57.145,776,-85,607,3,-1,0,-5,-3,12,658,102,Z,7.971461930255861,51.69660627257877,1560.7396585799797,-170.95730796301325,-6.8363051005770785
2025-02-19 13:27:57.260,748,-92,629,1,16,-7,-6,-3,12,647,103,Z,8.321300018790756,49.64024264260498,1509.9933374385432,-185.72110567425932,-11.767124664229527
2025-02-19 13:27:57.369,813,-246,486,55,11,-14,-6,-5,11,13,104,Z,26.84729411334885,56.177780130297734,1643.7686698521106,-497.3764978888305,-10.62186168281147
2025-02-19 13:27:57.476,733,-34,703,21,-15,1,-3,-4,12,807,105,Z,2.7689043208336144,46.163375441941305,1454.3176495183661,-67.45811744014247,11.2042188111717
2025-02-19 13:27:57.582,973,-41,509,6,16,-6,-3,-4,12,0,108,Z,4.605237759990833,62.308670485875645,1858.4639594779787,-78.31143097491997,45.79223496989596
2025-02-19 13:27:57.692,750,-122,608,23,-33,1,-3,-3,11,300,110,Z,11.34617268393312,50.4151797149781,1520.68209229813,-247.36428701382914,-16.76628282301749
2025-02-19 13:27:57.799,1123,33,512,-16,47,24,-4,-2,12,331,98,Z,-3.6877910699349057,65.44587246759866,2032.5691026579389,59.72821049662687,97.30776441597095
2025-02-19 13:27:57.902,622,-196,653,0,-8,-8,-2,0,10,180,51,Z,16.707293655057985,42.374721407692434,1295.9765194095025,-408.3784530615153,-54.56698902637493
2025-02-19 13:27:59.321,770,-98,609,-2,-1,0,-5,-2,12,400,79,a,9.141640223524895,51.302341478359516,1550.4559581698632,-197.33075831252802,-8.26971237070984
2025-02-19 13:27:59.415,777,-101,600,2,-3,-3,-5,-2,13,432,83,a,9.555209096948971,51.93674973525732,1564.3306292661823,-203.34284884927206,-7.977319896665563
2025-02-19 13:27:59.523,815,-71,604,0,0,-1,-4,-2,9,441,92,a,6.70433289043351,53.269442807340724,1616.4568026246793,-140.82016317343835,10.036921735820329
2025-02-19 13:27:59.634,772,-84,596,1,-6,-1,-6,-2,12,461,95,a,8.022403647327495,52.058213596299815,1560.6358704798072,-169.81012062215518,-12.84323679529166
2025-02-19 13:27:59.743,751,-94,622,-12,16,-25,-3,-2,12,368,114,a,8.593817063287622,50.04932902589629,1517.5975696500495,-189.95229233968666,-12.918359949841488
2025-02-19 13:27:59.847,969,-59,585,18,-1,64,-5,-3,10,0,106,a,5.759074916005758,58.75155355831438,1823.9259367439377,-111.05431400195287,68.86824252300971
2025-02-19 13:27:59.957,717,-54,578,35,0,-37,-4,-1,12,530,110,a,5.337399988442696,51.0047368274653,1494.1979867538794,-112.53373958815828,-48.5278052213979
2025-02-19 13:28:00.063,798,66,624,-37,-33,70,-2,-3,12,0,109,a,-6.037682521422889,51.82144086130981,1584.0882549928742,131.01481808211742,9.314447223617208
2025-02-19 13:28:00.171,728,-89,577,-17,77,19,-4,1,10,463,52,a,8.768546339882247,51.27193867933808,1508.1240933830136,-184.37231361413217,-41.31263994780056
2025-02-19 13:28:00.275,624,-209,685,13,-29,-23,-3,1,10,328,41,a,16.967445068028756,41.06550555537157,1280.921450152492,-429.02657545171616,-36.13973293983531
2025-02-19 13:28:01.195,774,-99,627,-1,0,-5,-4,-2,10,490,75,b,8.972626614896393,50.644366867483406,1547.2248440274025,-197.90085214303986,0.6279364274141699
2025-02-19 13:28:01.292,780,-77,624,10,-6,-3,-5,-1,11,536,85,b,7.0345910469601804,51.12883231395999,1558.5590527980773,-153.85775264801532,1.1527577615382825
2025-02-19 13:28:01.395,752,-37,617,4,6,-13,-5,-3,9,579,89,b,3.4317797833512307,50.58141381163804,1524.527632497079,-75.01000319467009,-16.84248570571492
2025-02-19 13:28:01.508,771,-151,561,-9,10,-16,-5,-5,9,583,107,b,15.064825449050797,53.00112508972376,1569.6473274460925,-307.41471652964975,-20.116926974394005
2025-02-19 13:28:01.608,812,123,570,17,0,22,-5,0,12,2,114,b,-12.177108122730788,54.31680850354389,1624.2546817703621,246.03857864255485,-0.17877907525428327
2025-02-19 13:28:01.715,879,-117,650,1,-33,-4,-5,-4,10,630,104,b,10.203973721731684,53.08023876574478,1678.4775268315998,-223.41509742809689,58.80501428835055
2025-02-19 13:28:01.825,836,10,489,0,17,19,-4,-3,10,0,112,b,-1.1715295402256303,59.670209164431284,1699.1331056972822,20.3245586805895,-15.870919480826728
2025-02-19 13:28:01.936,624,-109,637,-25,38,24,-3,0,9,291,51,b,9.710101953547532,43.99612127899275,1318.6096721147792,-230.33406131492134,-72.08070695050367
2025-02-19 13:28:02.042,807,-105,622,10,-25,-21,-4,-1,9,469,54,b,9.581781570007221,51.98665347065463,1594.867319502383,-207.51061777912048,14.74662610844814
2025-02-19 13:28:02.959,777,-92,609,1,-5,-3,-4,-2,11,522,90,c,8.590563688241984,51.596952865389824,1560.6604220060487,-184.78862139582563,-5.220330761497621
2025-02-19 13:28:03.057,774,-97,615,-3,-2,-2,-4,-2,12,519,95,c,8.963058181532926,51.186935701313324,1553.1950695888072,-194.65106169265414,-4.1278653709516675
2025-02-19 13:28:03.165,783,-105,583,3,-6,1,-6,1,13,517,102,c,10.20968521327413,52.89061231518937,1580.4850848984552,-211.94244433504184,-10.785190926946598
2025-02-19 13:28:03.271,755,-82,614,-5,7,-12,-4,-1,12,445,110,c,7.606867771971796,50.632306897037665,1528.0913508786257,-165.9648884397978,-14.712701244339314
2025-02-19 13:28:03.377,929,88,482,3,-10,45,-5,-3,10,0,109,c,-10.346683467181549,62.19222063163003,1813.5176431395573,171.78638600245534,23.079113032005978
2025-02-19 13:28:03.484,1072,-25,607,4,58,20,-4,0,14,623,91,c,2.358460276134707,60.45927820271639,1942.0054962241497,-45.28930728134678,114.37561920890028
2025-02-19 13:28:03.594,592,-230,675,-18,10,-1,-4,2,11,80,37,c,18.816068120943147,39.69834377057154,1230.7455764799263,-478.1612881594308,-53.29943264180747
2025-02-19 13:28:05.613,780,-98,614,-1,-1,-1,-3,-2,10,519,79,d,9.068438865909888,51.44013889307044,1561.9573431026533,-196.24592259494875,-1.5407803397810085
2025-02-19 13:28:05.708,776,-96,609,-1,-2,-1,-5,-1,11,536,81,d,8.958132362862276,51.53339828613716,1558.9708939156599,-192.8623786287414,-5.4707144260783025
2025-02-19 13:28:05.814,777,-99,604,-1,-2,-2,-2,-2,11,545,84,d,9.308425775781625,51.77173412253395,1562.551716519297,-199.08960094647415,-6.647666380509008
2025-02-19 13:28:05.921,779,-97,607,-2,1,-1,-4,-2,11,557,83,d,9.07923230626149,51.72336195567507,1564.029015880239,-194.75072469882303,-4.6978339400577624
2025-02-19 13:28:06.027,773,-93,608,-1,-1,1,-5,-1,12,570,82,d,8.696586198710978,51.4909408452895,1555.509719988193,-187.14411896365067,-7.47983150429684
2025-02-19 13:28:06.134,768,-97,620,0,-2,1,-5,-1,9,586,82,d,8.891935072542067,50.747328697611906,1542.3631446060995,-194.80367842030162,-5.136913614299033
2025-02-19 13:28:06.241,790,-82,605,0,-2,-1,-4,-2,9,586,86,d,7.718673436814682,52.302254421050876,1581.247594152297,-164.12949711454223,-0.955436028025133
2025-02-19 13:28:06.352,687,-134,600,0,-8,-5,-5,-1,13,589,91,d,12.589459534957719,48.17533510635849,1432.1889993175855,-279.34981937198904,-50.820086740249394
2025-02-19 13:28:06.461,1015,-103,751,-5,-11,-11,-4,-2,12,613,111,d,7.809420369655257,53.2465973883615,1816.218278708971,-184.3058942926345,158.1774115168106
2025-02-19 13:28:06.557,796,-203,524,17,25,-13,-4,-3,10,0,113,d,21.176595945882013,54.77927705916899,1612.9363588068663,-411.3392975349169,-13.782226149243684
2025-02-19 13:28:06.675,821,-9,607,0,-21,-16,-3,-1,13,210,114,d,0.8494633159944964,53.51990704333925,1625.0634793750137,-17.814337776339976,12.521885529070573
2025-02-19 13:28:06.781,792,-198,583,2,-2,-47,-5,-5,12,660,112,d,18.758650347842234,52.13830305269705,1581.4945669703498,-395.37364174258744,1.8442770912702144
2025-02-19 13:28:06.884,946,6,572,24,-10,0,-3,-2,13,0,112,d,-0.600982638847937,58.83929987816557,1801.7193800003529,11.427395644822536,54.588281860251755
2025-02-19 13:28:06.990,517,-253,708,-16,19,1,-4,1,10,448,41,d,19.66407650126733,34.51398741747823,1083.6074110773625,-530.2759671229646,-67.93432696861237
2025-02-19 13:28:08.005,774,-93,604,0,-1,0,-4,0,12,483,82,e,8.753290376416553,51.70686378071198,1558.8506116857245,-187.30375566766457,-8.467402400746096
2025-02-19 13:28:08.108,781,-86,608,1,-1,0,-4,-1,11,508,85,e,8.050928135301866,51.8242143973466,1567.1181753370424,-172.56358908961028,-3.9844437963145083
2025-02-19 13:28:08.215,773,-88,603,0,-2,-1,-4,-4,10,536,86,e,8.302959832419726,51.749847624062696,1558.3152844212548,-177.40199874394625,-9.606877756813333
2025-02-19 13:28:08.322,745,-92,621,6,4,-1,-5,-1,11,508,91,e,8.426969021480673,49.880675199087065,1509.704106492607,-186.43325878834878,-16.42449682135407
2025-02-19 13:28:08.432,821,-53,539,-11,6,-9,-5,-3,12,276,110,e,5.615854657678243,56.58785499069631,1655.7311588861305,-106.88642073199136,-9.0147315951574
2025-02-19 13:28:08.538,732,-72,675,6,-12,-2,-3,-3,12,687,113,e,6.088528154195175,47.15832286872699,1465.235442678465,-144.12151895198014,-1.1392401748138354
2025-02-19 13:28:08.645,873,-202,476,-22,18,-8,-5,-2,12,0,112,e,22.99489891033385,59.36125020625645,1733.3975596237265,-401.08397141350827,6.871433698861722
2025-02-19 13:28:08.755,865,-92,577,50,-25,-1,-4,-1,13,227,115,e,9.05929157698267,55.961839948568674,1693.664955868787,-180.1354635143681,24.237364697930502
2025-02-19 13:28:08.858,435,-286,714,-30,33,20,-1,2,7,0,33,e,21.829075239640172,29.49073151136562,927.2827600120806,-609.6617686516208,-94.02273712327724
2025-02-19 13:28:08.968,838,-103,620,13,-18,-19,-2,1,9,254,44,e,9.432347960426307,53.130215492080524,1638.0011847760156,-201.32950123141956,28.113681907959972
2025-02-19 13:28:09.886,775,-68,633,-2,0,-2,-3,-2,9,487,71,f,6.1314829778281235,50.59780188841479,1547.7092219467136,-135.79900269984066,1.8710483970713767
2025-02-19 13:28:09.976,766,-61,638,-3,-8,3,-5,0,8,591,76,f,5.461521297610903,50.08089544939519,1532.9512259326252,-122.07575036800279,-0.7922743407505095
2025-02-19 13:28:10.085,772,-83,611,-12,-9,4,-4,-3,10,664,86,f,7.735871560632377,51.38494425716639,1553.356507172564,-167.0059457193301,-7.405214873622867
2025-02-19 13:28:10.198,926,-87,595,-16,-4,-8,-5,-2,12,655,111,f,8.318751934243158,57.00106910034459,1764.6807303940327,-165.79613773680435,56.1068740988668
2025-02-19 13:28:10.304,978,-152,576,20,24,-72,-5,-1,12,626,115,f,14.782726042615675,58.653625922795214,1832.0380617495202,-284.73393188745104,73.008258110712
2025-02-19 13:28:10.407,807,59,653,-15,-21,9,-5,-6,12,777,113,f,-5.162782526245367,50.907318363513696,1583.1269566660424,115.74286300284574,24.98153320579206
2025-02-19 13:28:10.521,561,-167,595,-39,12,-38,-4,-4,10,126,96,f,15.677958107728275,42.232503482093705,1233.1407343130527,-367.0846749202848,-117.87653639263135
2025-02-19 13:28:10.625,715,24,582,48,-38,17,-5,-2,12,174,113,f,-2.36137465817562,50.831059941288764,1490.286996793951,50.023619472803944,-49.072772215495775
2025-02-19 13:28:10.734,988,28,575,-40,60,31,-5,-3,12,553,95,f,-2.787853160908046,59.77178184613042,1852.0269599765047,52.4865940074313,72.15030163310723
2025-02-19 13:28:10.840,699,-125,638,16,-21,-13,-3,-1,7,374,69,f,11.085244294395713,47.074538260866184,1431.240320113758,-255.94426325353322,-30.33951964603341
2025-02-19 13:28:11.755,795,-87,591,-2,-2,0,-5,-2,13,350,88,g,8.37425902759904,53.0785127361478,1594.4594305622413,-174.48801315586792,-3.315123851930366
2025-02-19 13:28:11.852,782,-95,580,3,-5,-1,-6,0,13,472,95,g,9.302054711298819,53.07253096672459,1581.3967100846446,-192.11341107166402,-12.902930753317037
2025-02-19 13:28:11.961,812,-26,573,-9,-3,-6,-5,-1,12,467,115,g,2.5980264378233184,54.762956486541476,1628.7720460556075,-52.15279950424359,-3.3674659973681855
2025-02-19 13:28:12.069,770,-225,573,-41,12,-29,-5,-3,13,0,117,g,21.438454652228973,51.358690263224425,1551.0704578054056,-453.23487403404704,-8.238145873373242
2025-02-19 13:28:12.172,862,0,589,19,-23,28,-5,-1,13,0,118,g,0.0,55.65541298703994,1687.6595139684182,0.0,24.831260177032163
2025-02-19 13:28:12.282,797,-205,532,7,4,-25,-5,-1,12,635,114,g,21.073586942775695,54.422119672033304,1610.3254354858295,-414.1991396168069,-10.897279395810983
2025-02-19 13:28:12.389,804,44,492,-44,-18,38,-5,0,12,0,122,g,-5.110417561031226,58.43416055169008,1656.0391905283386,90.62901042692403,-29.397116591968597
2025-02-19 13:28:12.495,555,-184,572,-29,63,33,-4,2,10,0,52,g,17.831857628541478,42.727632345233104,1233.5140222214513,-408.94879295269726,-127.29733461381977
2025-02-19 13:28:12.606,672,-195,650,24,-30,-28,-4,1,10,0,50,g,16.69924423399362,44.71917294469179,1375.6325189711247,-399.1790791657281,-30.59693055242724
2025-02-19 13:28:13.525,773,-108,613,-5,-1,-6,-4,-4,11,499,85,h,9.991982841546234,51.158012898631036,1551.8785721939537,-216.8213270335666,-4.661791403484585
2025-02-19 13:28:13.621,773,-127,615,-2,-1,-4,-5,-3,10,513,88,h,11.667802770231349,50.90999820853716,1549.1564492245898,-254.51858868243585,-2.511275903133992
2025-02-19 13:28:13.725,773,-87,604,0,-5,-15,-5,-2,13,576,97,h,8.196493725962997,51.71118824095846,1557.8973808395135,-175.33903251363216,-9.296271703837192
2025-02-19 13:28:13.834,785,-93,572,-6,-4,-10,-7,-5,12,641,114,h,9.234765698634108,53.564122612329946,1589.5220534078242,-188.3128037795256,-14.22498668697483
2025-02-19 13:28:13.941,861,123,584,-15,-19,41,-5,-2,14,0,114,h,-11.893602445856043,55.27177591844393,1682.8635124048928,240.40907320069897,26.5455386243234
2025-02-19 13:28:14.052,805,-181,563,18,12,-49,-4,-4,12,408,115,h,17.822183100658005,53.69776001493316,1610.9051368095431,-362.2035152329531,-0.6330335699040006
2025-02-19 13:28:14.155,779,43,602,-19,-20,46,-5,-2,13,0,116,h,-4.085616779974877,52.23310439969544,1569.5090063773896,86.6352853327699,-8.893994658778638
2025-02-19 13:28:14.264,875,-89,555,-4,62,21,-4,-2,13,403,81,h,9.110407543110103,57.28374002582742,1716.3574332142728,-174.57807034979464,21.338999504089657
2025-02-19 13:28:14.371,618,-216,671,8,-18,-18,-3,-1,11,320,49,h,17.84376167080414,41.2413248904839,1277.2319720609908,-446.4111747009288,-44.7680473348297
2025-02-19 13:28:15.289,805,-102,589,-2,-2,0,-4,-1,13,443,87,i,9.824749422693138,53.40362802008301,1607.855227074794,-203.72823995233412,1.569281059560808
2025-02-19 13:28:15.387,787,-128,601,-3,-5,-3,-4,-1,13,446,88,i,12.023121109037803,52.01774077899228,1575.2013461730346,-256.1953904830349,-0.9174193773745856
2025-02-19 13:28:15.493,890,-85,620,-9,1,-12,-5,-4,13,461,116,i,7.806400829235755,54.887203111877085,1708.021270843406,-163.12562699066234,50.142485479874495
2025-02-19 13:28:15.600,788,-270,644,-15,-11,30,-5,-2,13,0,117,i,22.74609470528449,48.45329817059838,1536.4153699914493,-526.4367384488468,32.35089051460261
2025-02-19 13:28:15.710,895,-33,587,24,12,-69,-4,-1,14,215,116,i,3.217670519739557,56.69902723183802,1730.7980399344053,-63.8171344333356,38.828548110060524
2025-02-19 13:28:15.817,3141,13,541,15,5,-42,-4,-4,11,517,117,i,-1.3765283186249855,80.22460022801535,4126.480887948757,17.07871746046923,371.2626041450882
2025-02-19 13:28:15.922,1085,-104,540,-7,52,38,-5,-5,13,723,97,i,10.901267653030068,63.122191141787475,1976.9726945161324,-189.49784352965693,96.06888936524302
2025-02-19 13:28:16.029,646,-160,656,9,-23,-7,-5,-1,10,474,58,i,13.70696100407981,43.73261958625169,1337.2938981519314,-331.21830294784684,-45.99504208617191
2025-02-19 13:28:16.132,821,-88,579,5,-2,3,-6,-2,11,549,85,i,8.642028804166086,54.49835321311435,1635.0988275409284,-175.26028845749295,4.866965717177209
2025-02-19 13:28:17.047,805,-91,586,1,-3,-5,-3,-4,12,671,92,j,8.826963949327446,53.621843244060756,1610.1199718143664,-182.01356203118928,-0.08733351952650992
2025-02-19 13:28:17.153,851,-18,514,-4,-2,-3,-6,-3,11,684,116,j,2.00564737138861,58.852680513102406,1706.8401976448654,-36.102377858528286,-2.923456626863299
2025-02-19 13:28:17.262,795,-168,739,-11,-27,64,-5,-2,12,567,115,j,12.807617087596245,46.37025996767003,1518.8138089549711,-320.95688038293724,66.17181783934143
2025-02-19 13:28:17.365,630,-124,413,-40,65,-16,-4,-2,14,0,126,j,16.71197097290317,55.60969723366555,1455.2091063660068,-286.42210982442043,-127.97041417327102
2025-02-19 13:28:17.475,245,-477,991,63,-71,-63,-3,-4,12,516,118,j,25.702999987591802,12.558340104446128,462.43359243070313,-900.329892201818,111.50330571907432
2025-02-19 13:28:17.583,1135,-48,486,-1,29,49,-5,-2,13,738,103,j,5.640549432156823,66.71889272183476,2053.576758663423,-86.84729904479673,92.67109717143308
2025-02-19 13:28:17.687,583,-197,702,16,-28,-5,-3,-1,10,396,53,j,15.67554211486093,38.6457005141921,1207.502758016838,-408.02408804342554,-49.97416145423722
2025-02-19 13:28:17.790,887,-41,560,6,1,3,-4,0,12,566,90,j,4.187398288592714,57.66490355724399,1731.9343579442182,-80.0555903897553,26.557789798464228
2025-02-19 13:28:17.902,779,-104,595,4,-4,0,-4,-1,13,561,85,j,9.914565838778366,52.21073069053602,1569.2697873547127,-209.5045672463288,-8.607860688130927
2025-02-19 13:28:18.821,788,-53,615,10,-16,-12,-5,-4,10,569,105,k,4.925515519389704,51.92663916303487,1575.2218222366118,-105.94766063266553,0.6073341681263855
2025-02-19 13:28:18.917,691,-83,633,-4,3,-12,-6,-4,10,539,105,k,7.470100414988875,47.26500303532873,1425.5002298387258,-171.22506378670653,-39.84898044560532
2025-02-19 13:28:19.024,771,-44,603,-3,2,-9,-5,-6,10,368,106,k,4.173390118532176,51.897149003983984,1557.9043177339988,-88.9076394037561,-12.438785465111891
2025-02-19 13:28:19.129,766,73,595,-31,-25,60,-5,-4,10,0,112,k,-6.99461028923818,51.95373845200925,1553.51340167169,148.05023279638823,-16.710801559602714
2025-02-19 13:28:19.238,850,-102,487,46,10,-47,-6,-1,11,321,110,k,11.829351799020724,59.65644460540714,1713.0117668204236,-205.56141201845085,-7.454976990054547
2025-02-19 13:28:19.347,770,112,834,-11,-2,-3,-5,-5,12,414,113,k,-7.648636548317627,42.459980908725875,1445.0750805170687,210.1927389843009,102.81478292047359
2025-02-19 13:28:19.454,1015,-143,401,3,19,-16,-6,-3,12,0,114,k,19.62666537174176,67.24472729867088,1937.1653803031013,-272.92083683088026,36.67653448123798
2025-02-19 13:28:19.555,752,-85,600,5,-26,30,-5,-3,12,0,118,k,8.063246165697251,51.13677823142787,1530.6460784258115,-173.011857268875,-21.260168956764687
2025-02-19 13:28:19.667,793,-88,558,-28,54,10,-4,-3,11,210,77,k,8.962080732535625,54.535689688307656,1607.4770817549304,-178.3833331581764,-15.112498889345943
2025-02-19 13:28:19.775,716,-133,645,14,-22,-18,-5,-1,11,280,66,k,11.65117787033964,47.39246027502696,1452.0080085898749,-269.7165714280075,-18.023974218532544
2025-02-19 13:28:20.793,759,-62,629,6,-4,-4,-5,-3,11,552,94,l,5.629412144025527,50.214560190626464,1527.4461655519494,-124.77162353652291,-7.828245233433904
2025-02-19 13:28:20.888,745,-66,628,2,0,-9,-5,-4,11,610,99,l,5.999507320394364,49.71554047103685,1507.8437319756458,-133.5807869938156,-15.041427759336216
2025-02-19 13:28:20.998,772,-75,636,-4,-1,-4,-4,-4,12,664,107,l,6.725517097325259,50.32284694514236,1541.6542053594414,-149.77210544295093,1.9325458437762109
2025-02-19 13:28:21.105,772,-62,605,-5,3,-13,-5,-4,11,599,107,l,5.851207497321026,51.76955726369156,1557.528205816418,-125.08646212515276,-10.601767511571211
2025-02-19 13:28:21.211,858,127,571,-16,-21,29,-4,-3,12,0,114,l,-12.539431810552665,55.71526610990195,1684.248413238613,249.3001730551327,21.130717996214457
2025-02-19 13:28:21.318,1002,-92,595,2,24,-4,-4,-3,12,410,102,l,8.789573629052924,58.99965324076179,1859.164183629416,-170.7017014909244,86.00530014021717
2025-02-19 13:28:21.428,655,-171,664,10,-14,-18,-4,-2,10,483,64,l,14.441583571554006,43.689687958180215,1345.7522809243706,-351.33380158483567,-36.24353363936211
2025-02-19 13:28:21.530,779,-89,612,1,0,1,-5,-1,11,575,80,l,8.27422589528488,51.55441522466072,1562.1990214258408,-178.47973415519874,-3.298846100917217
2025-02-19 13:28:22.750,765,-77,621,2,0,0,-6,-2,10,523,93,m,7.068231650434316,50.71748252974794,1539.0334357526033,-154.90924778163458,-7.333024316819092
2025-02-19 13:28:22.845,754,-77,634,0,2,-4,-5,-4,10,536,97,m,6.924721178952549,49.734482594028556,1517.0574521488738,-154.92496527249773,-7.6159478280982285
2025-02-19 13:28:22.955,761,-81,648,-2,1,-5,-4,-4,10,558,106,m,7.125016348901798,49.36585869653416,1519.8833904194885,-161.77471041258684,1.8023166993053792
2025-02-19 13:28:23.055,752,-48,630,-15,-11,34,-5,-4,10,0,107,m,4.356975005846297,49.96322268881612,1517.6316895015743,-96.87010784052602,-11.420165406904061
2025-02-19 13:28:23.169,777,-132,581,6,9,-45,-5,-4,11,369,107,m,12.800003620754138,52.5188897021159,1570.55399820287,-266.8122622429586,-12.378214872416038
2025-02-19 13:28:23.279,741,-33,663,-17,-14,30,-3,-3,11,161,110,m,2.849474560677232,48.144603184493924,1485.8312098748822,-66.17062068268707,-3.427924624894672
2025-02-19 13:28:23.386,917,-71,528,27,1,-37,-6,-2,10,296,112,m,7.658605388115898,59.84456663629337,1781.66580674838,-137.94795232184836,30.13353766287429
2025-02-19 13:28:23.493,739,-96,691,-22,-21,37,-5,-3,11,354,109,m,7.909422356668955,46.649189740104646,1466.164283511532,-190.46247796631536,11.066955471625988
2025-02-19 13:28:23.595,954,-60,528,19,20,-3,-4,-2,11,602,105,m,6.4830736928972374,60.88126923239708,1827.6131867136621,-114.94422557947561,44.49081490061468
2025-02-19 13:28:23.706,656,-171,662,6,-11,-12,-5,1,12,641,63,m,14.4833813039299,43.8143022253765,1348.32331875906,-351.46842607896224,-36.65554423551475
2025-02-19 13:28:24.623,772,-62,623,-3,0,-2,-5,-4,12,632,98,n,5.683274745014908,50.958598022196,1548.6910111658062,-124.37673923870464,-3.785621705048243
2025-02-19 13:28:24.721,766,-80,618,-1,-1,-2,-5,-2,10,663,103,n,7.37591186889383,50.8709489021688,1541.7265311606743,-161.01582570868663,-7.847253599604073
2025-02-19 13:28:24.827,753,-84,630,-1,-2,-5,-5,-3,10,657,106,n,7.594643368591445,49.833708825690536,1517.175638543918,-169.24668477780762,-9.350135833557147
2025-02-19 13:28:24.934,761,-80,631,-1,1,-4,-6,-1,12,530,108,n,7.2255743610233,50.11079888653084,1528.2860361297537,-160.66081851561142,-5.212206041884997
2025-02-19 13:28:25.041,786,3,612,-12,-12,27,-5,-4,9,5,108,n,-0.2808594146833859,52.09441547914601,1575.0242077671546,6.0115427777372314,-2.3547266583952933
2025-02-19 13:28:25.151,787,-53,503,21,10,-54,-4,-2,10,360,108,n,6.01493535616042,57.272194008272315,1628.248500931433,-109.65332979589066,-34.672167685528166
2025-02-19 13:28:25.255,709,-29,679,-9,-21,31,-3,-2,13,511,106,n,2.4456088328171313,46.21210750972687,1430.9064728462945,-58.527909326576236,-12.360359749836675
2025-02-19 13:28:25.365,979,-60,596,23,0,14,-5,-1,13,476,108,n,5.7486634172877675,58.53913647574351,1831.9968634749414,-112.27764229672778,76.70875318583751
2025-02-19 13:28:25.471,514,-228,691,-10,6,0,-4,1,10,544,50,n,18.26064668501033,35.23699818376276,1090.959859200574,-483.9277196453909,-84.64058892528567
2025-02-19 13:28:26.388,768,-110,617,0,0,-5,-4,-3,10,521,78,o,10.108600810000498,50.78372731858295,1542.764953628598,-220.96893867076272,-5.434865089641903
2025-02-19 13:28:26.482,774,-99,616,0,-1,-4,-3,-1,9,606,81,o,9.130176482278692,51.12846464103453,1552.5550255919693,-198.5826195524612,-3.6251883264252456
2025-02-19 13:28:26.590,761,-97,628,0,-2,-1,-5,-1,9,660,83,o,8.780438269182461,50.137582406806025,1528.5857371275197,-194.83944349720025,-5.434747590121219
2025-02-19 13:28:26.699,781,-77,622,4,-7,1,-4,-3,10,682,89,o,7.056982603501009,51.253159854172154,1560.919001498205,-153.89342268292162,0.8609232626332641
2025-02-19 13:28:26.809,659,-112,624,9,-19,-15,-4,-1,11,716,100,o,10.175510843043206,46.10895099202757,1379.6594290898943,-234.4792959909987,-58.38464909270715
2025-02-19 13:28:26.917,729,-137,662,-19,9,-23,-5,-2,12,561,111,o,11.692231102485419,47.15915472301565,1462.245314881364,-274.7978163768818,-3.8551419087282284
2025-02-19 13:28:27.019,802,128,587,-3,-46,67,-4,-2,10,129,107,o,-12.30123946199835,53.162412345192344,1602.3382222166174,255.73477860813847,1.2162887267400038
2025-02-19 13:28:27.129,667,-223,566,17,19,-45,-4,-2,12,728,108,o,21.504089733950675,47.63320946848083,1405.8460520478072,-470.02049416291004,-60.96681478119774
2025-02-19 13:28:27.237,684,-81,635,-39,41,60,-5,-1,10,533,54,o,7.26933790642446,46.89690009993234,1414.125308075007,-167.46220753519822,-42.82100968951681
2025-02-19 13:28:27.344,719,-124,667,26,-38,-21,-4,1,8,653,56,o,10.531460103896517,46.6630066431979,1446.329803343609,-249.4365724820688,-7.727369722095887
2025-02-19 13:28:28.255,763,-77,622,-1,-1,-1,-5,-4,9,651,84,p,7.056982603501009,50.59943099871407,1535.7272699848663,-154.9816510993902,-7.929701088580487
2025-02-19 13:28:28.354,772,-70,628,0,0,-2,-4,-3,10,674,85,p,6.360218232166397,50.69935324775751,1545.833060101736,-140.16621011285173,-1.491142155298462
2025-02-19 13:28:28.465,768,-74,626,-3,0,-2,-5,-2,12,697,86,p,6.7416972935442505,50.62155345328007,1540.972290931908,-148.4791009491682,-4.052935056477054
2025-02-19 13:28:28.575,736,-73,623,7,-15,-11,-3,-3,11,714,98,p,6.683155343953537,49.56042003842514,1497.090404220027,-148.4885862881277,-21.238209006898046
2025-02-19 13:28:28.682,785,-93,612,-5,-2,-14,-5,-3,10,688,107,p,8.640606413823958,51.74181987471391,1570.2285347602624,-186.0270748187317,-0.17816977487973418
2025-02-19 13:28:28.786,932,125,543,-25,-21,36,-4,-1,12,0,113,p,-12.963787750224975,59.12664739805893,1790.303653161206,240.11583331024758,42.936820100284535
2025-02-19 13:28:28.899,664,-146,596,-20,50,-49,-4,-4,10,572,81,p,13.764486867795462,47.258062419268526,1398.4180201293316,-307.4834803296422,-63.206536140183175
2025-02-19 13:28:29.001,751,23,579,-3,-23,14,-4,-4,10,753,103,p,-2.2748021303584136,52.34693750434792,1542.7242389205862,47.24721370861981,-31.39724944742909
2025-02-19 13:28:29.112,891,56,395,-14,12,18,-4,-1,13,133,113,p,-8.069171027058609,65.87930358290333,1803.686620300036,113.36301990662403,-9.614158269937434
2025-02-19 13:28:29.218,478,-183,720,-17,39,22,-5,-1,9,570,47,p,14.260711583026564,32.75848797808907,1019.0990596121592,-390.1571713577932,-95.04460862082567
2025-02-19 13:28:29.325,811,-118,597,21,-36,-21,-3,-3,8,626,59,p,11.180680209681075,53.11654409342035,1610.8579958282232,-234.3788452623062,8.201943884772845
2025-02-19 13:28:30.637,771,-82,628,0,-4,-4,-4,-2,11,639,74,q,7.439208621840864,50.598920074796304,1543.7216098003923,-164.18310246904304,-1.4022969580367999
2025-02-19 13:28:30.738,734,-103,625,5,-9,-4,-2,-3,9,690,80,q,9.358229289435043,49.2063283519984,1491.0672217179713,-209.2369534563366,-19.6417078661201
2025-02-19 13:28:30.840,777,-69,616,3,-3,-2,-6,-2,11,728,88,q,6.39123019625576,51.41885571099649,1558.7257452761392,-138.41966077741776,-3.7465367954976045
2025-02-19 13:28:30.951,781,-56,606,-1,0,-1,-4,-3,11,743,95,q,5.279665053592963,52.073057033606894,1569.7951339942738,-112.55893406360991,-6.04846504549289
2025-02-19 13:28:31.057,822,-45,579,3,7,-8,-3,-3,10,748,106,q,4.444106121652691,54.758651454346705,1638.7286926765444,-89.71142478156267,3.713001143893848
2025-02-19 13:28:31.155,827,5,586,9,17,8,-4,-4,11,253,106,q,-0.4888599757110927,54.67819257080473,1642.9175917475327,9.932996322536473,7.852830998725267
2025-02-19 13:28:31.279,761,-49,599,11,-12,-26,-3,-5,10,529,107,q,4.676554073027343,51.70003495606651,1545.776748659166,-99.53096016333657,-18.71520689466547
2025-02-19 13:28:31.385,757,-191,706,-17,-4,49,-4,-2,10,461,104,q,15.138314901356193,45.986146778062,1476.1718218020721,-372.4555058972203,35.2796483589658
2025-02-19 13:28:31.485,850,-35,553,27,-23,5,-5,1,12,450,108,q,3.6214847041173397,56.90007289434455,1687.7194113959702,-69.49432870453994,7.989606468268903
2025-02-19 13:28:31.595,665,-125,604,-47,58,25,-4,0,9,575,54,q,11.692505920181109,47.153546323156434,1398.17875304388,-262.8155550834361,-61.92476216316322
2025-02-19 13:28:32.515,764,-93,619,1,-3,-4,-5,-1,11,652,80,r,8.544343881163979,50.67214390486211,1537.5321808036783,-187.16033090934826,-7.723062719210361
2025-02-19 13:28:32.610,732,-64,599,-6,-5,-3,-3,-3,11,677,85,r,6.0986161052343775,50.54686421639009,1504.144595775665,-131.5099100131729,-32.850564029540124
2025-02-19 13:28:32.715,819,-52,596,-4,2,-1,-6,-1,11,683,101,r,4.986333771235495,53.85257157144575,1626.5018808480359,-103.26996068876419,8.367373644164445
2025-02-19 13:28:32.826,793,-79,606,-1,0,-3,-6,-1,11,684,101,r,7.427365940878466,52.380256482106674,1585.0793467686117,-157.90828296938253,0.7035508930908918
2025-02-19 13:28:32.933,774,-60,609,-1,-1,-1,-3,-4,13,697,102,r,5.626745715140729,51.669004473586824,1558.440971380602,-120.80937762640326,-8.215182907992926
2025-02-19 13:28:33.035,778,-77,613,0,-1,0,-6,-1,12,694,101,r,7.159524945118444,51.5465800293122,1561.1139869330582,-154.50614009491707,-4.029401015378767
2025-02-19 13:28:33.145,784,-64,610,0,-2,-3,-5,-1,11,700,105,r,5.9894477471215435,51.962795079501944,1571.6108087314497,-128.29475989644487,-2.809430262989963
2025-02-19 13:28:33.254,778,-51,587,-3,1,-2,-4,-4,10,685,110,r,4.965528732270425,52.86185835809648,1575.1821982405486,-103.25744487180975,-14.472943916712211
2025-02-19 13:28:33.360,691,-116,644,1,0,16,-4,-1,12,612,108,r,10.210867691077922,46.55986078219777,1417.0931456499118,-237.89117929868272,-32.706202313376366
2025-02-19 13:28:33.467,780,-57,633,2,-1,15,-5,-2,11,321,110,r,5.145458167938817,50.82609420141829,1555.2322532611297,-113.65158773831332,3.8692098534678507
2025-02-19 13:28:33.576,713,-185,655,13,-1,-21,-5,-4,9,755,106,r,15.771948056854868,46.33079852728539,1436.338415407476,-372.68247805102817,-9.49742228877517
2025-02-19 13:28:33.682,1000,52,584,-18,49,28,-5,-1,12,761,90,r,-5.088260197537607,59.61645639108016,1862.658975739616,96.85826673846003,80.20715816806438
2025-02-19 13:28:33.793,662,-114,658,14,-16,-14,-4,1,12,673,59,r,9.829055325601919,44.75000121807204,1366.0147395540603,-235.23516663015536,-41.760874058265244
2025-02-19 13:28:34.905,790,-94,628,-10,0,0,-5,-2,11,644,85,s,8.512919237837819,51.207940686139985,1569.4247991693965,-186.7416849644598,8.406615343821727
2025-02-19 13:28:35.006,763,-97,615,-3,-4,0,-5,-4,12,539,86,s,8.963058181532926,50.78579819496397,1537.7878048979965,-195.49858070131796,-9.501310632067657
2025-02-19 13:28:35.105,773,-97,611,8,-6,0,-4,-2,11,618,93,s,9.02077431743953,51.32881503267369,1553.7447539120558,-194.97185139646757,-6.121661889089523
2025-02-19 13:28:35.217,790,-40,574,-2,-2,0,-4,-2,11,653,109,s,3.9862928436608995,53.93248833784895,1598.3238450926442,-80.92778962494401,-13.313781117946633
2025-02-19 13:28:35.330,796,-100,587,-9,7,-11,-4,-4,11,333,113,s,9.667966033338093,53.2012513393253,1596.7444534279357,-200.596036862806,-3.498736384671247
2025-02-19 13:28:35.435,751,-57,652,14,-12,21,-3,-2,12,343,106,s,4.99628410520489,48.92826915064538,1504.8876427790087,-114.2191686263695,-2.5069814805773376
2025-02-19 13:28:35.535,740,-65,567,6,29,10,-5,1,12,0,111,s,6.539750542524191,52.3593481891947,1531.8565411299464,-134.5549664506034,-39.73332273064818
2025-02-19 13:28:35.649,622,-126,645,-15,42,22,-3,-2,9,339,52,s,11.053462479220206,43.4241373912372,1309.3935389864773,-265.24692268857905,-67.81162804867824
2025-02-19 13:28:35.755,724,-121,659,9,-16,-18,-3,-1,8,364,48,s,10.404278371840297,47.217683114759495,1457.9395245563092,-243.6611636344108,-9.047163926253802
2025-02-19 13:28:36.775,763,-60,631,-2,-3,-3,-3,-2,11,768,83,t,5.431761874833824,50.28260583280576,1532.2055989546311,-120.48798943286744,-5.13202220232256
2025-02-19 13:28:36.870,768,-61,620,-3,-7,-7,-4,-3,13,774,94,t,5.619081029541799,50.9513965221585,1544.611835259731,-122.68401295682756,-6.952262839886657
2025-02-19 13:28:36.976,783,-37,588,-3,0,-7,-5,-3,10,788,107,t,3.6005993939862906,53.040619743418695,1582.061965027302,-74.75899451597724,-12.061858794448995
2025-02-19 13:28:37.083,781,-35,609,0,0,-1,-5,-4,13,781,108,t,3.2892426784918265,52.00816236998342,1569.0984528860968,-70.31811248529246,-5.535157244088509
2025-02-19 13:28:37.193,778,-55,604,-2,-2,-1,-4,-5,12,786,107,t,5.202981793103891,52.06138745207592,1566.669928997108,-110.75430089311175,-8.28359526253621
2025-02-19 13:28:37.299,794,-89,627,7,-6,47,-5,-4,10,443,105,t,8.078922573652001,51.42454823527154,1575.7877003527237,-176.63111502694255,9.643717731539596
2025-02-19 13:28:37.405,768,-47,607,16,-17,-8,-5,-2,12,739,106,t,4.427576997557164,51.59507075183061,1551.6400160819646,-94.95713640084938,-12.361314793948395
2025-02-19 13:28:37.517,573,-95,686,-15,0,-42,-4,-4,10,642,83,t,7.884400088640915,39.603708299130325,1210.4738575943975,-200.68938302175872,-77.18859739922607
2025-02-19 13:28:37.624,867,169,684,-17,-52,-7,-4,-3,10,609,104,t,-13.878458587586227,50.90092037834169,1643.0565379107707,320.2728430298965,71.74778323994553
2025-02-19 13:28:37.725,797,3,584,11,1,13,-4,-7,13,762,106,t,-0.2943250455584917,53.767624055414466,1603.6264516568954,6.0362350752455285,-7.05376131446269
2025-02-19 13:28:37.836,590,-172,666,5,-10,-1,-5,-2,10,541,62,t,14.480701107400915,40.621110849744994,1241.0539295112535,-361.79877267107724,-68.91850348219452
2025-02-19 13:28:38.745,772,-70,617,-6,-1,1,-4,-2,11,607,82,u,6.472655520869884,51.18854346201817,1551.212657220764,-140.6539974163905,-5.764520084470632
2025-02-19 13:28:38.845,759,-82,623,0,0,-2,-5,-3,9,699,87,u,7.49823663738308,50.37876828056616,1529.276983871575,-165.2183302733454,-9.25633854017292
2025-02-19 13:28:38.954,792,-87,643,7,1,2,-6,-2,10,732,94,u,7.705511934844509,50.67338884671922,1565.545951105621,-171.9728506896326,14.982264443290092
2025-02-19 13:28:39.055,742,-85,631,2,2,-9,-4,-1,9,723,95,u,7.671949510955891,49.36759121201078,1500.9030819252455,-171.93633687822893,-14.37445376661708
2025-02-19 13:28:39.166,768,-77,625,-4,1,-6,-5,-3,9,700,105,u,7.023448203251116,50.649793687443875,1541.2849029230497,-154.52986656910787,-4.3008650089922185
2025-02-19 13:28:39.278,853,-23,594,12,-14,32,-5,-3,9,669,103,u,2.217415716103617,55.127837844289346,1673.429763020491,-45.12178727956775,22.680798084206913
2025-02-19 13:28:39.389,699,-92,663,-2,-2,-26,-5,-1,12,797,105,u,7.9000972911832195,46.24120122852679,1421.257759588867,-187.06110712757618,-22.059935060685007
2025-02-19 13:28:39.499,814,-108,688,-22,-19,52,-3,-2,10,701,104,u,8.921301654441667,49.45105471260022,1573.8508930491237,-208.81559760356924,45.76730415504039
2025-02-19 13:28:39.601,850,-40,593,-26,67,12,-6,1,11,712,76,u,3.858962397193136,55.03750732223469,1669.5273469454341,-78.56599279743222,21.259156778067563
2025-02-19 13:28:39.712,642,-160,674,5,-13,-12,-2,-1,10,661,50,u,13.354183074753827,42.82333351364707,1321.7400569320466,-329.4056216653076,-39.62118126510836
2025-02-19 13:28:40.626,751,-90,632,1,-2,0,-4,-1,12,634,79,v,8.104716543006717,49.63430899320769,1512.926268351171,-181.30940632703783,-9.194942207643408
2025-02-19 13:28:40.720,762,-84,627,3,-3,1,-5,-1,11,639,83,v,7.630554225382767,50.30101568060142,1531.4108783443533,-168.81694721906257,-6.097927456573984
2025-02-19 13:28:40.830,754,-78,630,3,-3,-2,-3,-3,10,631,85,v,7.057846649881076,49.905191213331584,1518.979757804575,-157.13583701426637,-9.174068192151594
2025-02-19 13:28:40.935,775,-47,617,2,4,-10,-3,-2,12,616,99,v,4.356095710262918,51.39489102768161,1556.464838973795,-94.39206120228172,-5.146845995911235
2025-02-19 13:28:41.043,784,-59,632,1,4,-12,-3,-2,9,555,105,v,5.333357212228749,51.00541615983777,1561.2054475291743,-117.48867526048635,5.47724127750223
2025-02-19 13:28:41.154,793,-149,646,-35,-46,73,-4,-4,8,432,104,v,12.988139032813175,50.10383302888347,1560.2080624209975,-293.1538477941092,21.01083439600984
2025-02-19 13:28:41.261,804,-63,530,27,-14,-41,-6,-2,13,486,107,v,6.7788224984408325,56.422012002518535,1637.1337822643486,-128.28287099832585,-19.20510522401105
2025-02-19 13:28:41.367,912,12,623,-6,-5,6,-5,-3,11,687,104,v,-1.1034740669311,55.65751907671668,1737.6802512375339,22.864213832072814,58.96623188488627
2025-02-19 13:28:41.465,589,-157,675,-8,9,10,-4,-1,10,557,49,v,13.093765781440904,40.361400667610226,1236.6067167574274,-329.6218243309272,-67.16389441640672
2025-02-19 13:28:44.095,757,-20,641,-1,-1,-1,-4,-4,10,330,100,w,1.7871200481706855,49.72954258769762,1520.0017230866642,-40.158565999647664,-5.082040288707617
2025-02-19 13:28:44.189,758,-17,649,-1,-1,0,-3,-4,10,336,100,w,1.500470835654396,49.42013656649964,1517.4999746375759,-34.0336405921356,-1.2842790762356344
2025-02-19 13:28:44.296,752,-12,648,-1,-1,0,-6,-2,9,353,100,w,1.0609116902642277,49.243597028106734,1509.492031831295,-24.087638805818536,-4.732495514200991
2025-02-19 13:28:44.402,754,-20,646,-1,-1,-1,-4,-5,9,387,101,w,1.773296715560803,49.39766240286729,1513.244755917602,-40.13911819410086,-4.493517669457674
2025-02-19 13:28:44.509,750,-24,640,-2,-1,0,-4,-5,10,429,100,w,2.147585428298503,49.504889028292844,1510.4613800004186,-48.33476416001338,-8.927044267023575
2025-02-19 13:28:44.619,816,-77,654,-13,-10,15,-5,-4,9,540,100,w,6.714919825798343,51.096246025615216,1594.2020032102803,-150.43327726371518,30.29398272117237
2025-02-19 13:28:44.721,797,9,647,9,-9,11,-4,-4,9,491,101,w,-0.7969532606246705,50.92779507652136,1573.3522664117213,17.766838642039517,16.761710955603803
2025-02-19 13:28:44.831,748,-122,635,-3,-1,-12,-6,-4,12,709,104,w,10.875486906482344,49.158010815420916,1504.515993438827,-245.38897219189425,-7.2294864086300095
2025-02-19 13:28:44.938,797,25,595,-4,-18,37,-4,-3,10,389,104,w,-2.4059705166453,53.232610976698055,1598.072186842591,50.12773484449782,-3.0400892990481907
2025-02-19 13:28:45.045,802,3,544,-12,-6,-30,-4,-1,11,485,110,w,-0.3159661692883924,55.85038420758963,1629.574533859587,6.095665338626883,-17.347314737674992
2025-02-19 13:28:45.151,994,36,588,-29,57,42,-4,-1,12,644,84,w,-3.503531644784458,59.346602990696475,1854.2672502875569,67.15656037258756,79.10951391440307
2025-02-19 13:28:45.262,686,-137,652,13,-16,-9,-4,1,11,527,53,w,11.866512176664221,45.837279949168476,1403.3640718168758,-280.26367031911366,-29.809584292424347
2025-02-19 13:28:46.275,780,-76,612,-2,-1,-1,-5,0,12,468,73,x,7.0789216046122325,51.6686163943003,1564.4367705623417,-152.43230072145894,-3.4811584412219645
2025-02-19 13:28:46.372,784,-80,609,0,-3,-1,-4,-1,9,458,75,x,7.483688797097208,51.92274788074655,1571.179938858497,-160.3244835569895,-2.4701310775824368
2025-02-19 13:28:46.479,785,-63,613,4,-11,-6,-7,-2,11,412,84,x,5.867871646336905,51.86791229768634,1571.5893362349361,-126.12755182522419,-1.2410995057529135
2025-02-19 13:28:46.585,782,-69,600,-1,-2,-4,-5,0,11,410,88,x,6.560196400571309,52.3203627211052,1573.440817581332,-138.8330133159999,-7.243594052172739
2025-02-19 13:28:46.699,1263,-49,570,15,-11,-16,-5,-1,12,647,109,x,4.913347262548006,65.63085641600948,2173.906004492665,-84.33997958839316,158.90227825746717
2025-02-19 13:28:46.802,747,3,611,-10,20,17,-3,-3,12,0,109,x,-0.28131907901154346,50.71860926850253,1521.0458865845385,6.108618018411801,-22.12186974987003
2025-02-19 13:28:46.912,740,-14,578,6,16,-55,-4,-2,11,293,106,x,1.3875157474432052,51.99912681459768,1528.0013708588,-28.908134043274593,-37.49296264376528
2025-02-19 13:28:47.015,770,-103,648,-11,5,-25,-4,-4,11,295,103,x,9.031642926619172,49.564911733961914,1531.1412523897443,-204.81499869629047,7.455153833046438
2025-02-19 13:28:47.125,797,-53,583,39,-1,15,-4,-3,13,363,111,x,5.194428907734806,53.702361344927944,1602.9526803475133,-106.59534762662256,-6.5488238928481906
2025-02-19 13:28:47.232,634,-196,685,-12,26,-1,-5,0,9,515,55,x,15.967487968273414,41.663900512802705,1298.7597995948631,-401.5093386760145,-33.234168331989395
2025-02-19 13:28:48.545,771,-79,618,1,-2,-2,-3,-3,12,456,87,y,7.284709527497179,51.0590511692753,1548.7941496829703,-158.69615800902028,-5.445894298411758
2025-02-19 13:28:48.645,807,-65,608,0,1,-3,-5,-1,12,534,95,y,6.102193669431363,52.848757592557924,1604.0441316239064,-129.19810229932332,7.500827723252655
2025-02-19 13:28:48.752,764,-74,619,-1,2,-4,-5,-2,12,576,92,y,6.817222643056818,50.78629446761952,1538.7932809123613,-149.04542249674705,-8.744817911978657
2025-02-19 13:28:48.858,723,-64,626,2,7,-6,-3,-4,12,664,95,y,5.837433681900877,48.96531830343459,1477.3123230277452,-130.77176856677136,-27.111361293732216
2025-02-19 13:28:48.969,769,-139,580,2,8,15,-6,-2,10,439,107,y,13.477050687381682,52.20344420087094,1559.1918544123605,-281.8305172474878,-15.98345326289882
2025-02-19 13:28:49.079,735,-39,583,21,-6,-42,-4,-3,12,724,104,y,3.8271203212036027,51.516351222176894,1517.7857798661244,-80.53557199289638,-37.90355056047679
2025-02-19 13:28:49.183,762,-109,582,0,6,-9,-4,-3,10,742,104,y,10.607766951911783,52.15067989804519,1551.6271304308693,-221.95191235822142,-21.101036628301472
2025-02-19 13:28:49.287,794,40,506,-15,-3,32,-5,2,12,0,114,y,-4.5199111145351685,57.410531912293386,1636.551417758792,82.44591525233207,-30.94082794200085
2025-02-19 13:28:49.396,577,-133,603,-25,50,22,-4,-1,9,290,54,y,12.43822952786995,43.058416788221336,1259.7436683111357,-290.37419044260145,-110.50854764577969
2025-02-19 13:28:49.505,725,-128,660,18,-30,-16,-3,0,8,478,54,y,10.975655172812552,47.16002459661768,1458.2556381210134,-257.45754714412374,-7.51547746188794
2025-02-19 13:28:50.619,758,-119,627,-2,-2,-1,-4,0,10,613,67,z,10.74650105301914,49.904533925357605,1522.9723692665648,-239.09460678459266,-5.767381965878826
2025-02-19 13:28:50.717,775,-115,628,1,-4,-4,-5,0,10,684,70,z,10.37708823709864,50.51840726778573,1546.8288947780247,-229.52944890254565,2.569618166968098
2025-02-19 13:28:50.828,746,-147,618,4,-8,-6,-3,-2,11,707,76,z,13.379963127061313,49.584560533584046,1507.3636313287002,-297.0274179695964,-12.72751228034383
2025-02-19 13:28:50.930,790,-55,602,-7,7,1,-2,-2,10,686,87,z,5.220172104825227,52.576818239812866,1584.168812444144,-110.29023377775684,-3.1767406219929626
2025-02-19 13:28:51.041,748,-67,600,-6,13,-17,-4,-3,12,523,88,z,6.371632631457039,51.092145119202,1526.1570515391795,-136.70123322610297,-24.1901482934594
2025-02-19 13:28:51.151,876,-131,563,69,4,-21,-6,-2,11,485,103,z,13.098628725530567,56.58066590130545,1710.6620594888327,-255.8181846952478,26.56764898149231
2025-02-19 13:28:51.253,673,-74,651,3,3,35,-5,-3,11,665,106,z,6.485048456097431,45.76814381964285,1389.522876386181,-152.7855763039783,-42.1001374849983
2025-02-19 13:28:51.365,750,-23,635,-5,-42,16,-2,-2,11,173,107,z,2.0743733808542917,49.727999726808484,1512.9843166448663,-46.398185710442576,-10.993388092653618
2025-02-19 13:28:51.470,791,1,553,15,37,-32,-3,0,12,544,107,z,-0.10360889161034319,55.0419796443908,1610.5720740928214,2.0361214590301158,-19.97516684365371
2025-02-19 13:28:51.577,793,-108,667,9,9,-9,-4,-4,10,340,103,z,9.197453094666418,49.56686537062668,1554.1633670435988,-211.66411556205378,26.7781011121308
2025-02-19 13:28:51.680,789,-37,612,14,-3,6,-5,-1,12,639,109,z,3.4597493705459486,52.14987527362924,1578.618513539027,-74.02900507090493,-0.4797595511842019
2025-02-19 13:28:51.795,595,-164,672,-15,19,13,-3,0,11,279,57,z,13.714811891878451,40.70118055161335,1247.1140246804832,-343.7423530211752,-64.5052514038399
2025-02-19 13:28:52.807,781,-53,617,-1,-2,-2,-6,-3,9,615,84,0,4.90962767101078,51.58832391549151,1564.5668597586941,-106.17419150731214,-2.0278520756904754
2025-02-19 13:28:52.905,782,-47,612,-1,-2,-3,-4,-2,11,642,85,0,4.391546067326547,51.871165225515064,1568.6243917632887,-94.27793658935367,-3.6190892060519673
2025-02-19 13:28:53.015,776,-51,607,-1,-1,-3,-5,-2,11,654,86,0,4.802698112429409,51.8690577392359,1562.601680498819,-102.69675992969039,-8.292809359256353
2025-02-19 13:28:53.122,774,-58,602,3,-8,-2,-5,-3,11,696,90,0,5.503205568488636,51.99666795484795,1561.9749483833866,-117.04721835431062,-10.869404298189352
2025-02-19 13:28:53.229,798,-9,637,-3,8,-16,-5,-3,11,734,109,0,0.8094626489955458,51.39874821877368,1579.5068418955943,-17.813986938672116,13.165591118429006
2025-02-19 13:28:53.338,827,-140,521,37,27,13,-3,-5,10,434,105,0,15.040877638664332,56.88212896001222,1664.5483420364203,-281.7856927268426,-6.645327933464273
2025-02-19 13:28:53.446,728,66,696,10,-25,-23,-4,-1,13,538,112,0,-5.417022113856611,46.15921681152659,1449.267377149485,131.3896248514643,6.436683384558592
2025-02-19 13:28:53.546,916,59,510,16,28,4,-4,-4,11,726,107,0,-6.599000777175668,60.73015962634576,1788.3267550779838,115.18698531615833,24.31588963998729
2025-02-19 13:28:53.655,455,-208,730,-15,18,27,-3,-1,7,647,37,0,15.903922307360652,30.93972882582867,969.1361097466504,-443.0336501698974,-94.87771453858215
2025-02-19 13:28:54.675,725,-83,633,-21,-3,-4,-4,-5,10,694,88,1,7.470100414988875,48.63359517497927,1475.4986985055612,-168.91916134615389,-22.26300159175196
2025-02-19 13:28:54.772,806,-43,595,-3,1,0,-5,-3,12,721,103,1,4.133517217470578,53.49342579060595,1609.788604407669,-85.88202231951585,1.6324818578621034
2025-02-19 13:28:54.879,750,-80,616,0,-6,-6,-7,-4,10,717,107,1,7.399594659887112,50.36739974301921,1520.150435409628,-162.14937977702704,-16.550224283107923
2025-02-19 13:28:54.990,790,-110,542,12,10,-7,-6,-4,12,694,110,1,11.472473256461475,55.00555941636378,1609.2076946232796,-224.0668941880516,-20.03869681749063
2025-02-19 13:28:55.092,734,-97,669,-2,-3,1,-5,-4,13,796,110,1,8.24996782680239,47.355707136729414,1469.5736039880046,-194.20795584037663,-1.4342521362058278
2025-02-19 13:28:55.199,783,-67,622,3,1,-1,-5,-6,11,761,112,1,6.148026568703167,51.37598875287159,1564.258951257978,-133.8510213720109,1.3830553225257063
2025-02-19 13:28:55.309,784,-49,608,1,-1,1,-5,-5,12,765,112,1,4.607629061974702,52.116204818131514,1573.2577899775174,-98.32861187359482,-4.077469778482623
2025-02-19 13:28:55.415,784,-36,597,-1,1,-1,-4,-3,12,761,111,1,3.450843193751159,52.6613369204753,1579.064379992819,-72.5080582649764,-8.425299560858434
2025-02-19 13:28:55.524,784,-53,604,-1,-1,-1,-5,-4,11,764,111,1,5.014765263394763,52.28276427802728,1575.039537546495,-106.4758871045462,-5.423317191432261
2025-02-19 13:28:55.628,779,-43,606,-1,-1,0,-5,-3,12,760,111,1,4.058739437270348,52.050174819316325,1567.5495958642841,-86.52712788467805,-7.428825537555895
2025-02-19 13:28:55.735,783,-43,610,2,1,-1,-5,-3,11,772,111,1,4.032212829914596,52.010586449502895,1571.124494940672,-86.28142181666527,-3.992262980600117
2025-02-19 13:28:55.845,775,-20,616,5,-4,-1,-4,-4,10,817,109,1,1.8595993387455583,51.506260352176035,1557.6761704691562,-40.19809472178467,-6.101317430967924
2025-02-19 13:28:55.952,782,-44,604,-3,-1,-3,-6,-4,12,815,108,1,4.166504885548681,52.24489588494311,1572.6350320791685,-88.4858585824596,-6.669513268309174
2025-02-19 13:28:56.059,791,36,671,2,-11,49,-4,-5,13,367,110,1,-3.071046782788565,49.65165613191385,1553.122323145351,70.68571887892875,24.496739784411375
2025-02-19 13:28:56.165,787,-102,606,6,4,13,-3,-2,13,113,111,1,9.554289672401765,52.015716735788374,1575.179605310153,-204.152884042739,-0.9083110774495253
2025-02-19 13:28:56.276,712,-82,605,-21,31,13,-4,-3,9,626,84,1,7.718673436814682,49.387294501592315,1471.1269776757078,-169.42754518175286,-40.04469310927436
2025-02-19 13:28:56.383,726,-68,613,7,-5,-10,-4,-3,12,482,95,1,6.32993287770923,49.65104100689678,1488.11537228805,-139.38270704626365,-30.494109108229736
2025-02-19 13:28:56.489,753,-117,729,33,13,-16,-4,-2,11,0,103,1,9.117862753795789,45.56362344743237,1467.0283259786179,-227.94464029149844,37.7295489529713
2025-02-19 13:28:56.596,708,-41,682,25,-20,5,-4,-2,10,647,109,1,3.4403271195147394,46.01995438218748,1427.5816851497716,-82.6706908066958,-11.156369028452104
2025-02-19 13:28:56.695,693,-56,506,-43,59,28,-3,1,10,486,64,1,6.315334576314071,53.69837425958801,1498.9114838325445,-121.1241603097006,-82.44330565550888
2025-02-19 13:28:56.812,716,-171,653,6,-12,-21,-5,-1,9,639,54,1,14.67443811716507,46.68753104769019,1443.6234897047768,-344.7760010328447,-10.600752482149687
2025-02-19 13:28:57.725,772,-82,616,-1,0,-3,-5,-3,10,526,83,2,7.582457962668596,51.16711379193278,1550.9781831523137,-164.74120598249962,-5.568083966094719
2025-02-19 13:28:57.824,757,-77,620,-3,1,-3,-4,-3,11,607,82,2,7.079516434294769,50.46664492669425,1528.2541559968554,-155.44989433521516,-11.674473867966185
2025-02-19 13:28:57.929,775,-79,618,-3,0,-4,-4,-5,12,651,84,2,7.284709527497179,51.203911520715536,1554.380740677823,-158.4465529207071,-3.493287405025171
2025-02-19 13:28:58.037,760,-63,628,-2,2,-4,-4,-4,11,659,85,2,5.728658966796289,50.291612431426636,1529.3060371428455,-126.77142149999902,-7.689725428561815
2025-02-19 13:28:58.145,689,-101,617,0,-9,-15,-5,-3,10,523,95,2,9.296597302155131,47.77879014266394,1429.5558867678278,-209.55753927946387,-46.16833401415056
2025-02-19 13:28:58.253,850,70,619,44,-22,-11,-3,-4,12,764,103,2,-6.451918882196394,53.76316958795105,1656.5804970651357,136.42427622889352,31.61961449021294
2025-02-19 13:28:58.361,697,-87,655,6,1,35,-5,-4,11,729,104,2,7.56599261614746,46.52924014872527,1422.7255692563824,-177.58554451263308,-26.994616733042335
2025-02-19 13:28:58.467,788,-100,574,-12,7,3,-4,-2,12,0,104,2,9.882656164628681,53.52084964717815,1592.0732604219666,-202.03975386065565,-11.708187160163448
2025-02-19 13:28:58.565,758,8,611,6,-61,23,-5,-3,11,1,108,2,-0.7501473741029738,51.12640362911847,1536.5324502609144,16.216701322014927,-16.550563468890232
2025-02-19 13:28:58.680,819,36,579,-9,7,20,-4,-1,11,448,108,2,-3.557851866118088,54.689108396820835,1635.027727873325,71.86935067575055,2.1012766316787292
2025-02-19 13:28:58.792,649,-179,641,-18,21,3,-4,1,10,415,56,2,15.602453122123235,44.27981738657396,1347.1631371531996,-371.5596325892492,-48.55712005423891
2025-02-19 13:28:59.607,806,-40,598,5,-1,-6,-5,-4,10,780,92,3,3.8267930981243246,53.36575034143526,1608.4609268458062,-79.82436361517648,2.6257639531116865
2025-02-19 13:28:59.704,766,-43,616,-2,4,-3,-5,-2,12,799,90,3,3.993065699379779,51.126516272226404,1544.5336841252456,-86.7035880122527,-10.079307338317676
2025-02-19 13:28:59.810,756,-57,620,-1,2,-6,-4,-3,12,795,91,3,5.252749442572157,50.526347362571926,1527.917001234648,-115.20009136292981,-13.05362535116626
2025-02-19 13:28:59.915,991,-46,628,6,4,-11,-4,-3,11,778,106,3,4.189342902480625,57.568079382519784,1835.029274728467,-85.17794817104893,93.13583801263633
2025-02-19 13:29:00.028,796,74,597,19,-30,6,-6,-4,10,842,102,3,-7.06594855589677,52.920211643550275,1593.79666668057,148.16702680196255,-1.3475000104274386
2025-02-19 13:29:00.135,700,-2,680,-9,5,25,-5,-3,11,795,104,3,0.16851651265057685,45.830191629269166,1417.2778746073968,-4.049365356021134,-16.784221047185497
2025-02-19 13:29:00.238,987,42,635,11,-29,17,-4,-3,10,722,102,3,-3.7841303510163633,57.1873129600952,1827.4466321053942,77.76368647256996,94.2871211885257
2025-02-19 13:29:00.347,652,-45,660,-17,9,43,-3,-4,12,347,106,3,3.90049374238189,44.58421147165784,1353.9568191574385,-93.44793997252259,-50.56978626366458
2025-02-19 13:29:00.445,1088,19,568,-5,49,20,-4,-2,9,590,84,3,-1.9158697996943737,62.41964703719642,1974.3623938790493,34.47875504016723,105.26669143079039
2025-02-19 13:29:00.563,614,-119,669,11,-22,-15,-3,-1,8,562,55,3,10.086132563902067,42.101089556188185,1284.4407285045709,-248.93883826065783,-61.49649408722769
2025-02-19 13:29:01.475,731,-80,612,11,-5,-4,-5,-1,13,724,87,4,7.447416850195163,49.82453082729778,1495.0723072671835,-163.61940435208572,-27.68844329345586
2025-02-19 13:29:01.576,782,-53,604,-3,1,-2,-5,-4,10,736,96,4,5.014765263394763,52.21191865999199,1572.28249211793,-106.56134537372157,-6.397218975996907
2025-02-19 13:29:01.677,760,-54,610,-4,3,-3,-5,-2,13,757,93,4,5.05889804398845,51.13916134920963,1538.6721759943189,-109.3267072417016,-14.986878100703166
2025-02-19 13:29:01.789,824,7,608,2,-5,-7,-4,-5,11,781,106,4,-0.6596262121647837,53.57590242431153,1628.644144850317,13.835569191689586,14.281990207533227
2025-02-19 13:29:01.899,742,-75,630,-1,12,13,-4,-5,11,495,106,4,6.788974574438791,49.46783655867006,1502.041272983544,-151.82357880561432,-15.318061967160133
2025-02-19 13:29:02.002,809,-72,612,25,2,7,-5,-3,12,0,105,4,6.709836807756933,52.70323162127635,1604.5076588087895,-142.79919831178347,10.206814349840442
2025-02-19 13:29:02.111,747,-42,615,7,-8,3,-5,-4,10,715,109,4,3.906816384103421,50.470182412875175,1518.293454220669,-85.3658970244553,-20.00063500095257
2025-02-19 13:29:02.218,590,-162,589,-29,21,-31,-4,-3,10,722,81,4,15.378512150865621,44.00424398205745,1284.7116511027605,-352.75133470957144,-104.53417372800993
2025-02-19 13:29:02.327,787,-71,632,5,-3,-20,-5,-4,13,745,107,4,6.409834089906468,51.058281612118094,1564.7857077803264,-141.16872331944495,7.399533269166
2025-02-19 13:29:02.435,826,39,515,6,13,25,-5,-3,12,325,110,4,-4.330637932888771,57.9834155562852,1673.8946738335899,79.03376789286926,-13.651037559683914
2025-02-19 13:29:02.543,511,-255,706,-26,26,7,-4,0,9,499,53,4,19.85920279850351,34.245157310208356,1073.7350615906257,-535.8169094043238,-71.47740407628487
2025-02-19 13:29:02.653,879,-18,578,14,-21,-16,-3,-3,12,552,80,4,1.7837211538558557,56.65971413460878,1714.4211253282067,-35.107599836072495,28.65596081945
2025-02-19 13:29:03.565,758,-83,625,1,-2,-3,-6,-5,11,607,88,5,7.564617284183111,50.24708832813243,1526.8093359027228,-167.1836080210105,-8.912711001585308
2025-02-19 13:29:03.661,766,-63,623,2,1,-3,-5,-2,12,609,91,5,5.774325902663275,50.735243811494755,1540.22966889341,-126.6768526635572,-6.6933207840656905
2025-02-19 13:29:03.767,787,-44,616,2,3,-1,-3,-5,9,624,94,5,4.085616779974877,51.87824855942648,1573.70071730477,-87.98326754944074,0.23425430782958756
2025-02-19 13:29:03.873,750,-36,632,4,5,-6,-5,-4,9,590,94,5,3.2601606378748773,49.83454178748056,1514.185015544675,-72.6808807461444,-11.95323976564623
2025-02-19 13:29:03.988,1150,170,684,22,-45,-3,-3,-3,10,642,97,5,-13.95737802631878,58.4968022714098,2002.6110019149633,296.0381481091685,176.88180407840446
2025-02-19 13:29:04.095,783,-16,613,-18,-8,-2,-6,-4,12,797,105,5,1.4951458019679433,51.9336230791954,1570.2969837239073,-32.087805542250976,-3.3640498374904837
2025-02-19 13:29:04.197,796,25,651,5,1,-10,-5,-5,12,631,102,5,-2.199218079207454,50.7016637009897,1569.8586009186974,49.30460430021036,18.108104022522525
2025-02-19 13:29:04.309,813,116,516,9,1,10,-4,-4,12,441,104,5,-12.669814264949649,56.95493040113296,1651.2418884349288,235.60154865738218,-16.020681958700038
2025-02-19 13:29:04.415,701,-67,799,2,-17,12,-3,-2,10,710,103,5,4.793313246599361,41.16249604078084,1359.1968126440079,-129.90896782760132,48.787085160396146
2025-02-19 13:29:04.526,918,-147,464,38,34,-11,-5,-2,11,139,105,5,17.578740354294407,62.06720774892898,1801.4976738005153,-288.4751177000826,17.439084266406155
2025-02-19 13:29:04.626,539,-216,724,-7,-1,3,-5,0,10,517,50,5,16.61208033645962,35.5041543638355,1119.7619835247324,-448.73578560545866,-56.09587397385212
2025-02-19 13:29:05.645,776,-46,610,-4,-2,-5,-4,-2,12,703,84,6,4.312503143938897,51.750778930264346,1561.3253473271154,-92.55279120753518,-7.330492099922935
2025-02-19 13:29:05.741,769,-62,610,3,-9,-7,-5,-3,12,741,90,6,5.8035754958481,51.43377793091618,1550.8881361376218,-125.03909550134273,-10.223358964823547
2025-02-19 13:29:05.845,813,-13,612,1,-3,-3,-3,-4,11,776,105,6,1.2168842082872895,53.0225439806996,1611.8722423853717,-25.774094896691057,10.634917171159373
2025-02-19 13:29:05.959,773,-26,599,-3,-1,-5,-5,-3,12,782,106,6,2.4854019563096075,52.20167776419027,1563.172959493355,-52.57761571387741,-13.307377408175626
2025-02-19 13:29:06.065,793,-38,599,-1,2,-4,-5,-3,13,772,107,6,3.629926337711445,52.87872805730561,1590.3599235837128,-76.20892445924474,-3.2933092391473338
2025-02-19 13:29:06.165,662,-126,627,1,26,0,-5,-5,11,571,107,6,11.362642467901845,45.9888498010004,1381.2046008608327,-262.88788475598926,-54.180188428613405
2025-02-19 13:29:06.282,743,141,545,8,-27,39,-5,0,11,225,107,6,-14.50526350007624,52.85011607528659,1540.0584503661657,292.25873687971654,-39.65256453507436
2025-02-19 13:29:06.388,734,-163,546,0,37,-47,-4,-2,11,547,107,6,16.622194988775373,52.1774609949563,1523.9138459608846,-338.4168350022128,-41.5925884123202
2025-02-19 13:29:06.495,752,-3,583,-43,39,46,-5,-1,8,373,65,6,0.29482988235859153,52.214429421169555,1542.3093423859834,-6.152829823348338,-29.699929004026785
2025-02-19 13:29:06.606,669,-131,657,19,-27,-14,-4,-1,10,580,53,6,11.276386939496598,44.96008212460638,1375.6139694836402,-269.36536622175913,-36.93927944805921
2025-02-19 13:29:07.615,757,-22,633,8,0,-3,-4,-6,9,626,91,7,1.9905213056476267,50.08076413582223,1523.9497552354003,-44.289160654133156,-8.319940639376796
2025-02-19 13:29:07.715,758,-28,631,-1,1,-2,-4,0,11,591,95,7,2.5407766985773774,50.19646922442309,1526.2440762329575,-56.37840914844698,-8.527720452501626
2025-02-19 13:29:07.822,782,-12,612,-4,2,-12,-4,-4,9,329,103,7,1.123302714075429,51.9476126842874,1569.4475058341604,-24.083593439910388,-4.26326543542973
2025-02-19 13:29:07.933,825,151,664,6,-40,24,-4,-5,10,747,98,7,-12.811724996379562,50.4638168843232,1596.2227369277737,292.1571312437501,43.28254870297974
2025-02-19 13:29:08.039,658,-119,671,25,-6,54,-5,-4,13,622,104,7,10.05668412455652,43.99615464284443,1352.610091020129,-244.6209739078957,-37.333390690739634
2025-02-19 13:29:08.146,875,4,656,-16,-10,4,-3,-2,11,389,105,7,-0.3493601795027854,53.14006953122593,1675.104363928833,7.657619949388952,56.15032830021198
2025-02-19 13:29:08.252,881,-21,514,-16,3,-13,-3,-3,11,0,105,7,2.3395769777017126,59.71871817537565,1744.560330570961,-41.584298458558656,10.174790109564356
2025-02-19 13:29:08.362,696,-51,656,3,-18,10,-5,-2,13,612,109,7,4.445455601829082,46.60847552400133,1422.6763009906051,-104.24783240017365,-28.913295186547316
2025-02-19 13:29:08.470,869,-2,530,-47,58,24,-3,-2,11,471,76,7,0.2162094624623662,58.62095253241099,1722.7412685636446,-3.9648820910555687,9.306245870274324
2025-02-19 13:29:08.576,731,-67,626,20,-29,-15,-5,-3,10,538,70,7,6.109040056863552,49.26325650288425,1488.7159928833505,-136.44866145442472,-22.878538365222084
2025-02-19 13:29:09.585,780,-63,614,-2,-2,2,-5,-4,11,352,89,8,5.85838137530748,51.64499674549623,1564.1810286434197,-126.33769846735316,-3.291219983409974
2025-02-19 13:29:09.691,777,-66,603,-2,-5,-1,-3,-2,10,412,93,8,6.246315620990129,52.02096589930513,1565.2359861376272,-132.95440808891044,-8.719819357772622
2025-02-19 13:29:09.796,771,-67,606,2,-7,-3,-5,-1,13,494,101,8,6.309058378472488,51.663704368946014,1555.38359654969,-135.1630362760431,-10.519402735553967
2025-02-19 13:29:09.898,776,-49,616,-5,-5,-2,-5,-4,12,506,108,8,4.548042409125415,51.46892243357455,1558.27038616033,-98.39593933228889,-4.977523034488854
2025-02-19 13:29:10.009,832,-159,594,0,23,-21,-6,-5,11,0,108,8,14.985435810321814,53.53274002630907,1636.1966237442184,-312.68661439342634,19.85000660569017
2025-02-19 13:29:10.115,786,44,602,22,-20,29,-5,0,12,78,107,8,-4.180298104695347,52.47767090665337,1579.1160358609668,88.39835315252232,-5.450195404964461
2025-02-19 13:29:10.226,791,-30,612,10,22,-62,-3,-2,10,716,106,8,2.80637025178825,52.23744832887569,1581.5554375644092,-59.98313922494599,0.3439598111020814
2025-02-19 13:29:10.334,726,2,644,-9,-22,-1,-5,-5,12,816,104,8,-0.17793663141038718,48.42515878296373,1474.0895507860746,4.0608527569864314,-19.594587749631046
2025-02-19 13:29:10.436,850,88,492,-3,10,33,-3,-3,11,488,106,8,-10.140793146112793,59.54407296294769,1712.019313295547,177.24435243530365,-6.957061342834265
2025-02-19 13:29:10.545,657,-89,659,-45,48,27,-3,-1,8,537,50,8,7.6914363056004955,44.654027369070036,1359.8241495901673,-184.20753320171212,-45.96364471829543
2025-02-19 13:29:10.656,763,-63,641,23,-37,-16,-3,-1,10,644,54,8,5.6132266972164615,49.83052544860858,1527.1398004428277,-126.09411196316924,-0.9575518792300954
2025-02-19 13:29:10.764,766,-61,628,-6,2,-1,-4,-1,11,530,67,8,5.547949822391894,50.52165307548816,1537.8649133453227,-122.46704923507141,-4.808310157784376
2025-02-19 13:29:10.869,763,-69,633,2,-3,-4,-4,-1,10,547,72,8,6.220949921159603,50.15384849992932,1530.767668842926,-138.43115222825938,-3.9553530505534127
2025-02-19 13:29:10.976,786,-21,610,1,-3,-4,-3,-1,11,564,80,8,1.9716989716717572,52.16918891362258,1575.8253043695006,-42.10220278849811,-2.968747665897581
2025-02-19 13:29:11.082,776,-36,619,-5,2,-2,-3,-3,10,564,79,8,3.3284769151737255,51.374155354112496,1557.2389769532083,-72.2430453225715,-4.179029296437875
2025-02-19 13:29:11.189,783,-39,615,-3,0,-4,-5,-2,10,566,79,8,3.628532155436422,51.79660623170153,1568.8202619643212,-78.14047281814628,-2.2151482861527256
2025-02-19 13:29:11.295,783,-38,616,-2,-1,-3,-5,-3,10,571,80,8,3.5300066878926986,51.75435350424456,1568.3639692187871,-76.1147264754967,-1.8597765501567665
2025-02-19 13:29:11.406,779,-36,618,-3,0,-2,-3,-3,11,581,80,8,3.333850661536574,51.52690014683315,1561.9003388015526,-72.18024672253644,-3.094235403542143
2025-02-19 13:29:13.024,771,-7,610,-1,-1,-1,-3,-5,12,649,101,9,0.6574636934272293,51.64781410252945,1555.211540597942,-14.11994913642749,-10.45271046010987
2025-02-19 13:29:13.118,774,-10,611,-1,0,-1,-6,-5,10,655,102,9,0.9376540830039112,51.708505413500816,1558.8683665149488,-20.140418172027758,-8.579550310896138
2025-02-19 13:29:13.223,778,-5,621,-1,-1,0,-6,-6,11,662,102,9,0.4613087073608528,51.402209147690634,1559.5445267016567,-10.022779734586482,-2.829243035641298
2025-02-19 13:29:13.335,763,-11,621,-2,0,-6,-4,-5,13,638,103,9,1.014794960117152,50.85371441624529,1538.5366713824462,-22.180738381660433,-10.20350318282965
2025-02-19 13:29:13.438,773,0,623,-7,3,-9,-5,-4,11,399,105,9,0.0,51.13289314929531,1551.6035299288587,0.0,-4.516169658058175
2025-02-19 13:29:13.548,791,-40,625,4,12,4,-5,-5,10,21,105,9,3.661935575519803,51.62938185185476,1575.0118850938109,-79.64661871523694,5.521582574422723
2025-02-19 13:29:13.655,844,-1,596,14,-23,21,-5,-4,12,239,101,9,0.09613376803193488,54.771709350648926,1660.8601766448405,-1.9678438111905692,19.165088530420803
2025-02-19 13:29:13.760,792,-46,563,2,3,-25,-4,-4,11,695,106,9,4.670984674374723,54.502494190917325,1606.140796655221,-93.2859553612881,-15.738975400112736
2025-02-19 13:29:13.872,625,-83,666,-18,18,-6,-6,-2,10,750,74,9,7.103838830179236,42.960734668081244,1306.4969964410902,-173.50280112737676,-60.20319940762545
2025-02-19 13:29:13.978,825,-30,552,5,8,-7,-4,-4,12,742,103,9,3.1108406534907718,56.174817672301536,1655.7398890134023,-60.208723236850986,-3.8405075580579933
2025-02-19 13:29:14.085,753,90,554,-13,-15,53,-5,-2,10,0,109,9,-9.227367194289329,53.30029546400798,1554.7787260782607,185.83012662289968,-35.88766832318231
2025-02-19 13:29:14.190,773,26,581,-35,62,36,-4,1,11,374,67,9,-2.56230127723861,53.043320746711395,1572.0903078443052,52.87755239838544,-19.609920902382214
2025-02-19 13:29:14.297,677,-142,670,13,-16,-9,-3,0,8,1,48,9,11.96621281488538,44.668380109849394,1380.0023259637405,-289.4539590647728,-25.733468826744684
2025-02-19 13:29:14.400,731,-123,655,-8,6,4,-3,-1,7,0,49,9,10.635498887009417,47.64473681975083,1469.9816140123864,-247.34300755611977,-7.151788205353228
