Timestamp,Acc_X,Acc_Y,Acc_Z,Gyro_X,Gyro_Y,Gyro_Z,Mag_X,Mag_Y,Mag_Z,Force,IR_A,Letter,Roll,Pitch,Lin_Acc_X,Lin_Acc_Y,Lin_Acc_Z
2025-02-19 15:36:04.569,370,-24,942,21,6,-10,-3,1,0,0,11,noise,1.4594493549922665,21.43764754905109,735.488477803617,-47.70736072239678,11.486091645926422
2025-02-19 15:36:04.660,358,2,939,20,6,-5,-2,2,-3,0,12,noise,-0.12203555457076865,20.86963749781242,714.2428903562366,3.9901837450069078,4.608731719256866
2025-02-19 15:36:04.770,364,61,933,21,-3,0,-1,2,-2,0,12,noise,-3.7407023622161826,21.2713688886791,726.7856123608067,121.79648998354179,3.1127023828772735
2025-02-19 15:36:04.869,359,49,920,-13,-12,3,-2,1,-1,0,12,noise,-3.048742407025118,21.28912648044221,722.0744087662822,98.5561170739494,-10.44138179660058
2025-02-19 15:36:04.987,367,46,903,-8,-10,-2,-4,1,-1,0,11,noise,-2.916201092979111,22.092072205823275,743.0960593751314,93.1401055347576,-22.380767345350364
2025-02-19 15:36:05.090,401,30,918,-13,-17,1,-3,1,0,0,12,noise,-1.871744965288753,23.585412962661664,801.1157211207474,59.93384447287387,2.0243591300595654
2025-02-19 15:36:05.200,465,-20,897,-19,-14,6,-3,1,1,0,11,noise,1.2772862374201646,27.396164518906257,925.140351816365,-39.790982873822145,9.374418109076828
2025-02-19 15:36:05.307,466,-11,837,-31,-24,10,-6,4,4,0,11,noise,0.7529477817055632,29.104783850133696,952.4083334100806,-22.481741775774438,-36.656169665745665
2025-02-19 15:36:05.415,476,-219,914,-98,-22,-52,-4,6,6,0,10,noise,13.474393188436391,26.860053627472237,927.8128419769396,-426.8718747751046,46.44340847285116
2025-02-19 15:36:05.519,593,-189,872,8,1,20,-4,6,7,138,11,noise,12.229306605444297,33.608570618341986,1146.5161359993315,-365.41576678562166,58.06058922189368
2025-02-19 15:36:05.629,495,-204,826,49,13,31,-4,7,7,0,10,noise,13.87291500636081,30.190534634622274,997.877160021788,-411.246344736252,-13.144513490902682
2025-02-19 15:36:05.732,407,-148,870,18,-6,5,-2,7,4,0,10,noise,9.654445934900911,24.75870123258396,825.7976480153086,-300.2900538237485,-25.218559639602972
2025-02-19 15:36:05.842,467,-132,856,15,-13,-12,-4,7,4,0,9,noise,8.766280161838376,28.332997561846078,941.5952114794459,-266.1468263710639,-13.921843739626752
2025-02-19 15:36:05.949,512,-89,837,3,-15,-9,-4,6,6,0,9,noise,6.069576064383208,31.31128714177077,1031.6874282962908,-179.3362912468162,-12.567143523428626
2025-02-19 15:36:06.050,548,-71,832,0,-10,-4,-4,5,4,0,9,noise,4.87760629331662,33.2756328887771,1096.6673109214155,-142.08645816682574,-1.0131435887184352
2025-02-19 15:36:06.160,546,-80,834,-2,-3,0,-5,5,5,0,10,noise,5.479233765106762,33.09168246927594,1091.9803450613604,-159.9971201555107,0.030022378801277227
2025-02-19 15:36:06.269,549,-76,831,-2,-3,-2,-3,4,5,0,12,noise,5.22551048194157,33.34108269777239,1098.6219743786598,-152.0861020997781,-0.9414584857313457
2025-02-19 15:36:06.369,545,-59,821,-6,-1,1,-5,6,3,0,28,noise,4.110413705421,33.509223698088,1097.0712203520256,-118.7655082582927,-10.652242034886285
2025-02-19 15:36:06.483,555,-80,835,-3,2,0,-5,5,5,0,34,noise,5.47271167125049,33.49025175019424,1106.795100778108,-159.5380325445921,4.821785315819625
2025-02-19 15:36:06.589,534,-74,839,0,2,-1,-4,6,6,0,15,noise,5.040458033847066,32.375134396231445,1069.4603174773333,-148.20236609236457,-2.2943939391061576
2025-02-19 15:36:06.692,525,-73,820,-2,0,0,-5,6,5,0,24,noise,5.087310562096726,32.5265459717986,1062.6903062440233,-147.76455686821657,-19.82104975256948
2025-02-19 15:36:06.799,524,-79,839,-2,-1,-1,-5,6,5,0,21,noise,5.379094510826112,31.873458579193223,1052.0450044848762,-158.60983846241456,-6.476638860326602
2025-02-19 15:36:06.909,538,-88,839,4,0,-3,-4,5,6,0,17,noise,5.987676016364218,32.52733565740976,1075.701926899402,-175.9512445486011,0.4648389059512965
2025-02-19 15:36:07.017,541,-54,830,-5,-2,0,-5,4,5,0,19,noise,3.722430991276863,33.04126820903068,1086.242959687264,-108.42351168782304,-6.509531498020692
2025-02-19 15:36:07.125,471,-232,891,29,-5,1,-4,6,7,0,27,noise,14.594693602282325,27.092573432222157,926.4295157504861,-456.33046211064277,29.454992497488206
2025-02-19 15:36:07.232,532,-68,859,3,1,1,-5,5,7,1,73,noise,4.5261990909708665,31.690905793023955,1057.3366004348468,-135.14828727362703,10.759135764035136
2025-02-19 15:36:07.342,538,-83,835,-1,-1,-1,-2,6,5,0,71,noise,5.676621968995464,32.66603082211506,1077.7413156978691,-166.26864164112106,-2.7025996426034453
2025-02-19 15:36:07.449,531,-89,846,-1,-11,6,-5,5,7,0,95,noise,6.005480497277889,31.973024988748648,1060.5199421322018,-177.75193003722404,2.358058297847947
2025-02-19 15:36:07.551,537,-84,821,2,0,-3,-4,5,5,0,93,noise,5.841846803578741,33.05138960714542,1082.391034442886,-169.31256404693187,-12.828750982512588
2025-02-19 15:36:07.649,550,-83,830,1,1,-1,-3,5,6,3,89,noise,5.710593137499642,33.39934043730571,1100.471129663417,-166.07109774920656,-0.7109774920656946
2025-02-19 15:36:07.765,543,-84,827,-2,0,-1,-5,6,6,0,83,noise,5.799753364030452,33.15373791052192,1089.8874199990994,-168.60136883963966,-5.920619409309666
2025-02-19 15:36:07.875,551,-91,830,-2,2,-2,-3,5,5,1,85,noise,6.256835955671614,33.42086232532687,1101.7846852738608,-181.96443985466664,0.3243397871063962
2025-02-19 15:36:07.981,553,-79,836,1,0,0,-5,6,5,0,77,noise,5.398283651195777,33.36687940560015,1102.99805312519,-157.57115044645573,4.538205402063568
2025-02-19 15:36:10.204,727,-74,655,-26,-1,-14,-6,1,16,790,71,A,6.4457794257850045,47.80157642082568,1467.8230775478373,-149.4070257751581,-12.454079496331929
2025-02-19 15:36:10.301,763,-97,647,-4,3,-8,-8,0,14,802,80,A,8.52643519052375,49.38871380462482,1522.1431022738734,-193.50967355251072,3.2705279538715786
2025-02-19 15:36:10.399,763,-71,644,2,-3,-6,-9,0,17,827,87,A,6.2913629018311275,49.66372502475415,1525.2586827772006,-141.93101766340922,0.6256989403445914
2025-02-19 15:36:10.509,719,-61,631,2,-3,-15,-8,0,16,843,91,A,5.521736284221295,48.59740534627318,1469.081121187855,-124.63692405070815,-27.27703403273506
2025-02-19 15:36:10.619,773,-47,630,-6,-2,-7,-8,-2,16,846,105,A,4.2665434173952415,50.7418555389827,1547.3026986765421,-94.07920677593464,-1.0617078476342385
2025-02-19 15:36:10.730,643,-385,688,39,13,32,-8,-2,19,768,111,A,29.231072000834065,39.19997931081339,1275.0290228366744,-763.4310634403104,11.738774943029739
2025-02-19 15:36:10.831,887,21,658,-25,-15,26,-7,0,17,777,108,A,-1.827968244305005,53.41704454580212,1689.9948066943273,40.01115100403707,62.317268540171995
2025-02-19 15:36:10.947,745,-122,643,8,-3,-20,-8,-1,18,829,111,A,10.743345991530605,48.701169803392254,1496.2776085487076,-245.02801106435209,-5.418123888347623
2025-02-19 15:36:11.049,735,26,600,12,-23,80,-7,-1,18,791,108,A,-2.4812648011958225,50.74799549193525,1509.3705082442996,53.39269825081875,-32.1391904035097
2025-02-19 15:36:11.159,764,-75,698,-32,66,-29,-7,1,16,811,88,A,6.132893149295313,47.42098310912323,1500.3449262077024,-147.2851694575624,25.266022914952714
2025-02-19 15:36:11.269,1132,62,626,74,-34,-8,-8,-3,17,713,112,A,-5.6562156345159735,60.93867013464061,2006.1002620455874,109.87474933465234,142.61946639528452
2025-02-19 15:36:11.369,786,67,615,-18,3,15,-8,-1,18,870,106,A,-6.217459096402642,51.79469639729504,1571.7996466319073,133.98292153223636,0.1567650399200602
2025-02-19 15:36:11.480,671,-99,685,-19,57,24,-8,2,15,759,49,A,8.22376108481375,44.11246021049013,1367.0689522805983,-201.69869787746535,-25.59200046529031
2025-02-19 15:36:11.590,624,-120,606,-6,-40,-12,-8,3,14,503,38,A,11.200797787884433,45.28759395594581,1334.647153748129,-256.66291418233254,-84.14771662077919
2025-02-19 15:36:12.304,764,-21,658,-5,-1,-4,-8,-3,15,759,88,B,1.827968244305005,49.24868712461676,1521.5500268494393,-41.822710162091916,5.555081587786731
2025-02-19 15:36:12.399,771,-27,658,3,-6,-6,-9,-2,19,765,96,B,2.349724438833723,49.497528925428135,1531.3779552458536,-53.62802177903768,9.06524701456317
2025-02-19 15:36:12.511,740,-32,644,-1,-3,-5,-8,-2,17,769,100,B,2.8446556047733957,48.93293063273171,1493.9410929019487,-64.60285807143563,-12.132518687642005
2025-02-19 15:36:12.619,760,-53,633,-12,-4,-16,-8,-1,15,732,104,B,4.786113560215731,50.11081507449585,1527.2862173197416,-106.50811778677145,-6.068652057100508
2025-02-19 15:36:12.728,813,271,584,-19,-19,57,-7,1,20,570,104,B,-24.89323758218535,51.62430961876691,1596.956929152976,532.3189763843253,20.862427275107166
2025-02-19 15:36:12.836,694,-105,656,-15,24,-57,-8,-1,18,779,96,B,9.09368332863716,46.250448500099374,1416.369375065894,-214.29219651573322,-26.81600870781881
2025-02-19 15:36:12.937,691,21,676,7,-19,6,-9,-3,18,844,100,B,-1.7793262497070537,45.6148642870863,1405.6541697728294,42.718867677611314,-23.14069286024983
2025-02-19 15:36:13.048,900,142,521,-5,9,13,-7,-2,17,754,105,B,-15.245812908188642,59.036026755100146,1757.4909797021805,277.29302124189957,24.60799952796009
2025-02-19 15:36:13.155,575,-60,796,22,-22,20,-7,0,17,834,101,B,4.310625824820529,35.76590004607363,1159.47486153633,-120.98868120379097,-13.116503970293593
2025-02-19 15:36:13.259,807,32,518,-36,35,5,-7,2,17,621,104,B,-3.535015310395945,57.2546389494336,1648.082810174104,65.35148689661874,-21.87719413901584
2025-02-19 15:36:13.367,573,-69,638,-33,27,-9,-8,3,17,775,53,B,6.172574214847028,41.762058680446515,1239.0386692306602,-149.2036093837968,-103.5927940124975
2025-02-19 15:36:13.474,858,2,646,15,-28,-25,-8,1,16,806,69,B,-0.17738574753227015,53.023274480464394,1656.8799112299655,3.862190935267985,44.512327908440966
2025-02-19 15:36:14.790,784,-21,615,-3,0,-1,-8,0,19,829,92,C,1.9556813975228866,51.871774790435744,1570.6309605234624,-42.07047215687845,-2.0638274514403747
2025-02-19 15:36:14.891,784,-20,618,-2,-1,-2,-9,-2,17,832,90,C,1.8535854228728283,51.73793312791796,1569.1865281636647,-40.030268575603685,-0.9352989861541801
2025-02-19 15:36:14.997,774,-24,614,0,-2,-2,-7,-2,17,839,89,C,2.2384348968430463,51.55438065864859,1557.198646316967,-48.28522934316176,-7.297117362555127
2025-02-19 15:36:15.099,969,-56,656,18,-3,-10,-9,-1,18,865,100,C,4.8792737830067265,55.805898299199086,1796.1384334198342,-103.80160193138362,96.03837737522065
2025-02-19 15:36:15.211,770,-5,604,3,1,-22,-7,-2,19,845,103,C,0.4742919766912468,51.88785664117261,1556.804228721253,-10.109118368319823,-13.181498893034586
2025-02-19 15:36:15.313,877,80,572,12,11,57,-6,-3,15,741,98,C,-7.961750891008094,56.632233821600416,1712.157424063374,156.18311736039897,27.29071087314719
2025-02-19 15:36:15.427,759,60,666,29,-16,18,-7,1,17,848,97,C,-5.147884824136303,48.61917331591917,1509.3323273703552,119.31480848777511,7.605625785696361
2025-02-19 15:36:15.534,758,42,570,-41,60,14,-6,1,14,854,59,C,-4.214178522734045,52.98306688770252,1556.4576156256016,86.24171484996737,-30.423272963842805
2025-02-19 15:36:15.645,682,-26,673,-13,-18,-11,-6,2,13,802,44,C,2.212406843394432,45.35919589849722,1393.5258159958375,-53.125617618609645,-29.136179127857417
2025-02-19 15:36:16.659,772,-44,681,11,-26,-17,-8,3,16,710,61,D,3.696791503630679,48.52448605840241,1521.238831240591,-86.70273131423058,20.07818125020401
2025-02-19 15:36:16.754,752,-59,654,-8,7,1,-10,0,17,730,70,D,5.154930927287513,48.872126605151415,1505.2435015810304,-118.09756195914999,-1.0814495132897264
2025-02-19 15:36:16.861,750,-63,656,-4,-3,1,-7,1,17,740,69,D,5.48566748224374,48.69451989870444,1501.2010036725192,-126.10088430849157,-1.0504778788965723
2025-02-19 15:36:16.963,770,-68,651,-4,-3,-2,-8,0,17,760,75,D,5.963187670969327,49.63365670363885,1531.9188949083932,-135.286343965936,6.83220703199504
2025-02-19 15:36:17.078,785,-60,639,-5,-3,10,-7,1,17,818,76,D,5.3641577623300485,50.730798250497,1559.180559688323,-119.17303640929856,8.807162240970115
2025-02-19 15:36:17.180,668,-140,688,-1,-5,-5,-8,2,17,840,67,D,11.501984646970913,43.57428909855817,1357.2945095161372,-284.4629211560766,-21.932069681290727
2025-02-19 15:36:17.289,822,-41,607,-11,12,-4,-8,-1,17,839,77,D,3.864191401008724,53.49391546669795,1625.793688795768,-81.09189931949692,13.444319830862469
2025-02-19 15:36:17.398,672,-128,668,-7,0,-25,-9,2,16,833,64,D,10.847346842953478,44.65453428699729,1374.8304432719024,-261.8724653851243,-30.646928728617468
2025-02-19 15:36:17.507,770,-43,637,-3,-4,-2,-9,-1,15,828,78,D,3.8618312554152956,50.335990542458575,1539.8006474451254,-85.98886732485767,0.16491893175998484
2025-02-19 15:36:17.613,756,-56,670,13,-3,-20,-9,-1,17,821,92,D,4.777795786167769,48.352229104356546,1503.2442759139135,-111.35142784547506,7.759702563066298
2025-02-19 15:36:17.721,752,-250,590,21,6,-48,-8,-3,17,786,94,D,22.96377305985455,49.5656136871559,1513.1491984173663,-503.041621814284,-7.178227481710337
2025-02-19 15:36:17.827,860,43,672,-11,-1,37,-9,0,17,800,99,D,-3.661256264845536,51.93928979606916,1647.3579608066302,82.36789804033151,56.76215155574948
2025-02-19 15:36:17.938,819,-115,598,19,-8,-38,-8,-2,16,795,94,D,10.885527054658738,53.367809526509184,1621.4823716304422,-227.68067489316337,12.060490555550473
2025-02-19 15:36:18.044,683,-25,729,-4,-5,62,-8,-2,18,822,93,D,1.9641061210906152,43.11728381336541,1366.4940029402012,-50.01808209883606,-0.5272740020595847
2025-02-19 15:36:18.151,836,-121,582,19,21,5,-6,-1,18,675,96,D,11.744699097555973,54.58493707517662,1650.9754759123261,-238.95697677678402,14.636690214146142
2025-02-19 15:36:18.249,682,-71,696,-13,2,-3,-7,-1,16,788,68,D,5.824679306334062,44.269664265420815,1380.0362579915968,-143.66946380850936,-16.365448038345335
2025-02-19 15:36:19.174,753,-6,650,-2,0,-1,-6,-2,18,829,91,E,0.5288690977894533,49.19757894777328,1509.9674444709253,-12.031613103353987,-3.4247528633485445
2025-02-19 15:36:19.269,741,-19,648,-2,2,-2,-7,-3,16,828,84,E,1.679487657485791,48.818301601925484,1493.6252712103076,-38.298083877187366,-10.166229074600778
2025-02-19 15:36:19.369,756,-2,642,-5,-5,-8,-8,-1,17,818,89,E,0.17849094755360373,49.66173592029614,1518.236211332322,-4.016497913577572,-5.295830258400429
2025-02-19 15:36:19.486,757,-17,645,1,-1,-3,-8,-3,17,804,93,E,1.5097717876199686,49.557602960045585,1518.058511141131,-34.09114225812315,-3.458044499378275
2025-02-19 15:36:19.589,757,-71,625,9,-4,-17,-6,-3,16,775,94,E,6.481016763100488,50.27552861343736,1526.1266631396609,-143.13737527465776,-10.01210629100126
2025-02-19 15:36:19.703,821,306,527,-3,-11,49,-7,-1,18,680,96,E,-30.141385552075338,53.414898524098966,1623.9724833884165,605.2808525174853,11.571865108775228
2025-02-19 15:36:19.809,590,-64,597,-39,33,-51,-7,0,16,844,73,E,6.118892244984619,44.4984579181873,1290.890067334558,-140.02875306679948,-112.20571220123907
2025-02-19 15:36:19.915,974,108,577,90,-9,-22,-6,-3,16,736,91,E,-10.601667903520946,58.92303375899064,1830.4746695133558,202.9684438474768,69.62229537042481
2025-02-19 15:36:20.020,751,6,641,-14,-2,5,-8,-2,17,895,89,E,-0.5362942862440349,49.51705491847754,1511.5992495259193,12.076691740553285,-8.193234282442745
2025-02-19 15:36:20.132,664,-57,486,38,-52,-13,-6,-3,16,797,92,E,6.689315397634062,53.611844441632535,1469.0164543817864,-126.10532816229191,-103.21385064690992
2025-02-19 15:36:20.238,724,91,640,20,-18,14,-7,-2,16,885,85,E,-8.09249847888593,48.239322170596594,1469.9332662152522,184.75680556020438,-19.388522621217476
2025-02-19 15:36:20.343,640,-18,520,-41,14,9,-7,-1,16,806,84,E,1.9825238610843803,50.88935029423316,1415.9291684167085,-39.82300786171993,-110.44244933857567
2025-02-19 15:36:20.449,722,61,608,28,-25,19,-6,-1,15,877,88,E,-5.729253218101285,49.757662889238304,1485.3188772878666,125.49093007556768,-34.79484403188769
2025-02-19 15:36:20.559,672,-43,554,-40,54,-3,-7,2,16,832,58,E,4.43824694948607,50.4131877958677,1442.6599385364793,-92.31306154325688,-81.33572313870468
2025-02-19 15:36:20.666,812,17,642,3,-12,-21,-7,1,16,819,59,E,-1.5168235077612233,51.65890963515178,1596.3316866899063,33.42073728291676,21.87568613926112
2025-02-19 15:36:21.885,759,14,640,-12,-4,-4,-7,-1,17,814,77,F,-1.2531453191430126,49.85516481006533,1523.4171260656428,28.099920638891966,-4.567800635061303
2025-02-19 15:36:21.981,761,27,639,-5,-1,-11,-8,-1,16,819,79,F,-2.4195092166563366,49.95516926435339,1526.541263405095,54.161122354714266,-3.813229061570837
2025-02-19 15:36:22.087,797,-27,634,1,-6,-13,-8,-2,17,825,92,F,2.438567574811325,51.4730531036373,1579.315294165237,-53.50252564926148,11.681434754378643
2025-02-19 15:36:22.194,751,113,664,20,-11,69,-9,-3,17,803,94,F,-9.658108830201972,48.11214022018081,1495.4530344342938,225.01490398278992,5.788528809092895
2025-02-19 15:36:22.304,756,75,626,-10,-2,-12,-6,2,17,853,94,F,-6.831945863875471,50.1731093392779,1523.9830159405847,151.1887912639469,-9.922444416410144
2025-02-19 15:36:22.411,806,-141,594,12,-4,-26,-7,-3,17,788,94,F,13.353370207241,52.85785414690906,1603.1400029997853,-280.4500501525679,6.529575953011772
2025-02-19 15:36:22.518,701,117,673,23,-9,17,-6,-2,17,911,87,F,-9.862214055429137,45.74117513624819,1417.1944591985307,236.53602243399163,-14.587547846806387
2025-02-19 15:36:22.624,678,79,402,-45,26,-2,-7,-1,17,834,77,F,-11.117941590597232,58.85707133993892,1533.8798335261924,178.7264112810755,-105.46857386066267
2025-02-19 15:36:22.729,751,195,601,41,-23,20,-8,-2,17,900,85,F,-17.976133569252738,49.92489038941537,1516.2011484340915,393.68738208341915,-11.364700677615133
2025-02-19 15:36:22.839,972,169,587,-57,70,8,-7,-1,18,865,69,F,-16.061353020685353,57.85310289807958,1818.6866832292903,316.21198504706797,75.67789809095342
2025-02-19 15:36:23.959,782,44,620,-1,-1,-2,-7,-1,17,859,84,G,-4.05934636479925,51.52116736384279,1564.8380853671524,88.04715569840752,-0.6644666593788315
2025-02-19 15:36:24.319,777,49,618,-1,0,-3,-6,0,18,867,81,G,-4.533385276527512,51.4149305121438,1558.6830205426284,98.2953256198054,-3.724719041627168
2025-02-19 15:36:24.319,781,43,611,6,-8,0,-7,-2,17,881,87,G,-4.02563517857465,51.89413986974511,1567.8719082999885,86.32329328668311,-4.593772050311145
2025-02-19 15:36:24.328,750,22,661,0,-5,-26,-6,-2,18,864,90,G,-1.9062662865393634,48.593464151970636,1500.0356275384822,44.00104507446214,-0.03139973724898937
2025-02-19 15:36:24.369,948,253,490,3,-7,75,-8,-1,16,826,90,G,-27.30850699338634,59.81302125546314,1812.3890978481072,483.6861199953282,43.21660554264497
2025-02-19 15:36:24.483,695,-94,679,-7,-5,-28,-7,-1,16,898,86,G,7.8818655393680945,45.395291863262436,1406.9683459240343,-190.29499930483342,-16.577707744488293
2025-02-19 15:36:24.579,824,187,544,-2,0,41,-6,0,17,883,89,G,-18.970407808486545,55.08068476840141,1643.9589506683863,373.0829172026556,2.6678772286383037
2025-02-19 15:36:24.699,597,-251,567,-6,-45,-44,-8,1,17,855,86,G,23.87805117495394,43.91394897416559,1290.5772298751504,-542.6044969826846,-91.724102745746
2025-02-19 15:36:24.799,743,133,661,25,-16,22,-6,0,16,921,86,G,-11.37659420021007,47.77730501827696,1483.5384682059112,265.5593758699679,2.1898687966256603
2025-02-19 15:36:24.909,912,51,579,-31,42,7,-6,-2,14,882,73,G,-5.033786956200044,57.48955790732406,1755.293509545434,98.15786073115913,43.61958111095828
2025-02-19 15:36:25.010,759,66,613,1,-8,-5,-7,1,17,872,62,G,-6.14520417505339,50.91272223553817,1535.18642627988,133.49447185042436,-13.880473398638173
2025-02-19 15:36:25.119,792,54,611,-8,2,-1,-8,0,16,863,65,G,-5.05066120183058,52.24323040890581,1582.6172337410692,107.90572048234561,1.0667552830893783
2025-02-19 15:36:25.943,769,63,625,-2,-1,-2,-6,-1,15,811,76,H,-5.755972329272753,50.755906301356895,1543.4578620200896,126.44713303935717,-4.435843644416195
2025-02-19 15:36:26.040,755,67,621,-2,-1,-4,-6,-3,18,805,80,H,-6.157850771813986,50.399389283199135,1525.5064484176182,135.3760689324244,-12.754310552769539
2025-02-19 15:36:26.147,775,62,619,-4,1,-3,-8,-1,16,798,84,H,-5.719757529538105,51.24577350773105,1554.8383089713425,124.38706471770737,-3.8644041977560164
2025-02-19 15:36:26.249,775,-13,596,-1,-7,-16,-8,-2,15,784,90,H,1.2495420187397313,52.431969260706154,1567.6299620068341,-26.295728394953347,-13.558009491707253
2025-02-19 15:36:26.361,809,240,544,-1,-2,48,-6,-1,16,752,92,H,-23.805943518457717,53.68531218388149,1614.7764927460016,479.04370612983973,2.1675994390298
2025-02-19 15:36:26.470,606,-8,613,-35,10,-39,-8,-1,16,774,79,H,0.7477001895291355,44.66854840800304,1309.0044149723662,-17.28058633626886,-98.1249280166013
2025-02-19 15:36:26.577,773,182,571,25,-18,29,-8,-2,16,875,84,H,-17.679111674568173,52.21372372879835,1563.3017958122484,368.07364403341427,-12.780498588349019
2025-02-19 15:36:26.687,597,-87,612,-18,-3,-49,-4,-5,17,860,70,H,8.090777871989607,44.00271879901927,1291.6925037852175,-188.2365960290016,-100.14708930745917
2025-02-19 15:36:26.790,762,132,609,1,0,80,-6,-1,16,851,85,H,-12.22961575755787,50.72470754598946,1536.1132693517288,266.09836161998453,-9.681077474019503
2025-02-19 15:36:26.899,1038,44,639,-8,41,-15,-6,2,16,847,79,H,-3.939031679459958,58.3227326668502,1889.0195285233976,80.07404552507657,115.10647521536521
2025-02-19 15:36:26.999,524,-96,745,-7,-13,-25,-7,-2,15,819,41,H,7.342618164107401,34.899162979555946,1096.1338919803684,-200.8184229582354,-68.43463649880607
2025-02-19 15:36:27.110,842,83,609,-1,-1,-4,-7,-2,17,808,61,H,-7.760967602699494,53.87188894742125,1649.700709002239,162.6189535002207,24.80791949838067
2025-02-19 15:36:27.211,777,67,639,-3,2,0,-6,-2,15,800,58,H,-5.98566755572497,50.41258354225896,1547.6532179537294,133.4527227836549,5.219554346933023
2025-02-19 15:36:27.832,752,59,648,1,-2,-4,-7,-2,16,828,67,I,-5.202401048981965,49.131461309764795,1508.2128756338334,118.33053146595236,-3.630243897239552
2025-02-19 15:36:27.936,716,56,676,-5,16,-10,-7,-2,16,772,67,I,-4.735583035029397,46.54816734337946,1441.9527996715074,112.77843125922405,-9.396777343490271
2025-02-19 15:36:28.044,800,173,500,20,-3,-10,-7,-4,16,608,85,I,-19.085620079189663,56.52118491476901,1634.0898418377456,353.3719282974125,-21.306151148591084
2025-02-19 15:36:28.149,700,99,686,0,-8,10,-7,-2,15,885,80,I,-8.211936711198662,45.283502706320306,1410.5969145028664,199.49870647969112,-10.384976212809192
2025-02-19 15:36:28.260,565,-108,595,4,-10,-23,-8,-3,17,809,72,I,10.28789756243802,43.05505705208054,1247.7008224803576,-238.49856429713026,-123.9504236740047
2025-02-19 15:36:28.362,748,184,636,-8,-5,65,-6,-3,16,802,85,I,-16.135588661305526,48.48680894528999,1496.8031476924784,368.1975657425348,-0.6828902839789635
2025-02-19 15:36:28.469,764,57,701,-26,50,-1,-7,1,16,759,75,I,-4.648630834250059,47.36833823099885,1499.7229316549544,111.89032343499005,25.94532056266621
2025-02-19 15:36:28.579,827,153,562,23,-64,22,-6,-2,15,798,86,I,-15.229235955452447,54.8430471964696,1644.5777500911404,304.25682680041655,6.403028354025537
2025-02-19 15:36:28.687,953,142,634,-47,66,1,-7,1,15,829,71,I,-12.624460006787974,55.7157949736242,1779.253612749842,265.1143893079512,84.32026182224581
2025-02-19 15:36:29.401,732,65,642,-1,0,-5,-7,-2,14,727,71,J,-5.781274094105603,48.602761556722754,1482.1429428386018,131.61105366736217,-15.912253145331078
2025-02-19 15:36:29.496,753,67,650,0,-1,-4,-8,-2,15,715,77,J,-5.885088652558894,49.04896530730075,1508.2699764251256,134.20197665402844,-1.9594750017683964
2025-02-19 15:36:29.605,694,61,657,0,0,-10,-8,-3,14,577,82,J,-5.304492015106174,46.44599515353213,1418.7252317592934,124.70063276270443,-29.087143034374094
2025-02-19 15:36:29.710,888,359,642,72,-54,15,-6,-2,15,629,82,J,-29.213485425595724,50.36400609127026,1658.1126532219757,670.3405884084339,85.22936557600394
2025-02-19 15:36:29.819,650,140,672,-31,18,28,-7,-1,17,841,79,J,-11.768288932020644,43.43861521297146,1337.5770388809347,288.0935160666628,-38.848877119981466
2025-02-19 15:36:29.929,839,52,573,-42,-15,39,-8,-3,16,802,83,J,-5.185413049506611,55.55913474505441,1663.7103351930323,103.11434735403776,9.759210887237714
2025-02-19 15:36:30.037,683,124,633,-46,-1,24,-7,0,17,774,94,J,-11.08346812167903,46.63766552068579,1410.026196579125,255.99304300997292,-40.80319536542618
2025-02-19 15:36:30.148,1049,131,645,-11,54,38,-7,-1,14,730,69,J,-11.480658367764805,57.894818149887875,1896.0738580464144,236.78329399816994,124.15859061969763
2025-02-19 15:36:30.249,702,17,655,-17,-11,-19,-4,1,14,747,48,J,-1.4867322620401353,46.97403660527489,1433.0445812190314,34.70335880444948,-27.100000994965285
2025-02-19 15:36:30.969,729,-8,650,0,-1,-9,-7,-4,14,597,76,K,0.7051432213496981,48.276615135199506,1475.366611068468,-16.190580094029826,-15.484632639923348
2025-02-19 15:36:31.066,772,49,639,2,-1,-5,-7,-4,16,491,89,K,-4.384991669399802,50.30223132451018,1541.4244306113815,97.83652474087783,2.131850828144138
2025-02-19 15:36:31.176,706,-12,701,15,-14,82,-7,-2,14,709,88,K,0.9807164139962867,45.199412112471144,1415.563506548413,-24.060569516403614,-3.538269249911309
2025-02-19 15:36:31.279,865,157,600,-7,-17,-37,-6,-2,16,789,91,K,-14.663626224262918,54.3596616808639,1677.6907237581763,304.5057151792297,36.28389103479094
2025-02-19 15:36:31.389,478,-158,765,28,-65,-30,-7,-1,16,867,70,K,11.669554788293912,31.46335981810487,999.9532015110822,-330.52846409780534,-70.34351287861443
2025-02-19 15:36:31.496,687,-22,743,20,25,-7,-6,-3,17,716,85,K,1.6960147598291748,42.74488099640624,1365.735135904862,-43.7353318630378,8.938564807405328
2025-02-19 15:36:31.601,755,34,626,-51,-40,100,-8,-5,15,768,88,K,-3.1088567963012634,50.29507818777777,1524.3446808847402,68.64598562924657,-11.893735409069109
2025-02-19 15:36:31.709,796,25,577,21,30,-30,-8,1,16,831,88,K,-2.48093442334077,54.0370709854392,1605.3971283905069,50.42076408261641,-9.711235026786767
2025-02-19 15:36:31.819,568,-82,723,7,-10,-20,-5,0,14,722,43,K,6.470626593080897,37.9759875594502,1183.3311689952156,-170.83302087606984,-60.2472450414449
2025-02-19 15:36:32.535,740,55,655,-5,0,-3,-7,-2,13,734,65,L,-4.7998361139047,48.38691130842535,1487.6464031774294,110.56831374967382,-6.7681001097516855
2025-02-19 15:36:32.630,732,55,660,1,-1,-4,-5,-3,15,656,67,L,-4.763641690726178,47.862319681475974,1473.5347774254997,110.71641087213456,-8.596930465614719
2025-02-19 15:36:32.737,693,42,659,5,-8,-11,-7,-3,13,610,74,L,-3.646695678534379,46.38257265870522,1416.9620701682625,85.8764891011068,-29.443007562604407
2025-02-19 15:36:32.843,707,-86,737,15,6,8,-8,-2,15,645,87,L,6.655703341921628,43.61628704613969,1396.8253708325724,-169.9108654760979,17.903397024602782
2025-02-19 15:36:32.949,853,56,519,64,4,15,-7,-3,15,669,86,L,-6.1583779511157966,58.5345184712784,1705.9547945937982,111.99703223593514,0.027504813386826754
2025-02-19 15:36:33.060,800,157,678,-19,10,38,-6,-2,16,891,79,L,-13.037812309483112,48.97916183029901,1554.4709251409263,305.06491905890675,38.585890943064896
2025-02-19 15:36:33.167,570,-64,740,-17,8,-9,-6,2,13,818,34,L,4.943010718613532,37.502833184240316,1178.8006583124538,-132.35656514385448,-50.3727844758173
2025-02-19 15:36:33.273,768,56,678,4,-11,-5,-6,-1,13,802,40,L,-4.721677015969487,48.46487727630619,1516.5493892529603,110.58172629969502,17.171242300121094
2025-02-19 15:36:33.993,736,38,659,1,-4,-5,-8,-4,14,703,59,M,-3.3001992274715652,48.11209271332389,1480.4524808307374,76.43640526028264,-7.568185961217296
2025-02-19 15:36:34.089,750,63,652,5,-7,-5,-6,-1,16,736,67,M,-5.519114714800124,48.86661612237575,1503.1802390809999,126.26714008280402,-2.7646878410827185
2025-02-19 15:36:34.199,708,96,643,10,-2,-20,-7,-2,15,667,74,M,-8.491545809592326,47.440036279001404,1444.569884535018,195.873882648816,-25.946943158215504
2025-02-19 15:36:34.302,729,-36,683,1,3,-27,-7,-4,17,678,87,M,3.017190468864835,46.826259332778655,1458.2822868781063,-72.01394009274598,-0.26447453737523574
2025-02-19 15:36:34.412,940,260,626,3,-7,18,-6,-1,16,780,88,M,-22.554844799472807,54.20412176749745,1751.1058978179053,484.34843982197384,85.83798719786307
2025-02-19 15:36:34.522,750,20,626,-31,-11,-10,-9,-4,15,731,85,M,-1.829913639507065,50.134994602643694,1517.5567875551928,40.46818100147182,-14.654065346067568
2025-02-19 15:36:34.625,718,300,610,8,0,26,-7,-2,16,842,84,M,-26.188110697480855,46.56629504598001,1444.1703575145855,603.4137984044229,-6.94139008899333
2025-02-19 15:36:34.734,708,-147,701,13,-1,-17,-6,-3,15,864,79,M,11.843338887890829,44.66823004930548,1411.0004633251751,-292.9619606056508,4.950106227474862
2025-02-19 15:36:34.838,861,356,479,4,6,36,-8,0,16,852,83,M,-36.62028624456576,55.272077180947186,1682.8665078072158,695.8193690817293,21.771129802954306
2025-02-19 15:36:34.949,540,-71,742,-32,36,5,-4,0,12,840,37,M,5.465838926839661,35.9215931919077,1126.6775973384526,-148.13723965005582,-64.13847634283673
2025-02-19 15:36:35.766,726,43,659,-7,0,-3,-6,-2,14,740,66,N,-3.7332790666141302,47.70897177644089,1465.7364709469489,86.81359263184407,-12.468780101982588
2025-02-19 15:36:35.859,732,76,649,-2,-3,0,-9,-2,16,745,71,N,-6.679101479719059,48.24565267382984,1478.0068490393696,153.45426301501652,-12.418640746654319
2025-02-19 15:36:35.969,693,99,631,-5,-7,-18,-7,-3,15,629,81,N,-8.916664614609898,47.33408831745251,1428.3179384425407,204.0454197775058,-38.53191797581974
2025-02-19 15:36:36.079,755,-189,789,-2,-1,61,-7,-5,14,661,84,N,13.471011962246585,42.9406686702368,1436.2406579948736,-359.53574087553784,77.08095475767539
2025-02-19 15:36:36.184,769,276,592,-2,-2,-51,-5,1,14,805,87,N,-24.995696372329004,49.655935693324196,1531.1706793723743,549.5489044301369,5.257422381735296
2025-02-19 15:36:36.292,777,-42,555,14,-6,-22,-6,-5,13,725,85,N,4.327648203108186,54.384911410298194,1589.947433348912,-85.94310450534658,-25.676738106365633
2025-02-19 15:36:36.399,732,274,616,12,-5,18,-7,-1,15,839,87,N,-23.97974673896986,47.354171023878,1467.5554412745012,549.3308618978324,-2.9920106900174233
2025-02-19 15:36:36.499,777,73,605,2,12,-7,-8,-1,17,860,81,N,-6.880114243836072,51.89349817436837,1563.8649967343363,146.92682723501485,-7.6812394134791475
2025-02-19 15:36:36.609,545,-47,728,-23,15,11,-5,1,13,828,39,N,3.693914261955463,36.762345036325875,1143.4972260536438,-98.61352224682801,-71.46051480193171
2025-02-19 15:36:37.333,773,46,638,1,-4,-2,-8,-1,15,832,71,O,-4.123907560315601,50.39230244789775,1543.4275994210504,91.84692053475851,2.1231456266103805
2025-02-19 15:36:37.426,714,58,654,12,-13,-8,-6,-2,16,854,80,O,-5.068018126605165,47.399557727395944,1450.091862215618,117.79457704272525,-20.235403205902116
2025-02-19 15:36:37.529,686,19,675,12,3,-22,-7,-3,17,794,84,O,-1.6123443499838492,45.451727979053466,1398.6596760339835,38.738387528638015,-26.2321885174033
2025-02-19 15:36:37.643,893,292,515,-10,-22,103,-7,0,15,806,81,O,-29.55281571169079,56.45731041931617,1726.4743568922106,564.5358479423578,34.328898320841574
2025-02-19 15:36:37.754,766,-126,716,-1,-13,-60,-8,-2,15,864,83,O,9.980587398980258,46.496253274767696,1491.329356103004,-245.31005074279182,38.01590212826238
2025-02-19 15:36:37.856,751,101,574,-50,63,43,-6,-2,13,812,52,O,-9.9795056066316,52.186529927836325,1541.0108978639755,207.24647228263854,-29.81658505182679
2025-02-19 15:36:37.963,646,14,685,13,-29,-11,-6,1,14,800,42,O,-1.1708456258762727,43.3156689900455,1332.017355273712,28.867249185498395,-42.43326371902867
2025-02-19 15:36:38.879,772,75,637,0,-2,-6,-7,-2,13,739,77,P,-6.715055477886694,50.2792126587901,1541.1677546293326,149.72484662849735,2.3369693019624265
2025-02-19 15:36:38.978,756,82,644,-2,-1,-11,-9,-2,14,658,86,P,-7.256378242188807,49.34634044780193,1514.6615010539035,164.28868133124354,-2.2672046014735088
2025-02-19 15:36:39.085,771,-114,791,15,-3,52,-6,-3,16,714,83,P,8.201075677718949,43.972085384218666,1465.3078242719128,-216.66030086510773,78.68159662894539
2025-02-19 15:36:39.190,776,215,628,7,4,21,-8,-1,14,751,88,P,-18.898982627268616,49.45659961667506,1535.9138038574474,425.54312864607107,13.018210280313383
2025-02-19 15:36:39.302,845,92,653,1,-10,-24,-6,-2,15,829,81,P,-8.019516599213306,52.031058681324005,1633.3443732772955,177.8315767355162,43.78239556204278
2025-02-19 15:36:39.409,642,106,728,-12,-5,42,-7,-3,16,874,82,P,-8.284300542654613,41.11010107337782,1299.5080865342425,214.560525191012,-17.585493764686134
2025-02-19 15:36:39.508,1126,207,660,-31,70,25,-8,0,15,826,64,P,-17.413321670214252,58.43765745606042,1978.0711381098477,363.6418522102473,160.5622103441391
2025-02-19 15:36:39.622,599,-2,704,17,-41,-17,-5,-2,13,843,43,P,0.16277166299312978,40.392759817339574,1247.0236640808257,-4.163685021972707,-57.617127734392966
2025-02-19 15:36:40.439,767,63,637,5,-7,-2,-6,-3,16,843,67,Q,-5.648247373735263,50.152963055851274,1534.757766990247,126.06224161719109,-0.6293319071545511
2025-02-19 15:36:40.536,753,65,633,3,-5,0,-6,-2,16,851,70,Q,-5.8629036859504895,49.800257669040484,1516.7989313618928,130.93217867001727,-9.077986124937752
2025-02-19 15:36:40.645,744,125,611,-3,-12,-3,-7,-1,17,858,84,Q,-11.562176414535834,50.02869841319605,1510.3663076271098,253.75778017928593,-18.36802951634968
2025-02-19 15:36:40.752,652,-29,686,3,5,-41,-7,-4,15,695,86,Q,2.420683478937915,43.51882487174238,1340.5928646327466,-59.627596739800076,-38.50108150009828
2025-02-19 15:36:40.859,826,371,640,-26,-17,44,-6,-2,14,831,83,Q,-30.10033345069279,48.152691096343105,1570.9253923382112,705.5851338468236,62.81809794618016
2025-02-19 15:36:40.966,767,85,599,12,30,-12,-7,-2,17,855,84,Q,-8.076529878404656,51.73402734294291,1552.1443121692441,172.01077775017697,-14.170069086541275
2025-02-19 15:36:41.073,658,303,888,19,7,-32,-7,-2,14,820,81,Q,-18.840473352188063,35.04158424776827,1232.1708110726202,567.3978050987901,113.13118505701118
2025-02-19 15:36:41.179,762,58,639,0,-4,37,-6,2,19,893,88,Q,-5.186344276842634,49.90161654655011,1526.939573956594,116.22374709905833,-2.4650757982461755
2025-02-19 15:36:41.289,585,-71,720,-16,27,-4,-7,1,14,830,41,Q,5.631792775255539,38.95824661383233,1213.75389126499,-147.3103013330159,-53.850943095372486
2025-02-19 15:36:43.502,751,27,647,0,-3,-4,-7,-1,15,755,56,R,-2.3896274620464246,49.2298596926377,1508.3354829526527,54.22777368804477,-5.458132450554331
2025-02-19 15:36:43.599,757,40,643,2,-7,-8,-6,1,15,766,61,R,-3.559691527039861,49.600637881786845,1518.545523097464,80.24018616102848,-3.8609925385327415
2025-02-19 15:36:43.706,808,73,620,0,0,-2,-7,-1,15,763,72,R,-6.715198568878573,52.30934930466104,1599.3233090608005,144.49331876415647,12.796470770177962
2025-02-19 15:36:43.812,770,57,631,0,-1,0,-6,-2,16,794,70,R,-5.161679108778966,50.55186395602964,1542.2000431486485,114.16286033697789,-1.802892502334089
2025-02-19 15:36:43.922,746,35,654,-1,1,0,-7,-2,14,801,65,R,-3.0633655806567024,48.71912810142468,1497.4844321009782,70.25731249803516,-4.808067820428391
2025-02-19 15:36:44.024,739,37,644,0,-2,0,-7,0,15,796,63,R,-3.2882234164081967,48.88278016846766,1492.365788902774,74.71926142003062,-12.519036608100464
2025-02-19 15:36:44.132,766,46,642,-2,2,1,-6,-2,15,795,64,R,-4.098301256082255,49.960713748184745,1531.6035200383476,91.97619049838642,0.3322978268678298
2025-02-19 15:36:44.239,768,51,636,-2,0,0,-7,-1,15,798,64,R,-4.584662875731723,50.28076544752887,1537.1850733338529,102.07869627607619,-0.9813888545970713
2025-02-19 15:36:44.349,759,48,635,-1,0,0,-8,-1,15,794,65,R,-4.322798669952349,50.00288089456553,1525.0767622158467,96.44754227451995,-5.920611340003461
2025-02-19 15:36:44.459,753,51,640,0,-1,-2,-7,-2,16,799,66,R,-4.556129750252514,49.548164163310275,1513.951637983198,102.53855715424051,-6.75836428850846
2025-02-19 15:36:44.566,770,45,640,-3,1,-2,-6,-3,17,802,66,R,-4.021990177020111,50.198231466279104,1538.2637651301966,89.8985317283881,1.4431043073693672
2025-02-19 15:36:44.672,734,55,640,0,-1,-1,-6,0,15,834,63,R,-4.911788172505994,48.80925913528898,1486.5213448659006,111.38783919294897,-16.14940151795156
2025-02-19 15:36:44.779,755,45,648,2,-5,2,-6,-2,15,850,67,R,-3.972495940750659,49.293101561037794,1513.0558177464263,90.18213483256847,-2.622741588985832
2025-02-19 15:36:44.882,786,62,616,1,-12,3,-8,-2,17,847,83,R,-5.747427449052027,51.77339240948312,1571.5696257353525,123.96605190278859,0.33729077229384075
2025-02-19 15:36:44.990,764,48,629,-6,0,-3,-7,-1,17,845,84,R,-4.3638750981838115,50.45377923243669,1535.1112051559585,96.44677728728536,-5.854644035468482
2025-02-19 15:36:45.099,709,32,628,-10,3,-17,-8,-2,14,811,74,R,-2.917007286627713,48.43006092114743,1457.1463244471781,65.76682987631833,-34.674036322747156
2025-02-19 15:36:45.209,776,-113,731,10,3,35,-7,-4,16,840,85,R,8.787386477519044,46.37261553110828,1499.8421756647365,-218.404852899633,49.133208233347546
2025-02-19 15:36:45.314,861,331,663,4,6,31,-7,1,17,832,88,R,-26.53047316105075,49.28255457393202,1618.9357500550523,622.3783197075752,79.36306354645819
2025-02-19 15:36:45.429,853,-73,623,-15,-21,-22,-7,-2,17,865,82,R,6.683155343953537,53.670714180363184,1658.6255789337097,-141.9456826051123,34.6005443426717
2025-02-19 15:36:45.529,714,116,608,6,8,34,-7,-2,18,869,87,R,-10.80161823569071,49.07797018924295,1469.6016702194115,238.7588147695402,-35.42551189552114
2025-02-19 15:36:45.638,685,106,636,-1,-26,48,-7,-1,17,877,87,R,-9.462322208025617,46.73273541297436,1413.1644748165495,218.67946617599165,-40.07679705594978
2025-02-19 15:36:45.744,881,91,522,-17,77,4,-7,2,15,854,60,R,-9.88896610896664,58.975425510501616,1737.9463190728497,179.51545406995382,14.25201071960555
2025-02-19 15:36:45.856,645,-39,692,11,-20,-17,-6,0,14,749,39,R,3.22568507567072,42.94138179297206,1326.249769403788,-80.19184652208949,-38.891225468869834
2025-02-19 15:36:46.572,755,20,648,-4,-2,-3,-6,-2,15,824,62,S,-1.7678270558560691,49.347747334535455,1513.6774979131892,40.09741716326329,-3.1563160897303533
2025-02-19 15:36:46.667,770,36,641,0,-3,-2,-7,0,15,843,67,S,-3.2144828248659083,50.17934955266008,1538.0527664495053,71.90896050932753,1.6210087089182252
2025-02-19 15:36:46.772,729,49,622,9,-18,-10,-7,-1,17,852,82,S,-4.504352032155433,49.44087100300666,1488.735333216253,100.06588659478243,-26.224111468462752
2025-02-19 15:36:46.883,737,-31,692,13,-4,-22,-7,-3,16,817,84,S,2.565003519244332,46.7750187618762,1465.6700922796376,-61.649623962915555,7.821297343949709
2025-02-19 15:36:46.990,701,234,646,11,-9,57,-6,0,16,884,81,S,-19.911860874073014,45.574766715813595,1415.1644758978282,472.3944184880054,-12.131599757484878
2025-02-19 15:36:47.089,768,291,517,-7,12,3,-8,1,16,823,86,S,-29.373536054423983,52.314353155733826,1559.376701671394,590.8575783676765,-15.736659849102352
2025-02-19 15:36:47.204,607,26,624,-34,46,15,-6,-2,12,712,46,S,-2.3859440303888126,44.183964077494636,1303.9644268644936,55.85350098595853,-92.4840236630049
2025-02-19 15:36:47.309,739,29,679,3,-21,-7,-6,2,13,676,44,S,-2.4456088328171313,47.39690505538697,1475.0605232544194,57.88464840917207,2.700818281798661
2025-02-19 15:36:47.409,735,11,666,-19,5,-6,-8,0,13,655,46,S,-0.9462406515731109,47.81568146522261,1475.9884138957486,22.08962252088876,-5.426236264719364
2025-02-19 15:36:47.522,747,28,669,-2,-3,-2,-5,1,13,644,46,S,-2.3966308829470027,48.1280179516014,1491.6380310219924,55.91146568757134,2.115337679099298
2025-02-19 15:36:48.244,724,57,655,1,-9,-8,-7,-2,15,711,67,T,-4.973515402293727,47.75693090524959,1464.299456344905,115.2832444912425,-14.746055118663776
2025-02-19 15:36:48.338,757,50,654,0,7,-3,-8,-3,14,651,71,T,-4.371906582621858,49.09245258959353,1512.7672154611178,99.91857433692984,1.0650476729578031
2025-02-19 15:36:48.444,720,86,673,4,4,-4,-5,-3,15,636,74,T,-7.2821341804254045,46.70089050306191,1447.783416702467,172.9296858839058,-7.275332556611602
2025-02-19 15:36:48.559,1196,156,494,60,-19,-28,-6,-5,14,621,80,T,-17.52556837372287,66.58019454095833,2113.617288558276,275.68921155107955,114.98416342158157
2025-02-19 15:36:48.661,778,119,641,-3,-3,2,-7,-3,17,878,81,T,-10.51708120212005,50.03749202115527,1544.4648930782287,236.23563274589876,9.503860587217787
2025-02-19 15:36:48.773,875,149,684,0,-5,-22,-5,-2,15,815,82,T,-12.289114957027719,51.33856621562701,1655.851085995827,281.96778492957515,73.59755106154773
2025-02-19 15:36:48.872,820,274,515,-4,-2,33,-8,0,15,790,87,T,-28.014711640810635,54.57171010318479,1634.841675232501,546.2763646508602,3.239679579587687
2025-02-19 15:36:48.986,591,-17,632,-29,49,11,-6,1,14,806,45,T,1.5408124001617811,43.06959159963036,1273.8861608494071,-36.64308753712339,-98.26066608599888
2025-02-19 15:36:49.089,765,13,698,4,-15,-13,-6,-1,15,773,42,T,-1.066990011897766,47.61715609606854,1503.6572141272627,25.552344815234527,24.035639920484527
2025-02-19 15:36:49.709,746,31,657,0,0,-3,-6,-2,14,748,58,U,-2.7014502291171265,48.59812114505337,1496.089383352908,62.16993416077768,-3.6015078590626217
2025-02-19 15:36:49.805,754,53,670,2,-4,-4,-8,-2,13,749,62,U,-4.522934283997203,48.28714565237784,1500.4889186077419,105.472032740332,6.674303093916251
2025-02-19 15:36:49.909,729,78,660,-3,4,-10,-6,-2,14,713,66,U,-6.740056097946948,47.64612316660163,1467.9979154741538,157.06973581204937,-9.05161071734085
2025-02-19 15:36:50.021,760,-1,537,-7,-3,-16,-7,-4,15,516,88,U,0.10669592790226687,54.75573028134893,1576.6992726817593,-2.0746043061602095,-40.06251240803249
2025-02-19 15:36:50.128,781,316,611,15,-7,29,-7,-1,15,808,84,U,-27.347324652260305,48.62748228473452,1531.428185767756,619.6303542927155,23.917257997312618
2025-02-19 15:36:50.239,735,-172,695,1,-2,-30,-6,-1,17,862,83,U,13.900379746767085,45.75152480998566,1451.3205134369016,-339.62874600156067,17.662915865787
2025-02-19 15:36:50.341,839,296,514,2,6,52,-7,-2,15,844,84,U,-29.93658540637721,54.74130927276116,1655.5540033436228,584.081030977011,13.75118269532561
2025-02-19 15:36:50.451,676,-125,704,-55,52,-5,-5,1,13,795,39,U,10.068325329939574,43.39354942032075,1363.005705873412,-252.0350787487818,-11.461563513139254
2025-02-19 15:36:51.265,740,35,662,1,0,-2,-7,-2,13,706,58,V,-3.0264152957712165,48.144617511137504,1484.8313767195193,70.22851106105833,-4.322123497731809
2025-02-19 15:36:51.361,719,61,662,2,3,-6,-6,-2,16,680,62,V,-5.264653850864692,47.242793916680704,1453.237130939757,123.2927190366136,-14.029180364560716
2025-02-19 15:36:51.471,672,54,641,13,-16,-28,-7,-2,14,479,71,V,-4.815419427288568,46.2513125457179,1394.3798032202706,112.04837704448605,-48.055734916954634
2025-02-19 15:36:51.582,871,-203,715,-20,-19,76,-7,-3,13,719,83,V,15.850097150212633,49.52455126802983,1631.684184570623,-380.28919571508214,90.55775893456291
2025-02-19 15:36:51.689,842,195,511,0,-20,-56,-7,0,17,842,86,V,-20.887089266755016,56.993241567103766,1680.6063181753839,389.214052309026,2.0595860004498263
2025-02-19 15:36:51.789,767,93,622,-7,1,-22,-7,-3,15,872,83,V,-8.503737175984933,50.64940232222273,1540.2805718961154,186.76152957801662,-5.093240833616164
2025-02-19 15:36:51.901,627,-14,686,-23,27,24,-6,-2,12,772,47,V,1.169139327907419,42.421189366882565,1301.5754401346003,-29.062290529321217,-52.052235936739635
2025-02-19 15:36:52.719,739,61,650,1,-2,-1,-5,-3,15,292,65,W,-5.361286204685202,48.54160051729268,1488.4366292186921,122.86148089626553,-9.179714468403176
2025-02-19 15:36:52.815,738,76,654,2,-2,-5,-7,-4,16,312,70,W,-6.628494140826552,48.262494781926904,1484.202569520729,152.8447090563352,-7.268943721621554
2025-02-19 15:36:52.921,734,121,641,-3,-1,-14,-8,-1,13,82,75,W,-10.689797922502864,48.37186696562057,1481.472003249012,244.22086157102243,-11.765060058060953
2025-02-19 15:36:53.027,750,8,596,-2,7,-19,-7,-3,15,0,85,W,-0.7690246825780402,51.524490961323316,1532.8741779301358,16.350657897921444,-26.124013395147813
2025-02-19 15:36:53.129,724,202,610,24,0,11,-7,-2,15,702,88,W,-18.32216200105969,48.40979107984623,1471.9115356595753,410.67145055695323,-20.146459602680693
2025-02-19 15:36:53.239,723,-136,699,9,-4,-26,-7,-2,16,816,87,W,11.010122538752997,45.4348705622512,1435.453248744443,-270.0161021151373,10.196651628816653
2025-02-19 15:36:53.352,764,317,522,0,-13,42,-8,0,16,833,92,W,-31.269459840273175,51.362369787357636,1545.1105578000124,641.0995377259214,-11.690721428804409
2025-02-19 15:36:53.459,751,-141,659,1,-14,-37,-6,-3,16,886,88,W,12.076943072141063,48.09654860359503,1495.2713158289728,-280.7366917867978,5.904397960994515
2025-02-19 15:36:53.564,651,34,626,-49,51,26,-6,1,15,843,47,W,-3.1088567963012634,46.07938282294405,1371.3015529710729,71.61943594626186,-66.64020301058599
2025-02-19 15:36:54.383,764,41,621,3,-8,-5,-7,-2,17,809,71,X,-3.7773310730728493,50.83384839731123,1539.3177348630575,82.60736535259863,-9.199363023506066
2025-02-19 15:36:54.482,776,28,622,-1,-3,-3,-7,-2,16,828,75,X,-2.5774911220492775,51.25790189209828,1555.9707993069792,56.143276263653874,-3.1827798568826893
2025-02-19 15:36:54.587,797,26,576,6,-10,-14,-8,-3,17,842,90,X,-2.58451344596558,54.11629053785328,1607.208327155662,52.4308864567719,-9.545792273100687
2025-02-19 15:36:54.695,960,247,474,-13,17,26,-7,-1,16,314,90,X,-27.523886838327495,60.89243905505472,1833.7080369650803,471.79779701080713,42.60665674849167
2025-02-19 15:36:54.801,763,65,681,-26,30,-60,-8,0,15,428,75,X,-5.452243009874825,48.12104571729128,1507.5568023046692,128.4288232631763,16.461097811953096
2025-02-19 15:36:54.909,1010,84,703,-29,-35,61,-7,-5,14,579,82,X,-6.813847515294999,54.96989783056919,1828.8505845318891,152.10242485215713,133.04756343968506
2025-02-19 15:36:55.014,781,82,606,10,3,19,-8,2,16,834,88,X,-7.706089524911961,51.9390700874023,1568.355596760463,164.6672969710089,-4.931487371114713
2025-02-19 15:36:55.120,557,-118,715,-33,27,-4,-6,1,13,699,42,X,9.371335338821783,37.54674311606144,1166.4084608878948,-247.1026900983332,-67.27477474837508
2025-02-19 15:36:55.229,827,59,615,1,-11,-11,-7,-1,14,634,54,X,-5.4798978971645305,53.23784090716431,1628.1268204739777,116.15415043284727,19.240635318626005
2025-02-19 15:36:55.949,760,50,638,-1,-2,-3,-7,-1,15,610,67,Y,-4.481105748108875,49.90102236041963,1524.9328942523723,100.32453251660343,-4.141034911859833
2025-02-19 15:36:56.046,754,63,630,3,-3,-6,-7,-1,14,635,74,Y,-5.710593137499642,49.979447286837164,1519.8138178786428,126.98709618879906,-9.870961887990688
2025-02-19 15:36:56.153,743,70,628,-4,5,-12,-7,-2,16,577,79,Y,-6.360218232166397,49.62027992260273,1504.7676627888377,141.76815127216503,-15.862842841709153
2025-02-19 15:36:56.263,923,-77,759,-37,-16,48,-6,-3,16,748,86,Y,5.792796495032159,50.424929709506394,1693.7905165231948,-141.30213409781797,125.16467817865123
2025-02-19 15:36:56.370,811,247,518,7,-1,-46,-7,-1,16,859,84,Y,-25.49339229140594,54.71621858512167,1627.301130215178,495.6145242455598,-3.3859253408905943
2025-02-19 15:36:56.476,807,289,712,6,-24,-16,-7,-1,16,889,84,Y,-22.092178224983613,46.40292332388016,1531.2070460058699,548.3504786811602,73.04657155368136
2025-02-19 15:36:56.580,872,137,456,-4,5,9,-7,-2,16,708,88,Y,-16.722296246233235,61.364271020801404,1749.6842980859772,274.8930605937831,-2.972522852299903
2025-02-19 15:36:56.689,692,47,655,-7,-2,46,-7,0,18,741,91,Y,-4.104265725669711,46.4999732353634,1417.3740494604253,96.26673457317918,-31.589598838986376
2025-02-19 15:36:56.789,764,18,502,-40,78,23,-7,1,14,753,48,Y,-2.053550563510988,56.675467410727755,1599.572207212877,37.686256190879305,-47.02781154563388
2025-02-19 15:36:57.609,748,41,642,5,-6,-5,-7,-4,16,726,78,Z,-3.654113917365856,49.30324233616371,1506.1712368682056,82.55751432031607,-8.729858381534541
2025-02-19 15:36:57.709,712,64,631,3,2,-9,-9,-5,15,629,82,Z,-5.791493933377507,48.30590070077567,1458.7066881759222,131.11970230794807,-30.7583149424255
2025-02-19 15:36:57.819,954,16,532,94,3,-19,-7,-2,15,547,82,Z,-1.7226620716228032,60.84267135386167,1827.2851713718305,30.646292182336772,45.01078493730222
2025-02-19 15:36:57.927,664,104,704,13,5,24,-5,-2,15,860,80,Z,-8.403371090560825,43.01655932859421,1346.2097036241548,210.85212225438562,-19.306673721995253
2025-02-19 15:36:58.033,987,41,607,43,-3,12,-7,-2,14,754,82,Z,-3.864191401008724,58.35047516508639,1838.273697573464,76.361926646922,83.4709884223987
2025-02-19 15:36:58.140,736,146,644,-8,-11,6,-8,1,16,896,84,Z,-12.773499103812217,48.101410132008795,1480.3279823308997,293.6520182341187,-7.286984539537116
2025-02-19 15:36:58.249,750,64,538,-30,54,16,-6,-1,14,855,60,Z,-6.7839740700429445,54.155988815904756,1560.614250324308,133.17241602767427,-43.48062223263696
2025-02-19 15:36:58.353,752,78,618,-1,-5,-5,-6,0,12,802,49,Z,-7.193470055295538,50.3640857285251,1522.1135398700426,157.87879801843528,-14.88586122298716
2025-02-19 15:36:59.469,750,44,628,-3,0,-1,-7,-2,15,725,65,a,-4.007804542372337,49.99037227079614,1515.936421119472,88.93493670567571,-13.344096617371292
2025-02-19 15:36:59.569,765,40,628,-1,-3,1,-7,-2,15,758,70,a,-3.6444895127715586,50.560018629524166,1537.290466285881,80.38120085154932,-5.984853369324355
2025-02-19 15:36:59.670,754,50,637,8,-20,-6,-6,-1,15,788,86,a,-4.488111732274859,49.721186913680185,1516.9074483787608,100.59067960071357,-7.525258113090899
2025-02-19 15:36:59.785,720,-19,694,11,17,-29,-5,-2,17,475,89,a,1.5682247104786569,46.04268547042115,1439.8571225403564,-37.996229622592736,0.13771799582298172
2025-02-19 15:36:59.889,748,219,641,-10,-16,32,-7,-2,15,800,87,a,-18.862920542276928,47.83643364501634,1489.231584918325,436.0183383651246,5.8002059723979755
2025-02-19 15:36:59.999,778,-103,585,10,-1,-28,-6,-1,17,827,86,a,9.98562919617244,52.63848397547433,1572.8223987016884,-208.22712990523638,-12.649232956925061
2025-02-19 15:37:00.104,932,89,605,-11,22,-2,-6,1,16,872,81,a,-8.36861254703853,56.730000479846225,1768.0947190540937,168.84166308563772,62.25611048527196
2025-02-19 15:37:00.211,611,-44,699,-17,3,-19,-6,2,14,776,41,a,3.60184905959199,41.10076929432945,1268.385363618732,-91.3403535175519,-53.066070653835936
2025-02-19 15:37:00.932,703,53,632,4,-7,-7,-8,-1,15,670,64,b,-4.793651262167191,47.944488668030885,1445.496185912632,108.97766408729659,-35.507239682480076
2025-02-19 15:37:01.030,1297,-17,709,22,3,-15,-8,-2,15,579,85,b,1.3735425305918834,61.330019387113,2174.397650229323,-28.50020050416229,229.37399073817272
2025-02-19 15:37:01.129,728,84,731,9,-2,85,-8,-2,15,708,85,b,-6.555168147852397,44.69429042907017,1431.3238675737089,165.1527539508126,24.77781978519056
2025-02-19 15:37:01.239,774,1,574,25,1,-47,-6,0,16,773,85,b,-0.09981833022059101,53.439250417290516,1577.225730044221,2.037759341142405,-21.673861815740224
2025-02-19 15:37:01.349,660,156,709,-11,-7,37,-6,-1,16,842,83,b,-12.40896014553289,42.27528524275584,1332.693408158922,315.0002601102907,-13.635797552538975
2025-02-19 15:37:01.456,1127,35,621,-6,51,3,-6,0,13,677,75,b,-3.2258179826023685,61.10591890127029,2002.5144474842286,62.18988967342325,138.57367179440467
2025-02-19 15:37:01.563,570,-31,733,6,-25,-6,-5,2,14,770,41,b,2.421707152036303,37.84476622358151,1183.524228843377,-64.36710718270996,-55.97063112665819
2025-02-19 15:37:02.279,782,32,628,-3,-1,-2,-8,-1,15,723,68,c,-2.917007286627713,51.19685769049076,1561.3035985211625,63.88966132055908,2.1653965840280307
2025-02-19 15:37:02.374,756,40,630,-1,-5,0,-7,0,15,748,71,c,-3.6329507394882063,50.13773615807392,1523.5874570822173,80.61309296731307,-9.656214235180983
2025-02-19 15:37:02.481,768,85,633,1,3,-5,-6,-2,15,750,86,c,-7.647996898500409,50.252531563968354,1536.8700843767047,170.0962984010676,-0.7171398573622128
2025-02-19 15:37:02.589,904,139,517,15,14,32,-7,-2,15,476,83,c,-15.048614494138315,59.36547157658019,1764.4351047175649,271.3014154377672,24.91487927103867
2025-02-19 15:37:02.689,948,15,751,5,26,1,-7,1,16,874,77,c,-1.1442375944775245,51.608381009034225,1731.784308079636,27.401650444298042,130.09070108881144
2025-02-19 15:37:02.802,527,-76,735,-9,-4,0,-6,1,13,754,31,c,5.903481512996609,35.49662538075529,1107.6550047514204,-159.73772364536615,-74.83193262294867
2025-02-19 15:37:04.522,762,27,631,1,-3,0,-7,1,15,831,79,d,-2.4501473026874354,50.346643780580266,1531.9193129595783,54.280605577307895,-6.557856269677245
2025-02-19 15:37:04.619,743,15,638,3,-7,-3,-7,-2,15,835,84,d,-1.3468313314424873,49.34011459493559,1501.5907051505083,30.314751786349426,-13.387442646062254
2025-02-19 15:37:04.725,800,23,597,1,0,-14,-6,1,16,807,86,d,-2.2062839629516557,53.24749184715742,1601.2276199496914,46.03529407355362,-0.9161113874570219
2025-02-19 15:37:04.835,777,-26,617,23,11,4,-7,-2,16,737,84,d,2.4129812709727125,51.52286637500617,1559.8565360855755,-52.19597160646714,-4.650556968854744
2025-02-19 15:37:04.946,773,193,598,-19,-16,-15,-8,-1,16,867,86,d,-17.887094452852693,50.89226764350432,1548.9612870958747,386.7393640485173,-2.2908792798617696
2025-02-19 15:37:05.049,780,-1,615,7,0,-19,-6,-1,16,860,83,d,0.09316378702087871,51.74554282106292,1565.2687676708194,-2.0067548303472043,-4.154220663530737
2025-02-19 15:37:05.155,819,297,501,4,2,25,-7,1,16,857,87,d,-30.660071498657768,54.58213738691701,1633.947158602401,592.5302882843871,2.4792106717914066
2025-02-19 15:37:05.263,642,-19,673,-33,49,1,-7,0,13,846,45,d,1.6171333231765286,43.63815179942122,1332.101598402571,-39.423567553970166,-50.42426125378529
2025-02-19 15:37:06.182,722,-5,662,-1,-4,0,-6,0,15,831,47,e,0.43273935086824095,47.48155266244977,1459.0597809971198,-10.10429211216842,-13.808275651098825
2025-02-19 15:37:06.278,727,-9,664,4,-5,0,-6,-1,15,843,51,e,0.7765518682338494,47.59059944629938,1465.3446974806056,-18.140443297559077,-10.361594397692102
2025-02-19 15:37:06.384,741,26,647,7,-1,1,-7,1,15,832,57,e,-2.3012197171385367,48.851442903132444,1494.0060085821538,52.42126345902295,-10.482979153378665
2025-02-19 15:37:06.495,662,-31,614,13,-44,-15,-6,-1,14,796,83,e,2.8903294117879503,47.11794597938398,1394.7560758098714,-65.31335098203326,-65.62572590220691
2025-02-19 15:37:06.601,707,69,680,-8,-16,8,-6,-2,16,871,85,e,-5.794005190251967,45.96857390345089,1425.9586797798493,139.16711301953262,-11.501983380901379
2025-02-19 15:37:06.709,789,-88,579,9,17,-23,-7,0,16,813,85,e,8.642028804166086,53.4146944414946,1591.9703604255956,-177.55816440741754,-10.252013544258375
2025-02-19 15:37:06.815,809,96,614,-1,-15,25,-6,1,15,876,86,e,-8.886352292345018,52.46916396178427,1602.025595856071,190.10439703607273,12.12396062345158
2025-02-19 15:37:06.921,645,-36,683,-40,45,3,-5,1,13,839,42,e,3.017190468864835,43.321286571983116,1331.0886882837385,-74.29332213676679,-43.509417205881164
2025-02-19 15:37:07.739,768,6,634,-1,-1,-1,-6,2,16,829,72,f,-0.5422151649463538,50.45835744092122,1539.162078126812,12.02470373536572,-2.6103613703108977
2025-02-19 15:37:07.834,769,19,625,-1,0,0,-5,2,16,829,72,f,-1.7412554297861516,50.88477451159235,1544.8787870937722,38.16995702832467,-5.590691721206213
2025-02-19 15:37:07.940,765,5,628,0,-2,1,-7,1,15,833,74,f,-0.4561669498359123,50.61602219580116,1537.9110393669334,10.051706139653161,-6.4942911404368715
2025-02-19 15:37:08.051,770,126,582,-14,2,-7,-7,1,17,823,88,f,-12.215719134130856,52.2832632581338,1561.0448652837717,255.44370522825355,-15.906638435266359
2025-02-19 15:37:08.161,755,-121,697,-11,-19,-19,-6,-2,15,889,85,f,9.848460355811437,46.86326901221364,1484.724095731446,-237.94915971325156,23.334179172426957
2025-02-19 15:37:08.268,952,109,700,21,92,19,-6,-1,13,879,65,f,-8.850694047383561,53.34503485256127,1754.245133747837,200.8536970362544,110.11387224423777
2025-02-19 15:37:08.375,1071,317,614,19,-17,19,-7,-1,15,833,83,f,-27.306702690784057,57.17013036448037,1911.2840840719678,565.7115356216749,132.2685082911408
2025-02-19 15:37:08.481,945,228,617,-13,57,13,-6,-1,14,875,66,f,-20.280782916199925,55.159680037866956,1765.7473855212486,426.0215914273489,81.12578109353387
2025-02-19 15:37:08.586,720,20,659,5,-16,-4,-6,0,13,806,45,f,-1.7383368202635647,47.51968901022594,1457.5094517789348,40.48637366052596,-16.026012114330456
2025-02-19 15:37:09.302,764,32,629,1,-2,-1,-5,1,16,834,63,g,-2.912377745524307,50.49908617733146,1535.6144383417027,64.3189293546263,-6.268955126873152
2025-02-19 15:37:09.399,781,45,621,1,-4,1,-6,0,14,835,68,g,-4.1446237411042945,51.43747019653188,1562.9283089850182,90.05348771360542,-0.7381304477549975
2025-02-19 15:37:09.510,742,80,630,5,-14,-2,-8,-1,17,846,77,g,-7.2369220259680045,49.44061688070748,1501.7324492518196,161.91185436677299,-15.05585313833717
2025-02-19 15:37:09.616,785,-19,595,9,5,-28,-7,-1,14,776,87,g,1.8289916207943147,52.825206824150506,1581.795829521197,-38.28550415401624,-8.94078798103476
2025-02-19 15:37:09.719,823,145,620,-16,-15,2,-7,1,17,870,89,g,-13.163232489699492,52.271975913512875,1613.9243327689812,284.34875850729316,24.163929141229232
2025-02-19 15:37:09.833,749,-12,719,-3,-6,49,-8,1,16,865,86,g,0.9561690203604819,46.16674564374615,1470.3583880353242,-23.557143733543246,26.53447129853396
2025-02-19 15:37:09.939,953,-12,578,-4,39,-38,-6,3,16,670,91,g,1.189360891094449,58.75747245553398,1807.9795212669112,-22.76574423421085,59.44998605217745
2025-02-19 15:37:10.046,517,-71,795,-34,20,-15,-4,2,13,746,34,g,5.1034420385309724,32.93260100503704,1060.6521013989723,-145.6601531901877,-40.98340543942561
2025-02-19 15:37:10.759,758,44,648,5,-8,-4,-7,-1,15,748,70,h,-3.884491570053073,49.40838794401593,1517.3665707477608,88.07932600646633,-1.1682557315950817
2025-02-19 15:37:10.861,766,76,628,-1,-1,-7,-7,0,15,756,78,h,-6.900328169277295,50.44925156999596,1537.0608890097,152.50212475814254,-4.149136159388263
2025-02-19 15:37:10.964,769,6,574,3,3,-12,-6,0,16,685,84,h,-0.5988887754711634,53.25995928639749,1570.3578027673373,12.2524666015657,-24.152638216452033
2025-02-19 15:37:11.069,818,204,535,6,-3,13,-6,1,17,747,87,h,-20.87226973699573,55.00920146321564,1637.2441477085686,408.3102764456577,-0.8137151883667002
2025-02-19 15:37:11.189,714,-139,689,-12,-11,-18,-7,-1,17,864,84,h,11.405851658149887,45.44961177350417,1426.6337654507474,-277.73402436646205,1.3183972050910597
2025-02-19 15:37:11.289,970,113,576,-6,15,13,-6,0,16,874,86,h,-11.0993575535491,58.82046001502042,1825.5491902817635,212.66707062045288,67.96254267804551
2025-02-19 15:37:11.398,578,-64,729,0,-4,-11,-5,2,13,833,38,h,5.017218723350597,38.30270386478177,1197.8160657558524,-132.63015260964454,-52.740332069232295
2025-02-19 15:37:12.114,762,25,636,0,-2,-2,-6,1,16,793,68,i,-2.2510336863177343,50.12832192255648,1529.4821335565748,50.179860024822005,-4.575639031471724
2025-02-19 15:37:12.209,748,20,623,3,-5,-5,-7,0,16,768,73,i,-1.8387193883677608,50.19498895347335,1516.2275371340606,40.54084323887864,-16.847266891069353
2025-02-19 15:37:12.319,802,12,615,-2,-2,-9,-6,-2,15,769,86,i,-1.1178245823861193,52.512555745787715,1595.486724675108,23.872619321822064,6.528259756619036
2025-02-19 15:37:12.425,819,196,573,-2,-6,37,-8,0,16,690,89,i,-18.88373165145089,53.51959595186722,1623.0602512475743,388.42467551224,10.45235169125749
2025-02-19 15:37:12.532,364,-96,575,-46,11,-70,-7,0,16,785,58,i,9.478480069840112,31.980691390546028,893.633442949287,-235.6835453932185,-261.64623542813183
2025-02-19 15:37:12.639,1052,74,654,4,5,18,-7,-2,14,836,83,i,-6.45555221991668,57.968257419930254,1899.7543841107138,133.63291295075365,126.9739855433395
2025-02-19 15:37:12.749,485,-70,726,-26,34,18,-4,0,12,845,32,i,5.5073620297529,33.62232902254309,1038.7161090809755,-149.91778893952227,-102.8616395727596
2025-02-19 15:37:12.856,821,41,638,16,-27,-4,-7,1,13,822,47,i,-3.676961067442581,52.091962885991315,1609.9979087669403,80.40184440858044,24.86886017867505
2025-02-19 15:37:13.469,750,22,639,1,-2,2,-7,1,15,834,62,j,-1.9718457890602985,49.55224859592729,1510.9978875370582,44.322604701087045,-9.370200181573637
2025-02-19 15:37:13.565,707,9,632,4,-8,-3,-7,0,16,839,65,j,-0.8158657634141194,48.20301209403186,1452.5110389033641,18.490239533423306,-34.42570945816965
2025-02-19 15:37:13.675,857,6,640,6,-6,-16,-7,1,16,847,85,j,-0.537132197009115,53.2467435729148,1658.219805394211,11.609473550017814,41.656154664766404
2025-02-19 15:37:13.782,794,138,581,-15,-6,53,-6,1,18,640,95,j,-13.361385317386885,53.05332505949582,1593.1952720333938,276.9029566002624,-3.8015781503801236
2025-02-19 15:37:13.891,906,11,570,-43,14,-60,-6,-1,15,811,76,j,-1.1055707929188425,57.819589892213656,1752.375311388871,21.27607993959998,37.51222131163752
2025-02-19 15:37:13.999,805,184,537,1,-3,17,-7,-2,15,862,90,j,-18.913732493217285,54.8102845364378,1622.2483542079194,370.799623818953,-8.170641254227007
2025-02-19 15:37:14.101,659,24,649,-28,55,25,-5,0,14,856,43,j,-2.117831121716959,45.41845990829067,1371.2522330409508,49.93938329739426,-52.444156667036395
2025-02-19 15:37:14.209,778,-8,657,20,-32,-6,-6,1,13,819,46,j,0.6976310263985913,49.8177171039602,1541.9955817018376,-15.85599569873355,11.826353241507377
2025-02-19 15:37:14.929,785,80,630,1,-2,-14,-7,0,16,633,72,k,-7.2369220259680045,51.02740356830602,1562.4468654838072,159.230253807267,6.061751267772479
2025-02-19 15:37:15.027,797,120,588,-4,-2,-2,-6,-2,17,575,86,k,-11.534620653644717,53.02121675043698,1595.8583086842768,240.27979553590117,-1.3709981259157757
2025-02-19 15:37:15.136,700,-111,729,27,0,44,-8,-2,15,580,85,k,8.657551477165882,43.50946062786693,1388.4743394768052,-220.1723595456077,12.00315217344155
2025-02-19 15:37:15.244,815,120,553,6,-34,-18,-7,-1,15,746,87,k,-12.243264689367905,55.227011203994095,1636.418171907176,240.94500690657804,-4.354906827813693
2025-02-19 15:37:15.350,746,96,666,-2,11,17,-7,-1,17,841,84,k,-8.202354244625583,47.94990657881025,1488.5595238922558,191.55725776629566,3.071524246323861
2025-02-19 15:37:15.461,1000,77,593,-30,-20,38,-7,-1,14,761,84,k,-7.398360661491551,59.12149381278267,1858.2574940785528,143.08582704404856,84.05330601141827
2025-02-19 15:37:15.559,961,90,601,0,31,1,-7,1,17,843,82,k,-8.516779659164955,57.69222982757518,1806.1893592061192,169.1540502898551,72.42684195330105
2025-02-19 15:37:15.669,623,-78,714,9,-9,-13,-6,1,13,644,42,k,6.234480095541226,40.93799562267401,1278.2419129724838,-160.03670820522268,-36.95140587857702
2025-02-19 15:37:16.489,767,31,635,-5,-1,-4,-7,-1,15,659,71,l,-2.794897858662091,50.34510975822149,1536.902227255177,62.11729992817533,-2.402756593268805
2025-02-19 15:37:16.587,752,56,619,-2,-3,-16,-8,-2,16,655,77,l,-5.169390695411781,50.426270442818684,1522.805424321383,113.4004039388264,-15.47946496667032
2025-02-19 15:37:16.691,748,-84,629,-7,4,-31,-10,-3,16,722,89,l,7.606576260122147,49.68957652536749,1510.550650522883,-169.63403027262322,-12.2357743033333
2025-02-19 15:37:16.799,815,185,553,16,4,15,-8,1,16,669,95,l,-18.497091726443035,54.41665901608476,1628.2699816539584,369.607296449058,1.1738652090318737
2025-02-19 15:37:16.906,587,-84,709,-23,37,7,-6,1,14,774,44,l,6.7567198506548305,39.42623672595006,1222.0842946772505,-174.88088714291143,-58.07796409909781
2025-02-19 15:37:17.013,763,-3,656,7,-16,-13,-5,0,15,737,46,l,0.26202155529972854,49.31194369086606,1521.2702540258,-5.981403357899608,4.066465739285718
2025-02-19 15:37:17.729,751,-2,646,-4,2,1,-8,1,17,694,65,m,0.17738574753227015,49.298193873041164,1509.1137798128939,-4.018944819741396,-6.119176776470681
2025-02-19 15:37:17.829,752,-2,634,-4,1,-1,-8,-1,14,632,68,m,0.18074318440902826,49.866120397328714,1516.5403900737008,-4.033352101259842,-10.572616099369952
2025-02-19 15:37:17.939,718,3,638,12,-15,-19,-8,-2,15,548,78,m,-0.26941390550183403,48.37605377446755,1465.5205435567636,6.12334488951294,-26.231346503085206
2025-02-19 15:37:18.041,724,-159,724,-11,3,23,-6,-2,16,497,90,m,12.386281188424936,44.325361416474635,1422.7320113897035,-312.45081465602607,25.267988610296356
2025-02-19 15:37:18.151,864,79,551,15,-8,-54,-6,-1,15,642,93,m,-8.159216060752472,57.208222531801226,1704.6443355217932,155.8644704933121,14.894642508671268
2025-02-19 15:37:18.259,696,35,670,-20,-11,53,-7,-2,16,801,91,m,-2.9903449751653746,46.05140957820145,1415.9628043094035,71.20502607877745,-23.06764207945423
2025-02-19 15:37:18.364,812,-7,520,44,3,-53,-7,1,15,822,94,m,0.7712427554411444,57.36238386352705,1654.098498750177,-14.259469816811873,-19.27490067745316
2025-02-19 15:37:18.469,791,186,572,-1,-3,51,-7,-2,15,851,94,m,-18.013220943257934,52.75040722067469,1587.0063045456318,373.17720941275286,-3.620235398358318
2025-02-19 15:37:18.581,685,-60,626,-17,57,-7,-7,1,15,842,49,m,5.474883981898085,47.44630576958389,1421.6438897948783,-124.52355239079226,-47.195729943932406
2025-02-19 15:37:19.289,752,12,643,2,1,-3,-7,1,15,629,63,n,-1.069159484805214,49.46286937863398,1511.984930110982,24.12741909751567,-6.827539975214563
2025-02-19 15:37:19.393,741,38,634,5,-3,-5,-6,-1,15,558,64,n,-3.4300284400617875,49.39893164969069,1500.2591727168551,76.9363678316336,-15.622558033044811
2025-02-19 15:37:19.503,750,35,630,2,-10,-10,-8,-1,15,509,80,n,-3.179830119864234,49.92625587924308,1515.216491239271,70.7101029244993,-12.781852640987495
2025-02-19 15:37:19.610,762,-57,700,-21,0,21,-6,-2,16,544,88,n,4.65524256829092,47.333988786089684,1497.3167611361268,-112.00400969128506,24.512161685972956
2025-02-19 15:37:19.715,815,45,595,8,-5,-15,-8,0,15,600,92,n,-4.32506043473846,53.79041385749049,1621.8614867636056,89.55063423848131,5.941613957858294
2025-02-19 15:37:19.827,670,-24,714,-8,-19,13,-7,-2,16,837,90,n,1.925183708323155,43.16292918254453,1354.0753142761387,-48.50419036213036,-14.999663273377905
2025-02-19 15:37:19.929,942,62,587,12,9,15,-8,0,16,856,90,n,-6.029329014020265,57.928392689101045,1789.385149751059,117.77269563117375,58.95851071775826
2025-02-19 15:37:20.036,489,-98,739,-1,-7,-8,-5,3,13,821,39,n,7.5540116728847995,33.26336526494543,1037.4882932983173,-207.92198924996956,-89.90153118089279
2025-02-19 15:37:20.859,817,38,600,13,-24,-6,-8,-1,15,799,77,o,-3.6238925956693198,53.65192989502782,1622.4313104982512,75.46192141852332,8.495977602263565
2025-02-19 15:37:20.950,784,20,620,7,-3,4,-6,1,18,834,87,o,-1.8476102659945959,51.647979800317394,1568.2133350446452,40.00544222052666,-0.16870883632668665
2025-02-19 15:37:21.059,769,97,618,3,-1,-15,-7,1,18,838,89,o,-8.920249535275223,50.87233423860712,1544.741789355754,194.85039475618748,-5.417978962101529
2025-02-19 15:37:21.165,987,74,451,40,10,48,-7,-2,16,779,88,o,-9.31805256451281,65.1534908209843,1894.4366941714209,142.0347673441592,36.35567469978656
2025-02-19 15:37:21.269,728,-114,681,2,-12,-51,-6,0,17,876,89,o,9.50324775786055,46.51533763037659,1453.5586121362576,-227.61769475760076,2.28377079012148
2025-02-19 15:37:21.379,741,52,616,-40,83,29,-7,2,13,773,44,o,-4.825216927109811,50.162915250425925,1508.8690510606757,105.88554744285446,-22.33648509227578
2025-02-19 15:37:22.102,765,-12,609,-25,19,-20,-6,3,14,523,49,p,1.1288347966606407,51.47204077160032,1547.304288624318,-24.27143982155793,-13.775570944064725
2025-02-19 15:37:22.195,665,-1,619,-5,-7,-10,-5,2,16,726,49,p,0.09256176036887707,47.0517377525483,1396.9692438786788,-2.1007056298927504,-62.3367849036124
2025-02-19 15:37:22.305,718,-14,636,7,-18,-19,-6,0,16,678,73,p,1.2610241992825593,48.4587856106191,1466.4788867087937,-28.59429584111855,-26.998011067956895
2025-02-19 15:37:22.411,783,-281,755,9,-2,34,-6,0,15,734,88,p,20.41453333942239,44.18506268860248,1479.9781767943382,-531.1288220679553,82.94569159677474
2025-02-19 15:37:22.518,858,181,505,1,9,-56,-6,2,15,796,94,p,-19.718483844474243,57.984682707168076,1705.9063987251611,359.87069716696294,5.940872545213836
2025-02-19 15:37:22.622,601,-32,737,1,-24,15,-8,-2,14,874,84,p,2.486179208318012,39.16972229520221,1232.619698400041,-65.6303333590704,-37.54861517609015
2025-02-19 15:37:22.731,949,-30,421,13,34,-15,-7,2,16,752,91,p,4.075944973936918,66.0229044813513,1862.7079811191243,-58.88434081514619,15.656417227448571
2025-02-19 15:37:22.842,498,-79,774,-21,24,23,-4,3,12,706,30,p,5.827837183113878,32.62271333577509,1037.104709743769,-164.5206266460999,-63.88563321621939
2025-02-19 15:37:23.559,772,-22,630,-2,-6,-6,-6,1,14,762,63,q,1.999992299034176,50.76631320285106,1546.572755984229,-44.07331688037958,-2.099528847233387
2025-02-19 15:37:23.653,742,-24,632,5,-11,-4,-7,0,14,792,72,q,2.1747441146100535,49.556856425327425,1503.0500590655438,-48.61617441721435,-16.225926319978157
2025-02-19 15:37:23.759,733,8,687,-1,2,-24,-5,1,16,748,89,q,-0.6671696059845904,46.853473466848634,1462.6071894929169,15.962970690236475,3.1798919759428372
2025-02-19 15:37:23.874,854,151,527,-23,-13,57,-6,-1,14,705,90,q,-15.988464632109242,57.30247487698453,1695.5341167069018,299.7958449915013,7.692646950190692
2025-02-19 15:37:23.976,717,-251,709,-2,-1,-18,-7,0,17,837,89,q,19.494968444625666,43.63064153287475,1407.0067290510083,-492.55047279191496,26.69209079893335
2025-02-19 15:37:24.083,834,193,489,32,2,15,-7,1,16,738,93,q,-21.538308144665383,57.774859175177085,1679.959263801727,388.7675514553157,-7.012086329789497
2025-02-19 15:37:24.189,944,3,719,-19,58,18,-7,3,14,869,68,q,-0.23906306128289032,52.70495581759626,1739.5258930483778,5.528154321128319,113.08568103624634
2025-02-19 15:37:25.009,753,-11,633,1,-3,0,-6,0,14,661,66,r,0.9955610503081653,49.944073162447886,1518.4166485023952,-22.181385303487843,-10.437899737073167
2025-02-19 15:37:25.103,793,35,643,3,-5,-4,-7,1,15,669,82,r,-3.115669139390002,50.92184001165553,1569.2867517565737,69.26234087197993,13.55185198048298
2025-02-19 15:37:25.213,804,-46,621,-3,2,-19,-7,-1,15,472,86,r,4.236394799058841,52.24206771897824,1594.604808099722,-91.23360842361595,10.346286281184803
2025-02-19 15:37:25.319,807,238,588,-9,-9,28,-7,1,15,678,91,r,-22.03622694014545,51.83095909747252,1593.1909281071808,469.8629998630843,15.162000338262374
2025-02-19 15:37:25.430,699,-184,727,-2,-11,-20,-7,1,15,834,84,r,14.20301596447506,42.98713199078665,1380.8340887729855,-363.4813624237902,17.853529988611854
2025-02-19 15:37:25.530,699,-5,571,-27,36,6,-8,2,17,847,64,r,0.5017015337004228,50.754181554959914,1473.4388180580213,-10.539619585536634,-61.6245566682835
2025-02-19 15:37:26.349,764,-8,631,-1,-2,-2,-7,2,15,798,72,s,0.726373501367963,50.4438859248863,1535.0012540846956,-16.07331156109629,-5.7824493814696325
2025-02-19 15:37:26.446,731,-16,640,2,-9,-3,-7,1,16,822,77,s,1.4320961841646465,48.78856064620111,1483.2833836591617,-32.465846974755934,-18.633878990237235
2025-02-19 15:37:26.549,751,9,639,-2,3,-4,-7,-1,15,808,88,s,-0.8069294551023743,49.60388146671679,1512.582212266223,18.126817457251676,-9.004039464869038
2025-02-19 15:37:26.663,860,-20,516,29,8,-3,-7,0,15,464,86,s,2.2196555531978914,59.0172669633766,1717.322476411604,-39.93773200957219,1.6065141530375513
2025-02-19 15:37:26.769,676,-17,702,-15,-7,32,-7,2,17,780,87,s,1.387233498052758,43.91068416409132,1369.536180152967,-34.440998613314264,-18.21064862038895
2025-02-19 15:37:26.877,884,64,611,-44,81,16,-5,1,12,668,54,s,-5.979716134956197,55.202328013878144,1705.1723974083097,123.45139528747946,43.42496061484462
2025-02-19 15:37:26.980,647,-58,687,7,-34,-21,-6,4,13,733,39,s,4.825754653098168,43.1809609873457,1331.3048366343062,-119.34417391775854,-39.61116347413997
2025-02-19 15:37:27.698,758,16,642,1,-4,-3,-5,0,14,693,72,t,-1.4276366745602427,49.7277721353806,1520.981748928479,32.10515565020537,-4.219370464490339
2025-02-19 15:37:27.797,738,16,629,-2,-5,-8,-7,0,16,689,80,t,-1.4571300868711217,49.54977954343554,1498.9699299971053,32.49799306226787,-19.57735226040552
2025-02-19 15:37:27.908,760,-89,611,5,-2,-22,-7,-1,16,616,86,t,8.287580050638711,50.908503762166944,1536.1400025698463,-179.89007924831094,-12.975712592337004
2025-02-19 15:37:28.011,833,230,513,6,0,23,-7,2,17,737,89,t,-24.148748753921023,55.9841873982962,1661.8832138295284,458.8633123418865,2.5353076896182642
2025-02-19 15:37:28.121,577,-144,528,4,-25,-40,-7,1,14,465,84,t,15.255118703057777,46.51402410713071,1302.5428356588259,-325.07134893391844,-135.92827942436747
2025-02-19 15:37:28.227,726,73,656,6,-25,20,-7,1,16,830,83,t,-6.349777788904468,47.72418340522031,1465.9150942392405,147.3991761425132,-12.573418486145783
2025-02-19 15:37:28.334,802,77,557,-37,64,12,-7,1,16,794,57,t,-7.8707167944,54.9649903135692,1620.8014165149966,155.6131035806169,-11.668814213033897
2025-02-19 15:37:29.248,734,21,666,1,-3,-3,-7,0,15,667,65,u,-1.8060252976012394,47.76658480377646,1474.4127193878458,42.18347017322175,-5.818625493604031
2025-02-19 15:37:29.350,743,21,658,1,-5,-5,-8,1,14,632,72,u,-1.827968244305005,48.45745762556205,1491.463516008455,42.15441969875849,-4.8384838944325566
2025-02-19 15:37:29.456,730,12,669,1,-3,-3,-5,0,15,584,74,u,-1.0276167864416665,47.492071576101544,1467.183843536901,24.11809057868878,-6.583549761899349
2025-02-19 15:37:29.563,676,21,659,-1,-6,-7,-7,0,16,594,79,u,-1.8251962702624445,45.71503618680242,1391.8759948552251,43.23875131946706,-38.87319616803768
2025-02-19 15:37:29.669,790,150,626,1,-16,49,-6,1,13,777,83,u,-13.474961397894464,50.82561270829471,1565.2269448532875,297.1949895291052,11.706243698534308
2025-02-19 15:37:29.780,704,-129,702,-1,-2,-29,-8,1,15,825,82,u,10.412545175594515,44.60581082237678,1406.2252616292344,-257.6747993610386,1.7696965003943887
2025-02-19 15:37:29.887,811,177,542,-7,-1,31,-6,0,16,852,83,u,-18.08539488218071,54.891066678965224,1629.0600550395125,355.54085048334616,-4.718310519625106
2025-02-19 15:37:29.995,616,-103,681,-16,28,-4,-6,2,13,822,47,u,8.600693657051181,41.808814383578195,1282.647146400625,-214.46859753127325,-55.99140697861253
2025-02-19 15:37:30.807,759,4,646,4,0,-5,-7,1,14,640,74,v,-0.35476809464445286,49.59769066772537,1520.5121841527953,8.013239442175468,-2.1381699113383092
2025-02-19 15:37:30.902,751,9,651,2,-3,0,-7,2,15,552,77,v,-0.7920570921623958,49.077098462150396,1506.5917041517403,18.055027080380377,-3.9802921475138646
2025-02-19 15:37:31.011,777,21,634,1,5,-16,-8,-1,14,344,85,v,-1.8971161368627176,50.77158322332335,1551.6309281608803,41.935971031375146,1.933065052769507
2025-02-19 15:37:31.123,733,-47,644,-10,-19,59,-6,2,14,734,86,v,4.174123927183686,48.62259866509789,1483.3718466386922,-95.1138837544591,-15.262577401524823
2025-02-19 15:37:31.229,747,-61,584,21,-10,-45,-7,1,14,828,85,v,5.9630385921012845,51.83098693153166,1533.1912283210713,-125.2003546554021,-30.639460963193756
2025-02-19 15:37:31.336,895,16,668,-19,32,8,-7,-1,15,859,73,v,-1.3720916494606148,53.255615040504615,1696.3124452192083,30.325138685483054,69.92545988108236
2025-02-19 15:37:31.443,676,-50,668,0,-6,1,-5,3,14,812,48,v,4.280623998102258,45.26101982683609,1386.3207672309045,-102.53851828630951,-33.91460430509517
2025-02-19 15:37:32.759,735,-2,662,1,-5,-2,-5,0,16,742,70,w,0.17309850512015207,47.991130660078134,1478.0412357019663,-4.021880913474739,-7.242582360138385
2025-02-19 15:37:32.856,745,18,663,1,1,-3,-7,2,15,672,77,w,-1.5551595050671607,48.32258021975343,1491.9002910344902,36.04591307197427,-1.6911314843853233
2025-02-19 15:37:32.966,854,-42,680,0,2,-8,-7,-1,14,555,84,w,3.5343671387647553,51.41817481500056,1635.7183341694156,-80.44516397554503,57.554488014985054
2025-02-19 15:37:33.077,798,-56,724,-10,-18,57,-7,-2,14,738,85,w,4.422911428550351,47.698492320953314,1537.6133850958754,-107.9026936909386,52.97231728143652
2025-02-19 15:37:33.179,759,-6,574,27,-9,-41,-8,1,15,833,85,w,0.5988887754711634,52.899799921523986,1556.5818224010807,-12.304994643486804,-29.17782089357081
2025-02-19 15:37:33.286,727,-13,645,0,-10,49,-6,0,15,858,83,w,1.1546423253669917,48.414538438111315,1474.9665334589838,-26.374917379596685,-18.601669987681703
2025-02-19 15:37:33.393,769,9,602,-3,-10,-31,-8,1,13,872,86,w,-0.8565176124009063,51.94181485185284,1556.3851293563441,18.21517056463862,-14.392519990271921
2025-02-19 15:37:33.503,686,-13,615,-29,54,23,-7,1,15,860,50,w,1.2109499596423057,48.11736622827401,1430.513930658492,-27.10886457516093,-52.45782413261304
2025-02-19 15:37:34.719,785,15,615,-2,-1,1,-6,1,15,840,79,x,-1.3971810272963767,51.91517762866192,1572.0984469011696,30.04009771148732,-1.6440061709798783
2025-02-19 15:37:34.814,808,5,613,0,-5,-3,-8,1,17,847,83,x,-0.46732878409382633,52.81282385186951,1604.6652185015566,9.92985902538092,8.59928348829942
2025-02-19 15:37:34.919,774,25,612,7,-5,-3,-6,1,16,856,84,x,-2.33921330234547,51.643419024970356,1558.1639411143178,50.328292671651084,-8.036604602018542
2025-02-19 15:37:35.028,729,-34,645,-3,-15,-27,-6,-1,16,786,88,x,3.017449867222368,48.45899079323343,1477.4812615494134,-68.9085910736352,-17.23650713219706
2025-02-19 15:37:35.137,780,108,589,-11,21,34,-7,1,16,279,87,x,-10.390426359586423,52.485918779288376,1573.2037048941916,217.8282052930419,-9.970489977793363
2025-02-19 15:37:35.248,896,-15,621,36,-8,-37,-6,-2,14,481,80,x,1.3836869673685084,55.26710692968479,1717.8170865313261,-28.758098546841396,51.414720160766365
2025-02-19 15:37:35.350,790,29,615,5,0,20,-7,3,18,847,88,x,-2.6997523835495914,52.06907294331035,1578.7523916656328,57.954201719371326,0.9712393995390585
2025-02-19 15:37:35.461,623,-116,720,-24,31,-2,-6,2,15,653,40,x,9.152339049401995,40.50600155055993,1272.5276948721012,-236.93934607570424,-30.658010125060628
2025-02-19 15:37:36.379,742,-57,666,-1,-4,-2,-6,3,15,752,55,y,4.8917721804772585,47.98571986010593,1484.9780313239983,-114.07513178634485,-0.8778556088717551
2025-02-19 15:37:36.473,764,-18,641,2,-6,-7,-7,1,14,745,64,y,1.6085071389658172,49.9920546463578,1529.9552987366565,-36.04606724772228,-1.6405058772207894
2025-02-19 15:37:36.583,747,-13,638,0,-10,-11,-7,1,14,759,79,y,1.1673073285631006,49.494050567999686,1507.3385246487774,-26.232129612361586,-11.39220712974543
2025-02-19 15:37:36.689,739,-122,598,10,8,-19,-7,-1,15,707,89,y,11.530866261440336,50.44772048022446,1510.043872840649,-249.29005749196102,-25.929953936005745
2025-02-19 15:37:36.794,802,47,593,-6,-8,-30,-6,1,17,875,84,y,-4.531676239427972,53.434923248049486,1605.1807403994053,94.06919550969084,-0.8730412180142366
2025-02-19 15:37:36.899,751,-39,704,16,-7,34,-7,0,16,847,85,y,3.1708149709317732,46.80634596904401,1480.0444420553576,-76.85983121192936,20.581508379531442
2025-02-19 15:37:37.009,860,67,531,-3,39,-38,-6,4,16,573,92,y,-7.191407720708815,58.10444749440795,1709.0127042626718,133.14401300651048,6.784016321536342
2025-02-19 15:37:37.119,481,-129,773,-17,-3,-11,-6,4,13,727,38,y,9.474341460946246,31.54006685409563,1004.0946869208353,-269.28942746941317,-67.64904987485568
2025-02-19 15:37:37.935,775,-9,638,4,-7,-5,-8,1,15,747,76,z,0.8081940671822689,50.535110085098296,1547.0142186887515,-17.965326410579053,2.457972227840628
2025-02-19 15:37:38.028,688,-4,640,0,9,-16,-7,2,16,566,79,z,0.35809395932357113,47.06947259451472,1420.1801042040809,-8.256861070953958,-41.09777135263323
2025-02-19 15:37:38.140,1039,38,638,40,-25,-9,-7,-2,16,562,82,z,-3.4085744224852057,58.40265657717396,1890.7512283677343,69.15163299131271,114.98047767217099
2025-02-19 15:37:38.246,608,-11,687,-16,11,27,-7,0,15,706,87,z,0.9173212852630191,41.50541787298269,1270.69086629796,-22.989472909995982,-61.79708083338562
2025-02-19 15:37:38.357,820,117,625,23,-40,13,-5,0,16,665,85,z,-10.603049408729145,52.20873894537181,1610.248485833743,229.754966881156,22.67645896818385
2025-02-19 15:37:38.463,801,64,624,-21,-3,14,-7,1,16,816,89,z,-5.856013585428958,51.93504463913874,1588.3122812376148,126.90634956205662,10.663091769947982
2025-02-19 15:37:38.574,667,-126,729,17,-16,-15,-6,-1,15,665,85,z,9.80609275989709,42.037325839350395,1336.6145925664196,-252.49391103953354,-2.8576281573011784
2025-02-19 15:37:38.672,728,45,630,11,-6,9,-6,1,16,834,88,z,-4.085616779974877,49.05543836231101,1483.3440177159634,91.69022087529996,-23.663092254199228
2025-02-19 15:37:38.783,725,-24,583,-27,36,14,-6,1,15,739,59,z,2.3573288460819275,51.172227710746775,1504.0341473138483,-49.78871660073429,-43.450907426170374
2025-02-19 15:37:38.888,786,22,631,-2,-5,-4,-6,1,15,636,55,z,-1.9968253070489597,51.22554760625433,1565.6172837255194,43.82134890834787,5.124038128749476
2025-02-19 15:37:38.993,745,-18,630,-8,2,-1,-6,2,15,484,53,z,1.6365770416167182,49.76935762205113,1508.4507219447896,-36.4457892550419,-15.602623926466435
2025-02-19 15:37:40.408,769,-23,629,-2,-1,0,-6,1,17,606,68,0,2.094143191775357,50.699948181812914,1542.8396368978097,-46.14474856781486,-3.9585586589365676
2025-02-19 15:37:40.511,770,-24,628,-1,-1,0,-7,0,16,615,70,0,2.188582560403218,50.7793719846493,1544.71689100671,-48.14701997942993,-3.8470227950831486
2025-02-19 15:37:40.619,776,-28,627,-1,0,-2,-6,0,16,641,71,0,2.556964355474269,51.03424261271479,1553.52193366975,-56.054915132413655,-1.2297067151200736
2025-02-19 15:37:40.725,784,-19,639,-3,1,-4,-8,1,15,671,70,0,1.7031285783119057,50.80581071874281,1559.0085827125374,-37.78209575451302,7.328463835062166
2025-02-19 15:37:40.831,755,-38,589,9,-3,2,-6,-1,16,719,66,0,3.6913859864512752,51.98332737357115,1542.8315675430113,-77.65244975713168,-25.612971235541067
2025-02-19 15:37:40.942,811,35,625,-14,16,1,-3,0,15,833,59,0,-3.205215931013497,52.33685153874409,1602.6166916640652,69.16348237761069,14.937814685523222
2025-02-19 15:37:41.043,664,-90,690,3,-11,-6,-6,3,14,845,49,0,7.431407971172507,43.65849412248483,1354.358502161207,-183.57268854594673,-27.39061218559175
2025-02-19 15:37:41.150,803,5,627,-7,2,-6,-7,1,15,839,62,0,-0.4568944580131733,52.01561806049612,1591.17854538372,9.907711988690657,11.57291661819147
2025-02-19 15:37:41.258,796,1,608,4,-9,-4,-5,0,17,850,72,0,-0.09423639448754875,52.6266804991452,1590.697366580198,1.9983635258545196,0.9949762804521924
2025-02-19 15:37:41.369,648,-92,657,-2,-24,-16,-8,2,16,877,85,0,7.9713210224785245,44.326759241927796,1346.7494641477065,-191.20517083578548,-51.45431781642458
2025-02-19 15:37:41.476,632,-175,668,36,10,-36,-6,0,17,813,89,0,14.68021527676679,42.46544842037489,1307.1454779416629,-361.94692822751745,-45.60313174846635
2025-02-19 15:37:41.584,800,292,619,-36,-19,42,-7,2,15,842,92,0,-25.25459196762849,49.452358129726875,1559.8656818663421,569.3509738812148,31.053928655917844
2025-02-19 15:37:41.691,771,-52,542,34,23,-50,-7,1,19,855,91,0,5.480238539971636,54.76983761642198,1587.8413321828302,-107.09176300065779,-32.2256835837793
2025-02-19 15:37:41.801,581,-29,713,-26,21,32,-4,2,13,781,42,0,2.3291195783518233,39.15225956667169,1212.3833780894909,-60.51483298553397,-61.83020409261087
2025-02-19 15:37:43.019,732,-8,645,1,-2,-2,-6,1,15,783,65,1,0.710608889497128,48.61300363085672,1482.2611391206178,-16.19957529093572,-16.090757831692144
2025-02-19 15:37:43.112,751,-18,654,3,-1,-2,-6,0,14,772,69,1,1.5765500551837321,48.93864102486302,1505.0065633793588,-36.0720614391857,-2.61823229041363
2025-02-19 15:37:43.223,1064,29,745,19,3,-24,-8,-1,16,617,90,1,-2.2291800463279183,54.98036993919184,1882.9554836561183,51.32115509964984,171.5772224400299
2025-02-19 15:37:43.325,850,43,628,1,-21,-5,-8,0,17,832,88,1,-3.9170048991635773,53.478075163109274,1653.6291865292046,83.65418237735977,34.25984807018733
2025-02-19 15:37:43.436,719,-183,767,38,1,49,-7,-1,15,864,89,1,13.419425623705068,42.359322613007045,1392.777948122075,-354.49007580853925,48.24104838716073
2025-02-19 15:37:43.538,829,2,663,-7,0,21,-5,2,15,832,90,1,-0.17283742298708293,51.34849415743973,1609.9593223163497,3.884099691957417,38.42095211611627
2025-02-19 15:37:43.649,869,33,412,-2,5,-13,-5,2,16,467,90,1,-4.57944853940456,64.56299799327338,1772.0580952609585,67.29334538965668,-16.147221228440856
2025-02-19 15:37:43.755,760,39,661,12,-5,13,-7,1,16,848,92,1,-3.376623093176565,48.93601151784351,1513.9764166287534,77.69089506384394,5.238932379465723
2025-02-19 15:37:43.866,643,-125,667,-28,37,3,-6,2,14,744,46,1,10.614468729639649,43.456495885980814,1330.8036077948022,-258.70987709852295,-46.475904197718364
2025-02-19 15:37:44.778,761,-18,632,-4,-1,-4,-5,1,16,743,61,2,1.6314008035322296,50.279419090375804,1530.1700570534206,-36.19324707879313,-6.78511965540315
2025-02-19 15:37:44.874,782,-17,638,-9,1,-13,-7,2,16,749,62,2,1.526328888468362,50.780521496672094,1556.7295767057708,-33.84194731969067,5.931624119844287
2025-02-19 15:37:44.983,741,1,638,-2,11,-18,-7,0,15,737,63,2,-0.0898052234998959,49.271558662905534,1498.8105444342773,2.0226862947831004,-14.473856071618115
2025-02-19 15:37:45.093,694,-59,641,4,-15,-4,-6,-1,15,749,69,2,5.258896705578843,47.15298866593177,1427.1721342499159,-121.33019585121764,-36.18060238356793
2025-02-19 15:37:45.199,890,61,543,10,-6,-22,-8,0,16,770,89,2,-6.409669213286679,58.45215117552573,1742.203518322764,119.40945462661638,23.06010061880818
2025-02-19 15:37:45.307,736,7,655,11,-12,9,-6,-1,17,883,89,2,-0.6122979977967714,48.33103017019798,1482.9983473195593,14.104603846789288,-9.787931378140456
2025-02-19 15:37:45.409,868,83,524,13,19,12,-7,0,15,803,91,2,-9.00069901809499,58.56619051848711,1721.2432077977523,164.58892424794175,8.908478241909847
2025-02-19 15:37:45.524,773,37,620,-15,-51,24,-6,1,17,799,94,2,-3.4152137967535428,51.21823306926237,1552.5373277752562,74.3129121962283,-5.243393558420053
2025-02-19 15:37:45.626,1139,60,586,7,85,16,-6,2,16,834,77,2,-5.846089660783573,62.65307167065957,2027.2412759451408,106.79058521221111,129.01195109407155
2025-02-19 15:37:46.850,743,-61,641,-11,-3,-12,-5,4,14,761,52,3,5.436113833301791,49.08726288927475,1498.707898650074,-123.0433133481218,-10.963341904033996
2025-02-19 15:37:46.946,797,-17,641,-1,-6,-10,-6,1,14,796,64,3,1.5191887390230623,51.181625255198995,1576.1369731436316,-33.61898186128198,14.366625112838278
2025-02-19 15:37:47.049,765,3,645,2,3,-8,-7,1,16,817,66,3,-0.2664900760584054,49.8642090229898,1529.5188867435595,5.998113281347293,0.40564451033208115
2025-02-19 15:37:47.159,1013,2,695,-7,-6,-29,-7,2,14,688,92,3,-0.16487948591554338,55.546613167277684,1837.5867174708064,3.6280093138614156,129.2667634331582
2025-02-19 15:37:47.265,640,-30,710,9,-17,15,-6,0,16,882,92,3,2.4195092166563366,42.00635357137498,1309.2130101240627,-61.36935984956544,-32.408183106382126
2025-02-19 15:37:47.372,860,140,446,-2,17,4,-6,0,17,752,94,3,-17.4271432534249,61.47350524055717,1738.5963705804395,283.02731614100185,-9.644164277762968
2025-02-19 15:37:47.479,666,-20,783,7,-12,2,-8,4,16,821,93,3,1.4631755765127683,40.374426801010294,1313.7799341563546,-39.4528508755662,21.42088822158337
2025-02-19 15:37:47.584,898,25,533,24,32,-4,-5,1,14,742,92,3,-2.68545111171682,59.281483398695464,1757.6872316532167,48.93338618188242,22.740206602266824
2025-02-19 15:37:47.695,487,-98,738,-8,-8,-2,-5,4,12,761,40,3,7.564129020590728,33.19067804578032,1034.4270757013664,-208.15986328282116,-91.57121533389807
2025-02-19 15:37:48.612,760,-46,642,-2,0,-2,-8,3,14,738,64,4,4.098301256082255,49.73865517802932,1523.104519368575,-92.1879051196769,-2.622501887664612
2025-02-19 15:37:48.707,753,-47,645,-2,-1,-2,-7,2,15,750,64,4,4.167675238100056,49.34253850193454,1511.6182691355211,-94.35067549717064,-4.812461610107789
2025-02-19 15:37:48.817,743,-34,643,-2,-5,-7,-8,3,15,746,67,4,3.0268179780306577,49.087160296719986,1498.7067259836106,-68.58146525362416,-10.996534061186367
2025-02-19 15:37:48.923,758,-37,646,-7,3,-9,-6,1,16,786,70,4,3.2780653935387547,49.51461988103967,1518.5716572939914,-74.12552944574892,-2.1916762690215137
2025-02-19 15:37:49.031,629,-78,650,10,-41,-25,-5,1,15,835,91,4,6.84277341263094,43.8546830267812,1321.8317056776827,-163.91553742902903,-65.9628119085753
2025-02-19 15:37:49.141,782,-47,620,10,-11,-20,-7,0,16,823,96,4,4.335098372908742,51.51130970614646,1564.7310207712408,-94.04393603100806,-0.5795816856382316
2025-02-19 15:37:49.244,889,244,485,6,2,0,-6,0,15,389,92,4,-26.706638482393938,58.58727487070813,1742.4350623803866,478.23864479281707,19.402693751982554
2025-02-19 15:37:49.350,724,58,678,8,-3,3,-8,1,16,882,92,4,-4.8895048067030435,46.77498636703954,1452.6697050592768,116.37409239425145,-4.373011091422086
2025-02-19 15:37:49.460,530,-253,612,-11,-9,-36,-6,2,16,866,70,4,22.460137320437084,38.67106060292853,1154.8483907503178,-551.2766846411894,-109.52304743244247
2025-02-19 15:37:49.567,732,-13,686,11,-2,101,-7,0,17,776,95,4,1.0856501314559772,46.85289443849168,1461.600278334422,-25.957381992277988,2.248919484407679
2025-02-19 15:37:49.674,1107,-59,665,-33,80,7,-6,3,16,813,67,4,5.070109537845508,58.90656289087558,1963.3262448045732,-104.639790825176,150.5854084958977
2025-02-19 15:37:49.779,665,-93,681,3,-18,-8,-5,6,13,763,38,4,7.776429194909518,44.05438387964829,1360.340838774561,-190.24315489629197,-31.070843918009132
2025-02-19 15:37:49.887,757,-43,648,4,-5,-2,-5,3,12,704,46,4,3.7964688388863563,49.37393217763262,1515.9751464525727,-86.11219458052923,-1.6907462368125152
2025-02-19 15:37:49.991,770,-45,641,-6,-1,-5,-7,5,14,635,51,4,4.015736165479357,50.154448348659855,1537.7743768007251,-89.8699311117307,1.8527590529029112
2025-02-19 15:37:50.100,746,-52,649,-4,-1,-3,-5,2,14,705,53,4,4.580938931433297,48.88680539130939,1499.411985793012,-104.51665316519654,-6.448228927164564
2025-02-19 15:37:50.209,762,-39,646,-3,-1,-5,-6,3,14,696,55,4,3.4548398921032333,49.65833746983367,1524.1978160032104,-78.0101244411092,-0.1677022809369646
2025-02-19 15:37:50.317,744,-61,643,-6,-1,-3,-6,3,15,702,55,4,5.4193060578161125,49.037847760003984,1499.1427871505502,-122.91358873142951,-9.630123841134036
2025-02-19 15:37:50.424,752,-45,643,-1,-1,0,-7,1,14,698,57,4,4.003286215034103,49.39864833884872,1511.255954749742,-90.43419941986485,-6.204227266069097
2025-02-19 15:37:50.530,768,-43,648,0,-1,-1,-7,2,15,694,57,4,3.7964688388863563,49.781951077450046,1531.5926630977942,-85.75323504323586,3.7186905112362183
2025-02-19 15:37:51.349,766,-42,641,-2,-2,-2,-7,2,15,685,59,5,3.7488109529541735,50.01649993067308,1532.229520117061,-84.01258465393809,-0.1920657898646141
2025-02-19 15:37:51.447,758,-35,638,-1,-1,-2,-6,2,14,703,60,5,3.1400379363058493,49.87064415536714,1522.5912798346544,-70.30434669421227,-5.547805454497848
2025-02-19 15:37:51.553,755,-31,631,-2,-1,-1,-6,4,15,719,59,5,2.8125867599181658,50.07843228074176,1521.9236380502407,-62.48957984047345,-9.965318688346883
2025-02-19 15:37:51.661,752,-44,636,5,-5,0,-6,1,15,762,61,5,3.9575531141278533,49.709848017729314,1514.779488872884,-88.63071477447725,-9.116695376534949
2025-02-19 15:37:51.766,786,-56,629,-1,-5,-2,-5,1,16,825,64,5,5.087641198601641,51.22091687439132,1565.5666661986343,-111.54164542891033,5.148304021703666
2025-02-19 15:37:51.873,750,-40,647,2,-2,-1,-6,3,15,857,62,5,3.5377402260431254,49.16269383652886,1506.5694430099384,-80.35037029386339,-5.667239503240239
2025-02-19 15:37:51.979,756,-59,634,2,-3,-2,-6,4,14,863,68,5,5.316629304372267,49.89431391619311,1520.8574737533693,-118.69125787228677,-7.428093068301791
2025-02-19 15:37:52.089,716,-7,637,-6,4,-11,-6,1,14,831,71,5,0.6295986084102669,48.33991791952775,1463.1014664495533,-14.304064616126919,-27.669880067549457
2025-02-19 15:37:52.197,866,27,470,-10,-16,-17,-8,0,15,529,92,5,-3.2878460720444953,61.4706138392301,1744.572269390914,54.39197606646036,-6.823287082828585
2025-02-19 15:37:52.299,664,-103,697,24,-5,1,-6,0,17,890,91,5,8.406113608923937,43.302042020328344,1349.8442902969655,-209.38849683823412,-22.929925206302755
2025-02-19 15:37:52.409,1547,-144,717,2,6,-22,-5,1,16,781,88,5,11.35602721830978,64.69837273182503,2451.070411825358,-228.1539362009383,297.9835259994947
2025-02-19 15:37:52.516,797,98,533,15,1,9,-5,2,16,763,90,5,-10.418322034897939,55.785551530424335,1623.938805521107,199.68130858352384,-20.021810969573494
2025-02-19 15:37:52.623,649,35,852,8,-20,33,-6,0,17,850,94,5,-2.3523772054365955,37.27458760616728,1254.6355243648447,67.66139191489918,56.928402528740094
2025-02-19 15:37:52.733,1106,-30,591,8,30,-12,-7,3,15,782,87,5,2.905920999653342,61.85116748980505,1987.725107865807,-53.91659424590795,119.84309335561335
2025-02-19 15:37:52.840,489,-79,732,-8,-8,-11,-5,5,14,784,37,5,6.159719660927947,33.59115821632615,1042.2630077172805,-168.38195830197375,-96.19738578537704
2025-02-19 15:37:54.359,764,-21,639,-1,-1,-1,-6,2,13,754,64,6,1.882282443010753,50.07609365264125,1530.89744373022,-42.07964177792489,-2.423385528286076
2025-02-19 15:37:54.453,765,-39,645,-1,-1,-1,-6,3,14,766,65,6,3.460183228986457,49.812985038770414,1528.9422901785408,-77.94607753851385,0.8917945553479285
2025-02-19 15:37:54.561,760,-39,640,-1,-1,-1,-6,2,15,777,65,6,3.4871494609179647,49.84676694472749,1524.3226206934169,-78.22181869347797,-3.6401016365614396
2025-02-19 15:37:54.667,772,-3,630,1,-2,-1,-5,2,16,812,67,6,0.272834983068092,50.78309822409659,1546.7580116291665,-6.010717661771372,-2.250708971987933
2025-02-19 15:37:54.772,777,-37,637,-2,-1,0,-6,2,16,845,65,6,3.3242771411322387,50.60710437495907,1549.8122707982352,-73.80058432372547,3.433183399645145
2025-02-19 15:37:54.884,756,-34,640,-2,-1,-1,-7,2,15,866,65,6,3.040979619103375,49.71023482739377,1518.7838545143688,-68.30509398609594,-5.742945620629484
2025-02-19 15:37:54.990,764,-52,621,0,-9,-3,-7,2,15,875,73,6,4.786547784726936,50.796841458519175,1538.9096456799207,-104.74254132899983,-8.867657025171184
2025-02-19 15:37:55.091,762,-80,666,18,-3,-21,-6,2,15,856,93,6,6.849557992766558,48.64257965249205,1512.6023197552017,-158.8033931501524,9.961752024981251
2025-02-19 15:37:55.199,900,390,456,6,-18,78,-5,3,14,742,92,6,-40.539151741483444,56.308610317117974,1732.0374938594796,750.5495806724409,34.434336444530516
2025-02-19 15:37:55.314,732,-170,605,23,9,-57,-6,3,17,841,95,6,15.694924143420018,49.353523036483566,1490.7431651377392,-346.2108443625898,-22.103299055098773
2025-02-19 15:37:55.420,925,120,630,-46,43,43,-5,3,14,820,64,6,-10.784297867562598,55.26541586501991,1746.8002701618707,226.61192693991836,70.28738356542851
2025-02-19 15:37:56.235,774,-8,630,-2,1,-5,-7,4,15,842,73,7,0.7275263513507163,50.85375210575247,1549.5370866568596,-16.0158872005877,-1.2511170462812515
2025-02-19 15:37:56.333,750,22,643,13,-5,-13,-5,3,15,754,77,7,-1.9595888455964363,49.37585212396565,1508.9969646436243,44.26391096287965,-7.713397687800693
2025-02-19 15:37:56.440,907,35,551,24,-5,-12,-6,1,15,769,88,7,-3.6345946662519673,58.67022213581396,1761.1887093511323,67.96207808962473,32.08271350333632
2025-02-19 15:37:56.551,753,-75,673,16,-13,-25,-7,1,16,898,89,7,6.35887921410345,48.03523760269332,1496.5562083858558,-149.0593833053641,8.4404671398662
2025-02-19 15:37:56.653,885,257,486,14,9,26,-8,2,17,838,93,7,-27.87018082988685,58.15116330045345,1734.4432276336893,503.67447401339905,19.526091943533288
2025-02-19 15:37:56.769,858,-26,520,-23,-13,-20,-7,0,16,707,91,7,2.8624052261117474,58.74988221926746,1712.9108042488856,-51.90638800754199,1.8722398491602235
2025-02-19 15:37:56.871,703,5,672,14,-9,12,-6,2,19,899,93,7,-0.42630001664421546,46.29074843710416,1425.8555795409943,10.141220338129404,-18.980013444591805
2025-02-19 15:37:56.978,606,-121,632,-43,53,23,-5,5,15,754,42,7,10.838444778868839,43.28189573795914,1291.5883577996683,-257.89140477518134,-83.00303981747606
2025-02-19 15:37:57.995,776,-17,610,-1,1,1,-8,3,15,828,57,8,1.5963544295742491,51.81892571535612,1562.0611205159078,-34.22041114532273,-7.908870508638756
2025-02-19 15:37:58.089,768,-41,626,8,-7,3,-5,4,15,819,59,8,3.747247001733573,50.75631339847762,1542.4623569218193,-82.34499561692004,-5.267494053462087
2025-02-19 15:37:58.197,776,-3,604,4,-13,-3,-7,3,15,836,72,8,0.28457934615061586,52.10423291570474,1565.129465037368,-6.0507582411238445,-10.219325879601001
2025-02-19 15:37:58.304,828,-1,680,1,11,-31,-7,4,17,837,95,8,0.08425843854404412,50.60521208017355,1600.791310439897,-1.9333228386955277,45.34046968704115
2025-02-19 15:37:58.414,852,234,551,-9,-22,69,-7,2,16,805,0,8,-23.010076894110536,54.90748930260589,1670.2248710906752,458.72373220096006,21.8428357148332
2025-02-19 15:37:58.517,759,9,489,3,11,-93,-7,2,15,888,0,8,-1.0544045035218386,57.20316330838733,1599.5965100042904,18.96754754945799,-52.570083520550725
2025-02-19 15:37:58.627,686,49,729,12,-19,8,-6,1,17,898,95,8,-3.8453725985734706,43.19494697252741,1370.482814089794,97.89162957784244,1.612286484752417
2025-02-19 15:37:58.732,898,10,484,9,36,3,-5,2,16,863,90,8,-1.1836286927287183,61.671313477832484,1778.2398793978227,19.80222582848355,9.572269901396169
2025-02-19 15:37:58.839,520,-73,723,-6,-9,3,-4,4,14,836,44,8,5.765511709834972,35.587022524956566,1101.938788174287,-154.69525295523647,-86.11873817309538
2025-02-19 15:37:59.864,767,-21,622,-2,-2,-4,-6,1,16,847,69,9,1.9336889250516445,50.94364756449257,1543.5266267024147,-42.260833325620226,-7.725634692179938
2025-02-19 15:37:59.954,769,-22,622,0,-4,-2,-7,2,16,850,74,9,2.0256943781226804,51.01507673112456,1546.3115330352668,-44.2377811791624,-6.722722429045689
2025-02-19 15:38:00.065,764,3,621,2,-15,-13,-6,2,17,866,91,9,-0.27678905217775984,50.8945224030999,1539.9861095879555,6.047065875345375,-9.742636196492413
2025-02-19 15:38:00.171,779,-99,587,22,3,-31,-5,1,14,777,97,9,9.57308441652445,52.61395688690492,1573.5625498499876,-199.9777823301011,-11.72685078554889
2025-02-19 15:38:00.271,845,182,596,-8,-13,43,-6,4,16,868,92,9,-16.981053357813128,53.59202392312175,1649.811180424293,355.34394655292465,28.346197002510394
2025-02-19 15:38:00.389,684,-154,664,22,-26,-21,-6,3,17,898,90,9,13.057620702648315,45.099664483751134,1392.3357042250036,-313.47909130212065,-23.62413392602673
2025-02-19 15:38:00.490,840,96,551,6,-9,51,-5,2,15,722,99,9,-9.883359452150978,56.34297889996839,1672.3700897677172,191.1280102591677,5.004857783318926
2025-02-19 15:38:00.601,607,-78,623,-34,57,34,-5,7,12,782,43,9,7.136335151503089,44.03204212659763,1302.060545838446,-167.31585267775745,-90.38174638772944
