Timestamp,Acc_X,Acc_Y,Acc_Z,Gyro_X,Gyro_Y,Gyro_Z,Mag_X,Mag_Y,Mag_Z,Force,IR_A,Letter,Roll,Pitch,Lin_Acc_X,Lin_Acc_Y,Lin_Acc_Z
2025-02-19 12:50:14.707,539,-129,827,-3,-4,-3,0,1,-1,317,19,noise,8.865864416384806,32.780161788040914,1080.4171382578243,-258.5784987667149,-3.7086703881647054
2025-02-19 12:50:14.805,537,-115,828,-2,0,0,0,0,-2,356,19,noise,7.907162702958458,32.71605979106391,1077.4761715530458,-230.74443152439528,-5.359906975645913
2025-02-19 12:50:14.911,537,-133,828,-1,2,3,1,2,-1,316,19,noise,9.12535816802426,32.63316162732271,1076.2582889856396,-266.559315521583,-3.482054525343756
2025-02-19 12:50:15.021,529,-141,830,-1,1,-2,0,1,-1,269,19,noise,9.641335972766283,32.14308260087263,1061.0354083579825,-282.80905969466073,-4.762549975662637
2025-02-19 12:50:15.126,524,-123,829,-1,1,1,2,-1,-1,332,18,noise,8.439492688934358,32.01536275827307,1054.1466329230252,-247.44281650674063,-9.724348651121886
2025-02-19 12:50:15.232,520,-141,836,1,0,2,0,2,-1,269,18,noise,9.573424995885954,31.522746967967386,1042.837029763139,-282.7692715319281,-4.561070926892739
2025-02-19 12:50:15.342,531,-133,833,-1,0,0,0,0,-2,208,18,noise,9.071497577177167,32.18967323400101,1063.7237528874693,-266.4317497816072,-2.7041170532240812
2025-02-19 12:50:15.446,523,-127,834,-1,0,0,1,1,-3,201,18,noise,8.658380405163562,31.796909514312784,1049.9099522400593,-254.94945302961287,-6.234990761394897
2025-02-19 12:50:15.554,515,-143,833,-2,-1,0,1,0,-1,160,18,noise,9.740941775648404,31.35536868336758,1035.3445889854343,-287.48403150469346,-8.644742960906456
2025-02-19 12:50:15.666,527,-145,840,-3,-1,-3,1,-1,-2,194,18,noise,9.79382735844757,31.725917220072166,1052.856453897828,-289.68536207815,1.8227300300275147
2025-02-19 12:50:15.770,517,-125,840,-2,2,0,0,2,-3,202,18,noise,8.464045663962684,31.331913148985237,1036.9949558852686,-250.72411892777288,-4.866079194633471
2025-02-19 12:50:15.878,526,-150,838,-2,1,0,2,-1,-2,159,17,noise,10.14833390709341,31.710457955853784,1051.6269372648312,-299.89361328844996,0.5943470951931431
2025-02-19 12:50:15.985,523,-133,839,-1,-1,-1,0,1,-2,181,17,noise,9.007691347062817,31.6195035639787,1047.275804653559,-266.3244398067368,-2.04665411918927
2025-02-19 12:50:16.089,515,-134,839,0,0,0,2,0,-3,157,17,noise,9.074295577873913,31.221886419322136,1033.3537122318685,-268.87261638654445,-5.463620509782004
2025-02-19 12:50:16.196,511,-136,837,-1,-1,-1,1,0,-2,104,18,noise,9.229052583800046,31.073615891233537,1027.1389720549325,-273.36771076217383,-8.417455205437136
2025-02-19 12:50:16.308,538,-151,832,-1,2,-2,-2,2,-2,122,18,noise,10.28666502887077,32.466191380883004,1074.8018533956301,-301.66371721698914,1.8528958640068822
2025-02-19 12:50:16.409,513,-158,841,2,1,-1,0,1,-4,131,20,noise,10.640220881701614,30.942685529395522,1027.1803704392462,-316.36354489161965,-1.9350712269122141
2025-02-19 12:50:16.517,506,-142,841,0,-1,1,1,0,-2,88,48,noise,9.583804981771822,30.67927163673422,1016.2318087112128,-285.18758268180284,-7.033500249268627
2025-02-19 12:50:16.626,517,-143,841,-1,2,0,2,2,-4,70,73,noise,9.650031741061122,31.217779865415324,1035.2924186621096,-286.35747750228563,-2.102367688267236
2025-02-19 12:50:16.734,509,-134,839,-1,1,0,2,1,-1,54,107,noise,9.074295577873913,30.925060921236717,1022.9165167271364,-269.29432856863707,-8.104042306615725
2025-02-19 12:50:16.839,509,-142,848,0,0,-1,1,2,-2,59,43,noise,9.506143063353663,30.625250595387364,1018.4207005041301,-284.1173663488929,-0.7008919990223603
2025-02-19 12:50:16.946,512,-141,853,-1,-1,-1,1,2,-4,55,39,noise,9.386058618040217,30.633951637329094,1021.5513744080627,-281.3256714678454,4.079448495942643
2025-02-19 12:50:17.054,505,-141,848,-1,0,0,2,1,-2,57,40,noise,9.440407586981786,30.432259171662785,1011.5193038900169,-282.42420168018293,-2.551227126206527
2025-02-19 12:50:17.156,507,-137,848,0,0,0,3,-1,-2,54,39,noise,9.177216376073824,30.550140615229186,1015.2921964179047,-274.3491733910315,-2.1613068291583204
2025-02-19 12:50:17.266,508,-138,840,0,0,0,2,2,-1,53,37,noise,9.329539642698096,30.82715880939004,1020.4499634654529,-277.2088483429774,-7.358207305079532
2025-02-19 12:50:17.376,500,-138,845,-1,0,1,3,0,-4,53,34,noise,9.275297478321043,30.284051066320178,1004.2872682729965,-277.18328604334704,-7.245483381364011
2025-02-19 12:50:17.482,506,-138,854,0,0,-1,0,0,-4,52,31,noise,9.179221078369794,30.324147867188046,1010.8914655022847,-275.697672409714,1.8709258123494692
2025-02-19 12:50:17.589,513,-163,856,0,0,0,2,2,-2,53,29,noise,10.78122207953071,30.486198607784782,1020.3307992339712,-324.1986750002677,9.459719016999202
2025-02-19 12:50:17.697,497,-138,845,0,1,0,2,0,-4,51,28,noise,9.275297478321043,30.134119012879978,999.0258364607598,-277.39550388648865,-8.544933217991911
2025-02-19 12:50:20.316,747,-147,626,-7,1,-4,-5,-6,10,725,97,A,13.215009774614156,49.277672552129985,1504.8801640573522,-296.1410764610854,-9.117781392104916
2025-02-19 12:50:20.416,748,-157,633,-1,-4,-4,-5,-5,12,739,103,A,13.929706254314711,48.91490402785397,1501.7343661185819,-315.20360358371306,-4.852745659174047
2025-02-19 12:50:20.523,749,-149,634,-2,-2,-3,-5,-6,8,748,108,A,13.225407612166876,48.99226258075629,1503.6209768722806,-299.1181916608408,-4.757943040087866
2025-02-19 12:50:20.634,754,-150,625,-2,-2,-2,-4,-7,10,753,111,A,13.495733280795813,49.554036069852124,1515.0181265544406,-301.3961790227667,-5.817412594861366
2025-02-19 12:50:20.739,755,-143,629,2,-7,-6,-4,-6,10,755,121,A,12.808203107781281,49.490371119895286,1515.296811441467,-287.00323713394675,-4.412840260506982
2025-02-19 12:50:20.851,756,-171,633,-10,-4,-13,-5,-8,10,721,124,A,15.117167654587169,49.06439580989982,1511.4464605423354,-341.87479464648067,0.4634794665364552
2025-02-19 12:50:20.953,966,103,557,0,-13,38,-3,-6,11,195,117,A,-10.476742338742815,59.613483786313125,1828.6327335198816,194.9784384601944,59.60203667642429
2025-02-19 12:50:21.056,788,-50,571,-9,4,-32,-5,-4,7,699,111,A,5.004378843447981,53.968154067388355,1596.6901687565728,-101.31282796678761,-14.992495380714445
2025-02-19 12:50:21.166,522,-379,643,0,-34,-36,-5,-7,11,750,122,A,30.51614236121297,34.967838266545996,1095.1165329163298,-795.1133447802472,-62.96538441609198
2025-02-19 12:50:21.276,729,-21,699,16,-62,97,-4,-5,11,766,116,A,1.720814833672865,46.19060445778129,1450.6467185789975,-41.78817707840733,7.050677247298722
2025-02-19 12:50:21.383,752,-62,658,13,41,-34,-4,-5,11,801,111,A,5.382797915127315,48.688547296472024,1503.1321924886388,-123.92845204028669,0.7593315724410559
2025-02-19 12:50:21.490,889,-131,590,-12,-4,1,-5,-6,8,574,114,A,12.518524906047073,55.790985529498855,1715.9921302292712,-252.86273235099495,41.15257948788542
2025-02-19 12:50:21.596,699,-50,640,-5,-37,18,-3,-5,11,824,110,A,4.467159061389273,47.43614230478965,1435.5239155035752,-102.6841141275805,-34.35666083303033
2025-02-19 12:50:21.696,979,-27,682,7,48,8,-5,-4,10,813,100,A,2.267124041928315,55.116758319145966,1799.319186503977,-49.6237160731434,110.54169030060018
2025-02-19 12:50:22.621,752,-87,654,-3,-2,-1,-4,-4,9,711,83,B,7.577427089207823,48.738157552858645,1503.703511435577,-173.96569879640316,0.2578504270383064
2025-02-19 12:50:22.716,751,-93,651,-3,-1,-2,-3,-6,9,723,86,B,8.13010235415598,48.79315463898698,1503.3362072032733,-186.16546906778217,-1.1582834744751835
2025-02-19 12:50:22.821,739,-95,650,-3,-1,-2,-5,-4,7,729,88,B,8.315125756791886,48.365735824044336,1486.4009138673268,-191.0799550979649,-7.3891664597597355
2025-02-19 12:50:22.926,712,-82,648,-3,-3,-8,-4,-6,8,726,94,B,7.212058863805513,47.467652915068236,1448.8958060077082,-166.86721361324726,-22.657980748588102
2025-02-19 12:50:23.038,748,-139,627,0,2,-17,-2,-7,7,721,114,B,12.499777591970204,49.35105676073473,1506.7151255959984,-279.9911797564756,-8.98179645546918
2025-02-19 12:50:23.148,840,131,550,10,-9,35,-3,-5,10,767,109,B,-13.397192205155019,56.05636164059602,1669.587247288189,260.3761064223247,6.81787379939999
2025-02-19 12:50:23.254,826,-79,629,-36,39,-38,-3,-4,10,794,94,B,7.158647207598524,52.494344568612675,1619.293248082851,-154.87187239533318,24.906231181461067
2025-02-19 12:50:23.362,805,-146,573,39,4,-13,-4,-8,8,781,111,B,14.294754254622212,53.701082491884044,1610.9394670377874,-292.1703878105801,-0.668713804536992
2025-02-19 12:50:23.471,673,-100,724,29,-5,27,-3,-5,10,813,106,B,7.864024795499545,42.6393684441269,1350.3815887723372,-200.65105330941117,-4.7136259601369375
2025-02-19 12:50:23.576,875,-14,680,-20,-22,35,-5,-6,8,771,103,B,1.1794523618477164,52.14180731299446,1664.5321034455283,-26.632513655128452,66.42076532233227
2025-02-19 12:50:23.679,673,-115,583,14,9,26,-3,-5,8,734,105,B,11.158656840020322,48.55669393041118,1422.6110137526916,-243.0910350394644,-66.3658558957195
2025-02-19 12:50:23.792,1022,81,615,-19,63,25,-2,-5,7,658,72,B,-7.503087391049606,58.74400218786993,1876.8575599899614,148.75289859020242,100.5798440373519
2025-02-19 12:50:23.896,479,-247,740,4,-21,-16,-2,-1,5,767,43,B,18.458173701874184,31.549804820701066,1002.2395315933148,-516.8124515731706,-68.34499661597704
2025-02-19 12:50:24.816,724,-74,671,0,-5,-5,-3,-6,6,774,68,C,6.293327876503744,47.00308076682167,1455.390371289469,-148.7553694411888,-6.849363446455072
2025-02-19 12:50:24.910,738,-65,660,4,-5,-3,-3,-6,8,783,75,C,5.624628041445912,48.056008750214744,1481.7985702997812,-130.5107141862951,-5.185713276227261
2025-02-19 12:50:25.016,752,-50,654,0,-5,-3,-4,-5,6,795,81,C,4.371906582621858,48.90445155077305,1505.614464282714,-100.10734469964854,-1.4040686714029107
2025-02-19 12:50:25.126,658,-93,680,10,-26,-22,-4,-5,9,826,100,C,7.787724891009784,43.79274094482231,1350.051725326953,-190.81278184712255,-35.190232860680794
2025-02-19 12:50:25.237,663,-127,678,28,10,-10,-3,-7,8,679,105,C,10.609450310635996,43.86540744200538,1355.96666628304,-259.7402211432068,-30.64464515822192
2025-02-19 12:50:25.340,845,27,598,8,-9,47,-2,-3,8,742,98,C,-2.585177456158372,54.68573647495382,1660.9937097512698,53.07317179086898,20.527528483716765
2025-02-19 12:50:25.442,757,-7,648,1,-4,3,-3,-4,9,877,97,C,0.6189118162553683,49.4344736181485,1516.662726498611,-14.024622305799571,-2.2793220225888717
2025-02-19 12:50:25.556,525,-148,730,-35,34,12,-2,-3,5,772,37,C,11.460789891378228,35.17764842039862,1101.1134970168537,-310.4091382066558,-71.0721006139105
2025-02-19 12:50:26.576,733,-113,677,-5,-6,-8,-3,-4,6,769,60,D,9.47604574776631,46.881814050651336,1462.9453655411526,-225.52909455136455,2.821265386957407
2025-02-19 12:50:26.667,726,-101,667,0,-6,-4,-3,-4,7,780,68,D,8.610558845084135,47.101577357398995,1458.5616388098208,-202.91284506858386,-6.028392680647812
2025-02-19 12:50:26.774,742,-86,664,0,-3,-4,-6,-5,6,784,73,D,7.379756928294733,47.93838203696467,1484.424788503302,-172.04923424701343,-0.3801341862430263
2025-02-19 12:50:26.884,731,-77,657,-1,-3,-11,-3,-5,8,776,79,D,6.684536191405698,47.85741321148897,1472.4773215827483,-155.10363031719783,-9.416689849337445
2025-02-19 12:50:26.991,767,-74,553,-4,-4,-6,-3,-8,7,765,107,D,7.621788115826473,53.9672024558319,1575.680398797003,-152.02131618119716,-30.051187137865213
2025-02-19 12:50:27.096,844,186,549,22,-19,38,-4,-5,7,742,103,D,-18.716267901933556,55.51903028888392,1668.3142700071166,367.66167561768214,12.805054225228446
2025-02-19 12:50:27.203,806,-36,598,5,27,-76,-3,-7,7,752,99,D,3.4450864632402207,53.37736391166328,1608.5818594359132,-71.84732870929638,2.5360397733546733
2025-02-19 12:50:27.314,656,-90,704,-17,-32,14,-3,-8,8,839,101,D,7.28522782792109,42.7470734391396,1334.7632368321783,-183.12300505319524,-24.42883952721604
2025-02-19 12:50:27.419,865,250,511,6,-4,38,-4,-6,9,728,104,D,-26.069581157975126,56.668631123381665,1700.5066515172903,491.4759108431474,17.42323823660655
2025-02-19 12:50:27.527,805,8,564,-36,61,11,-2,-5,6,665,65,D,-0.8126515942537368,54.981394126739495,1623.9657414753644,16.138789977394925,-9.784693406342399
2025-02-19 12:50:27.636,551,-154,744,10,-11,-6,-2,-5,6,697,41,D,11.69446213360472,35.95031701352174,1138.0835071187853,-318.08504554681116,-48.72255770667198
2025-02-19 12:50:28.546,718,-80,678,2,-5,-6,-3,-3,8,733,59,E,6.72944857475178,46.443500032711405,1442.6952247954514,-160.74598604963245,-6.322231770635085
2025-02-19 12:50:28.646,746,-66,663,1,-7,-4,-4,-6,7,765,68,E,5.684922987105635,48.23091760505272,1491.835561386073,-131.98545181163652,0.1461431649241831
2025-02-19 12:50:28.756,743,-53,665,-1,-6,-6,-3,-5,8,769,77,E,4.5567986199488555,48.08065681775705,1487.0860420669392,-106.07747002630924,-0.9720295753894561
2025-02-19 12:50:28.862,725,-56,660,-1,-9,-21,-3,-5,8,755,94,E,4.849843901782814,47.58468222509608,1463.2750424574347,-113.02538258981565,-12.08486623711292
2025-02-19 12:50:28.970,769,-424,734,45,-5,20,-3,-9,5,739,104,E,30.01316510506351,42.21433099115346,1440.9058605628738,-794.4656500372672,92.6750303600137
2025-02-19 12:50:29.075,760,57,647,15,7,23,-3,-4,7,765,100,E,-5.034697569351796,49.48236561907965,1520.2060437605728,114.01545328204298,-0.17540830669815932
2025-02-19 12:50:29.187,473,-258,717,-24,-27,-45,-4,-7,9,777,92,E,19.790386833248625,31.82911928738736,1000.3876662112898,-545.6659997516126,-82.44388303064432
2025-02-19 12:50:29.289,725,34,635,0,-28,17,-4,-7,8,832,103,E,-3.0648788671878626,48.745459448509195,1476.7875535623293,69.25624389119889,-23.46220208562636
2025-02-19 12:50:29.399,772,23,717,19,43,31,-3,-6,9,824,95,E,-1.8373099012492775,47.100711576117995,1504.5513528389795,44.82471647059136,36.63818654721706
2025-02-19 12:50:29.505,767,-39,647,38,9,-6,-3,-7,7,604,98,E,3.4495130126001974,49.79960317592478,1530.791558249532,-77.83685889404398,2.7064691167573756
2025-02-19 12:50:29.612,719,3,708,1,-6,37,-3,-4,9,856,97,E,-0.24277727376682284,45.44139743625109,1431.5331808170922,5.973017444299412,6.367883145338965
2025-02-19 12:50:29.721,2748,-107,600,26,10,-23,-3,-6,6,699,97,E,10.111450823901723,77.49504714594289,3724.2772936505517,-145.01370830444284,386.8390188535915
2025-02-19 12:50:29.826,717,23,653,-1,-12,18,-1,-5,8,855,97,E,-2.017241013381953,47.656964306514226,1456.1253768968331,46.709740123608306,-20.150447857227164
2025-02-19 12:50:29.936,556,-140,707,-17,24,-7,-3,-3,4,769,47,E,11.200797787884433,37.64810647439978,1166.8101681146682,-293.80112146772217,-69.69566341199675
2025-02-19 12:50:31.656,727,-47,673,-2,-2,-3,-4,-5,8,755,62,F,3.994853660976049,47.13939555131905,1460.0107770604404,-94.38859218960206,-5.56430943834448
2025-02-19 12:50:31.750,723,-54,670,-4,-4,-4,-3,-6,7,753,63,F,4.60790854949202,47.08641450361955,1455.3814713531779,-108.70069080646142,-8.693756302391648
2025-02-19 12:50:31.856,722,-42,658,-1,-3,-3,-5,-4,9,754,68,F,3.6522227803063356,47.5972969100666,1460.423527687883,-84.95538526716217,-14.967702518874034
2025-02-19 12:50:31.956,763,-28,642,2,-8,-5,-4,-5,9,769,81,F,2.4972987350536417,49.89540264710192,1527.869714655627,-56.06861338185788,-1.5732068268840749
2025-02-19 12:50:32.072,712,-48,659,2,-13,-16,-5,-6,6,775,95,F,4.165932139669544,47.13825925987774,1444.9972868339503,-97.4155474270079,-19.43428654996262
2025-02-19 12:50:32.183,749,-115,650,-1,-2,-13,-4,-7,10,765,104,F,10.033120554331168,48.610229905944756,1499.229131958322,-230.18871852497597,-1.0666699237772264
2025-02-19 12:50:32.286,797,175,579,22,-14,37,0,-7,9,768,103,F,-16.817192623780738,52.803984126508404,1593.571957578303,349.9060132700164,0.310961809488731
2025-02-19 12:50:32.386,976,25,664,-31,43,-49,-3,-4,8,833,90,F,-2.1562021447690176,55.752578378242404,1802.6150751815244,46.173541884772646,101.63072754043844
2025-02-19 12:50:32.502,764,126,442,-7,-16,-14,-4,-9,8,775,106,F,-15.911148577139503,58.96964805789868,1620.8943434914809,267.32027130880437,-53.7425390356471
2025-02-19 12:50:32.606,698,8,653,7,-15,8,-3,-7,10,872,103,F,-0.7019039908252656,46.90559536810834,1428.229000013253,16.369386819636134,-30.151199152799563
2025-02-19 12:50:32.706,591,48,584,12,33,12,-3,-5,9,779,84,F,-4.69868051729944,45.244897748213894,1301.1226795267949,105.67493843872444,-117.71175100448067
2025-02-19 12:50:32.819,880,203,669,-19,-57,9,0,-9,7,780,98,F,-16.87978931785485,51.53442001828984,1662.9819867025985,383.6197082961676,73.7557396545019
2025-02-19 12:50:32.929,1002,168,607,-23,67,28,-4,-6,8,848,81,F,-15.470545350738343,57.848063741577626,1848.6398825506708,309.9515970743639,94.11536057060164
2025-02-19 12:50:33.851,759,-28,645,-2,-3,-4,-3,-5,9,810,66,G,2.4856979950378006,49.61542096044328,1520.712719176467,-56.10007396171421,-2.3052751894879293
2025-02-19 12:50:33.945,742,-18,640,1,-9,-10,-3,-6,7,815,69,G,1.6110191079416032,49.209919669486595,1499.1081715988275,-36.366505510483684,-13.031307039420085
2025-02-19 12:50:34.047,765,0,630,4,-8,-6,-5,-8,7,837,77,G,0.0,50.527540151656176,1536.9302356170497,0.0,-5.707252861099732
2025-02-19 12:50:34.158,796,31,604,3,-3,5,-2,-8,10,861,102,G,-2.9380993833963127,52.77269476404313,1592.2416960376886,62.00941278538737,-0.18339749593451415
2025-02-19 12:50:34.265,770,-81,562,35,26,-2,-3,-8,7,750,104,G,8.20145447108514,53.594493953255494,1574.8367668888254,-165.66464690648684,-25.426315573402462
2025-02-19 12:50:34.371,816,186,626,9,-14,25,-2,-5,8,839,99,G,-16.54797969378451,51.32956523005934,1596.7529352662496,363.96574259745387,27.040027602117448
2025-02-19 12:50:34.482,782,-59,570,7,-9,-27,-1,-6,11,869,100,G,5.909570561274221,53.76624016624651,1588.612175262053,-119.85692882411908,-17.939820843184293
2025-02-19 12:50:34.588,947,85,514,-20,39,-27,-5,-4,8,863,92,G,-9.390001918868322,61.18313055379075,1823.1648005917505,163.64203595596493,38.446982572164984
2025-02-19 12:50:34.695,791,64,641,25,2,-20,-2,-8,9,801,100,G,-5.701743001716911,50.84077311185646,1566.3940603292858,126.7373196726603,12.646532653511827
2025-02-19 12:50:34.801,810,9,622,-2,-6,10,-3,-6,11,876,102,G,-0.828980760339528,52.47639992603355,1603.1025247773969,17.812250275304407,12.97559208451753
2025-02-19 12:50:34.906,621,-100,699,-7,17,-2,-3,-3,7,783,55,G,8.14157757521486,41.3302662231832,1281.3984275655785,-206.34435226498846,-44.34702233226949
2025-02-19 12:50:35.829,741,-6,631,-11,4,-1,-2,-7,8,766,70,H,0.5447928950334333,49.58260145755016,1502.3414631401445,-12.164708203563922,-17.321812741472513
2025-02-19 12:50:35.919,758,2,632,-5,5,-1,-2,-6,6,671,75,H,-0.18131515269899837,50.179421226009076,1526.0535675314604,4.026526563407547,-8.38239403678483
2025-02-19 12:50:36.026,763,-9,642,0,2,-6,-4,-7,8,612,80,H,0.8031592518102518,49.91945120809277,1528.1400288360164,-18.025242804094557,-1.800653358745194
2025-02-19 12:50:36.136,732,-1,655,5,2,-10,-4,-9,8,621,84,H,0.08747440457537949,48.17750904186379,1477.2143007515826,-2.0180523234311236,-11.824271847386058
2025-02-19 12:50:36.247,809,31,559,-2,-8,-13,-4,-9,7,505,106,H,-3.1741533360214125,55.31528541191623,1631.2958845991502,62.50948383507251,-9.187143993726863
2025-02-19 12:50:36.354,776,315,526,2,-11,38,-3,-6,10,692,101,H,-30.915676168942866,51.68818870884093,1560.648588940523,633.5107029848773,-5.862316730303064
2025-02-19 12:50:36.460,645,-61,613,-37,7,-36,-1,-8,7,746,96,H,5.682829072714392,46.31615235119333,1368.161885020463,-129.3920542422453,-74.28408607371114
2025-02-19 12:50:36.567,769,142,630,3,-28,23,-3,-7,8,862,101,H,-12.702022504127747,49.97651568491184,1534.7809138794705,283.4055783756629,2.637222699523477
2025-02-19 12:50:36.678,590,-334,687,23,-48,-33,-4,-8,10,849,102,H,25.927712236834655,37.68122214085087,1201.2676953328828,-680.0396783748862,-24.764248633373768
2025-02-19 12:50:36.784,802,213,529,6,-10,63,-3,-7,8,752,106,H,-21.932008562220258,54.58480690772685,1616.974159383156,429.445755546898,-8.557768470934548
2025-02-19 12:50:36.890,768,-34,606,-46,71,-3,-3,-6,7,768,55,H,3.2112480181116068,51.68056092497163,1552.566049304305,-68.73339280774266,-13.071648279177793
2025-02-19 12:50:37.806,749,-22,651,4,0,-7,-3,-6,8,701,73,I,1.9355263067278203,48.987982477524426,1503.5719583018704,-44.1636623266237,-4.842917028728607
2025-02-19 12:50:37.901,745,-25,659,4,0,-3,-3,-8,8,676,79,I,2.1725461792300864,48.48474456552889,1493.7792666457226,-50.12682102837995,-3.3430023080954925
2025-02-19 12:50:38.009,729,-14,665,5,2,-6,-5,-7,7,636,86,I,1.2060487792199577,47.622342843414025,1467.7182328567728,-28.1866327297597,-8.865054663585852
2025-02-19 12:50:38.117,833,-63,528,43,4,-14,-3,-9,6,403,107,I,6.804259562608425,57.447889619353894,1675.9024242924434,-126.74892284564697,-6.276686706374676
2025-02-19 12:50:38.222,688,93,672,-10,-9,6,-4,-9,8,838,98,I,-7.879278154965031,45.402339421737345,1400.0547147362731,189.25158207917647,-23.49530276566213
2025-02-19 12:50:38.326,612,-107,624,7,-23,-4,-2,-6,7,706,98,I,9.730127069303716,44.0287986403037,1307.019845245587,-228.51490758378725,-84.64768534844154
2025-02-19 12:50:38.438,774,183,581,7,-8,55,-2,-8,8,766,98,I,-17.48308160424923,51.79722076420734,1559.826895229092,368.7962814301341,-8.877811535015894
2025-02-19 12:50:38.549,478,-130,678,-4,-23,-21,-4,-5,7,584,76,I,10.854180203911172,34.698797072291356,1047.2622623508046,-284.82028055565814,-129.4473093595093
2025-02-19 12:50:38.651,751,56,686,1,-40,11,-2,-6,7,846,97,I,-4.666858371438996,47.49513967452745,1488.2200247304747,110.97246522624044,12.587300978554367
2025-02-19 12:50:38.762,672,-71,591,-41,79,0,-3,-5,5,766,53,I,6.8504189662969415,48.46586295843954,1420.5607963552038,-150.08901271014804,-67.33248608024621
2025-02-19 12:50:39.679,725,-12,671,-3,-1,-1,-2,-6,7,711,61,J,1.0245544990727404,47.21064114411367,1458.856039725872,-24.146582726497194,-8.19641745663489
2025-02-19 12:50:39.773,739,-23,654,-3,-3,-2,-3,-7,6,692,63,J,2.01415908946978,48.474249368260146,1487.6578416376994,-46.3005823513763,-8.546993817395673
2025-02-19 12:50:39.880,740,20,659,0,-4,-4,-4,-7,6,691,69,J,-1.7383368202635647,48.300540823325434,1486.644461459702,40.17958003945141,-5.9171622999238025
2025-02-19 12:50:39.986,712,-8,668,4,-1,-6,-2,-7,8,670,75,J,0.6861441978352363,46.824153180867945,1441.2571352066966,-16.19390039558086,-16.19068303100198
2025-02-19 12:50:40.097,902,87,727,10,-5,-18,-3,-10,7,447,107,J,-6.824126490037036,50.93247001384019,1678.4036918656082,161.8859436721817,101.2289534519989
2025-02-19 12:50:40.204,657,47,701,-1,-26,10,-3,-9,8,836,102,J,-3.835773670409972,43.08012537751615,1340.0204556406616,95.86143289971248,-27.763073674434963
2025-02-19 12:50:40.310,600,-16,593,-4,33,-18,-2,-8,8,692,87,J,1.5455482450692615,45.325759287142404,1311.1156372936323,-34.96308366116352,-109.81928819187306
2025-02-19 12:50:40.421,750,176,677,1,-10,50,-4,-6,7,769,100,J,-14.572630726250082,46.99521625872118,1481.296757638585,347.6109724591879,16.8827934382374
2025-02-19 12:50:40.527,1035,-205,418,22,22,-20,-4,-6,8,466,98,J,26.1247464575475,65.780859388289,1946.9831236450614,-385.63433849974643,49.68217808344383
2025-02-19 12:50:40.634,427,-45,773,-14,-12,7,-3,-4,6,717,43,J,3.3316990844926946,28.874961812671877,909.8997601670537,-95.89107542744125,-101.19558456471316
2025-02-19 12:50:41.550,743,-15,666,-3,-2,-3,-3,-7,6,623,68,K,1.2902273520604595,48.12080664828636,1487.554016880239,-30.031373153706028,-1.392968024547713
2025-02-19 12:50:41.647,738,-7,666,-1,-4,-3,-4,-7,7,637,72,K,0.6021857187810522,47.93409945181704,1480.374712413058,-14.041494562183477,-3.94791120202774
2025-02-19 12:50:41.749,755,1,652,0,-5,-5,-3,-9,6,639,80,K,-0.08787689353722901,49.18685864202199,1511.845167215036,2.00244393008614,-1.5934424161636116
2025-02-19 12:50:41.859,735,14,653,2,-3,-7,-5,-7,7,588,89,K,-1.2282052756795223,48.37444257578498,1482.5018643897265,28.238130750280504,-11.10709856665494
2025-02-19 12:50:41.967,762,14,618,0,1,-10,-3,-8,7,387,108,K,-1.2977406767389963,50.94994020449656,1538.59582248317,28.268164717538554,-11.837556817058953
2025-02-19 12:50:42.076,763,270,656,-2,-19,63,-3,-7,7,670,101,K,-22.371348703383596,47.08517720208763,1495.3667672745487,529.1599307524616,26.3373534310565
2025-02-19 12:50:42.186,1070,-9,610,-16,42,-37,-3,-6,7,791,83,K,0.8452862352140679,60.31013542185489,1938.7191457426102,-16.306983468863073,114.74889822150266
2025-02-19 12:50:42.292,458,143,808,14,-5,-15,-3,-6,10,838,102,K,-10.036293985976682,29.16841018877686,945.3783027285801,295.17270150695845,-51.828970752604164
2025-02-19 12:50:42.398,960,106,457,4,12,-4,-3,-8,6,249,103,K,-13.058695764495626,63.956195145705884,1858.4586318403326,205.20480726570338,29.296255467675053
2025-02-19 12:50:42.505,737,68,642,-3,-19,36,-3,-6,10,781,104,K,-6.046168773436354,48.78255506629004,1489.2143218349,137.40376375138834,-13.253181299871926
2025-02-19 12:50:42.612,614,-157,687,-24,58,0,-3,-5,7,672,50,K,12.872736993805463,41.064946410078484,1270.914092290626,-324.9731473772447,-48.01625635775247
2025-02-19 12:50:43.832,728,-19,678,-1,-2,-2,-3,-6,8,580,66,L,1.605213823827523,47.02547098067515,1459.6568134015315,-38.09543881130371,-3.4056586349427107
2025-02-19 12:50:43.916,746,2,662,0,-3,-3,-2,-8,6,612,71,L,-0.17309850512015207,48.41403756819057,1493.9607311597647,4.005256651902854,-1.7399517798445459
2025-02-19 12:50:44.033,706,13,674,7,-6,-11,-2,-7,5,580,77,L,-1.1049744634822902,46.3230376255487,1429.2448791311058,26.317540267286653,-16.463241550092448
2025-02-19 12:50:44.139,740,42,642,-2,-2,-6,-3,-8,8,589,92,L,-3.7429882956871343,48.995582280516516,1494.6589933678226,84.83199692087642,-12.717667219111036
2025-02-19 12:50:44.246,754,-49,627,5,0,-20,-3,-8,6,592,104,L,4.4685782222022254,50.16849862249175,1521.9314734145091,-98.90536100439118,-11.584925505168826
2025-02-19 12:50:44.353,812,238,569,9,0,22,-1,-6,5,452,96,L,-22.69846973467483,52.780832165272976,1608.3276097626938,471.4063683787206,10.982253750033692
2025-02-19 12:50:44.456,708,96,681,-1,-21,12,-1,-5,7,842,97,L,-8.024064635282185,45.8319058223312,1425.298720984923,193.26084352337935,-8.944108743972265
2025-02-19 12:50:44.569,699,-81,570,-50,75,4,-1,-5,6,745,52,L,8.08787997453801,50.52366034839978,1470.8871867137893,-170.44615468357216,-59.435903328841164
2025-02-19 12:50:45.486,734,-13,682,2,-1,-6,-4,-5,6,633,59,M,1.0920160435035573,47.09794762230306,1466.5185143864978,-25.9737611539843,1.376530229439254
2025-02-19 12:50:45.582,718,-15,677,0,-6,-4,-3,-7,6,653,63,M,1.2692704544772588,46.67645934265848,1445.4909195528573,-30.198278263639082,-8.948958965577162
2025-02-19 12:50:45.686,739,-3,666,-1,-5,-3,-4,-7,7,673,70,M,0.2580873513361871,47.97397019303226,1481.8407588586028,-6.015591713905018,-3.4613604869141454
2025-02-19 12:50:45.786,684,13,670,4,-6,-8,-5,-6,8,677,77,M,-1.1115696756942077,45.5870115538368,1398.3140537887275,26.57614429715418,-29.693590699484503
2025-02-19 12:50:45.904,782,40,588,-6,-3,-9,-4,-10,7,589,103,M,-3.8916762940807565,52.99627534343866,1580.5963858573568,80.84891999270366,-12.479123892743928
2025-02-19 12:50:46.012,808,317,573,5,-11,51,-5,-6,7,619,98,M,-28.95262417796968,50.97703225673336,1584.8936279261725,621.7961386789561,22.05934554245448
2025-02-19 12:50:46.118,624,-54,639,-15,16,-61,-3,-6,7,684,91,M,4.830419958289941,44.2176627574497,1321.3860741035191,-114.35071795126608,-75.15016242331535
2025-02-19 12:50:46.226,845,-37,680,-22,-25,18,-2,-9,7,723,102,M,3.1144932651369883,51.133821602603085,1623.6136984545549,-71.09314419268466,53.42329591822795
2025-02-19 12:50:46.336,811,88,512,-1,-18,-35,-5,-5,10,852,102,M,-9.752424941653784,57.35733429187434,1653.050963986369,179.36927845968,-19.60307467450184
2025-02-19 12:50:46.446,722,-43,606,24,-9,67,-4,-7,10,837,103,M,4.058739437270348,49.92121646108289,1487.1598655831117,-88.57046290868948,-36.225593550367876
2025-02-19 12:50:46.547,982,70,580,-30,72,6,-4,-5,8,854,77,M,-6.88172363063695,59.250850671284724,1841.4140025827323,131.26169061180374,72.40313493076917
2025-02-19 12:50:47.466,738,-4,657,0,1,-2,-2,-7,7,725,66,N,0.34882844199896695,48.32259307461059,1484.9004402192468,-8.048240868397002,-7.923562634207656
2025-02-19 12:50:47.560,741,-4,659,1,0,-3,-3,-5,7,713,68,N,0.3477698081251475,48.351541832392066,1488.2363044838944,-8.033664261721427,-5.546187118605189
2025-02-19 12:50:47.667,734,-2,669,1,1,-2,-4,-5,5,676,68,N,0.17128732084778162,47.65244881831329,1473.072290625682,-4.013820955383329,-4.623109575723561
2025-02-19 12:50:47.776,735,12,668,3,-1,-4,-2,-9,7,640,73,N,-1.0291548043059815,47.72947131287217,1474.9771755370389,24.081260008767984,-4.523473821417497
2025-02-19 12:50:47.881,728,17,649,2,-16,-16,-3,-7,8,538,92,N,-1.500470835654396,48.27376185601312,1474.3334670864424,34.428116676469116,-16.343983707556617
2025-02-19 12:50:47.992,750,-152,754,21,-3,38,-3,-7,7,589,100,N,11.397585306475719,44.2770984911421,1448.129162442704,-293.48751025505464,52.14748202426847
2025-02-19 12:50:48.101,778,-6,601,-8,22,-55,-4,-8,9,722,95,N,0.5719854520922338,52.312763089376794,1569.3597358347226,-12.103031381758786,-10.320310072838424
2025-02-19 12:50:48.206,858,-151,628,-3,-13,-19,-2,-9,7,684,101,N,13.519885420554695,53.02772825330014,1656.9266644816978,-291.6036437491099,43.23782599707931
2025-02-19 12:50:48.316,916,105,675,-5,-22,18,-4,-4,8,813,103,N,-8.841814560191672,53.28582885294951,1717.627807196519,196.88965038824728,84.28081893269609
2025-02-19 12:50:48.416,858,61,661,4,11,0,-3,-8,8,841,98,N,-5.272573675855771,52.271961256118395,1648.9241762292513,117.23120600231273,51.67496446674238
2025-02-19 12:50:48.526,542,-45,703,-8,6,5,-1,-7,6,753,46,N,3.662584929852105,37.57492842627274,1151.7984141991205,-95.62901962907827,-87.9377955387115
2025-02-19 12:50:49.641,749,0,649,0,-4,0,-3,-8,8,796,74,O,0.0,49.09144188970603,1504.7556639326176,0.0,-5.85370613120017
2025-02-19 12:50:49.736,782,24,635,0,-5,-1,-5,-5,7,816,80,O,-2.164479528545977,50.90268204720031,1558.0759285004422,47.81818706395218,4.810467266264936
2025-02-19 12:50:49.854,816,134,602,-2,-10,-5,-4,-7,9,824,102,O,-12.548960989893745,52.91798817936615,1613.7732684456696,265.0068847692644,13.446681857483782
2025-02-19 12:50:49.956,731,43,622,11,4,-14,-5,-8,10,731,105,O,-3.954670191571739,49.53847292898908,1491.8418850499843,87.75540500294025,-25.39213748439147
2025-02-19 12:50:50.062,1048,69,474,-1,-8,78,-3,-7,6,672,98,O,-8.282349417031316,65.43689373272557,1957.5039708550673,128.88146372996147,62.64037959417783
2025-02-19 12:50:50.177,734,55,601,-23,-19,-71,-5,-6,10,853,106,O,-5.228809809406703,50.572184732524754,1506.4253410982149,112.87928305231856,-31.462711171699198
2025-02-19 12:50:50.279,1134,129,640,-3,78,26,-3,-8,6,784,84,O,-11.395987950784047,60.06992029787746,2000.6349284842786,227.5854548275767,150.89386752210015
2025-02-19 12:50:50.386,561,-36,722,-9,3,15,-2,-3,3,711,38,O,2.854489257729801,37.813044208012975,1174.0869279171366,-75.34247665778415,-67.03522630333794
2025-02-19 12:50:51.806,704,-27,687,-6,-1,-5,-3,-5,7,667,47,P,2.250640897037543,45.678099924075866,1419.4257272504378,-54.43820260761622,-11.1498219049015
2025-02-19 12:50:51.899,736,-37,686,-6,-8,-8,-3,-7,4,700,52,P,3.087305727924674,46.97228158164525,1467.0236804754263,-73.74983176303093,4.638254339480454
2025-02-19 12:50:52.008,710,-4,650,-8,-4,-7,-3,-6,6,723,58,P,0.35258496165650843,47.52557658364314,1447.5788438352101,-8.155373768085692,-25.248237313924847
2025-02-19 12:50:52.114,736,-27,670,-5,-11,0,-3,-7,7,740,66,P,2.3076857349007764,47.664445714377166,1475.213321855017,-54.11788001370306,-2.925170710409134
2025-02-19 12:50:52.221,769,24,645,3,-18,-11,-4,-7,8,764,90,P,-2.1309528871049226,49.992185913129504,1534.9567716284387,47.90502278164179,2.5525127433768375
2025-02-19 12:50:52.330,744,-79,660,-4,-3,-12,-4,-8,8,693,103,P,6.82565691092555,48.2214725836503,1489.7257418890824,-158.1832440984375,-1.5309000628956255
2025-02-19 12:50:52.438,711,54,646,38,-27,86,-3,-7,8,770,104,P,-4.778321623664777,47.6430587725313,1449.9618819915331,110.12368723986329,-25.405591795401506
2025-02-19 12:50:52.548,807,-19,659,-6,21,-59,-4,-5,10,822,102,P,1.6514693769718063,50.753100264466994,1581.4268785216138,-37.23309875081866,26.599364379500003
2025-02-19 12:50:52.654,660,-69,729,-2,-17,-12,-3,-8,8,867,100,P,5.4069493704715645,42.02901661115715,1329.5068753833075,-138.99390060825482,-10.500775991561909
2025-02-19 12:50:52.758,857,88,477,15,29,34,-3,-10,9,769,102,P,-10.452760747061463,60.490772785263495,1727.2763821645506,177.36326911374613,-7.389538264282919
2025-02-19 12:50:52.867,438,-196,817,-38,39,14,-2,-5,3,758,40,P,13.490428361639351,27.533748078622075,900.2709958696955,-402.86099358552576,-45.27261101721706
2025-02-19 12:50:52.970,796,16,640,7,-15,-5,-2,-6,5,745,49,P,-1.4320961841646465,51.19127767920709,1575.242565987763,31.66316715553292,13.473313778683064
2025-02-19 12:50:53.893,736,-23,657,-1,-6,-3,-3,-7,7,742,64,Q,2.004969539433395,48.22845708514242,1481.8069542914257,-46.306467321607045,-8.754305665035986
2025-02-19 12:50:53.986,742,-38,657,1,-6,-3,-4,-6,8,754,68,Q,3.3102231893289176,48.42939380786886,1490.138598658215,-76.31437567252314,-5.435389917044745
2025-02-19 12:50:54.094,755,-12,659,7,-20,-8,-4,-8,7,813,82,Q,1.0432069440823064,48.879288355937454,1508.325710872367,-23.973388782077357,1.4613993842519903
2025-02-19 12:50:54.200,774,13,621,0,1,-12,-3,-9,7,803,105,Q,-1.1992533935993983,51.252909523086224,1553.9162669553953,26.09936882483222,-4.7467723246774085
2025-02-19 12:50:54.310,1041,173,437,52,15,42,-4,-9,8,601,100,Q,-21.59767189559344,65.70144703757411,1952.4136693744954,324.4645195021976,54.398872702541325
2025-02-19 12:50:54.416,636,-109,649,-7,-10,-63,-1,-5,9,856,106,Q,9.533888220661478,44.02207598206065,1330.9354794876524,-228.1005774593618,-60.14013551491587
2025-02-19 12:50:54.523,877,-24,655,-6,32,49,-3,-7,7,826,84,Q,2.098448565857734,53.22682969400219,1678.0117858313747,-45.920504971440124,56.75288515444652
2025-02-19 12:50:54.631,901,75,773,-15,-8,-10,-3,-6,7,762,100,Q,-5.541752764109763,49.2398328534581,1658.449140120013,138.05070533740397,123.1573969891565
2025-02-19 12:50:54.740,741,91,620,2,-28,39,-3,-4,9,853,118,Q,-8.349922591727825,49.779748171863815,1504.56783675533,184.77148872433875,-18.88267042956079
2025-02-19 12:50:54.846,650,-202,665,-27,84,-5,-3,-3,8,726,48,Q,16.896651733980722,43.08363727461099,1333.0652235711077,-414.27565409440587,-33.828267191979535
2025-02-19 12:50:55.964,708,-28,625,1,-3,-5,-3,-6,6,700,65,R,2.565135729697141,48.53445453631535,1457.3540486676175,-57.63547085126171,-36.50604578709169
2025-02-19 12:50:56.056,776,-19,661,3,-4,-6,-4,-4,7,688,71,R,1.6464752499510171,49.563826092100825,1537.1289628265426,-37.635889553742665,12.667210788215584
2025-02-19 12:50:56.166,765,-15,654,6,-6,-12,-4,-7,7,635,80,R,1.31389302449794,49.46536101631623,1525.013193546165,-29.90221948129735,4.263230615435532
2025-02-19 12:50:56.280,1309,-132,721,17,-15,-19,-2,-9,5,596,103,R,10.374761967332011,60.753052052580614,2181.5220338902827,-219.9854151822134,240.41299737594045
2025-02-19 12:50:56.382,822,248,531,7,-6,42,-4,-6,9,513,101,R,-25.034611995063205,54.512384398914165,1636.2410174317954,493.6590904173786,5.012189469241775
2025-02-19 12:50:56.493,610,-69,633,11,-10,-76,-3,-6,8,669,100,R,6.220949921159603,43.77088251325886,1301.7762888379953,-147.25010480298636,-84.85965710565745
2025-02-19 12:50:56.595,669,108,757,5,-15,8,-2,-8,8,832,101,R,-8.119505761061873,41.18243975647417,1327.4588260047894,214.29828581243237,11.927755925821089
2025-02-19 12:50:56.706,786,-17,507,4,16,-10,-4,-7,8,626,100,R,1.920440758754256,57.16177464640531,1626.2050113376008,-35.17237301875218,-34.964301206314985
2025-02-19 12:50:56.812,898,100,606,15,5,29,-4,-5,9,834,102,R,-9.370305510616129,55.62946263912958,1723.4039065422148,191.91580251026892,48.990236787770414
2025-02-19 12:50:56.919,494,-190,763,-10,5,-22,-4,-5,6,617,43,R,13.983224563090587,32.13943208745673,1025.9814596674728,-394.60825371825877,-58.66367151069164
2025-02-19 12:50:58.136,733,-33,654,-1,-4,-3,-3,-6,7,742,63,S,2.888621549842957,48.22370940475415,1478.751751768344,-66.57408977947524,-11.37741562960025
2025-02-19 12:50:58.230,755,-30,652,0,-5,-3,-2,-8,7,770,67,S,2.6344507644016355,49.156919050858164,1511.5035318785765,-60.05974298855271,-1.298414284545629
2025-02-19 12:50:58.340,765,-35,633,1,-3,-2,-3,-5,8,792,71,S,3.1647905420716453,50.350952287558634,1534.967297493782,-70.22726197683971,-4.110195181129484
2025-02-19 12:50:58.446,682,-36,666,3,-28,-16,-3,-8,7,827,83,S,3.094058058917111,45.63825646870878,1396.9396864825958,-73.73875177913995,-32.166907914089165
2025-02-19 12:50:58.546,836,-40,621,23,7,-14,-3,-9,9,709,107,S,3.6854581214356372,53.3373916489108,1638.165488064516,-78.38112383083809,25.133052526238544
2025-02-19 12:50:58.663,651,157,780,7,-20,37,-5,-5,9,824,102,S,-11.380545920537593,39.29021513761141,1284.2487084578188,309.71896655587943,21.268828575885664
2025-02-19 12:50:58.766,891,46,513,20,53,-5,-3,-5,8,712,100,S,-5.123929654054784,59.969183708627405,1756.756355662485,90.69673665597566,14.534219467054129
2025-02-19 12:50:58.877,451,-103,802,-17,31,11,-3,-1,3,661,33,S,7.318374588515139,29.15116486586247,938.1154609581444,-214.24809862236998,-64.22305917612357
2025-02-19 12:50:59.996,733,-26,666,1,-2,-6,-3,-5,5,672,68,T,2.2356368961463007,47.72016263189829,1472.867885182871,-52.24360847851929,-6.240124872840511
2025-02-19 12:51:00.086,710,-28,674,5,-1,-5,-5,-5,6,630,72,T,2.3788722235235777,46.46535022130967,1434.9579540893833,-56.58989114718695,-14.199522614428588
2025-02-19 12:51:00.195,715,-25,671,7,-4,-10,-4,-7,8,515,82,T,2.1337291336440685,46.798472608705744,1443.9503785008164,-50.48777547205651,-13.09189366999692
2025-02-19 12:51:00.299,794,53,632,-1,1,-1,-4,-8,7,473,98,T,-4.793651262167191,51.38340802474564,1575.3397737305254,105.15492192407788,10.07715743363724
2025-02-19 12:51:00.412,782,-40,572,62,8,-31,-4,-7,7,388,103,T,4.000185760513104,53.74948667966018,1588.4393066150797,-81.25009240997849,-17.876321462692545
2025-02-19 12:51:00.516,787,78,638,-1,-7,4,-4,-6,10,856,104,T,-6.970223033272245,50.76116224077927,1561.515891679766,154.7626932033313,10.120535080443801
2025-02-19 12:51:00.626,671,-57,679,9,3,-15,-2,-10,7,675,91,T,4.798556847594448,44.55989459639384,1372.654483196382,-116.6040321046107,-31.0199613865027
2025-02-19 12:51:00.732,680,36,714,-9,-19,72,-5,-7,8,716,103,T,-2.88641854386461,43.56649532059661,1369.195954065803,72.4868446270131,-9.655751769093172
2025-02-19 12:51:00.838,1073,17,612,10,59,3,-5,-5,9,752,87,T,-1.5911402711945875,60.291633692128855,1941.5591584922954,30.760955912739067,116.60558714139364
2025-02-19 12:51:00.949,541,-131,736,-6,-7,-9,-2,-5,5,626,42,T,10.09233617681241,35.892529113467965,1127.2667291516839,-272.96107489624876,-61.58283300487847
2025-02-19 12:51:02.166,726,-10,678,1,-3,-3,-3,-6,7,345,74,U,0.8450092232020165,46.95495898983278,1456.8173472869644,-20.06635464582596,-4.498844986999984
2025-02-19 12:51:02.256,701,-13,675,7,-13,-8,-2,-6,7,365,81,U,1.1033378692432727,46.07718665790232,1421.2749641976725,-26.357452973708618,-18.560058250254997
2025-02-19 12:51:02.366,753,45,653,-2,2,-2,-3,-8,8,456,92,U,-3.9421749408964835,49.00104945162915,1507.721596726763,90.1028842665396,-1.4929650233411849
2025-02-19 12:51:02.476,734,17,651,2,-6,-12,-4,-9,7,211,100,U,-1.4958631918725354,48.41981348151408,1482.0276384293393,34.324890808308936,-12.441406835830549
2025-02-19 12:51:02.584,765,-159,631,47,10,23,-2,-9,6,0,105,U,14.143018930439972,49.61485040800163,1526.7062671899137,-317.31542023947225,2.716791376685592
2025-02-19 12:51:02.694,778,-2,626,-1,-23,-26,-3,-6,9,806,104,U,0.18305298584346993,51.17875375682797,1557.1055560743016,-4.0028420464635,-0.8895605430753903
2025-02-19 12:51:02.796,775,-89,608,-1,-3,-27,-4,-9,8,801,105,U,8.327900577048611,51.589920199682155,1558.5841693385883,-178.9857949304959,-6.734419300466357
2025-02-19 12:51:02.906,863,186,563,12,1,36,-1,-6,10,796,102,U,-18.28216043971816,55.508762192980136,1687.2127989904175,363.64030198402975,25.30381711285645
2025-02-19 12:51:03.012,499,-172,736,-30,32,-5,-5,-4,6,719,45,U,13.153708194476893,33.43282386160814,1049.9589210917752,-361.90968823203474,-76.63680545800935
2025-02-19 12:51:04.126,735,3,678,1,-1,-2,-3,-8,5,468,66,V,-0.2535194937720237,47.309762690925176,1470.0301368534292,6.000123007565017,-0.027799709693795194
2025-02-19 12:51:04.226,725,17,671,0,-1,-1,-3,-7,6,473,69,V,-1.4512964670076753,47.206044030775566,1458.8015334857723,34.206380785183626,-8.145970991659738
2025-02-19 12:51:04.333,720,17,676,0,-2,-2,-2,-7,8,483,71,V,-1.440566565817553,46.79624854437132,1448.9238049643127,34.21070095054627,-8.378461327604441
2025-02-19 12:51:04.444,678,12,667,10,-9,-14,-3,-8,5,396,83,V,-1.030697432428016,45.463944614710684,1390.809236142747,24.616092675092865,-34.24448452391198
2025-02-19 12:51:04.546,747,-22,626,1,6,-6,-4,-9,6,0,107,V,2.0127613246067195,50.01895281359858,1513.257028274787,-44.567141394973646,-16.137750602432106
2025-02-19 12:51:04.657,749,334,577,-1,-21,39,-3,-5,8,715,103,V,-30.064668373585896,48.32720044445347,1495.9539078081198,667.0875903977465,1.5762285643721725
2025-02-19 12:51:04.765,701,-342,699,11,2,-43,-3,-8,8,848,108,V,26.071134278459237,42.013133864084494,1370.300939250153,-668.5348376940833,31.608621204198357
2025-02-19 12:51:04.873,613,-19,653,-33,54,36,-4,-7,8,806,59,V,1.6666351552427334,43.178211587341934,1297.2698445842598,-40.209016390050465,-75.92040540541848
2025-02-19 12:51:05.986,730,37,668,0,0,-2,-3,-7,4,311,77,W,-3.1703291201149733,47.49564179965618,1467.2259459449795,74.36624657529347,-6.61223546746055
2025-02-19 12:51:06.080,726,39,666,3,-2,-6,-3,-6,6,294,81,W,-3.3513310679237622,47.41926192028845,1462.3246003418667,78.554627291092,-9.471327586340522
2025-02-19 12:51:06.193,812,162,596,-13,-8,-11,-4,-8,8,0,107,W,-15.206300953286394,52.74260883557502,1607.9239128935478,320.7927018334418,11.799689551041297
2025-02-19 12:51:06.300,670,174,630,2,-39,85,-2,-8,7,707,101,W,-15.439645535319265,45.710452693203905,1385.8201364259367,359.89955781807913,-43.084605893045136
2025-02-19 12:51:06.408,764,-28,630,-4,1,-55,-3,-5,9,803,105,W,2.5448043798130953,50.4630068855451,1535.2137376331575,-56.26437781901623,-5.948500927865325
2025-02-19 12:51:06.516,744,-103,712,7,-24,83,-3,-7,9,802,103,W,8.231470838054163,45.96260069676004,1462.8862151408748,-202.5232260208469,24.033622069485546
2025-02-19 12:51:06.626,785,-11,522,-26,-18,-46,-3,-7,9,816,112,W,1.2072036566589912,56.37149445452668,1617.64581669667,-22.66764838683231,-31.682950720587883
2025-02-19 12:51:06.728,1068,112,403,10,39,50,-3,-6,12,843,96,W,-15.53144344866113,68.6125942419774,1999.135997295968,209.64722069021389,51.64437555217688
2025-02-19 12:51:06.836,656,-78,677,4,-13,-6,-2,-5,10,778,55,W,6.572307553982771,43.90866567116162,1349.510799732696,-160.460125577973,-38.71160277291949
2025-02-19 12:51:09.846,787,15,609,-1,-1,0,-5,-7,9,778,108,X,-1.4109408203827345,52.25800276339551,1577.775077216437,30.071951916450516,-2.92124780789095
2025-02-19 12:51:09.946,792,20,608,-1,-1,0,-4,-10,9,781,108,X,-1.8840502310918026,52.472422191783366,1585.0602371890632,40.02677366639048,-0.8139194582707887
2025-02-19 12:51:10.054,786,21,603,-1,-1,0,-4,-6,10,781,108,X,-1.9945693012418377,52.48868981827244,1579.2331553834392,42.19325224306898,-5.549100122409527
2025-02-19 12:51:10.161,789,4,601,-1,0,-1,-2,-9,10,780,108,X,-0.38133067242307417,52.702004371351904,1584.4946795873398,8.032926132255207,-4.947151371344944
2025-02-19 12:51:10.272,788,14,611,-1,-2,1,-3,-9,10,785,108,X,-1.3126032374634664,52.20340865000976,1578.19147414537,28.0389348198416,-1.699226780229651
2025-02-19 12:51:10.376,820,10,627,-1,2,2,-6,-6,10,793,106,X,-0.9137308158871255,52.59372118172851,1614.3480558451097,19.687171412745236,19.614352420873615
2025-02-19 12:51:10.485,791,13,604,-9,9,0,-4,-7,10,812,93,X,-1.2329969367780786,52.62859442020708,1585.7176426961155,26.06109905821682,-2.838756243304374
2025-02-19 12:51:10.587,759,10,591,-3,-3,0,-2,-9,9,820,95,X,-0.9693792297546623,52.08969752878467,1547.9736162015006,20.394909304367594,-23.33913988812492
2025-02-19 12:51:10.696,794,-6,611,-3,0,-3,-5,-7,11,824,103,X,0.5626245948484775,52.41961230439971,1586.4984491890623,-11.988653268431202,1.1554754980892312
2025-02-19 12:51:10.796,779,3,615,-5,-3,-3,-3,-8,8,820,107,X,-0.2794893905447436,51.70950527412514,1563.879180039416,6.0226412581749,-4.6414579258545245
2025-02-19 12:51:10.910,712,62,616,46,26,60,-2,-9,9,0,107,X,-5.747427449052027,48.9917455780223,1466.6150560389517,127.71086162136939,-36.869205786508815
2025-02-19 12:51:11.027,962,189,713,-19,25,-25,-4,-5,9,528,96,X,-14.846356699913976,52.520398382422826,1755.5700206039382,344.9092867922498,124.83427786839093
2025-02-19 12:51:11.128,1069,12,896,45,-7,-36,-3,-10,8,165,104,X,-0.767308315089695,50.02885876495602,1835.3681054979807,20.602822512605957,253.6559190587551
2025-02-19 12:51:11.236,625,239,646,-4,-37,47,-3,-8,10,709,114,X,-20.302913431118373,42.220072968145,1296.9800811214704,495.96518302085036,-48.55861184715195
2025-02-19 12:51:11.343,965,52,473,-36,110,26,-2,-4,10,723,65,X,-6.273707928553223,63.751698815107765,1861.8858549614188,100.32960047460497,33.386518759843284
2025-02-19 12:51:11.451,692,-49,670,8,-22,-19,-3,-3,6,606,44,X,4.1828414689469255,45.84902935421913,1409.50692576845,-99.80612624660986,-24.696011943441135
2025-02-19 12:51:12.360,752,3,653,0,0,-4,-3,-6,8,508,83,Y,-0.26322531277396705,49.03025044429969,1507.0558544074572,6.012190908540388,-2.653554425624293
2025-02-19 12:51:12.463,767,-3,632,3,-2,-3,-2,-8,8,595,86,Y,0.2719715942129765,50.51151655960014,1538.7524207197093,-6.018588347013204,-3.9159451041150533
2025-02-19 12:51:12.566,753,21,643,0,-3,-4,-5,-7,9,625,89,Y,-1.8705814102035576,49.490318800434366,1513.2962182830238,42.203480191160025,-6.230369662661474
2025-02-19 12:51:12.676,766,14,646,1,1,-4,-4,-7,8,623,94,Y,-1.2415098584651756,49.85102759355403,1530.370569954436,27.9702192942064,1.3741668530475408
2025-02-19 12:51:12.782,758,32,641,1,2,-7,-2,-8,7,530,100,Y,-2.857947104465509,49.745425930597634,1521.1808856117875,64.21871812609129,-4.381197463266062
2025-02-19 12:51:12.892,767,-14,600,14,5,-18,-5,-6,8,329,106,Y,1.3366589783291134,51.95747733505317,1554.5536169950974,-28.375163804343373,-16.078448757573028
2025-02-19 12:51:13.000,774,96,580,13,-6,26,-3,-6,9,784,110,Y,-9.398232995926023,52.78153879352089,1570.3350695026616,194.7702411786247,-16.736873787524132
2025-02-19 12:51:13.109,495,-204,777,8,-26,-17,-2,-9,7,846,80,Y,14.710890850173724,31.640640834485968,1019.5899179623036,-420.1946328571918,-46.44720455900972
2025-02-19 12:51:13.217,792,-42,648,-13,-5,-3,-4,-6,12,826,0,Y,3.708428157130453,50.65172175636516,1565.3062392908269,-83.00866420481657,15.294895125687276
2025-02-19 12:51:13.316,847,70,467,0,14,7,-3,-9,10,646,0,Y,-8.524766051905864,60.8595792853583,1720.4289083913668,142.18420730507165,-14.571783020977932
2025-02-19 12:51:13.427,784,36,581,-15,-12,50,-3,-9,8,586,0,Y,-3.5456358248310336,53.40638449197921,1586.8839077867378,72.86711821469714,-13.994324520529062
2025-02-19 12:51:13.536,604,-152,609,-27,70,13,-4,-3,9,732,58,Y,14.014104450669297,43.89847768311041,1297.3826833901098,-326.4936554226766,-90.12260626585578
2025-02-19 12:51:13.646,801,-33,650,10,-16,-17,-3,-6,7,655,55,Y,2.9063672979826136,50.905078909348184,1577.1023094486038,-64.97425244919341,20.20411842497822
2025-02-19 12:51:14.966,732,-66,656,-2,-1,-2,-3,-6,6,623,60,Z,5.745181590595288,47.990664181427064,1475.0357869548611,-132.99502997133996,-9.889994866651705
2025-02-19 12:51:15.060,731,-64,663,-1,-2,-2,-2,-8,7,645,62,Z,5.513730612392829,47.66044814181176,1470.1663314184116,-128.71497292856134,-7.406672681815053
2025-02-19 12:51:15.166,760,-44,661,3,-3,-4,-3,-7,8,661,65,Z,3.8083216683780616,48.922587108492145,1513.822483822339,-87.64235432655647,5.372813412412938
2025-02-19 12:51:15.277,707,-40,672,15,-11,-15,-3,-4,8,670,78,Z,3.406443754994719,46.403297206956964,1431.2115458552628,-80.97377911486635,-16.35948912975448
2025-02-19 12:51:15.380,828,91,636,19,8,-18,-3,-10,7,193,110,Z,-8.142714235861396,52.19072965822678,1618.0558349062194,177.82980794259174,29.1455181155128
2025-02-19 12:51:15.486,731,72,590,-54,-76,44,-3,-10,9,789,107,Z,-6.957625148775654,50.88539807814008,1506.8856531192669,148.42102192145992,-36.22781852307446
2025-02-19 12:51:15.596,787,-4,595,29,32,24,-3,-7,9,739,107,Z,0.38517590846516875,52.90879952133142,1584.6765604752015,-8.054264602161126,-8.071859571467485
2025-02-19 12:51:15.703,767,23,560,4,-38,16,-2,-9,7,679,105,Z,-2.351897667605247,53.84317211676523,1574.4051017852025,47.21162625953019,-29.500465449430862
2025-02-19 12:51:15.805,817,52,575,2,-1,7,-2,-7,10,782,0,Z,-5.1674746461919385,54.752431969952845,1633.6660518632218,103.97874503903003,0.23503081841795392
2025-02-19 12:51:15.916,620,-106,707,-14,30,7,-3,-4,7,695,56,Z,8.526802698105435,40.93351730996265,1275.1828664298503,-218.0151352283292,-40.11981704178072
2025-02-19 12:51:16.023,784,9,627,-7,6,-1,-4,-6,6,679,57,Z,-0.822370979998181,51.34622636873987,1564.934600516374,17.964810465111434,2.4515375972366655
2025-02-19 12:51:16.128,735,-23,663,-7,5,1,-3,-4,8,681,52,Z,1.9868396272328233,47.93111353484617,1477.3397957559505,-46.22968068351955,-6.620795355367704
2025-02-19 12:51:17.146,712,-69,659,-24,-6,-5,-1,-6,6,569,60,a,5.9773233272936475,47.05808890603055,1444.044764667639,-139.94254039616163,-18.552668421311637
2025-02-19 12:51:17.248,756,-39,641,-11,-7,-2,-3,-5,7,667,68,a,3.4817226832621686,49.653713314686385,1518.1455684872976,-78.31703329497964,-5.210726720050047
2025-02-19 12:51:17.347,757,-49,645,-4,-5,-3,-4,-5,9,740,74,a,4.3443579399331735,49.48602100434814,1517.2474909593739,-98.21020747293173,-2.767016735529751
2025-02-19 12:51:17.460,749,-71,647,2,-12,-3,-4,-6,9,767,82,a,6.262423514721806,49.00922761853143,1503.8152302668213,-142.55124345653445,-5.023303047574473
2025-02-19 12:51:17.566,899,4,682,4,-6,-10,-6,-6,8,792,107,a,-0.3360417744630067,52.814819040221856,1695.686265526626,7.544766476203008,77.61731580738717
2025-02-19 12:51:17.676,696,-75,622,7,10,-38,-4,-6,10,648,109,a,6.875461967918993,48.00799470360628,1439.2381846462345,-155.09032162136145,-42.215733979824336
2025-02-19 12:51:17.784,811,185,647,4,-15,41,-5,-7,7,722,103,a,-15.957091303804527,50.315718457120056,1580.574764907251,360.5503471120116,33.04824550555952
2025-02-19 12:51:17.890,768,-175,628,-1,-2,-21,-5,-4,9,818,103,a,15.571155718518911,49.673289283643484,1530.3667199377135,-348.7163749858071,4.606380050932444
2025-02-19 12:51:17.997,862,23,629,-5,-8,28,-4,-7,9,853,103,a,-2.094143191775357,53.86360270795837,1669.615432383685,44.54890364828859,39.6843306620209
2025-02-19 12:51:18.096,513,-137,726,-21,22,2,-4,-6,6,760,44,a,10.68635025835197,34.77444361242244,1083.3472429780822,-289.31495572709014,-81.15808655377703
2025-02-19 12:51:20.018,707,-71,660,2,0,-6,-3,-4,7,713,58,b,6.140024307103919,46.804704635305974,1436.0248340688318,-144.21182916391382,-20.5606654673677
2025-02-19 12:51:20.108,733,-80,653,0,-4,-7,-3,-5,8,721,64,b,6.984585797964484,48.09138700579886,1477.2111458211543,-161.22359026697458,-9.987555554180062
2025-02-19 12:51:20.224,736,-44,660,5,-6,-10,-5,-4,7,728,74,b,3.8140748342903548,48.05302521933846,1479.7637638746978,-88.4641380577265,-6.962070865897317
2025-02-19 12:51:20.326,714,-15,643,-3,-6,-25,-5,-7,7,697,88,b,1.33636211669593,47.98730791239661,1456.9965822914987,-30.609171896880227,-26.113168646265535
2025-02-19 12:51:20.441,760,-229,648,19,3,-18,-2,-8,9,697,105,b,19.46315661042107,47.87672891323531,1501.7034812626407,-452.4869700120325,15.60018966027485
2025-02-19 12:51:20.539,776,23,685,11,5,23,-3,-7,9,768,101,b,-1.9230774265279433,48.548111237907214,1525.511858410001,45.2149133291624,23.381929109728617
2025-02-19 12:51:20.646,752,-56,718,1,-34,6,-5,-9,8,853,98,b,4.45972320148383,46.2381887367563,1474.2213944540877,-109.78244426785761,28.43223242282579
2025-02-19 12:51:20.758,830,29,451,10,20,18,-3,-6,9,724,103,b,-3.6791424266590598,61.43189907517019,1708.2493481098948,59.68582059661078,-26.217416864533106
2025-02-19 12:51:20.868,557,-107,774,-41,35,7,-2,-4,6,686,43,b,7.870847202654594,35.48350252909992,1137.4685191393423,-218.50831516680358,-32.61155083276617
2025-02-19 12:51:21.886,740,-42,652,-4,-4,1,-4,-5,9,729,67,c,3.68573996956838,48.558482462856446,1489.6316744453052,-84.54666260365246,-8.486286132890655
2025-02-19 12:51:21.976,734,-64,655,-1,-5,-3,-4,-5,7,739,72,c,5.5806513142138545,48.11995274051288,1478.5440677825845,-128.91937375760955,-9.409215800535094
2025-02-19 12:51:22.089,728,-10,640,5,-17,-5,-1,-7,8,793,88,c,0.8951737102110744,48.67715433491947,1479.000909954894,-20.315946565314476,-20.22058018012649
2025-02-19 12:51:22.196,753,-29,645,-2,0,-2,-5,-5,8,786,103,c,2.5743555477286795,49.388923550725856,1512.1454851445123,-58.236678710744826,-5.264060980358977
2025-02-19 12:51:22.306,822,-95,572,52,22,-9,-2,-5,8,444,104,c,9.429832401747237,54.801018928488524,1639.155149280489,-189.44007199713678,3.3713559751344064
2025-02-19 12:51:22.413,720,-72,657,25,-16,2,-3,-5,7,849,102,c,6.254032743916468,47.449215469815826,1456.6782329894104,-145.66782329894107,-15.218887602837071
2025-02-19 12:51:22.519,482,-167,760,-33,38,16,0,-2,6,768,39,c,12.393035973917895,31.775415252915924,1008.591070976742,-349.449603429701,-70.30957249444793
2025-02-19 12:51:23.636,748,-46,641,0,-2,-3,-2,-4,8,774,70,d,4.104673025230004,49.3322902250202,1506.5017193637605,-92.64582766140774,-8.999468064398911
2025-02-19 12:51:23.726,769,-43,642,-1,-2,0,-3,-4,6,791,73,d,3.8318446402479776,50.080070641667035,1535.9419881121662,-85.88492261225377,1.71813216123428
2025-02-19 12:51:23.841,738,-43,645,7,-13,-6,-4,-5,7,815,80,d,3.8140748342903548,48.78411147624338,1490.2322207350942,-86.8292486336166,-12.438729504248954
2025-02-19 12:51:23.947,757,-33,643,-7,1,-14,-3,-6,10,788,104,d,2.937952242884716,49.61805618234643,1518.7425181149079,-66.20674121240681,-4.0283211993207715
2025-02-19 12:51:24.054,922,10,588,19,4,45,-3,-6,7,583,100,d,-0.9743240911534933,57.46879270031481,1765.0986696771497,19.144237198233732,50.31885274385661
2025-02-19 12:51:24.160,792,-1,630,3,-1,-54,-3,-6,10,849,104,d,0.09094560538689955,51.49931111492537,1574.6006721076978,-1.9881321617521441,7.476738096149234
2025-02-19 12:51:24.270,772,-173,830,24,19,64,-3,-7,10,839,101,d,11.773802117427067,42.31947400647067,1445.263864538806,-323.8738971051987,106.15413527563612
2025-02-19 12:51:24.378,954,110,588,-32,72,12,-3,-4,7,835,73,d,-10.596120350589036,57.91044994432979,1801.2188269188935,207.68770540993532,65.81481108143669
2025-02-19 12:51:24.484,650,-64,687,0,-20,-17,-2,-5,5,757,49,d,5.3222371528683885,43.29123713073515,1335.7070386713083,-131.51576996148268,-37.739593180290626
2025-02-19 12:51:25.296,760,-11,642,-3,0,-2,-3,-4,8,737,70,e,0.9816073371872289,49.806842573395535,1523.8731072528337,-22.056058131291014,-3.271756389893767
2025-02-19 12:51:25.393,763,-26,645,-1,0,0,-4,-4,8,729,72,e,2.308347575200816,49.76764895710528,1526.4314606973937,-52.01470246151014,-0.36473414130932724
2025-02-19 12:51:25.500,747,-9,655,1,0,-1,-3,-6,6,725,73,e,0.7872207128731061,48.75171646698133,1498.8595598237368,-18.058548913538996,-4.261059818671242
2025-02-19 12:51:25.608,714,-25,656,7,3,-2,-3,-6,8,710,78,e,2.1824720179253294,47.40349852312247,1450.1384163001069,-50.77515463235669,-20.340057553039287
2025-02-19 12:51:25.717,877,-8,577,35,2,4,-4,-5,8,668,97,e,0.7943446593165262,56.655564293228885,1712.3813157407462,-15.620354077452646,27.381962163727962
2025-02-19 12:51:25.826,722,-24,641,-11,-1,-32,-2,-7,7,842,99,e,2.144238190832705,48.3810326002612,1469.578261019381,-48.85024690369133,-22.70867771942244
2025-02-19 12:51:25.931,915,141,590,5,-5,52,-2,-6,6,678,96,e,-13.440627072300387,56.45695398891666,1748.4709194759862,269.4365023454799,52.57066394444598
2025-02-19 12:51:26.040,1013,39,636,-3,36,-4,-3,-4,8,855,89,e,-3.509026588616569,57.82939256629145,1859.4664187325297,71.58853931941624,104.55612802182748
2025-02-19 12:51:26.146,646,-69,705,-2,-12,-6,-2,-5,6,713,47,e,5.589868959827794,42.363397246591106,1319.830496271341,-140.972607186877,-30.3722908224388
2025-02-19 12:51:26.254,777,-16,641,-5,0,-1,-4,-5,5,674,59,e,1.4298629529717846,50.46970626207613,1548.2881647936656,-31.88238177181293,4.712080266744465
2025-02-19 12:51:26.360,752,-12,654,-2,-1,1,-2,-5,8,689,61,e,1.0511807495437469,48.98236556909799,1506.5076233661728,-24.040015266481483,-2.1808320232407823
2025-02-19 12:51:26.467,756,-28,645,-2,-2,0,-3,-4,6,736,63,e,2.4856979950378006,49.503397791307435,1516.4444782503615,-56.16461030556896,-3.7919159675703895
2025-02-19 12:51:26.577,751,-17,649,-1,-4,1,-2,-4,6,755,64,e,1.500470835654396,49.15732283055322,1507.5081407110256,-34.12468494285942,-4.760031053868602
2025-02-19 12:51:26.684,765,-25,647,-1,-1,1,-2,-6,8,759,67,e,2.2128010071817483,49.75599890821738,1528.3001152319403,-49.94444821019414,1.4376803201759003
2025-02-19 12:51:26.789,753,-14,643,-2,0,0,-3,-6,8,759,67,e,1.2473004582894096,49.4986961274343,1513.391185998783,-28.137419128795432,-6.311464272533158
2025-02-19 12:51:26.896,754,-20,646,-2,-1,-1,-4,-5,6,759,67,e,1.773296715560803,49.39766240286729,1513.244755917602,-40.13911819410086,-4.493517669457674
2025-02-19 12:51:27.003,751,-23,649,-2,0,-1,-4,-5,6,759,67,e,2.0296635649875734,49.149254515819564,1507.4160400230458,-46.16587073306265,-4.680439380767439
2025-02-19 12:51:27.106,738,-25,649,-2,-1,-2,-3,-4,7,751,66,e,2.205988645193594,48.65041442355038,1488.6926659569367,-50.42996835897482,-11.161978598986366
2025-02-19 12:51:28.730,761,-21,645,-3,-1,1,-3,-4,10,756,69,f,1.8647852593390069,49.70145235948758,1523.6847245722706,-42.04649042840694,-1.4279203010702304
2025-02-19 12:51:28.826,748,-29,653,-2,-1,-1,-5,-5,4,753,68,f,2.5428583899516326,48.851247910401916,1501.0037691828925,-58.19399639880198,-4.368263738541032
2025-02-19 12:51:28.932,755,-36,644,0,-1,-2,-2,-5,9,753,69,f,3.199539709562572,49.492343425846975,1515.3191714909528,-72.25362936910504,-4.537147602879031
2025-02-19 12:51:29.038,756,-34,643,-1,-1,-1,-2,-4,7,755,69,f,3.0268179780306577,49.57838877778632,1517.2937909803888,-68.23808054673705,-4.502523280939158
2025-02-19 12:51:29.144,766,-25,644,0,-2,0,-3,-4,7,757,71,f,2.2230987677893093,49.92394041013877,1531.1904740982377,-49.97357944184848,0.6805935779831316
2025-02-19 12:51:29.252,751,-58,641,-3,0,0,-4,-6,7,773,71,f,5.1702500740963515,49.402910582813846,1510.3043651994662,-116.64134910994548,-7.088013439224937
2025-02-19 12:51:29.363,707,-40,653,-2,-6,3,-4,-5,7,791,74,f,3.5053156152516425,47.22030334778746,1440.9705854328831,-81.52591713905989,-24.91059729515257
2025-02-19 12:51:29.469,755,-41,633,-3,-3,5,-5,-4,7,799,80,f,3.7059243722121007,49.964116548086,1520.6417250702227,-82.57789500381341,-8.922135058875597
2025-02-19 12:51:29.572,770,-55,634,-2,0,2,-3,-6,7,803,82,f,4.9580413450344585,50.427321765500345,1540.8171138277048,-110.05836527340747,-0.6727924243698453
2025-02-19 12:51:29.682,752,-44,642,-1,-1,-1,-2,-5,6,809,81,f,3.920682529253573,49.44553290811031,1511.78823724955,-88.45569473268645,-6.649000417834259
2025-02-19 12:51:29.788,764,-45,633,0,-5,4,-5,-3,8,816,84,f,4.066318774805974,50.2861298381676,1533.2448995959505,-90.30892733222223,-4.345577806592473
2025-02-19 12:51:29.899,831,27,546,4,20,-29,-3,-6,8,787,103,f,-2.8310016778652676,56.66137879153295,1666.4370932143215,54.1441654834978,-2.915346444066813
2025-02-19 12:51:30.005,789,90,648,-1,-21,-36,-2,-8,6,860,101,f,-7.907162702958458,50.335280143331616,1558.7927334230478,177.8090570444541,15.774789279930474
2025-02-19 12:51:30.109,779,60,711,11,47,32,-3,-5,9,842,90,f,-4.823658197595177,47.511789646740986,1516.4163361501787,116.79715040951312,37.9537676472695
2025-02-19 12:51:30.216,773,-66,656,43,5,-21,-2,-7,7,413,98,f,5.745181590595288,49.53827739404925,1533.839670398716,-130.96173123714783,10.319762248955158
2025-02-19 12:51:30.322,755,53,642,-2,-1,18,-4,-5,8,872,99,f,-4.719323705871333,49.528399642955385,1515.7277823212778,106.40208273248705,-4.870511589748617
2025-02-19 12:51:30.435,531,-128,725,-10,25,7,-2,-3,7,683,44,f,10.012488085287025,35.80136806719628,1115.9770408159054,-269.01141473528423,-73.69746627407062
2025-02-19 12:51:31.446,753,-32,657,0,-6,-2,-4,-3,6,707,60,g,2.7884583910895064,48.861348270253956,1506.1197555624587,-64.00508921380967,-0.10448792102954485
2025-02-19 12:51:31.546,760,-41,653,-2,-2,0,-5,-4,6,732,64,g,3.5927217650109102,49.27475860505333,1517.8469836529698,-81.8838504339102,1.849894308698481
2025-02-19 12:51:31.656,759,-43,645,2,-5,-2,-5,-6,7,761,68,g,3.8140748342903548,49.579337812291655,1520.304530946411,-86.13055972423672,-1.9583958635508907
2025-02-19 12:51:31.755,749,-27,645,1,-3,-2,-3,-4,7,768,71,g,2.3970285300595955,49.24187132717028,1506.4723683603993,-54.305412477611185,-7.295964742933961
2025-02-19 12:51:31.871,660,-52,666,-1,-21,-14,-3,-5,7,779,80,g,4.464486932881132,44.65369339513459,1362.8200030789003,-107.37369721227697,-43.20927583416278
2025-02-19 12:51:31.980,769,-104,641,2,10,-19,-4,-7,8,624,103,g,9.215734299691336,49.82058183714751,1533.0278411923455,-207.3275623979245,4.144543297407608
2025-02-19 12:51:32.086,738,93,642,4,-14,35,-2,-5,9,802,100,g,-8.242520351518872,48.68457239815635,1489.086392606777,187.64909825532555,-11.384097633537635
2025-02-19 12:51:32.193,772,-141,629,5,5,-15,-3,-7,7,804,100,g,12.634857322969125,50.13855763376213,1539.5966465125744,-281.1957605677111,3.5877064036149022
2025-02-19 12:51:32.299,855,167,555,-7,-12,44,-1,-5,8,746,106,g,-16.746588281649217,55.867739063772575,1682.7445302327983,328.67641701623074,17.69214704186777
2025-02-19 12:51:32.405,855,123,540,-24,84,14,-2,-4,6,249,60,g,-12.831779042530085,57.06661790192156,1694.303253661648,243.7418715793949,9.913734529485737
2025-02-19 12:51:32.516,583,-64,734,6,-31,-19,-2,-3,3,625,40,g,4.983214162197774,38.35371271783037,1203.5144587645127,-132.11822531891738,-47.23089662633345
2025-02-19 12:51:34.229,752,-26,658,-1,-1,0,-4,-5,7,594,63,h,2.2627898071394603,48.791924476146605,1504.3220627790597,-52.011135149276,-0.28180493167735676
2025-02-19 12:51:34.326,743,-31,659,-1,0,-1,-2,-5,5,597,63,h,2.693263684225309,48.39730653609034,1490.7668786248162,-62.19888726429245,-4.227958295765461
2025-02-19 12:51:34.433,741,-25,658,-2,0,-1,-4,-7,7,607,63,h,2.1758447500578515,48.374751221736375,1488.5054426715928,-50.219481871511235,-5.776762858175516
2025-02-19 12:51:34.544,736,-26,656,-3,-2,-2,-4,-4,8,613,64,h,2.269681352647719,48.266906373072715,1482.2538255317145,-52.362227532370355,-9.139279278267281
2025-02-19 12:51:34.650,748,-12,651,-4,-3,-4,-4,-6,8,622,67,h,1.0560238059975422,48.9614492518821,1502.267988317425,-24.10055596231163,-5.455160955405745
2025-02-19 12:51:34.756,753,-36,653,-5,-3,-3,-3,-7,7,698,70,h,3.155531656726751,49.02520410096935,1507.9981039819027,-72.09552688359693,-1.7327515274666894
2025-02-19 12:51:34.864,753,-24,652,-6,-1,-3,-5,-4,8,758,73,h,2.1080953123570025,49.09250173892588,1508.7677771944868,-48.088216006198785,-2.396534835066973
2025-02-19 12:51:34.971,743,-46,655,-6,-4,-4,-5,-7,9,778,76,h,4.017229922840265,48.53192094765014,1492.3247671524614,-92.39157374026007,-5.5756695623988435
2025-02-19 12:51:35.076,751,-30,647,-1,-3,-4,-1,-6,7,785,79,h,2.6547807195666615,49.22408323909162,1508.2696422407075,-60.250451753956355,-5.401409493658775
2025-02-19 12:51:35.179,753,-21,639,-2,0,-3,-5,-4,8,799,82,h,1.882282443010753,49.66662161429998,1515.2914046807277,-42.25912283970156,-7.884737836633121
2025-02-19 12:51:35.287,756,-10,635,-4,-1,-5,-3,-5,8,811,84,h,0.9022211615301559,49.968019575628446,1521.685543096814,-20.12811564942875,-8.135343738725851
2025-02-19 12:51:35.396,783,-4,640,-2,0,-3,-3,-7,7,811,86,h,0.35809395932357113,50.73794923966573,1557.259552924932,-7.955348929373853,7.144171300183416
2025-02-19 12:51:35.506,729,-31,641,-3,-9,-19,-4,-5,9,782,95,h,2.7687774696113627,48.64207344100122,1479.5964819244377,-62.918368915854,-18.98949919556196
2025-02-19 12:51:35.617,769,-113,641,14,0,-30,-4,-7,8,772,104,h,9.997781193590152,49.75531890773235,1532.2924477674005,-225.16130896972203,4.757530534585726
2025-02-19 12:51:35.719,802,56,596,12,3,13,-2,-5,10,730,104,h,-5.367736847156145,53.26177617320582,1603.3767712137592,111.95648277801808,0.4631475768075006
2025-02-19 12:51:35.829,743,-292,725,-1,-17,-20,-3,-7,9,848,101,h,21.937536052536892,43.54991249974884,1431.986215210463,-562.7725098808279,52.70524087808144
2025-02-19 12:51:35.936,816,34,580,14,5,39,-3,-3,8,840,106,h,-3.3548787392873547,54.54896166625281,1630.6114562747957,67.94214401144981,0.9869550987971252
2025-02-19 12:51:36.038,420,-219,759,-26,32,3,-2,-4,6,747,40,h,16.09483682316408,27.998250950127286,889.4446091093555,-463.7818318927352,-89.3534721761921
2025-02-19 12:51:38.056,742,-76,653,0,-5,-2,-5,-5,5,719,59,i,6.638554438670652,48.45923914494315,1490.4841360283035,-152.66414331287206,-5.706389254019086
2025-02-19 12:51:38.156,769,-50,638,7,-6,-4,-3,-4,6,759,66,i,4.481105748108875,50.23301707636186,1537.6522635083516,-99.97739034514639,0.28849919593210416
2025-02-19 12:51:38.263,744,-43,643,3,-8,-7,-2,-4,9,787,73,i,3.825903029727832,49.1016204096935,1499.871985907453,-86.68614972314583,-10.26033190657597
2025-02-19 12:51:38.369,746,-24,605,4,-19,-18,-3,-4,9,804,98,i,2.2716992969019945,50.93618579374164,1522.4445626664328,-48.97944973725789,-24.690295460042535
2025-02-19 12:51:38.479,748,-141,739,-2,-14,23,-5,-7,9,803,103,i,10.80211039559443,44.83460326128274,1453.0626201794012,-273.9061890979887,42.420753592811025
2025-02-19 12:51:38.586,1036,136,480,6,56,-65,-3,-3,8,835,97,i,-15.81919394750014,64.28645622548103,1936.9744863140168,254.27464299102917,62.56008356107344
2025-02-19 12:51:38.687,807,142,483,-5,-8,-2,-3,-8,9,752,106,i,-16.383117760413764,58.04231895736156,1655.4392658931981,291.29166760450323,-24.801939809683688
2025-02-19 12:51:38.795,766,119,555,-26,75,40,-2,-5,8,838,56,i,-12.10180712982666,53.46115319074304,1569.453383225269,243.81847598408223,-27.13658967366075
2025-02-19 12:51:38.910,723,-74,698,19,-44,-17,-2,-4,6,792,48,i,6.051732108794013,45.847900831152046,1440.4932060447677,-147.43637240292225,5.3163792264898575
2025-02-19 12:51:39.925,752,-44,637,0,-2,0,-4,-5,9,823,73,j,3.951360010546247,49.665651971837825,1514.2804511375198,-88.60151575804636,-8.7083076789894
2025-02-19 12:51:40.020,760,-42,636,0,-2,0,-3,-5,9,826,74,j,3.778197707161587,50.01462167661584,1526.2084552561814,-84.34309884310477,-5.195496767015015
2025-02-19 12:51:40.131,765,-34,630,-1,-3,-1,-3,-5,7,833,76,j,3.08915637533654,50.48664862707019,1536.4763400464208,-68.28783733539647,-5.333456508816994
2025-02-19 12:51:40.238,785,-18,608,6,-23,-14,-2,-5,9,828,101,j,1.6957613171808237,52.2292686702723,1575.4680034345633,-36.12538097047407,-4.2350905582352425
2025-02-19 12:51:40.346,748,-109,766,-1,-16,46,-3,-6,9,797,104,j,8.098684455908607,44.03181796727688,1443.0577330672384,-210.28515094161628,54.2162787038709
2025-02-19 12:51:40.454,812,-122,494,42,69,-94,-7,-4,8,669,106,j,13.872385631960105,57.92658233764694,1659.3683722090966,-249.31396725309082,-21.517211664154615
2025-02-19 12:51:40.564,1179,-318,1139,34,-17,-44,-1,-9,10,815,103,j,15.599322686573725,44.913660233551056,1885.040430203055,-508.43329669598944,456.91344359518246
2025-02-19 12:51:40.663,1032,42,611,6,42,41,-4,-7,8,835,89,j,-3.9323129428388435,59.31292873900635,1891.9674532365843,76.99867542241911,101.85260278337915
2025-02-19 12:51:40.773,613,-73,709,6,-19,-8,-3,-3,6,772,51,j,5.878568555979283,40.69721978947854,1265.0616154829536,-150.65170951102056,-45.17893210018599
2025-02-19 12:51:40.876,800,-5,622,-3,1,3,-3,-7,7,781,68,j,0.4605670854643111,52.13403724849889,1589.4488691036036,-9.934055431897523,8.20350427194819
2025-02-19 12:51:41.696,757,-35,638,0,-1,-4,-3,-4,7,723,72,k,3.1400379363058493,49.83336628291826,1521.171782349179,-70.33158835167936,-6.044381953469269
2025-02-19 12:51:41.794,765,-18,646,0,0,-5,-3,-4,8,695,76,k,1.5960638579757207,49.80980609240128,1528.9064866266754,-35.974270273568834,0.9234112930296305
2025-02-19 12:51:41.900,743,-4,648,-2,0,-5,-4,-7,7,654,78,k,0.3536731592464612,48.90647565857615,1496.6376850665306,-8.057268829429505,-9.27755036757992
2025-02-19 12:51:42.011,740,-12,661,0,-10,-19,-4,-6,7,554,90,k,1.0400511878064203,48.22270329426086,1485.740052800635,-24.0930819373076,-5.127263380026761
2025-02-19 12:51:42.116,766,-92,614,5,-4,-39,-4,-7,8,379,104,k,8.521639171746713,50.97472540229702,1542.8682769289162,-185.3053282995565,-8.711647564431473
2025-02-19 12:51:42.218,805,79,553,19,3,35,-3,-5,7,520,104,k,-8.13010235415598,55.2420250574746,1626.5675927012162,159.625887979374,-11.381215855618052
2025-02-19 12:51:42.326,546,-174,782,7,-40,-14,-2,-6,8,834,89,k,12.54432240671791,34.27608321643727,1109.1811644332179,-353.47531613805836,-24.607455287135963
2025-02-19 12:51:42.441,793,-10,614,22,23,-8,-3,-6,10,541,105,k,0.9330735232184577,52.24660216970782,1583.6532658325282,-19.97040688313403,1.8170173755706855
2025-02-19 12:51:42.546,720,33,686,-19,-45,57,-4,-5,9,709,105,k,-2.754087877705039,46.35219018663925,1443.5961641816757,66.16482419166016,-3.426345317541177
2025-02-19 12:51:42.650,994,94,601,-18,86,2,-2,-4,9,727,81,k,-8.889383510342132,58.53426238527887,1846.9524615513765,174.66150038815837,85.28125815656199
2025-02-19 12:51:42.756,694,-82,699,6,-15,-7,-1,-4,7,539,49,k,6.690812726273563,44.59857783858294,1396.135379296121,-164.96124078138604,-8.193991538888326
2025-02-19 12:51:42.866,699,-74,666,-3,-2,2,-5,-2,7,613,55,k,6.34019174590991,46.20932719459092,1420.872892698477,-150.4214507291664,-21.79305656249744
2025-02-19 12:51:42.973,739,-56,663,-4,-3,-1,-3,-4,7,638,57,k,4.828002873792099,48.00161788713866,1482.1637197281727,-112.31551868034867,-3.7355158048424073
2025-02-19 12:51:43.078,753,-45,651,-6,-1,-1,-5,-3,8,626,60,k,3.9542477155210967,49.0876397219786,1508.7122059503627,-90.16208402093798,-2.344815502902975
2025-02-19 12:51:43.190,743,-52,647,-5,-2,-4,-3,-4,7,638,63,k,4.595038936755194,48.85947259003272,1496.0982181628892,-104.70673935998684,-8.79346857522114
2025-02-19 12:51:43.292,751,-50,655,-5,0,-3,-2,-5,5,642,63,k,4.3652577350279325,48.823555404657725,1503.6856452963361,-100.11222671746577,-1.4701699988017936
2025-02-19 12:51:43.401,750,-56,655,-2,-1,-1,-5,-4,8,655,65,k,4.886687010879143,48.76480701224151,1502.0101778454773,-112.15009327912898,-1.7555553183835855
2025-02-19 12:51:43.510,752,-59,653,-4,0,0,-3,-4,8,658,65,k,5.162782526245367,48.91520879360554,1505.7378617530699,-118.13634819605201,-1.5090741020673022
2025-02-19 12:51:43.616,749,-60,651,-2,0,-1,-4,-6,7,658,66,k,5.265840311779105,48.88415790594558,1502.3816014116178,-120.35099610773973,-3.8083077689760785
2025-02-19 12:51:43.719,760,-54,653,-1,-1,-1,-3,-3,8,652,66,k,4.727332583094222,49.23394902106774,1517.3820889560634,-107.8139905310887,2.2493367259087336
2025-02-19 12:51:43.828,757,-63,648,-1,-1,0,-4,-4,8,657,66,k,5.552971033036803,49.30293325662079,1515.16771937268,-126.09718140089674,-0.9995801235094177
2025-02-19 12:51:44.746,754,-66,653,-3,-1,-3,-4,-5,7,692,68,l,5.771398217248453,48.96173033048074,1508.2712092583586,-132.02373980245576,-0.2348801667214957
2025-02-19 12:51:44.845,755,-46,640,-3,-2,-3,-3,-6,7,714,69,l,4.111064603979117,49.63982556667699,1516.9886234226708,-92.42579692376538,-5.924131113257317
2025-02-19 12:51:44.951,754,-47,645,-3,-1,-4,-3,-5,8,743,72,l,4.167675238100056,49.380118528676455,1513.0454448398668,-94.31450385606595,-4.316063556649851
2025-02-19 12:51:45.058,753,-64,635,-1,-4,-8,-3,-5,8,746,76,l,5.7552577523320885,49.716529900795706,1515.8548975771364,-128.83760085648964,-8.310570997983291
2025-02-19 12:51:45.168,656,-102,653,1,-28,-34,-3,-7,9,725,98,l,8.877982528102635,44.78601819601922,1360.4610334918534,-211.53509971976987,-48.23941291185997
2025-02-19 12:51:45.274,769,-141,637,16,0,-29,-3,-8,9,685,107,l,12.481180305729863,49.68877081591827,1531.5415531557996,-280.81581143688913,5.349844785117739
2025-02-19 12:51:45.381,808,27,556,20,4,23,-4,-3,10,709,109,l,-2.780164996216869,55.43589001506222,1631.4919037369823,54.517675001112025,-10.660270393270025
2025-02-19 12:51:45.487,685,-71,629,-40,64,7,-4,-6,7,721,58,l,6.440149389637582,47.25960915859269,1419.4363417691825,-147.12405878191524,-45.39483061724911
2025-02-19 12:51:45.596,757,-68,655,6,-17,-10,-4,-4,5,713,52,l,5.927031287155546,48.979733341806636,1511.4774718706035,-135.77340566340956,2.1826366245109057
2025-02-19 12:51:46.606,727,-80,658,-2,-2,-4,-3,-4,9,708,56,m,6.932029797429124,47.642870621690065,1465.9596695015653,-161.31605716660965,-10.824570195364458
2025-02-19 12:51:46.706,746,-48,660,-1,-2,-3,-1,-4,8,726,59,m,4.1596422937126425,48.42520543516524,1494.090091110053,-96.13448307410528,-1.849142268947503
2025-02-19 12:51:46.818,720,-85,657,5,-12,-7,-5,-4,7,741,66,m,7.37174819368353,47.38268335517867,1455.8924796091226,-171.8761955094103,-14.50188764332438
2025-02-19 12:51:46.925,820,-18,620,2,-2,-1,-3,-6,8,754,79,m,1.6629587413422697,52.89555065129573,1617.5370838309118,-35.506911596288305,16.984156127847086
2025-02-19 12:51:47.032,765,-10,633,-1,1,-6,-5,-4,6,723,78,m,0.9050713078765924,50.39039925250736,1535.4064222285392,-20.070672185993974,-4.47354937341845
2025-02-19 12:51:47.142,1576,-211,709,16,-7,-26,-6,-7,10,536,106,m,16.57312398557261,64.85593144785913,2481.242261877048,-332.1967749086657,301.75586061495744
2025-02-19 12:51:47.248,782,225,634,3,-17,36,-2,-6,10,480,106,m,-19.539244109779798,49.29514509434391,1540.079078512159,443.11738192485393,19.393688265078367
2025-02-19 12:51:47.355,817,-42,572,-1,5,-46,-4,-4,10,734,104,m,4.199496440228173,54.93086847522637,1635.4593865055863,-84.07502354129082,-1.0217491813893957
2025-02-19 12:51:47.462,798,140,593,-1,-7,39,-4,-6,8,719,105,m,-13.283595392092188,52.63694799857859,1592.806130281183,279.4396719791549,2.373389402579619
2025-02-19 12:51:47.573,846,-102,637,-9,-8,-32,-3,-7,8,815,104,m,9.097292873706264,52.672778566644226,1641.1854837929513,-197.87342712397282,38.26104825518951
2025-02-19 12:51:47.675,851,54,529,11,1,47,-5,-4,9,810,108,m,-5.8285296428384,58.00071748597076,1699.0547319999594,107.81310872855207,1.8308422702956477
2025-02-19 12:51:47.786,560,-195,701,-39,59,14,-3,-3,7,766,46,m,15.54518646829438,37.58317725589481,1169.912511641124,-407.38024958931993,-62.479769036478274
2025-02-19 12:51:48.701,714,-104,660,0,-5,-7,-1,-4,8,719,56,n,8.95479412885125,46.900243243443484,1444.1651773839492,-210.35459166376847,-14.942600943146203
2025-02-19 12:51:48.797,784,-67,618,7,-14,-8,-3,-4,8,720,72,n,6.187511934501867,51.58965444944095,1567.5812876727189,-133.96421718631655,0.33005640084149945
2025-02-19 12:51:48.904,761,-54,622,-1,-2,-5,-3,-4,10,695,83,n,4.961790710190867,50.63385989659996,1534.1085431242761,-108.85921330973838,-9.896864419579174
2025-02-19 12:51:49.006,769,-20,629,0,4,-7,-4,-6,7,638,88,n,1.821191803006024,50.70452096786364,1542.8901847258126,-40.12718295775846,-3.9999040215034256
2025-02-19 12:51:49.117,821,-49,676,-9,-7,-17,-3,-6,8,515,104,n,4.145845686112812,50.45874727024173,1592.1664096757854,-95.02576622912727,41.032286308366565
2025-02-19 12:51:49.225,799,143,571,2,-9,31,-4,-6,8,409,105,n,-14.059851121931718,53.62042760343962,1604.1053172008624,287.09269131379637,-4.363124057186951
2025-02-19 12:51:49.338,793,-26,666,-9,-13,-44,-4,-5,10,795,102,n,2.2356368961463007,49.95333742497106,1558.5206928900366,-51.09903911114874,23.07845969134371
2025-02-19 12:51:49.435,807,123,582,5,-9,65,-2,-4,8,768,108,n,-11.933304092550085,53.60534832981024,1611.9491871075493,245.68742257029564,1.4790249112841138
2025-02-19 12:51:49.549,716,-90,618,-37,63,14,-2,-5,8,781,60,n,8.285797023953748,48.903980667405804,1469.6090621229014,-184.727396076901,-32.46145306138692
2025-02-19 12:51:50.467,760,-51,625,-2,-1,-1,-4,-4,10,728,70,o,4.664999868746953,50.4738992524546,1531.3347417285886,-102.76062082652372,-9.321333658378876
2025-02-19 12:51:50.563,758,-36,631,0,-6,-3,-3,-6,7,758,78,o,3.265316123810232,50.178398237277996,1526.0421336305226,-72.4769351064628,-8.35961256050075
2025-02-19 12:51:50.667,786,-30,606,3,-3,-1,-3,-5,7,793,86,o,2.8341110163065135,52.33413772873285,1577.5877499567705,-60.21327289911339,-4.308112562090287
2025-02-19 12:51:50.776,790,26,566,-3,4,-8,-5,-5,11,791,106,o,-2.6301126633575898,54.351484921399056,1602.6075582383323,52.744046220502064,-16.19731387708339
2025-02-19 12:51:50.883,899,1,537,59,25,8,-3,-6,7,428,104,o,-0.10669592790226687,59.148801839316,1757.5020046027048,1.9549521741965568,24.19068245644894
2025-02-19 12:51:50.995,709,-11,673,-11,-20,-34,-3,-5,9,847,108,o,0.9364003856601961,46.488351047339975,1434.2344048776258,-22.25187370049913,-15.410090948719358
2025-02-19 12:51:51.099,1085,41,650,6,45,21,-2,-6,8,792,96,o,-3.609259826509349,59.02491482865217,1942.391181793681,73.39911378206537,136.35551321115884
2025-02-19 12:51:51.206,583,-73,707,-5,-5,6,-3,-3,5,727,47,o,5.895081220169217,39.360323020286096,1217.1952477415475,-152.41038265031386,-62.084116900984895
2025-02-19 12:51:52.125,743,-52,655,-3,-1,-2,-4,-4,8,689,55,p,4.53915229790068,48.51254629864539,1492.1007995401517,-104.42697385745342,-5.378228396769032
2025-02-19 12:51:52.221,751,-31,647,-2,-7,-2,-3,-6,7,710,59,p,2.743140419039271,49.22202316076389,1508.2461593582234,-62.25783081239004,-5.381178568269661
2025-02-19 12:51:52.327,768,-38,640,2,-6,-3,-4,-4,9,753,66,p,3.397947624637999,50.144838739498134,1535.6669048292779,-75.98351872853198,0.27757930893506
2025-02-19 12:51:52.434,646,-48,647,3,-17,-26,-4,-4,8,803,74,p,4.242918656646712,44.87706608133118,1351.587985258995,-100.42759023596247,-59.6802267222439
2025-02-19 12:51:52.545,609,-295,713,29,18,11,-4,-6,8,769,104,p,22.477068464928173,38.28229753969149,1228.5365328296587,-595.1039034232338,-12.33587505344292
2025-02-19 12:51:52.651,953,85,625,5,-11,-19,-3,-3,8,814,104,p,-7.744710546422914,56.50097920890196,1786.8952547799495,159.37680656484335,78.11171643497539
2025-02-19 12:51:52.762,875,-104,636,-10,-26,-16,-3,-6,8,854,101,p,9.286927512496995,53.62794866586263,1680.18316908627,-199.7017709542538,50.74686224129425
2025-02-19 12:51:52.864,775,22,526,22,18,33,-3,-6,9,755,107,p,-2.3950055168723465,55.81161214711599,1602.1944748383585,45.4816496083147,-35.42489518061484
2025-02-19 12:51:52.971,572,-104,748,-50,59,14,-2,-2,7,738,42,p,7.915512423026583,37.14101361088774,1175.7787617143395,-213.7779566753344,-41.556842241828235
2025-02-19 12:51:54.086,732,-55,636,2,-10,-5,-3,-5,9,723,66,q,4.9425273730802814,48.908472182440846,1485.6605884830033,-111.62750323301255,-18.819855567199625
2025-02-19 12:51:54.187,754,-45,625,7,-20,-10,-5,-4,10,757,83,q,4.118189703988783,50.27144513602719,1523.081112707359,-90.90006640826412,-12.500922337001612
2025-02-19 12:51:54.290,743,-9,626,1,-4,-4,-3,-5,9,810,96,q,0.823684490811251,49.881929932061794,1507.7182177644322,-18.26307397022866,-18.29825615146001
2025-02-19 12:51:54.399,777,-109,635,-4,3,-27,-3,-8,8,718,107,q,9.74010002930731,50.33452975136999,1546.7843737423739,-216.98776928947075,5.896940377854094
2025-02-19 12:51:54.507,770,175,605,4,-12,42,-4,-4,8,779,104,q,-16.13284053048538,50.71943937573897,1544.055059349627,350.9216043976425,-3.186118060421336
2025-02-19 12:51:54.615,778,-129,607,4,-1,-23,-3,-6,9,840,104,q,11.998028222066697,51.42308411536348,1559.7717662151704,-258.62539568349223,-2.9427533324014803
2025-02-19 12:51:54.721,818,208,518,16,7,21,0,-4,9,668,108,q,-21.87765133025796,55.690492890946054,1644.004777046217,418.0354445300894,-5.0690397432034615
2025-02-19 12:51:54.826,1010,161,604,-21,81,32,-3,-3,9,854,79,q,-14.925512831547461,58.24661065289741,1860.3210951828885,296.546233984599,95.4911470391441
2025-02-19 12:52:03.571,761,-66,626,-1,-1,-2,-2,-5,7,729,70,s,6.018534608581314,50.40376980359993,1531.555180728504,-132.82870161377298,-7.860109245786134
2025-02-19 12:52:03.666,767,-56,627,0,-2,-1,-3,-4,7,733,70,s,5.103784143053766,50.62342891616242,1539.9930576366569,-112.43756353018614,-4.899148811191367
2025-02-19 12:52:03.766,768,-48,633,-2,-1,-1,-4,-2,10,746,71,s,4.336404785660007,50.423374284530304,1538.7732210100053,-96.17332631312533,-2.2857407543401678
2025-02-19 12:52:03.879,768,-64,631,-2,-2,-1,-4,-4,7,749,72,s,5.791493933377507,50.449088494955745,1539.0590766585299,-128.25492305487748,-2.513381994182623
2025-02-19 12:52:03.984,780,-55,621,1,-3,-2,-3,-5,7,780,75,s,5.0612992501063,51.365694121906444,1561.1467841163503,-110.08086298256316,-0.9130165849402374
2025-02-19 12:52:04.096,759,-56,622,-6,-1,-1,-3,-4,9,820,77,s,5.144592057868092,50.551974351565775,1531.2012673745455,-112.97400655200863,-10.818429916952823
2025-02-19 12:52:04.202,784,-40,613,-1,-3,0,-4,-4,8,833,79,s,3.7334202981042024,51.919504258811465,1571.1450237248464,-80.16046039412481,-2.459055539962719
2025-02-19 12:52:04.305,785,-56,608,-5,-2,-1,-4,-4,8,830,83,s,5.2623953995951185,52.12420025223486,1574.343472587785,-112.30985282154899,-3.3641163482461707
2025-02-19 12:52:04.413,748,-54,605,-7,-5,-5,-3,-5,10,826,88,s,5.100487484290937,50.92205649834466,1524.2891335821032,-110.04226365432298,-22.880916867877772
2025-02-19 12:52:04.516,787,-71,596,-4,0,2,-4,-4,10,829,92,s,6.7934883633381915,52.668650409284,1582.141793077281,-142.73452008702282,-6.16583058965648
2025-02-19 12:52:04.629,956,-18,671,-5,-13,-3,-4,-4,10,851,111,s,1.5366270532263926,54.92595066829038,1774.4100675247355,-33.40939457682556,96.57201327500275
2025-02-19 12:52:04.738,821,-30,438,18,7,-19,-3,-5,10,771,115,s,3.918248864067376,61.864549286955764,1702.8352672190426,-62.22296956951433,-32.45535571490933
2025-02-19 12:52:04.844,749,-65,589,2,-14,34,-4,-4,10,786,117,s,6.297481519372057,51.65051063157535,1533.240742210403,-133.05827535871322,-27.712679788954915
2025-02-19 12:52:04.946,792,41,492,-32,92,37,-2,-4,8,672,61,s,-4.763641690726178,58.062015173527634,1640.6211674559042,84.93114629506576,-35.1737555407891
2025-02-19 12:52:05.062,665,-137,652,14,-30,-11,-2,-2,7,679,46,s,11.866512176664221,44.946719494303785,1371.448922629636,-282.53910135377464,-40.638642939131955
2025-02-19 12:52:05.776,740,-93,647,-2,1,-2,-5,-3,9,594,56,t,8.179687611801118,48.54550204915421,1489.4817112718085,-187.19162047064617,-8.290090801162023
2025-02-19 12:52:05.873,743,-100,651,-1,-2,-2,-3,-3,9,598,57,t,8.732934563491344,48.444470683184576,1491.3131780654403,-200.7150979899651,-4.655287914672499
2025-02-19 12:52:05.984,741,-109,652,-2,-1,-2,-4,-3,6,604,59,t,9.490820479494495,48.26374816596027,1487.2171323957662,-218.76743243068626,-4.5905132551141605
2025-02-19 12:52:06.086,744,-86,645,-2,-1,-3,-3,-2,9,609,59,t,7.594643368591445,48.82681003148618,1496.7230426733586,-173.008308696114,-7.562315220855226
2025-02-19 12:52:06.196,758,-98,649,-7,-3,-7,-3,-3,10,623,63,t,8.586878680276044,49.11048795195469,1513.973306347074,-195.73797364381693,1.735256175130644
2025-02-19 12:52:06.303,752,-86,661,-5,-1,-8,-3,-4,7,753,65,t,7.412878840613141,48.44629361229861,1500.334282766692,-171.5807823376802,3.222126451085842
2025-02-19 12:52:06.409,709,-96,653,9,-7,-9,-2,-4,8,810,67,t,8.363360077851656,47.049066982574864,1440.9374833933625,-195.1057805440942,-21.125778075973926
2025-02-19 12:52:06.520,755,-64,621,10,-18,-11,-3,-3,8,826,82,t,5.8841054873314524,50.41356955102874,1525.6641844200212,-129.3278249044786,-12.884051026268935
2025-02-19 12:52:06.622,810,-57,614,-5,7,-4,-5,-4,7,832,90,t,5.303787919505434,52.71855991735841,1605.6697379488219,-112.99157415195414,10.862692468423916
2025-02-19 12:52:06.729,757,-49,630,-7,1,-6,-4,-5,9,825,87,t,4.44738485009049,50.146696076698284,1524.687678605403,-98.6918048238636,-8.894633449674757
2025-02-19 12:52:06.839,814,-44,657,-8,-6,-14,-4,-6,10,797,108,t,3.8314389451375974,51.0294507335396,1591.469337179522,-86.02536957727145,29.48482244846946
2025-02-19 12:52:06.946,933,254,502,56,-11,70,-3,-6,10,723,107,t,-26.838319913482835,58.90992831516238,1789.3565775636748,487.1345881041515,41.2379400461258
2025-02-19 12:52:07.056,872,-78,708,-15,38,-35,-3,-6,8,862,99,t,6.286893361736462,50.756708281332486,1646.4667169242105,-147.2756925689087,79.18986745144377
2025-02-19 12:52:07.163,790,73,632,16,12,-20,-2,-7,7,551,102,t,-6.588826617731316,51.154846229762,1568.8439078096321,144.96912059506724,8.924873752294388
2025-02-19 12:52:07.265,794,20,620,14,-4,6,-4,-5,9,881,106,t,-1.8476102659945959,52.00081959823936,1582.0195603713064,39.84935920330746,4.6698646974688245
2025-02-19 12:52:07.376,519,-221,733,-9,22,11,-1,-3,7,631,44,t,16.778094875399518,34.133636258060605,1080.1250218828818,-459.9376297420363,-59.49449140684442
2025-02-19 12:52:08.196,747,-77,654,-1,-1,-3,-3,-4,8,504,53,u,6.714919825798343,48.60223625019067,1497.1368800140867,-154.32334640038107,-2.7463447512886887
2025-02-19 12:52:08.289,746,-72,649,-1,-2,-2,-3,-3,9,499,54,u,6.330501947336117,48.80400087413874,1498.460902309966,-144.62357234090825,-5.620811795131203
2025-02-19 12:52:08.395,745,-67,647,-1,-1,-1,-3,-3,6,502,56,u,5.912183697539817,48.87577454177938,1498.2853774890914,-134.74512790841493,-7.195488906633727
2025-02-19 12:52:08.503,746,-76,652,-2,-1,-2,-4,-4,9,500,56,u,6.648645183268904,48.65505789952206,1496.746205302186,-152.4835276179171,-4.148157985288549
2025-02-19 12:52:08.609,743,-75,647,-3,-3,-1,-2,-4,9,526,57,u,6.612194081335518,48.76138028688561,1494.970754205258,-150.90552700591434,-7.811679637687689
2025-02-19 12:52:08.716,774,-39,639,11,-9,7,-3,-3,6,775,58,u,3.492593160856053,50.40525009033704,1544.5716475695872,-77.82725355970788,2.830383983247998
2025-02-19 12:52:08.822,749,-68,629,2,-7,-1,-3,-3,8,815,62,u,6.1701750950296095,49.81290298119434,1512.9413660174055,-137.35649250892334,-12.547555707540823
2025-02-19 12:52:08.928,741,-60,638,1,-16,-4,-4,-5,8,807,73,u,5.372516374538697,49.146824895961515,1497.3883027101908,-121.24601641378064,-13.249307866533968
2025-02-19 12:52:09.039,820,-62,588,-6,5,-3,-5,-3,8,741,85,u,6.019150394271151,54.206572481376035,1631.13091499016,-123.32941064559748,6.359782909495038
2025-02-19 12:52:09.145,764,-63,621,-4,3,-7,-2,-6,10,724,87,u,5.792796495032159,50.751201264932234,1538.4059092297796,-126.85807890245565,-8.458206324205548
2025-02-19 12:52:09.256,721,-91,609,-3,-16,-21,-5,-6,8,703,107,u,8.49855887949368,49.50141787780178,1481.422037021668,-186.97559690564742,-33.29822544548665
2025-02-19 12:52:09.363,852,159,580,14,-30,65,-4,-4,10,712,110,u,-15.330320937198495,54.78297090827574,1668.9735386534344,311.46337165011266,23.844304672544922
2025-02-19 12:52:09.469,779,-114,590,-2,4,-38,-3,-5,10,842,0,u,10.93594444662276,52.35377273854564,1570.7971094861637,-229.87274772968243,-9.692290881689814
2025-02-19 12:52:09.575,851,62,520,15,-4,48,-4,-3,11,836,112,u,-6.799321441958474,58.392946903612675,1702.6624251535231,124.04826129203107,-0.4047721267122597
2025-02-19 12:52:09.682,578,-220,708,-43,45,1,-4,-1,7,782,46,u,17.26182037161276,37.94044986623615,1192.8421271928833,-454.0229549869106,-45.12841877605763
2025-02-19 12:52:10.602,743,-103,642,0,-1,-3,-3,-4,8,637,61,v,9.11464032942508,48.81036412988896,1495.5340457300167,-207.32167794103862,-8.23803143831833
2025-02-19 12:52:10.698,759,-85,637,0,-2,-2,-3,-3,7,661,63,v,7.600534965435779,49.74537590000355,1522.1803213637436,-170.46815193138104,-3.5083856504671758
2025-02-19 12:52:10.803,739,-58,626,8,-8,-2,-5,-4,9,671,69,v,5.293442253030528,49.61156387928581,1500.669100618352,-117.77917163175158,-19.202783473732552
2025-02-19 12:52:10.910,786,-87,617,2,1,-2,-5,-4,9,709,77,v,8.026070186113857,51.59428776268161,1569.631526644213,-173.73784073542816,1.8592214510441636
2025-02-19 12:52:11.017,738,-65,630,2,3,-8,-4,-4,10,662,0,v,5.8906264162041015,49.364133322543175,1496.8637793931694,-131.83759574601083,-17.810543384412654
2025-02-19 12:52:11.123,764,-60,627,5,1,-6,-3,-4,10,582,87,v,5.466205038735738,50.49681769025107,1535.589253279108,-120.59601465542731,-6.228353149215536
2025-02-19 12:52:11.230,809,-28,605,1,5,-3,-4,-5,6,501,106,v,2.6498146715172917,53.18010377474789,1609.523308950829,-55.706616379015095,6.339181810566743
2025-02-19 12:52:11.340,791,6,629,-3,1,-11,-2,-6,7,517,107,v,-0.5465250409866688,51.50715198448103,1573.6858565662408,11.93693443665922,6.61137322355853
2025-02-19 12:52:11.451,767,-142,552,7,-28,62,-2,-7,8,707,108,v,14.42633636465372,53.38327485020251,1569.64339762282,-290.5989080344725,-25.652093204428525
2025-02-19 12:52:11.554,812,-4,489,-5,-15,-41,-4,-1,9,814,0,v,0.4686666801182667,58.942097707175385,1668.6463729954985,-8.219932871899008,-26.88679358965362
2025-02-19 12:52:11.662,1013,125,568,-13,72,44,-3,-4,9,849,0,v,-12.411267110401715,60.13865503145144,1880.2328601483252,232.01293930754255,81.73320378652676
2025-02-19 12:52:11.771,682,-89,660,1,-17,-6,-2,-4,7,794,50,v,7.679921802611939,45.68116666113769,1397.463123304994,-182.3668885251385,-32.38366771451024
2025-02-19 12:52:12.686,742,-81,631,6,-13,-7,-4,-3,9,627,0,w,7.314921727126241,49.390798474358576,1501.1667852099768,-163.8740021590406,-14.598708177217645
2025-02-19 12:52:12.783,739,-81,640,11,-2,-6,-4,-4,6,685,0,w,7.213146684339993,48.88087023033852,1492.3438675231855,-163.57219657561302,-12.422293930769342
2025-02-19 12:52:12.889,766,-14,642,6,6,-6,-4,-6,8,641,0,w,1.2492426786972428,50.026244780161065,1532.3387966387259,-28.00619210566862,-0.2839522742324334
2025-02-19 12:52:13.000,753,-21,641,4,5,-13,-4,-5,10,492,92,w,1.8764136918373708,49.578354841837196,1514.2934069325916,-42.23129023317985,-7.059859022299065
2025-02-19 12:52:13.107,770,-68,624,0,7,-30,-4,-6,6,395,104,w,6.219229688791156,50.8135194074241,1545.0935996089945,-136.44982438105404,-4.127800202613685
2025-02-19 12:52:13.210,889,51,599,8,-16,10,-4,-2,8,771,0,w,-4.866534954017158,55.932319063248464,1717.3764447863696,98.52215824983674,40.847592320545004
2025-02-19 12:52:13.316,779,-88,633,15,1,-34,-3,-5,8,822,0,w,7.914562708881633,50.63472070312455,1552.118072307428,-175.33554603729607,4.779538163540792
2025-02-19 12:52:13.427,799,-57,499,-6,-20,-36,-5,-4,10,816,0,w,6.516563421274796,57.846862472908136,1645.6287249174084,-117.39779389273127,-29.745599166191255
2025-02-19 12:52:13.532,698,-15,608,-28,79,43,-5,-2,8,829,0,w,1.4132605063511139,48.93354137925328,1451.9480955574293,-31.202322970431865,-48.73415773483816
2025-02-19 12:52:14.546,789,-47,599,-1,-2,-2,-3,-5,9,807,0,x,4.486470074986695,52.70991998117168,1584.5783875413122,-94.39186845936841,-4.99423845024819
2025-02-19 12:52:14.647,789,-48,599,0,-4,-1,-3,-5,9,807,0,x,4.581524707472588,52.70628672487679,1584.539967566744,-96.39786874930763,-4.965070434068025
2025-02-19 12:52:14.757,802,-39,597,-2,-3,-2,-3,-3,10,814,0,x,3.7376295434101032,53.2779558087887,1603.5456523861494,-77.97790578935138,0.3382113783900422
2025-02-19 12:52:14.864,729,-72,606,4,-23,-15,-3,-7,8,829,0,x,6.775656169399013,50.06654387770884,1495.790466108477,-147.73239171441747,-31.414296929680404
2025-02-19 12:52:14.966,801,-124,656,-10,-21,-20,-4,-4,13,771,0,x,10.704006749277974,50.18950465293568,1569.1662564580508,-242.91712334681438,26.89005713298195
2025-02-19 12:52:15.077,917,75,485,-1,22,30,-3,-3,9,518,0,x,-8.790543182813947,61.84497533917372,1798.6741176196429,147.11075116845498,18.68380911065782
2025-02-19 12:52:15.187,840,-130,559,-1,-3,-30,-4,-5,8,547,0,x,13.091893064346847,55.65775084425962,1665.6825332307717,-257.784201571429,9.527933242855397
2025-02-19 12:52:15.289,828,-9,543,26,-4,22,-5,-2,11,772,0,x,0.9495668564358234,56.739645006107416,1664.18704984742,-18.088989672254566,-5.369043559358829
2025-02-19 12:52:15.400,492,-212,743,-10,30,5,-3,-3,7,582,0,x,15.92502406906556,32.487635020201154,1029.1175838576783,-443.4409101175361,-68.13488781759133
2025-02-19 12:52:16.316,670,-57,658,0,-10,-8,-3,-2,8,637,0,y,4.950952763308532,45.41064612567355,1382.1565007193458,-117.58644856866073,-41.401458915416924
2025-02-19 12:52:16.411,748,-20,622,7,-2,-3,-3,-4,8,718,0,y,1.8416734947472604,50.24020183041813,1516.7324701635162,-40.554344122019145,-17.240102194795327
2025-02-19 12:52:16.518,778,-40,632,3,3,-14,-5,-5,6,742,0,y,3.6214847041173397,50.85562626560677,1553.5577362949336,-79.8744337426701,1.9839468658122996
2025-02-19 12:52:16.628,652,-39,640,-3,-7,-19,-4,-5,9,739,0,y,3.4871494609179647,45.47906019641252,1364.9942412568373,-81.64842854143657,-59.87164785947198
2025-02-19 12:52:16.735,896,-5,651,12,-30,71,-3,-4,9,744,0,y,0.4400510977564603,53.99844744597112,1705.0010667553772,-9.514514881447417,63.210162435546295
2025-02-19 12:52:16.842,824,-58,640,-14,28,-29,-2,-5,9,862,0,y,5.178284704298129,52.049973599285174,1612.5474361101656,-113.50455254173495,27.535971953269495
2025-02-19 12:52:16.948,720,-22,678,5,-11,49,-2,-3,10,829,0,y,1.8585029996110969,46.7057680751253,1447.841796607483,-44.239610451895324,-7.384358472046756
2025-02-19 12:52:17.054,896,-4,550,35,55,-32,-2,-4,7,562,0,y,0.4166892317935739,58.45608712595121,1748.2394584069289,-7.804640439316645,26.861939593961324
2025-02-19 12:52:17.165,450,-160,805,-22,13,-3,-3,-2,5,568,0,y,11.241478767626473,28.73513382093661,930.7612739005945,-330.93734183132256,-55.02850108884127
2025-02-19 12:52:18.080,752,-69,643,-3,-1,-3,-3,-4,8,709,0,z,6.124942220779086,49.305713714022716,1510.1993617166554,-138.56882441283142,-5.3007840210229915
2025-02-19 12:52:18.177,767,-63,638,-1,-3,-4,-4,-4,8,755,11,z,5.639451433239455,50.1091717271383,1534.2678232136104,-126.0219985168937,-0.2227786313995921
2025-02-19 12:52:18.283,757,-62,638,1,0,-7,-4,-3,8,774,0,z,5.550499789582952,49.74304966934981,1520.1540853522242,-124.5040334106181,-5.1866663866831
2025-02-19 12:52:18.390,751,-45,653,-1,4,-6,-3,-5,7,763,0,z,3.9421749408964835,48.9255862054055,1504.8568769630579,-90.17118437195421,-2.4840754419132054
2025-02-19 12:52:18.501,954,-97,639,20,-35,-31,-4,-4,8,642,0,z,8.631584336037541,55.882962858615194,1781.8935896499906,-181.17785974428628,84.46750127217604
2025-02-19 12:52:18.606,593,-87,771,25,-17,-7,-3,-3,9,876,0,z,6.438049514998432,37.38997817065521,1200.2368762580004,-176.08871540378757,-18.51033995770365
2025-02-19 12:52:18.709,998,-20,412,-13,10,-4,-4,-5,8,562,0,z,2.7791668640720806,67.54411598436666,1922.1739130686242,-38.52051929997242,30.477302420568094
2025-02-19 12:52:18.820,723,-30,627,11,-7,4,-4,-2,10,818,0,z,2.739335721918572,49.03509186611666,1478.1112542030526,-61.33241718684866,-27.84751920513679
2025-02-19 12:52:18.931,732,-207,599,32,-19,-34,-2,-4,8,566,0,z,19.063919139911764,49.11429785411572,1488.016832685787,-420.7916453086857,-19.653118550254703
2025-02-19 12:52:19.033,724,-45,611,11,-25,14,-3,-5,9,821,0,z,4.212214993621959,49.76182035670799,1487.3657515935577,-92.44676632832886,-33.22164948019861
2025-02-19 12:52:19.142,644,-136,654,-37,70,20,-2,-3,8,720,0,z,11.747296341540945,43.952408305709056,1338.0606244024348,-282.57180888001733,-50.837963290671496
2025-02-19 12:52:20.262,768,-38,628,0,-3,-4,-3,-4,7,668,0,0,3.4627200493655605,50.675530498984365,1541.5696390669054,-76.2755810996646,-4.554340278667496
2025-02-19 12:52:20.356,774,-34,625,-3,-2,-9,-3,-4,8,720,0,0,3.113821186495526,51.03796528850939,1551.562790646088,-68.15650501546122,-2.876930431272399
2025-02-19 12:52:20.463,791,-51,638,3,-14,-14,-3,-4,9,757,0,0,4.570351874189488,51.02205617076769,1568.3881625156864,-101.12237204589131,10.978953621987216
2025-02-19 12:52:20.572,718,-19,630,-1,-11,-16,-3,-7,7,829,0,0,1.7274443487751676,48.72216509028625,1469.5194014378262,-38.88700365921824,-29.41117396355196
2025-02-19 12:52:20.676,739,-1,692,-4,6,-27,-4,-5,10,802,0,0,0.08279731160405557,46.88112595266967,1468.9371568777497,-1.9877363421891066,8.486451205138337
2025-02-19 12:52:20.786,1104,14,490,2,-28,117,-4,-7,9,673,0,0,-1.6365770416167182,66.05774027245455,2017.9548857370564,25.590007608984415,84.34973368554557
2025-02-19 12:52:20.892,784,2,635,-23,-5,-49,-3,-6,10,845,0,0,-0.18045855135680883,50.99415364137896,1561.0817426868894,3.9823513844053298,5.60343545130786
2025-02-19 12:52:20.996,1084,119,565,-6,79,55,-3,-6,11,805,0,0,-11.893768714800675,61.957868492674756,1966.6021360007937,215.8908248930761,104.97213391102531
2025-02-19 12:52:21.105,599,-53,696,3,-10,0,-2,-5,6,742,0,0,4.354636529866163,40.63446729043079,1250.2308525817593,-110.6214276908735,-60.68893722354653
2025-02-19 12:52:22.125,788,-49,614,-2,-5,-6,-5,-5,8,756,81,1,4.56279442559361,51.986500970792164,1575.8656803512742,-97.99164763605638,0.10466023390574719
2025-02-19 12:52:22.219,753,-70,625,-1,-3,-6,-4,-5,9,771,83,1,6.390495314646983,50.131269674589724,1520.5151143136682,-141.3493466161445,-12.047737644146991
2025-02-19 12:52:22.326,727,-77,637,0,-7,-3,-3,-7,9,775,89,1,6.892423122485141,48.56896252010938,1476.752722841673,-156.40984822394608,-19.936017125372246
2025-02-19 12:52:22.433,787,-37,558,3,5,1,-5,-4,10,763,108,1,3.7936290948775704,54.60321358205419,1602.1602849299309,-75.32392699162318,-19.966250306101074
2025-02-19 12:52:22.542,697,-222,711,3,-5,-17,-2,-6,11,863,0,1,17.34025823106898,43.09915983100361,1380.263066715621,-439.6246783513169,14.012854469430977
2025-02-19 12:52:22.647,871,229,476,14,-5,51,-2,-4,9,804,0,1,-25.691855424121812,58.76515553086551,1726.0490635080068,453.80624057788,8.717159322834505
2025-02-19 12:52:22.756,553,-117,596,2,6,-22,-4,-2,9,740,0,1,11.106428785175575,42.31706733510191,1226.2328058395005,-259.4380439117931,-129.58183052503136
2025-02-19 12:52:22.866,797,49,559,-11,-61,17,-3,-4,10,689,0,1,-5.009544813996878,54.85178806816764,1614.6655856715963,99.27053161594506,-14.494432108434466
2025-02-19 12:52:22.973,886,-58,586,24,12,-15,-2,-5,10,797,0,1,5.652503485710282,56.39074471405059,1718.8318376217244,-112.51946566823932,35.165398593306236
2025-02-19 12:52:23.076,583,-167,690,2,-8,-6,-2,0,9,647,0,1,13.605603422421275,39.39342783941051,1217.641871972136,-348.79278322357925,-61.11988278005788
2025-02-19 12:52:23.997,748,-92,625,-6,-3,-13,-3,-5,8,712,0,2,8.373803550907079,49.816721135385556,1511.984365746122,-185.96599150888133,-13.355920576639392
2025-02-19 12:52:24.092,737,-84,631,-3,3,-16,-3,-4,9,780,0,2,7.582747639599477,49.18195188770702,1493.7891912730734,-170.25548448702602,-16.942984658492946
2025-02-19 12:52:24.197,764,-70,642,5,7,-10,-3,-7,10,720,0,2,6.222621911923488,49.79235031675067,1527.7098453776641,-139.9734151524038,0.24382103081109108
2025-02-19 12:52:24.304,723,-49,654,2,1,-5,-4,-5,7,671,0,2,4.2847973947024185,47.78883843228975,1463.6737269585465,-99.19780445500521,-15.98702272598814
2025-02-19 12:52:24.411,822,0,722,-7,-9,-7,-4,-6,7,613,0,2,0.0,48.70569085787003,1573.3296839400327,0.0,62.07295400887642
2025-02-19 12:52:24.521,668,-62,711,-3,-12,-2,-2,-6,8,840,0,2,4.983650002465473,43.10569686868187,1351.3463696925805,-125.42436365410177,-16.334234807521852
2025-02-19 12:52:24.627,852,219,506,16,10,28,-3,-5,7,739,0,2,-23.403266159496244,57.09167074805544,1691.5408928336751,434.7974830171065,7.399422800657931
2025-02-19 12:52:24.735,778,36,582,-19,-53,22,-3,-4,8,695,0,2,-3.5395591685499532,53.14837825903105,1578.1913441271186,73.0268488285042,-16.600722727484367
2025-02-19 12:52:24.840,878,72,552,31,9,19,-2,-4,9,819,0,2,-7.431407971172507,57.624192592518014,1722.5540979460131,141.257283658443,21.027491951937122
2025-02-19 12:52:25.759,749,-72,626,-2,-4,-9,-3,-3,10,685,0,3,6.561099720548422,49.92639951150321,1514.2181050830682,-145.55901677701056,-13.554784755675087
2025-02-19 12:52:25.856,761,-29,630,1,-1,-7,-3,-5,9,772,0,3,2.6355643038327923,50.350278719064335,1530.959796140401,-58.341437697860215,-7.417439643170269
2025-02-19 12:52:25.963,729,-1,643,4,1,-18,-5,-6,7,753,0,3,0.0891068947430828,48.58669945285848,1478.957533582171,-2.0287483313884374,-18.485177082765404
2025-02-19 12:52:26.073,811,-96,595,41,12,-19,-3,-6,10,692,0,3,9.165374563790918,53.38210804790329,1613.6312508380693,-191.00937124593668,6.1398344652882315
2025-02-19 12:52:26.175,701,-11,680,24,-1,29,-3,-5,9,831,0,3,0.926762659901782,45.86744775435473,1418.7308032971268,-22.26253756956975,-16.22959520976633
2025-02-19 12:52:26.285,849,-17,560,-2,-20,33,-2,-5,8,802,0,3,1.7388021603971278,56.57904484535961,1683.6464765637315,-33.71259140351407,9.467577296007448
2025-02-19 12:52:26.387,933,64,482,4,3,28,-3,-3,9,596,0,3,-7.5634958970671775,62.47385036395374,1819.8000000080683,124.83086816775605,23.86752411158733
2025-02-19 12:52:26.495,559,-68,698,-36,53,-2,-2,-2,6,713,0,3,5.564264847349471,38.557858740310756,1182.3046167879743,-143.82238629978934,-80.29449466548476
2025-02-19 12:52:27.415,764,-15,618,-1,-2,-2,-4,-5,10,795,0,4,1.3904012640440198,51.02233618709464,1541.3912366630311,-30.262916950190395,-10.832178347844092
2025-02-19 12:52:27.515,772,-21,615,-2,-4,-4,-3,-5,8,800,0,4,1.9556813975228866,51.44177648845421,1553.9751585023987,-42.27134498516887,-7.946531708516886
2025-02-19 12:52:27.616,736,-66,644,13,-24,-18,-3,-6,8,824,0,4,5.851498551591725,48.66568771097311,1486.8687486175122,-133.33333887059212,-13.010155040323184
2025-02-19 12:52:27.728,738,-116,667,9,2,-16,-4,-5,11,794,0,4,9.865806943084369,47.46796815576786,1474.8995253754206,-231.82702566876526,0.9946024045997319
2025-02-19 12:52:27.831,810,3,531,29,18,3,-2,-8,7,454,0,4,-0.32370152492022336,56.75251298527286,1646.3102031115347,6.097445196709387,-17.2477998175616
2025-02-19 12:52:27.941,759,-40,600,12,-4,3,-1,-5,8,837,0,4,3.8140748342903548,51.61132051211197,1542.8161685366272,-81.30783496899221,-19.617524534882932
2025-02-19 12:52:28.052,472,-324,734,3,-22,-39,-2,-5,10,833,0,4,23.817473390755747,30.46775723663722,979.0534073779704,-672.062084725556,-54.51101910048783
2025-02-19 12:52:28.154,777,80,680,2,-8,82,-2,-5,8,690,0,4,-6.709836807756933,48.613609186012795,1527.2681266389118,157.2476835664259,23.394689685379717
2025-02-19 12:52:28.265,859,-59,524,-50,99,21,-3,-4,8,784,0,4,6.424185498639389,58.455640821255706,1711.2353832964982,-117.53537556984095,4.126494939039617
2025-02-19 12:52:29.179,779,-37,631,-1,-2,-3,-4,-5,9,777,0,5,3.35581484796088,50.94398069538486,1555.5302901457003,-73.8826967078189,2.000496685575058
2025-02-19 12:52:29.277,775,-45,633,3,-1,-6,-3,-6,10,783,0,5,4.066318774805974,50.68816558067448,1548.7093686656954,-89.92506011607264,1.0541543672447915
2025-02-19 12:52:29.383,760,6,623,10,4,-10,-5,-5,10,682,0,5,-0.5517882006375755,50.65596151666949,1533.3531541835646,12.105419638291297,-10.946072442579634
2025-02-19 12:52:29.498,1186,142,606,-13,-47,-25,-3,-7,9,684,0,5,-13.187809921305572,62.309440921504134,2071.470208159102,248.01751227537312,153.55906733185844
2025-02-19 12:52:29.600,616,86,497,12,26,22,-3,-6,11,863,0,5,-9.817148118678023,50.68910664518878,1389.7197742608796,194.01931913382415,-127.2511815059371
2025-02-19 12:52:29.708,775,34,597,-4,-6,-3,-3,-6,10,731,0,5,-3.259555179050051,52.3472699404117,1566.7277832886573,68.73386404105078,-12.88578919139161
2025-02-19 12:52:29.814,839,-12,574,19,6,16,-2,-6,5,784,0,5,1.197646714608398,55.616269582141754,1664.2738917848296,-23.803679024336063,9.390686669258343
2025-02-19 12:52:29.924,746,78,669,-2,-13,41,-4,-3,11,767,0,5,-6.650200316659209,47.92245964101301,1488.2385876339195,155.60671559711218,3.3731700709222423
2025-02-19 12:52:30.026,949,58,598,-28,70,21,-2,-3,9,650,0,5,-5.539788073554495,57.66234812705976,1793.9105015426271,109.63836574233126,65.5906428635501
2025-02-19 12:52:30.139,549,-134,704,6,-36,-24,-2,-3,6,745,51,5,10.776818000827928,37.45484742498904,1157.1360291349579,-282.4339306085326,-75.83199364482778
2025-02-19 12:52:31.052,765,-27,628,3,-7,-2,-5,-4,9,785,79,6,2.461837461746976,50.59096457548131,1537.6334682158065,-54.269416525263765,-6.266428809838544
2025-02-19 12:52:31.149,783,-28,608,1,-7,-5,-2,-6,8,816,89,6,2.6367584261404478,52.14123316316174,1572.5259535450634,-56.23336743200738,-5.067407095017302
2025-02-19 12:52:31.258,802,-13,567,-2,-2,-3,-5,-4,10,833,106,6,1.3134297325417674,54.73325893,1618.4728861029755,-26.234597904412325,-10.232077830906633
2025-02-19 12:52:31.365,769,-5,625,-1,0,-5,-4,-7,10,829,0,6,0.4583564580004315,50.89682987621209,1545.0115111552786,-10.04558849905903,-5.6985623823785545
2025-02-19 12:52:31.473,916,-158,571,64,20,43,-2,-6,8,701,0,6,15.467167251982573,57.10574273462394,1755.674302489574,-302.8346504294244,47.57857344809281
2025-02-19 12:52:31.576,690,-11,772,0,-20,1,-2,-2,10,855,0,6,0.8163353980640031,41.78689387739909,1356.3619289117742,-21.623161185550025,26.447233159580037
2025-02-19 12:52:31.683,957,35,561,9,31,-8,-1,-5,7,745,0,6,-3.569975948709717,59.57229667610504,1819.2688938764004,66.535434990255,55.53202772762717
2025-02-19 12:52:31.796,609,-62,721,-19,11,18,-2,-3,4,804,0,6,4.9148695847603685,40.08243784549568,1252.8891377722143,-127.55193192426482,-41.305530925724725
2025-02-19 12:52:31.898,788,-16,643,-7,0,-1,-1,-3,7,792,0,6,1.4254173165177433,50.77721761599406,1562.6931151458919,-31.729809444586635,10.85828294567466
2025-02-19 12:52:32.007,741,-61,666,-7,-2,-4,-3,-3,6,675,48,6,5.233210396000098,47.9322476427144,1483.3530580016777,-122.11138534156862,-1.2161088112246716
2025-02-19 12:52:32.115,714,-54,671,-7,-5,-9,-3,-4,6,744,48,6,4.601070830581339,46.68598556833268,1441.6049861076158,-109.02894852914739,-12.785638204775978
2025-02-19 12:52:32.226,768,-38,658,-1,-11,-9,-2,-3,9,777,58,6,3.3052036167273577,49.363860522949615,1526.8606786227028,-75.54779399435249,7.830303992528002
2025-02-19 12:52:32.332,770,-11,635,-2,-2,-2,-2,-4,7,808,67,6,0.9924260530737373,50.48422018400955,1541.4493719858087,-22.020705314082985,-1.195261312972434
2025-02-19 12:52:32.435,772,-30,634,-1,0,-1,-3,-4,8,809,69,6,2.709136000561854,50.57424246636108,1544.4481499281487,-60.01741515264827,-0.3680402259667517
2025-02-19 12:52:32.545,765,-34,633,-4,0,-4,-2,-5,9,799,69,6,3.074543979203993,50.353368817079975,1534.994208865367,-68.22196483846076,-4.132463021931244
2025-02-19 12:52:34.356,775,-51,624,-3,-1,-3,-2,-4,8,802,0,7,4.67244275538945,51.067126827000116,1552.8827297233247,-102.18970221405105,-2.321062383683511
2025-02-19 12:52:34.458,781,-45,614,-6,0,-5,-2,-4,11,803,0,7,4.191707675070378,51.75198812686202,1566.3384125715907,-90.24997255534132,-3.4107366439905036
2025-02-19 12:52:34.565,764,-46,627,-5,0,-8,-3,-4,7,811,0,7,4.196000624789198,50.54950357000844,1536.1738670774366,-92.49214382926974,-6.708134368524497
2025-02-19 12:52:34.671,779,-40,627,-1,-4,-3,-4,-6,6,817,0,7,3.6502863924766933,51.11332813356354,1557.389204118128,-79.9686369251927,0.49161619760445774
2025-02-19 12:52:34.778,779,-30,636,2,-7,-5,-3,-4,10,821,0,7,2.7006293373952883,50.73952801094157,1553.276991160094,-59.81811262490734,3.8560123519642957
2025-02-19 12:52:34.888,811,-22,613,-6,6,-5,-5,-4,10,781,0,7,2.0554100795303882,52.8981947116899,1608.5649224163487,-43.63554660069009,10.154996989862184
2025-02-19 12:52:34.995,651,23,698,-4,-2,-17,-4,-4,8,672,0,7,-1.8872869455254562,42.98908015644489,1332.858961005426,47.090255150729334,-33.0868737047424
2025-02-19 12:52:35.096,645,-148,727,18,-14,1,-3,-5,10,867,0,7,11.506824412092126,41.00290223177588,1301.0972568306715,-298.546347303782,-12.508070877361433
2025-02-19 12:52:35.207,917,189,435,15,0,32,-3,-3,9,612,0,7,-23.48411529050487,62.65138715151321,1805.2277696845701,372.06984566017866,13.648767924985634
2025-02-19 12:52:35.318,523,-140,682,-12,-17,-45,-2,-4,9,614,0,7,11.600443796049834,36.913802476703324,1123.612850867551,-300.7759065419831,-101.20834472594606
2025-02-19 12:52:35.425,781,-61,560,-7,-39,19,-4,-4,9,836,122,7,6.2166370315980854,54.19818744930231,1592.0453134605782,-124.34668901548693,-21.543374568404488
2025-02-19 12:52:35.531,845,43,533,-43,108,36,-3,-1,10,764,0,7,-4.612371930112334,57.673610855880405,1690.0156329338151,86.0007955220758,-0.00986077363734239
2025-02-19 12:52:35.637,734,-80,650,12,-31,-29,-3,0,9,462,0,7,7.016501744722909,48.259363311103776,1480.1661838854814,-161.32601459242306,-10.773868563437418
2025-02-19 12:52:36.555,744,-47,631,-3,-1,-3,-3,-4,8,295,0,8,4.259806767669531,49.61990955896172,1505.7634750264124,-95.12215500838896,-15.06552787858368
2025-02-19 12:52:36.649,779,-28,624,-2,-2,-1,-4,-3,9,359,0,8,2.5692410201481857,51.27621126227604,1559.1707444560611,-56.04208067364534,-0.9377978698103107
2025-02-19 12:52:36.760,778,-38,627,-2,-1,-1,-2,-6,10,419,0,8,3.468229258917148,51.08289411627806,1556.0556329667068,-76.00271729143299,-0.044835308644223915
2025-02-19 12:52:36.863,770,-37,622,1,-3,2,-5,-5,8,441,0,8,3.404258269537648,51.019518288527806,1547.360299636628,-74.35367673578601,-5.945592693483832
2025-02-19 12:52:36.969,778,-36,608,-3,0,2,-4,-5,7,524,0,8,3.3885569907235045,51.944039196947394,1565.4090611172205,-72.43538072007703,-7.353096605745691
2025-02-19 12:52:37.076,768,-44,639,-7,-3,2,-2,-4,9,668,62,8,3.939031679459958,50.17184637021951,1535.9688978894405,-87.99821810824919,0.025877927926558186
2025-02-19 12:52:37.186,757,-51,628,6,-10,0,-2,-3,9,778,0,8,4.642812494310253,50.22865634072566,1525.6035767522233,-102.78174691461477,-9.62621690937408
2025-02-19 12:52:37.289,765,-27,619,-3,-7,-1,-2,-5,9,807,0,8,2.4975865421810974,50.99530556029858,1542.0943964707208,-54.4268610519078,-9.78618485670097
2025-02-19 12:52:37.396,822,-9,590,0,-1,2,-2,-5,8,808,0,8,0.8739356346346694,54.32751101043929,1634.3636250808531,-17.894492245410795,6.9166194675143515
2025-02-19 12:52:37.505,787,-31,630,0,-2,5,-4,-4,10,826,0,8,2.817043997751197,51.28863494101,1567.3063702911586,-61.73633733040142,5.358305866035607
2025-02-19 12:52:37.605,824,-6,564,4,-11,0,-3,-4,8,820,0,8,0.6095065766751959,55.60817447948516,1649.194094616315,-12.008694863711028,-0.817317188836796
2025-02-19 12:52:37.718,759,-38,603,2,-9,1,-2,-6,8,828,0,8,3.6059109672045824,51.47872440396681,1541.376945039919,-77.17038723520014,-18.572197442781317
2025-02-19 12:52:37.833,849,-43,706,-13,1,-15,-5,-4,12,817,0,8,3.4853807490219864,50.20206564756558,1617.3066005539172,-81.91305515172961,67.10193169485808
2025-02-19 12:52:37.939,937,72,551,-3,-34,85,-2,-5,11,621,0,8,-7.444743942577211,59.330101986641786,1797.120381329572,138.09249461657328,45.208825920390495
2025-02-19 12:52:38.046,645,-183,541,3,16,-83,-3,-4,10,844,116,8,18.6887490655083,48.476830561079126,1393.6877072799361,-395.4183727631447,-86.96906920689207
2025-02-19 12:52:38.156,579,-37,840,9,-12,-19,-4,-4,10,872,114,8,2.522112384043955,34.55199813642871,1146.1539299665724,-73.24299725174987,17.18600833865139
2025-02-19 12:52:38.259,1259,-2,498,3,54,11,-3,-6,9,801,103,8,0.2301022950972138,68.41846730387006,2188.8950897499167,-3.4771963300236965,130.17811382409963
2025-02-19 12:52:38.369,436,-161,800,-7,-13,-3,-1,-2,6,717,0,8,11.378781010353036,28.115039596519747,907.2434148923219,-335.0141967836326,-64.66681631618667
2025-02-19 12:52:39.182,793,-25,596,-3,-1,-3,-2,-4,10,735,0,9,2.40193838534025,53.04815390979481,1592.1410199210272,-50.19360088023414,-4.615444984782016
2025-02-19 12:52:39.283,807,-12,598,-1,-3,-5,-3,-4,10,749,0,9,1.1495937942748424,53.45544113673878,1610.3940245593053,-23.94637954735026,2.6720858903785256
2025-02-19 12:52:39.388,787,-11,588,-1,-4,-4,-4,-4,10,752,0,9,1.071734807507232,53.23027575456191,1588.0477901628792,-22.196347765936046,-10.495680579126997
2025-02-19 12:52:39.495,782,-11,591,4,-16,-16,-2,-7,10,776,0,9,1.0662957885581448,52.914898891427825,1579.7407568722774,-22.221417296157355,-11.896147457181428
2025-02-19 12:52:39.602,812,-16,504,16,15,-21,-4,-6,10,582,0,9,1.8183029644518336,58.159622013496474,1661.5211210405287,-32.73933243429613,-23.288971680327904
2025-02-19 12:52:39.713,743,-21,612,0,-11,-24,-3,-5,10,847,0,9,1.9652605719205243,50.50559033040769,1514.6866416579978,-42.810793371222005,-23.62883538989854
2025-02-19 12:52:39.819,1006,-59,682,37,-21,18,-1,-7,10,865,0,9,4.944362948411253,55.76610268507837,1832.7478899199507,-107.48720229152794,121.52081418945681
2025-02-19 12:52:39.926,871,88,493,20,16,43,-3,-3,11,778,120,9,-10.120649205284158,60.10271119840244,1737.920336075295,175.58781811093678,2.309155355774635
2025-02-19 12:52:40.031,475,-156,759,-23,43,35,-1,-1,4,626,0,9,11.614462982642793,31.508687802352103,997.6278451813919,-327.64198704904663,-76.1042831424769
