Timestamp,Acc_X,Acc_Y,Acc_Z,Gyro_X,Gyro_Y,Gyro_Z,Mag_X,Mag_Y,Mag_Z,Force1,Force2,Force3,Letter
2025-03-07 13:26:35.605,589, 660, 715, 9, 28, 53, -1, 5, -12, 797, 616, 388,noise
2025-03-07 13:26:35.661,595, 666, 684, -5, 22, 57, -1, 5, -12, 798, 624, 394,noise
2025-03-07 13:26:35.716,855, 457, 570, -2, -14, 26, -2, 2, -14, 826, 632, 429,noise
2025-03-07 13:26:35.771,866, 495, 384, -84, 0, 27, -4, 1, -20, 869, 669, 522,noise
2025-03-07 13:26:35.830,766, 425, 552, -82, 43, 20, -10, 0, -27, 871, 672, 581,noise
2025-03-07 13:26:35.890,631, 228, 1122, -81, 11, -7, -21, 2, -38, 864, 684, 662,noise
2025-03-07 13:26:35.949,519, 350, 788, -72, -26, -4, -28, 6, -29, 806, 656, 687,noise
2025-03-07 13:26:36.011,713, 26, 1125, -28, -54, -44, -27, 9, -21, 744, 592, 704,noise
2025-03-07 13:26:36.068,558, 210, 969, 5, -49, -80, -23, 7, -15, 769, 696, 716,noise
2025-03-07 13:26:36.128,537, 186, 983, 107, -47, -123, -20, 0, -10, 741, 749, 702,noise
2025-03-07 13:26:36.190,157, 471, 898, 138, -60, -81, -13, -6, -1, 704, 763, 599,noise
2025-03-07 13:26:36.248,143, 402, 325, 66, -49, 1, -10, -8, 7, 767, 729, 601,noise
2025-03-07 13:26:36.300,146, 409, 231, 27, 16, 45, -9, -8, 10, 784, 689, 533,noise
2025-03-07 13:26:36.356,264, 414, 333, 11, 39, 82, -13, -5, 8, 775, 615, 472,noise
2025-03-07 13:26:36.416,530, 483, 478, 25, 38, 113, -19, -3, 6, 761, 539, 393,noise
2025-03-07 13:26:36.472,699, 626, 535, 46, 50, 80, -24, -2, 3, 736, 513, 338,noise
2025-03-07 13:26:36.520,768, 554, 773, 10, 27, 49, -25, 2, 0, 723, 367, 252,noise
2025-03-07 13:26:36.584,871, 443, 573, 31, 16, -25, -27, 3, -7, 708, 432, 16,noise
2025-03-07 13:26:36.640,808, 724, 495, 41, 10, -71, -19, 3, -10, 708, 475, 21,noise
2025-03-07 13:26:36.690,719, 769, 433, 10, 20, -32, -13, 0, -9, 740, 418, 17,noise
2025-03-07 13:26:36.751,906, 500, 524, -17, -11, 4, -10, 3, -7, 735, 24, 73,noise
2025-03-07 13:26:36.802,850, 528, 325, -20, 11, -50, -9, 4, -3, 686, 25, 14,noise
2025-03-07 13:26:36.861,772, 389, 458, -55, 11, -25, -7, 7, -4, 704, 20, 20,noise
2025-03-07 13:26:36.916,708, 560, 488, -33, 18, -30, -4, 6, -4, 733, 13, 16,noise
2025-03-07 13:26:36.970,598, 444, 602, -46, 0, -26, -5, 5, -6, 726, 30, 128,noise
2025-03-07 13:26:37.026,544, 603, 628, -14, -1, -21, -5, 6, -7, 739, 23, 18,noise
2025-03-07 13:26:37.084,672, 603, 589, 14, -2, -13, -2, 7, -6, 779, 10, 212,noise
2025-03-07 13:26:37.140,455, 707, 628, -2, -14, -18, -2, 7, -6, 837, 541, 544,noise
2025-03-07 13:26:37.195,705, 741, 646, -23, 2, -9, -2, 7, -6, 627, 617, 640,noise
2025-03-07 13:26:37.250,500, 700, 640, 69, -27, -17, -1, 8, -5, 21, 579, 453,noise
2025-03-07 13:26:37.301,512, 682, 485, 32, -26, -11, -3, 5, -3, 27, 566, 421,noise
2025-03-07 13:26:37.360,522, 579, 475, 16, -8, 27, -3, 4, -3, 677, 549, 451,noise
2025-03-07 13:26:37.419,574, 629, 376, 32, -22, 20, -5, 4, -2, 876, 529, 618,noise
2025-03-07 13:26:37.470,648, 597, 392, -22, -5, -4, -5, 4, 0, 886, 391, 662,noise
2025-03-07 13:26:37.525,858, 800, 722, 12, 1, -22, -3, 5, -1, 886, 19, 624,noise
2025-03-07 13:26:37.575,474, 570, 436, 0, -1, -8, -3, 5, 0, 860, 9, 540,noise
2025-03-07 13:26:37.632,667, 711, 546, -1, -3, -11, -4, 5, -1, 861, 13, 487,noise
2025-03-07 13:26:37.684,540, 762, 554, -1, -11, 10, -3, 5, -2, 854, 22, 439,noise
2025-03-07 13:26:37.740,588, 767, 360, -23, -21, 39, -5, 6, -1, 864, 525, 552,noise
2025-03-07 13:26:37.801,585, 598, 358, -3, -1, 19, -6, 5, -1, 864, 612, 605,noise
2025-03-07 13:26:37.851,581, 489, 389, -24, 10, -1, -7, 5, -2, 853, 638, 588,noise
2025-03-07 13:26:37.910,565, 427, 455, -24, 15, -14, -6, 5, 0, 836, 649, 577,noise
2025-03-07 13:26:37.967,897, 602, 792, 38, -4, -27, -4, 6, -2, 804, 663, 633,noise
2025-03-07 13:26:38.020,378, 476, 300, -38, 9, -4, -4, 7, -1, 641, 673, 515,noise
2025-03-07 13:26:38.076,714, 796, 595, 44, -12, -21, -4, 7, 0, 491, 640, 536,noise
2025-03-07 13:26:38.132,508, 607, 440, 1, -5, 2, -5, 5, -1, 415, 629, 501,noise
2025-03-07 13:26:38.184,621, 729, 433, 1, -5, 1, -2, 6, -1, 440, 628, 500,noise
2025-03-07 13:26:38.234,603, 666, 434, 6, -2, 1, -5, 4, 0, 505, 626, 507,noise
2025-03-07 13:26:38.291,612, 679, 431, -8, 4, -1, -4, 4, 0, 525, 617, 489,noise
2025-03-07 13:26:38.341,591, 665, 470, -4, 3, -1, -4, 5, -1, 534, 602, 461,noise
2025-03-07 13:26:38.398,588, 673, 472, -1, 1, 0, -4, 6, 0, 547, 609, 478,noise
2025-03-07 13:26:38.448,593, 673, 448, -1, 0, 0, -3, 5, 0, 555, 615, 478,noise
2025-03-07 13:26:38.502,606, 664, 466, -3, 1, 0, -4, 6, 0, 556, 598, 457,noise
2025-03-07 13:26:38.554,597, 671, 461, -5, 2, -2, -4, 6, 0, 560, 604, 477,noise
2025-03-07 13:26:38.601,591, 685, 471, -2, 0, -2, -4, 4, 0, 578, 611, 480,noise
2025-03-07 13:26:38.661,600, 683, 454, -2, 0, -1, -2, 7, -2, 565, 603, 463,noise
2025-03-07 13:26:38.714,598, 675, 469, -1, -2, -1, -4, 6, -1, 579, 610, 482,noise
2025-03-07 13:26:38.767,593, 675, 468, 0, -2, 0, -5, 8, -1, 594, 620, 483,noise
2025-03-07 13:26:38.821,592, 698, 454, -2, -3, 4, -3, 6, 0, 599, 609, 472,noise
2025-03-07 13:26:38.875,605, 651, 464, -4, -1, 1, -4, 7, -1, 600, 608, 469,noise
2025-03-07 13:26:38.925,627, 623, 469, -3, 1, 7, -7, 6, -1, 699, 644, 498,noise
2025-03-07 13:26:38.981,615, 653, 460, -2, 1, 0, -3, 4, 0, 702, 637, 472,noise
2025-03-07 13:26:39.033,605, 685, 458, -4, 2, -3, -5, 5, 0, 675, 620, 480,noise
2025-03-07 13:26:39.084,611, 652, 470, -2, 1, -2, -5, 6, 0, 619, 607, 473,noise
2025-03-07 13:26:39.140,618, 657, 471, -3, 0, 0, -3, 7, 0, 618, 603, 474,noise
2025-03-07 13:26:39.191,602, 673, 479, -1, 0, -1, -5, 7, -1, 636, 618, 489,noise
2025-03-07 13:26:39.244,598, 647, 469, -2, 1, -2, -5, 5, -2, 629, 609, 482,noise
2025-03-07 13:26:39.299,600, 655, 468, -1, 0, -2, -4, 5, 0, 634, 622, 489,noise
2025-03-07 13:26:39.352,614, 676, 463, -1, -1, -4, -4, 7, -2, 628, 614, 472,noise
2025-03-07 13:26:39.410,596, 656, 474, 1, -1, -3, -4, 7, -1, 664, 613, 468,noise
2025-03-07 13:26:39.464,600, 666, 469, 0, -1, -3, -4, 5, -1, 680, 623, 469,noise
2025-03-07 13:26:39.516,604, 670, 469, 2, -2, -7, -4, 6, -2, 688, 629, 459,noise
2025-03-07 13:26:39.570,606, 656, 482, 8, -2, -13, -4, 4, 1, 682, 629, 466,noise
2025-03-07 13:26:40.291,566, 614, 561, 28, -11, 4, -6, 6, 0, 939, 42, 781,A
2025-03-07 13:26:40.351,835, 783, 454, 4, -7, 4, -7, 6, -2, 941, 41, 780,A
2025-03-07 13:26:40.400,695, 623, 378, 6, 2, 1, -7, 5, -1, 942, 29, 782,A
2025-03-07 13:26:40.452,662, 663, 423, -8, 3, 8, -5, 6, 1, 945, 320, 797,A
2025-03-07 13:26:40.500,659, 606, 465, -24, -5, 9, -7, 5, 0, 955, 779, 825,A
2025-03-07 13:26:40.565,642, 635, 456, -22, 6, 25, -8, 5, -1, 964, 862, 842,A
2025-03-07 13:26:40.619,681, 559, 456, -7, -6, 5, -7, 8, -1, 968, 897, 851,A
2025-03-07 13:26:40.670,713, 582, 430, 7, -6, 6, -9, 7, -1, 974, 914, 868,A
2025-03-07 13:26:40.725,678, 606, 438, -12, -3, 8, -9, 7, -1, 978, 923, 882,A
2025-03-07 13:26:40.782,1028, 482, 488, -15, -4, -7, -7, 7, -2, 978, 933, 887,A
2025-03-07 13:26:40.834,673, 453, 533, 1, -9, -11, -9, 8, -2, 983, 939, 882,A
2025-03-07 13:26:40.897,476, 471, 435, 80, -22, -31, -9, 7, -3, 986, 934, 807,A
2025-03-07 13:26:40.950,1029, 855, -58, 2, 39, 21, -9, 5, 2, 986, 915, 726,A
2025-03-07 13:26:41.000,484, 203, 952, -42, -29, -20, -9, 7, 0, 975, 908, 800,A
2025-03-07 13:26:41.065,682, 606, 673, -26, -10, -7, -9, 7, 0, 979, 922, 827,A
2025-03-07 13:26:41.116,738, 699, 206, 43, -6, 15, -9, 7, -1, 985, 925, 780,A
2025-03-07 13:26:41.171,650, 600, 364, 5, 36, 25, -10, 8, 0, 982, 914, 759,A
2025-03-07 13:26:41.226,502, 702, 599, -44, 4, -37, -8, 6, 1, 974, 886, 783,A
2025-03-07 13:26:41.282,776, 504, 663, 19, -26, -9, -9, 7, -2, 982, 928, 790,A
2025-03-07 13:26:41.333,722, 540, 265, -10, 20, 30, -10, 5, -1, 984, 939, 800,A
2025-03-07 13:26:41.397,923, 240, 240, -21, 66, -41, -10, 6, -1, 976, 918, 822,A
2025-03-07 13:26:41.450,654, 562, 575, -37, 48, -48, -6, 7, -3, 962, 857, 766,A
2025-03-07 13:26:41.510,523, 522, 751, -14, 2, -37, -2, 9, -6, 953, 789, 738,A
2025-03-07 13:26:41.850,530, 601, 603, -4, 7, 6, -7, 8, -1, 944, 811, 667,B
2025-03-07 13:26:41.901,577, 615, 642, 3, -3, 8, -8, 5, -1, 947, 817, 677,B
2025-03-07 13:26:41.950,655, 589, 437, 2, 5, 2, -7, 7, -1, 949, 831, 700,B
2025-03-07 13:26:42.000,667, 608, 475, 9, -12, 3, -9, 7, -2, 950, 844, 729,B
2025-03-07 13:26:42.060,658, 638, 438, 5, -6, 4, -7, 5, -1, 953, 855, 742,B
2025-03-07 13:26:42.114,728, 643, 346, -5, 3, -6, -7, 5, 0, 955, 864, 736,B
2025-03-07 13:26:42.170,709, 558, 573, -4, -3, -8, -8, 7, -1, 964, 890, 705,B
2025-03-07 13:26:42.220,754, 559, 348, 37, 28, 28, -7, 7, 0, 978, 883, 622,B
2025-03-07 13:26:42.275,736, 690, 45, -11, 22, 19, -7, 5, 1, 977, 860, 580,B
2025-03-07 13:26:42.333,616, 660, 469, -25, -22, -30, -8, 6, -1, 968, 869, 757,B
2025-03-07 13:26:42.390,815, 732, 492, 12, -25, -1, -8, 5, 0, 980, 920, 777,B
2025-03-07 13:26:42.440,540, 901, 364, -1, 6, 18, -9, 6, -1, 982, 921, 757,B
2025-03-07 13:26:42.490,798, 512, 234, 5, 9, 5, -8, 7, 0, 981, 914, 731,B
2025-03-07 13:26:42.550,592, 412, 670, -15, 17, 15, -8, 6, -1, 984, 915, 687,B
2025-03-07 13:26:42.600,841, 676, 260, -4, 18, 10, -8, 7, -1, 983, 897, 520,B
2025-03-07 13:26:42.666,1054, 426, 573, -15, 9, -12, -7, 6, -2, 962, 828, 651,B
2025-03-07 13:26:42.720,494, 545, 784, -40, 24, -21, -6, 8, -4, 959, 851, 605,B
2025-03-07 13:26:42.775,430, 630, 633, 5, -35, 5, -5, 7, -3, 962, 882, 674,B
2025-03-07 13:26:43.160,684, 586, 459, 1, -1, -3, -7, 7, -1, 962, 887, 745,C
2025-03-07 13:26:43.215,685, 586, 463, -1, -1, -3, -8, 6, -1, 963, 889, 744,C
2025-03-07 13:26:43.266,671, 572, 479, 0, -1, 0, -7, 6, -2, 965, 887, 744,C
2025-03-07 13:26:43.320,702, 596, 438, -5, 2, 0, -9, 7, -2, 965, 890, 742,C
2025-03-07 13:26:43.376,686, 582, 459, -3, 1, 0, -10, 6, -2, 965, 895, 732,C
2025-03-07 13:26:43.433,661, 560, 490, 2, -14, 8, -9, 7, -1, 967, 895, 729,C
2025-03-07 13:26:43.483,604, 511, 484, -9, -5, -12, -9, 6, -1, 970, 902, 710,C
2025-03-07 13:26:43.540,696, 423, 610, 32, -15, -28, -8, 7, -1, 977, 903, 628,C
2025-03-07 13:26:43.600,925, 914, -65, 21, 19, 34, -7, 7, 2, 983, 905, 497,C
2025-03-07 13:26:43.650,697, 767, 604, -18, 23, 39, -7, 6, 0, 982, 929, 645,C
2025-03-07 13:26:43.710,926, 387, 137, -30, 54, -46, -10, 5, -1, 974, 915, 733,C
2025-03-07 13:26:43.766,527, 541, 646, -36, 30, -29, -7, 6, -5, 971, 896, 658,C
2025-03-07 13:26:43.826,560, 552, 642, 12, -16, 3, -5, 7, -4, 963, 888, 674,C
2025-03-07 13:26:43.874,704, 568, 448, 17, -22, 7, -6, 7, -3, 963, 882, 689,C
2025-03-07 13:26:44.291,650, 561, 491, -1, -3, -4, -7, 5, -4, 960, 873, 711,D
2025-03-07 13:26:44.354,653, 560, 500, -1, -4, -4, -8, 7, -2, 959, 871, 712,D
2025-03-07 13:26:44.403,674, 579, 504, 0, -7, -1, -8, 7, -2, 958, 858, 683,D
2025-03-07 13:26:44.460,691, 563, 500, -1, -6, -1, -8, 8, -2, 960, 859, 678,D
2025-03-07 13:26:44.516,686, 567, 487, -3, -6, -3, -7, 7, -2, 960, 860, 680,D
2025-03-07 13:26:44.571,631, 556, 526, 1, -16, -1, -9, 6, -3, 960, 870, 685,D
2025-03-07 13:26:44.624,718, 426, 550, 1, -10, -14, -8, 7, -2, 966, 891, 617,D
2025-03-07 13:26:44.681,549, 834, -4, 32, 28, 31, -7, 7, 0, 978, 883, 307,D
2025-03-07 13:26:44.738,681, 663, 204, -14, 27, 16, -8, 6, -3, 970, 856, 320,D
2025-03-07 13:26:44.796,702, 672, 376, -15, -27, -45, -8, 6, -2, 959, 853, 670,D
2025-03-07 13:26:44.848,877, 589, 625, 11, -26, -1, -8, 8, 2, 974, 912, 693,D
2025-03-07 13:26:44.900,587, 489, 489, 12, 11, 26, -9, 5, -1, 981, 927, 629,D
2025-03-07 13:26:44.960,292, 347, 557, 17, 33, 9, -8, 6, 0, 980, 900, 317,D
2025-03-07 13:26:45.013,810, 555, 420, -35, 26, 11, -9, 5, -2, 963, 830, 402,D
2025-03-07 13:26:45.070,602, 556, 612, -35, 41, -23, -8, 6, -3, 963, 854, 528,D
2025-03-07 13:26:45.123,481, 603, 716, -8, -3, -4, -7, 8, -5, 962, 874, 609,D
2025-03-07 13:26:45.601,664, 563, 494, -1, -2, 2, -7, 7, -4, 961, 879, 628,E
2025-03-07 13:26:45.650,671, 555, 505, -1, -2, 1, -6, 8, -4, 963, 879, 629,E
2025-03-07 13:26:45.710,666, 554, 520, 3, -3, 1, -7, 9, -4, 961, 875, 648,E
2025-03-07 13:26:45.763,691, 551, 486, -1, 0, 1, -8, 6, -3, 962, 875, 660,E
2025-03-07 13:26:45.820,677, 560, 499, -2, -1, -2, -9, 8, -3, 961, 876, 676,E
2025-03-07 13:26:45.871,654, 548, 483, -3, -5, -4, -9, 8, -3, 962, 879, 683,E
2025-03-07 13:26:45.931,611, 539, 578, -2, -21, -2, -9, 6, -3, 960, 887, 696,E
2025-03-07 13:26:45.982,677, 432, 656, 19, -13, -12, -7, 8, -4, 971, 894, 601,E
2025-03-07 13:26:46.040,751, 671, 428, 25, 19, 26, -8, 5, -3, 978, 873, 272,E
2025-03-07 13:26:46.098,768, 750, 459, -38, 28, 17, -9, 6, -1, 965, 848, 465,E
2025-03-07 13:26:46.150,419, 651, 825, -15, -27, -16, -7, 7, -1, 956, 857, 647,E
2025-03-07 13:26:46.214,766, 854, 340, 36, -37, -3, -8, 7, -2, 978, 928, 685,E
2025-03-07 13:26:46.265,658, 614, 496, 7, 19, 27, -8, 6, 0, 977, 931, 730,E
2025-03-07 13:26:46.320,626, 552, 596, 14, 26, -22, -7, 6, -1, 964, 888, 700,E
2025-03-07 13:26:46.375,815, 625, 367, 12, -6, -3, -9, 6, -1, 975, 917, 682,E
2025-03-07 13:26:46.430,618, 687, 433, 4, 13, 28, -7, 6, -1, 979, 929, 713,E
2025-03-07 13:26:46.482,638, 452, 512, 28, 38, -25, -8, 6, -1, 963, 857, 662,E
2025-03-07 13:26:46.541,637, 1002, 377, 5, -16, -9, -9, 7, 0, 971, 879, 608,E
2025-03-07 13:26:46.590,831, 609, 383, -6, 2, 29, -7, 5, 1, 979, 926, 677,E
2025-03-07 13:26:46.650,962, 245, 220, -25, 40, -37, -8, 6, -1, 958, 884, 724,E
2025-03-07 13:26:46.700,525, 547, 650, -60, 28, -41, -7, 5, -3, 939, 767, 641,E
2025-03-07 13:26:47.080,661, 573, 502, -2, -5, 2, -7, 6, -3, 950, 873, 718,F
2025-03-07 13:26:47.133,654, 561, 498, -1, -5, 2, -9, 7, -3, 950, 874, 720,F
2025-03-07 13:26:47.190,684, 567, 464, -3, -4, 0, -7, 6, -4, 950, 878, 725,F
2025-03-07 13:26:47.246,657, 565, 486, -1, -4, 0, -9, 7, -2, 951, 882, 723,F
2025-03-07 13:26:47.300,666, 564, 479, -1, -10, -2, -8, 6, -3, 952, 881, 722,F
2025-03-07 13:26:47.360,669, 582, 471, -6, -15, -4, -9, 7, -2, 953, 885, 710,F
2025-03-07 13:26:47.413,713, 475, 636, -5, -4, -5, -8, 6, -2, 959, 901, 654,F
2025-03-07 13:26:47.471,643, 1034, 194, 54, 26, 33, -8, 6, 0, 974, 891, 462,F
2025-03-07 13:26:47.524,746, 762, 57, -17, 32, 22, -8, 7, 0, 967, 876, 407,F
2025-03-07 13:26:47.581,518, 666, 532, -15, -5, -52, -7, 7, -3, 952, 872, 696,F
2025-03-07 13:26:47.632,710, 538, 530, 34, -27, -15, -8, 6, -1, 973, 928, 724,F
2025-03-07 13:26:47.691,722, 734, 452, 2, 8, 27, -8, 6, 0, 972, 924, 751,F
2025-03-07 13:26:47.746,666, 360, 538, 23, 36, -11, -9, 7, 0, 957, 856, 720,F
2025-03-07 13:26:47.798,675, 673, 173, -10, -7, -5, -8, 6, 2, 968, 885, 645,F
2025-03-07 13:26:47.851,433, 418, 167, -19, -1, 22, -9, 7, 1, 976, 929, 697,F
2025-03-07 13:26:47.904,851, 362, 312, -15, 32, 0, -9, 8, 0, 963, 888, 741,F
2025-03-07 13:26:47.967,533, 577, 728, -37, 21, -27, -6, 6, 0, 954, 859, 710,F
2025-03-07 13:26:48.014,562, 581, 642, -2, -24, 0, -7, 7, -3, 953, 846, 699,F
2025-03-07 13:26:48.381,690, 577, 457, 1, -3, 2, -7, 7, -3, 956, 885, 738,G
2025-03-07 13:26:48.431,684, 593, 456, 0, -3, 3, -9, 7, -2, 955, 883, 740,G
2025-03-07 13:26:48.490,695, 580, 452, -4, 1, 0, -8, 6, -3, 956, 883, 745,G
2025-03-07 13:26:48.541,682, 578, 475, -4, -1, 1, -7, 5, -3, 957, 881, 744,G
2025-03-07 13:26:48.602,696, 556, 453, -2, -2, 0, -8, 6, -3, 955, 888, 743,G
2025-03-07 13:26:48.650,658, 556, 498, 2, -7, 6, -9, 6, -1, 958, 891, 745,G
2025-03-07 13:26:48.700,546, 807, 447, -4, -9, -9, -8, 7, -2, 963, 905, 736,G
2025-03-07 13:26:48.761,551, 583, 532, 30, 2, -10, -8, 6, -1, 971, 903, 611,G
2025-03-07 13:26:48.815,698, 774, 44, 6, 32, 27, -8, 7, 1, 979, 895, 427,G
2025-03-07 13:26:48.871,595, 477, 578, -30, 26, 36, -8, 6, -2, 976, 911, 533,G
2025-03-07 13:26:48.926,676, 602, 615, -7, -19, -20, -9, 8, -2, 969, 921, 713,G
2025-03-07 13:26:48.982,679, 994, 13, 8, 24, 38, -10, 6, 1, 981, 920, 560,G
2025-03-07 13:26:49.033,723, 704, 420, -29, 23, 12, -8, 7, -1, 973, 904, 530,G
2025-03-07 13:26:49.090,797, 611, 602, -9, -5, -21, -8, 8, -1, 968, 895, 621,G
2025-03-07 13:26:49.150,516, 686, 164, -1, -25, 13, -8, 6, -1, 981, 937, 651,G
2025-03-07 13:26:49.200,703, 539, 397, -3, 20, 21, -10, 5, 0, 980, 934, 676,G
2025-03-07 13:26:49.260,670, 595, 352, -50, 70, -45, -9, 6, -1, 964, 898, 658,G
2025-03-07 13:26:49.609,666, 581, 484, -2, -2, 1, -8, 7, -1, 955, 869, 729,H
2025-03-07 13:26:49.666,673, 571, 479, -1, -2, 0, -7, 8, -2, 955, 870, 726,H
2025-03-07 13:26:49.714,688, 567, 456, 1, -2, -1, -9, 6, -2, 956, 870, 732,H
2025-03-07 13:26:49.773,678, 579, 472, -6, -1, -2, -7, 7, -2, 956, 867, 730,H
2025-03-07 13:26:49.830,655, 585, 500, -1, -10, 1, -11, 6, -3, 954, 876, 726,H
2025-03-07 13:26:49.882,765, 505, 581, 0, -12, -9, -9, 5, -1, 963, 899, 700,H
2025-03-07 13:26:49.940,793, 474, 530, 44, -1, -1, -8, 5, 1, 977, 887, 585,H
2025-03-07 13:26:49.990,684, 462, 97, 7, 18, 15, -10, 6, 0, 973, 843, 376,H
2025-03-07 13:26:50.051,753, 262, 555, -13, -14, -48, -8, 7, -2, 953, 810, 588,H
2025-03-07 13:26:50.100,682, 578, 523, 3, -19, -8, -9, 7, 0, 969, 901, 570,H
2025-03-07 13:26:50.150,917, 806, 185, -21, 7, 42, -8, 7, 0, 977, 932, 673,H
2025-03-07 13:26:50.215,689, 326, 453, -28, -6, -30, -10, 4, -1, 968, 922, 747,H
2025-03-07 13:26:50.273,699, 671, 648, 14, -14, -21, -9, 5, -2, 973, 930, 749,H
2025-03-07 13:26:50.330,762, 399, 275, 50, 28, 27, -9, 6, -1, 983, 918, 609,H
2025-03-07 13:26:50.381,701, 607, 176, 6, 27, 6, -10, 6, 1, 976, 897, 629,H
2025-03-07 13:26:50.431,863, 450, 96, -44, 19, -44, -8, 6, -1, 957, 881, 729,H
2025-03-07 13:26:50.490,507, 522, 681, -28, 0, -18, -7, 6, -2, 955, 884, 700,H
2025-03-07 13:26:50.840,700, 573, 449, -2, -1, -1, -8, 6, -1, 954, 871, 701,I
2025-03-07 13:26:50.896,692, 559, 448, -2, 0, -1, -9, 8, -1, 953, 875, 704,I
2025-03-07 13:26:50.948,683, 566, 493, -2, -1, -1, -8, 5, -1, 955, 875, 697,I
2025-03-07 13:26:51.000,684, 574, 461, -2, 0, -1, -8, 7, -2, 953, 871, 700,I
2025-03-07 13:26:51.056,669, 559, 474, -3, -1, -1, -8, 7, -1, 955, 866, 694,I
2025-03-07 13:26:51.112,687, 568, 462, -3, 1, -3, -9, 6, -1, 955, 861, 688,I
2025-03-07 13:26:51.167,664, 581, 484, -3, -1, -3, -8, 7, -1, 952, 845, 679,I
2025-03-07 13:26:51.223,837, 768, 525, 27, -10, -10, -7, 8, 0, 964, 893, 661,I
2025-03-07 13:26:51.280,826, 710, 199, 16, -19, 41, -9, 6, 0, 982, 943, 675,I
2025-03-07 13:26:51.335,633, 642, 400, -5, 17, 20, -12, 7, -1, 978, 943, 723,I
2025-03-07 13:26:51.393,511, 610, 538, -32, 24, -51, -8, 6, -3, 964, 905, 664,I
2025-03-07 13:26:51.448,736, 995, 478, 23, -18, -7, -9, 7, 1, 972, 913, 683,I
2025-03-07 13:26:51.500,716, 620, 313, 31, 29, 29, -8, 6, -1, 981, 914, 590,I
2025-03-07 13:26:51.554,706, 529, 411, 6, 27, 8, -10, 5, -1, 973, 892, 568,I
2025-03-07 13:26:51.612,546, 636, 676, -12, -1, -28, -7, 6, 0, 961, 831, 633,I
2025-03-07 13:26:51.663,1056, 886, 383, 26, -19, 15, -7, 7, 1, 979, 918, 642,I
2025-03-07 13:26:51.720,366, 244, 324, 0, 16, 31, -11, 5, 0, 981, 939, 704,I
2025-03-07 13:26:51.780,885, 343, 210, -30, 62, -50, -12, 6, 0, 963, 875, 693,I
2025-03-07 13:26:51.832,592, 576, 744, -42, 21, -42, -5, 7, -3, 935, 721, 625,I
2025-03-07 13:26:52.350,666, 552, 496, 2, -1, -2, -7, 6, -2, 951, 877, 778,J
2025-03-07 13:26:52.400,666, 556, 496, 3, -2, -2, -8, 6, -3, 950, 879, 778,J
2025-03-07 13:26:52.462,691, 563, 465, -1, -4, -2, -7, 5, -2, 950, 876, 773,J
2025-03-07 13:26:52.512,666, 563, 461, -3, 1, -4, -6, 5, -1, 952, 865, 775,J
2025-03-07 13:26:52.570,630, 586, 486, -3, -1, -4, -10, 6, 0, 948, 843, 741,J
2025-03-07 13:26:52.628,574, 547, 621, 24, -4, -23, -8, 6, 0, 952, 849, 702,J
2025-03-07 13:26:52.681,801, 852, 539, 11, -23, 17, -8, 6, 0, 970, 920, 720,J
2025-03-07 13:26:52.731,357, 360, 295, -4, 3, 17, -9, 7, -1, 974, 932, 766,J
2025-03-07 13:26:52.791,702, 400, 366, 0, 18, -30, -11, 5, -1, 964, 887, 770,J
2025-03-07 13:26:52.847,924, 147, 507, 23, -13, -22, -9, 5, 0, 971, 892, 754,J
2025-03-07 13:26:52.900,455, 767, 227, 21, 36, 36, -10, 6, -2, 981, 911, 646,J
2025-03-07 13:26:52.957,669, 613, 209, -40, 23, 10, -10, 7, 0, 974, 889, 471,J
2025-03-07 13:26:53.015,1155, 652, 325, 2, 11, -17, -8, 6, 0, 948, 812, 647,J
2025-03-07 13:26:53.070,556, 575, 697, -14, 33, -5, -7, 6, -2, 950, 804, 676,J
2025-03-07 13:26:53.128,522, 531, 656, -4, -14, 1, -6, 7, -3, 951, 806, 685,J
2025-03-07 13:26:53.181,714, 531, 484, -1, -26, -6, -7, 7, -3, 944, 779, 685,J
2025-03-07 13:26:53.571,664, 562, 510, -2, -1, 1, -8, 6, -2, 938, 787, 672,K
2025-03-07 13:26:53.628,669, 562, 501, -1, -2, 0, -7, 7, -2, 937, 784, 674,K
2025-03-07 13:26:53.685,681, 563, 478, -2, -3, -2, -8, 8, -3, 939, 794, 676,K
2025-03-07 13:26:53.735,666, 565, 498, -3, -5, -4, -7, 6, -1, 941, 804, 685,K
2025-03-07 13:26:53.790,653, 581, 504, 1, -15, 0, -7, 7, -3, 946, 836, 695,K
2025-03-07 13:26:53.847,675, 559, 536, 5, -2, -9, -8, 7, -2, 955, 872, 695,K
2025-03-07 13:26:53.901,629, 553, 529, 35, 22, 24, -9, 7, 1, 969, 841, 578,K
2025-03-07 13:26:53.951,761, 618, 226, -11, 15, 17, -7, 6, 0, 968, 817, 99,K
2025-03-07 13:26:54.012,819, 406, 397, -2, -19, 10, -10, 7, 0, 969, 935, 633,K
2025-03-07 13:26:54.063,652, 471, 648, -2, -5, -5, -11, 5, 0, 969, 936, 726,K
2025-03-07 13:26:54.122,617, 662, 302, -3, 29, -10, -9, 6, 0, 956, 855, 647,K
2025-03-07 13:26:54.180,847, 198, 436, 29, -8, -16, -11, 5, -1, 963, 842, 530,K
2025-03-07 13:26:54.233,715, 541, 313, -1, 10, 48, -11, 7, 0, 981, 926, 483,K
2025-03-07 13:26:54.286,682, 501, 494, 1, 17, 18, -10, 6, -1, 970, 915, 568,K
2025-03-07 13:26:54.344,604, 552, 475, -44, 64, -59, -8, 8, -3, 941, 804, 646,K
2025-03-07 13:26:54.400,541, 600, 711, -10, 3, -27, -6, 7, -4, 918, 741, 612,K
2025-03-07 13:26:54.800,677, 570, 465, 1, -5, 0, -7, 7, -1, 931, 799, 697,L
2025-03-07 13:26:54.863,681, 575, 466, 3, -5, 0, -9, 7, -3, 930, 801, 699,L
2025-03-07 13:26:54.914,697, 582, 447, 2, -4, 1, -9, 7, -3, 933, 804, 709,L
2025-03-07 13:26:54.971,682, 576, 450, -1, -3, -1, -6, 7, -1, 934, 811, 698,L
2025-03-07 13:26:55.020,689, 569, 451, -4, -3, -2, -8, 6, 0, 937, 804, 692,L
2025-03-07 13:26:55.079,673, 549, 458, -6, -1, -7, -10, 6, 0, 943, 830, 681,L
2025-03-07 13:26:55.133,662, 521, 540, 11, -15, -11, -7, 6, -1, 962, 872, 623,L
2025-03-07 13:26:55.180,805, 749, 338, 21, 29, 26, -8, 7, 0, 972, 820, 284,L
2025-03-07 13:26:55.245,730, 545, 166, 29, 5, -3, -8, 5, -1, 976, 867, 102,L
2025-03-07 13:26:55.297,748, 400, 518, -6, 3, 24, -9, 6, 1, 983, 938, 625,L
2025-03-07 13:26:55.348,658, 552, 436, 5, 8, 6, -9, 5, 1, 972, 914, 708,L
2025-03-07 13:26:55.400,630, 630, 430, -51, 47, -42, -9, 6, -1, 954, 840, 611,L
2025-03-07 13:26:55.462,606, 595, 635, -8, -13, -7, -5, 6, -2, 945, 776, 580,L
2025-03-07 13:26:55.934,675, 580, 481, 1, -4, 0, -8, 8, -2, 940, 831, 681,M
2025-03-07 13:26:55.990,691, 583, 470, 1, -4, 1, -7, 5, -1, 941, 829, 682,M
2025-03-07 13:26:56.044,678, 580, 455, -2, 2, 0, -7, 6, -1, 941, 828, 684,M
2025-03-07 13:26:56.100,672, 583, 465, -5, 3, -2, -9, 6, -3, 941, 830, 689,M
2025-03-07 13:26:56.150,629, 590, 523, 4, -15, 4, -8, 8, -2, 943, 839, 713,M
2025-03-07 13:26:56.202,706, 689, 456, -5, -2, -4, -7, 6, 0, 955, 873, 709,M
2025-03-07 13:26:56.260,723, 578, 614, 34, 5, 4, -8, 7, 0, 973, 868, 518,M
2025-03-07 13:26:56.314,691, 855, 250, -18, 29, 30, -9, 7, -1, 970, 821, 323,M
2025-03-07 13:26:56.373,745, 245, 434, -10, -25, -61, -9, 6, -1, 953, 831, 679,M
2025-03-07 13:26:56.429,674, 783, 686, -5, -11, -17, -7, 7, -2, 965, 913, 716,M
2025-03-07 13:26:56.486,687, 826, 101, 26, 20, 36, -9, 6, -1, 981, 913, 693,M
2025-03-07 13:26:56.539,675, 601, 230, -10, 17, 20, -8, 7, 1, 974, 915, 705,M
2025-03-07 13:26:56.600,589, 645, 690, -12, -13, -10, -10, 5, -1, 972, 926, 747,M
2025-03-07 13:26:56.650,782, 855, 143, 37, 8, 16, -9, 6, 1, 982, 918, 665,M
2025-03-07 13:26:56.706,762, 652, 62, -1, 22, 15, -10, 7, 1, 978, 905, 625,M
2025-03-07 13:26:56.762,827, 621, 177, -38, 26, -48, -9, 7, 1, 963, 907, 732,M
2025-03-07 13:26:56.812,582, 564, 590, -19, 5, -16, -8, 5, -3, 964, 912, 737,M
2025-03-07 13:26:57.152,674, 552, 457, 2, -1, -2, -8, 6, 0, 960, 895, 753,N
2025-03-07 13:26:57.211,681, 562, 460, 2, -2, -3, -8, 6, -1, 960, 896, 752,N
2025-03-07 13:26:57.262,692, 580, 463, 2, -4, -1, -9, 5, -1, 960, 890, 746,N
2025-03-07 13:26:57.312,704, 581, 437, -4, 2, -2, -8, 7, -1, 961, 879, 728,N
2025-03-07 13:26:57.370,684, 584, 459, -2, -2, -5, -10, 7, 1, 960, 873, 728,N
2025-03-07 13:26:57.428,704, 546, 467, -9, -1, -14, -8, 6, -1, 961, 887, 708,N
2025-03-07 13:26:57.480,693, 477, 591, 16, -14, -11, -8, 8, -1, 971, 897, 641,N
2025-03-07 13:26:57.530,807, 461, 127, 25, 24, 26, -8, 6, 2, 977, 863, 427,N
2025-03-07 13:26:57.596,671, 294, 687, -15, -16, -17, -9, 7, 1, 961, 857, 694,N
2025-03-07 13:26:57.650,1128, 204, 186, -24, -9, -11, -7, 8, -1, 964, 904, 728,N
2025-03-07 13:26:57.711,792, 580, 263, 37, 15, 40, -7, 6, -1, 979, 913, 688,N
2025-03-07 13:26:57.763,616, 656, 160, -16, 18, 20, -8, 8, -1, 978, 916, 624,N
2025-03-07 13:26:57.823,653, 729, 590, -10, -27, -22, -10, 8, -1, 971, 933, 735,N
2025-03-07 13:26:57.880,825, 508, 211, -20, 66, -18, -10, 7, -1, 964, 900, 725,N
2025-03-07 13:26:57.930,491, 526, 744, -7, 8, -5, -8, 7, -2, 962, 879, 668,N
2025-03-07 13:26:58.310,681, 541, 482, 2, -3, 1, -9, 5, -1, 961, 886, 715,O
2025-03-07 13:26:58.370,677, 559, 472, 3, -4, 1, -9, 7, -1, 961, 890, 715,O
2025-03-07 13:26:58.424,560, 541, 294, -2, -2, 6, -8, 6, -2, 962, 891, 717,O
2025-03-07 13:26:58.476,666, 512, 483, 1, -1, 3, -8, 7, -1, 960, 891, 722,O
2025-03-07 13:26:58.529,713, 550, 495, 1, -1, 0, -9, 6, 0, 960, 894, 727,O
2025-03-07 13:26:58.580,684, 569, 491, 2, -6, 3, -9, 6, -1, 960, 896, 734,O
2025-03-07 13:26:58.630,594, 575, 525, 0, -1, -14, -8, 7, -1, 963, 906, 702,O
2025-03-07 13:26:58.694,421, 456, 562, 34, -12, -22, -8, 6, -1, 972, 902, 555,O
2025-03-07 13:26:58.750,609, 713, 337, -9, 30, 46, -9, 6, 1, 981, 908, 388,O
2025-03-07 13:26:58.800,479, 571, 371, -59, 7, 25, -9, 7, -3, 977, 936, 430,O
2025-03-07 13:26:58.861,1072, 529, 344, 10, -30, -38, -8, 7, 0, 962, 924, 672,O
2025-03-07 13:26:58.913,987, 549, 64, -27, 67, -20, -8, 8, -2, 950, 862, 680,O
2025-03-07 13:26:58.972,498, 596, 716, -22, 32, -5, -8, 6, -3, 951, 814, 543,O
2025-03-07 13:26:59.028,554, 515, 658, 21, -33, 10, -7, 6, -4, 949, 826, 558,O
2025-03-07 13:26:59.353,676, 561, 479, 1, -6, 1, -8, 7, -3, 943, 816, 639,P
2025-03-07 13:26:59.400,673, 561, 480, 2, -6, 1, -8, 7, -3, 942, 820, 640,P
2025-03-07 13:26:59.460,693, 580, 493, 3, -12, 1, -9, 8, 0, 941, 818, 646,P
2025-03-07 13:26:59.512,894, 331, 246, -15, -5, -11, -8, 5, -1, 941, 840, 632,P
2025-03-07 13:26:59.573,692, 493, 538, -10, -5, -12, -9, 7, -1, 949, 878, 537,P
2025-03-07 13:26:59.631,657, 682, 409, 67, 21, 17, -9, 7, -1, 975, 883, 423,P
2025-03-07 13:26:59.680,692, 645, 196, 6, 17, 15, -9, 7, 1, 978, 874, 147,P
2025-03-07 13:26:59.730,336, 73, 560, -6, -30, -63, -7, 6, -1, 959, 871, 543,P
2025-03-07 13:26:59.795,799, 566, 695, 2, -21, -4, -8, 5, -1, 970, 924, 705,P
2025-03-07 13:26:59.846,640, 726, 290, 7, -6, 18, -9, 5, 0, 981, 940, 693,P
2025-03-07 13:26:59.900,762, 338, 552, -1, 27, 14, -9, 5, 0, 982, 926, 578,P
2025-03-07 13:26:59.951,851, 534, 401, -30, 18, 3, -9, 6, 0, 967, 873, 492,P
2025-03-07 13:27:00.012,564, 572, 736, -34, 40, -15, -8, 8, -3, 962, 888, 567,P
2025-03-07 13:27:00.070,496, 589, 696, 10, -16, 3, -7, 6, -5, 957, 892, 622,P
2025-03-07 13:27:00.120,690, 578, 455, 14, -27, 7, -7, 7, -3, 954, 882, 626,P
2025-03-07 13:27:00.500,657, 549, 480, 1, -3, 2, -8, 7, -2, 952, 870, 623,Q
2025-03-07 13:27:00.550,658, 541, 487, 2, -4, 2, -8, 6, -1, 952, 875, 632,Q
2025-03-07 13:27:00.601,675, 564, 470, 2, -4, 5, -8, 6, -2, 954, 877, 655,Q
2025-03-07 13:27:00.659,694, 564, 454, 0, -4, 2, -9, 7, -2, 956, 882, 666,Q
2025-03-07 13:27:00.713,636, 562, 537, 6, -15, 4, -9, 7, -2, 956, 889, 673,Q
2025-03-07 13:27:00.770,706, 603, 499, -4, -9, -19, -8, 8, -2, 961, 902, 622,Q
2025-03-07 13:27:00.821,637, 473, 455, 67, -3, -16, -8, 7, -1, 971, 888, 499,Q
2025-03-07 13:27:00.877,927, 728, 5, -22, 43, 65, -9, 6, -1, 982, 902, 470,Q
2025-03-07 13:27:00.930,472, 256, 804, -16, -22, -13, -9, 7, 0, 976, 931, 619,Q
2025-03-07 13:27:00.991,703, 665, 300, 0, -8, -13, -11, 6, 0, 960, 887, 697,Q
2025-03-07 13:27:01.045,649, 701, 556, -6, 3, 10, -9, 7, -1, 963, 863, 595,Q
2025-03-07 13:27:01.100,627, 659, 491, -21, -4, 49, -9, 8, -1, 984, 932, 466,Q
2025-03-07 13:27:01.150,683, 398, 333, -3, 18, 25, -9, 8, -2, 981, 933, 492,Q
2025-03-07 13:27:01.211,744, 544, 226, -23, 37, -66, -10, 7, -3, 959, 876, 595,Q
2025-03-07 13:27:01.270,555, 545, 712, -14, 7, -27, -7, 7, -4, 935, 822, 578,Q
2025-03-07 13:27:01.700,664, 567, 490, -1, -5, -1, -8, 7, -3, 932, 835, 653,R
2025-03-07 13:27:01.762,670, 569, 484, -2, -6, -2, -7, 6, -2, 934, 839, 653,R
2025-03-07 13:27:01.814,650, 557, 483, -8, -10, -4, -7, 6, -4, 933, 849, 633,R
2025-03-07 13:27:01.871,743, 762, 506, 5, -4, -13, -8, 7, -2, 945, 884, 631,R
2025-03-07 13:27:01.928,690, 682, 513, 29, 13, 11, -7, 8, -2, 971, 892, 502,R
2025-03-07 13:27:01.980,593, 645, 451, 18, 19, 27, -9, 5, 0, 977, 886, 244,R
2025-03-07 13:27:02.040,605, 209, 784, -11, -15, -26, -7, 8, -2, 962, 862, 438,R
2025-03-07 13:27:02.094,791, 564, 458, -15, -16, -15, -8, 8, -1, 966, 911, 671,R
2025-03-07 13:27:02.150,583, 750, 311, -1, -3, 21, -9, 5, 1, 981, 925, 595,R
2025-03-07 13:27:02.200,660, 502, 427, -11, 17, 9, -8, 8, -2, 977, 901, 364,R
2025-03-07 13:27:02.261,918, 776, 442, 16, 3, 24, -9, 7, -1, 980, 920, 408,R
2025-03-07 13:27:02.312,664, 609, 396, -8, 20, 32, -11, 8, -2, 979, 929, 379,R
2025-03-07 13:27:02.376,620, 477, 377, -22, 51, -51, -8, 8, -3, 964, 892, 422,R
2025-03-07 13:27:02.431,544, 524, 763, -11, 6, -32, -8, 6, -4, 948, 856, 464,R
2025-03-07 13:27:02.817,687, 565, 478, 2, -8, 4, -7, 7, -3, 950, 891, 612,S
2025-03-07 13:27:02.871,699, 564, 478, 1, -6, 5, -9, 6, -3, 951, 892, 621,S
2025-03-07 13:27:02.920,696, 543, 479, -7, -2, 0, -9, 7, -3, 952, 894, 621,S
2025-03-07 13:27:02.978,677, 518, 522, -2, -4, 2, -7, 9, -2, 956, 901, 626,S
2025-03-07 13:27:03.030,684, 546, 485, 0, -5, 3, -8, 7, -1, 958, 903, 637,S
2025-03-07 13:27:03.080,663, 541, 509, 0, -11, 6, -9, 7, -3, 960, 907, 655,S
2025-03-07 13:27:03.142,665, 519, 546, -8, -4, -13, -9, 7, -3, 961, 916, 598,S
2025-03-07 13:27:03.198,564, 389, 594, 18, -5, -21, -9, 10, -2, 968, 916, 447,S
2025-03-07 13:27:03.252,889, 594, 394, 6, 22, 16, -7, 6, -2, 976, 915, 334,S
2025-03-07 13:27:03.309,625, 898, 438, -13, 17, 26, -9, 8, -1, 981, 923, 372,S
2025-03-07 13:27:03.363,555, 402, 661, 2, 11, -3, -9, 9, -1, 971, 883, 276,S
2025-03-07 13:27:03.421,1032, 465, 252, -40, 45, -35, -8, 7, -2, 951, 811, 320,S
2025-03-07 13:27:03.477,520, 516, 790, -27, 24, -18, -6, 9, -6, 944, 811, 310,S
2025-03-07 13:27:03.884,665, 548, 519, -3, -1, -3, -8, 7, -3, 943, 859, 529,T
2025-03-07 13:27:03.930,675, 565, 521, -5, -1, -2, -7, 8, -3, 946, 860, 522,T
2025-03-07 13:27:03.992,666, 555, 525, -3, -3, -2, -8, 7, -3, 943, 843, 478,T
2025-03-07 13:27:04.044,668, 551, 513, -1, -3, -2, -7, 7, -4, 939, 842, 445,T
2025-03-07 13:27:04.100,645, 559, 516, 1, -3, -6, -8, 7, -3, 936, 838, 466,T
2025-03-07 13:27:04.150,577, 566, 589, 11, -15, 3, -9, 7, -4, 935, 841, 476,T
2025-03-07 13:27:04.211,826, 472, 459, 43, -9, -12, -8, 8, -4, 965, 895, 368,T
2025-03-07 13:27:04.263,605, 684, 525, 8, -11, 33, -9, 6, -2, 977, 937, 712,T
2025-03-07 13:27:04.325,609, 518, 406, 12, 10, 11, -11, 6, -2, 968, 920, 704,T
2025-03-07 13:27:04.380,548, 674, 638, -27, 12, -28, -8, 7, -4, 956, 881, 655,T
2025-03-07 13:27:04.430,742, 999, 419, 2, -14, 1, -8, 6, -3, 976, 907, 521,T
2025-03-07 13:27:04.485,562, 717, 138, 18, 19, 25, -8, 7, -1, 983, 902, 74,T
2025-03-07 13:27:04.543,810, 668, 556, -5, 29, 16, -7, 8, -1, 963, 860, 524,T
2025-03-07 13:27:04.600,517, 583, 698, -35, 48, -27, -7, 8, -3, 952, 861, 573,T
2025-03-07 13:27:04.650,541, 559, 691, -7, -10, -10, -6, 7, -5, 948, 862, 570,T
2025-03-07 13:27:05.060,636, 538, 535, -2, -4, -3, -8, 7, -4, 951, 868, 596,U
2025-03-07 13:27:05.120,658, 546, 541, -1, -6, -3, -7, 7, -3, 950, 870, 593,U
2025-03-07 13:27:05.177,664, 559, 511, 0, -13, -2, -8, 5, -2, 951, 868, 583,U
2025-03-07 13:27:05.235,680, 544, 470, -6, -5, -13, -8, 6, -2, 957, 881, 499,U
2025-03-07 13:27:05.285,676, 488, 568, 18, -9, -12, -8, 8, -1, 965, 885, 423,U
2025-03-07 13:27:05.344,566, 578, 359, 35, 25, 31, -8, 8, -2, 974, 894, 481,U
2025-03-07 13:27:05.394,724, 697, 345, -19, 18, 23, -8, 7, 1, 975, 908, 563,U
2025-03-07 13:27:05.455,790, 499, 554, -2, -26, -30, -9, 7, -2, 962, 914, 715,U
2025-03-07 13:27:05.513,654, 284, 723, 12, -17, -13, -9, 7, 0, 968, 919, 690,U
2025-03-07 13:27:05.566,663, 764, 275, 7, 26, 34, -9, 6, -1, 981, 910, 477,U
2025-03-07 13:27:05.621,727, 476, 559, -14, 10, 10, -9, 7, -2, 969, 897, 605,U
2025-03-07 13:27:05.680,666, 563, 605, -34, 44, -37, -8, 6, -3, 940, 854, 625,U
2025-03-07 13:27:05.730,519, 585, 700, -7, -2, -9, -8, 6, -5, 932, 844, 626,U
2025-03-07 13:27:06.270,668, 575, 485, 1, -3, -1, -8, 6, -3, 922, 770, 473,V
2025-03-07 13:27:06.327,680, 569, 490, 0, -3, -1, -9, 7, -2, 923, 768, 475,V
2025-03-07 13:27:06.380,682, 577, 457, 0, -2, 1, -8, 7, -2, 922, 775, 482,V
2025-03-07 13:27:06.430,676, 571, 480, -2, 1, -1, -9, 6, -3, 927, 785, 511,V
2025-03-07 13:27:06.486,651, 585, 474, -2, -1, -3, -7, 8, -2, 926, 793, 507,V
2025-03-07 13:27:06.543,568, 554, 544, 9, -14, -3, -7, 8, -1, 924, 820, 557,V
2025-03-07 13:27:06.594,743, 557, 417, -8, 2, -4, -8, 7, -2, 952, 866, 463,V
2025-03-07 13:27:06.650,661, 584, 564, 7, 13, 29, -9, 6, -1, 972, 887, 571,V
2025-03-07 13:27:06.709,593, 783, 173, -21, 12, 22, -10, 6, -2, 975, 895, 385,V
2025-03-07 13:27:06.760,379, 419, 753, -9, -36, -33, -10, 7, -1, 970, 936, 643,V
2025-03-07 13:27:06.820,715, 486, 487, -4, -1, 5, -9, 8, -2, 963, 918, 723,V
2025-03-07 13:27:06.877,628, 547, 565, -21, 39, -8, -8, 7, -3, 960, 882, 619,V
2025-03-07 13:27:06.930,607, 558, 619, 5, 4, -2, -8, 7, -2, 958, 852, 522,V
2025-03-07 13:27:06.985,682, 556, 493, 22, -19, -2, -9, 7, -3, 955, 844, 559,V
2025-03-07 13:27:07.760,705, 579, 447, 0, -2, -1, -9, 4, -2, 908, 743, 468,W
2025-03-07 13:27:07.820,704, 580, 444, -3, -1, -2, -8, 8, -1, 906, 743, 460,W
2025-03-07 13:27:07.876,669, 564, 507, -2, 0, -4, -8, 8, -3, 906, 747, 418,W
2025-03-07 13:27:07.927,672, 555, 482, 2, -6, -4, -7, 6, -1, 907, 775, 473,W
2025-03-07 13:27:07.985,667, 508, 510, -3, -2, -9, -7, 7, -3, 936, 829, 412,W
2025-03-07 13:27:08.041,793, 669, 556, 32, -3, 13, -7, 7, -1, 968, 885, 514,W
2025-03-07 13:27:08.097,553, 364, 509, -9, 15, 19, -9, 6, -3, 976, 897, 486,W
2025-03-07 13:27:08.150,757, 291, 565, -4, -21, -8, -9, 6, -1, 968, 916, 617,W
2025-03-07 13:27:08.208,697, 354, 666, 15, -12, -5, -8, 7, -1, 967, 909, 702,W
2025-03-07 13:27:08.261,704, 569, 360, -15, 8, 36, -12, 6, 0, 976, 903, 494,W
2025-03-07 13:27:08.310,790, 144, 486, -9, -20, -3, -10, 8, -1, 972, 934, 522,W
2025-03-07 13:27:08.380,1003, 407, 106, -29, 41, -19, -10, 7, -2, 955, 879, 702,W
2025-03-07 13:27:08.436,503, 530, 682, -34, 36, -18, -7, 8, -4, 944, 816, 623,W
2025-03-07 13:27:08.491,516, 519, 670, 8, -23, 1, -7, 6, -6, 943, 799, 531,W
2025-03-07 13:27:08.910,696, 538, 470, -2, -2, 1, -8, 6, -2, 942, 854, 645,X
2025-03-07 13:27:08.962,685, 538, 480, -2, -1, 0, -9, 7, -2, 946, 858, 646,X
2025-03-07 13:27:09.013,693, 541, 493, -1, -5, 1, -9, 7, -2, 945, 863, 654,X
2025-03-07 13:27:09.070,687, 540, 490, 0, -4, 2, -9, 7, -3, 948, 871, 664,X
2025-03-07 13:27:09.127,665, 536, 528, 7, -16, 8, -11, 6, -4, 952, 883, 686,X
2025-03-07 13:27:09.180,691, 487, 458, -3, -2, -7, -11, 8, -2, 961, 895, 648,X
2025-03-07 13:27:09.241,612, 532, 568, 35, -9, -15, -9, 9, -2, 974, 896, 448,X
2025-03-07 13:27:09.294,796, 566, 91, 7, 26, 12, -10, 6, 0, 973, 860, 30,X
2025-03-07 13:27:09.350,694, 306, 924, -46, 14, -13, -8, 6, -1, 950, 820, 310,X
2025-03-07 13:27:09.400,499, 710, 836, 8, -45, 8, -9, 5, -3, 945, 857, 478,X
2025-03-07 13:27:09.460,891, 1026, 578, 22, -25, 23, -7, 7, -1, 979, 921, 501,X
2025-03-07 13:27:09.517,692, 702, 357, -12, 25, 44, -11, 7, -1, 983, 932, 360,X
2025-03-07 13:27:09.571,813, 112, 428, 3, 7, -42, -10, 8, -1, 966, 904, 573,X
2025-03-07 13:27:09.630,594, 564, 742, -36, 33, -33, -9, 8, -5, 951, 878, 569,X
2025-03-07 13:27:09.686,527, 558, 712, -2, -12, 0, -6, 6, -6, 939, 872, 565,X
2025-03-07 13:27:10.094,686, 569, 492, -1, 0, 0, -9, 7, -2, 939, 877, 650,Y
2025-03-07 13:27:10.150,676, 571, 486, -2, 0, 0, -9, 7, -3, 938, 875, 651,Y
2025-03-07 13:27:10.203,674, 554, 479, -3, 0, -2, -9, 6, -2, 938, 878, 643,Y
2025-03-07 13:27:10.250,647, 554, 497, -2, -5, -5, -6, 8, -3, 938, 868, 628,Y
2025-03-07 13:27:10.314,721, 796, 455, 2, -6, -15, -8, 7, -3, 946, 872, 482,Y
2025-03-07 13:27:10.360,773, 698, 490, 27, -9, 7, -7, 7, -2, 973, 904, 526,Y
2025-03-07 13:27:10.424,670, 740, 285, -18, 33, 44, -10, 6, -2, 975, 918, 592,Y
2025-03-07 13:27:10.480,580, 589, 490, -31, 32, -45, -8, 7, -4, 962, 914, 687,Y
2025-03-07 13:27:10.530,497, 517, 688, 25, -45, 18, -8, 8, -3, 965, 918, 737,Y
2025-03-07 13:27:10.592,684, 604, 421, 39, 1, 1, -9, 7, -3, 977, 915, 580,Y
2025-03-07 13:27:10.641,697, 321, 333, 9, 37, 26, -9, 6, 0, 977, 900, 459,Y
2025-03-07 13:27:10.693,939, 188, 561, -29, 8, -29, -8, 7, -1, 956, 882, 649,Y
2025-03-07 13:27:10.750,535, 570, 780, -34, 1, -25, -6, 7, -5, 930, 888, 595,Y
2025-03-07 13:27:10.809,575, 585, 602, 1, -26, 6, -7, 6, -4, 935, 890, 599,Y
2025-03-07 13:27:11.270,676, 558, 498, 4, -1, 0, -8, 7, -3, 926, 858, 632,Z
2025-03-07 13:27:11.325,672, 564, 496, 3, -1, 0, -7, 8, -2, 928, 855, 637,Z
2025-03-07 13:27:11.376,678, 567, 482, 2, -1, 0, -9, 7, -3, 926, 857, 641,Z
2025-03-07 13:27:11.430,641, 555, 502, 1, -1, -3, -9, 5, -2, 926, 847, 642,Z
2025-03-07 13:27:11.485,607, 537, 527, 10, -9, -2, -7, 8, -2, 927, 840, 581,Z
2025-03-07 13:27:11.542,721, 511, 403, 0, 1, -6, -7, 7, -1, 953, 870, 371,Z
2025-03-07 13:27:11.593,557, 746, 430, -7, -15, 32, -8, 7, -2, 974, 933, 681,Z
2025-03-07 13:27:11.651,642, 486, 624, 30, -14, -4, -8, 7, -1, 976, 932, 710,Z
2025-03-07 13:27:11.706,649, 599, 375, 0, 12, -7, -9, 7, -1, 977, 900, 311,Z
2025-03-07 13:27:11.758,996, 820, 452, 22, 8, 17, -10, 6, 0, 984, 927, 301,Z
2025-03-07 13:27:11.810,452, 162, 361, -15, 6, 16, -9, 5, 1, 983, 943, 520,Z
2025-03-07 13:27:11.870,808, 166, 398, -6, 5, -40, -10, 7, -1, 969, 902, 624,Z
2025-03-07 13:27:11.930,619, 623, 868, -17, -21, -18, -9, 5, -4, 958, 832, 458,Z
2025-03-07 13:27:11.980,743, 653, 287, 15, -26, 13, -8, 6, 0, 979, 931, 641,Z
2025-03-07 13:27:12.041,612, 584, 382, -11, 12, 30, -10, 7, -2, 982, 942, 655,Z
2025-03-07 13:27:12.100,912, 279, 268, -17, 42, -45, -11, 6, -1, 963, 884, 655,Z
2025-03-07 13:27:12.151,593, 561, 643, -45, 37, -30, -8, 7, -4, 937, 762, 459,Z
2025-03-07 13:27:12.209,558, 554, 652, 5, -16, 2, -7, 6, -5, 924, 736, 485,Z
2025-03-07 13:27:14.051,672, 555, 514, -1, -1, 0, -8, 6, -4, 935, 816, 345,a
2025-03-07 13:27:14.110,668, 555, 512, -2, -1, 0, -8, 6, -4, 934, 813, 346,a
2025-03-07 13:27:14.162,670, 567, 500, -4, -4, 1, -9, 6, -3, 936, 822, 368,a
2025-03-07 13:27:14.211,674, 545, 494, -1, -3, 1, -9, 7, -3, 937, 826, 429,a
2025-03-07 13:27:14.271,698, 561, 489, -1, -3, 0, -8, 6, -2, 941, 833, 456,a
2025-03-07 13:27:14.324,684, 561, 488, -2, 0, 1, -9, 7, -1, 944, 842, 451,a
2025-03-07 13:27:14.377,673, 552, 502, -3, -1, 2, -9, 7, -3, 946, 853, 393,a
2025-03-07 13:27:14.430,687, 541, 504, -3, 2, 3, -7, 8, -3, 949, 857, 363,a
2025-03-07 13:27:14.482,678, 539, 515, -1, -1, 3, -9, 7, -3, 954, 860, 361,a
2025-03-07 13:27:14.536,679, 524, 507, 4, -5, 6, -8, 8, -3, 955, 875, 415,a
2025-03-07 13:27:14.593,690, 511, 502, 6, -7, 8, -10, 8, -2, 960, 885, 464,a
2025-03-07 13:27:14.642,673, 542, 487, 3, -7, 5, -10, 6, -2, 961, 892, 505,a
2025-03-07 13:27:14.700,661, 404, 556, -2, -6, -18, -9, 7, -3, 966, 909, 359,a
2025-03-07 13:27:14.758,595, 531, 454, 7, -5, -15, -8, 6, -1, 970, 912, 180,a
2025-03-07 13:27:14.811,868, 984, 170, 1, 25, 24, -9, 8, -2, 980, 913, 85,a
2025-03-07 13:27:14.860,567, 459, 393, -24, 17, 20, -10, 9, -2, 980, 923, 320,a
2025-03-07 13:27:14.924,673, 631, 564, 10, -28, -36, -9, 6, -2, 971, 929, 563,a
2025-03-07 13:27:14.975,796, 805, 180, 11, 12, 26, -9, 6, -1, 979, 927, 469,a
2025-03-07 13:27:15.033,714, 584, 524, -16, 25, 25, -10, 7, -1, 976, 917, 493,a
2025-03-07 13:27:15.091,571, 489, 655, -22, 34, -39, -9, 8, -2, 961, 902, 527,a
2025-03-07 13:27:15.557,746, 634, 419, -6, -2, 2, -8, 7, -3, 949, 881, 514,b
2025-03-07 13:27:15.612,667, 552, 397, -8, 2, 3, -10, 7, -3, 950, 882, 497,b
2025-03-07 13:27:15.664,689, 537, 480, -2, 3, 0, -9, 6, 0, 949, 882, 511,b
2025-03-07 13:27:15.712,686, 516, 464, 1, -2, 0, -10, 8, -4, 950, 885, 521,b
2025-03-07 13:27:15.764,682, 523, 485, 0, -3, 0, -8, 8, -2, 950, 891, 575,b
2025-03-07 13:27:15.825,664, 537, 492, -2, -1, -1, -9, 7, -3, 951, 894, 584,b
2025-03-07 13:27:15.880,676, 537, 474, -1, -1, 0, -10, 7, -3, 952, 895, 604,b
2025-03-07 13:27:15.933,666, 553, 515, -2, -1, -1, -9, 8, -3, 953, 896, 599,b
2025-03-07 13:27:15.990,648, 681, 512, 0, -3, -9, -8, 8, -3, 958, 907, 551,b
2025-03-07 13:27:16.041,694, 459, 536, 2, -5, -9, -10, 7, -1, 969, 916, 474,b
2025-03-07 13:27:16.100,362, 655, 361, 15, 35, 46, -9, 8, -1, 980, 910, 85,b
2025-03-07 13:27:16.158,738, 601, 360, -10, 24, 15, -10, 8, -1, 972, 894, 362,b
2025-03-07 13:27:16.210,733, 717, 564, 23, -8, -12, -9, 7, -1, 970, 910, 634,b
2025-03-07 13:27:16.260,691, 756, 399, -1, -5, 16, -8, 6, -1, 980, 932, 534,b
2025-03-07 13:27:16.325,775, 464, 323, -23, 25, 16, -12, 8, -2, 980, 918, 326,b
2025-03-07 13:27:16.383,1040, 391, 384, -16, 35, -42, -8, 8, -1, 961, 859, 450,b
2025-03-07 13:27:16.434,537, 514, 682, -9, 9, -18, -8, 7, -4, 956, 884, 494,b
2025-03-07 13:27:16.492,554, 542, 619, 18, -27, 10, -8, 6, -4, 952, 887, 562,b
2025-03-07 13:27:16.826,709, 568, 479, 4, -7, 4, -10, 7, -1, 958, 880, 592,c
2025-03-07 13:27:16.883,726, 561, 463, 3, -5, 4, -10, 7, -1, 958, 881, 592,c
2025-03-07 13:27:16.934,711, 548, 470, -1, -1, 0, -9, 7, -3, 961, 886, 600,c
2025-03-07 13:27:16.989,702, 539, 480, 0, -1, 1, -10, 8, -2, 960, 887, 612,c
2025-03-07 13:27:17.041,718, 538, 479, -3, 0, 0, -9, 7, -2, 960, 890, 619,c
2025-03-07 13:27:17.091,696, 536, 495, -2, 0, 1, -9, 7, -1, 961, 892, 622,c
2025-03-07 13:27:17.150,715, 560, 455, -2, 1, 0, -9, 7, -1, 963, 891, 617,c
2025-03-07 13:27:17.200,685, 518, 489, -4, 0, -1, -10, 6, -1, 963, 898, 619,c
2025-03-07 13:27:17.260,661, 490, 506, -5, -9, -12, -11, 7, -2, 970, 912, 456,c
2025-03-07 13:27:17.310,618, 545, 442, 28, -2, -13, -9, 7, 0, 976, 908, 245,c
2025-03-07 13:27:17.374,794, 997, 227, -20, 32, 49, -10, 7, -1, 982, 924, 313,c
2025-03-07 13:27:17.425,604, 394, 658, 7, -1, 12, -10, 7, -2, 978, 932, 621,c
2025-03-07 13:27:17.484,592, 598, 597, -33, 61, -37, -8, 7, -2, 959, 892, 617,c
2025-03-07 13:27:17.542,533, 586, 721, -10, -1, -7, -7, 7, -5, 955, 870, 470,c
2025-03-07 13:27:17.940,641, 527, 517, 2, -4, 3, -10, 7, -1, 958, 879, 566,d
2025-03-07 13:27:17.992,683, 520, 533, 3, -6, 2, -10, 7, -1, 959, 878, 572,d
2025-03-07 13:27:18.050,717, 544, 468, 0, -3, 2, -10, 6, -3, 958, 880, 583,d
2025-03-07 13:27:18.107,705, 544, 469, -2, -1, 0, -10, 7, -2, 960, 880, 582,d
2025-03-07 13:27:18.161,694, 529, 500, 0, -1, 1, -8, 9, -1, 960, 884, 589,d
2025-03-07 13:27:18.214,625, 532, 533, 3, -7, 5, -10, 7, -3, 959, 888, 586,d
2025-03-07 13:27:18.260,701, 494, 404, -3, 0, -7, -9, 7, -1, 964, 896, 562,d
2025-03-07 13:27:18.325,645, 463, 636, -2, -7, -16, -11, 6, -2, 966, 910, 366,d
2025-03-07 13:27:18.375,835, 865, 104, 3, 7, 7, -10, 4, -1, 978, 907, 201,d
2025-03-07 13:27:18.436,619, 494, 432, -36, 25, 32, -9, 8, -2, 980, 925, 354,d
2025-03-07 13:27:18.492,588, 470, 567, 0, -23, -40, -10, 9, -2, 971, 934, 539,d
2025-03-07 13:27:18.550,682, 249, 894, 21, -24, -19, -9, 6, -2, 974, 933, 628,d
2025-03-07 13:27:18.600,758, 699, 390, 1, 31, 36, -11, 6, -1, 983, 924, 386,d
2025-03-07 13:27:18.661,740, 310, 635, -6, 10, -3, -9, 7, -1, 973, 909, 557,d
2025-03-07 13:27:18.710,583, 560, 742, -18, 26, -25, -8, 7, -3, 954, 897, 618,d
2025-03-07 13:27:18.772,582, 617, 600, 6, -16, 6, -6, 6, -3, 949, 885, 565,d
2025-03-07 13:27:19.148,692, 541, 478, -3, 0, 0, -8, 7, -1, 954, 865, 532,e
2025-03-07 13:27:19.200,690, 530, 493, -2, 0, 0, -8, 6, -3, 953, 865, 537,e
2025-03-07 13:27:19.255,699, 542, 473, -2, -1, 0, -10, 6, -3, 955, 867, 528,e
2025-03-07 13:27:19.308,702, 549, 497, -3, 0, -1, -9, 7, -2, 954, 863, 511,e
2025-03-07 13:27:19.360,666, 560, 491, 0, -4, 2, -10, 7, -1, 959, 870, 495,e
2025-03-07 13:27:19.413,731, 481, 525, -6, 1, -5, -9, 7, -2, 966, 893, 373,e
2025-03-07 13:27:19.472,994, 817, 466, 6, -3, 31, -10, 6, -1, 978, 926, 530,e
2025-03-07 13:27:19.525,626, 512, 572, -10, -2, 12, -10, 6, -1, 978, 939, 604,e
2025-03-07 13:27:19.582,627, 465, 475, 11, -9, -28, -10, 7, -2, 973, 935, 592,e
2025-03-07 13:27:19.640,861, 597, 459, 12, -6, -3, -9, 7, -2, 980, 921, 388,e
2025-03-07 13:27:19.697,734, 441, 449, 0, 15, 27, -9, 7, -3, 984, 940, 420,e
2025-03-07 13:27:19.755,801, 248, 511, 10, 1, -11, -13, 9, -3, 973, 929, 645,e
2025-03-07 13:27:19.808,601, 539, 727, -29, 22, -23, -9, 8, -3, 959, 900, 589,e
2025-03-07 13:27:19.860,614, 589, 601, -1, -12, 4, -8, 6, -3, 958, 882, 498,e
2025-03-07 13:27:20.292,702, 526, 496, 0, 0, 1, -9, 7, -2, 962, 881, 503,f
2025-03-07 13:27:20.348,707, 523, 499, -1, -1, 0, -10, 8, -1, 962, 881, 509,f
2025-03-07 13:27:20.400,706, 523, 491, 0, -1, 1, -10, 8, -1, 962, 881, 515,f
2025-03-07 13:27:20.456,703, 536, 489, -1, -1, 1, -9, 6, -2, 961, 887, 520,f
2025-03-07 13:27:20.508,703, 528, 490, 1, -2, 3, -11, 7, -1, 962, 889, 531,f
2025-03-07 13:27:20.560,713, 503, 506, 0, -5, 3, -10, 7, -1, 964, 892, 537,f
2025-03-07 13:27:20.614,712, 518, 442, -7, -1, -2, -9, 7, -1, 968, 897, 441,f
2025-03-07 13:27:20.676,643, 505, 467, -26, -3, -13, -9, 8, -2, 972, 926, 387,f
2025-03-07 13:27:20.730,830, 604, 433, -9, -31, -21, -10, 7, -2, 974, 946, 622,f
2025-03-07 13:27:20.790,710, 586, 505, 20, -16, -1, -11, 7, -2, 976, 943, 658,f
2025-03-07 13:27:20.842,821, 182, 352, -21, 51, -30, -9, 6, 0, 972, 926, 462,f
2025-03-07 13:27:20.900,561, 499, 775, 5, -35, 9, -8, 8, -3, 969, 909, 428,f
2025-03-07 13:27:20.954,811, 628, 299, 20, -3, 6, -10, 7, 0, 979, 941, 580,f
2025-03-07 13:27:21.012,764, 583, 413, 1, 12, 26, -11, 7, -1, 977, 938, 654,f
2025-03-07 13:27:21.060,594, 582, 492, -31, 54, -33, -7, 7, -1, 967, 910, 576,f
2025-03-07 13:27:21.122,579, 547, 726, -3, -2, -7, -9, 6, -4, 962, 895, 472,f
2025-03-07 13:27:21.415,722, 529, 443, -1, -1, 5, -11, 5, -1, 965, 904, 694,g
2025-03-07 13:27:21.471,727, 518, 445, -1, 0, 3, -11, 7, 0, 963, 904, 687,g
2025-03-07 13:27:21.524,702, 533, 486, -3, 0, -1, -10, 8, 0, 966, 908, 697,g
2025-03-07 13:27:21.581,718, 540, 447, -2, -1, -1, -10, 7, -1, 965, 909, 694,g
2025-03-07 13:27:21.634,703, 524, 471, -3, -2, -1, -10, 6, -1, 965, 913, 700,g
2025-03-07 13:27:21.690,667, 537, 516, -13, -3, -10, -10, 6, -2, 967, 927, 634,g
2025-03-07 13:27:21.747,845, 514, 512, 4, -9, -20, -11, 6, -1, 971, 922, 515,g
2025-03-07 13:27:21.806,648, 734, 192, -13, 30, 39, -9, 7, 1, 981, 926, 386,g
2025-03-07 13:27:21.860,704, 538, 620, -13, 8, 20, -10, 7, -3, 978, 933, 457,g
2025-03-07 13:27:21.910,759, 596, 444, 10, -8, -17, -11, 8, -1, 973, 930, 628,g
2025-03-07 13:27:21.970,662, 790, 333, 1, 20, 31, -9, 7, 0, 982, 930, 422,g
2025-03-07 13:27:22.024,653, 484, 435, -30, 26, 19, -12, 7, -2, 977, 913, 112,g
2025-03-07 13:27:22.089,1048, 448, 284, -21, 33, -65, -10, 8, -3, 955, 786, 169,g
2025-03-07 13:27:22.140,570, 503, 733, -16, 17, -40, -7, 8, -5, 942, 818, 338,g
2025-03-07 13:27:22.510,681, 541, 488, 2, -5, 1, -9, 6, -2, 940, 846, 618,h
2025-03-07 13:27:22.560,690, 544, 485, 3, -6, 2, -9, 7, 0, 941, 842, 619,h
2025-03-07 13:27:22.610,712, 574, 432, -2, 0, -1, -9, 8, -2, 943, 839, 624,h
2025-03-07 13:27:22.675,686, 570, 482, -3, -2, -3, -8, 7, -2, 942, 843, 634,h
2025-03-07 13:27:22.726,671, 565, 485, -3, -6, -1, -8, 7, -2, 943, 864, 667,h
2025-03-07 13:27:22.780,708, 520, 577, 4, -7, -8, -8, 8, -1, 959, 887, 637,h
2025-03-07 13:27:22.833,678, 512, 521, 8, 2, 2, -9, 5, -2, 970, 892, 581,h
2025-03-07 13:27:22.890,652, 869, 254, -13, 20, 22, -9, 5, 0, 977, 879, 276,h
2025-03-07 13:27:22.940,709, 571, 443, -10, 16, 7, -8, 7, -1, 968, 889, 339,h
2025-03-07 13:27:23.000,715, 692, 436, 3, -25, -7, -10, 6, -1, 971, 908, 516,h
2025-03-07 13:27:23.056,748, 703, 359, -13, 18, 28, -9, 6, 0, 981, 918, 394,h
2025-03-07 13:27:23.110,763, 534, 521, -8, 23, 19, -10, 7, -1, 971, 884, 523,h
2025-03-07 13:27:23.170,608, 530, 647, -34, 38, -37, -9, 5, -2, 956, 847, 529,h
2025-03-07 13:27:23.222,544, 603, 714, 1, -12, -5, -7, 8, -5, 954, 849, 506,h
2025-03-07 13:27:23.610,712, 544, 496, 1, -4, 1, -11, 7, -1, 950, 818, 464,i
2025-03-07 13:27:23.660,687, 553, 479, 0, -4, 2, -9, 6, -3, 949, 825, 472,i
2025-03-07 13:27:23.720,706, 529, 485, 1, -3, 2, -11, 6, -1, 951, 841, 491,i
2025-03-07 13:27:23.773,711, 534, 475, 0, -2, 1, -10, 6, -1, 953, 851, 505,i
2025-03-07 13:27:23.824,704, 525, 462, -1, -1, 1, -9, 8, -3, 953, 860, 520,i
2025-03-07 13:27:23.880,707, 528, 479, 0, 0, -1, -10, 7, -3, 954, 862, 530,i
2025-03-07 13:27:23.937,687, 549, 499, 1, -1, 0, -10, 7, -2, 955, 861, 538,i
2025-03-07 13:27:23.990,701, 530, 488, 0, -2, 0, -8, 7, -1, 958, 869, 536,i
2025-03-07 13:27:24.042,710, 756, 599, 8, -6, -8, -9, 9, 0, 966, 903, 493,i
2025-03-07 13:27:24.092,720, 616, 374, 11, -5, 0, -10, 7, -1, 979, 913, 310,i
2025-03-07 13:27:24.153,833, 776, 190, -16, 30, 30, -10, 7, -2, 975, 894, 277,i
2025-03-07 13:27:24.210,512, 601, 464, -41, 21, -73, -11, 9, -2, 958, 894, 503,i
2025-03-07 13:27:24.260,480, 1195, 827, 0, -23, -20, -9, 7, -3, 974, 931, 568,i
2025-03-07 13:27:24.321,803, 560, 491, 15, 16, 4, -9, 7, -2, 974, 921, 590,i
2025-03-07 13:27:24.383,837, 264, 306, -14, 52, -21, -10, 6, -2, 963, 897, 565,i
2025-03-07 13:27:24.440,576, 513, 607, -17, 34, -13, -10, 8, -5, 964, 903, 468,i
2025-03-07 13:27:24.490,532, 512, 665, 16, -23, 13, -7, 7, -5, 962, 902, 465,i
2025-03-07 13:27:24.841,704, 550, 490, -4, 1, -1, -9, 8, -1, 958, 868, 512,j
2025-03-07 13:27:24.890,689, 543, 488, -3, 2, 0, -10, 7, -1, 958, 865, 512,j
2025-03-07 13:27:24.950,701, 530, 485, -1, -3, 2, -10, 7, -1, 959, 863, 500,j
2025-03-07 13:27:25.004,706, 534, 479, 0, -2, 1, -9, 6, -3, 957, 876, 511,j
2025-03-07 13:27:25.056,661, 525, 494, 0, -4, -1, -11, 7, -2, 959, 880, 529,j
2025-03-07 13:27:25.110,678, 497, 271, -28, -9, -10, -10, 5, -1, 963, 892, 542,j
2025-03-07 13:27:25.172,725, 688, 520, 5, 2, 15, -11, 6, -1, 977, 913, 388,j
2025-03-07 13:27:25.223,641, 633, 338, -20, 14, 21, -11, 7, -1, 981, 915, 16,j
2025-03-07 13:27:25.282,836, -34, 741, 6, -39, -93, -11, 9, -3, 968, 900, 233,j
2025-03-07 13:27:25.340,416, 524, 982, 13, -75, 12, -8, 8, -3, 972, 927, 588,j
2025-03-07 13:27:25.390,780, 742, 131, 19, -9, 7, -10, 7, -2, 981, 939, 584,j
2025-03-07 13:27:25.450,762, 267, 461, -21, 32, 30, -11, 7, -2, 973, 924, 556,j
2025-03-07 13:27:25.506,594, 564, 635, -31, 45, -12, -9, 7, -5, 969, 915, 425,j
2025-03-07 13:27:25.561,549, 531, 729, 5, -6, 8, -8, 7, -6, 966, 912, 384,j
2025-03-07 13:27:25.611,687, 540, 505, 30, -29, 15, -9, 7, -4, 965, 910, 421,j
2025-03-07 13:27:25.938,691, 536, 467, -1, -7, -1, -9, 8, -2, 956, 880, 356,k
2025-03-07 13:27:25.990,703, 539, 482, -1, -7, -2, -10, 6, -3, 957, 881, 354,k
2025-03-07 13:27:26.050,708, 533, 467, -1, -4, -2, -9, 7, -2, 957, 879, 356,k
2025-03-07 13:27:26.103,710, 547, 471, -1, 0, -3, -11, 8, -2, 954, 872, 361,k
2025-03-07 13:27:26.160,702, 547, 474, -1, -3, -2, -8, 7, -2, 951, 862, 371,k
2025-03-07 13:27:26.210,698, 558, 476, -2, 0, -3, -10, 9, -2, 950, 860, 381,k
2025-03-07 13:27:26.270,686, 551, 479, -5, -3, -4, -9, 8, -1, 949, 855, 405,k
2025-03-07 13:27:26.324,710, 489, 366, -16, 1, -9, -10, 6, -3, 950, 877, 422,k
2025-03-07 13:27:26.382,706, 437, 616, 11, -22, -13, -8, 6, -2, 967, 895, 196,k
2025-03-07 13:27:26.439,794, 599, 503, -5, 18, 21, -9, 7, -1, 976, 856, 16,k
2025-03-07 13:27:26.491,811, 668, 470, -3, 17, 21, -8, 6, -2, 976, 916, 251,k
2025-03-07 13:27:26.544,657, 667, 389, -6, 1, 0, -10, 7, 0, 977, 946, 541,k
2025-03-07 13:27:26.594,704, 575, 485, 1, -4, -2, -10, 8, -2, 968, 926, 626,k
2025-03-07 13:27:26.655,573, 539, 633, -28, 27, -17, -9, 8, -1, 960, 846, 366,k
2025-03-07 13:27:26.713,836, 487, 374, 28, -7, -1, -9, 7, -1, 976, 908, 413,k
2025-03-07 13:27:26.760,595, 530, 265, -3, 13, 32, -10, 7, -3, 984, 934, 423,k
2025-03-07 13:27:26.823,701, 356, 588, 7, 7, -9, -10, 8, -2, 973, 916, 540,k
2025-03-07 13:27:26.880,650, 594, 668, -26, 28, -33, -10, 7, 0, 954, 878, 500,k
2025-03-07 13:27:26.931,561, 619, 625, 12, -20, 7, -9, 7, -2, 953, 883, 545,k
2025-03-07 13:27:27.401,702, 540, 503, 0, -8, 2, -10, 6, -3, 951, 889, 605,l
2025-03-07 13:27:27.455,698, 548, 481, 0, -8, 2, -9, 7, -1, 950, 890, 608,l
2025-03-07 13:27:27.514,721, 538, 440, -2, -3, 0, -10, 8, -1, 952, 894, 607,l
2025-03-07 13:27:27.561,698, 553, 472, -3, 0, -2, -10, 5, -3, 951, 893, 601,l
2025-03-07 13:27:27.622,702, 554, 461, -3, -3, -2, -8, 7, -1, 951, 895, 621,l
2025-03-07 13:27:27.680,712, 545, 459, -6, 1, -2, -9, 6, -2, 951, 898, 630,l
2025-03-07 13:27:27.730,706, 539, 522, -7, 1, -5, -9, 7, -1, 959, 906, 570,l
2025-03-07 13:27:27.786,693, 513, 544, 6, -10, -8, -9, 9, -3, 969, 912, 433,l
2025-03-07 13:27:27.840,888, 812, 296, 34, 23, 23, -9, 9, -1, 980, 909, 118,l
2025-03-07 13:27:27.900,723, 546, 376, -3, 27, 20, -12, 8, -2, 977, 893, 282,l
2025-03-07 13:27:27.954,814, 504, 293, -20, 37, -45, -9, 6, -2, 948, 817, 480,l
2025-03-07 13:27:28.010,545, 505, 689, -11, 0, -10, -8, 7, -4, 945, 833, 470,l
2025-03-07 13:27:28.069,646, 509, 572, 23, -29, 11, -9, 8, -3, 945, 854, 499,l
2025-03-07 13:27:28.478,668, 540, 473, -7, -2, -1, -8, 8, -2, 946, 833, 457,m
2025-03-07 13:27:28.530,655, 519, 525, 0, -3, 0, -10, 8, -2, 947, 832, 463,m
2025-03-07 13:27:28.586,693, 538, 466, 3, -6, 1, -9, 8, -1, 948, 834, 479,m
2025-03-07 13:27:28.639,721, 559, 433, -2, -1, -4, -9, 7, -1, 949, 834, 494,m
2025-03-07 13:27:28.691,646, 547, 512, -5, -8, -1, -10, 5, -2, 952, 850, 480,m
2025-03-07 13:27:28.742,714, 502, 582, -5, -6, -8, -8, 7, -3, 965, 896, 304,m
2025-03-07 13:27:28.802,722, 671, 500, 8, 18, 24, -9, 8, -1, 977, 899, 134,m
2025-03-07 13:27:28.860,714, 628, 330, -6, 14, 7, -10, 7, -1, 976, 898, 212,m
2025-03-07 13:27:28.910,736, 417, 535, 22, -31, -28, -10, 8, -1, 971, 918, 516,m
2025-03-07 13:27:28.970,733, 747, 420, 2, -8, 7, -9, 8, -1, 981, 928, 517,m
2025-03-07 13:27:29.023,740, 602, 281, -2, 13, 13, -8, 7, -2, 980, 923, 391,m
2025-03-07 13:27:29.080,705, 269, 748, 2, -26, -20, -11, 7, 0, 971, 929, 550,m
2025-03-07 13:27:29.133,726, 617, 470, 2, -5, 15, -9, 6, -1, 981, 935, 525,m
2025-03-07 13:27:29.191,765, 520, 377, -6, 24, 25, -10, 7, -1, 980, 932, 501,m
2025-03-07 13:27:29.243,678, 512, 416, -29, 47, -38, -10, 7, -2, 965, 907, 568,m
2025-03-07 13:27:29.306,525, 526, 714, -6, 3, -15, -10, 6, -3, 957, 897, 532,m
2025-03-07 13:27:29.613,665, 549, 490, 1, -3, -3, -10, 7, -2, 944, 820, 447,n
2025-03-07 13:27:29.671,690, 546, 478, 0, -3, -3, -9, 7, -3, 948, 824, 455,n
2025-03-07 13:27:29.726,728, 562, 460, -3, -3, -2, -10, 7, 0, 945, 832, 471,n
2025-03-07 13:27:29.780,687, 542, 490, -4, -1, -2, -9, 7, -1, 948, 840, 482,n
2025-03-07 13:27:29.837,693, 551, 465, -4, -5, -3, -8, 7, -1, 949, 861, 504,n
2025-03-07 13:27:29.890,621, 541, 551, 5, -20, -2, -9, 6, -1, 957, 894, 516,n
2025-03-07 13:27:29.940,714, 535, 514, 4, -9, -8, -9, 6, -2, 970, 906, 395,n
2025-03-07 13:27:30.002,678, 858, 283, -2, 14, 22, -9, 8, -1, 978, 897, 107,n
2025-03-07 13:27:30.054,727, 578, 444, -10, 11, 7, -10, 8, 0, 974, 906, 264,n
2025-03-07 13:27:30.110,631, 617, 433, 7, -24, -12, -11, 6, -2, 973, 929, 562,n
2025-03-07 13:27:30.170,557, 706, 313, 0, 12, 25, -10, 7, 0, 983, 931, 394,n
2025-03-07 13:27:30.224,723, 565, 418, -8, 29, 26, -10, 7, -2, 975, 917, 477,n
2025-03-07 13:27:30.280,633, 525, 520, -28, 43, -35, -10, 7, -2, 960, 890, 543,n
2025-03-07 13:27:30.676,690, 532, 493, 2, -1, 2, -10, 7, -2, 956, 879, 436,o
2025-03-07 13:27:30.731,706, 546, 510, 2, -2, 3, -8, 7, -1, 957, 879, 438,o
2025-03-07 13:27:30.785,722, 551, 468, 2, -5, 1, -11, 7, -1, 957, 882, 462,o
2025-03-07 13:27:30.838,716, 533, 459, -4, 1, -1, -10, 7, -3, 959, 882, 459,o
2025-03-07 13:27:30.891,698, 524, 472, -1, 0, 0, -9, 5, -3, 959, 885, 464,o
2025-03-07 13:27:30.942,711, 524, 492, -2, 1, 0, -10, 5, -2, 959, 884, 473,o
2025-03-07 13:27:31.002,705, 540, 472, -1, 0, 0, -10, 7, -3, 959, 886, 478,o
2025-03-07 13:27:31.055,713, 535, 471, 0, -1, 1, -10, 8, -1, 962, 887, 483,o
2025-03-07 13:27:31.104,696, 529, 501, 1, -1, 2, -9, 7, -1, 961, 891, 499,o
2025-03-07 13:27:31.160,720, 521, 464, -2, 2, -2, -9, 7, -2, 962, 901, 499,o
2025-03-07 13:27:31.219,668, 512, 478, -5, -3, -14, -10, 7, -1, 965, 923, 384,o
2025-03-07 13:27:31.272,794, 404, 541, 24, -10, -23, -9, 6, -2, 971, 915, 197,o
2025-03-07 13:27:31.333,1041, 1071, 193, 3, 32, 61, -9, 7, -1, 981, 926, 288,o
2025-03-07 13:27:31.387,640, 372, 447, -26, 1, 12, -10, 8, -2, 980, 942, 415,o
2025-03-07 13:27:31.440,734, 653, 507, 28, -18, -33, -9, 7, -1, 966, 927, 651,o
2025-03-07 13:27:31.502,742, 630, 331, -40, 59, -19, -9, 7, -2, 958, 891, 555,o
2025-03-07 13:27:31.555,521, 517, 709, -10, 9, 5, -7, 6, -2, 958, 864, 449,o
2025-03-07 13:27:31.941,683, 544, 511, 1, -2, 1, -8, 7, -1, 953, 866, 511,p
2025-03-07 13:27:31.991,700, 549, 499, -1, -4, 1, -10, 6, -3, 952, 868, 514,p
2025-03-07 13:27:32.050,704, 545, 476, 2, -8, 3, -9, 6, -3, 953, 873, 522,p
2025-03-07 13:27:32.105,735, 557, 429, -3, -2, 0, -8, 7, -2, 954, 878, 538,p
2025-03-07 13:27:32.160,693, 562, 477, -4, -3, -1, -8, 7, -1, 955, 889, 556,p
2025-03-07 13:27:32.210,712, 509, 456, -12, 0, -6, -9, 6, -3, 961, 902, 507,p
2025-03-07 13:27:32.270,720, 441, 552, 21, -6, -5, -9, 8, -2, 972, 908, 391,p
2025-03-07 13:27:32.321,676, 500, 426, -9, 17, 27, -11, 6, -1, 978, 905, 13,p
2025-03-07 13:27:32.381,693, 465, 736, -7, 3, 5, -11, 6, -3, 970, 904, 323,p
2025-03-07 13:27:32.439,734, 718, 510, -12, -23, -37, -10, 7, -1, 964, 915, 626,p
2025-03-07 13:27:32.490,634, 694, 538, 0, -20, 11, -9, 7, -1, 979, 939, 640,p
2025-03-07 13:27:32.550,780, 403, 554, -1, 26, 26, -10, 8, -1, 981, 937, 479,p
2025-03-07 13:27:32.604,895, 374, 439, -16, 17, -11, -10, 8, 0, 968, 904, 471,p
2025-03-07 13:27:32.660,567, 533, 718, -24, 30, -16, -9, 7, -4, 968, 899, 389,p
2025-03-07 13:27:33.021,723, 529, 473, 0, -3, 1, -9, 7, -3, 962, 890, 523,q
2025-03-07 13:27:33.070,715, 538, 456, -1, -2, 1, -10, 6, -2, 962, 889, 527,q
2025-03-07 13:27:33.130,713, 537, 480, 1, -2, 3, -10, 7, -2, 963, 895, 540,q
2025-03-07 13:27:33.180,708, 538, 496, 4, -5, 4, -9, 7, -1, 964, 896, 574,q
2025-03-07 13:27:33.237,696, 499, 442, -10, 0, -3, -9, 6, 0, 965, 903, 551,q
2025-03-07 13:27:33.290,749, 610, 489, -13, -4, -9, -10, 7, -2, 968, 921, 392,q
2025-03-07 13:27:33.342,749, 588, 510, 26, -11, -17, -9, 6, 0, 973, 912, 230,q
2025-03-07 13:27:33.404,753, 979, 142, -20, 24, 35, -9, 6, -1, 979, 910, 235,q
2025-03-07 13:27:33.468,613, 267, 544, -11, -17, -20, -10, 8, -3, 974, 932, 402,q
2025-03-07 13:27:33.520,710, 324, 655, 24, -18, -16, -10, 7, -2, 975, 928, 520,q
2025-03-07 13:27:33.574,902, 708, 277, -7, 16, 40, -9, 6, 0, 980, 914, 19,q
2025-03-07 13:27:33.630,813, 393, 679, -17, -3, 7, -9, 6, 0, 981, 941, 241,q
2025-03-07 13:27:33.688,1036, 520, -51, -28, 55, -33, -10, 8, -2, 969, 924, 522,q
2025-03-07 13:27:33.740,507, 530, 705, -30, 31, -14, -8, 6, -4, 964, 885, 358,q
2025-03-07 13:27:34.050,714, 548, 479, 7, -8, 0, -9, 6, -3, 956, 889, 616,r
2025-03-07 13:27:34.110,719, 553, 465, 8, -7, 1, -9, 6, -2, 957, 888, 633,r
2025-03-07 13:27:34.161,710, 538, 469, 2, -1, 0, -9, 7, -1, 956, 891, 666,r
2025-03-07 13:27:34.213,699, 539, 474, 2, -2, -2, -8, 6, 0, 957, 893, 670,r
2025-03-07 13:27:34.270,728, 543, 469, 0, -2, -3, -9, 6, -2, 957, 897, 681,r
2025-03-07 13:27:34.322,708, 539, 446, -4, 0, -3, -8, 8, 0, 958, 901, 683,r
2025-03-07 13:27:34.373,704, 542, 475, -5, 2, -2, -9, 5, -1, 962, 908, 683,r
2025-03-07 13:27:34.430,693, 543, 499, -5, 0, -3, -9, 6, -1, 964, 919, 662,r
2025-03-07 13:27:34.487,721, 522, 509, 6, -6, -6, -9, 6, -1, 971, 921, 652,r
2025-03-07 13:27:34.540,607, 548, 456, 3, 10, 20, -9, 6, 0, 977, 915, 511,r
2025-03-07 13:27:34.590,726, 745, 238, -24, 12, 9, -12, 6, -2, 976, 918, 434,r
2025-03-07 13:27:34.651,917, 705, 35, 0, -17, -33, -11, 8, -3, 976, 940, 617,r
2025-03-07 13:27:34.703,735, 680, 340, 13, -6, 10, -10, 8, 0, 978, 942, 691,r
2025-03-07 13:27:34.760,683, 551, 402, -30, 45, -26, -9, 7, -3, 975, 934, 633,r
2025-03-07 13:27:34.819,613, 497, 701, -6, 3, -10, -8, 8, -3, 972, 921, 548,r
2025-03-07 13:27:34.870,707, 533, 514, 16, -20, 3, -9, 6, -4, 969, 914, 562,r
2025-03-07 13:27:35.576,682, 528, 483, 0, -4, 3, -10, 6, -3, 964, 910, 674,s
2025-03-07 13:27:35.630,694, 520, 496, 2, -4, 2, -12, 6, -4, 964, 909, 676,s
2025-03-07 13:27:35.684,711, 528, 463, -1, -1, 1, -8, 7, -2, 965, 912, 679,s
2025-03-07 13:27:35.736,709, 526, 482, 0, -1, 1, -10, 7, -2, 967, 914, 680,s
2025-03-07 13:27:35.790,723, 529, 476, -1, -1, 1, -8, 7, -2, 965, 913, 685,s
2025-03-07 13:27:35.840,717, 520, 473, -1, 0, 0, -11, 8, -3, 967, 916, 680,s
2025-03-07 13:27:35.903,714, 527, 474, -2, 0, -1, -11, 7, -3, 966, 917, 684,s
2025-03-07 13:27:35.956,705, 538, 484, -2, -1, 2, -11, 7, -2, 967, 917, 683,s
2025-03-07 13:27:36.012,702, 532, 494, -1, -4, 4, -11, 8, -3, 968, 919, 684,s
2025-03-07 13:27:36.068,704, 524, 403, -5, -3, -6, -9, 7, -2, 970, 927, 641,s
2025-03-07 13:27:36.121,613, 421, 584, 5, -3, -12, -10, 7, -3, 973, 933, 617,s
2025-03-07 13:27:36.170,711, 643, 291, 27, 6, -5, -10, 7, -2, 978, 929, 537,s
2025-03-07 13:27:36.236,684, 579, 486, -13, 17, 30, -9, 6, -1, 984, 937, 504,s
2025-03-07 13:27:36.289,818, 424, 512, -10, 13, 13, -11, 6, -1, 981, 932, 398,s
2025-03-07 13:27:36.350,1061, 330, 279, -27, 32, -33, -9, 7, -3, 967, 883, 399,s
2025-03-07 13:27:36.403,576, 532, 692, -19, 25, -19, -9, 6, -4, 967, 889, 401,s
2025-03-07 13:27:36.460,564, 563, 604, 15, -24, 7, -7, 8, -5, 965, 899, 490,s
2025-03-07 13:27:36.826,699, 540, 484, 1, -3, -1, -10, 7, -3, 955, 907, 693,t
2025-03-07 13:27:36.879,701, 546, 477, 2, -3, 0, -10, 7, -1, 955, 909, 692,t
2025-03-07 13:27:36.936,686, 555, 482, 1, -3, 0, -9, 6, -2, 957, 909, 700,t
2025-03-07 13:27:36.990,719, 551, 470, 3, -5, 2, -9, 6, 0, 957, 910, 707,t
2025-03-07 13:27:37.046,733, 548, 423, -1, -3, 0, -9, 7, 0, 956, 908, 708,t
2025-03-07 13:27:37.092,702, 541, 458, -4, -1, -5, -8, 7, -1, 954, 910, 706,t
2025-03-07 13:27:37.142,695, 567, 455, -5, -6, -4, -10, 6, -1, 955, 911, 705,t
2025-03-07 13:27:37.202,700, 544, 519, -8, -1, -8, -9, 7, -1, 959, 923, 698,t
2025-03-07 13:27:37.260,698, 438, 538, 2, -7, -9, -9, 7, -1, 967, 930, 688,t
2025-03-07 13:27:37.310,572, 900, 219, 59, 19, 18, -9, 6, -1, 979, 909, 554,t
2025-03-07 13:27:37.367,821, 882, -6, -17, 33, 32, -11, 6, 1, 978, 897, 483,t
2025-03-07 13:27:37.428,682, 304, 470, -13, -4, -69, -10, 6, -1, 966, 890, 555,t
2025-03-07 13:27:37.485,836, 609, 425, 28, -15, -23, -8, 6, -1, 970, 914, 508,t
2025-03-07 13:27:37.537,706, 734, 235, -7, -1, 35, -9, 8, 0, 984, 944, 588,t
2025-03-07 13:27:37.590,646, 495, 609, 7, 13, 13, -10, 8, 1, 977, 932, 667,t
2025-03-07 13:27:37.640,621, 601, 493, -32, 41, -38, -10, 7, -1, 964, 899, 623,t
2025-03-07 13:27:37.702,626, 586, 649, 1, -8, -1, -7, 6, -2, 960, 888, 567,t
2025-03-07 13:27:38.064,702, 553, 457, -1, -2, 1, -9, 7, -2, 957, 854, 584,u
2025-03-07 13:27:38.121,704, 555, 450, -1, -3, 1, -10, 7, 0, 957, 855, 582,u
2025-03-07 13:27:38.173,710, 549, 464, -1, -1, 1, -9, 7, -1, 957, 861, 591,u
2025-03-07 13:27:38.224,710, 563, 451, -3, 1, -1, -8, 7, 0, 958, 875, 600,u
2025-03-07 13:27:38.280,708, 561, 459, -4, 0, -2, -9, 7, 0, 959, 882, 612,u
2025-03-07 13:27:38.334,711, 541, 444, -10, 1, -3, -11, 6, -1, 961, 895, 604,u
2025-03-07 13:27:38.390,696, 560, 457, -1, -1, 0, -8, 7, -1, 963, 897, 620,u
2025-03-07 13:27:38.440,696, 540, 464, -5, 0, -2, -8, 7, 1, 965, 903, 623,u
2025-03-07 13:27:38.490,666, 442, 575, 15, -7, -9, -10, 7, -1, 972, 912, 532,u
2025-03-07 13:27:38.554,878, 628, 200, 14, 12, 21, -9, 5, -1, 981, 916, 458,u
2025-03-07 13:27:38.606,680, 416, 525, -15, 3, 8, -9, 6, -1, 978, 928, 510,u
2025-03-07 13:27:38.660,727, 612, 527, -10, -22, -21, -8, 6, 0, 970, 930, 657,u
2025-03-07 13:27:38.719,725, 783, 291, 5, 14, 16, -9, 6, 0, 980, 927, 587,u
2025-03-07 13:27:38.772,706, 574, 372, -4, 20, 23, -10, 8, -2, 980, 929, 480,u
2025-03-07 13:27:38.830,778, 493, 292, -16, 25, -47, -9, 6, -1, 967, 909, 637,u
2025-03-07 13:27:38.886,604, 548, 605, -20, 9, -23, -10, 8, -3, 954, 891, 607,u
2025-03-07 13:27:39.260,701, 564, 474, -3, 0, 0, -8, 6, -1, 949, 833, 517,v
2025-03-07 13:27:39.318,696, 547, 468, -3, 0, 0, -10, 7, -2, 947, 831, 506,v
2025-03-07 13:27:39.373,697, 551, 477, -3, -1, 2, -9, 6, -1, 948, 832, 498,v
2025-03-07 13:27:39.430,682, 548, 489, -1, 0, 0, -11, 7, -3, 949, 837, 504,v
2025-03-07 13:27:39.484,700, 542, 471, -3, 0, -1, -10, 6, -1, 951, 840, 502,v
2025-03-07 13:27:39.537,682, 541, 482, -2, 0, 0, -8, 7, -2, 950, 840, 485,v
2025-03-07 13:27:39.590,656, 531, 530, 3, -6, -1, -10, 5, -2, 949, 831, 452,v
2025-03-07 13:27:39.640,715, 560, 470, -2, -2, -1, -9, 7, -2, 949, 823, 413,v
2025-03-07 13:27:39.701,697, 557, 482, -2, -1, -1, -9, 8, -1, 950, 833, 453,v
2025-03-07 13:27:39.754,687, 547, 505, 4, -7, 2, -9, 7, -1, 952, 851, 497,v
2025-03-07 13:27:39.805,696, 530, 437, -8, 2, -6, -9, 7, -1, 957, 885, 445,v
2025-03-07 13:27:39.860,708, 512, 534, -8, 0, -4, -10, 5, -1, 964, 904, 399,v
2025-03-07 13:27:39.919,702, 500, 474, 1, 0, -3, -8, 7, -2, 970, 915, 378,v
2025-03-07 13:27:39.970,753, 539, 489, 19, -7, -3, -9, 7, 0, 977, 919, 434,v
2025-03-07 13:27:40.020,789, 426, 447, 6, 14, 30, -10, 6, -1, 981, 914, 364,v
2025-03-07 13:27:40.080,737, 702, 459, -28, 8, 16, -9, 8, -1, 980, 929, 367,v
2025-03-07 13:27:40.140,812, 370, 574, -2, -28, -17, -10, 8, -2, 978, 944, 522,v
2025-03-07 13:27:40.190,910, 502, 176, -20, 27, 8, -9, 7, -2, 971, 924, 580,v
2025-03-07 13:27:40.253,530, 547, 735, -22, 30, -11, -11, 7, -4, 970, 898, 426,v
2025-03-07 13:27:40.302,556, 486, 652, 25, -21, 5, -9, 8, -4, 964, 890, 453,v
2025-03-07 13:27:40.810,685, 555, 493, -3, -1, 0, -8, 7, 0, 945, 823, 488,w
2025-03-07 13:27:40.870,691, 545, 490, -2, -1, 0, -10, 7, -2, 946, 824, 489,w
2025-03-07 13:27:40.926,694, 553, 469, -1, -1, 1, -8, 7, -1, 949, 829, 502,w
2025-03-07 13:27:40.980,695, 552, 483, -2, 0, -1, -9, 7, 0, 950, 831, 502,w
2025-03-07 13:27:41.037,696, 554, 469, -3, -3, -1, -10, 8, -3, 951, 841, 516,w
2025-03-07 13:27:41.090,614, 555, 476, -9, -16, -3, -10, 7, -2, 956, 862, 570,w
2025-03-07 13:27:41.140,719, 492, 534, -6, -6, -5, -9, 8, -2, 970, 906, 418,w
2025-03-07 13:27:41.200,590, 750, 366, 0, 18, 34, -9, 7, 0, 979, 916, 437,w
2025-03-07 13:27:41.254,703, 639, 387, -4, 10, 14, -10, 8, 0, 983, 924, 406,w
2025-03-07 13:27:41.310,841, 316, 561, -2, -24, -26, -12, 7, -1, 977, 938, 546,w
2025-03-07 13:27:41.368,765, 604, 651, 32, -18, -4, -10, 6, 0, 979, 933, 629,w
2025-03-07 13:27:41.421,733, 607, 338, -11, 6, 23, -12, 8, -1, 980, 931, 379,w
2025-03-07 13:27:41.484,706, 106, 676, 12, -28, -21, -11, 8, -2, 978, 942, 451,w
2025-03-07 13:27:41.540,815, 469, 170, -16, 36, -21, -11, 6, 0, 967, 894, 618,w
2025-03-07 13:27:41.597,576, 496, 637, -12, 10, -9, -10, 6, -3, 960, 864, 483,w
2025-03-07 13:27:41.960,707, 550, 487, 1, -6, 1, -11, 6, 0, 958, 891, 630,x
2025-03-07 13:27:42.015,713, 550, 465, 1, -7, 2, -10, 7, 0, 959, 892, 639,x
2025-03-07 13:27:42.070,712, 531, 460, 0, -2, 2, -11, 7, -2, 963, 897, 663,x
2025-03-07 13:27:42.120,703, 541, 463, 0, -5, 2, -10, 6, -3, 964, 900, 674,x
2025-03-07 13:27:42.177,711, 525, 449, -2, -1, -2, -11, 5, -1, 964, 901, 679,x
2025-03-07 13:27:42.235,709, 534, 467, -2, -3, -1, -10, 7, -1, 964, 907, 680,x
2025-03-07 13:27:42.290,722, 530, 465, -2, 0, -1, -10, 6, 0, 963, 907, 680,x
2025-03-07 13:27:42.340,683, 529, 455, -4, -3, 0, -10, 6, -2, 962, 910, 678,x
2025-03-07 13:27:42.403,758, 410, 465, -6, -2, -11, -11, 6, -2, 968, 920, 648,x
2025-03-07 13:27:42.460,610, 575, 532, 25, -5, -12, -10, 6, -1, 976, 926, 501,x
2025-03-07 13:27:42.511,743, 583, 288, 2, 5, 2, -10, 7, 0, 977, 920, 420,x
2025-03-07 13:27:42.568,734, 580, 510, -9, 19, 10, -9, 7, 1, 971, 891, 520,x
2025-03-07 13:27:42.620,764, 467, 446, -10, -16, -46, -10, 7, 0, 953, 871, 605,x
2025-03-07 13:27:42.677,529, 614, 706, 7, -31, 13, -9, 5, -3, 966, 901, 570,x
2025-03-07 13:27:42.735,844, 658, 270, -11, -3, 36, -9, 6, 0, 984, 936, 472,x
2025-03-07 13:27:42.785,688, 619, 428, -1, 19, 24, -10, 6, 0, 985, 937, 437,x
2025-03-07 13:27:42.846,760, 444, 505, 12, 5, -5, -11, 8, -1, 969, 899, 612,x
2025-03-07 13:27:42.901,661, 567, 609, -31, 29, -27, -9, 6, -1, 955, 852, 520,x
2025-03-07 13:27:43.450,708, 551, 465, -3, 0, -1, -9, 6, -1, 957, 870, 589,y
2025-03-07 13:27:43.505,701, 550, 467, -3, -1, -1, -11, 6, -1, 957, 870, 588,y
2025-03-07 13:27:43.560,708, 555, 460, -2, -1, -1, -9, 7, -1, 958, 874, 600,y
2025-03-07 13:27:43.616,714, 540, 458, -2, -1, -1, -9, 6, -1, 957, 883, 599,y
2025-03-07 13:27:43.670,703, 559, 482, -3, 0, -1, -9, 6, -1, 958, 884, 606,y
2025-03-07 13:27:43.720,717, 544, 451, -2, 1, -2, -9, 6, 0, 959, 884, 613,y
2025-03-07 13:27:43.780,700, 554, 474, -3, -1, -2, -11, 7, 0, 958, 888, 613,y
2025-03-07 13:27:43.833,689, 555, 463, -3, -6, -2, -10, 6, 0, 959, 895, 608,y
2025-03-07 13:27:43.890,720, 440, 667, 4, -9, -12, -10, 6, -1, 969, 908, 396,y
2025-03-07 13:27:43.940,642, 515, 321, 25, 22, 35, -9, 8, 0, 981, 923, 511,y
2025-03-07 13:27:44.000,670, 522, 667, -6, 10, 25, -9, 7, -1, 975, 927, 648,y
2025-03-07 13:27:44.055,593, 624, 627, 10, -12, 0, -9, 5, -1, 968, 921, 711,y
2025-03-07 13:27:44.107,755, 773, 199, 3, 20, 27, -10, 6, 0, 984, 923, 538,y
2025-03-07 13:27:44.165,596, 425, 373, -33, 30, 26, -11, 6, 0, 979, 903, 227,y
2025-03-07 13:27:44.220,1148, 335, 370, -22, 9, -54, -10, 8, -3, 950, 821, 421,y
2025-03-07 13:27:44.280,517, 565, 818, -23, 8, -30, -9, 7, -4, 945, 857, 452,y
2025-03-07 13:27:44.745,708, 553, 465, 3, -6, 4, -10, 7, -2, 944, 856, 582,z
2025-03-07 13:27:44.801,719, 535, 464, 4, -5, 3, -9, 7, -2, 946, 857, 588,z
2025-03-07 13:27:44.850,705, 533, 465, -2, 1, 0, -10, 8, -2, 948, 864, 593,z
2025-03-07 13:27:44.910,698, 541, 487, 1, -2, 1, -11, 5, -3, 951, 872, 612,z
2025-03-07 13:27:44.962,692, 542, 456, 3, -3, 3, -10, 6, -1, 952, 885, 646,z
2025-03-07 13:27:45.017,714, 543, 484, 1, -1, 0, -9, 8, -1, 954, 890, 659,z
2025-03-07 13:27:45.070,711, 541, 477, -1, -1, -2, -9, 7, 0, 955, 894, 656,z
2025-03-07 13:27:45.126,720, 541, 461, -2, -1, -2, -10, 7, -2, 956, 893, 654,z
2025-03-07 13:27:45.182,709, 535, 462, -4, 2, -2, -10, 7, -1, 952, 893, 651,z
2025-03-07 13:27:45.234,693, 549, 467, -4, 1, -1, -9, 7, -2, 952, 887, 641,z
2025-03-07 13:27:45.290,704, 546, 475, -2, -2, -2, -8, 7, -1, 954, 888, 640,z
2025-03-07 13:27:45.340,667, 553, 499, -6, 0, -6, -9, 6, -1, 953, 883, 535,z
2025-03-07 13:27:45.401,669, 589, 565, -8, -10, -16, -9, 7, 0, 964, 899, 260,z
2025-03-07 13:27:45.455,804, 831, 262, 11, -18, 23, -8, 7, 1, 978, 938, 653,z
2025-03-07 13:27:45.502,654, 605, 478, 28, -1, 10, -11, 7, 1, 979, 935, 695,z
2025-03-07 13:27:45.566,600, 613, 324, -21, 21, -6, -10, 5, 1, 978, 898, 330,z
2025-03-07 13:27:45.618,945, 827, 517, 20, 0, 17, -10, 7, 0, 982, 937, 406,z
2025-03-07 13:27:45.674,750, 612, 433, -5, 7, 22, -10, 7, 1, 983, 946, 465,z
2025-03-07 13:27:45.730,673, 350, 325, -6, 22, -59, -11, 6, 0, 967, 911, 609,z
2025-03-07 13:27:45.784,727, 636, 726, 37, -50, 23, -8, 6, -1, 969, 897, 482,z
2025-03-07 13:27:45.840,735, 631, 155, -6, -7, 34, -9, 6, -1, 984, 945, 634,z
2025-03-07 13:27:45.898,701, 573, 527, -3, 16, 13, -11, 5, 0, 978, 937, 659,z
2025-03-07 13:27:45.954,703, 567, 290, -56, 67, -55, -10, 5, -2, 960, 846, 505,z
2025-03-07 13:27:46.010,548, 513, 708, -20, 22, -16, -8, 7, -3, 938, 715, 366,z
2025-03-07 13:27:46.636,712, 550, 454, -1, -2, 0, -9, 8, -4, 949, 846, 577,0
2025-03-07 13:27:46.684,707, 559, 461, -3, 0, 0, -9, 8, -4, 951, 845, 579,0
2025-03-07 13:27:46.740,692, 563, 501, -3, 0, 1, -9, 6, -3, 952, 853, 578,0
2025-03-07 13:27:46.795,705, 548, 465, -1, 0, 1, -9, 7, -1, 952, 865, 583,0
2025-03-07 13:27:46.840,699, 540, 491, -1, -1, 1, -10, 7, -2, 955, 875, 595,0
2025-03-07 13:27:46.900,700, 534, 492, 0, -2, 2, -11, 6, -2, 957, 882, 601,0
2025-03-07 13:27:46.953,702, 545, 467, -2, 1, -1, -9, 6, -3, 959, 881, 603,0
2025-03-07 13:27:47.012,697, 539, 480, -1, -1, 0, -11, 7, -1, 957, 885, 608,0
2025-03-07 13:27:47.065,701, 546, 472, 5, -10, 3, -10, 6, -3, 960, 883, 603,0
2025-03-07 13:27:47.117,746, 528, 397, 2, -5, 0, -9, 8, -1, 960, 886, 609,0
2025-03-07 13:27:47.175,716, 525, 460, -3, 1, -3, -9, 7, -2, 958, 886, 614,0
2025-03-07 13:27:47.230,709, 555, 448, -7, -1, -8, -10, 8, -1, 957, 887, 627,0
2025-03-07 13:27:47.284,695, 540, 484, -6, -9, -7, -10, 7, -3, 958, 889, 650,0
2025-03-07 13:27:47.340,728, 554, 454, -1, -8, -1, -10, 7, -1, 958, 902, 686,0
2025-03-07 13:27:47.398,646, 544, 495, 0, -19, 3, -9, 7, -2, 959, 911, 708,0
2025-03-07 13:27:47.450,679, 554, 560, -3, -9, -22, -11, 8, -1, 965, 930, 686,0
2025-03-07 13:27:47.510,566, 329, 620, 60, -14, -27, -10, 5, 0, 970, 915, 661,0
2025-03-07 13:27:47.565,751, 834, 159, -39, 44, 70, -10, 6, 1, 983, 921, 487,0
2025-03-07 13:27:47.625,555, 172, 1029, -43, -18, 6, -10, 6, -1, 979, 940, 475,0
2025-03-07 13:27:47.683,782, 592, 477, 34, -28, -20, -9, 7, -1, 960, 900, 696,0
2025-03-07 13:27:47.740,776, 654, 257, -36, 75, -23, -9, 5, -2, 952, 837, 623,0
2025-03-07 13:27:47.790,493, 566, 758, -7, 19, 1, -7, 7, -3, 950, 818, 538,0
2025-03-07 13:27:48.285,732, 568, 407, -4, -2, -1, -9, 6, -3, 956, 882, 642,1
2025-03-07 13:27:48.339,727, 561, 423, -4, 0, -2, -10, 6, -2, 956, 883, 646,1
2025-03-07 13:27:48.390,690, 555, 474, -5, -1, -2, -10, 7, -1, 954, 884, 654,1
2025-03-07 13:27:48.450,713, 553, 445, -3, -2, -1, -10, 6, -4, 957, 892, 647,1
2025-03-07 13:27:48.503,640, 562, 513, -3, -9, 4, -10, 7, -1, 958, 896, 649,1
2025-03-07 13:27:48.564,761, 547, 416, -12, -2, -6, -10, 6, -1, 968, 916, 503,1
2025-03-07 13:27:48.617,665, 591, 333, -5, -9, 16, -10, 5, 0, 975, 941, 685,1
2025-03-07 13:27:48.670,668, 492, 744, 25, -14, -4, -10, 5, -2, 980, 935, 715,1
2025-03-07 13:27:48.732,593, 806, 174, 12, 35, 28, -9, 6, 0, 983, 925, 540,1
2025-03-07 13:27:48.783,719, 514, 473, -12, 21, 5, -10, 5, 1, 972, 901, 574,1
2025-03-07 13:27:48.840,537, 603, 766, 12, -25, 6, -10, 6, -1, 970, 892, 497,1
2025-03-07 13:27:48.890,918, 869, 547, 5, -22, 20, -10, 6, 0, 985, 939, 519,1
2025-03-07 13:27:48.952,709, 580, 388, -21, 10, 30, -11, 7, 0, 984, 949, 498,1
2025-03-07 13:27:49.010,833, 277, 180, -18, 37, -53, -12, 7, -1, 972, 916, 621,1
2025-03-07 13:27:49.067,595, 508, 708, -24, 20, -28, -8, 6, -3, 962, 885, 535,1
2025-03-07 13:27:49.450,710, 561, 416, -1, -2, -1, -10, 7, -1, 960, 908, 716,2
2025-03-07 13:27:49.510,708, 561, 425, -2, -1, 0, -11, 7, -2, 960, 906, 717,2
2025-03-07 13:27:49.567,691, 562, 472, -4, 0, -3, -10, 8, -1, 961, 905, 707,2
2025-03-07 13:27:49.620,603, 548, 480, -2, -5, -4, -9, 7, -2, 960, 904, 693,2
2025-03-07 13:27:49.679,787, 491, 475, -13, -10, -10, -10, 7, -1, 966, 922, 636,2
2025-03-07 13:27:49.735,676, 510, 376, 7, -8, 23, -10, 6, 0, 976, 939, 715,2
2025-03-07 13:27:49.790,675, 544, 344, 34, 16, 12, -10, 5, 0, 980, 920, 652,2
2025-03-07 13:27:49.847,863, 653, 365, 3, 13, -17, -11, 5, 1, 975, 883, 329,2
2025-03-07 13:27:49.900,751, 646, 533, 18, -3, 5, -10, 5, 2, 981, 928, 380,2
2025-03-07 13:27:49.950,729, 439, 256, 4, -2, 26, -10, 4, 1, 987, 948, 426,2
2025-03-07 13:27:50.010,821, 308, 470, -1, 12, -13, -10, 7, 1, 977, 918, 595,2
2025-03-07 13:27:50.068,676, 640, 655, -40, 47, -49, -7, 5, -2, 956, 842, 575,2
2025-03-07 13:27:50.121,580, 607, 593, 5, -18, -8, -7, 5, -2, 948, 833, 578,2
2025-03-07 13:27:50.638,702, 578, 438, -3, -1, 0, -10, 6, -3, 952, 866, 678,3
2025-03-07 13:27:50.690,704, 576, 433, -4, -1, 0, -9, 6, -1, 952, 867, 675,3
2025-03-07 13:27:50.747,683, 566, 463, -2, -1, 0, -9, 8, -1, 952, 873, 679,3
2025-03-07 13:27:50.801,704, 570, 427, -4, -1, -1, -8, 6, -1, 951, 879, 683,3
2025-03-07 13:27:50.853,665, 559, 487, -6, -4, 1, -9, 5, -1, 953, 881, 659,3
2025-03-07 13:27:50.910,775, 602, 382, -14, -6, -11, -10, 6, 0, 963, 897, 549,3
2025-03-07 13:27:50.965,707, 617, 418, 6, -8, 30, -10, 6, 0, 977, 933, 710,3
2025-03-07 13:27:51.017,639, 637, 543, 16, 2, 9, -9, 5, -1, 980, 928, 681,3
2025-03-07 13:27:51.074,730, 499, 339, -5, 3, -12, -10, 5, -1, 979, 910, 472,3
2025-03-07 13:27:51.125,852, 949, 406, -7, 10, 23, -8, 6, 0, 982, 925, 509,3
2025-03-07 13:27:51.181,610, 881, 57, -4, 12, 19, -10, 7, 1, 985, 931, 446,3
2025-03-07 13:27:51.240,657, 538, 355, -22, 35, 4, -10, 7, 1, 976, 893, 373,3
2025-03-07 13:27:51.297,824, 549, 254, -36, 59, -36, -10, 8, -2, 961, 837, 438,3
2025-03-07 13:27:51.350,483, 546, 754, -12, 4, -14, -7, 7, -2, 958, 860, 483,3
2025-03-07 13:27:51.750,707, 590, 424, -4, -3, -1, -10, 8, 0, 959, 883, 651,4
2025-03-07 13:27:51.810,708, 576, 417, -5, -3, -1, -10, 6, -1, 958, 885, 648,4
2025-03-07 13:27:51.865,705, 573, 452, -5, -6, 1, -10, 5, -1, 961, 891, 653,4
2025-03-07 13:27:51.920,749, 468, 438, -4, -11, -5, -9, 7, -2, 963, 905, 662,4
2025-03-07 13:27:51.974,727, 549, 422, -3, -9, -6, -10, 6, 0, 967, 918, 615,4
2025-03-07 13:27:52.032,682, 543, 463, 16, -8, -11, -9, 7, 0, 976, 916, 563,4
2025-03-07 13:27:52.083,539, 750, 222, 10, 24, 11, -9, 8, 0, 978, 887, 273,4
2025-03-07 13:27:52.140,740, 558, 279, -1, 17, 2, -10, 6, 1, 982, 906, 15,4
2025-03-07 13:27:52.198,565, 375, 374, -11, -1, 22, -10, 6, 0, 983, 941, 450,4
2025-03-07 13:27:52.250,763, 462, 461, -2, 6, 2, -11, 4, 1, 971, 918, 654,4
2025-03-07 13:27:52.305,571, 670, 850, -9, -14, -10, -10, 6, -2, 965, 900, 676,4
2025-03-07 13:27:52.365,715, 410, 488, 11, -15, -6, -11, 6, 0, 982, 928, 583,4
2025-03-07 13:27:52.419,535, 305, 538, 0, 30, 28, -12, 6, 0, 986, 927, 310,4
2025-03-07 13:27:52.470,746, 626, 372, -5, 26, 12, -11, 5, 0, 974, 898, 462,4
2025-03-07 13:27:52.520,661, 618, 485, -31, 25, -35, -11, 7, -3, 958, 883, 593,4
2025-03-07 13:27:52.860,715, 560, 425, -4, -1, -2, -9, 6, -3, 958, 885, 619,5
2025-03-07 13:27:52.919,707, 549, 448, -5, 0, -2, -10, 7, -3, 958, 885, 617,5
2025-03-07 13:27:52.975,701, 553, 456, -4, -2, -2, -10, 7, -2, 959, 885, 618,5
2025-03-07 13:27:53.030,690, 556, 466, -6, -3, 0, -10, 7, -1, 958, 879, 577,5
2025-03-07 13:27:53.082,723, 658, 382, -10, -4, -12, -8, 6, 0, 963, 888, 449,5
2025-03-07 13:27:53.140,811, 745, 398, 8, -17, 16, -10, 7, 1, 977, 932, 654,5
2025-03-07 13:27:53.196,544, 381, 385, 1, 4, 5, -11, 6, -1, 977, 940, 683,5
2025-03-07 13:27:53.250,502, 303, 662, 26, -1, -34, -11, 7, -1, 970, 903, 622,5
2025-03-07 13:27:53.305,958, 682, 210, 14, 19, 23, -10, 6, 0, 980, 918, 581,5
2025-03-07 13:27:53.360,512, 221, 606, -3, 21, 19, -11, 6, 1, 984, 935, 448,5
2025-03-07 13:27:53.415,422, 359, 509, 3, 16, -10, -11, 8, -1, 973, 898, 353,5
2025-03-07 13:27:53.474,825, 559, 128, -46, 66, -40, -8, 7, -1, 954, 820, 403,5
2025-03-07 13:27:53.532,474, 589, 756, -12, 8, -12, -8, 7, -3, 953, 852, 517,5
2025-03-07 13:27:53.890,650, 505, 571, 9, -17, 5, -9, 7, -2, 951, 868, 593,6
2025-03-07 13:27:53.940,678, 534, 540, 11, -18, 5, -7, 8, -2, 951, 867, 597,6
2025-03-07 13:27:53.998,739, 568, 404, 2, -5, 1, -10, 7, -2, 954, 873, 630,6
2025-03-07 13:27:54.050,691, 551, 496, -3, -2, -3, -10, 6, -1, 956, 881, 638,6
2025-03-07 13:27:54.110,736, 587, 476, 11, -15, 8, -9, 7, -3, 957, 897, 674,6
2025-03-07 13:27:54.164,609, 520, 466, 4, -12, 3, -11, 6, -1, 961, 913, 685,6
2025-03-07 13:27:54.220,665, 507, 535, -4, -3, -18, -9, 6, -1, 965, 931, 665,6
2025-03-07 13:27:54.274,795, 467, 496, 52, -2, -16, -9, 7, 0, 976, 923, 632,6
2025-03-07 13:27:54.332,725, 580, 227, -2, 28, 48, -9, 6, -1, 984, 927, 397,6
2025-03-07 13:27:54.383,617, 514, 638, -31, 14, 16, -11, 7, -2, 981, 941, 431,6
2025-03-07 13:27:54.447,821, 749, 319, 21, -13, -15, -11, 6, -1, 963, 901, 661,6
2025-03-07 13:27:54.500,575, 620, 521, -56, 75, -21, -8, 6, 0, 958, 868, 490,6
2025-03-07 13:27:54.550,450, 552, 766, -8, -3, 0, -8, 6, -4, 959, 856, 477,6
2025-03-07 13:27:54.877,688, 555, 472, -2, -6, -1, -10, 6, -1, 949, 872, 605,7
2025-03-07 13:27:54.930,697, 551, 467, -3, -5, -1, -9, 7, -2, 949, 869, 609,7
2025-03-07 13:27:54.983,720, 558, 460, -3, -2, -1, -8, 6, -1, 950, 872, 630,7
2025-03-07 13:27:55.040,690, 574, 476, -2, -3, -2, -8, 5, 0, 952, 873, 630,7
2025-03-07 13:27:55.090,682, 554, 458, -4, -11, -1, -8, 5, -1, 948, 876, 634,7
2025-03-07 13:27:55.151,750, 450, 306, -6, -4, -17, -8, 6, -1, 955, 888, 503,7
2025-03-07 13:27:55.200,849, 538, 482, 16, 2, 0, -9, 7, -2, 965, 922, 594,7
2025-03-07 13:27:55.250,660, 482, 494, 12, -4, 15, -8, 7, 1, 975, 929, 708,7
2025-03-07 13:27:55.315,593, 773, 411, 39, 16, 17, -10, 6, 1, 982, 918, 607,7
2025-03-07 13:27:55.365,683, 881, 313, -15, 35, 23, -11, 7, 1, 982, 907, 424,7
2025-03-07 13:27:55.425,757, 169, 643, -26, -13, -61, -10, 6, -2, 967, 871, 569,7
2025-03-07 13:27:55.481,700, 905, 509, 19, -15, -7, -8, 6, -1, 975, 922, 627,7
2025-03-07 13:27:55.532,773, 581, 374, 0, 8, 36, -12, 6, 2, 983, 938, 622,7
2025-03-07 13:27:55.590,831, 200, 356, -3, 20, -29, -12, 5, 0, 969, 906, 663,7
2025-03-07 13:27:55.650,645, 618, 647, -27, 22, -28, -9, 7, -3, 956, 856, 615,7
2025-03-07 13:27:56.033,699, 547, 481, -3, 1, 1, -10, 5, 0, 958, 865, 648,8
2025-03-07 13:27:56.081,696, 549, 479, -1, 0, 1, -10, 6, 0, 957, 867, 649,8
2025-03-07 13:27:56.146,718, 557, 437, -1, -1, 1, -10, 7, -1, 958, 867, 652,8
2025-03-07 13:27:56.198,695, 544, 467, -1, -1, 1, -10, 7, -1, 961, 868, 662,8
2025-03-07 13:27:56.250,724, 549, 424, -2, -2, 0, -11, 7, -2, 960, 871, 662,8
2025-03-07 13:27:56.310,703, 546, 465, 2, -4, 4, -11, 7, -1, 960, 874, 659,8
2025-03-07 13:27:56.363,702, 540, 432, -3, -5, 1, -11, 7, 0, 962, 881, 678,8
2025-03-07 13:27:56.420,684, 559, 505, -8, -1, -11, -10, 7, 0, 965, 906, 641,8
2025-03-07 13:27:56.470,686, 555, 361, 11, 0, -9, -10, 7, 0, 975, 906, 486,8
2025-03-07 13:27:56.531,1064, 806, 541, -14, 21, 41, -11, 6, -1, 981, 923, 310,8
2025-03-07 13:27:56.583,641, 605, 507, -18, 16, 16, -11, 7, 0, 977, 938, 393,8
2025-03-07 13:27:56.646,868, 508, 348, -5, -28, -44, -9, 5, -1, 968, 935, 696,8
2025-03-07 13:27:56.698,625, 678, 659, 0, -13, 2, -10, 6, -1, 979, 942, 709,8
2025-03-07 13:27:56.750,801, 764, 205, -9, 31, 28, -10, 7, 0, 983, 940, 517,8
2025-03-07 13:27:56.810,958, 243, 353, -9, 23, -20, -10, 7, -1, 966, 909, 620,8
2025-03-07 13:27:56.870,579, 547, 710, -20, 21, -20, -10, 6, -3, 966, 901, 597,8
2025-03-07 13:27:57.150,716, 558, 455, 2, -5, 1, -10, 7, -1, 965, 917, 741,9
2025-03-07 13:27:57.203,715, 558, 437, 2, -5, 1, -10, 6, -1, 965, 919, 740,9
2025-03-07 13:27:57.260,721, 539, 434, -1, 1, -2, -10, 6, 2, 965, 918, 736,9
2025-03-07 13:27:57.313,716, 542, 439, 0, -3, -1, -9, 6, -1, 965, 918, 739,9
2025-03-07 13:27:57.370,664, 534, 441, 0, -2, 2, -11, 6, -1, 966, 918, 737,9
2025-03-07 13:27:57.424,733, 543, 436, -1, -2, 1, -11, 6, 0, 965, 917, 738,9
2025-03-07 13:27:57.471,724, 560, 418, -2, -1, 2, -10, 6, -1, 965, 915, 740,9
2025-03-07 13:27:57.531,701, 533, 419, -10, 1, -6, -11, 7, -1, 967, 922, 717,9
2025-03-07 13:27:57.590,610, 484, 512, -4, -14, -17, -12, 5, 0, 972, 933, 651,9
2025-03-07 13:27:57.645,792, 525, 288, 30, 4, -9, -8, 5, 0, 979, 925, 602,9
2025-03-07 13:27:57.698,730, 432, 462, -5, 22, 29, -10, 7, 1, 982, 934, 513,9
2025-03-07 13:27:57.750,652, 436, 559, -4, -5, -2, -11, 7, 1, 977, 936, 673,9
2025-03-07 13:27:57.813,716, 399, 596, 16, -12, -13, -9, 7, -1, 976, 932, 733,9
2025-03-07 13:27:57.865,867, 535, 496, -9, 26, 28, -11, 6, -1, 983, 926, 483,9
2025-03-07 13:27:57.923,751, 425, 471, -26, 22, 4, -10, 7, -2, 970, 888, 411,9
2025-03-07 13:27:57.981,719, 553, 369, -42, 53, -55, -9, 6, -2, 939, 830, 475,9
2025-03-07 13:27:58.031,461, 603, 770, -1, -6, -12, -8, 7, -4, 937, 844, 556,9
2025-03-07 13:27:58.395,696, 589, 427, -3, -1, -2, -8, 7, -1, 888, 707, 346,+
2025-03-07 13:27:58.448,693, 584, 449, -4, 0, -2, -8, 7, 0, 885, 710, 342,+
2025-03-07 13:27:58.500,682, 562, 490, -5, 1, -2, -8, 6, 0, 887, 702, 310,+
2025-03-07 13:27:58.555,672, 573, 480, -2, -3, 0, -7, 5, -2, 902, 723, 366,+
2025-03-07 13:27:58.612,678, 562, 475, -5, -3, -1, -8, 8, -3, 914, 745, 405,+
2025-03-07 13:27:58.665,624, 575, 551, 11, -18, 8, -8, 6, -2, 930, 802, 447,+
2025-03-07 13:27:58.720,707, 591, 386, 2, -6, -9, -7, 6, -1, 959, 864, 370,+
2025-03-07 13:27:58.770,600, 679, 433, 6, 6, 12, -9, 7, 0, 973, 880, 98,+
2025-03-07 13:27:58.824,684, 662, 269, -2, 15, 20, -10, 6, 0, 974, 796, 14,+
2025-03-07 13:27:58.882,715, 414, 600, -13, 3, 11, -9, 6, -2, 954, 720, 243,+
2025-03-07 13:27:58.934,587, 596, 680, 2, 10, -7, -7, 7, -1, 950, 799, 434,+
2025-03-07 13:27:58.990,646, 600, 445, 10, -16, 10, -9, 7, -3, 957, 850, 498,+
2025-03-07 13:27:59.041,745, 553, 428, -2, 2, -2, -9, 7, -1, 956, 856, 508,+
2025-03-07 13:27:59.099,669, 560, 500, -6, 0, -6, -8, 7, -1, 955, 853, 504,+
2025-03-07 13:27:59.150,711, 555, 445, -5, -2, -1, -10, 8, -2, 955, 841, 491,+
2025-03-07 13:27:59.210,691, 565, 485, -5, 1, -2, -10, 7, -1, 958, 842, 490,+
2025-03-07 13:27:59.267,699, 554, 469, -1, -2, -1, -8, 6, -1, 958, 846, 504,+
2025-03-07 13:27:59.321,680, 553, 493, -4, 0, -3, -9, 7, -2, 959, 850, 518,+
2025-03-07 13:27:59.373,713, 555, 456, -2, -3, -2, -10, 7, -2, 959, 852, 517,+
2025-03-07 13:27:59.430,678, 551, 491, -4, -1, -1, -10, 8, -2, 961, 858, 524,+
2025-03-07 13:27:59.481,694, 557, 472, -6, -3, -2, -9, 5, -2, 962, 866, 533,+
2025-03-07 13:27:59.540,692, 554, 464, -8, -1, -2, -9, 7, -2, 963, 878, 528,+
2025-03-07 13:27:59.595,690, 562, 485, -7, -3, 0, -9, 7, -3, 965, 884, 531,+
2025-03-07 13:27:59.648,687, 545, 490, -5, 0, -1, -7, 7, -2, 963, 888, 526,+
2025-03-07 13:27:59.700,691, 541, 480, 0, 2, -2, -9, 7, -2, 965, 888, 516,+
2025-03-07 13:27:59.750,712, 561, 471, -3, 4, -8, -8, 7, -3, 961, 873, 403,+
2025-03-07 13:27:59.812,699, 564, 456, -2, -1, -2, -8, 8, -2, 957, 873, 409,+
2025-03-07 13:27:59.864,693, 565, 498, 5, -2, 0, -9, 6, -2, 958, 874, 448,+
2025-03-07 13:27:59.917,739, 551, 420, -2, -1, -5, -9, 6, -1, 955, 874, 437,+
2025-03-07 13:27:59.970,727, 575, 474, 3, -6, 5, -8, 6, -1, 958, 892, 517,+
2025-03-07 13:28:00.023,639, 572, 488, 5, -6, 7, -9, 7, -1, 961, 903, 617,+
2025-03-07 13:28:00.078,716, 568, 452, 0, -2, -3, -9, 6, -1, 961, 902, 619,+
2025-03-07 13:28:00.131,694, 559, 452, -11, 2, -7, -9, 7, -1, 959, 906, 625,+
2025-03-07 13:28:00.190,671, 582, 500, -5, -10, -2, -10, 7, -1, 961, 906, 632,+
2025-03-07 13:28:00.250,767, 555, 397, -12, -5, -3, -9, 6, -2, 960, 911, 660,+
2025-03-07 13:28:00.300,683, 440, 620, 1, -5, -6, -11, 8, -3, 968, 929, 659,+
2025-03-07 13:28:00.360,687, 871, 208, 30, 13, 15, -10, 6, -2, 983, 931, 535,+
2025-03-07 13:28:00.413,719, 629, 162, 0, 19, 22, -10, 7, -1, 981, 913, 330,+
2025-03-07 13:28:00.470,682, 171, 701, -3, -17, -47, -10, 7, -2, 967, 891, 541,+
2025-03-07 13:28:00.522,604, 660, 509, 5, -10, -16, -8, 7, 0, 972, 909, 394,+
2025-03-07 13:28:00.580,803, 467, 193, -21, -10, 42, -10, 6, 0, 985, 952, 565,+
2025-03-07 13:28:00.633,640, 454, 568, 10, 13, 18, -11, 8, -1, 977, 936, 664,+
2025-03-07 13:28:00.700,631, 623, 416, -93, 104, -65, -7, 6, -4, 954, 863, 470,+
2025-03-07 13:28:00.750,440, 608, 936, -10, 10, -20, -5, 8, -7, 935, 801, 291,+
2025-03-07 13:28:00.811,595, 541, 616, 22, -26, 12, -4, 7, -5, 920, 783, 363,+
2025-03-07 13:28:01.404,717, 606, 451, 19, -15, -23, -7, 5, 0, 912, 736, 500,-
2025-03-07 13:28:01.463,710, 593, 431, 19, -15, -26, -7, 5, -2, 912, 738, 503,-
2025-03-07 13:28:01.520,655, 562, 374, 4, -17, -28, -6, 4, -1, 925, 716, 479,-
2025-03-07 13:28:01.573,526, 644, 396, -1, 0, -7, -7, 3, 0, 941, 741, 469,-
2025-03-07 13:28:01.631,633, 674, 465, 14, -14, 24, -7, 6, 1, 954, 817, 487,-
2025-03-07 13:28:01.684,664, 635, 442, 22, -13, 44, -9, 6, 0, 959, 880, 591,-
2025-03-07 13:28:01.731,748, 597, 309, 13, -3, 29, -9, 4, 1, 963, 895, 631,-
2025-03-07 13:28:01.790,729, 561, 364, -2, 3, 7, -11, 5, 2, 964, 899, 644,-
2025-03-07 13:28:01.840,712, 570, 400, -2, 2, -3, -9, 4, 2, 965, 907, 660,-
2025-03-07 13:28:01.896,718, 618, 365, -5, 2, -1, -9, 4, 3, 965, 908, 674,-
2025-03-07 13:28:01.947,682, 605, 380, -5, 5, -5, -8, 4, 3, 963, 899, 664,-
2025-03-07 13:28:02.000,709, 604, 307, -25, 8, -8, -10, 5, 0, 966, 893, 608,-
2025-03-07 13:28:02.060,772, 618, 524, -15, -5, -1, -9, 5, 1, 974, 912, 413,-
2025-03-07 13:28:02.114,572, 758, 203, -20, -15, 49, -8, 6, 3, 985, 947, 545,-
2025-03-07 13:28:02.164,678, 505, 453, -4, 3, 9, -11, 5, 2, 984, 947, 608,-
2025-03-07 13:28:02.220,736, 644, 314, 3, 14, 4, -11, 6, 0, 970, 897, 660,-
2025-03-07 13:28:02.275,708, 645, 457, -29, 39, -29, -10, 6, 0, 955, 849, 603,-
2025-03-07 13:28:03.017,725, 576, 422, -2, 0, 0, -9, 6, 0, 954, 868, 682,÷
2025-03-07 13:28:03.072,708, 552, 418, -1, 0, 0, -10, 7, 0, 955, 868, 683,÷
2025-03-07 13:28:03.122,714, 549, 430, -2, 0, 0, -10, 6, 1, 959, 871, 688,÷
2025-03-07 13:28:03.178,711, 556, 414, -3, 1, -1, -9, 6, 0, 956, 872, 687,÷
2025-03-07 13:28:03.230,715, 567, 420, -1, -1, 1, -9, 8, 1, 960, 873, 692,÷
2025-03-07 13:28:03.280,729, 564, 417, -2, 0, 0, -11, 6, 0, 956, 875, 694,÷
2025-03-07 13:28:03.330,723, 557, 427, -1, 0, 0, -11, 7, 1, 959, 879, 703,÷
2025-03-07 13:28:03.390,722, 568, 419, -2, 0, 1, -10, 4, 0, 958, 881, 709,÷
2025-03-07 13:28:03.445,716, 556, 444, -1, -1, 0, -9, 7, 0, 958, 884, 709,÷
2025-03-07 13:28:03.497,729, 562, 404, -2, 0, 0, -10, 7, 0, 959, 885, 713,÷
2025-03-07 13:28:03.550,722, 554, 442, -1, 0, 0, -10, 6, -2, 960, 887, 714,÷
2025-03-07 13:28:03.600,724, 573, 415, -2, -1, -1, -10, 6, 0, 961, 888, 710,÷
2025-03-07 13:28:03.661,711, 558, 447, -3, -1, 0, -11, 7, -1, 960, 890, 705,÷
2025-03-07 13:28:03.714,731, 565, 408, -2, 0, -1, -11, 5, -1, 962, 891, 703,÷
2025-03-07 13:28:03.770,708, 565, 450, -3, 0, 1, -10, 6, -1, 960, 892, 698,÷
2025-03-07 13:28:03.823,724, 566, 419, -1, -1, -1, -10, 6, -1, 963, 892, 695,÷
2025-03-07 13:28:03.878,708, 554, 435, -2, 1, -2, -9, 7, 0, 962, 894, 694,÷
2025-03-07 13:28:03.930,732, 552, 403, -3, -1, -1, -11, 7, 0, 962, 896, 698,÷
2025-03-07 13:28:03.981,678, 561, 451, -5, -4, -1, -10, 5, 1, 964, 901, 692,÷
2025-03-07 13:28:04.046,735, 528, 420, -2, 0, -3, -10, 5, -1, 965, 906, 699,÷
2025-03-07 13:28:04.100,723, 537, 423, -2, 2, -1, -10, 7, 0, 963, 906, 704,÷
2025-03-07 13:28:04.150,718, 570, 440, -2, 1, -1, -11, 5, -1, 963, 903, 702,÷
2025-03-07 13:28:04.200,712, 558, 439, 0, 3, -2, -9, 7, 0, 964, 904, 699,÷
2025-03-07 13:28:04.260,722, 540, 431, -2, 1, 0, -11, 8, -1, 965, 903, 705,÷
2025-03-07 13:28:04.312,704, 572, 438, 3, 1, 0, -11, 5, 0, 966, 899, 695,÷
2025-03-07 13:28:04.363,710, 555, 414, -6, 1, -3, -9, 5, -1, 965, 899, 663,÷
2025-03-07 13:28:04.420,629, 519, 475, 0, -16, 11, -11, 5, 1, 971, 910, 657,÷
2025-03-07 13:28:04.477,762, 661, 311, -9, -12, 10, -11, 7, 0, 978, 935, 623,÷
2025-03-07 13:28:04.530,689, 522, 485, -13, 0, 4, -11, 8, -1, 979, 942, 605,÷
2025-03-07 13:28:04.580,793, 541, 438, 6, -16, -12, -11, 8, 1, 978, 937, 618,÷
2025-03-07 13:28:04.645,778, 891, 139, -19, 41, 47, -11, 6, -2, 983, 933, 655,÷
2025-03-07 13:28:04.700,537, 561, 577, -1, 50, 9, -11, 7, -2, 977, 921, 632,÷
2025-03-07 13:28:04.760,773, 366, 503, -32, -13, -21, -11, 7, -1, 977, 926, 540,÷
2025-03-07 13:28:04.813,787, 465, 589, -9, 0, -8, -12, 5, 0, 977, 933, 549,÷
2025-03-07 13:28:04.870,751, 748, 204, -7, 5, 19, -10, 7, 0, 983, 937, 551,÷
2025-03-07 13:28:04.920,710, 416, 607, -20, 10, 4, -12, 6, -2, 978, 931, 562,÷
2025-03-07 13:28:04.981,593, 529, 573, -17, -11, -28, -9, 8, -1, 976, 919, 574,÷
2025-03-07 13:28:05.032,755, 447, 370, -1, -17, -9, -10, 7, -1, 983, 939, 442,÷
2025-03-07 13:28:05.095,517, 429, 147, -5, -8, 26, -11, 7, -1, 988, 955, 487,÷
2025-03-07 13:28:05.150,757, 483, 395, 13, 13, 5, -12, 6, -1, 980, 941, 611,÷
2025-03-07 13:28:05.210,879, 477, 177, -51, 85, -59, -11, 5, -1, 959, 856, 542,÷
2025-03-07 13:28:05.267,560, 351, 721, -55, 49, -49, -7, 8, -5, 937, 718, 214,÷
2025-03-07 13:28:06.782,735, 556, 419, 5, -4, 7, -11, 6, -2, 966, 909, 669,=
2025-03-07 13:28:06.840,724, 541, 430, 5, -3, 7, -10, 7, -1, 965, 908, 671,=
2025-03-07 13:28:06.896,722, 557, 417, 0, 0, 3, -10, 7, -1, 965, 908, 675,=
2025-03-07 13:28:06.951,737, 551, 449, 0, -1, 1, -10, 6, -2, 966, 909, 664,=
2025-03-07 13:28:07.000,722, 534, 434, -1, 2, -1, -11, 6, 0, 965, 908, 649,=
2025-03-07 13:28:07.050,729, 573, 436, -7, -1, -3, -10, 5, -1, 967, 906, 589,=
2025-03-07 13:28:07.114,717, 497, 480, -7, -8, -11, -10, 6, -1, 973, 912, 374,=
2025-03-07 13:28:07.170,708, 601, 398, 8, -20, 37, -11, 6, 0, 982, 941, 538,=
2025-03-07 13:28:07.223,672, 375, 431, 11, 6, 17, -11, 6, -2, 979, 942, 530,=
2025-03-07 13:28:07.280,695, 376, 287, -12, 63, -35, -12, 6, -1, 971, 898, 424,=
2025-03-07 13:28:07.344,1597, -935, 397, 36, -19, -22, -10, 6, -2, 974, 904, 383,=
2025-03-07 13:28:07.396,662, 468, 223, -9, 0, 33, -12, 6, 0, 985, 943, 141,=
2025-03-07 13:28:07.450,757, 450, 474, -1, 23, 16, -12, 5, 1, 972, 920, 289,=
2025-03-07 13:28:07.512,736, 505, 290, -52, 81, -48, -11, 5, -4, 953, 803, 215,=
2025-03-07 13:28:07.564,566, 457, 769, -27, 25, -39, -8, 5, -6, 933, 638, 13,=
2025-03-07 13:28:08.130,734, 554, 445, -9, 12, -10, -9, 7, -1, 916, 768, 487,≠
2025-03-07 13:28:08.180,689, 575, 484, -8, 11, -10, -9, 8, -2, 916, 771, 488,≠
2025-03-07 13:28:08.240,691, 598, 412, 1, -5, -1, -10, 5, 0, 920, 786, 504,≠
2025-03-07 13:28:08.294,703, 567, 430, -9, 3, -6, -9, 5, -2, 920, 779, 413,≠
2025-03-07 13:28:08.347,695, 583, 438, -1, 0, 1, -6, 5, -3, 921, 779, 416,≠
2025-03-07 13:28:08.400,708, 578, 418, -3, 1, -3, -8, 6, -2, 923, 790, 422,≠
2025-03-07 13:28:08.454,665, 574, 458, -9, -5, -2, -9, 6, -3, 928, 800, 331,≠
2025-03-07 13:28:08.515,869, 546, 691, 44, -18, -3, -7, 5, -3, 968, 910, 370,≠
2025-03-07 13:28:08.564,717, 580, 437, 1, 2, 15, -9, 6, 0, 976, 928, 610,≠
2025-03-07 13:28:08.620,604, 607, 375, 9, 22, 14, -9, 4, -2, 960, 867, 587,≠
2025-03-07 13:28:08.675,497, 737, 679, -33, 10, -3, -9, 5, -1, 941, 635, 110,≠
2025-03-07 13:28:08.731,826, 843, 528, 29, -16, 1, -9, 6, -2, 974, 905, 255,≠
2025-03-07 13:28:08.781,739, 637, 287, -10, 8, 38, -10, 7, -1, 976, 930, 444,≠
2025-03-07 13:28:08.845,809, 158, 333, -27, 25, -49, -10, 7, -2, 959, 888, 574,≠
2025-03-07 13:28:08.900,708, 711, 744, 4, -32, 2, -9, 7, -4, 955, 874, 641,≠
2025-03-07 13:28:08.950,756, 725, 351, -14, -18, -4, -8, 6, -2, 974, 921, 645,≠
2025-03-07 13:28:09.011,1095, 828, 31, 18, 37, 28, -9, 6, -2, 985, 901, 301,≠
2025-03-07 13:28:09.065,813, 500, 215, -28, 43, 17, -9, 7, 0, 973, 790, 17,≠
2025-03-07 13:28:09.120,901, 340, 331, -32, 26, -50, -9, 7, -2, 938, 762, 420,≠
2025-03-07 13:28:09.179,541, 531, 772, -27, 29, -29, -7, 7, -6, 936, 786, 431,≠
2025-03-07 13:28:09.232,559, 534, 645, 9, -16, 9, -6, 8, -9, 935, 781, 438,≠
2025-03-07 13:28:09.836,690, 555, 495, -2, -2, -2, -9, 7, -4, 948, 806, 12,≈
2025-03-07 13:28:09.880,697, 542, 503, 3, -2, -1, -8, 7, -4, 948, 804, 12,≈
2025-03-07 13:28:09.940,702, 541, 479, 5, -2, 1, -9, 7, -4, 950, 819, 112,≈
2025-03-07 13:28:09.993,693, 557, 473, 3, -3, -1, -7, 8, -4, 950, 831, 136,≈
2025-03-07 13:28:10.046,726, 562, 473, -1, -2, 1, -10, 6, -1, 952, 835, 157,≈
2025-03-07 13:28:10.100,673, 547, 499, -1, -2, 2, -8, 8, -3, 954, 842, 178,≈
2025-03-07 13:28:10.150,726, 559, 454, 5, -2, -5, -9, 6, -4, 957, 848, 203,≈
2025-03-07 13:28:10.211,700, 541, 487, -3, 2, -1, -9, 6, -3, 960, 851, 207,≈
2025-03-07 13:28:10.263,709, 578, 437, -5, 0, -4, -7, 7, -3, 962, 870, 11,≈
2025-03-07 13:28:10.314,731, 525, 545, 18, -20, -7, -7, 8, -4, 965, 910, 302,≈
2025-03-07 13:28:10.375,668, 541, 452, 14, -12, 9, -10, 7, -3, 976, 931, 494,≈
2025-03-07 13:28:10.430,638, 557, 386, -2, 3, 26, -10, 5, -2, 983, 938, 388,≈
2025-03-07 13:28:10.480,709, 600, 429, -6, 5, 9, -11, 7, -4, 984, 939, 324,≈
2025-03-07 13:28:10.534,696, 490, 420, -7, -5, 4, -11, 5, -3, 978, 940, 398,≈
2025-03-07 13:28:10.596,780, 491, 352, -6, 13, -5, -10, 7, -4, 973, 922, 510,≈
2025-03-07 13:28:10.650,564, 545, 623, -7, 27, -7, -10, 6, -4, 967, 876, 203,≈
2025-03-07 13:28:10.701,727, 551, 487, 4, 0, 1, -7, 7, -4, 960, 736, 21,≈
2025-03-07 13:28:10.750,838, 512, 536, 14, 0, 3, -10, 7, -3, 972, 904, 230,≈
2025-03-07 13:28:10.809,648, 395, 519, 2, -8, 6, -8, 7, -3, 980, 937, 366,≈
2025-03-07 13:28:10.866,765, 654, 458, -11, -3, 15, -10, 7, -3, 985, 940, 204,≈
2025-03-07 13:28:10.923,752, 435, 500, -12, 9, 21, -10, 7, -4, 984, 937, 12,≈
2025-03-07 13:28:10.976,772, 398, 526, -8, -8, 8, -11, 7, -4, 984, 947, 68,≈
2025-03-07 13:28:11.030,1002, 422, 73, -21, 52, -17, -11, 8, -2, 980, 935, 195,≈
2025-03-07 13:28:11.092,546, 426, 759, -37, 43, -27, -8, 7, -9, 972, 891, 19,≈
2025-03-07 13:28:11.390,687, 523, 513, 0, -12, -2, -9, 7, -4, 960, 901, 554,<
2025-03-07 13:28:11.443,676, 515, 533, 3, -13, -2, -8, 8, -5, 962, 903, 573,<
2025-03-07 13:28:11.500,732, 536, 439, 3, -10, -1, -10, 6, -3, 964, 908, 595,<
2025-03-07 13:28:11.550,696, 526, 508, -3, 0, -2, -8, 7, -4, 964, 913, 622,<
2025-03-07 13:28:11.611,727, 517, 488, 3, -5, -1, -9, 6, -5, 966, 915, 633,<
2025-03-07 13:28:11.670,720, 531, 500, -2, -5, -1, -7, 5, -4, 967, 920, 660,<
2025-03-07 13:28:11.721,687, 541, 512, 1, -5, 4, -8, 7, -4, 971, 924, 683,<
2025-03-07 13:28:11.780,752, 775, 564, 0, -10, -11, -10, 6, -5, 975, 931, 600,<
2025-03-07 13:28:11.830,842, 563, 517, 16, 0, -6, -9, 5, -3, 981, 931, 405,<
2025-03-07 13:28:11.880,847, 343, 375, 6, 1, 0, -9, 7, -1, 982, 901, 9,<
2025-03-07 13:28:11.930,408, 893, 535, -25, 13, 31, -9, 8, -5, 987, 930, 5,<
2025-03-07 13:28:11.992,654, 258, 488, -14, 9, 22, -10, 6, -2, 988, 945, 13,<
2025-03-07 13:28:12.045,720, 535, 460, 13, 12, 6, -10, 9, -4, 973, 911, 155,<
2025-03-07 13:28:12.100,751, 668, 571, -19, 30, -27, -10, 5, -5, 960, 863, 212,<
2025-03-07 13:28:12.632,726, 544, 471, -1, -8, 1, -10, 7, -5, 967, 919, 636,≤
2025-03-07 13:28:12.684,727, 528, 459, -3, -7, 1, -10, 7, -4, 967, 917, 647,≤
2025-03-07 13:28:12.740,716, 533, 472, -3, -4, 2, -9, 6, -3, 970, 921, 637,≤
2025-03-07 13:28:12.796,725, 534, 440, -11, -2, -3, -12, 6, -4, 971, 928, 606,≤
2025-03-07 13:28:12.853,727, 514, 483, -4, -6, -4, -10, 7, -4, 977, 941, 537,≤
2025-03-07 13:28:12.903,653, 446, 539, 9, -8, -8, -12, 8, -6, 982, 941, 461,≤
2025-03-07 13:28:12.960,671, 657, 303, 5, 16, 7, -10, 7, -3, 983, 921, 18,≤
2025-03-07 13:28:13.013,897, 372, 578, 14, 4, 8, -9, 6, -5, 988, 929, 11,≤
2025-03-07 13:28:13.066,734, 323, 358, 0, 6, 9, -11, 9, -4, 987, 944, 15,≤
2025-03-07 13:28:13.119,724, 502, 542, 25, 3, 2, -10, 6, -4, 976, 913, 347,≤
2025-03-07 13:28:13.176,701, 454, 645, -29, 51, -9, -10, 7, -4, 964, 780, 11,≤
2025-03-07 13:28:13.227,806, 60, 232, 20, -5, -17, -10, 8, -5, 973, 861, 7,≤
2025-03-07 13:28:13.280,723, 655, 546, -2, -28, 23, -9, 8, -2, 986, 943, 14,≤
2025-03-07 13:28:13.340,790, 595, 436, 2, 7, 18, -12, 6, -5, 984, 941, 198,≤
2025-03-07 13:28:13.395,960, 333, 196, -20, 51, -36, -11, 6, -2, 966, 884, 206,≤
2025-03-07 13:28:13.455,572, 432, 801, -30, 23, -27, -9, 7, -7, 954, 791, 125,≤
2025-03-07 13:28:13.500,649, 492, 601, 11, -25, -2, -6, 6, -7, 951, 818, 206,≤
2025-03-07 13:28:14.095,706, 536, 476, -3, -1, -5, -8, 7, -4, 960, 875, 365,>
2025-03-07 13:28:14.150,714, 532, 476, -3, -1, -5, -9, 8, -3, 960, 874, 350,>
2025-03-07 13:28:14.209,712, 534, 489, -2, -2, -8, -10, 7, -6, 961, 876, 343,>
2025-03-07 13:28:14.261,706, 510, 489, 2, -3, -7, -9, 7, -5, 961, 874, 353,>
2025-03-07 13:28:14.312,675, 543, 481, -1, -1, -7, -9, 9, -4, 958, 869, 362,>
2025-03-07 13:28:14.371,745, 704, 493, 1, -8, -13, -9, 6, -6, 969, 898, 201,>
2025-03-07 13:28:14.426,499, 598, 281, 7, -2, 30, -9, 6, -3, 982, 937, 596,>
2025-03-07 13:28:14.480,635, 458, 661, 7, -3, 1, -11, 7, -3, 983, 942, 631,>
2025-03-07 13:28:14.530,929, 602, 426, 14, 19, 5, -9, 7, -2, 986, 928, 385,>
2025-03-07 13:28:14.590,840, 570, 407, -15, 21, 6, -9, 7, -2, 980, 897, 75,>
2025-03-07 13:28:14.643,777, 376, 587, -7, 6, 6, -11, 8, -4, 967, 873, 437,>
2025-03-07 13:28:14.696,654, 561, 636, -9, 4, -7, -8, 6, -5, 963, 879, 452,>
2025-03-07 13:28:14.750,670, 504, 487, 5, -12, 6, -8, 7, -4, 963, 879, 458,>
2025-03-07 13:28:14.800,762, 523, 395, -1, -5, -2, -10, 7, -5, 963, 871, 453,>
2025-03-07 13:28:16.100,731, 513, 458, -1, -1, -1, -11, 7, -4, 968, 917, 491,≥
2025-03-07 13:28:16.150,728, 520, 462, -1, -1, -1, -10, 7, -3, 970, 914, 496,≥
2025-03-07 13:28:16.211,734, 513, 453, -1, -4, -1, -10, 8, -2, 969, 914, 491,≥
2025-03-07 13:28:16.261,711, 521, 462, -6, -3, -2, -10, 7, -3, 969, 921, 480,≥
2025-03-07 13:28:16.327,681, 622, 545, -11, -9, -14, -11, 5, -4, 972, 930, 399,≥
2025-03-07 13:28:16.380,889, 587, 536, 17, -12, 0, -11, 7, -2, 977, 940, 473,≥
2025-03-07 13:28:16.430,676, 509, 507, 5, -6, 17, -14, 7, -2, 980, 945, 470,≥
2025-03-07 13:28:16.493,524, 503, 273, 21, 16, 6, -11, 7, -4, 986, 943, 230,≥
2025-03-07 13:28:16.546,774, 461, 297, -4, 16, 8, -12, 8, -3, 983, 936, 135,≥
2025-03-07 13:28:16.600,779, 531, 526, 1, 28, 19, -11, 6, -3, 976, 908, 353,≥
2025-03-07 13:28:16.659,534, 555, 714, 4, 23, 0, -11, 7, -4, 973, 889, 108,≥
2025-03-07 13:28:16.711,742, 753, 338, 15, -9, -18, -11, 6, -3, 976, 902, 15,≥
2025-03-07 13:28:16.761,947, 803, 585, -3, -20, 42, -10, 6, -3, 985, 946, 12,≥
2025-03-07 13:28:16.820,750, 546, 526, -3, -4, 21, -13, 7, -4, 984, 949, 14,≥
2025-03-07 13:28:16.876,788, 269, 488, 24, 7, -15, -12, 7, -4, 970, 897, 168,≥
2025-03-07 13:28:16.933,674, 622, 617, -37, 63, -33, -10, 7, -4, 949, 803, 117,≥
2025-03-07 13:28:16.995,596, 552, 528, 2, -14, -2, -8, 5, -7, 939, 723, 98,≥
2025-03-07 13:28:17.390,692, 526, 524, 1, -2, -3, -9, 6, -6, 925, 777, 466,±
2025-03-07 13:28:17.442,688, 538, 519, 2, -3, -3, -7, 8, -6, 925, 779, 480,±
2025-03-07 13:28:17.494,694, 521, 509, 1, -5, -2, -9, 6, -5, 925, 788, 492,±
2025-03-07 13:28:17.550,674, 533, 497, -3, -4, -4, -7, 6, -6, 929, 805, 504,±
2025-03-07 13:28:17.600,662, 547, 512, 1, -7, 0, -8, 5, -6, 931, 820, 510,±
2025-03-07 13:28:17.650,700, 543, 492, 3, -7, 1, -7, 6, -6, 936, 836, 511,±
2025-03-07 13:28:17.710,714, 541, 458, 0, -2, 0, -8, 7, -5, 941, 850, 542,±
2025-03-07 13:28:17.764,697, 544, 493, -3, -2, 0, -7, 6, -6, 946, 862, 523,±
2025-03-07 13:28:17.820,693, 536, 483, -6, -1, -1, -9, 7, -5, 952, 873, 536,±
2025-03-07 13:28:17.875,699, 538, 477, -4, -2, -1, -8, 7, -5, 953, 884, 549,±
2025-03-07 13:28:17.930,700, 542, 475, -6, -1, -1, -8, 7, -6, 957, 888, 548,±
2025-03-07 13:28:17.985,699, 529, 500, -6, 0, 1, -8, 7, -6, 957, 891, 535,±
2025-03-07 13:28:18.034,781, 581, 516, 7, -6, 13, -10, 7, -4, 958, 900, 550,±
2025-03-07 13:28:18.091,680, 496, 433, 4, -1, 7, -10, 5, -4, 960, 910, 593,±
2025-03-07 13:28:18.143,706, 530, 491, -3, 4, -3, -10, 6, -4, 961, 908, 600,±
2025-03-07 13:28:18.200,695, 546, 483, -9, 7, -10, -10, 4, -3, 958, 898, 478,±
2025-03-07 13:28:18.258,716, 538, 513, -7, -1, -6, -8, 6, -5, 959, 878, 439,±
2025-03-07 13:28:18.310,685, 546, 535, 2, -4, 1, -8, 7, -5, 957, 865, 315,±
2025-03-07 13:28:18.365,580, 524, 574, 13, -19, 6, -9, 7, -3, 957, 859, 287,±
2025-03-07 13:28:18.423,915, 594, 489, 46, -21, -6, -8, 7, -3, 975, 919, 264,±
2025-03-07 13:28:18.480,661, 526, 488, -8, 0, 24, -10, 6, -3, 984, 941, 457,±
2025-03-07 13:28:18.534,675, 217, 571, -2, -16, -40, -10, 7, -3, 972, 920, 611,±
2025-03-07 13:28:18.591,729, 626, 593, -16, -7, -5, -9, 7, -3, 978, 925, 497,±
2025-03-07 13:28:18.643,948, 726, 38, 9, 37, 40, -10, 5, -3, 984, 922, 311,±
2025-03-07 13:28:18.700,597, 471, 526, 13, 27, 14, -11, 6, -3, 972, 839, 190,±
2025-03-07 13:28:18.759,614, 591, 709, 2, -6, -6, -8, 8, -3, 962, 761, 236,±
2025-03-07 13:28:18.810,1030, 887, 653, 19, -31, 15, -9, 7, -3, 982, 930, 204,±
2025-03-07 13:28:18.870,664, 706, 548, -8, 1, 31, -13, 7, -2, 983, 944, 279,±
2025-03-07 13:28:18.926,927, 331, 72, -20, 55, -51, -11, 6, -4, 965, 875, 515,±
2025-03-07 13:28:18.985,583, 482, 916, -29, 36, -25, -7, 6, -6, 944, 734, 232,±
2025-03-07 13:28:19.310,686, 505, 532, -4, -3, -3, -10, 7, -6, 950, 842, 416,∓
2025-03-07 13:28:19.370,682, 521, 526, -2, -4, -2, -9, 7, -4, 951, 842, 422,∓
2025-03-07 13:28:19.424,717, 524, 466, -7, -2, -2, -8, 5, -7, 948, 843, 395,∓
2025-03-07 13:28:19.475,695, 520, 523, -5, -1, -2, -9, 6, -4, 950, 844, 363,∓
2025-03-07 13:28:19.534,714, 524, 497, -5, -1, -4, -11, 7, -6, 948, 845, 324,∓
2025-03-07 13:28:19.590,710, 513, 507, -9, -2, -2, -9, 7, -7, 950, 841, 293,∓
2025-03-07 13:28:19.644,682, 524, 506, -7, -2, -4, -8, 7, -6, 951, 833, 254,∓
2025-03-07 13:28:19.695,643, 511, 546, 4, -6, -3, -8, 7, -7, 944, 795, 166,∓
2025-03-07 13:28:19.750,816, 452, 185, -18, -26, -3, -8, 7, -6, 953, 827, 11,∓
2025-03-07 13:28:19.808,1036, 478, 627, 53, -20, 0, -9, 7, -5, 975, 920, 11,∓
2025-03-07 13:28:19.862,513, 322, 397, -9, -19, 31, -9, 7, -4, 984, 949, 407,∓
2025-03-07 13:28:19.922,743, 462, 503, 20, 0, -5, -11, 7, -5, 976, 933, 456,∓
2025-03-07 13:28:19.980,882, 392, 338, -26, 52, -39, -10, 6, -4, 957, 869, 355,∓
2025-03-07 13:28:20.034,623, 509, 639, 2, -1, 2, -8, 7, -5, 954, 862, 238,∓
2025-03-07 13:28:20.081,704, 516, 500, 15, -10, 8, -9, 6, -4, 957, 867, 326,∓
2025-03-07 13:28:20.142,747, 508, 370, -7, 2, -6, -10, 5, -3, 956, 875, 413,∓
2025-03-07 13:28:20.193,680, 534, 533, 0, -2, 0, -10, 7, -5, 958, 879, 413,∓
2025-03-07 13:28:20.250,722, 546, 453, -4, -6, -2, -10, 7, -5, 960, 884, 431,∓
2025-03-07 13:28:20.300,729, 514, 479, 2, -2, 1, -9, 7, -4, 961, 893, 459,∓
2025-03-07 13:28:20.360,758, 536, 449, -1, 0, -3, -10, 6, -6, 959, 892, 455,∓
2025-03-07 13:28:20.410,717, 532, 485, -2, 4, -1, -9, 7, -2, 961, 891, 428,∓
2025-03-07 13:28:20.465,697, 538, 489, -4, 4, -3, -9, 6, -4, 960, 872, 319,∓
2025-03-07 13:28:20.520,679, 556, 497, -1, 1, 3, -9, 7, -4, 962, 863, 217,∓
2025-03-07 13:28:20.576,989, 429, 411, -11, 1, -11, -11, 7, -4, 971, 889, 19,∓
2025-03-07 13:28:20.630,735, 606, 430, 13, -25, 26, -10, 6, -3, 983, 941, 364,∓
2025-03-07 13:28:20.682,708, 554, 414, 4, 1, 12, -10, 6, -3, 984, 945, 453,∓
2025-03-07 13:28:20.744,777, 226, 453, -3, 3, -32, -11, 7, -3, 970, 912, 538,∓
2025-03-07 13:28:20.793,600, 577, 813, 3, -29, 17, -9, 7, -4, 968, 908, 460,∓
2025-03-07 13:28:20.850,734, 885, 78, -19, 13, 32, -9, 8, -5, 985, 931, 90,∓
2025-03-07 13:28:20.910,742, 554, 376, -14, 41, 30, -11, 6, -4, 978, 883, 95,∓
2025-03-07 13:28:20.960,717, 496, 359, -30, 68, -49, -9, 8, -6, 950, 772, 209,∓
2025-03-07 13:28:21.024,459, 523, 828, -21, 26, -23, -5, 6, -9, 926, 739, 67,∓
2025-03-07 13:28:23.340,715, 519, 483, 0, -1, 4, -9, 8, -6, 943, 782, 20,∞
2025-03-07 13:28:23.390,712, 510, 487, 1, 0, 4, -9, 6, -6, 943, 790, 18,∞
2025-03-07 13:28:23.441,705, 531, 509, 2, -2, 4, -9, 8, -6, 948, 828, 137,∞
2025-03-07 13:28:23.491,717, 500, 493, 1, 0, 2, -10, 6, -3, 952, 840, 139,∞
2025-03-07 13:28:23.550,710, 509, 482, 1, 0, 1, -9, 7, -5, 953, 856, 171,∞
2025-03-07 13:28:23.600,705, 528, 499, 0, 0, 3, -10, 8, -6, 954, 864, 181,∞
2025-03-07 13:28:23.657,720, 518, 470, -3, 1, 0, -9, 8, -4, 954, 871, 158,∞
2025-03-07 13:28:23.710,716, 521, 502, 0, -1, 3, -11, 7, -6, 956, 875, 155,∞
2025-03-07 13:28:23.760,722, 519, 471, -1, -1, 0, -9, 7, -3, 956, 876, 150,∞
2025-03-07 13:28:23.813,715, 502, 491, -2, 0, -3, -9, 7, -5, 956, 877, 150,∞
2025-03-07 13:28:23.874,715, 506, 489, -1, -4, -5, -10, 7, -6, 957, 879, 184,∞
2025-03-07 13:28:23.930,730, 525, 454, -4, -2, -7, -10, 8, -6, 953, 876, 236,∞
2025-03-07 13:28:23.984,681, 538, 540, -6, 1, -2, -10, 6, -5, 953, 879, 270,∞
2025-03-07 13:28:24.040,653, 532, 520, 6, -15, 17, -10, 8, -4, 960, 896, 307,∞
2025-03-07 13:28:24.090,428, 626, 435, 5, 1, 0, -10, 7, -4, 976, 901, 15,∞
2025-03-07 13:28:24.140,650, 713, 234, -11, 12, 11, -10, 7, -2, 976, 898, 11,∞
2025-03-07 13:28:24.200,916, 125, 867, 8, -10, -36, -10, 7, -3, 966, 895, 9,∞
2025-03-07 13:28:24.260,835, 514, 717, 50, -29, -14, -9, 6, -3, 976, 921, 10,∞
2025-03-07 13:28:24.310,664, 811, 92, -17, 15, 39, -11, 8, -3, 985, 937, 6,∞
2025-03-07 13:28:24.370,710, 482, 503, -15, 12, 16, -12, 6, -3, 978, 939, 74,∞
2025-03-07 13:28:24.425,781, 457, 573, 4, -17, -27, -10, 8, -2, 970, 928, 320,∞
2025-03-07 13:28:24.482,774, 498, 425, -5, 10, 12, -10, 5, -2, 983, 922, 16,∞
2025-03-07 13:28:24.539,742, 528, 249, -49, 29, 12, -12, 8, -3, 979, 867, 18,∞
2025-03-07 13:28:24.596,1166, 205, 566, 1, 29, -22, -10, 7, -5, 945, 739, 16,∞
2025-03-07 13:28:24.650,594, 425, 700, -47, 70, -36, -7, 9, -6, 929, 708, 11,∞
2025-03-07 13:28:27.527,716, 534, 439, 8, -2, 4, -11, 7, -3, 959, 899, 9,∑
2025-03-07 13:28:27.580,734, 533, 456, 8, -2, 4, -11, 7, -3, 960, 900, 14,∑
2025-03-07 13:28:27.635,734, 562, 445, 7, -2, 4, -11, 8, -3, 958, 906, 126,∑
2025-03-07 13:28:27.688,719, 564, 423, 0, 1, 4, -10, 6, -2, 960, 909, 132,∑
2025-03-07 13:28:27.742,724, 498, 429, -3, 5, 2, -9, 7, -2, 960, 911, 217,∑
2025-03-07 13:28:27.794,694, 524, 486, -1, 0, 0, -11, 5, -3, 963, 913, 228,∑
2025-03-07 13:28:27.843,754, 528, 420, 1, -1, -2, -9, 7, -5, 961, 915, 233,∑
2025-03-07 13:28:27.900,725, 531, 457, -1, 5, 0, -11, 7, -2, 961, 912, 156,∑
2025-03-07 13:28:27.959,740, 535, 448, -2, 2, -2, -11, 7, -3, 960, 908, 157,∑
2025-03-07 13:28:28.010,720, 546, 436, -6, 7, -1, -9, 6, -3, 960, 898, 84,∑
2025-03-07 13:28:28.060,708, 522, 476, -5, 1, -2, -12, 7, -3, 960, 893, 18,∑
2025-03-07 13:28:28.110,701, 520, 446, -7, 1, -3, -9, 6, -4, 959, 883, 15,∑
2025-03-07 13:28:28.175,718, 552, 551, -11, -8, -14, -9, 8, -3, 966, 890, 13,∑
2025-03-07 13:28:28.224,896, 980, 414, -6, -45, 58, -10, 6, -3, 983, 943, 81,∑
2025-03-07 13:28:28.284,619, 633, 423, -6, 4, 28, -13, 7, -2, 986, 948, 11,∑
2025-03-07 13:28:28.339,621, 400, 387, 8, 20, -27, -11, 7, -2, 973, 916, 189,∑
2025-03-07 13:28:28.391,800, 622, 625, -11, 9, -13, -11, 8, -4, 960, 852, 20,∑
2025-03-07 13:28:28.450,732, 484, 589, 25, -1, -6, -9, 6, -2, 972, 906, 9,∑
2025-03-07 13:28:28.500,684, 294, 530, 9, 1, 26, -10, 7, -3, 983, 925, 8,∑
2025-03-07 13:28:28.550,667, 197, 353, 0, 7, 8, -12, 9, -4, 983, 932, 9,∑
2025-03-07 13:28:28.606,590, 393, 428, -5, 2, -6, -11, 8, -4, 979, 916, 8,∑
2025-03-07 13:28:28.662,916, 373, 528, -14, 20, -5, -11, 8, -4, 968, 776, 16,∑
2025-03-07 13:28:28.710,829, 526, 536, 11, 6, 5, -11, 7, -4, 979, 868, 9,∑
2025-03-07 13:28:28.760,640, 692, 536, -4, -12, 46, -11, 8, -4, 987, 940, 15,∑
2025-03-07 13:28:28.822,729, 459, 418, 6, 12, 13, -12, 7, -4, 982, 932, 6,∑
2025-03-07 13:28:28.880,829, 478, 132, -42, 86, -63, -12, 8, -4, 956, 812, 18,∑
2025-03-07 13:28:28.937,493, 465, 858, -16, 23, -22, -8, 7, -8, 924, 640, 17,∑
2025-03-07 13:28:29.830,718, 523, 462, -2, -1, -5, -10, 6, -4, 949, 837, 14,∏
2025-03-07 13:28:29.883,729, 533, 466, -1, -1, -4, -10, 7, -4, 948, 836, 11,∏
2025-03-07 13:28:29.936,717, 523, 482, 4, -4, -5, -9, 7, -3, 948, 839, 20,∏
2025-03-07 13:28:29.990,747, 555, 480, 9, -10, 0, -9, 7, -3, 942, 823, 13,∏
2025-03-07 13:28:30.043,735, 532, 400, -1, -1, -4, -10, 7, -2, 937, 817, 11,∏
2025-03-07 13:28:30.104,1091, 472, 450, -13, -1, -13, -11, 6, -4, 940, 779, 12,∏
2025-03-07 13:28:30.157,791, 572, 380, -3, -7, -13, -9, 7, -3, 958, 819, 19,∏
2025-03-07 13:28:30.210,979, 869, 583, 1, -30, 64, -9, 6, -3, 980, 930, 16,∏
2025-03-07 13:28:30.260,745, 381, 451, -18, -14, 25, -12, 8, -2, 983, 948, 15,∏
2025-03-07 13:28:30.322,758, 439, 436, 12, 0, -6, -13, 7, -1, 979, 930, 16,∏
2025-03-07 13:28:30.376,706, 532, 342, -20, 57, -17, -12, 7, -3, 964, 870, 16,∏
2025-03-07 13:28:30.435,718, 560, 647, 11, -12, -2, -10, 6, -3, 958, 841, 19,∏
2025-03-07 13:28:30.494,766, 693, 519, -1, -10, -2, -10, 5, -4, 975, 910, 141,∏
2025-03-07 13:28:30.540,864, 615, 366, 11, 30, 31, -11, 5, -1, 985, 908, 7,∏
2025-03-07 13:28:30.602,781, 598, 334, -8, 30, 15, -12, 7, -2, 973, 880, 13,∏
2025-03-07 13:28:30.660,504, 778, 573, -9, -14, -13, -11, 7, -2, 966, 903, 433,∏
2025-03-07 13:28:30.710,710, 665, 127, 5, -15, 6, -11, 5, -3, 985, 930, 221,∏
2025-03-07 13:28:30.767,743, 572, 146, -2, 36, 35, -12, 6, -1, 982, 914, 9,∏
2025-03-07 13:28:30.823,1128, 166, 494, -1, 24, -35, -10, 6, -3, 963, 852, 185,∏
2025-03-07 13:28:30.886,612, 470, 648, -48, 61, -41, -8, 5, -8, 941, 826, 199,∏
2025-03-07 13:28:30.940,441, 540, 751, -12, 0, 3, -7, 7, -9, 931, 788, 81,∏
2025-03-07 13:28:31.470,716, 516, 514, 3, -2, -3, -10, 9, -5, 938, 735, 17,√
2025-03-07 13:28:31.530,700, 527, 519, 4, -2, -2, -9, 7, -5, 939, 739, 18,√
2025-03-07 13:28:31.581,729, 523, 483, 1, 0, 3, -10, 8, -4, 938, 740, 11,√
2025-03-07 13:28:31.633,729, 532, 455, -2, 0, 1, -11, 7, -6, 945, 755, 12,√
2025-03-07 13:28:31.690,704, 506, 505, -2, 2, 0, -10, 7, -4, 947, 767, 11,√
2025-03-07 13:28:31.739,711, 518, 504, 2, -2, -1, -9, 7, -4, 947, 784, 9,√
2025-03-07 13:28:31.796,725, 514, 460, -1, 0, -2, -10, 7, -5, 946, 786, 22,√
2025-03-07 13:28:31.840,700, 507, 522, -2, 0, 0, -11, 6, -3, 948, 788, 17,√
2025-03-07 13:28:31.900,720, 510, 490, -1, -1, -2, -10, 7, -4, 948, 783, 9,√
2025-03-07 13:28:31.951,700, 516, 503, 0, -2, 2, -9, 5, -5, 950, 792, 13,√
2025-03-07 13:28:32.006,538, 467, 629, 12, -18, 9, -9, 6, -3, 956, 820, 16,√
2025-03-07 13:28:32.060,895, 668, 473, 31, -8, 3, -10, 8, -4, 970, 902, 10,√
2025-03-07 13:28:32.110,593, 431, 617, 17, 3, 7, -10, 7, -2, 978, 923, 134,√
2025-03-07 13:28:32.160,758, 374, 437, 4, 21, 24, -10, 7, -3, 981, 908, 10,√
2025-03-07 13:28:32.223,770, 627, 459, -41, 11, 24, -12, 8, -4, 978, 920, 15,√
2025-03-07 13:28:32.283,1387, 934, 98, -23, -52, -40, -12, 8, -5, 974, 939, 17,√
2025-03-07 13:28:32.337,816, 629, 883, 11, -47, 2, -12, 6, -5, 983, 947, 11,√
2025-03-07 13:28:32.390,681, 404, 371, 1, 5, 17, -13, 7, -4, 984, 951, 11,√
2025-03-07 13:28:32.446,741, 474, 387, 34, 11, -2, -13, 7, -3, 976, 927, 217,√
2025-03-07 13:28:32.505,662, 619, 540, -25, 68, -33, -12, 7, -5, 962, 873, 19,√
2025-03-07 13:28:33.322,742, 508, 485, -1, 0, -2, -9, 7, -5, 939, 785, 18,∛
2025-03-07 13:28:33.373,722, 480, 484, -3, 1, -2, -10, 6, -5, 940, 784, 17,∛
2025-03-07 13:28:33.433,747, 521, 501, -1, 0, -3, -10, 8, -7, 940, 778, 11,∛
2025-03-07 13:28:33.482,690, 499, 526, 1, -2, -3, -9, 8, -4, 938, 776, 12,∛
2025-03-07 13:28:33.537,775, 405, 470, 17, 6, -7, -9, 6, -5, 955, 862, 13,∛
2025-03-07 13:28:33.590,519, 523, 501, 2, -3, 10, -12, 6, -6, 968, 909, 267,∛
2025-03-07 13:28:33.640,648, 626, 417, 14, 16, 30, -9, 6, -5, 975, 897, 61,∛
2025-03-07 13:28:33.700,720, 536, 369, -27, 12, 20, -12, 8, -4, 974, 893, 9,∛
2025-03-07 13:28:33.756,949, 68, 698, 8, -33, -54, -12, 8, -6, 964, 918, 20,∛
2025-03-07 13:28:33.810,840, 442, 604, 28, -37, -5, -12, 7, -6, 980, 938, 237,∛
2025-03-07 13:28:33.862,739, 455, 378, 6, 5, 10, -13, 7, -4, 977, 924, 253,∛
2025-03-07 13:28:33.923,762, 250, 428, -14, 42, -35, -13, 7, -4, 963, 885, 201,∛
2025-03-07 13:28:33.982,823, 560, 729, 12, -12, -8, -9, 7, -7, 952, 810, 15,∛
2025-03-07 13:28:34.037,903, 371, 595, 25, -12, -2, -9, 6, -6, 974, 931, 322,∛
2025-03-07 13:28:34.094,714, 608, 432, -1, 2, 5, -10, 7, -4, 977, 926, 441,∛
2025-03-07 13:28:34.140,750, 477, 526, -17, 8, 0, -9, 7, -6, 974, 898, 11,∛
2025-03-07 13:28:34.200,673, 553, 361, -13, 3, 25, -11, 6, -6, 981, 933, 138,∛
2025-03-07 13:28:34.256,761, 314, 277, -9, 37, -18, -12, 8, -7, 975, 906, 329,∛
2025-03-07 13:28:34.310,608, 440, 752, -5, 15, -1, -9, 7, -9, 968, 861, 13,∛
2025-03-07 13:28:34.360,708, 408, 516, 16, -13, 8, -8, 10, -7, 965, 833, 17,∛
2025-03-07 13:28:34.810,712, 484, 524, -1, 1, 0, -10, 8, -7, 950, 744, 14,∜
2025-03-07 13:28:34.873,711, 488, 537, -1, 0, 1, -10, 8, -5, 948, 741, 12,∜
2025-03-07 13:28:34.925,728, 481, 479, 0, 0, 0, -11, 8, -6, 951, 743, 11,∜
2025-03-07 13:28:34.974,691, 499, 549, -2, 0, -1, -10, 7, -6, 950, 747, 3,∜
2025-03-07 13:28:35.025,712, 487, 510, -1, 0, -2, -9, 7, -5, 948, 739, 20,∜
2025-03-07 13:28:35.080,705, 488, 524, -6, 0, -4, -11, 7, -4, 949, 690, 9,∜
2025-03-07 13:28:35.132,804, 535, 516, 7, 5, -8, -9, 7, -5, 961, 821, 17,∜
2025-03-07 13:28:35.190,690, 444, 416, 7, -10, 17, -11, 7, -6, 974, 910, 14,∜
2025-03-07 13:28:35.241,689, 450, 446, 3, 11, 25, -10, 6, -5, 979, 906, 12,∜
2025-03-07 13:28:35.290,731, 595, 314, -31, 14, 24, -13, 7, -6, 979, 904, 12,∜
2025-03-07 13:28:35.356,975, 238, 543, 1, -27, -55, -11, 8, -7, 966, 908, 15,∜
2025-03-07 13:28:35.410,597, 416, 624, 2, -15, -9, -12, 8, -7, 971, 921, 190,∜
2025-03-07 13:28:35.471,728, 655, 408, 2, -15, 33, -12, 10, -5, 981, 925, 128,∜
2025-03-07 13:28:35.524,756, 408, 629, 23, 3, 1, -13, 7, -6, 974, 904, 334,∜
2025-03-07 13:28:35.580,633, 359, 336, -20, 69, -80, -11, 6, -5, 961, 842, 439,∜
2025-03-07 13:28:35.638,670, 567, 590, 10, -13, -1, -8, 6, -9, 956, 815, 392,∜
2025-03-07 13:28:35.691,699, 918, 533, 25, -2, -8, -10, 5, -7, 968, 902, 439,∜
2025-03-07 13:28:35.753,645, 495, 506, -12, -5, 16, -10, 5, -5, 977, 925, 532,∜
2025-03-07 13:28:35.805,668, 403, 395, 1, -1, 1, -10, 5, -6, 978, 922, 510,∜
2025-03-07 13:28:35.860,801, 606, 317, -7, 3, 6, -10, 6, -5, 980, 925, 469,∜
2025-03-07 13:28:35.913,696, 614, 568, -16, 10, 14, -11, 8, -6, 981, 924, 240,∜
2025-03-07 13:28:35.970,863, 428, 487, 4, 19, 4, -10, 6, -6, 967, 860, 148,∜
2025-03-07 13:28:36.022,650, 463, 458, -42, 85, -25, -9, 8, -7, 958, 856, 123,∜
2025-03-07 13:28:36.080,425, 521, 741, -6, 7, -5, -6, 7, -11, 957, 853, 131,∜
2025-03-07 13:28:36.137,626, 458, 620, 14, -33, 14, -7, 7, -11, 950, 812, 119,∜
2025-03-07 13:28:36.500,708, 498, 476, -4, -7, -4, -9, 8, -8, 912, 642, 9,∫
2025-03-07 13:28:36.560,708, 484, 484, -4, -7, -4, -9, 9, -7, 908, 648, 17,∫
2025-03-07 13:28:36.612,697, 505, 522, 5, -6, -7, -10, 6, -7, 909, 661, 16,∫
2025-03-07 13:28:36.661,698, 470, 521, 9, -11, -4, -9, 8, -7, 910, 676, 14,∫
2025-03-07 13:28:36.723,713, 505, 517, 6, -11, -3, -10, 8, -4, 917, 699, 15,∫
2025-03-07 13:28:36.773,742, 524, 456, 3, -6, -6, -10, 7, -5, 921, 725, 15,∫
2025-03-07 13:28:36.830,705, 514, 513, 1, -2, -3, -10, 8, -5, 927, 741, 11,∫
2025-03-07 13:28:36.882,710, 515, 489, 6, -7, -1, -10, 5, -4, 933, 764, 18,∫
2025-03-07 13:28:36.937,738, 562, 444, 1, -4, -2, -10, 6, -6, 936, 780, 10,∫
2025-03-07 13:28:36.990,710, 521, 494, -3, 1, -1, -9, 6, -6, 942, 800, 13,∫
2025-03-07 13:28:37.040,692, 517, 490, -1, -3, -1, -10, 7, -6, 947, 820, 9,∫
2025-03-07 13:28:37.098,726, 548, 475, -2, -1, 0, -9, 7, -5, 949, 829, 11,∫
2025-03-07 13:28:37.150,730, 541, 470, -1, 0, -2, -9, 7, -5, 950, 840, 8,∫
2025-03-07 13:28:37.202,705, 515, 490, -1, -1, -1, -9, 7, -5, 952, 847, 24,∫
2025-03-07 13:28:37.257,714, 527, 435, -2, 0, 0, -10, 7, -6, 952, 850, 20,∫
2025-03-07 13:28:37.308,706, 523, 462, -5, -1, 1, -9, 7, -5, 955, 857, 18,∫
2025-03-07 13:28:37.362,706, 516, 435, -3, -4, 2, -10, 7, -5, 956, 864, 17,∫
2025-03-07 13:28:37.420,721, 484, 510, -2, -2, 1, -10, 5, -5, 959, 874, 107,∫
2025-03-07 13:28:37.473,731, 530, 468, -4, 0, 0, -10, 5, -4, 962, 872, 95,∫
2025-03-07 13:28:37.522,725, 544, 492, -5, 0, 3, -9, 6, -5, 959, 879, 106,∫
2025-03-07 13:28:37.581,722, 528, 476, -3, -1, 2, -9, 6, -4, 961, 879, 92,∫
2025-03-07 13:28:37.632,724, 516, 490, -3, 1, 0, -10, 8, -5, 961, 881, 82,∫
2025-03-07 13:28:37.686,736, 506, 459, -1, -1, 2, -10, 7, -3, 961, 883, 12,∫
2025-03-07 13:28:37.739,722, 487, 468, -1, 1, 5, -12, 8, -5, 964, 883, 31,∫
2025-03-07 13:28:37.790,721, 490, 485, -2, 3, 9, -11, 6, -5, 963, 867, 11,∫
2025-03-07 13:28:37.840,772, 521, 472, 0, 5, 11, -10, 8, -4, 963, 826, 20,∫
2025-03-07 13:28:37.890,760, 485, 487, -3, -15, 7, -11, 6, -6, 966, 845, 3,∫
2025-03-07 13:28:37.952,769, 476, 442, -16, -6, -7, -11, 7, -5, 967, 894, 9,∫
2025-03-07 13:28:38.006,794, 488, 538, 6, -8, -13, -11, 6, -6, 971, 907, 15,∫
2025-03-07 13:28:38.063,889, 548, 521, 19, 1, 1, -11, 5, -3, 978, 909, 17,∫
2025-03-07 13:28:38.115,763, 661, 441, -17, 29, 40, -10, 8, -5, 984, 911, 12,∫
2025-03-07 13:28:38.173,849, 272, 399, -25, 25, 13, -13, 8, -5, 978, 880, 19,∫
2025-03-07 13:28:38.230,1137, 370, 612, 22, 13, -13, -12, 7, -6, 939, 691, 15,∫
2025-03-07 13:28:38.287,492, 408, 762, -36, 83, -32, -9, 7, -8, 928, 660, 16,∫
2025-03-07 13:28:38.341,448, 535, 712, 26, -30, -8, -8, 8, -10, 929, 751, 14,∫
2025-03-07 13:28:38.860,722, 593, 444, 3, -6, 0, -9, 7, -5, 909, 787, 404,∮
2025-03-07 13:28:38.911,758, 612, 434, 1, -6, 2, -8, 7, -5, 912, 788, 415,∮
2025-03-07 13:28:38.969,659, 565, 439, -9, 3, 2, -7, 8, -5, 921, 811, 434,∮
2025-03-07 13:28:39.022,668, 586, 465, 3, -4, 19, -8, 7, -5, 930, 835, 469,∮
2025-03-07 13:28:39.074,753, 510, 456, -4, -1, 7, -10, 6, -6, 936, 848, 518,∮
2025-03-07 13:28:39.130,740, 538, 471, -5, -2, 4, -9, 7, -6, 945, 863, 549,∮
2025-03-07 13:28:39.186,677, 541, 475, -1, -4, 8, -12, 7, -5, 950, 878, 579,∮
2025-03-07 13:28:39.238,733, 538, 437, -1, -6, 2, -10, 8, -6, 953, 889, 589,∮
2025-03-07 13:28:39.290,732, 534, 447, 1, -1, 4, -11, 6, -4, 953, 890, 598,∮
2025-03-07 13:28:39.350,739, 529, 413, -2, -2, 3, -12, 7, -6, 957, 893, 588,∮
