Timestamp,Acc_X,Acc_Y,Acc_Z,Gyro_X,Gyro_Y,Gyro_Z,Mag_X,Mag_Y,Mag_Z,Force1,Force2,Force3,Letter
2025-03-18 11:30:57.067,425, 794, 464, -2, 0, -1, 8, 0, -29, 26, 27, 33,noise
2025-03-18 11:31:03.972,418, 797, 472, -3, -1, -2, -1, 0, -1, 28, 28, 33,A
2025-03-18 11:31:04.021,423, 790, 471, -3, -1, -1, 1, -1, 1, 25, 23, 18,A
2025-03-18 11:31:04.071,419, 790, 464, 0, 0, 0, 0, 1, 0, 20, 18, 30,A
2025-03-18 11:31:04.115,421, 793, 460, 1, 1, 0, 0, 0, -1, 24, 22, 22,A
2025-03-18 11:31:04.165,422, 803, 461, 1, 1, 0, 0, 0, -2, 28, 25, 26,A
2025-03-18 11:31:04.210,428, 790, 460, 1, 1, 0, 0, 0, 0, 36, 34, 40,A
2025-03-18 11:31:04.259,434, 798, 459, 0, 1, -1, 0, 0, 0, 24, 25, 27,A
2025-03-18 11:31:04.308,423, 791, 460, -4, 0, -2, 0, 1, 1, 24, 22, 26,A
2025-03-18 11:31:04.358,420, 798, 466, -4, 0, -1, -1, 1, 0, 28, 25, 25,A
2025-03-18 11:31:04.410,425, 799, 458, -1, -1, -1, 1, -1, 1, 30, 25, 36,A
2025-03-18 11:31:04.460,420, 798, 461, -2, 0, -1, -1, 1, 0, 36, 32, 30,A
2025-03-18 11:31:04.505,416, 795, 468, -1, 0, 0, 1, 1, 0, 28, 27, 34,A
2025-03-18 11:31:04.554,422, 795, 465, 0, 0, 0, 1, 0, -1, 26, 23, 26,A
2025-03-18 11:31:04.603,426, 793, 466, 0, 0, 0, -1, 0, 1, 24, 24, 22,A
2025-03-18 11:31:04.652,434, 791, 439, -2, -1, 1, -2, 1, 0, 26, 26, 24,A
2025-03-18 11:31:04.701,462, 810, 467, -3, 0, -1, -2, 1, 0, 33, 31, 33,A
2025-03-18 11:31:04.754,436, 801, 463, -6, -2, -1, 0, -1, 1, 25, 23, 29,A
2025-03-18 11:31:04.804,443, 789, 482, -6, -2, -1, -1, 1, -1, 27, 26, 26,A
2025-03-18 11:31:04.857,442, 832, 472, -13, 3, -8, 0, 2, -3, 14, 12, 17,A
2025-03-18 11:31:04.907,395, 792, 538, -15, 5, 5, -3, 2, -3, 18, 18, 14,A
2025-03-18 11:31:04.960,392, 808, 517, -11, 0, 8, -2, 2, -2, 223, 25, 29,A
2025-03-18 11:31:05.012,500, 738, 487, -24, 3, 2, -2, 1, -1, 429, 101, 21,A
2025-03-18 11:31:05.066,489, 720, 523, -42, -1, -10, -3, 5, -1, 593, 265, 23,A
2025-03-18 11:31:05.122,503, 658, 564, -44, 0, -24, -4, 7, 0, 739, 319, 303,A
2025-03-18 11:31:05.180,400, 757, 581, -44, 10, -40, -5, 8, -2, 790, 388, 394,A
2025-03-18 11:31:05.237,392, 703, 579, -62, 18, -40, -8, 6, -3, 797, 463, 489,A
2025-03-18 11:31:05.295,301, 618, 682, -56, 33, -39, -9, 8, -4, 779, 534, 542,A
2025-03-18 11:31:05.352,147, 742, 855, -16, 21, -6, -12, 12, -11, 804, 596, 568,A
2025-03-18 11:31:05.410,114, 629, 854, 3, 25, 7, -12, 11, -8, 826, 664, 560,A
2025-03-18 11:31:05.463,4, 578, 881, 29, -4, 71, -10, 9, -4, 851, 683, 569,A
2025-03-18 11:31:05.520,30, 506, 906, 46, -68, 116, -11, 7, 9, 870, 694, 581,A
2025-03-18 11:31:05.578,436, 462, 530, 48, -85, 115, -12, 12, 19, 882, 731, 586,A
2025-03-18 11:31:05.634,848, 514, 355, 7, -65, 65, -15, 16, 29, 901, 796, 622,A
2025-03-18 11:31:05.693,910, 555, 274, -30, -29, 23, -16, 17, 34, 914, 829, 680,A
2025-03-18 11:31:05.750,570, 546, 645, 4, -56, 9, -17, 20, 35, 926, 856, 707,A
2025-03-18 11:31:05.807,623, 717, 221, -19, 0, -3, -18, 19, 37, 940, 881, 752,A
2025-03-18 11:31:05.865,775, 650, 661, 36, -44, 19, -20, 17, 38, 949, 904, 781,A
2025-03-18 11:31:05.921,745, 532, 404, 0, -12, -2, -20, 17, 39, 954, 922, 790,A
2025-03-18 11:31:05.979,767, 494, 457, -6, -3, -4, -16, 18, 42, 961, 939, 794,A
2025-03-18 11:31:06.041,665, 460, 632, 13, -10, -11, -19, 17, 40, 970, 944, 789,A
2025-03-18 11:31:06.097,1080, 918, 69, 58, 32, 11, -18, 13, 44, 973, 931, 719,A
2025-03-18 11:31:06.155,851, 699, 382, -34, 36, 32, -20, 17, 39, 965, 924, 750,A
2025-03-18 11:31:06.216,705, 538, 307, -43, -11, -37, -18, 19, 38, 964, 934, 793,A
2025-03-18 11:31:06.273,600, 596, 590, -7, -15, 10, -15, 14, 41, 969, 950, 813,A
2025-03-18 11:31:06.331,711, 559, 407, 27, 17, 18, -19, 18, 39, 978, 954, 784,A
2025-03-18 11:31:06.389,805, 516, 372, 13, 32, 32, -18, 19, 40, 979, 949, 720,A
2025-03-18 11:31:06.445,732, 314, 529, -20, 7, -22, -19, 20, 39, 971, 945, 766,A
2025-03-18 11:31:06.507,600, 608, 550, -28, -27, -21, -19, 19, 40, 966, 930, 748,A
2025-03-18 11:31:06.560,714, 559, 399, 0, -3, -7, -18, 18, 39, 974, 950, 711,A
2025-03-18 11:31:06.618,789, 532, 444, 12, 6, 12, -18, 16, 40, 980, 968, 746,A
2025-03-18 11:31:06.675,676, 639, 501, -4, 13, 19, -20, 18, 39, 981, 973, 817,A
2025-03-18 11:31:06.733,938, 468, 208, -11, 49, -18, -17, 18, 40, 975, 966, 849,A
2025-03-18 11:31:06.794,645, 564, 702, -64, 95, -57, -14, 16, 38, 958, 945, 826,A
2025-03-18 11:31:06.851,436, 552, 794, -30, 51, -22, -13, 18, 31, 942, 902, 779,A
2025-03-18 11:31:06.909,456, 561, 715, -4, 15, 2, -9, 20, 28, 926, 860, 716,A
2025-03-18 11:31:06.962,520, 556, 679, 10, -2, 6, -12, 19, 28, 919, 856, 721,A
2025-03-18 11:31:07.019,586, 521, 615, -2, 2, 1, -11, 19, 29, 900, 842, 697,A
2025-03-18 11:31:07.073,543, 583, 654, -8, 8, -1, -9, 17, 29, 871, 804, 627,A
2025-03-18 11:31:07.130,527, 486, 692, -2, 3, -3, -9, 20, 27, 863, 772, 595,A
2025-03-18 11:31:07.184,555, 526, 672, 1, 3, -5, -11, 21, 25, 857, 760, 585,A
2025-03-18 11:31:07.241,531, 560, 693, -5, 6, -8, -13, 20, 27, 850, 747, 580,A
2025-03-18 11:31:07.293,525, 583, 695, -4, 6, -9, -9, 19, 25, 848, 744, 571,A
2025-03-18 11:31:07.351,511, 548, 683, -3, 8, -7, -10, 19, 25, 852, 737, 552,A
2025-03-18 11:31:07.408,494, 542, 695, -4, 6, -5, -9, 20, 24, 853, 734, 525,A
2025-03-18 11:31:07.461,495, 574, 704, 2, 0, -1, -9, 19, 26, 851, 744, 540,A
2025-03-18 11:31:07.515,508, 545, 685, -3, 2, -1, -8, 19, 27, 851, 747, 545,A
2025-03-18 11:31:07.573,503, 558, 676, -11, 7, -3, -9, 21, 23, 853, 756, 537,A
2025-03-18 11:31:07.626,477, 557, 732, -4, 1, -2, -9, 21, 23, 852, 758, 535,A
2025-03-18 11:31:07.682,494, 572, 691, -5, 1, 0, -8, 20, 24, 851, 747, 522,A
2025-03-18 11:31:07.732,487, 546, 705, 0, 0, 1, -9, 19, 24, 852, 748, 518,A
2025-03-18 11:31:07.788,491, 555, 697, -1, 0, 1, -8, 21, 25, 854, 747, 510,A
2025-03-18 11:31:07.842,499, 552, 686, -1, 0, 0, -8, 20, 25, 861, 754, 528,A
2025-03-18 11:31:07.896,493, 560, 698, 0, -1, 0, -8, 18, 27, 863, 761, 540,A
2025-03-18 11:31:07.949,503, 546, 696, -1, 0, 0, -9, 21, 23, 864, 765, 545,A
2025-03-18 11:31:09.461,249, 605, 770, 27, -32, 13, -6, 18, 18, 761, 703, 557,B
2025-03-18 11:31:09.517,249, 607, 793, 30, -40, 19, -8, 19, 22, 760, 701, 545,B
2025-03-18 11:31:09.575,364, 621, 561, 67, -75, 41, -8, 14, 23, 691, 662, 431,B
2025-03-18 11:31:09.633,506, 625, 547, 42, -46, 46, -9, 13, 27, 626, 666, 436,B
2025-03-18 11:31:09.690,616, 664, 492, 20, -21, 26, -12, 16, 30, 638, 678, 438,B
2025-03-18 11:31:09.747,682, 669, 435, -3, -1, -3, -11, 16, 30, 652, 673, 451,B
2025-03-18 11:31:09.805,545, 650, 552, -16, 1, -4, -13, 15, 30, 671, 680, 440,B
2025-03-18 11:31:09.862,537, 647, 585, -1, -2, 4, -12, 14, 31, 672, 686, 456,B
2025-03-18 11:31:09.919,531, 653, 568, 3, -10, 9, -14, 14, 31, 682, 703, 468,B
2025-03-18 11:31:09.977,571, 630, 561, 11, -21, 14, -15, 14, 32, 713, 740, 485,B
2025-03-18 11:31:10.034,592, 622, 536, 11, -30, 21, -12, 17, 33, 794, 792, 546,B
2025-03-18 11:31:10.091,676, 655, 469, -1, -16, 33, -15, 16, 34, 886, 840, 651,B
2025-03-18 11:31:10.149,617, 591, 461, 0, -21, 16, -17, 19, 34, 918, 871, 690,B
2025-03-18 11:31:10.206,690, 560, 417, 7, -16, 6, -17, 17, 37, 933, 890, 686,B
2025-03-18 11:31:10.263,715, 585, 401, -3, -16, -10, -16, 17, 39, 938, 904, 685,B
2025-03-18 11:31:10.325,668, 583, 462, -12, -5, -7, -18, 18, 39, 942, 908, 699,B
2025-03-18 11:31:10.382,721, 505, 505, 29, -21, -18, -17, 16, 40, 960, 925, 723,B
2025-03-18 11:31:10.440,1124, 512, 557, 52, 39, 30, -17, 16, 40, 970, 917, 617,B
2025-03-18 11:31:10.497,781, 668, 389, -21, 13, 13, -17, 16, 40, 954, 911, 681,B
2025-03-18 11:31:10.558,550, 638, 643, -23, -34, -26, -17, 16, 38, 949, 919, 738,B
2025-03-18 11:31:10.615,819, 566, 352, -4, -15, -5, -18, 15, 39, 966, 946, 756,B
2025-03-18 11:31:10.673,592, 665, 496, 4, 8, 12, -19, 16, 39, 973, 947, 761,B
2025-03-18 11:31:10.731,736, 576, 381, 13, 19, 13, -17, 15, 39, 973, 939, 657,B
2025-03-18 11:31:10.783,748, 567, 451, -9, 9, 10, -18, 17, 38, 976, 943, 666,B
2025-03-18 11:31:10.841,702, 838, 381, 9, 15, 14, -18, 16, 39, 973, 937, 631,B
2025-03-18 11:31:10.899,688, 607, 311, -11, 17, 8, -18, 17, 38, 961, 915, 553,B
2025-03-18 11:31:10.960,950, 587, 153, -34, 33, -45, -17, 17, 38, 939, 898, 704,B
2025-03-18 11:31:11.017,458, 623, 826, -42, 13, -34, -16, 17, 34, 927, 893, 676,B
2025-03-18 11:31:11.074,542, 656, 614, -4, -15, 1, -16, 17, 34, 924, 882, 660,B
2025-03-18 11:31:11.333,668, 600, 476, -1, -4, -1, -16, 18, 37, 919, 872, 643,C
2025-03-18 11:31:11.389,672, 597, 468, -1, -4, -2, -17, 18, 38, 919, 872, 640,C
2025-03-18 11:31:11.447,665, 595, 478, -5, -1, 1, -14, 18, 36, 925, 878, 648,C
2025-03-18 11:31:11.500,641, 575, 500, -1, -5, 2, -17, 18, 37, 928, 888, 651,C
2025-03-18 11:31:11.558,666, 603, 480, 4, -7, 7, -17, 17, 37, 932, 892, 664,C
2025-03-18 11:31:11.615,660, 589, 461, 2, -12, 5, -18, 19, 37, 936, 899, 686,C
2025-03-18 11:31:11.669,664, 575, 471, 6, -14, 5, -18, 18, 39, 939, 911, 691,C
2025-03-18 11:31:11.726,726, 568, 498, 9, -16, -4, -20, 19, 40, 946, 927, 620,C
2025-03-18 11:31:11.783,648, 530, 429, 27, -6, -15, -18, 15, 40, 953, 919, 475,C
2025-03-18 11:31:11.840,642, 534, 191, 32, 26, 21, -17, 16, 39, 965, 918, 342,C
2025-03-18 11:31:11.898,778, 698, 341, -2, 12, 19, -17, 16, 38, 969, 943, 476,C
2025-03-18 11:31:11.955,737, 511, 501, 2, -3, 3, -18, 17, 38, 956, 947, 720,C
2025-03-18 11:31:12.012,813, 549, 246, -51, 70, -43, -19, 19, 34, 943, 909, 706,C
2025-03-18 11:31:12.073,428, 593, 657, -36, 20, -19, -17, 17, 32, 935, 851, 529,C
2025-03-18 11:31:12.460,644, 605, 520, 2, -3, 2, -18, 17, 34, 919, 871, 578,D
2025-03-18 11:31:12.516,643, 593, 516, 1, -4, 1, -18, 17, 34, 920, 871, 588,D
2025-03-18 11:31:12.570,646, 582, 508, 3, -6, 1, -17, 19, 35, 917, 872, 595,D
2025-03-18 11:31:12.628,659, 583, 493, 1, -3, -2, -15, 17, 37, 915, 871, 587,D
2025-03-18 11:31:12.685,653, 577, 500, 3, -3, -2, -14, 18, 37, 913, 871, 597,D
2025-03-18 11:31:12.738,635, 588, 501, 5, -6, -3, -18, 16, 36, 915, 875, 613,D
2025-03-18 11:31:12.795,646, 598, 479, 4, -9, 2, -17, 16, 36, 916, 880, 624,D
2025-03-18 11:31:12.852,644, 603, 476, 4, -16, -3, -16, 17, 37, 916, 889, 620,D
2025-03-18 11:31:12.906,649, 590, 509, 8, -23, 1, -17, 17, 37, 928, 912, 589,D
2025-03-18 11:31:12.966,682, 617, 500, 18, -11, -11, -18, 16, 39, 948, 923, 572,D
2025-03-18 11:31:13.023,661, 700, 334, 21, 40, 40, -16, 17, 40, 966, 913, 357,D
2025-03-18 11:31:13.081,733, 755, 320, -28, 17, 15, -14, 16, 40, 950, 909, 432,D
2025-03-18 11:31:13.139,717, 728, 417, -9, -27, -27, -19, 15, 40, 945, 925, 674,D
2025-03-18 11:31:13.196,564, 601, 431, 17, -4, 12, -18, 16, 40, 970, 951, 745,D
2025-03-18 11:31:13.253,741, 631, 349, 1, 21, 20, -17, 20, 36, 976, 938, 640,D
2025-03-18 11:31:13.314,891, 295, 460, -21, 21, -28, -17, 16, 39, 943, 875, 642,D
2025-03-18 11:31:13.372,595, 568, 604, -44, 34, -36, -18, 17, 37, 922, 856, 597,D
2025-03-18 11:31:13.642,652, 615, 487, 4, -9, 1, -17, 17, 36, 902, 867, 613,E
2025-03-18 11:31:13.699,661, 621, 467, 2, -8, 1, -16, 15, 37, 901, 868, 622,E
2025-03-18 11:31:13.753,638, 577, 479, 1, -5, 2, -16, 14, 39, 903, 875, 626,E
2025-03-18 11:31:13.806,659, 598, 487, 7, -7, 4, -17, 17, 36, 906, 876, 631,E
2025-03-18 11:31:13.864,688, 604, 435, 1, -5, -1, -16, 16, 37, 908, 879, 639,E
2025-03-18 11:31:13.921,652, 609, 465, 0, -7, -1, -16, 18, 38, 912, 886, 628,E
2025-03-18 11:31:13.978,659, 633, 464, 2, -11, 2, -19, 18, 35, 916, 898, 611,E
2025-03-18 11:31:14.036,699, 613, 498, 9, -11, -1, -18, 18, 37, 925, 911, 595,E
2025-03-18 11:31:14.089,688, 603, 399, 7, -6, -6, -18, 17, 39, 940, 917, 562,E
2025-03-18 11:31:14.147,639, 784, 535, 44, 26, 17, -16, 17, 38, 962, 913, 514,E
2025-03-18 11:31:14.204,739, 351, 268, 6, 16, 8, -19, 17, 39, 964, 903, 387,E
2025-03-18 11:31:14.261,679, 122, 596, -22, -25, -68, -18, 17, 38, 931, 904, 644,E
2025-03-18 11:31:14.318,634, 566, 544, 5, -42, 6, -18, 17, 39, 947, 930, 687,E
2025-03-18 11:31:14.376,789, 803, 212, 16, -9, 8, -19, 17, 39, 972, 957, 764,E
2025-03-18 11:31:14.429,666, 639, 475, 8, 17, 25, -18, 17, 39, 965, 945, 792,E
2025-03-18 11:31:14.486,609, 567, 496, 24, 7, -19, -18, 16, 39, 948, 904, 687,E
2025-03-18 11:31:14.543,859, 906, 188, 2, -1, 17, -18, 15, 41, 967, 944, 697,E
2025-03-18 11:31:14.601,541, 547, 448, -6, 14, 22, -18, 16, 40, 962, 943, 729,E
2025-03-18 11:31:14.658,488, 538, 499, 37, 5, -21, -18, 16, 38, 946, 891, 690,E
2025-03-18 11:31:14.716,802, 711, 186, 12, 1, -2, -18, 16, 40, 964, 939, 647,E
2025-03-18 11:31:14.773,701, 589, 437, -35, 13, 29, -15, 16, 35, 962, 940, 773,E
2025-03-18 11:31:14.830,527, 571, 470, -32, 48, -45, -18, 14, 37, 936, 899, 762,E
2025-03-18 11:31:15.068,679, 608, 420, -10, 2, -7, -16, 16, 39, 925, 856, 659,F
2025-03-18 11:31:15.125,660, 624, 432, -8, 1, -6, -17, 15, 38, 926, 857, 659,F
2025-03-18 11:31:15.182,645, 617, 453, -3, -5, -1, -18, 16, 37, 920, 861, 646,F
2025-03-18 11:31:15.236,667, 609, 430, 3, -5, 2, -19, 17, 38, 922, 870, 670,F
2025-03-18 11:31:15.289,668, 608, 434, -2, 1, 0, -19, 15, 40, 923, 874, 663,F
2025-03-18 11:31:15.346,668, 612, 444, 1, -2, 1, -17, 15, 40, 924, 877, 658,F
2025-03-18 11:31:15.403,666, 603, 433, -2, -2, -2, -18, 15, 40, 924, 879, 650,F
2025-03-18 11:31:15.461,659, 606, 434, -3, -3, -2, -17, 15, 40, 925, 887, 639,F
2025-03-18 11:31:15.518,664, 599, 435, -5, -8, -4, -16, 14, 42, 928, 901, 641,F
2025-03-18 11:31:15.572,662, 583, 486, 4, -10, 0, -17, 19, 39, 933, 913, 664,F
2025-03-18 11:31:15.633,681, 675, 458, 21, -13, -8, -18, 15, 40, 950, 923, 648,F
2025-03-18 11:31:15.690,750, 505, 516, 11, 34, 28, -18, 15, 43, 966, 905, 404,F
2025-03-18 11:31:15.748,758, 675, 379, -35, 17, 18, -17, 16, 39, 952, 902, 537,F
2025-03-18 11:31:15.805,531, 737, 470, -6, -31, -19, -17, 15, 40, 938, 920, 626,F
2025-03-18 11:31:15.867,727, 849, 250, 14, -11, 11, -18, 15, 40, 967, 956, 744,F
2025-03-18 11:31:15.920,634, 508, 472, -3, 22, 15, -19, 16, 42, 958, 935, 786,F
2025-03-18 11:31:15.981,604, 719, 537, 13, -17, -8, -17, 15, 40, 947, 854, 520,F
2025-03-18 11:31:16.038,656, 810, 159, -17, 8, 20, -17, 15, 42, 973, 953, 758,F
2025-03-18 11:31:16.096,849, 524, 260, -39, 45, -18, -18, 14, 39, 954, 936, 816,F
2025-03-18 11:31:16.157,502, 644, 678, -53, 56, -47, -16, 18, 33, 922, 838, 732,F
2025-03-18 11:31:16.214,518, 627, 655, -20, 23, -26, -17, 15, 31, 893, 723, 610,F
2025-03-18 11:31:16.267,533, 642, 605, 1, -9, 1, -12, 15, 33, 881, 735, 630,F
2025-03-18 11:31:16.325,605, 634, 497, -2, -12, 1, -14, 15, 33, 866, 763, 608,F
2025-03-18 11:31:16.382,608, 637, 499, -1, -4, 0, -14, 13, 34, 872, 819, 626,F
2025-03-18 11:31:16.440,588, 641, 527, -7, 1, -3, -14, 17, 33, 883, 836, 635,F
2025-03-18 11:31:16.493,573, 641, 530, -4, -1, 2, -14, 15, 34, 887, 838, 627,F
2025-03-18 11:31:16.550,579, 641, 532, 2, -3, 2, -14, 16, 33, 889, 846, 648,F
2025-03-18 11:31:16.603,587, 655, 524, 0, -5, 5, -14, 14, 34, 889, 854, 666,F
2025-03-18 11:31:16.661,622, 641, 499, -1, -2, 2, -15, 15, 35, 894, 848, 659,F
2025-03-18 11:31:16.718,596, 634, 514, -6, 0, 0, -16, 17, 33, 899, 852, 658,F
2025-03-18 11:31:16.772,610, 642, 522, -3, -1, 3, -16, 17, 32, 899, 843, 639,F
2025-03-18 11:31:20.667,566, 665, 500, 2, -2, 20, -15, 13, 33, 809, 647, 501,G
2025-03-18 11:31:20.724,573, 662, 495, 1, -4, 18, -16, 13, 33, 806, 648, 508,G
2025-03-18 11:31:20.782,592, 676, 481, 4, -12, 17, -16, 16, 31, 808, 651, 509,G
2025-03-18 11:31:20.839,601, 665, 500, 13, -12, 16, -15, 16, 33, 806, 649, 481,G
2025-03-18 11:31:20.896,664, 661, 432, 10, -9, 11, -17, 13, 34, 798, 649, 485,G
2025-03-18 11:31:20.949,625, 654, 475, 6, -9, 12, -17, 14, 37, 811, 664, 485,G
2025-03-18 11:31:21.006,633, 666, 467, 11, -7, 6, -18, 15, 37, 819, 690, 495,G
2025-03-18 11:31:21.063,652, 656, 405, 5, -10, 5, -18, 15, 36, 844, 737, 529,G
2025-03-18 11:31:21.117,650, 637, 384, -2, 0, -3, -17, 16, 37, 856, 763, 547,G
2025-03-18 11:31:21.175,655, 646, 450, -3, 0, 0, -18, 16, 39, 874, 783, 556,G
2025-03-18 11:31:21.232,622, 644, 445, -1, -3, 2, -16, 14, 40, 874, 793, 574,G
2025-03-18 11:31:21.285,637, 647, 439, 2, -5, 4, -19, 14, 40, 877, 811, 577,G
2025-03-18 11:31:21.339,655, 667, 403, 2, -6, 6, -17, 15, 40, 886, 828, 576,G
2025-03-18 11:31:21.396,659, 668, 382, -3, 5, 7, -20, 16, 38, 889, 832, 587,G
2025-03-18 11:31:21.449,686, 658, 394, -5, 1, 6, -18, 16, 38, 895, 845, 637,G
2025-03-18 11:31:21.506,636, 616, 431, 2, 4, 9, -19, 15, 39, 904, 850, 636,G
2025-03-18 11:31:21.564,687, 654, 405, -14, -2, 16, -17, 16, 40, 915, 870, 687,G
2025-03-18 11:31:21.621,618, 688, 504, -13, -21, 8, -18, 17, 39, 934, 910, 692,G
2025-03-18 11:31:21.678,871, 489, 418, 31, -12, -23, -20, 18, 38, 943, 906, 582,G
2025-03-18 11:31:21.736,740, 614, 309, 5, 38, 30, -18, 15, 40, 954, 902, 547,G
2025-03-18 11:31:21.793,581, 439, 572, -22, 0, 3, -20, 19, 36, 953, 917, 654,G
2025-03-18 11:31:21.850,676, 659, 513, 27, -10, -9, -18, 16, 39, 959, 925, 689,G
2025-03-18 11:31:21.907,737, 734, 255, -7, 20, 20, -18, 17, 39, 954, 901, 606,G
2025-03-18 11:31:21.965,515, 727, 590, -9, -27, -33, -17, 17, 39, 940, 896, 647,G
2025-03-18 11:31:22.026,768, 525, 301, 14, -12, -6, -17, 18, 40, 958, 935, 675,G
2025-03-18 11:31:22.084,741, 702, 444, -9, 18, 25, -18, 17, 40, 958, 936, 727,G
2025-03-18 11:31:22.141,770, 614, 345, -44, 50, -56, -19, 18, 37, 938, 910, 719,G
2025-03-18 11:31:22.203,520, 619, 632, -20, 21, -18, -17, 17, 33, 926, 880, 698,G
2025-03-18 11:31:22.256,597, 624, 529, 9, -12, 3, -16, 16, 32, 911, 838, 677,G
2025-03-18 11:31:22.314,667, 629, 458, -4, -9, 2, -15, 15, 36, 910, 825, 650,G
2025-03-18 11:31:22.563,649, 619, 454, 3, -10, 3, -16, 16, 39, 897, 823, 588,H
2025-03-18 11:31:22.620,654, 619, 444, 3, -10, 3, -18, 17, 36, 897, 824, 588,H
2025-03-18 11:31:22.678,650, 611, 439, 0, -7, -2, -17, 17, 36, 897, 828, 565,H
2025-03-18 11:31:22.735,625, 601, 484, -2, -21, 1, -16, 17, 38, 903, 858, 586,H
2025-03-18 11:31:22.792,711, 521, 499, 21, -24, 3, -19, 18, 38, 926, 893, 640,H
2025-03-18 11:31:22.850,359, 837, 381, 37, 30, 19, -18, 17, 40, 939, 884, 548,H
2025-03-18 11:31:22.908,708, 709, 277, -8, 20, 16, -18, 16, 38, 940, 868, 485,H
2025-03-18 11:31:22.964,576, 609, 474, -2, -19, -45, -18, 15, 39, 922, 862, 618,H
2025-03-18 11:31:23.022,841, 858, 395, 28, -20, -2, -18, 17, 40, 954, 929, 723,H
2025-03-18 11:31:23.083,686, 467, 417, -26, 21, 13, -18, 19, 37, 949, 931, 735,H
2025-03-18 11:31:23.141,419, 588, 688, -4, -28, -4, -19, 19, 39, 939, 918, 740,H
2025-03-18 11:31:23.198,542, 1015, 146, 8, 27, 21, -19, 17, 39, 954, 919, 681,H
2025-03-18 11:31:23.255,785, 513, 333, -14, 30, 19, -18, 18, 37, 945, 884, 646,H
2025-03-18 11:31:23.312,599, 639, 462, -34, 42, -51, -15, 18, 36, 918, 843, 687,H
2025-03-18 11:31:23.595,638, 641, 460, 0, -3, -4, -18, 17, 37, 907, 854, 652,I
2025-03-18 11:31:23.649,645, 625, 461, 1, -3, -3, -18, 15, 38, 904, 852, 655,I
2025-03-18 11:31:23.706,671, 597, 454, 0, -4, -4, -18, 17, 38, 898, 848, 597,I
2025-03-18 11:31:23.759,636, 642, 480, 2, -8, 1, -18, 17, 39, 903, 851, 507,I
2025-03-18 11:31:23.821,704, 611, 435, 25, -27, -2, -18, 16, 40, 921, 875, 355,I
2025-03-18 11:31:23.878,767, 863, 353, -5, -11, 21, -17, 14, 40, 939, 911, 635,I
2025-03-18 11:31:23.931,620, 673, 394, -6, 5, 14, -18, 16, 39, 941, 919, 723,I
2025-03-18 11:31:23.992,720, 599, 323, -8, 15, -10, -17, 17, 40, 921, 884, 729,I
2025-03-18 11:31:24.050,692, 721, 596, -3, -14, 5, -16, 16, 40, 918, 869, 616,I
2025-03-18 11:31:24.107,905, 630, 333, -11, 17, 16, -17, 16, 41, 948, 902, 629,I
2025-03-18 11:31:24.164,683, 744, 191, -24, 37, 32, -19, 17, 38, 956, 880, 534,I
2025-03-18 11:31:24.222,535, 583, 589, 19, -8, -34, -17, 17, 38, 924, 766, 460,I
2025-03-18 11:31:24.279,780, 570, 192, 3, -7, 2, -17, 16, 36, 956, 925, 616,I
2025-03-18 11:31:24.337,663, 690, 526, -26, 15, 28, -17, 17, 38, 954, 929, 724,I
2025-03-18 11:31:24.393,551, 541, 474, -29, 55, -56, -17, 15, 38, 929, 861, 713,I
2025-03-18 11:31:24.644,664, 623, 445, -1, -5, -7, -17, 16, 39, 902, 839, 643,J
2025-03-18 11:31:24.701,652, 621, 458, -1, -5, -5, -18, 16, 37, 900, 841, 641,J
2025-03-18 11:31:24.759,634, 616, 487, 9, -8, -1, -17, 17, 39, 896, 841, 614,J
2025-03-18 11:31:24.815,637, 581, 469, 19, -12, 4, -18, 17, 40, 894, 843, 506,J
2025-03-18 11:31:24.873,794, 776, 436, 42, -18, -12, -18, 14, 40, 932, 891, 446,J
2025-03-18 11:31:24.930,547, 492, 316, -25, 3, 20, -18, 16, 41, 944, 924, 722,J
2025-03-18 11:31:24.988,670, 541, 357, 4, 7, -11, -17, 14, 40, 923, 882, 756,J
2025-03-18 11:31:25.045,742, 727, 563, 26, -8, -9, -19, 15, 40, 925, 866, 640,J
2025-03-18 11:31:25.102,387, 650, 344, -12, 34, 44, -19, 16, 40, 955, 915, 644,J
2025-03-18 11:31:25.160,678, 665, 370, -27, 18, 19, -16, 17, 38, 929, 889, 381,J
2025-03-18 11:31:25.222,1110, 618, 272, 20, 15, -55, -19, 16, 38, 805, 610, 377,J
2025-03-18 11:31:25.279,520, 718, 702, -18, 26, -7, -14, 15, 36, 724, 670, 400,J
2025-03-18 11:31:25.562,636, 640, 448, 0, -6, 0, -15, 14, 41, 839, 758, 500,K
2025-03-18 11:31:25.614,621, 624, 471, 1, -8, 0, -15, 14, 41, 839, 767, 505,K
2025-03-18 11:31:25.672,663, 623, 427, -1, -5, 0, -17, 16, 38, 850, 805, 522,K
2025-03-18 11:31:25.729,645, 587, 491, 5, -12, 4, -18, 17, 38, 884, 843, 504,K
2025-03-18 11:31:25.787,713, 595, 405, 9, -10, 1, -20, 17, 38, 919, 868, 490,K
2025-03-18 11:31:25.840,867, 677, 441, 7, 36, 24, -20, 17, 38, 936, 816, 59,K
2025-03-18 11:31:25.893,733, 662, 209, 24, 8, 1, -20, 17, 39, 941, 865, 41,K
2025-03-18 11:31:25.950,883, 580, 289, -8, -33, -1, -18, 15, 40, 943, 935, 644,K
2025-03-18 11:31:26.008,668, 727, 409, 4, 1, 2, -20, 15, 41, 928, 902, 723,K
2025-03-18 11:31:26.065,470, 503, 550, 5, 20, -35, -17, 14, 38, 916, 849, 508,K
2025-03-18 11:31:26.123,910, 1262, 259, -9, -18, 7, -18, 16, 40, 952, 912, 596,K
2025-03-18 11:31:26.180,617, 742, 320, -44, 33, 50, -18, 16, 40, 947, 913, 635,K
2025-03-18 11:31:26.238,638, 453, 262, -9, 50, -65, -18, 16, 37, 907, 829, 697,K
2025-03-18 11:31:26.541,647, 628, 458, 5, -6, 0, -18, 17, 36, 875, 787, 606,L
2025-03-18 11:31:26.594,646, 637, 454, 5, -8, 1, -16, 14, 39, 873, 787, 610,L
2025-03-18 11:31:26.651,683, 609, 400, 2, -7, -6, -17, 16, 38, 866, 797, 580,L
2025-03-18 11:31:26.708,677, 635, 442, 4, -10, -2, -16, 14, 40, 879, 823, 552,L
2025-03-18 11:31:26.765,680, 600, 435, 12, -14, 4, -18, 17, 36, 902, 863, 582,L
2025-03-18 11:31:26.823,668, 703, 319, 3, -6, -3, -19, 16, 39, 927, 874, 566,L
2025-03-18 11:31:26.880,702, 741, 448, 36, 27, 14, -17, 16, 38, 940, 846, 275,L
2025-03-18 11:31:26.934,727, 672, 273, 5, 7, -1, -17, 15, 41, 944, 825, 41,L
2025-03-18 11:31:26.992,611, 630, 380, -34, 7, 30, -18, 16, 39, 954, 920, 634,L
2025-03-18 11:31:27.049,751, 559, 388, -13, 13, 0, -18, 17, 38, 934, 890, 714,L
2025-03-18 11:31:27.106,588, 698, 429, -44, 61, -34, -16, 16, 35, 909, 825, 676,L
2025-03-18 11:31:27.409,641, 626, 437, 1, -14, -4, -17, 16, 37, 901, 829, 633,M
2025-03-18 11:31:27.465,654, 627, 426, 1, -13, -4, -18, 17, 37, 900, 828, 625,M
2025-03-18 11:31:27.523,666, 598, 418, 0, -8, -2, -17, 17, 36, 893, 822, 603,M
2025-03-18 11:31:27.580,659, 648, 442, -5, -11, -3, -19, 18, 37, 889, 850, 609,M
2025-03-18 11:31:27.637,661, 540, 538, 17, -20, 4, -20, 16, 39, 923, 884, 663,M
2025-03-18 11:31:27.695,712, 703, 206, 52, 29, 4, -17, 14, 40, 940, 866, 435,M
2025-03-18 11:31:27.752,726, 583, 259, -15, 23, 18, -17, 17, 39, 926, 845, 448,M
2025-03-18 11:31:27.814,528, 637, 528, -6, -23, -37, -17, 17, 37, 885, 873, 643,M
2025-03-18 11:31:27.867,739, 556, 428, 5, -14, -7, -16, 16, 38, 925, 905, 667,M
2025-03-18 11:31:27.929,534, 552, 373, -40, 31, 45, -18, 16, 40, 941, 902, 673,M
2025-03-18 11:31:27.986,586, 444, 482, -17, -17, -9, -16, 18, 37, 936, 907, 703,M
2025-03-18 11:31:28.044,774, 413, 609, 34, -8, -8, -19, 16, 38, 943, 916, 731,M
2025-03-18 11:31:28.100,731, 651, 211, -6, 23, 24, -18, 17, 37, 948, 902, 673,M
2025-03-18 11:31:28.162,680, 572, 303, -20, 28, -58, -18, 16, 37, 921, 868, 722,M
2025-03-18 11:31:28.420,686, 680, 430, 11, -3, -2, -18, 16, 38, 844, 741, 532,N
2025-03-18 11:31:28.478,671, 665, 427, 8, -4, -1, -16, 16, 38, 844, 737, 539,N
2025-03-18 11:31:28.535,630, 646, 457, 3, -6, -1, -16, 15, 40, 852, 731, 537,N
2025-03-18 11:31:28.592,668, 657, 413, 2, -11, -9, -16, 14, 39, 860, 752, 446,N
2025-03-18 11:31:28.650,669, 659, 403, -6, -13, -4, -15, 15, 40, 866, 819, 382,N
2025-03-18 11:31:28.707,736, 501, 398, 1, -15, -11, -19, 16, 39, 913, 881, 337,N
2025-03-18 11:31:28.760,401, 636, 309, 1, 39, 26, -18, 14, 40, 936, 857, 43,N
2025-03-18 11:31:28.817,747, 658, 316, -35, 12, 4, -17, 16, 38, 888, 813, 411,N
2025-03-18 11:31:28.878,595, 829, 496, -26, -23, 0, -17, 16, 40, 865, 874, 552,N
2025-03-18 11:31:28.932,701, 740, 244, 5, 7, 18, -18, 14, 42, 940, 898, 613,N
2025-03-18 11:31:28.990,686, 744, 296, -13, 28, 40, -15, 14, 40, 950, 867, 454,N
2025-03-18 11:31:29.047,940, 523, 488, 8, -54, -41, -20, 18, 38, 928, 918, 699,N
2025-03-18 11:31:29.108,876, 689, 177, -22, 57, -6, -18, 16, 39, 918, 895, 778,N
2025-03-18 11:31:29.378,682, 641, 439, -1, -7, 0, -17, 18, 36, 870, 782, 585,O
2025-03-18 11:31:29.436,699, 646, 413, -4, -5, 0, -18, 15, 37, 874, 783, 594,O
2025-03-18 11:31:29.490,642, 622, 479, -3, -5, 0, -17, 14, 41, 877, 800, 609,O
2025-03-18 11:31:29.547,648, 621, 474, 2, -8, 6, -17, 14, 40, 883, 829, 646,O
2025-03-18 11:31:29.600,643, 636, 448, 7, -11, 7, -17, 17, 37, 889, 834, 660,O
2025-03-18 11:31:29.658,636, 546, 437, 8, -13, -7, -18, 16, 38, 894, 869, 625,O
2025-03-18 11:31:29.718,434, 564, 465, 21, -7, -20, -17, 15, 39, 900, 874, 218,O
2025-03-18 11:31:29.772,832, 1001, 21, 56, 25, 10, -18, 13, 39, 932, 839, 63,O
2025-03-18 11:31:29.829,633, 719, 148, -41, 28, 41, -17, 16, 39, 939, 875, 484,O
2025-03-18 11:31:29.890,414, 536, 659, -28, -40, -32, -19, 18, 37, 912, 896, 715,O
2025-03-18 11:31:29.948,857, 590, 250, 11, 10, -21, -18, 16, 37, 882, 859, 712,O
2025-03-18 11:31:30.010,465, 610, 645, -36, 53, -26, -17, 15, 37, 881, 776, 604,O
2025-03-18 11:31:30.292,658, 624, 440, 3, -8, 1, -17, 16, 36, 881, 794, 541,P
2025-03-18 11:31:30.350,655, 628, 429, 3, -8, 0, -14, 17, 38, 883, 797, 541,P
2025-03-18 11:31:30.408,642, 625, 464, -3, -10, -1, -17, 15, 37, 881, 841, 540,P
2025-03-18 11:31:30.464,674, 580, 462, 15, -18, 1, -18, 17, 37, 906, 875, 550,P
2025-03-18 11:31:30.521,734, 802, 411, 7, 30, 26, -17, 16, 40, 938, 867, 393,P
2025-03-18 11:31:30.579,611, 686, 286, -25, 18, 16, -17, 17, 39, 945, 858, 47,P
2025-03-18 11:31:30.637,693, 331, 456, 30, -46, -62, -16, 17, 36, 886, 876, 498,P
2025-03-18 11:31:30.694,776, 549, 405, -6, -18, -7, -16, 14, 39, 919, 905, 709,P
2025-03-18 11:31:30.751,566, 649, 368, 2, 9, 15, -19, 17, 39, 950, 925, 738,P
2025-03-18 11:31:30.804,666, 600, 301, -1, 17, 5, -18, 18, 37, 938, 897, 617,P
2025-03-18 11:31:30.865,855, 520, 269, -30, 36, -29, -18, 17, 37, 899, 875, 652,P
2025-03-18 11:31:30.923,399, 707, 784, 2, -3, 17, -17, 18, 34, 911, 872, 689,P
2025-03-18 11:31:30.980,717, 614, 416, 15, -22, 10, -20, 14, 39, 913, 850, 689,P
2025-03-18 11:31:31.034,702, 589, 443, -8, 3, -6, -16, 18, 37, 909, 840, 662,P
2025-03-18 11:31:31.312,645, 601, 461, -4, -1, 0, -17, 16, 38, 906, 846, 616,Q
2025-03-18 11:31:31.369,638, 597, 474, -2, -1, 1, -18, 15, 39, 908, 851, 611,Q
2025-03-18 11:31:31.423,641, 590, 463, 7, -12, 7, -16, 17, 38, 910, 862, 645,Q
2025-03-18 11:31:31.480,602, 564, 475, 7, -15, -2, -18, 16, 39, 918, 888, 585,Q
2025-03-18 11:31:31.541,599, 548, 494, 27, -3, -21, -16, 15, 39, 921, 896, 191,Q
2025-03-18 11:31:31.594,822, 746, 271, 44, 22, 9, -17, 16, 40, 939, 867, 85,Q
2025-03-18 11:31:31.651,687, 679, 340, -19, 23, 33, -16, 18, 37, 944, 894, 439,Q
2025-03-18 11:31:31.710,752, 519, 474, 5, -42, -33, -17, 17, 37, 928, 910, 719,Q
2025-03-18 11:31:31.771,828, 682, 269, 14, 19, -12, -17, 18, 37, 903, 846, 611,Q
2025-03-18 11:31:31.824,443, 627, 607, 13, -3, 4, -18, 17, 37, 914, 820, 550,Q
2025-03-18 11:31:31.885,922, 999, 339, -39, -10, 29, -17, 18, 38, 947, 908, 633,Q
2025-03-18 11:31:31.943,738, 382, 396, -11, 28, 12, -17, 17, 36, 948, 895, 655,Q
2025-03-18 11:31:32.004,520, 580, 521, -25, 44, -55, -17, 16, 37, 899, 771, 657,Q
2025-03-18 11:31:32.258,688, 611, 402, 0, -6, -8, -16, 16, 36, 845, 795, 502,R
2025-03-18 11:31:32.315,665, 622, 424, 0, -5, -8, -16, 16, 36, 840, 798, 500,R
2025-03-18 11:31:32.373,646, 586, 497, 10, -24, -8, -16, 15, 37, 828, 839, 455,R
2025-03-18 11:31:32.433,629, 603, 394, 45, -9, -14, -18, 16, 40, 904, 871, 381,R
2025-03-18 11:31:32.488,667, 814, 299, 4, 44, 39, -17, 17, 38, 937, 862, 55,R
2025-03-18 11:31:32.544,674, 633, 320, -27, 21, 18, -17, 16, 36, 934, 858, 25,R
2025-03-18 11:31:32.601,792, 503, 518, 48, -56, -62, -17, 16, 38, 873, 885, 522,R
2025-03-18 11:31:32.663,514, 725, 348, -24, -12, 18, -17, 14, 41, 951, 921, 697,R
2025-03-18 11:31:32.721,595, 617, 324, -28, 20, 21, -17, 17, 39, 953, 892, 394,R
2025-03-18 11:31:32.778,919, 768, 322, 14, 10, 13, -18, 16, 40, 960, 899, 198,R
2025-03-18 11:31:32.835,735, 595, 386, -38, 13, 19, -17, 18, 38, 958, 915, 320,R
2025-03-18 11:31:32.896,454, 482, 471, -12, 43, -57, -16, 20, 35, 917, 835, 446,R
2025-03-18 11:31:33.127,637, 628, 479, -7, 2, -2, -15, 15, 37, 883, 778, 503,S
2025-03-18 11:31:33.184,620, 614, 501, -4, 1, -1, -17, 16, 35, 882, 781, 493,S
2025-03-18 11:31:33.236,659, 575, 493, 2, -4, 2, -16, 17, 35, 889, 801, 518,S
2025-03-18 11:31:33.294,662, 600, 499, -1, -4, -1, -18, 16, 37, 891, 805, 524,S
2025-03-18 11:31:33.351,661, 609, 464, -5, -3, -1, -16, 18, 36, 888, 778, 469,S
2025-03-18 11:31:33.409,647, 616, 487, 1, -6, 6, -17, 18, 37, 897, 812, 497,S
2025-03-18 11:31:33.463,674, 607, 440, -2, 1, 0, -17, 18, 36, 903, 821, 510,S
2025-03-18 11:31:33.516,640, 601, 494, 0, -4, 5, -15, 17, 39, 914, 846, 570,S
2025-03-18 11:31:33.573,629, 621, 501, 5, -21, 7, -18, 17, 39, 927, 875, 566,S
2025-03-18 11:31:33.630,651, 544, 499, 18, -7, -22, -19, 17, 37, 931, 890, 155,S
2025-03-18 11:31:33.688,903, 536, 242, 50, 10, 0, -17, 16, 39, 950, 898, 36,S
2025-03-18 11:31:33.741,503, 666, 552, 8, 16, 21, -17, 17, 38, 962, 919, 415,S
2025-03-18 11:31:33.798,641, 482, 458, 2, 12, -4, -17, 18, 37, 936, 876, 56,S
2025-03-18 11:31:33.856,1016, 563, 313, 16, 39, -39, -16, 16, 37, 825, 673, 311,S
2025-03-18 11:31:33.917,449, 681, 743, -19, 6, -13, -16, 16, 33, 819, 813, 545,S
2025-03-18 11:31:34.171,647, 627, 457, 6, -7, -1, -17, 17, 37, 820, 773, 413,T
2025-03-18 11:31:34.228,645, 629, 454, 5, -7, -1, -17, 17, 37, 821, 779, 415,T
2025-03-18 11:31:34.281,650, 615, 419, -9, -5, -6, -17, 17, 38, 812, 781, 361,T
2025-03-18 11:31:34.338,618, 626, 462, 1, -9, -9, -18, 16, 39, 812, 771, 39,T
2025-03-18 11:31:34.396,621, 629, 399, 6, -10, -7, -16, 14, 40, 798, 748, 31,T
2025-03-18 11:31:34.453,1174, 453, 366, 10, -16, -18, -19, 15, 40, 878, 836, 45,T
2025-03-18 11:31:34.514,743, 1186, 211, -42, -15, 56, -19, 17, 39, 963, 920, 406,T
2025-03-18 11:31:34.572,616, 735, 440, -19, 6, 23, -17, 17, 40, 966, 936, 695,T
2025-03-18 11:31:34.630,544, 494, 434, 14, 12, -37, -18, 18, 39, 941, 880, 705,T
2025-03-18 11:31:34.687,714, 507, 561, 12, 0, -9, -18, 17, 39, 957, 895, 575,T
2025-03-18 11:31:34.744,979, 716, 260, -4, 27, 30, -17, 14, 41, 969, 887, 246,T
2025-03-18 11:31:34.802,769, 350, 413, -6, 15, -43, -17, 16, 39, 916, 755, 612,T
2025-03-18 11:31:35.060,652, 607, 422, 8, -5, 0, -17, 15, 38, 833, 688, 434,U
2025-03-18 11:31:35.113,665, 609, 422, 8, -5, -1, -17, 16, 36, 827, 679, 434,U
2025-03-18 11:31:35.170,626, 607, 477, -1, -4, -1, -15, 17, 36, 814, 670, 407,U
2025-03-18 11:31:35.227,682, 620, 396, 5, -7, -3, -18, 18, 38, 815, 693, 406,U
2025-03-18 11:31:35.285,623, 628, 432, 0, -6, -5, -17, 15, 39, 810, 731, 416,U
2025-03-18 11:31:35.343,656, 657, 409, -10, -8, 0, -17, 14, 39, 840, 779, 383,U
2025-03-18 11:31:35.399,666, 619, 415, -4, -8, -3, -17, 14, 40, 870, 831, 228,U
2025-03-18 11:31:35.453,710, 616, 416, 2, -13, -8, -17, 15, 40, 916, 879, 49,U
2025-03-18 11:31:35.510,903, 701, 294, 35, 20, 19, -19, 15, 38, 952, 875, 30,U
2025-03-18 11:31:35.567,813, 843, 129, -16, 22, 41, -18, 16, 39, 961, 891, 212,U
2025-03-18 11:31:35.629,380, 490, 791, -2, -32, -20, -17, 17, 37, 942, 918, 645,U
2025-03-18 11:31:35.687,734, 467, 546, 30, -11, -16, -16, 16, 40, 948, 904, 536,U
2025-03-18 11:31:35.743,709, 693, 301, -14, 23, 25, -17, 16, 39, 952, 874, 434,U
2025-03-18 11:31:35.805,619, 570, 384, -17, 34, -50, -17, 17, 39, 907, 803, 634,U
2025-03-18 11:31:36.055,661, 630, 435, 17, -1, -6, -18, 15, 37, 786, 668, 347,V
2025-03-18 11:31:36.113,658, 653, 439, 15, -2, -4, -16, 16, 37, 778, 670, 345,V
2025-03-18 11:31:36.170,684, 633, 434, 7, -1, -5, -17, 17, 37, 751, 656, 323,V
2025-03-18 11:31:36.223,675, 642, 462, 4, -7, 1, -16, 17, 39, 775, 669, 202,V
2025-03-18 11:31:36.280,672, 640, 398, 2, -3, -7, -16, 15, 40, 781, 718, 293,V
2025-03-18 11:31:36.337,638, 632, 445, 24, -16, -15, -17, 14, 40, 794, 748, 240,V
2025-03-18 11:31:36.395,983, 529, 373, -12, -8, -5, -17, 14, 40, 898, 872, 39,V
2025-03-18 11:31:36.456,881, 974, 214, -22, 20, 29, -17, 13, 41, 949, 882, 300,V
2025-03-18 11:31:36.513,721, 710, 280, -10, 13, 22, -18, 15, 40, 952, 867, 52,V
2025-03-18 11:31:36.571,476, 408, 467, 3, -25, -15, -18, 18, 38, 942, 924, 617,V
2025-03-18 11:31:36.628,839, 516, 170, -38, 60, -23, -18, 18, 38, 914, 818, 649,V
2025-03-18 11:31:36.908,696, 667, 396, -1, -1, 0, -17, 14, 38, 806, 659, 349,W
2025-03-18 11:31:36.964,679, 630, 395, 0, 1, -2, -17, 17, 38, 806, 648, 354,W
2025-03-18 11:31:37.021,618, 630, 453, 10, -4, -9, -18, 16, 38, 783, 641, 268,W
2025-03-18 11:31:37.074,657, 700, 425, 8, -19, -4, -17, 15, 37, 779, 730, 218,W
2025-03-18 11:31:37.132,753, 617, 447, -8, -12, 1, -19, 16, 39, 883, 872, 67,W
2025-03-18 11:31:37.189,877, 904, 350, -24, 14, 27, -17, 15, 39, 937, 883, 353,W
2025-03-18 11:31:37.251,544, 556, 336, -27, 15, 18, -17, 17, 39, 947, 886, 251,W
2025-03-18 11:31:37.308,618, 433, 609, -11, -36, -22, -17, 18, 38, 942, 919, 563,W
2025-03-18 11:31:37.365,668, 932, 287, 33, 30, 40, -17, 17, 39, 950, 893, 590,W
2025-03-18 11:31:37.423,710, 789, 179, -28, 8, 11, -17, 16, 38, 958, 915, 443,W
2025-03-18 11:31:37.485,898, 612, 126, -27, 37, -33, -18, 16, 37, 937, 897, 679,W
2025-03-18 11:31:37.734,658, 638, 471, -9, -7, 3, -18, 17, 37, 885, 655, 374,X
2025-03-18 11:31:37.791,661, 612, 454, -8, -7, 2, -17, 16, 38, 887, 648, 368,X
2025-03-18 11:31:37.849,654, 584, 468, 1, -9, 2, -17, 16, 38, 890, 690, 378,X
2025-03-18 11:31:37.906,699, 622, 419, -2, -4, -3, -17, 18, 37, 886, 747, 448,X
2025-03-18 11:31:37.958,670, 611, 449, -6, -3, -5, -15, 15, 39, 886, 776, 498,X
2025-03-18 11:31:38.017,663, 636, 419, -8, -7, 0, -17, 17, 39, 904, 819, 518,X
2025-03-18 11:31:38.074,656, 614, 500, 2, -22, 12, -18, 18, 38, 934, 875, 545,X
2025-03-18 11:31:38.132,592, 445, 556, 16, -3, -15, -18, 17, 39, 946, 896, 339,X
2025-03-18 11:31:38.189,1339, 686, 361, 39, 15, -2, -19, 17, 40, 942, 851, 82,X
2025-03-18 11:31:38.246,848, 613, 549, -41, 20, 7, -16, 17, 38, 864, 758, 84,X
2025-03-18 11:31:38.303,570, 855, 468, 10, -20, 0, -19, 16, 39, 890, 873, 389,X
2025-03-18 11:31:38.361,787, 970, 212, -14, 18, 30, -20, 15, 40, 963, 904, 494,X
2025-03-18 11:31:38.418,670, 564, 491, -22, 19, 13, -18, 18, 38, 947, 856, 632,X
2025-03-18 11:31:38.479,635, 652, 541, -12, 23, -41, -17, 18, 37, 856, 701, 551,X
2025-03-18 11:31:38.741,630, 616, 469, -8, -2, -4, -17, 16, 39, 824, 664, 360,Y
2025-03-18 11:31:38.795,649, 628, 453, -5, -3, -4, -18, 17, 38, 820, 664, 357,Y
2025-03-18 11:31:38.852,665, 630, 430, 2, -8, -4, -18, 16, 37, 807, 697, 347,Y
2025-03-18 11:31:38.909,638, 635, 458, -1, -7, -8, -18, 16, 38, 770, 729, 329,Y
2025-03-18 11:31:38.967,662, 628, 442, -5, -5, -2, -18, 15, 39, 793, 767, 327,Y
2025-03-18 11:31:39.024,656, 676, 418, -7, 4, 0, -16, 15, 40, 814, 757, 349,Y
2025-03-18 11:31:39.077,624, 624, 445, 2, -4, -3, -17, 16, 39, 827, 772, 368,Y
2025-03-18 11:31:39.135,584, 662, 488, 1, -20, 0, -16, 15, 39, 859, 822, 327,Y
2025-03-18 11:31:39.192,729, 728, 455, 12, -20, -13, -18, 16, 39, 938, 894, 123,Y
2025-03-18 11:31:39.250,581, 221, 211, 3, 32, 41, -18, 16, 41, 968, 919, 604,Y
2025-03-18 11:31:39.307,766, 485, 335, -18, 28, 13, -18, 16, 39, 952, 906, 669,Y
2025-03-18 11:31:39.368,478, 709, 756, -3, -21, -6, -19, 16, 38, 932, 891, 707,Y
2025-03-18 11:31:39.426,303, 1126, 416, 81, 23, 16, -18, 16, 41, 960, 898, 459,Y
2025-03-18 11:31:39.479,777, 574, 70, 13, 24, 10, -18, 17, 40, 949, 815, 35,Y
2025-03-18 11:31:39.540,805, 436, 375, -14, 29, -58, -17, 16, 40, 839, 671, 534,Y
2025-03-18 11:31:39.597,475, 621, 712, -30, -15, -7, -17, 15, 37, 854, 801, 530,Y
2025-03-18 11:31:39.860,631, 611, 467, -2, -3, -5, -18, 18, 36, 840, 725, 376,Z
2025-03-18 11:31:39.917,628, 586, 477, 0, -4, -6, -16, 16, 40, 837, 728, 372,Z
2025-03-18 11:31:39.975,633, 632, 448, 1, -8, -11, -17, 17, 38, 801, 745, 308,Z
2025-03-18 11:31:40.028,557, 619, 519, 8, -17, 2, -18, 16, 39, 856, 767, 79,Z
2025-03-18 11:31:40.086,593, 742, 336, 3, -14, -14, -19, 14, 40, 930, 875, 95,Z
2025-03-18 11:31:40.147,815, 1038, 410, -83, -2, 38, -16, 14, 41, 967, 929, 510,Z
2025-03-18 11:31:40.205,585, 600, 559, 37, 13, 12, -19, 15, 42, 967, 907, 668,Z
2025-03-18 11:31:40.262,781, 661, 430, -27, 14, -14, -18, 15, 41, 951, 713, 44,Z
2025-03-18 11:31:40.315,908, 842, 504, -8, -3, 16, -18, 16, 36, 963, 912, 58,Z
2025-03-18 11:31:40.372,587, 643, 377, -10, 4, 15, -18, 18, 37, 955, 921, 637,Z
2025-03-18 11:31:40.430,395, 525, 416, 27, 2, -73, -18, 15, 38, 913, 827, 662,Z
2025-03-18 11:31:40.491,3200, 308, 9, -44, -20, -13, -16, 13, 40, 946, 906, 545,Z
2025-03-18 11:31:40.549,880, 724, 311, -25, 15, 30, -17, 15, 40, 965, 929, 697,Z
2025-03-18 11:31:40.606,676, 473, 241, 1, 46, -51, -19, 16, 39, 917, 810, 699,Z
2025-03-18 11:31:40.859,676, 650, 427, -10, 3, 0, -20, 17, 38, 893, 771, 498,a
2025-03-18 11:31:40.917,658, 630, 431, -10, 2, 0, -14, 14, 39, 892, 767, 498,a
2025-03-18 11:31:40.974,665, 626, 431, -4, -3, 1, -18, 17, 38, 895, 765, 469,a
2025-03-18 11:31:41.031,670, 625, 424, -3, 1, -1, -17, 17, 38, 899, 781, 501,a
2025-03-18 11:31:41.085,674, 619, 438, 0, 0, 5, -18, 15, 39, 908, 798, 537,a
2025-03-18 11:31:41.138,600, 599, 467, 4, -8, 13, -18, 17, 37, 925, 802, 579,a
2025-03-18 11:31:41.199,700, 666, 336, -13, -6, -7, -19, 16, 39, 940, 880, 351,a
2025-03-18 11:31:41.256,825, 615, 424, 14, -4, -19, -18, 17, 40, 941, 875, 53,a
2025-03-18 11:31:41.310,561, 871, 69, -56, 38, 50, -18, 16, 40, 963, 890, 52,a
2025-03-18 11:31:41.371,578, 498, 791, -16, -27, -6, -17, 17, 38, 960, 928, 466,a
2025-03-18 11:31:41.428,666, 608, 367, 23, -7, -8, -17, 15, 42, 957, 912, 570,a
2025-03-18 11:31:41.486,770, 648, 418, -24, 17, 20, -16, 17, 37, 955, 874, 350,a
2025-03-18 11:31:41.781,676, 631, 396, 4, -6, -9, -18, 17, 39, 847, 711, 257,b
2025-03-18 11:31:41.839,674, 646, 397, 3, -6, -8, -17, 14, 40, 846, 719, 251,b
2025-03-18 11:31:41.896,619, 639, 458, -2, -12, -7, -19, 16, 38, 824, 795, 359,b
2025-03-18 11:31:41.954,646, 611, 498, -1, -11, 2, -18, 16, 39, 869, 866, 346,b
2025-03-18 11:31:42.006,828, 643, 349, 18, 6, 2, -20, 16, 40, 940, 887, 220,b
2025-03-18 11:31:42.064,806, 353, 526, 10, 37, 35, -20, 15, 39, 959, 864, 53,b
2025-03-18 11:31:42.117,660, 541, 527, 3, 3, -3, -16, 14, 41, 920, 829, 47,b
2025-03-18 11:31:42.174,786, 756, 547, -16, -8, 5, -19, 17, 39, 937, 899, 638,b
2025-03-18 11:31:42.232,628, 751, 354, -3, 17, 18, -19, 17, 38, 961, 916, 567,b
2025-03-18 11:31:42.288,664, 519, 383, 7, 9, -9, -17, 17, 38, 937, 811, 276,b
2025-03-18 11:31:42.346,643, 682, 376, -21, 42, -38, -16, 17, 38, 865, 673, 426,b
2025-03-18 11:31:42.617,668, 652, 416, -8, -1, 1, -16, 15, 40, 863, 733, 393,c
2025-03-18 11:31:42.670,656, 635, 409, -9, -1, 1, -17, 16, 37, 868, 737, 390,c
2025-03-18 11:31:42.727,650, 627, 442, -3, -2, 2, -16, 18, 36, 895, 765, 403,c
2025-03-18 11:31:42.785,673, 626, 423, 1, -1, 1, -17, 16, 40, 904, 792, 447,c
2025-03-18 11:31:42.838,659, 613, 450, -3, 0, 5, -19, 17, 39, 910, 797, 506,c
2025-03-18 11:31:42.895,637, 643, 487, 7, -14, 6, -17, 15, 38, 920, 812, 480,c
2025-03-18 11:31:42.953,703, 658, 391, -17, -7, -12, -17, 16, 39, 930, 879, 261,c
2025-03-18 11:31:43.009,682, 500, 519, 21, -3, -19, -17, 14, 41, 948, 888, 60,c
2025-03-18 11:31:43.067,836, 988, 295, -18, 44, 35, -16, 15, 41, 969, 898, 77,c
2025-03-18 11:31:43.124,536, 513, 540, -4, -4, 13, -18, 16, 40, 949, 907, 629,c
2025-03-18 11:31:43.181,583, 638, 445, -20, 53, -41, -15, 15, 39, 895, 786, 621,c
2025-03-18 11:31:43.456,637, 609, 471, -2, -2, 4, -15, 15, 39, 871, 730, 462,d
2025-03-18 11:31:43.510,643, 613, 475, 2, -3, 5, -18, 18, 36, 875, 736, 475,d
2025-03-18 11:31:43.567,665, 609, 428, 2, -4, 8, -16, 15, 40, 894, 752, 526,d
2025-03-18 11:31:43.620,669, 612, 413, 0, -12, 5, -17, 17, 38, 898, 773, 463,d
2025-03-18 11:31:43.681,662, 566, 397, -11, -5, -13, -18, 17, 38, 911, 868, 249,d
2025-03-18 11:31:43.734,809, 554, 552, 30, 1, -18, -17, 15, 40, 929, 868, 34,d
2025-03-18 11:31:43.792,707, 640, 376, -78, 26, 28, -18, 15, 39, 959, 876, 51,d
2025-03-18 11:31:43.853,550, 475, 569, -33, -15, 8, -17, 18, 39, 954, 915, 185,d
2025-03-18 11:31:43.911,708, 423, 561, -21, -24, -28, -17, 17, 39, 934, 922, 491,d
2025-03-18 11:31:43.968,832, 1002, 137, 2, 35, 29, -17, 16, 40, 959, 906, 213,d
2025-03-18 11:31:44.025,761, 572, 382, 0, 10, 1, -16, 16, 39, 947, 852, 251,d
2025-03-18 11:31:44.304,650, 636, 439, 0, -1, 1, -16, 15, 38, 898, 777, 437,e
2025-03-18 11:31:44.357,652, 625, 438, 0, 0, 3, -18, 19, 34, 898, 785, 448,e
2025-03-18 11:31:44.411,671, 601, 439, 2, -2, 0, -19, 17, 37, 905, 815, 502,e
2025-03-18 11:31:44.467,642, 605, 457, 4, -2, -2, -17, 16, 39, 907, 823, 516,e
2025-03-18 11:31:44.526,652, 567, 478, 10, -10, 0, -16, 16, 40, 913, 831, 308,e
2025-03-18 11:31:44.578,983, 803, 363, 0, 0, 13, -17, 16, 39, 960, 905, 374,e
2025-03-18 11:31:44.640,595, 638, 564, -20, -2, 12, -14, 15, 41, 963, 931, 568,e
2025-03-18 11:31:44.696,603, 413, 423, 19, -14, -29, -18, 17, 38, 949, 928, 604,e
2025-03-18 11:31:44.750,936, 967, 226, 58, 13, 2, -18, 16, 40, 960, 899, 46,e
2025-03-18 11:31:44.812,642, 612, 318, -16, 20, 26, -17, 16, 38, 963, 917, 455,e
2025-03-18 11:31:44.869,656, 528, 306, -26, 31, -43, -15, 15, 36, 914, 821, 677,e
2025-03-18 11:31:45.157,635, 607, 494, -3, 6, 8, -17, 16, 37, 889, 709, 475,f
2025-03-18 11:31:45.209,649, 592, 482, 1, 4, 9, -18, 16, 38, 889, 708, 465,f
2025-03-18 11:31:45.266,664, 615, 446, -3, 2, 7, -17, 17, 38, 897, 732, 445,f
2025-03-18 11:31:45.324,667, 599, 452, 4, -5, 11, -17, 17, 38, 917, 757, 379,f
2025-03-18 11:31:45.377,648, 601, 288, -8, 6, -3, -17, 19, 38, 929, 849, 53,f
2025-03-18 11:31:45.439,934, 799, 392, -11, -48, -36, -17, 17, 38, 938, 924, 484,f
2025-03-18 11:31:45.496,727, 778, 387, 5, -10, 10, -19, 16, 37, 962, 924, 681,f
2025-03-18 11:31:45.549,542, 485, 348, -7, 36, 1, -17, 17, 37, 949, 896, 656,f
2025-03-18 11:31:45.610,594, 650, 530, 19, -23, -8, -17, 18, 37, 935, 831, 445,f
2025-03-18 11:31:45.666,815, 775, 311, -14, 0, 11, -17, 14, 39, 964, 926, 592,f
2025-03-18 11:31:45.722,708, 444, 466, -10, 19, 4, -18, 16, 39, 959, 912, 717,f
2025-03-18 11:31:45.988,673, 635, 412, -3, -1, 6, -17, 18, 38, 918, 740, 639,g
2025-03-18 11:31:46.045,658, 624, 424, -5, -1, 7, -17, 18, 38, 920, 743, 646,g
2025-03-18 11:31:46.102,572, 597, 488, 3, -12, 11, -17, 17, 39, 929, 772, 657,g
2025-03-18 11:31:46.158,755, 694, 344, -2, -4, -11, -17, 16, 38, 938, 858, 579,g
2025-03-18 11:31:46.217,706, 479, 572, -3, -7, -22, -18, 16, 39, 943, 871, 63,g
2025-03-18 11:31:46.274,794, 892, 239, -24, 38, 42, -20, 16, 38, 966, 892, 59,g
2025-03-18 11:31:46.331,605, 576, 544, -16, 4, 13, -16, 19, 37, 956, 905, 403,g
2025-03-18 11:31:46.389,723, 632, 522, 16, -8, -12, -18, 18, 38, 945, 877, 635,g
2025-03-18 11:31:46.446,671, 708, 396, -20, 31, 24, -17, 19, 39, 964, 883, 52,g
2025-03-18 11:31:46.504,682, 450, 432, -15, 8, -15, -18, 17, 37, 927, 687, 56,g
2025-03-18 11:31:46.561,633, 717, 439, -11, 45, -47, -16, 14, 36, 689, 569, 179,g
2025-03-18 11:31:46.827,654, 625, 429, -1, -15, 0, -18, 16, 38, 841, 725, 462,h
2025-03-18 11:31:46.885,653, 632, 422, -1, -14, -1, -16, 15, 37, 844, 748, 476,h
2025-03-18 11:31:46.942,621, 637, 388, 4, -16, 1, -18, 16, 40, 863, 835, 543,h
2025-03-18 11:31:46.999,693, 566, 460, 8, -18, -1, -17, 17, 40, 919, 869, 504,h
2025-03-18 11:31:47.057,773, 624, 488, 26, 34, 27, -18, 16, 40, 953, 872, 294,h
2025-03-18 11:31:47.110,743, 591, 247, -4, 17, 14, -18, 15, 40, 957, 845, 52,h
2025-03-18 11:31:47.171,808, 424, 542, 0, -29, -18, -16, 16, 40, 932, 856, 309,h
2025-03-18 11:31:47.225,499, 677, 387, -7, 4, 15, -19, 18, 40, 963, 896, 432,h
2025-03-18 11:31:47.286,769, 616, 385, -17, 18, 14, -15, 17, 40, 962, 857, 403,h
2025-03-18 11:31:47.343,602, 588, 480, 1, 26, -42, -15, 16, 37, 912, 765, 571,h
2025-03-18 11:31:47.605,669, 601, 436, -2, -1, 1, -17, 17, 37, 912, 761, 544,i
2025-03-18 11:31:47.662,667, 610, 438, -4, -1, 1, -15, 15, 39, 913, 761, 541,i
2025-03-18 11:31:47.715,678, 601, 445, 0, -4, 0, -18, 17, 38, 913, 776, 539,i
2025-03-18 11:31:47.772,678, 614, 420, -4, 0, -3, -19, 18, 36, 915, 777, 527,i
2025-03-18 11:31:47.831,669, 602, 445, -6, -3, -3, -18, 17, 36, 917, 796, 540,i
2025-03-18 11:31:47.887,606, 605, 508, 5, -15, 6, -17, 17, 38, 929, 830, 534,i
2025-03-18 11:31:47.945,700, 498, 370, -2, -1, -4, -17, 18, 39, 955, 882, 410,i
2025-03-18 11:31:47.998,993, 705, 383, -8, 17, 18, -17, 17, 37, 969, 886, 53,i
2025-03-18 11:31:48.060,797, 59, 568, -1, -21, -52, -17, 18, 37, 944, 868, 470,i
2025-03-18 11:31:48.117,461, 491, 781, 1, -54, 13, -17, 16, 37, 935, 914, 640,i
2025-03-18 11:31:48.170,701, 696, 156, 10, 10, 5, -16, 16, 39, 952, 914, 579,i
2025-03-18 11:31:48.228,632, 427, 429, -22, 36, -6, -18, 16, 39, 929, 813, 606,i
2025-03-18 11:31:48.506,646, 595, 468, -6, 3, 13, -17, 16, 38, 920, 561, 473,j
2025-03-18 11:31:48.560,622, 600, 463, -6, 1, 11, -18, 19, 36, 921, 567, 476,j
2025-03-18 11:31:48.617,657, 568, 475, -4, -2, 0, -18, 19, 35, 923, 569, 480,j
2025-03-18 11:31:48.674,701, 577, 416, -1, -1, -5, -17, 18, 37, 915, 578, 486,j
2025-03-18 11:31:48.732,669, 601, 436, 3, -3, -4, -17, 17, 38, 907, 606, 541,j
2025-03-18 11:31:48.785,652, 572, 484, 3, -9, 5, -17, 18, 39, 922, 700, 516,j
2025-03-18 11:31:48.842,698, 750, 489, -12, 11, 17, -17, 18, 39, 956, 767, 207,j
2025-03-18 11:31:48.900,694, 565, 342, -59, 23, 25, -16, 20, 38, 959, 818, 54,j
2025-03-18 11:31:48.958,913, 57, 493, 83, -54, -125, -17, 19, 38, 911, 827, 53,j
2025-03-18 11:31:49.014,519, 291, 701, 28, -56, 7, -17, 18, 38, 943, 924, 469,j
2025-03-18 11:31:49.072,827, 823, 211, -8, 24, 28, -18, 17, 40, 957, 907, 501,j
2025-03-18 11:31:49.133,626, 353, 379, -18, 39, -24, -17, 19, 38, 926, 712, 430,j
2025-03-18 11:31:49.420,658, 606, 456, -2, -6, 0, -17, 16, 38, 889, 549, 402,k
2025-03-18 11:31:49.478,667, 603, 442, -2, -6, -1, -19, 17, 36, 890, 571, 406,k
2025-03-18 11:31:49.535,684, 607, 450, -2, -8, -1, -19, 18, 36, 898, 703, 458,k
2025-03-18 11:31:49.591,655, 593, 425, -13, -12, -4, -16, 16, 39, 912, 799, 495,k
2025-03-18 11:31:49.654,736, 539, 462, -3, -17, -1, -17, 17, 40, 943, 869, 435,k
2025-03-18 11:31:49.707,644, 673, 406, 31, 18, 9, -18, 16, 40, 955, 844, 50,k
2025-03-18 11:31:49.764,1131, 455, 403, -5, 20, 12, -19, 17, 40, 954, 737, 64,k
2025-03-18 11:31:49.821,798, 523, 725, -36, -11, 22, -18, 17, 40, 959, 924, 66,k
2025-03-18 11:31:49.878,633, 516, 527, 25, -9, -2, -19, 19, 39, 952, 909, 379,k
2025-03-18 11:31:49.936,533, 642, 423, 28, 15, -36, -17, 16, 39, 921, 602, 344,k
2025-03-18 11:31:49.997,872, 1003, 354, -10, -5, 8, -18, 17, 40, 965, 878, 158,k
2025-03-18 11:31:50.054,669, 629, 525, -23, 16, 34, -20, 19, 37, 968, 901, 245,k
2025-03-18 11:31:50.112,548, 590, 326, -4, 48, -64, -18, 18, 38, 913, 738, 604,k
2025-03-18 11:31:50.169,535, 648, 645, 8, -7, -15, -16, 16, 36, 871, 544, 389,k
2025-03-18 11:31:50.226,701, 636, 462, 19, -22, 8, -16, 17, 37, 869, 676, 583,k
2025-03-18 11:31:50.284,695, 610, 439, 4, -3, -2, -17, 17, 38, 868, 640, 602,k
2025-03-18 11:31:50.600,664, 621, 450, -4, -2, 0, -17, 16, 38, 868, 613, 527,l
2025-03-18 11:31:50.656,663, 624, 452, -6, -2, 0, -18, 16, 39, 870, 623, 528,l
2025-03-18 11:31:50.710,664, 606, 454, -5, -7, 1, -17, 16, 38, 877, 676, 562,l
2025-03-18 11:31:50.767,687, 617, 421, 1, -6, 1, -17, 15, 39, 886, 702, 575,l
2025-03-18 11:31:50.824,684, 599, 417, -2, -1, -4, -19, 17, 37, 891, 709, 523,l
2025-03-18 11:31:50.881,663, 612, 438, -3, -5, -6, -18, 17, 36, 889, 724, 473,l
2025-03-18 11:31:50.939,669, 631, 440, -3, -8, -1, -18, 16, 37, 893, 758, 487,l
2025-03-18 11:31:50.996,653, 591, 499, -1, -16, 6, -19, 18, 39, 924, 841, 520,l
2025-03-18 11:31:51.053,754, 556, 514, 21, -6, -2, -21, 17, 41, 959, 876, 404,l
2025-03-18 11:31:51.111,742, 354, 346, -13, 25, 22, -16, 15, 38, 969, 839, 45,l
2025-03-18 11:31:51.168,769, 512, 472, -15, 16, 2, -19, 17, 38, 922, 706, 435,l
2025-03-18 11:31:51.226,597, 719, 593, -28, 20, -29, -17, 17, 38, 818, 651, 475,l
2025-03-18 11:31:51.521,668, 621, 437, 3, -1, -3, -19, 16, 39, 870, 729, 454,m
2025-03-18 11:31:51.574,662, 607, 432, 2, -2, -3, -17, 15, 39, 865, 725, 445,m
2025-03-18 11:31:51.631,671, 606, 419, 6, -4, -3, -18, 15, 39, 851, 722, 404,m
2025-03-18 11:31:51.689,662, 649, 414, 6, -5, -2, -18, 18, 39, 839, 743, 375,m
2025-03-18 11:31:51.746,711, 604, 403, -6, -14, -3, -19, 18, 39, 884, 816, 272,m
2025-03-18 11:31:51.799,667, 732, 414, 6, 13, 11, -19, 15, 39, 946, 833, 61,m
2025-03-18 11:31:51.857,783, 573, 389, -7, 13, 11, -18, 18, 40, 955, 835, 60,m
2025-03-18 11:31:51.914,582, 279, 536, 9, -33, -19, -18, 18, 39, 928, 863, 193,m
2025-03-18 11:31:51.975,605, 515, 537, -3, -12, -3, -15, 15, 41, 956, 899, 503,m
2025-03-18 11:31:52.033,756, 764, 197, -33, 28, 22, -18, 16, 39, 971, 884, 193,m
2025-03-18 11:31:52.091,625, 325, 479, 7, -21, -14, -18, 14, 40, 952, 889, 402,m
2025-03-18 11:31:52.148,676, 721, 384, 13, -5, 3, -18, 16, 39, 967, 905, 570,m
2025-03-18 11:31:52.204,762, 519, 338, -13, 23, 3, -18, 17, 38, 961, 836, 539,m
2025-03-18 11:31:52.467,667, 613, 442, -2, 1, 2, -17, 15, 39, 896, 703, 480,n
2025-03-18 11:31:52.525,666, 609, 436, -1, 1, 2, -17, 16, 38, 895, 696, 479,n
2025-03-18 11:31:52.577,666, 606, 435, 0, -1, -2, -18, 16, 37, 883, 639, 418,n
2025-03-18 11:31:52.635,656, 618, 451, 2, -1, -2, -17, 14, 39, 878, 552, 352,n
2025-03-18 11:31:52.693,679, 612, 417, 7, -4, -1, -18, 14, 39, 881, 594, 417,n
2025-03-18 11:31:52.750,660, 623, 415, 4, -2, -2, -18, 15, 39, 882, 663, 427,n
2025-03-18 11:31:52.807,623, 617, 434, 0, -11, -5, -17, 14, 40, 879, 733, 397,n
2025-03-18 11:31:52.864,713, 355, 387, -10, -10, -11, -19, 17, 38, 933, 842, 286,n
2025-03-18 11:31:52.921,563, 826, 252, -1, 33, 25, -16, 15, 41, 964, 845, 33,n
2025-03-18 11:31:52.978,737, 662, 416, -11, 10, 8, -17, 16, 38, 948, 870, 64,n
2025-03-18 11:31:53.036,610, 753, 469, -12, -18, -7, -18, 15, 40, 957, 909, 415,n
2025-03-18 11:31:53.094,652, 850, 174, -8, 27, 25, -18, 16, 41, 969, 895, 367,n
2025-03-18 11:31:53.151,731, 414, 464, -13, 14, -21, -18, 18, 39, 946, 807, 513,n
2025-03-18 11:31:53.213,615, 603, 575, -13, 2, -28, -18, 17, 38, 902, 764, 535,n
2025-03-18 11:31:53.266,616, 654, 489, 9, -10, 3, -17, 15, 38, 894, 756, 560,n
2025-03-18 11:31:53.322,697, 607, 410, 1, -3, 6, -18, 16, 38, 900, 755, 552,n
2025-03-18 11:31:53.603,679, 640, 423, -2, -1, 2, -17, 16, 38, 889, 633, 456,o
2025-03-18 11:31:53.659,677, 623, 420, -4, -1, 1, -18, 18, 37, 891, 646, 461,o
2025-03-18 11:31:53.713,666, 620, 436, -3, 0, 0, -17, 15, 38, 894, 672, 452,o
2025-03-18 11:31:53.770,666, 607, 435, -4, 0, 0, -17, 17, 38, 896, 683, 466,o
2025-03-18 11:31:53.826,666, 623, 449, -1, -2, -1, -18, 16, 39, 893, 682, 460,o
2025-03-18 11:31:53.880,671, 608, 438, -2, -1, 1, -18, 15, 37, 895, 684, 458,o
2025-03-18 11:31:53.937,671, 601, 442, -2, -2, 0, -17, 17, 39, 897, 698, 453,o
2025-03-18 11:31:53.995,673, 611, 435, -4, -3, -2, -17, 16, 40, 903, 724, 481,o
2025-03-18 11:31:54.051,697, 585, 450, 1, -2, 2, -19, 15, 41, 915, 773, 522,o
2025-03-18 11:31:54.105,654, 617, 458, 4, -5, 4, -17, 15, 39, 926, 799, 584,o
2025-03-18 11:31:54.162,698, 597, 412, -2, 1, -2, -18, 18, 37, 922, 811, 588,o
2025-03-18 11:31:54.215,685, 612, 427, 2, 2, -2, -18, 17, 40, 922, 785, 581,o
2025-03-18 11:31:54.269,661, 628, 425, 4, 0, 5, -17, 18, 37, 926, 762, 640,o
2025-03-18 11:31:54.326,625, 622, 464, -5, -3, 4, -19, 16, 39, 934, 808, 647,o
2025-03-18 11:31:54.388,763, 540, 430, -6, -11, -16, -19, 17, 39, 938, 874, 417,o
2025-03-18 11:31:54.441,1093, 505, 368, 65, 2, -22, -19, 18, 39, 950, 856, 64,o
2025-03-18 11:31:54.503,700, 552, 301, -41, 41, 51, -18, 17, 38, 971, 909, 130,o
2025-03-18 11:31:54.560,325, 191, 783, 5, -41, -41, -18, 18, 37, 959, 937, 585,o
2025-03-18 11:31:54.617,986, 684, 211, -1, 22, -39, -18, 15, 38, 907, 870, 651,o
2025-03-18 11:31:55.220,655, 627, 440, -2, 0, -2, -17, 17, 37, 798, 415, 276,p
2025-03-18 11:31:55.277,650, 625, 440, -1, 0, -2, -16, 16, 38, 795, 416, 279,p
2025-03-18 11:31:55.330,656, 635, 450, 1, -2, -1, -17, 15, 37, 773, 436, 306,p
2025-03-18 11:31:55.388,650, 626, 475, 5, -6, -1, -18, 16, 35, 757, 420, 331,p
2025-03-18 11:31:55.445,666, 623, 436, 8, -5, -3, -18, 17, 37, 765, 457, 355,p
2025-03-18 11:31:55.498,663, 629, 426, -4, 0, 1, -17, 16, 37, 782, 480, 356,p
2025-03-18 11:31:55.555,646, 629, 442, 4, -4, 5, -17, 16, 40, 798, 498, 353,p
2025-03-18 11:31:55.608,679, 643, 398, 3, -3, 2, -18, 14, 38, 820, 533, 357,p
2025-03-18 11:31:55.665,683, 644, 406, -4, 1, -3, -18, 16, 39, 820, 560, 366,p
2025-03-18 11:31:55.723,637, 645, 419, -14, -5, -4, -17, 17, 36, 848, 631, 410,p
2025-03-18 11:31:55.780,689, 622, 463, -20, -23, 6, -18, 16, 40, 902, 828, 380,p
2025-03-18 11:31:55.838,602, 623, 303, 28, 43, 35, -18, 15, 40, 958, 861, 128,p
2025-03-18 11:31:55.891,649, 708, 153, 4, 28, 22, -17, 16, 39, 961, 842, 63,p
2025-03-18 11:31:55.953,438, 421, 631, 41, -51, -59, -17, 16, 38, 910, 866, 552,p
2025-03-18 11:31:56.010,643, 563, 419, -7, -20, 0, -18, 16, 40, 946, 916, 659,p
2025-03-18 11:31:56.067,770, 791, 264, 0, 22, 17, -17, 15, 41, 955, 870, 496,p
2025-03-18 11:31:56.124,984, 354, 350, -26, 37, -43, -17, 17, 39, 890, 639, 445,p
2025-03-18 11:31:56.186,394, 647, 834, -24, 13, -12, -16, 16, 39, 838, 679, 346,p
2025-03-18 11:31:56.243,598, 653, 495, 17, -32, 21, -17, 16, 37, 852, 746, 448,p
2025-03-18 11:31:56.297,752, 564, 349, 4, -3, 4, -17, 16, 37, 855, 747, 483,p
2025-03-18 11:31:56.354,628, 637, 492, -5, 2, -1, -17, 15, 39, 856, 725, 447,p
2025-03-18 11:31:56.411,665, 640, 434, -2, -4, 3, -17, 15, 39, 859, 726, 451,p
2025-03-18 11:31:56.465,682, 615, 444, 0, -4, 3, -17, 15, 37, 857, 724, 436,p
2025-03-18 11:31:56.521,669, 616, 440, -2, 2, -2, -16, 18, 36, 860, 721, 437,p
2025-03-18 11:31:56.771,646, 625, 452, 0, -3, -1, -19, 17, 36, 835, 643, 377,q
2025-03-18 11:31:56.829,663, 640, 434, 0, -2, -2, -16, 15, 38, 833, 631, 377,q
2025-03-18 11:31:56.886,678, 628, 422, -2, -2, -1, -15, 14, 40, 827, 621, 375,q
2025-03-18 11:31:56.943,656, 633, 432, -3, 0, -1, -17, 19, 37, 830, 641, 385,q
2025-03-18 11:31:57.000,666, 625, 437, -2, -2, 0, -18, 16, 37, 835, 675, 387,q
2025-03-18 11:31:57.054,658, 622, 438, 1, -2, 3, -18, 17, 39, 846, 712, 423,q
2025-03-18 11:31:57.107,699, 625, 398, 4, -3, 0, -17, 17, 39, 850, 716, 448,q
2025-03-18 11:31:57.165,667, 645, 427, 0, 1, 3, -18, 17, 37, 873, 731, 487,q
2025-03-18 11:31:57.218,611, 644, 436, 4, -6, 8, -20, 15, 39, 897, 739, 505,q
2025-03-18 11:31:57.275,625, 541, 366, 1, -3, -9, -19, 16, 39, 912, 807, 419,q
2025-03-18 11:31:57.332,686, 519, 405, 18, -8, -17, -18, 16, 40, 928, 806, 45,q
2025-03-18 11:31:57.390,706, 690, 251, -36, 23, 22, -18, 16, 40, 956, 848, 48,q
2025-03-18 11:31:57.447,616, 480, 503, -16, -9, 0, -17, 16, 39, 938, 853, 307,q
2025-03-18 11:31:57.504,618, 435, 563, 32, -9, -16, -19, 15, 40, 940, 840, 366,q
2025-03-18 11:31:57.558,620, 623, 207, 1, 19, 23, -17, 15, 40, 963, 804, 33,q
2025-03-18 11:31:57.615,675, 489, 613, -12, -6, 7, -18, 15, 39, 940, 864, 539,q
2025-03-18 11:31:57.676,575, 528, 467, -27, 56, -41, -16, 16, 38, 858, 722, 657,q
2025-03-18 11:31:57.734,534, 605, 543, -16, -8, -3, -14, 16, 36, 819, 667, 561,q
2025-03-18 11:31:57.791,653, 603, 493, 3, -14, 9, -18, 16, 35, 825, 660, 536,q
2025-03-18 11:31:57.845,692, 611, 437, 4, -9, 3, -17, 16, 36, 832, 661, 488,q
2025-03-18 11:31:57.902,687, 625, 436, -1, 2, -2, -17, 16, 36, 839, 666, 490,q
2025-03-18 11:31:58.140,643, 622, 443, 1, -1, -2, -16, 14, 38, 826, 623, 417,r
2025-03-18 11:31:58.197,648, 612, 436, 2, -1, -3, -16, 14, 38, 819, 604, 422,r
2025-03-18 11:31:58.250,649, 637, 458, 4, -6, 1, -17, 18, 37, 787, 577, 400,r
2025-03-18 11:31:58.307,697, 607, 414, 4, -5, -1, -17, 15, 36, 798, 591, 428,r
2025-03-18 11:31:58.365,653, 626, 446, 2, 0, -4, -18, 18, 37, 804, 587, 433,r
2025-03-18 11:31:58.418,658, 621, 435, -1, -1, -2, -17, 16, 37, 807, 584, 427,r
2025-03-18 11:31:58.476,693, 636, 411, -4, -2, 1, -16, 14, 37, 815, 572, 445,r
2025-03-18 11:31:58.533,658, 637, 428, -4, -5, -1, -16, 15, 39, 832, 630, 449,r
2025-03-18 11:31:58.590,617, 630, 504, -7, -20, 6, -16, 15, 40, 871, 771, 501,r
2025-03-18 11:31:58.652,710, 635, 482, -13, -11, -4, -19, 16, 37, 935, 858, 361,r
2025-03-18 11:31:58.709,718, 762, 377, -47, 34, 28, -18, 17, 38, 960, 832, 46,r
2025-03-18 11:31:58.767,716, 417, 629, -32, -11, -3, -17, 19, 37, 945, 889, 52,r
2025-03-18 11:31:58.820,810, 589, 324, 7, 2, -4, -18, 19, 38, 928, 849, 547,r
2025-03-18 11:31:58.881,578, 612, 474, -22, 57, -18, -18, 19, 38, 911, 581, 353,r
2025-03-18 11:31:59.213,667, 599, 466, -2, -3, 1, -17, 17, 37, 847, 671, 380,s
2025-03-18 11:31:59.270,663, 606, 475, -2, -4, 1, -17, 19, 36, 850, 679, 383,s
2025-03-18 11:31:59.327,694, 599, 438, -4, -2, 0, -15, 16, 37, 857, 703, 400,s
2025-03-18 11:31:59.381,666, 587, 478, -6, -1, 1, -17, 18, 36, 878, 735, 422,s
2025-03-18 11:31:59.438,684, 616, 443, 2, -3, 7, -17, 17, 37, 903, 763, 518,s
2025-03-18 11:31:59.496,668, 590, 485, 5, -11, 5, -17, 17, 38, 907, 782, 528,s
2025-03-18 11:31:59.550,695, 585, 432, 0, -1, -2, -19, 18, 38, 907, 776, 505,s
2025-03-18 11:31:59.607,670, 588, 498, -5, -6, -6, -19, 17, 38, 918, 828, 396,s
2025-03-18 11:31:59.664,759, 483, 492, 49, 2, -16, -17, 17, 37, 940, 833, 164,s
2025-03-18 11:31:59.721,631, 557, 512, -6, 11, 12, -18, 17, 38, 958, 861, 321,s
2025-03-18 11:31:59.778,652, 641, 368, -14, 16, 13, -15, 17, 37, 954, 841, 56,s
2025-03-18 11:31:59.835,638, 447, 528, 25, -6, -20, -17, 17, 37, 837, 700, 35,s
2025-03-18 11:31:59.897,743, 625, 351, -16, 20, -29, -16, 16, 38, 716, 633, 351,s
2025-03-18 11:32:00.192,646, 614, 450, -8, -9, 3, -17, 17, 36, 806, 645, 461,t
2025-03-18 11:32:00.245,645, 602, 443, -5, -9, 2, -17, 18, 37, 809, 648, 467,t
2025-03-18 11:32:00.306,671, 626, 426, -10, -5, -1, -18, 17, 38, 819, 674, 481,t
2025-03-18 11:32:00.364,669, 613, 438, -8, -14, -1, -18, 16, 39, 835, 714, 505,t
2025-03-18 11:32:00.422,638, 629, 446, -15, -10, -4, -18, 16, 40, 853, 765, 540,t
2025-03-18 11:32:00.478,679, 569, 539, -5, -21, 8, -17, 15, 41, 902, 844, 541,t
2025-03-18 11:32:00.536,620, 492, 441, 64, 20, 6, -18, 15, 40, 945, 861, 419,t
2025-03-18 11:32:00.595,914, 954, 33, -6, 32, 29, -17, 16, 38, 960, 851, 143,t
2025-03-18 11:32:00.650,680, 410, 545, -36, 7, -1, -17, 17, 39, 930, 823, 581,t
2025-03-18 11:32:00.707,560, 782, 626, -3, -29, -11, -16, 16, 38, 906, 818, 457,t
2025-03-18 11:32:00.765,784, 780, 289, -10, -4, 7, -17, 16, 38, 962, 909, 547,t
2025-03-18 11:32:00.822,726, 464, 450, -4, 16, -4, -17, 15, 40, 951, 879, 707,t
2025-03-18 11:32:01.098,649, 627, 439, 3, -1, 3, -19, 17, 37, 883, 647, 487,u
2025-03-18 11:32:01.150,656, 632, 444, 3, -3, 3, -19, 17, 37, 881, 655, 491,u
2025-03-18 11:32:01.207,673, 598, 432, 3, -3, 1, -19, 17, 37, 888, 677, 486,u
2025-03-18 11:32:01.264,669, 613, 423, -2, 0, -2, -15, 17, 36, 887, 681, 406,u
2025-03-18 11:32:01.322,651, 633, 407, -4, -7, -3, -18, 16, 40, 890, 743, 380,u
2025-03-18 11:32:01.380,645, 538, 451, -10, -1, -7, -16, 16, 40, 922, 857, 284,u
2025-03-18 11:32:01.436,735, 667, 403, 19, 17, 10, -18, 15, 40, 952, 848, 119,u
2025-03-18 11:32:01.494,896, 817, 297, -17, 11, 36, -15, 16, 39, 963, 885, 391,u
2025-03-18 11:32:01.551,688, 540, 481, -6, -26, -28, -17, 17, 37, 951, 912, 645,u
2025-03-18 11:32:01.609,821, 939, 261, 17, 16, 12, -18, 20, 39, 962, 897, 540,u
2025-03-18 11:32:01.666,781, 569, 364, -16, 17, 3, -15, 18, 38, 955, 844, 578,u
2025-03-18 11:32:01.961,647, 613, 457, 4, -3, -2, -16, 17, 39, 881, 684, 405,v
2025-03-18 11:32:02.014,660, 612, 456, 4, -4, -1, -16, 17, 39, 881, 686, 410,v
2025-03-18 11:32:02.071,679, 599, 430, 5, -3, 0, -16, 16, 38, 879, 702, 413,v
2025-03-18 11:32:02.129,635, 604, 465, 6, -5, -10, -17, 18, 37, 866, 724, 420,v
2025-03-18 11:32:02.187,666, 598, 435, 15, -16, -15, -17, 18, 38, 863, 795, 328,v
2025-03-18 11:32:02.244,772, 500, 560, 3, -10, -7, -20, 16, 39, 942, 850, 247,v
2025-03-18 11:32:02.301,350, 669, 381, -23, 34, 30, -18, 18, 38, 962, 786, 139,v
2025-03-18 11:32:02.363,729, 492, 625, -50, -11, 5, -17, 16, 39, 959, 909, 311,v
2025-03-18 11:32:02.420,870, 585, 313, 3, 13, -11, -18, 17, 39, 909, 815, 689,v
2025-03-18 11:32:02.478,508, 627, 561, -13, 43, -22, -16, 16, 36, 892, 565, 537,v
2025-03-18 11:32:02.748,651, 627, 424, 14, -2, -9, -17, 15, 39, 815, 460, 339,w
2025-03-18 11:32:02.804,668, 610, 419, 18, -4, -10, -17, 17, 38, 809, 472, 339,w
2025-03-18 11:32:02.866,630, 671, 482, 18, -26, -7, -18, 15, 39, 826, 504, 228,w
2025-03-18 11:32:02.923,656, 638, 375, -14, -5, -1, -17, 16, 39, 890, 677, 49,w
2025-03-18 11:32:02.980,700, 766, 314, -39, 11, 19, -17, 16, 40, 949, 834, 39,w
2025-03-18 11:32:03.035,663, 551, 396, -27, 14, 22, -20, 16, 40, 960, 847, 32,w
2025-03-18 11:32:03.096,721, 350, 527, 5, -21, -16, -18, 19, 38, 947, 871, 223,w
2025-03-18 11:32:03.153,696, 682, 403, 32, -8, -4, -17, 17, 38, 956, 837, 420,w
2025-03-18 11:32:03.210,653, 674, 359, -30, 6, 21, -17, 19, 37, 964, 879, 193,w
2025-03-18 11:32:03.268,873, 561, 256, -1, 20, -28, -19, 19, 37, 933, 805, 633,w
2025-03-18 11:32:03.554,678, 597, 457, 1, -5, 1, -17, 18, 39, 901, 702, 362,x
2025-03-18 11:32:03.607,687, 595, 450, 2, -5, 2, -17, 18, 35, 903, 707, 373,x
2025-03-18 11:32:03.665,676, 588, 476, 6, -6, 7, -18, 17, 36, 909, 738, 447,x
2025-03-18 11:32:03.722,634, 609, 463, -1, -11, 7, -18, 18, 38, 922, 783, 528,x
2025-03-18 11:32:03.780,699, 590, 456, -3, -16, 2, -18, 18, 39, 943, 870, 485,x
2025-03-18 11:32:03.833,392, 675, 382, 29, 13, -2, -18, 18, 39, 959, 878, 48,x
2025-03-18 11:32:03.890,687, 570, 343, -11, 25, 7, -20, 19, 37, 951, 799, 63,x
2025-03-18 11:32:03.948,682, 199, 710, 30, -33, -67, -18, 17, 37, 856, 735, 138,x
2025-03-18 11:32:04.010,756, 889, 512, -9, -26, -1, -19, 16, 37, 960, 899, 417,x
2025-03-18 11:32:04.066,538, 481, 513, -30, 27, 44, -16, 18, 39, 968, 878, 402,x
2025-03-18 11:32:04.124,681, 520, 341, -6, 28, -43, -18, 18, 39, 935, 758, 426,x
2025-03-18 11:32:04.440,681, 591, 439, 2, 0, -3, -17, 18, 36, 878, 739, 434,y
2025-03-18 11:32:04.497,675, 595, 442, 3, -1, -4, -17, 18, 39, 875, 734, 429,y
2025-03-18 11:32:04.554,664, 609, 440, -1, -2, -4, -17, 18, 39, 868, 730, 428,y
2025-03-18 11:32:04.612,666, 611, 441, -7, -4, -3, -20, 18, 37, 872, 766, 438,y
2025-03-18 11:32:04.669,667, 614, 473, -13, -14, 2, -19, 16, 38, 894, 842, 444,y
2025-03-18 11:32:04.726,678, 599, 444, 5, -9, -10, -17, 17, 40, 933, 883, 180,y
2025-03-18 11:32:04.784,1176, 834, 246, -3, 31, 31, -18, 16, 39, 966, 901, 191,y
2025-03-18 11:32:04.840,655, 561, 553, -15, 9, 21, -17, 18, 38, 962, 913, 650,y
2025-03-18 11:32:04.898,643, 530, 582, 4, -12, -13, -19, 19, 38, 942, 902, 739,y
2025-03-18 11:32:04.955,527, 797, 211, -2, 36, 38, -16, 17, 38, 970, 910, 514,y
2025-03-18 11:32:05.013,798, 490, 342, -12, 21, 19, -18, 19, 36, 959, 836, 38,y
2025-03-18 11:32:05.074,879, 572, 205, -8, 29, -67, -16, 18, 37, 873, 608, 473,y
2025-03-18 11:32:05.317,675, 623, 454, 1, -4, 1, -18, 19, 37, 796, 388, 368,z
2025-03-18 11:32:05.373,690, 618, 450, 0, -3, 0, -18, 19, 37, 804, 410, 368,z
2025-03-18 11:32:05.427,669, 601, 475, 0, -1, -2, -18, 17, 37, 823, 439, 387,z
2025-03-18 11:32:05.482,683, 617, 446, -4, -3, -1, -18, 19, 38, 826, 483, 387,z
2025-03-18 11:32:05.541,668, 612, 458, -3, -3, -1, -15, 17, 38, 838, 569, 399,z
2025-03-18 11:32:05.598,666, 606, 466, 2, -7, 1, -18, 17, 36, 841, 628, 411,z
2025-03-18 11:32:05.655,668, 591, 443, -4, -3, -2, -18, 17, 38, 860, 669, 434,z
2025-03-18 11:32:05.713,670, 602, 442, -5, -6, -4, -18, 19, 36, 874, 723, 438,z
2025-03-18 11:32:05.770,554, 577, 482, -4, -14, -3, -19, 19, 37, 891, 785, 133,z
2025-03-18 11:32:05.828,966, 645, 340, 28, -10, 2, -18, 18, 39, 959, 908, 438,z
2025-03-18 11:32:05.884,656, 597, 548, 20, 6, 22, -19, 17, 40, 969, 921, 623,z
2025-03-18 11:32:05.942,693, 569, 404, 46, 20, -16, -19, 17, 40, 957, 779, 212,z
2025-03-18 11:32:05.995,961, 820, 358, 5, 11, 19, -19, 17, 38, 969, 897, 50,z
2025-03-18 11:32:06.053,627, 462, 470, -1, 6, 21, -18, 19, 38, 971, 924, 342,z
2025-03-18 11:32:06.110,512, 444, 430, 9, 3, -49, -18, 18, 38, 937, 816, 617,z
2025-03-18 11:32:06.167,777, 652, 444, -3, -32, 18, -17, 17, 39, 947, 874, 55,z
2025-03-18 11:32:06.221,669, 654, 238, -27, 1, 23, -16, 17, 39, 971, 938, 421,z
2025-03-18 11:32:06.278,784, 499, 346, 1, 27, -14, -17, 17, 40, 953, 887, 640,z
2025-03-18 11:32:06.340,527, 637, 651, -14, 38, -36, -15, 17, 37, 911, 686, 372,z
2025-03-18 11:32:06.593,647, 596, 473, -7, 0, -3, -17, 17, 37, 876, 487, 232,0
2025-03-18 11:32:06.651,643, 612, 481, -5, -1, -2, -18, 16, 37, 877, 492, 228,0
2025-03-18 11:32:06.704,682, 615, 444, 0, 0, 2, -15, 17, 38, 872, 613, 345,0
2025-03-18 11:32:06.761,667, 610, 446, -1, -1, -3, -17, 15, 38, 849, 606, 396,0
2025-03-18 11:32:06.819,658, 613, 456, -5, -3, -5, -17, 15, 39, 852, 629, 405,0
2025-03-18 11:32:06.876,648, 613, 478, -1, -5, -3, -18, 16, 38, 866, 658, 399,0
2025-03-18 11:32:06.933,669, 603, 440, -1, -6, -2, -17, 16, 36, 875, 694, 462,0
2025-03-18 11:32:06.991,672, 606, 439, -1, -3, -4, -18, 16, 37, 882, 708, 495,0
2025-03-18 11:32:07.044,673, 615, 437, -2, -3, -3, -17, 16, 38, 886, 718, 519,0
2025-03-18 11:32:07.101,686, 634, 426, -6, -1, 2, -18, 16, 38, 892, 738, 538,0
2025-03-18 11:32:07.158,653, 623, 456, -4, -6, 5, -17, 13, 40, 903, 759, 533,0
2025-03-18 11:32:07.216,615, 605, 485, -8, -15, 4, -18, 18, 37, 911, 811, 569,0
2025-03-18 11:32:07.274,739, 574, 386, 9, -8, -7, -18, 19, 38, 913, 827, 541,0
2025-03-18 11:32:07.327,689, 650, 409, 2, 7, -2, -17, 16, 39, 916, 795, 543,0
2025-03-18 11:32:07.384,643, 648, 422, -6, -1, 4, -17, 15, 39, 917, 828, 566,0
2025-03-18 11:32:07.441,558, 585, 524, -7, -16, -16, -18, 17, 40, 923, 887, 503,0
2025-03-18 11:32:07.499,742, 710, 249, 89, 17, -18, -19, 15, 40, 956, 867, 54,0
2025-03-18 11:32:07.556,543, 439, 264, -64, 34, 50, -18, 16, 38, 971, 908, 313,0
2025-03-18 11:32:07.617,639, 322, 605, -8, -38, -29, -18, 20, 37, 955, 922, 542,0
2025-03-18 11:32:07.674,841, 666, 306, 1, 18, -21, -17, 18, 38, 895, 873, 621,0
2025-03-18 11:32:07.732,504, 638, 617, -15, 50, -7, -18, 17, 35, 892, 745, 461,0
2025-03-18 11:32:08.412,678, 666, 454, -1, -3, -5, -18, 18, 39, 673, 512, 231,1
2025-03-18 11:32:08.470,661, 665, 449, -7, -2, -2, -16, 17, 38, 684, 526, 222,1
2025-03-18 11:32:08.527,665, 623, 447, -4, -2, -1, -17, 15, 40, 737, 595, 271,1
2025-03-18 11:32:08.584,662, 619, 444, -4, -2, -1, -18, 16, 39, 769, 652, 292,1
2025-03-18 11:32:08.638,617, 606, 477, 7, -9, 0, -17, 16, 39, 777, 671, 300,1
2025-03-18 11:32:08.694,604, 581, 517, 31, -19, 1, -17, 15, 40, 787, 739, 181,1
2025-03-18 11:32:08.752,846, 520, 276, 28, -1, -6, -19, 15, 39, 906, 865, 380,1
2025-03-18 11:32:08.810,539, 495, 530, -22, 3, 19, -19, 16, 39, 947, 910, 680,1
2025-03-18 11:32:08.867,691, 653, 375, 60, 18, 15, -18, 16, 40, 963, 901, 607,1
2025-03-18 11:32:08.924,954, 695, 77, -20, 33, 27, -18, 14, 38, 963, 864, 133,1
2025-03-18 11:32:08.981,478, 371, 652, 7, -2, -52, -16, 18, 39, 921, 784, 412,1
2025-03-18 11:32:09.039,839, 895, 433, 7, -14, 0, -17, 15, 40, 957, 906, 391,1
2025-03-18 11:32:09.096,644, 565, 420, -12, 9, 31, -20, 18, 38, 961, 914, 538,1
2025-03-18 11:32:09.383,643, 626, 435, 1, -6, -5, -19, 18, 37, 737, 743, 386,2
2025-03-18 11:32:09.440,641, 635, 439, 2, -5, -4, -17, 15, 39, 737, 737, 368,2
2025-03-18 11:32:09.494,657, 620, 434, 2, -5, -4, -19, 16, 37, 744, 725, 295,2
2025-03-18 11:32:09.551,636, 645, 500, 15, -20, 2, -19, 16, 39, 793, 799, 196,2
2025-03-18 11:32:09.608,956, 681, 401, 16, -11, 0, -18, 16, 39, 929, 880, 463,2
2025-03-18 11:32:09.665,551, 566, 439, 33, 12, 19, -18, 17, 39, 958, 874, 644,2
2025-03-18 11:32:09.723,1023, 385, 480, 14, 26, 5, -19, 16, 40, 953, 740, 144,2
2025-03-18 11:32:09.780,851, 572, 329, -26, 10, 3, -18, 17, 39, 960, 896, 56,2
2025-03-18 11:32:09.837,736, 580, 408, -3, 7, 20, -19, 19, 38, 962, 910, 401,2
2025-03-18 11:32:09.894,653, 594, 283, -20, 52, -53, -17, 18, 38, 913, 734, 644,2
2025-03-18 11:32:10.157,656, 641, 414, -8, -6, -5, -16, 15, 40, 835, 722, 443,3
2025-03-18 11:32:10.214,655, 640, 402, -10, -6, -6, -21, 17, 37, 833, 729, 429,3
2025-03-18 11:32:10.276,578, 643, 476, -8, -15, -6, -20, 16, 37, 830, 731, 255,3
2025-03-18 11:32:10.333,863, 541, 395, 19, -18, -22, -18, 15, 41, 913, 847, 39,3
2025-03-18 11:32:10.390,642, 829, 199, -43, 2, 39, -17, 13, 41, 958, 910, 536,3
2025-03-18 11:32:10.444,588, 673, 506, 16, 0, 9, -17, 15, 41, 963, 902, 588,3
2025-03-18 11:32:10.501,722, 556, 314, 4, 11, -5, -17, 16, 42, 960, 896, 315,3
2025-03-18 11:32:10.559,631, 482, 417, -10, 17, 12, -19, 16, 40, 966, 908, 48,3
2025-03-18 11:32:10.617,675, 594, 415, -11, 11, 8, -17, 18, 38, 959, 871, 34,3
2025-03-18 11:32:10.673,884, 400, 394, 28, 25, -21, -17, 17, 39, 862, 648, 61,3
2025-03-18 11:32:10.984,695, 651, 381, -4, -8, -3, -17, 16, 37, 883, 758, 450,4
2025-03-18 11:32:11.041,678, 624, 387, -6, -8, -3, -18, 16, 38, 882, 763, 447,4
2025-03-18 11:32:11.099,651, 625, 462, -10, -14, 0, -18, 16, 38, 896, 802, 477,4
2025-03-18 11:32:11.156,671, 566, 443, 6, -20, 4, -19, 16, 39, 927, 853, 413,4
2025-03-18 11:32:11.210,626, 574, 370, 2, -5, -6, -17, 15, 41, 950, 871, 246,4
2025-03-18 11:32:11.267,325, 631, 322, 21, 21, 6, -19, 15, 43, 955, 792, 59,4
2025-03-18 11:32:11.323,922, 1077, 381, -18, 7, 31, -18, 16, 42, 969, 909, 68,4
2025-03-18 11:32:11.377,611, 577, 442, -5, 8, 20, -18, 18, 40, 964, 901, 409,4
2025-03-18 11:32:11.439,479, 527, 460, 7, -10, -47, -19, 19, 39, 943, 833, 651,4
2025-03-18 11:32:11.496,705, 202, 390, -4, -17, -8, -18, 16, 40, 963, 890, 558,4
2025-03-18 11:32:11.553,852, 513, 183, -14, 40, 34, -18, 17, 40, 969, 809, 154,4
2025-03-18 11:32:11.861,684, 633, 376, -4, -2, -1, -19, 16, 41, 912, 741, 501,5
2025-03-18 11:32:11.914,675, 616, 400, -6, -1, -2, -19, 16, 37, 910, 744, 505,5
2025-03-18 11:32:11.971,653, 597, 435, -1, -6, -4, -18, 16, 39, 909, 748, 417,5
2025-03-18 11:32:12.029,662, 588, 437, -2, -9, -1, -17, 17, 39, 913, 778, 443,5
2025-03-18 11:32:12.087,758, 495, 430, 6, -17, 2, -19, 17, 40, 941, 865, 423,5
2025-03-18 11:32:12.144,564, 727, 315, -28, 1, 19, -19, 16, 42, 964, 918, 584,5
2025-03-18 11:32:12.206,517, 326, 495, 16, -10, -26, -19, 17, 39, 949, 880, 622,5
2025-03-18 11:32:12.259,852, 687, 291, 12, 5, 0, -18, 16, 42, 962, 875, 419,5
2025-03-18 11:32:12.316,677, 601, 544, -31, 35, 32, -19, 17, 39, 974, 906, 79,5
2025-03-18 11:32:12.373,711, 461, 486, 19, 12, 3, -18, 18, 40, 948, 786, 267,5
2025-03-18 11:32:12.430,912, 604, 176, -26, 43, -50, -17, 16, 38, 861, 606, 546,5
2025-03-18 11:32:12.701,665, 611, 442, -7, -7, 2, -16, 17, 38, 827, 470, 394,6
2025-03-18 11:32:12.758,661, 602, 453, -5, -8, 2, -17, 17, 36, 824, 477, 372,6
2025-03-18 11:32:12.816,657, 611, 478, -12, -10, 0, -18, 17, 39, 826, 494, 335,6
2025-03-18 11:32:12.872,686, 600, 412, -12, -12, -7, -18, 17, 38, 829, 503, 388,6
2025-03-18 11:32:12.934,694, 618, 405, -19, -1, -4, -17, 17, 37, 823, 469, 342,6
2025-03-18 11:32:12.990,671, 609, 479, -16, 3, -7, -18, 17, 39, 814, 409, 411,6
2025-03-18 11:32:13.044,654, 602, 480, -8, -3, 2, -16, 17, 38, 827, 394, 398,6
2025-03-18 11:32:13.101,672, 621, 469, -9, 0, -3, -19, 17, 38, 831, 400, 428,6
2025-03-18 11:32:13.158,683, 604, 451, -3, -2, 3, -17, 18, 36, 837, 423, 410,6
2025-03-18 11:32:13.212,681, 582, 458, -3, 2, -1, -17, 18, 38, 842, 454, 456,6
2025-03-18 11:32:13.269,661, 588, 457, 1, 1, 2, -19, 18, 37, 844, 468, 456,6
2025-03-18 11:32:13.323,683, 595, 466, 2, -1, 4, -19, 17, 37, 856, 490, 459,6
2025-03-18 11:32:13.380,696, 598, 446, -1, -2, 4, -18, 18, 37, 882, 533, 489,6
2025-03-18 11:32:13.438,538, 620, 585, -3, -31, 11, -17, 18, 39, 918, 721, 371,6
2025-03-18 11:32:13.495,653, 435, 470, 2, -11, -18, -19, 18, 40, 940, 884, 35,6
2025-03-18 11:32:13.552,558, 548, 307, 67, 25, -7, -18, 18, 41, 956, 834, 39,6
2025-03-18 11:32:13.605,265, 172, 324, -55, 26, 38, -17, 20, 39, 969, 879, 56,6
2025-03-18 11:32:13.663,623, 67, 898, 14, -20, -24, -18, 20, 37, 944, 896, 61,6
2025-03-18 11:32:13.723,1066, 660, 159, 19, 33, -22, -18, 18, 38, 878, 502, 281,6
2025-03-18 11:32:13.782,485, 568, 741, -14, 57, -29, -16, 19, 35, 857, 54, 71,6
2025-03-18 11:32:14.085,678, 661, 354, 27, -44, -20, -20, 14, 40, 750, 274, 351,7
2025-03-18 11:32:14.142,657, 640, 347, 19, -44, -25, -18, 13, 40, 763, 290, 420,7
2025-03-18 11:32:14.204,599, 819, 140, -27, 8, -19, -19, 14, 43, 834, 480, 487,7
2025-03-18 11:32:14.261,444, 743, 421, -13, 4, 17, -19, 13, 42, 872, 531, 343,7
2025-03-18 11:32:14.318,497, 662, 435, 25, -11, 46, -20, 14, 42, 887, 550, 320,7
2025-03-18 11:32:14.376,1048, 486, 2, 58, -20, -27, -19, 14, 45, 933, 825, 220,7
2025-03-18 11:32:14.433,642, 558, 300, -20, 5, 29, -20, 14, 44, 956, 868, 490,7
2025-03-18 11:32:14.486,627, 732, 497, 3, 35, 33, -19, 15, 44, 964, 839, 62,7
2025-03-18 11:32:14.544,797, 378, 168, -42, 41, 27, -19, 17, 42, 956, 717, 50,7
2025-03-18 11:32:14.604,508, 588, 806, 14, -13, -37, -18, 18, 41, 928, 509, 41,7
2025-03-18 11:32:14.658,846, 452, 119, 9, -10, 7, -19, 17, 41, 970, 912, 33,7
2025-03-18 11:32:14.715,818, 405, 415, 20, 29, 16, -19, 18, 42, 954, 817, 134,7
2025-03-18 11:32:14.772,493, 634, 661, -37, 55, -37, -18, 17, 39, 922, 582, 215,7
2025-03-18 11:32:15.039,682, 591, 449, 1, 1, 13, -19, 19, 39, 923, 671, 209,8
2025-03-18 11:32:15.096,653, 592, 477, -2, -2, 13, -17, 18, 38, 924, 680, 166,8
2025-03-18 11:32:15.150,668, 553, 449, 1, -17, 11, -19, 18, 39, 936, 735, 51,8
2025-03-18 11:32:15.208,816, 535, 392, -34, -2, -12, -17, 20, 40, 942, 856, 37,8
2025-03-18 11:32:15.269,762, 418, 493, 26, -11, -26, -17, 16, 42, 955, 848, 26,8
2025-03-18 11:32:15.326,819, 708, 270, -48, 44, 66, -19, 20, 38, 970, 868, 40,8
2025-03-18 11:32:15.383,557, 223, 780, -2, -26, -18, -18, 21, 37, 961, 905, 61,8
2025-03-18 11:32:15.445,985, 583, 321, -35, -28, -23, -20, 20, 39, 958, 932, 184,8
2025-03-18 11:32:15.498,625, 820, 288, 11, 9, 15, -18, 19, 39, 971, 925, 52,8
2025-03-18 11:32:15.555,987, 430, 236, -27, 52, -2, -18, 20, 39, 961, 849, 51,8
2025-03-18 11:32:15.617,687, 398, 469, -24, 104, -99, -18, 18, 34, 890, 652, 233,8
2025-03-18 11:32:15.895,280, 583, 334, 52, -57, 127, -17, 10, 28, 797, 658, 555,9
2025-03-18 11:32:15.952,322, 585, 272, 52, -50, 126, -17, 13, 30, 788, 680, 569,9
2025-03-18 11:32:16.014,610, 411, 507, 64, -55, 113, -18, 14, 35, 790, 677, 561,9
2025-03-18 11:32:16.068,732, 551, 229, 12, 8, 18, -20, 14, 38, 822, 594, 492,9
2025-03-18 11:32:16.129,1206, 1043, 958, 53, -47, -6, -19, 17, 38, 865, 612, 579,9
2025-03-18 11:32:16.186,249, 299, 486, 8, -26, 28, -19, 16, 42, 898, 754, 485,9
2025-03-18 11:32:16.247,625, 507, 288, -24, -13, -18, -19, 17, 41, 925, 831, 272,9
2025-03-18 11:32:16.304,838, 893, 66, -53, 40, 40, -20, 16, 41, 955, 862, 45,9
2025-03-18 11:32:16.362,634, 506, 679, -33, -1, 7, -17, 19, 39, 949, 890, 121,9
2025-03-18 11:32:16.419,822, 447, 659, 6, -10, -14, -20, 17, 38, 952, 901, 396,9
2025-03-18 11:32:16.477,253, 620, 309, -51, 46, 45, -19, 18, 38, 969, 903, 61,9
2025-03-18 11:32:16.530,765, 248, 557, 1, 17, -20, -19, 20, 38, 928, 800, 68,9
2025-03-18 11:32:16.591,606, 635, 534, -9, 43, -44, -17, 17, 37, 759, 719, 423,9
2025-03-18 11:32:16.867,671, 628, 423, 3, -1, -5, -18, 17, 38, 742, 524, 47,+
2025-03-18 11:32:16.919,668, 629, 439, 2, -1, -5, -18, 16, 39, 742, 529, 39,+
2025-03-18 11:32:16.975,635, 634, 481, -5, -6, 2, -19, 17, 39, 761, 594, 46,+
2025-03-18 11:32:17.029,671, 622, 408, 3, -3, -2, -19, 16, 41, 775, 588, 44,+
2025-03-18 11:32:17.087,662, 609, 428, -7, 0, -5, -21, 17, 37, 759, 562, 35,+
2025-03-18 11:32:17.140,654, 639, 448, -4, -2, -1, -18, 17, 40, 769, 524, 58,+
2025-03-18 11:32:17.197,679, 628, 446, -6, -2, -3, -18, 17, 39, 799, 477, 45,+
2025-03-18 11:32:17.251,677, 639, 404, 1, -1, -2, -19, 16, 39, 807, 487, 36,+
2025-03-18 11:32:17.304,663, 640, 434, 0, 0, 3, -18, 16, 40, 828, 550, 45,+
2025-03-18 11:32:17.361,723, 662, 440, -2, -1, 9, -19, 15, 40, 846, 680, 277,+
2025-03-18 11:32:17.419,608, 594, 439, -4, 2, -8, -18, 17, 40, 860, 708, 414,+
2025-03-18 11:32:17.472,666, 641, 453, 2, 4, 3, -19, 17, 40, 862, 689, 372,+
2025-03-18 11:32:17.528,614, 610, 470, -1, -3, 3, -17, 15, 39, 880, 696, 286,+
2025-03-18 11:32:17.587,776, 641, 350, 5, -16, -9, -20, 18, 38, 883, 784, 387,+
2025-03-18 11:32:17.644,589, 623, 525, -20, -20, 7, -19, 18, 40, 920, 854, 395,+
2025-03-18 11:32:17.696,704, 675, 270, -3, -8, 7, -20, 18, 40, 965, 910, 52,+
2025-03-18 11:32:17.754,741, 632, 321, -14, 49, 47, -20, 18, 41, 974, 899, 39,+
2025-03-18 11:32:17.812,595, 219, 693, 20, 10, -24, -20, 19, 39, 934, 831, 32,+
2025-03-18 11:32:17.874,1672, 589, 270, -17, -10, -17, -19, 17, 39, 937, 888, 39,+
2025-03-18 11:32:17.931,678, 692, 365, -24, 1, 30, -19, 17, 41, 967, 932, 304,+
2025-03-18 11:32:17.988,700, 480, 294, -15, 48, -44, -21, 19, 40, 929, 812, 546,+
2025-03-18 11:32:18.217,598, 617, 527, -2, 1, -1, -18, 16, 39, 837, 447, 214,-
2025-03-18 11:32:18.274,612, 633, 525, -1, -2, 0, -18, 18, 39, 838, 444, 211,-
2025-03-18 11:32:18.328,681, 609, 416, 3, -7, 4, -18, 16, 39, 828, 459, 209,-
2025-03-18 11:32:18.385,679, 599, 418, -8, 0, 0, -20, 17, 39, 833, 486, 196,-
2025-03-18 11:32:18.438,658, 616, 460, -4, -1, 1, -18, 16, 38, 837, 500, 45,-
2025-03-18 11:32:18.496,677, 604, 426, 0, -4, -2, -19, 15, 39, 837, 595, 172,-
2025-03-18 11:32:18.553,661, 618, 448, -3, -1, -3, -19, 16, 40, 840, 643, 197,-
2025-03-18 11:32:18.610,667, 616, 449, -1, -1, -1, -17, 17, 40, 843, 660, 189,-
2025-03-18 11:32:18.668,659, 621, 440, 1, -1, -2, -17, 16, 40, 850, 663, 202,-
2025-03-18 11:32:18.721,569, 606, 522, 0, -8, 5, -19, 17, 40, 874, 661, 106,-
2025-03-18 11:32:18.778,768, 437, 299, -2, -10, -21, -19, 16, 41, 917, 806, 64,-
2025-03-18 11:32:18.840,914, 910, 250, -48, -13, 49, -17, 14, 40, 967, 923, 320,-
2025-03-18 11:32:18.893,583, 590, 542, 11, 1, 12, -17, 17, 43, 972, 932, 484,-
2025-03-18 11:32:18.951,786, 487, 255, 7, 33, -35, -18, 17, 41, 939, 838, 599,-
2025-03-18 11:32:19.011,596, 641, 626, -19, 36, -32, -19, 17, 38, 904, 748, 309,-
2025-03-18 11:32:19.308,658, 624, 427, -2, 0, -3, -17, 15, 39, 849, 577, 380,÷
2025-03-18 11:32:19.364,658, 623, 439, -3, 0, -2, -20, 17, 39, 846, 587, 393,÷
2025-03-18 11:32:19.422,669, 635, 425, 0, -1, -1, -19, 17, 39, 849, 639, 419,÷
2025-03-18 11:32:19.479,667, 620, 430, -2, 0, -1, -17, 16, 38, 848, 661, 440,÷
2025-03-18 11:32:19.537,674, 616, 431, -3, -1, -1, -20, 14, 41, 849, 698, 455,÷
2025-03-18 11:32:19.590,662, 622, 425, -2, 0, -1, -18, 18, 40, 852, 693, 432,÷
2025-03-18 11:32:19.648,675, 606, 432, -4, -1, -1, -18, 19, 40, 853, 690, 428,÷
2025-03-18 11:32:19.704,664, 612, 443, -3, 0, -1, -18, 17, 39, 855, 690, 408,÷
2025-03-18 11:32:19.762,680, 627, 428, -5, 0, -1, -19, 17, 40, 860, 708, 386,÷
2025-03-18 11:32:19.815,666, 622, 438, -1, 0, -4, -19, 16, 42, 861, 701, 378,÷
2025-03-18 11:32:19.872,672, 625, 432, 1, 0, -5, -18, 15, 40, 851, 687, 345,÷
2025-03-18 11:32:19.926,662, 647, 428, 0, 0, 0, -17, 17, 42, 843, 664, 323,÷
2025-03-18 11:32:19.982,671, 618, 422, -4, 1, -1, -19, 16, 38, 851, 673, 344,÷
2025-03-18 11:32:20.040,670, 618, 434, -3, -1, -1, -18, 17, 39, 862, 729, 376,÷
2025-03-18 11:32:20.094,662, 631, 434, -1, 0, -1, -17, 16, 40, 868, 745, 338,÷
2025-03-18 11:32:20.151,680, 605, 432, -1, -1, -3, -20, 17, 39, 869, 750, 359,÷
2025-03-18 11:32:20.208,629, 641, 459, 0, -5, 5, -20, 16, 39, 881, 781, 448,÷
2025-03-18 11:32:20.266,647, 1002, 461, 3, -27, -14, -19, 17, 40, 943, 881, 60,÷
2025-03-18 11:32:20.323,833, 568, 370, 57, 16, 2, -21, 18, 40, 933, 833, 281,÷
2025-03-18 11:32:20.380,286, 448, 662, -17, 68, 5, -19, 17, 39, 934, 703, 277,÷
2025-03-18 11:32:20.437,2502, 286, -120, 4, -12, -18, -19, 17, 40, 951, 828, 50,÷
2025-03-18 11:32:20.495,736, 258, 659, 16, -12, -19, -20, 16, 39, 922, 819, 107,÷
2025-03-18 11:32:20.551,604, 676, 671, 3, -6, -12, -18, 17, 39, 881, 736, 234,÷
2025-03-18 11:32:20.613,932, 1218, 398, -13, -12, 26, -19, 17, 39, 962, 915, 305,÷
2025-03-18 11:32:20.670,672, 479, 421, 4, 3, 21, -19, 17, 39, 967, 915, 495,÷
2025-03-18 11:32:20.728,708, 410, 185, -10, 65, -62, -19, 19, 38, 914, 736, 589,÷
2025-03-18 11:32:21.014,655, 643, 417, 11, -2, 0, -18, 15, 40, 837, 369, 394,=
2025-03-18 11:32:21.068,659, 642, 428, 11, -2, 0, -18, 18, 37, 830, 358, 411,=
2025-03-18 11:32:21.125,648, 637, 436, 16, -2, 1, -20, 18, 39, 785, 47, 415,=
2025-03-18 11:32:21.178,655, 637, 402, 24, -1, 0, -17, 16, 39, 737, 31, 414,=
2025-03-18 11:32:21.232,665, 659, 387, 5, -3, 1, -19, 15, 40, 736, 55, 468,=
2025-03-18 11:32:21.289,591, 721, 385, -26, -3, -5, -19, 15, 40, 759, 48, 449,=
2025-03-18 11:32:21.346,668, 643, 387, -2, 0, 0, -18, 14, 40, 759, 38, 440,=
2025-03-18 11:32:21.400,658, 657, 388, -3, -1, 4, -20, 14, 39, 777, 46, 499,=
2025-03-18 11:32:21.457,673, 650, 406, -15, 0, 0, -19, 16, 40, 825, 537, 530,=
2025-03-18 11:32:21.514,657, 632, 419, -14, -2, 2, -18, 15, 41, 860, 631, 537,=
2025-03-18 11:32:21.568,680, 617, 412, -6, 1, 0, -19, 15, 39, 877, 677, 563,=
2025-03-18 11:32:21.625,656, 621, 429, -10, -4, -2, -21, 17, 38, 881, 716, 560,=
2025-03-18 11:32:21.682,684, 621, 434, -8, 1, -3, -19, 15, 38, 891, 729, 494,=
2025-03-18 11:32:21.737,663, 645, 416, 3, -3, 1, -19, 19, 39, 896, 729, 484,=
2025-03-18 11:32:21.793,666, 589, 445, -5, -1, 0, -19, 16, 40, 900, 757, 515,=
2025-03-18 11:32:21.850,666, 630, 423, -1, -1, -2, -19, 16, 40, 900, 757, 482,=
2025-03-18 11:32:21.907,678, 648, 393, -3, 3, -3, -19, 17, 40, 902, 736, 461,=
2025-03-18 11:32:21.965,661, 651, 434, -4, -1, 0, -17, 16, 40, 903, 760, 471,=
2025-03-18 11:32:22.018,674, 625, 406, -4, -3, -2, -19, 14, 41, 906, 779, 485,=
2025-03-18 11:32:22.075,665, 647, 418, -4, 0, 0, -20, 15, 41, 908, 788, 515,=
2025-03-18 11:32:22.133,662, 626, 436, -5, -1, -1, -17, 16, 41, 911, 794, 515,=
2025-03-18 11:32:22.190,664, 638, 419, -6, -1, 0, -19, 16, 40, 914, 794, 499,=
2025-03-18 11:32:22.244,667, 623, 424, -6, -1, 0, -19, 16, 39, 918, 802, 505,=
2025-03-18 11:32:22.301,661, 622, 439, -2, -1, 0, -20, 15, 40, 921, 812, 504,=
2025-03-18 11:32:22.357,682, 600, 424, -4, 0, -2, -17, 17, 42, 924, 819, 508,=
2025-03-18 11:32:22.415,667, 618, 431, -7, -1, -3, -20, 16, 39, 926, 821, 482,=
2025-03-18 11:32:22.472,666, 612, 433, -1, -2, -2, -18, 17, 39, 928, 830, 432,=
2025-03-18 11:32:22.526,678, 621, 414, -4, 1, -1, -19, 18, 39, 926, 835, 428,=
2025-03-18 11:32:22.584,669, 623, 434, 0, -2, 0, -19, 17, 39, 929, 847, 448,=
2025-03-18 11:32:22.637,679, 625, 407, -1, 0, -1, -19, 17, 40, 933, 846, 438,=
2025-03-18 11:32:22.693,668, 625, 432, -3, 0, -1, -19, 16, 42, 930, 850, 461,=
2025-03-18 11:32:22.751,674, 626, 419, -2, 0, 0, -19, 16, 40, 931, 854, 460,=
2025-03-18 11:32:22.805,677, 620, 422, -5, 0, -1, -19, 18, 40, 932, 851, 452,=
2025-03-18 11:32:22.861,656, 615, 445, 1, -2, 0, -19, 16, 41, 932, 854, 458,=
2025-03-18 11:32:22.916,681, 612, 426, 1, 0, -1, -19, 17, 40, 933, 853, 457,=
2025-03-18 11:32:22.973,674, 611, 418, 4, 2, -1, -19, 16, 39, 932, 838, 442,=
2025-03-18 11:32:23.026,666, 619, 422, 2, 2, -1, -18, 17, 40, 932, 831, 426,=
2025-03-18 11:32:23.083,648, 603, 432, 1, 0, -1, -21, 15, 39, 931, 822, 346,=
2025-03-18 11:32:23.136,626, 615, 440, 9, -1, 0, -19, 17, 39, 933, 828, 299,=
2025-03-18 11:32:23.194,589, 521, 426, 21, -11, -21, -20, 16, 41, 941, 867, 70,=
2025-03-18 11:32:23.251,819, 690, 453, 30, -1, -4, -19, 15, 41, 962, 925, 48,=
2025-03-18 11:32:23.309,650, 683, 421, -12, 0, 13, -19, 16, 42, 970, 937, 462,=
2025-03-18 11:32:23.366,689, 595, 393, -1, 0, -2, -19, 15, 42, 969, 939, 471,=
2025-03-18 11:32:23.418,737, 623, 436, 16, -3, -6, -18, 16, 43, 973, 940, 501,=
2025-03-18 11:32:23.476,588, 583, 355, -8, 0, 14, -19, 16, 43, 975, 945, 579,=
2025-03-18 11:32:23.529,679, 613, 408, 1, 1, 2, -19, 16, 43, 966, 937, 606,=
2025-03-18 11:32:23.588,721, 583, 365, 13, 5, -7, -19, 17, 41, 948, 892, 590,=
2025-03-18 11:32:23.644,679, 604, 352, 1, 36, -34, -19, 16, 40, 916, 802, 519,=
2025-03-18 11:32:23.698,606, 662, 496, 6, -4, 4, -19, 14, 40, 910, 804, 531,=
2025-03-18 11:32:23.755,622, 634, 439, 12, -8, 11, -19, 16, 41, 918, 816, 562,=
2025-03-18 11:32:23.812,610, 642, 412, 10, -5, 2, -20, 17, 40, 926, 835, 451,=
2025-03-18 11:32:23.870,975, 641, 353, -5, -10, 5, -21, 16, 39, 964, 915, 398,=
2025-03-18 11:32:23.927,604, 566, 413, -4, -1, 14, -18, 16, 39, 973, 937, 543,=
2025-03-18 11:32:23.984,725, 615, 265, -14, 21, -16, -20, 17, 38, 935, 853, 634,=
2025-03-18 11:32:24.046,587, 653, 484, -25, 36, -32, -18, 17, 39, 903, 710, 375,=
2025-03-18 11:32:24.348,644, 630, 441, -6, 0, -3, -18, 15, 38, 872, 725, 203,≠
2025-03-18 11:32:24.406,645, 635, 451, -5, -1, -2, -19, 17, 37, 871, 725, 202,≠
2025-03-18 11:32:24.463,658, 626, 430, -4, -2, 0, -20, 16, 37, 881, 732, 210,≠
2025-03-18 11:32:24.521,641, 634, 447, -2, -1, 0, -18, 18, 38, 880, 738, 204,≠
2025-03-18 11:32:24.574,658, 634, 431, -5, -4, 1, -19, 17, 38, 886, 754, 271,≠
2025-03-18 11:32:24.632,660, 623, 450, -6, -2, 0, -20, 17, 38, 893, 761, 265,≠
2025-03-18 11:32:24.688,658, 609, 436, -5, -3, -1, -19, 17, 38, 903, 781, 282,≠
2025-03-18 11:32:24.742,650, 611, 452, 2, -3, 0, -19, 17, 40, 904, 781, 284,≠
2025-03-18 11:32:24.800,683, 622, 429, 0, -1, 1, -18, 16, 40, 907, 781, 271,≠
2025-03-18 11:32:24.853,633, 628, 449, 7, 1, 5, -18, 15, 40, 914, 784, 361,≠
2025-03-18 11:32:24.911,570, 598, 454, 11, -10, 1, -19, 15, 39, 912, 768, 140,≠
2025-03-18 11:32:24.967,986, 294, 285, 59, -23, -21, -20, 16, 42, 946, 878, 56,≠
2025-03-18 11:32:25.024,623, 603, 264, -18, 7, 38, -20, 14, 41, 972, 931, 551,≠
2025-03-18 11:32:25.082,550, 506, 316, 13, 28, -19, -19, 17, 41, 952, 852, 563,≠
2025-03-18 11:32:25.140,918, 507, 456, 14, -10, -3, -19, 16, 40, 932, 616, 48,≠
2025-03-18 11:32:25.196,960, 995, 368, -18, 2, 27, -18, 15, 43, 966, 918, 294,≠
2025-03-18 11:32:25.254,761, 387, 405, -30, 7, 4, -17, 14, 42, 961, 912, 522,≠
2025-03-18 11:32:25.311,480, 700, 642, 6, -19, -34, -20, 17, 39, 938, 888, 625,≠
2025-03-18 11:32:25.369,742, 528, 479, 13, -35, 6, -20, 17, 41, 958, 914, 588,≠
2025-03-18 11:32:25.426,861, 958, 74, 10, 49, 20, -18, 17, 42, 972, 910, 61,≠
2025-03-18 11:32:25.480,732, 634, 184, -5, 39, 16, -18, 16, 41, 951, 818, 48,≠
2025-03-18 11:32:25.541,706, 589, 306, -23, 48, -71, -16, 16, 39, 829, 766, 446,≠
2025-03-18 11:32:25.598,390, 694, 742, -29, 11, -24, -18, 16, 35, 822, 789, 275,≠
2025-03-18 11:32:25.656,526, 688, 588, 17, -31, 19, -18, 16, 36, 821, 768, 204,≠
2025-03-18 11:32:25.717,715, 604, 379, 12, -21, 14, -18, 17, 38, 819, 765, 208,≠
2025-03-18 11:32:25.770,701, 645, 395, -3, 1, 1, -19, 17, 39, 830, 768, 187,≠
2025-03-18 11:32:26.062,642, 626, 454, 2, -4, 1, -19, 17, 37, 806, 709, 55,≈
2025-03-18 11:32:26.113,643, 625, 444, 1, -4, 0, -18, 16, 40, 802, 699, 51,≈
2025-03-18 11:32:26.172,654, 620, 463, -2, -3, 1, -18, 18, 37, 816, 652, 43,≈
2025-03-18 11:32:26.225,658, 616, 439, 7, -7, 1, -19, 17, 40, 819, 692, 64,≈
2025-03-18 11:32:26.278,672, 635, 417, 5, -3, 0, -18, 17, 39, 823, 731, 79,≈
2025-03-18 11:32:26.335,638, 636, 460, 4, -3, 0, -18, 17, 39, 828, 745, 203,≈
2025-03-18 11:32:26.389,638, 631, 457, 13, -7, 1, -21, 17, 37, 810, 734, 211,≈
2025-03-18 11:32:26.447,703, 626, 376, 8, -5, -3, -19, 14, 41, 781, 713, 123,≈
2025-03-18 11:32:26.503,686, 619, 395, 14, 1, -4, -19, 14, 41, 808, 742, 124,≈
2025-03-18 11:32:26.557,660, 636, 420, -7, 1, -1, -17, 15, 42, 835, 765, 243,≈
2025-03-18 11:32:26.614,654, 660, 411, 0, 0, 0, -18, 14, 41, 835, 764, 250,≈
2025-03-18 11:32:26.668,663, 643, 413, -5, 1, 0, -19, 17, 40, 834, 769, 227,≈
2025-03-18 11:32:26.724,663, 638, 421, -5, 1, -2, -17, 16, 39, 839, 771, 140,≈
2025-03-18 11:32:26.778,720, 657, 393, -3, 0, 7, -19, 16, 39, 869, 781, 385,≈
2025-03-18 11:32:26.835,641, 612, 404, -9, 6, -9, -19, 17, 38, 879, 784, 467,≈
2025-03-18 11:32:26.892,621, 622, 480, -10, 3, -3, -19, 17, 38, 881, 788, 345,≈
2025-03-18 11:32:26.950,681, 626, 426, -4, -2, 5, -16, 17, 40, 888, 789, 241,≈
2025-03-18 11:32:27.004,653, 626, 427, -4, 1, -1, -18, 16, 40, 891, 794, 291,≈
2025-03-18 11:32:27.060,639, 620, 441, 1, -1, 1, -18, 16, 40, 888, 794, 245,≈
2025-03-18 11:32:27.114,659, 619, 443, 3, -5, 0, -19, 17, 40, 881, 802, 179,≈
2025-03-18 11:32:27.171,656, 643, 444, 7, -6, 4, -20, 16, 40, 888, 814, 181,≈
2025-03-18 11:32:27.224,708, 615, 352, 2, -8, 4, -19, 16, 42, 906, 841, 40,≈
2025-03-18 11:32:27.281,851, 666, 466, 3, -11, 2, -18, 16, 39, 942, 905, 322,≈
2025-03-18 11:32:27.334,616, 566, 580, -10, -5, 7, -21, 19, 39, 963, 935, 533,≈
2025-03-18 11:32:27.391,640, 725, 210, 4, 7, 23, -18, 17, 41, 968, 928, 476,≈
2025-03-18 11:32:27.450,597, 501, 419, -14, 36, -18, -20, 18, 37, 956, 888, 497,≈
2025-03-18 11:32:27.507,482, 704, 666, 21, -1, -3, -17, 16, 38, 933, 813, 227,≈
2025-03-18 11:32:27.568,890, 500, 220, 46, -9, -19, -19, 16, 41, 942, 894, 166,≈
2025-03-18 11:32:27.626,482, 625, 275, -32, -10, 11, -20, 18, 40, 963, 936, 350,≈
2025-03-18 11:32:27.679,643, 533, 335, 6, -1, 9, -18, 16, 40, 971, 940, 308,≈
2025-03-18 11:32:27.736,775, 614, 373, -9, 15, 13, -20, 19, 41, 965, 928, 429,≈
2025-03-18 11:32:27.798,689, 627, 430, -32, 51, -48, -20, 17, 38, 938, 888, 602,≈
2025-03-18 11:32:28.113,634, 626, 474, 1, -1, -2, -17, 17, 35, 832, 693, 35,<
2025-03-18 11:32:28.166,642, 624, 477, 1, -2, -3, -18, 16, 38, 832, 687, 42,<
2025-03-18 11:32:28.223,637, 625, 475, 2, -5, 0, -17, 16, 38, 835, 697, 135,<
2025-03-18 11:32:28.277,644, 626, 462, 2, -8, -1, -20, 18, 37, 824, 689, 158,<
2025-03-18 11:32:28.334,648, 622, 445, 0, -3, -2, -18, 17, 36, 820, 709, 60,<
2025-03-18 11:32:28.387,641, 628, 465, -5, -2, -2, -17, 17, 38, 822, 699, 50,<
2025-03-18 11:32:28.445,643, 625, 457, -1, -6, 3, -19, 17, 37, 841, 709, 42,<
2025-03-18 11:32:28.498,636, 616, 463, 6, -9, 2, -19, 18, 39, 846, 733, 52,<
2025-03-18 11:32:28.555,679, 633, 419, 3, -10, 7, -19, 16, 40, 850, 748, 113,<
2025-03-18 11:32:28.612,681, 628, 409, -3, -1, -2, -18, 16, 40, 863, 764, 158,<
2025-03-18 11:32:28.670,656, 640, 446, -6, -1, -1, -20, 16, 40, 866, 770, 154,<
2025-03-18 11:32:28.723,687, 612, 452, -1, -4, 1, -18, 15, 40, 877, 780, 88,<
2025-03-18 11:32:28.780,740, 627, 411, 4, -3, 0, -18, 16, 42, 880, 783, 179,<
2025-03-18 11:32:28.834,651, 602, 429, -8, -1, 1, -21, 17, 39, 900, 800, 348,<
2025-03-18 11:32:28.891,638, 646, 468, -5, -10, 3, -20, 17, 37, 909, 819, 356,<
2025-03-18 11:32:28.952,659, 561, 443, -18, -22, 11, -19, 16, 40, 932, 880, 418,<
2025-03-18 11:32:29.010,869, 453, 383, -17, -18, -15, -21, 16, 40, 956, 915, 161,<
2025-03-18 11:32:29.067,900, 424, 453, 25, 16, -19, -19, 17, 44, 960, 882, 43,<
2025-03-18 11:32:29.125,786, 446, 314, 38, 6, -5, -18, 14, 42, 973, 912, 45,<
2025-03-18 11:32:29.182,787, 712, 537, -23, 8, 29, -20, 17, 42, 977, 943, 137,<
2025-03-18 11:32:29.239,770, 556, 342, 1, 27, -10, -22, 18, 40, 945, 884, 473,<
2025-03-18 11:32:29.296,606, 668, 576, -38, 39, -34, -20, 18, 38, 906, 761, 55,<
2025-03-18 11:32:29.354,582, 595, 545, 15, -10, 2, -18, 19, 38, 896, 757, 62,<
2025-03-18 11:32:29.411,701, 620, 436, 18, -18, 5, -18, 16, 39, 878, 749, 201,<
2025-03-18 11:32:29.464,708, 620, 417, 2, -2, -3, -20, 17, 39, 862, 751, 280,<
2025-03-18 11:32:29.744,671, 627, 446, -5, -3, -2, -18, 17, 38, 886, 742, 143,≤
2025-03-18 11:32:29.801,666, 630, 439, -6, -3, -1, -18, 16, 39, 887, 743, 152,≤
2025-03-18 11:32:29.857,662, 612, 458, -2, -4, 0, -18, 16, 40, 892, 760, 168,≤
2025-03-18 11:32:29.915,671, 604, 449, -4, -6, 1, -19, 16, 40, 901, 781, 218,≤
2025-03-18 11:32:29.968,680, 602, 424, -2, -7, -1, -20, 16, 41, 913, 796, 269,≤
2025-03-18 11:32:30.026,624, 602, 512, 4, -20, 8, -19, 16, 42, 931, 865, 385,≤
2025-03-18 11:32:30.083,707, 596, 412, -1, -19, 2, -18, 18, 42, 950, 908, 196,≤
2025-03-18 11:32:30.140,742, 447, 583, 37, 5, -18, -20, 17, 42, 958, 890, 32,≤
2025-03-18 11:32:30.198,790, 601, 230, 14, 10, -3, -19, 17, 41, 962, 882, 58,≤
2025-03-18 11:32:30.251,539, 652, 371, -30, 3, 26, -20, 17, 42, 973, 952, 382,≤
2025-03-18 11:32:30.308,653, 585, 521, 37, 7, 8, -18, 18, 40, 962, 914, 646,≤
2025-03-18 11:32:30.365,417, 538, 624, 5, 40, -23, -20, 18, 38, 938, 799, 280,≤
2025-03-18 11:32:30.423,675, 1312, 86, -46, -22, 3, -19, 17, 40, 967, 932, 172,≤
2025-03-18 11:32:30.480,743, 641, 399, 3, 2, 21, -19, 18, 39, 952, 886, 353,≤
2025-03-18 11:32:30.538,651, 409, 259, -16, 63, -43, -20, 18, 38, 804, 625, 428,≤
2025-03-18 11:32:30.828,684, 625, 407, -7, -15, 4, -18, 18, 41, 852, 743, 386,>
2025-03-18 11:32:30.886,664, 619, 399, -7, -13, 3, -18, 18, 41, 856, 750, 401,>
2025-03-18 11:32:30.943,633, 628, 446, -2, -7, -2, -20, 18, 40, 868, 759, 353,>
2025-03-18 11:32:30.997,590, 578, 473, 4, -24, -1, -19, 17, 40, 868, 768, 139,>
2025-03-18 11:32:31.054,848, 687, 302, 3, -11, -14, -20, 14, 41, 918, 844, 58,>
2025-03-18 11:32:31.111,770, 761, 273, -48, 3, 45, -20, 16, 42, 960, 908, 363,>
2025-03-18 11:32:31.169,570, 471, 595, 17, -5, 3, -20, 17, 42, 966, 909, 382,>
2025-03-18 11:32:31.226,770, 589, 319, 10, 23, 1, -20, 18, 42, 964, 874, 34,>
2025-03-18 11:32:31.279,1023, 533, 258, -1, 41, -5, -18, 17, 40, 925, 804, 53,>
2025-03-18 11:32:31.341,458, 578, 631, -46, 51, -40, -19, 18, 37, 889, 794, 392,>
2025-03-18 11:32:31.398,470, 603, 635, 13, -15, 8, -17, 18, 36, 890, 773, 367,>
2025-03-18 11:32:31.651,660, 618, 458, -7, -6, 0, -19, 17, 39, 852, 764, 360,≥
2025-03-18 11:32:31.709,650, 619, 458, -5, -6, 0, -20, 18, 40, 853, 765, 360,≥
2025-03-18 11:32:31.762,608, 627, 494, 3, -16, 5, -20, 18, 40, 863, 772, 312,≥
2025-03-18 11:32:31.820,631, 534, 435, 21, -27, 0, -21, 17, 40, 885, 773, 54,≥
2025-03-18 11:32:31.877,800, 682, 208, -14, -2, -4, -21, 16, 41, 930, 847, 41,≥
2025-03-18 11:32:31.934,573, 731, 406, -26, -9, 35, -19, 17, 42, 962, 909, 372,≥
2025-03-18 11:32:31.992,527, 634, 522, -3, -5, 8, -22, 17, 41, 971, 921, 435,≥
2025-03-18 11:32:32.049,662, 806, 171, 26, 23, 12, -21, 16, 42, 969, 898, 46,≥
2025-03-18 11:32:32.102,892, 577, 197, -2, 39, 2, -19, 17, 40, 945, 776, 57,≥
2025-03-18 11:32:32.159,255, 632, 750, 0, 36, -18, -20, 17, 39, 923, 723, 57,≥
2025-03-18 11:32:32.217,809, 464, 272, 35, -53, 20, -18, 16, 40, 952, 855, 41,≥
2025-03-18 11:32:32.274,738, 646, 314, -40, -2, 33, -18, 16, 42, 974, 935, 51,≥
2025-03-18 11:32:32.327,810, 435, 275, 9, 20, -15, -19, 18, 41, 962, 878, 58,≥
2025-03-18 11:32:32.385,512, 625, 492, -29, 59, -61, -20, 16, 39, 930, 660, 50,≥
2025-03-18 11:32:32.651,648, 609, 456, -6, -1, -6, -19, 18, 37, 905, 699, 61,±
2025-03-18 11:32:32.708,651, 614, 463, -5, -1, -5, -19, 15, 39, 902, 699, 64,±
2025-03-18 11:32:32.766,645, 616, 469, -6, -5, -4, -19, 18, 39, 892, 699, 38,±
2025-03-18 11:32:32.818,663, 618, 455, 2, -6, -1, -18, 17, 38, 890, 721, 50,±
2025-03-18 11:32:32.877,653, 608, 452, 4, -5, -1, -19, 18, 37, 894, 735, 49,±
2025-03-18 11:32:32.930,658, 625, 462, 1, -6, -1, -20, 17, 39, 895, 742, 140,±
2025-03-18 11:32:32.987,671, 615, 442, -1, -8, 3, -17, 17, 41, 903, 748, 37,±
2025-03-18 11:32:33.040,678, 613, 416, -3, 0, 1, -19, 17, 40, 907, 761, 47,±
2025-03-18 11:32:33.098,663, 614, 453, -2, -2, 2, -21, 17, 39, 909, 768, 32,±
2025-03-18 11:32:33.151,682, 598, 426, 4, -6, 0, -20, 15, 40, 909, 778, 56,±
2025-03-18 11:32:33.204,704, 623, 413, -2, -1, 0, -19, 15, 41, 914, 783, 61,±
2025-03-18 11:32:33.261,670, 611, 455, -1, -1, -3, -19, 17, 40, 914, 792, 77,±
2025-03-18 11:32:33.315,671, 624, 413, -3, 0, -2, -20, 16, 40, 915, 786, 60,±
2025-03-18 11:32:33.368,711, 619, 422, 0, -3, 0, -19, 17, 40, 918, 795, 61,±
2025-03-18 11:32:33.421,631, 617, 460, 0, 4, 0, -19, 16, 39, 919, 797, 63,±
2025-03-18 11:32:33.479,645, 618, 428, 0, -2, 0, -19, 16, 42, 921, 781, 26,±
2025-03-18 11:32:33.532,631, 551, 529, 15, -23, 6, -20, 17, 41, 942, 818, 53,±
2025-03-18 11:32:33.593,787, 956, 235, 19, -13, 19, -19, 17, 43, 970, 932, 339,±
2025-03-18 11:32:33.646,575, 552, 485, 1, 5, 17, -19, 17, 44, 967, 921, 619,±
2025-03-18 11:32:33.704,509, 577, 432, 10, -5, -38, -22, 16, 40, 954, 898, 681,±
2025-03-18 11:32:33.761,1760, 454, 85, 36, 3, -2, -20, 18, 41, 968, 926, 737,±
2025-03-18 11:32:33.818,833, 556, 302, -8, 55, 43, -20, 16, 41, 968, 902, 706,±
2025-03-18 11:32:33.876,294, 603, 618, 14, 30, -28, -19, 17, 38, 949, 763, 574,±
2025-03-18 11:32:33.934,732, 1679, 235, -5, -27, -3, -20, 15, 41, 969, 930, 646,±
2025-03-18 11:32:33.995,650, 534, 374, -24, 10, 30, -18, 16, 39, 975, 940, 592,±
2025-03-18 11:32:34.051,709, 441, 201, -27, 49, -42, -19, 17, 40, 954, 831, 612,±
2025-03-18 11:32:34.322,673, 642, 434, 0, -8, 4, -17, 16, 39, 917, 765, 450,∓
2025-03-18 11:32:34.379,683, 630, 406, -2, -8, 4, -18, 17, 40, 918, 770, 461,∓
2025-03-18 11:32:34.437,677, 622, 427, -7, -3, -1, -17, 16, 39, 917, 775, 465,∓
2025-03-18 11:32:34.490,670, 607, 452, -4, -7, 0, -19, 16, 40, 915, 780, 436,∓
2025-03-18 11:32:34.547,701, 623, 408, -3, -4, -1, -20, 16, 41, 917, 789, 453,∓
2025-03-18 11:32:34.605,669, 603, 428, -8, -1, -7, -18, 16, 42, 912, 781, 402,∓
2025-03-18 11:32:34.666,659, 606, 458, -15, -1, -10, -21, 18, 38, 913, 772, 197,∓
2025-03-18 11:32:34.724,648, 633, 458, 0, -12, -5, -20, 18, 40, 914, 798, 179,∓
2025-03-18 11:32:34.777,695, 550, 481, 17, -28, 3, -19, 16, 39, 939, 870, 100,∓
2025-03-18 11:32:34.838,442, 925, 322, -39, -12, 26, -19, 17, 41, 969, 943, 574,∓
2025-03-18 11:32:34.895,463, 433, 486, 18, -1, 7, -19, 17, 42, 970, 942, 694,∓
2025-03-18 11:32:34.953,478, 645, 361, 13, 42, -12, -19, 15, 42, 948, 834, 581,∓
2025-03-18 11:32:35.010,833, 236, 237, -36, 1, -13, -20, 15, 42, 958, 891, 446,∓
2025-03-18 11:32:35.068,580, 549, 170, -15, -1, 19, -20, 16, 42, 974, 947, 599,∓
2025-03-18 11:32:35.128,594, 561, 407, -21, 14, -29, -19, 17, 40, 961, 908, 684,∓
2025-03-18 11:32:35.187,628, 561, 634, 16, -31, 27, -19, 17, 41, 960, 908, 703,∓
2025-03-18 11:32:35.244,1039, 860, 157, -18, 41, 34, -19, 16, 42, 975, 914, 482,∓
2025-03-18 11:32:35.305,770, 373, 240, -28, 46, -72, -18, 16, 39, 926, 775, 580,∓
2025-03-18 11:32:35.588,661, 627, 453, -6, -1, -3, -19, 17, 39, 872, 722, 332,∞
2025-03-18 11:32:35.645,659, 620, 444, -6, -2, -3, -18, 17, 38, 865, 717, 329,∞
2025-03-18 11:32:35.699,652, 615, 450, -2, 0, -2, -18, 18, 37, 851, 721, 305,∞
2025-03-18 11:32:35.757,656, 611, 450, -2, -2, -3, -18, 17, 39, 838, 725, 254,∞
2025-03-18 11:32:35.813,647, 631, 445, -9, -2, 0, -18, 17, 39, 843, 731, 224,∞
2025-03-18 11:32:35.871,658, 622, 451, -2, -4, 5, -18, 14, 40, 857, 731, 81,∞
2025-03-18 11:32:35.924,666, 609, 465, -1, -2, 1, -19, 16, 39, 865, 732, 195,∞
2025-03-18 11:32:35.981,655, 609, 467, 2, -7, 5, -18, 17, 38, 872, 732, 181,∞
2025-03-18 11:32:36.034,667, 626, 439, 6, -5, 4, -19, 18, 38, 874, 731, 194,∞
2025-03-18 11:32:36.092,702, 615, 406, 11, -3, 0, -18, 16, 40, 873, 728, 198,∞
2025-03-18 11:32:36.145,669, 622, 406, 3, 4, 0, -19, 18, 41, 875, 716, 195,∞
2025-03-18 11:32:36.202,674, 627, 424, -2, -3, 3, -18, 17, 40, 883, 723, 190,∞
2025-03-18 11:32:36.256,686, 610, 401, 2, 1, 0, -19, 16, 40, 896, 755, 285,∞
2025-03-18 11:32:36.309,660, 610, 414, -1, 1, 1, -18, 16, 40, 896, 754, 308,∞
2025-03-18 11:32:36.366,729, 602, 394, 2, -2, 1, -20, 16, 39, 902, 765, 298,∞
2025-03-18 11:32:36.420,667, 603, 432, -6, 2, -4, -18, 17, 40, 907, 777, 434,∞
2025-03-18 11:32:36.480,694, 612, 428, -11, -8, 13, -20, 18, 39, 928, 811, 444,∞
2025-03-18 11:32:36.534,658, 615, 438, -3, -1, 2, -20, 17, 40, 933, 837, 441,∞
2025-03-18 11:32:36.592,657, 557, 506, 0, -13, 7, -20, 17, 40, 948, 875, 359,∞
2025-03-18 11:32:36.648,638, 583, 253, -3, 4, 2, -20, 18, 42, 962, 907, 249,∞
2025-03-18 11:32:36.702,864, 601, 386, -10, 28, 11, -20, 17, 40, 963, 884, 64,∞
2025-03-18 11:32:36.764,916, 431, 392, -28, 19, -10, -19, 20, 39, 936, 826, 51,∞
2025-03-18 11:32:36.820,878, 731, 640, -4, -22, 14, -19, 19, 39, 964, 920, 24,∞
2025-03-18 11:32:36.878,607, 632, 446, -13, -5, 14, -19, 18, 40, 974, 939, 129,∞
2025-03-18 11:32:36.935,536, 459, 505, 2, -22, -36, -18, 19, 41, 966, 932, 335,∞
2025-03-18 11:32:36.989,668, 773, 269, 15, 13, 2, -18, 17, 41, 973, 922, 64,∞
2025-03-18 11:32:37.046,645, 594, 307, -12, 21, 13, -19, 19, 40, 969, 868, 50,∞
2025-03-18 11:32:37.103,879, 404, 517, 33, 6, -30, -19, 19, 38, 905, 776, 288,∞
2025-03-18 11:32:37.165,568, 569, 537, -42, 33, -35, -18, 18, 38, 896, 820, 428,∞
2025-03-18 11:32:37.217,473, 625, 620, 3, -7, 1, -19, 17, 37, 899, 787, 278,∞
2025-03-18 11:32:37.275,707, 576, 456, 10, -18, 9, -18, 17, 40, 880, 760, 86,∞
2025-03-18 11:32:37.332,720, 604, 421, -1, -2, -2, -18, 17, 39, 868, 736, 54,∞
2025-03-18 11:32:37.632,637, 609, 479, 0, -3, 0, -19, 19, 37, 863, 726, 44,∑
2025-03-18 11:32:37.685,641, 604, 480, 2, -4, 1, -18, 17, 40, 862, 721, 27,∑
2025-03-18 11:32:37.738,665, 592, 477, 4, -4, 3, -19, 19, 38, 869, 732, 48,∑
2025-03-18 11:32:37.791,667, 607, 449, 4, -5, 2, -18, 17, 40, 869, 727, 34,∑
2025-03-18 11:32:37.849,680, 599, 441, 0, -2, 1, -19, 18, 40, 869, 733, 43,∑
2025-03-18 11:32:37.902,667, 605, 446, -3, -1, -1, -18, 16, 39, 866, 727, 29,∑
2025-03-18 11:32:37.960,667, 620, 459, -1, -2, -1, -18, 17, 39, 867, 714, 60,∑
2025-03-18 11:32:38.013,677, 612, 442, 3, -3, 1, -18, 19, 40, 865, 712, 47,∑
2025-03-18 11:32:38.065,660, 610, 458, 5, -4, 2, -18, 19, 40, 863, 715, 37,∑
2025-03-18 11:32:38.123,695, 593, 420, 3, -2, -4, -20, 19, 39, 858, 712, 43,∑
2025-03-18 11:32:38.177,747, 657, 403, 2, -3, 6, -20, 17, 39, 868, 732, 38,∑
2025-03-18 11:32:38.234,638, 589, 456, -11, 1, -6, -20, 17, 40, 890, 772, 311,∑
2025-03-18 11:32:38.288,605, 603, 491, -3, 0, -3, -18, 17, 40, 898, 766, 52,∑
2025-03-18 11:32:38.344,565, 609, 512, 15, -18, 2, -20, 17, 41, 904, 680, 43,∑
2025-03-18 11:32:38.402,1086, 709, 252, 27, -12, 1, -19, 17, 42, 962, 922, 47,∑
2025-03-18 11:32:38.455,626, 432, 519, 4, 2, 22, -19, 19, 41, 972, 941, 415,∑
2025-03-18 11:32:38.516,608, 466, 308, 21, 20, -32, -19, 18, 42, 941, 871, 544,∑
2025-03-18 11:32:38.574,875, 709, 699, 23, -24, 7, -19, 16, 42, 940, 839, 152,∑
2025-03-18 11:32:38.631,812, 666, 455, -20, 4, 23, -19, 17, 41, 971, 927, 492,∑
2025-03-18 11:32:38.684,648, 627, 484, 0, 9, 17, -20, 18, 41, 967, 922, 535,∑
2025-03-18 11:32:38.742,377, 532, 328, 12, 20, -6, -20, 19, 39, 945, 793, 301,∑
2025-03-18 11:32:38.795,779, 646, 281, 9, 4, -5, -19, 17, 40, 955, 852, 49,∑
2025-03-18 11:32:38.853,672, 375, 392, -20, 1, 17, -18, 19, 40, 969, 936, 103,∑
2025-03-18 11:32:38.910,821, 544, 344, -3, 21, -18, -20, 19, 40, 930, 827, 367,∑
2025-03-18 11:32:39.229,673, 586, 455, -5, -4, -4, -19, 17, 39, 843, 507, 38,∏
2025-03-18 11:32:39.282,668, 597, 463, -4, -5, -4, -19, 17, 39, 841, 500, 28,∏
2025-03-18 11:32:39.340,661, 582, 451, 0, -9, 2, -21, 16, 40, 848, 623, 62,∏
2025-03-18 11:32:39.393,705, 612, 401, 1, -6, 1, -18, 18, 41, 861, 699, 53,∏
2025-03-18 11:32:39.446,672, 583, 471, -6, 3, -2, -19, 17, 39, 868, 718, 61,∏
2025-03-18 11:32:39.503,674, 602, 451, -5, -1, -1, -22, 18, 39, 871, 722, 47,∏
2025-03-18 11:32:39.561,680, 608, 434, -3, -1, -2, -20, 18, 40, 876, 710, 45,∏
2025-03-18 11:32:39.614,661, 591, 460, -3, 0, -5, -20, 17, 42, 864, 652, 44,∏
2025-03-18 11:32:39.667,663, 617, 458, -2, -3, 1, -19, 16, 40, 860, 469, 57,∏
2025-03-18 11:32:39.724,712, 606, 384, 0, -2, 1, -18, 16, 42, 869, 568, 43,∏
2025-03-18 11:32:39.778,663, 616, 459, -4, 1, 1, -20, 17, 40, 877, 649, 64,∏
2025-03-18 11:32:39.831,674, 614, 446, -7, -1, 2, -19, 16, 41, 879, 668, 37,∏
2025-03-18 11:32:39.888,643, 597, 438, -10, -3, -5, -19, 18, 39, 883, 651, 43,∏
2025-03-18 11:32:39.946,621, 500, 532, 7, -13, -10, -19, 17, 39, 884, 718, 55,∏
2025-03-18 11:32:40.003,853, 468, 291, 34, -7, -11, -20, 18, 39, 946, 889, 63,∏
2025-03-18 11:32:40.061,624, 237, 154, -53, -6, 51, -20, 17, 43, 974, 950, 54,∏
2025-03-18 11:32:40.118,629, 460, 535, 16, -7, 6, -20, 19, 42, 971, 934, 40,∏
2025-03-18 11:32:40.175,618, 550, 310, -17, 44, -51, -20, 19, 42, 930, 818, 42,∏
2025-03-18 11:32:40.232,649, 741, 724, 14, -28, 22, -18, 18, 41, 914, 829, 56,∏
2025-03-18 11:32:40.285,709, 577, 157, -12, 4, 4, -20, 18, 41, 964, 915, 51,∏
2025-03-18 11:32:40.343,513, 636, 312, 1, 28, 26, -18, 14, 42, 967, 845, 39,∏
2025-03-18 11:32:40.396,835, 488, 464, 7, 5, 1, -18, 18, 40, 921, 761, 60,∏
2025-03-18 11:32:40.453,633, 746, 530, -24, -20, -4, -19, 17, 41, 917, 869, 295,∏
2025-03-18 11:32:40.511,775, 424, 378, -16, -9, -8, -18, 17, 42, 951, 919, 29,∏
2025-03-18 11:32:40.569,708, 491, 620, -20, -8, -1, -20, 19, 40, 970, 935, 28,∏
2025-03-18 11:32:40.627,754, 811, 215, -17, 31, 35, -19, 20, 41, 976, 922, 45,∏
2025-03-18 11:32:40.679,811, 578, 395, 20, 23, 2, -20, 20, 39, 947, 829, 48,∏
2025-03-18 11:32:40.740,748, 738, 371, -53, 63, -64, -17, 18, 39, 819, 777, 50,∏
2025-03-18 11:32:41.052,550, 646, 613, 15, 12, -60, -15, 17, 32, 395, 243, 28,√
2025-03-18 11:32:41.110,554, 675, 567, 15, 12, -60, -16, 14, 32, 362, 193, 23,√
2025-03-18 11:32:41.162,498, 639, 589, -5, 0, -55, -15, 16, 31, 322, 233, 19,√
2025-03-18 11:32:41.224,429, 729, 583, -9, 18, -58, -16, 13, 31, 192, 271, 161,√
2025-03-18 11:32:41.281,331, 752, 605, -15, 21, -49, -14, 12, 30, 46, 198, 354,√
2025-03-18 11:32:41.338,370, 764, 567, -23, 30, -48, -14, 11, 28, 49, 275, 424,√
2025-03-18 11:32:41.396,270, 764, 628, -29, 30, -30, -14, 11, 27, 63, 428, 428,√
2025-03-18 11:32:41.453,199, 715, 624, -46, 26, 1, -14, 13, 24, 379, 483, 425,√
2025-03-18 11:32:41.510,199, 670, 774, -28, -4, 69, -13, 15, 22, 48, 333, 374,√
2025-03-18 11:32:41.568,263, 741, 734, 19, -11, 30, -14, 15, 21, 24, 285, 277,√
2025-03-18 11:32:41.625,347, 733, 806, 32, -15, 53, -12, 17, 22, 26, 301, 242,√
2025-03-18 11:32:41.682,385, 652, 744, 30, -32, 63, -14, 15, 23, 238, 394, 305,√
2025-03-18 11:32:41.744,397, 661, 634, 36, -46, 96, -15, 14, 28, 651, 610, 438,√
2025-03-18 11:32:41.801,549, 532, 460, 69, -48, 91, -17, 16, 32, 798, 649, 540,√
2025-03-18 11:32:41.859,600, 616, 276, 24, -25, 71, -19, 15, 36, 860, 618, 475,√
2025-03-18 11:32:41.916,950, 644, 552, 20, -12, 5, -18, 17, 38, 882, 678, 538,√
2025-03-18 11:32:41.973,644, 455, 290, -24, 5, -10, -18, 17, 37, 902, 721, 475,√
2025-03-18 11:32:42.031,645, 691, 536, -8, 1, -13, -17, 18, 39, 903, 738, 487,√
2025-03-18 11:32:42.087,647, 549, 640, 44, -69, 16, -18, 17, 39, 909, 832, 431,√
2025-03-18 11:32:42.146,732, 902, 360, -28, -8, 9, -19, 17, 39, 953, 920, 331,√
2025-03-18 11:32:42.202,691, 663, 556, 4, 18, 20, -19, 18, 39, 960, 891, 182,√
2025-03-18 11:32:42.260,749, 757, 152, -57, 10, 13, -18, 17, 39, 948, 892, 53,√
2025-03-18 11:32:42.321,1263, 747, 723, -2, -85, -50, -17, 19, 39, 943, 928, 257,√
2025-03-18 11:32:42.379,750, 769, 183, 13, -9, 15, -20, 16, 43, 970, 940, 258,√
2025-03-18 11:32:42.436,893, 506, 410, -13, 20, -8, -19, 17, 39, 953, 914, 613,√
2025-03-18 11:32:42.494,532, 586, 591, -27, 65, -39, -19, 18, 38, 924, 816, 604,√
2025-03-18 11:32:42.551,471, 645, 611, 17, 0, -1, -18, 18, 35, 888, 631, 488,√
2025-03-18 11:32:42.608,729, 617, 443, 32, -19, 8, -18, 18, 34, 858, 565, 415,√
2025-03-18 11:32:42.665,736, 576, 403, 17, -1, -20, -17, 18, 37, 733, 521, 332,√
2025-03-18 11:32:42.723,791, 590, 261, -1, 41, -66, -18, 17, 36, 403, 272, 231,√
2025-03-18 11:32:43.325,479, 592, 535, -10, -3, 10, -16, 17, 34, 672, 464, 176,∛
2025-03-18 11:32:43.382,475, 623, 547, -5, -7, 13, -16, 16, 34, 686, 480, 185,∛
2025-03-18 11:32:43.440,663, 637, 475, 6, -28, 11, -17, 17, 36, 784, 609, 204,∛
2025-03-18 11:32:43.497,711, 620, 425, -1, -11, 6, -17, 16, 37, 846, 681, 391,∛
2025-03-18 11:32:43.554,617, 605, 498, -12, 2, -6, -19, 20, 36, 869, 714, 441,∛
2025-03-18 11:32:43.607,607, 614, 525, -2, -7, 7, -17, 17, 34, 891, 744, 452,∛
2025-03-18 11:32:43.665,660, 608, 447, 1, -6, 4, -20, 17, 36, 904, 770, 471,∛
2025-03-18 11:32:43.718,668, 621, 461, -8, -4, 0, -17, 17, 37, 915, 802, 464,∛
2025-03-18 11:32:43.776,649, 614, 487, -3, -4, 1, -16, 18, 39, 926, 831, 479,∛
2025-03-18 11:32:43.832,636, 622, 491, 8, -9, 3, -18, 17, 37, 935, 840, 500,∛
2025-03-18 11:32:43.886,647, 617, 455, 19, -4, 6, -18, 17, 39, 938, 820, 445,∛
2025-03-18 11:32:43.943,605, 642, 472, 14, 5, 10, -18, 14, 39, 939, 764, 402,∛
2025-03-18 11:32:43.996,699, 604, 392, 2, -3, 1, -18, 16, 38, 932, 746, 493,∛
2025-03-18 11:32:44.054,663, 619, 451, -7, 2, -5, -17, 16, 39, 926, 761, 409,∛
2025-03-18 11:32:44.111,632, 615, 490, 2, -6, 3, -19, 17, 39, 917, 816, 417,∛
2025-03-18 11:32:44.169,752, 583, 438, 16, -33, 9, -19, 17, 39, 923, 860, 225,∛
2025-03-18 11:32:44.226,710, 837, 367, -26, -1, 26, -19, 17, 40, 956, 916, 475,∛
2025-03-18 11:32:44.278,354, 781, 497, 3, 15, 17, -19, 18, 38, 960, 893, 298,∛
2025-03-18 11:32:44.337,719, 661, 221, -33, 18, 13, -17, 19, 41, 949, 863, 31,∛
2025-03-18 11:32:44.398,775, 576, 523, 11, -58, -47, -17, 18, 38, 917, 891, 71,∛
2025-03-18 11:32:44.456,739, 625, 442, 9, -29, 11, -20, 18, 41, 965, 923, 337,∛
2025-03-18 11:32:44.513,642, 658, 427, -8, 10, 18, -21, 19, 41, 969, 926, 552,∛
2025-03-18 11:32:44.570,666, 528, 319, -14, 32, -47, -20, 19, 40, 947, 894, 637,∛
2025-03-18 11:32:44.626,513, 694, 686, 16, -3, -12, -19, 18, 38, 926, 856, 463,∛
2025-03-18 11:32:44.689,2310, 121, -130, 21, -20, -23, -20, 16, 43, 950, 904, 487,∛
2025-03-18 11:32:44.747,667, 612, 495, -14, 1, 15, -19, 18, 43, 963, 930, 668,∛
2025-03-18 11:32:44.803,766, 639, 444, -7, 4, 5, -20, 16, 41, 963, 923, 598,∛
2025-03-18 11:32:44.857,707, 771, 319, -15, 17, 9, -19, 17, 41, 967, 926, 445,∛
2025-03-18 11:32:44.914,727, 630, 268, -9, 33, 2, -19, 18, 40, 953, 895, 490,∛
2025-03-18 11:32:44.976,653, 560, 457, -35, 64, -51, -19, 18, 37, 865, 884, 480,∛
2025-03-18 11:32:45.270,628, 650, 471, 7, -7, 8, -17, 16, 38, 832, 697, 303,∜
2025-03-18 11:32:45.328,632, 621, 468, 8, -7, 9, -18, 16, 37, 829, 695, 291,∜
2025-03-18 11:32:45.381,691, 608, 426, 2, -6, 7, -18, 16, 38, 846, 682, 212,∜
2025-03-18 11:32:45.438,651, 629, 447, -3, 0, 3, -17, 16, 40, 858, 675, 199,∜
2025-03-18 11:32:45.492,666, 625, 432, 0, -1, 1, -18, 16, 39, 866, 672, 198,∜
2025-03-18 11:32:45.544,623, 608, 513, 8, -7, 5, -19, 18, 39, 868, 700, 148,∜
2025-03-18 11:32:45.607,1529, 423, 206, -7, -8, -16, -18, 17, 40, 892, 802, 45,∜
2025-03-18 11:32:45.663,599, 562, 353, -24, -5, 29, -18, 16, 40, 955, 908, 387,∜
2025-03-18 11:32:45.721,884, 541, 490, -15, 11, 18, -18, 18, 41, 966, 892, 46,∜
2025-03-18 11:32:45.778,702, 721, 358, -63, 17, 12, -19, 19, 38, 955, 912, 44,∜
2025-03-18 11:32:45.840,617, 899, 254, -17, -50, -29, -19, 19, 39, 938, 931, 156,∜
2025-03-18 11:32:45.897,616, 775, 230, 10, -20, 13, -20, 18, 38, 973, 945, 130,∜
2025-03-18 11:32:45.950,703, 558, 422, 5, 6, 14, -19, 19, 39, 969, 937, 383,∜
2025-03-18 11:32:46.008,642, 585, 205, -9, 48, -61, -20, 18, 40, 940, 890, 599,∜
2025-03-18 11:32:46.065,583, 690, 799, 17, -6, -6, -18, 16, 39, 928, 854, 222,∜
2025-03-18 11:32:46.126,838, 517, 306, 29, -51, 11, -19, 17, 41, 947, 913, 562,∜
2025-03-18 11:32:46.184,668, 645, 456, -7, -8, -5, -20, 16, 42, 968, 937, 339,∜
2025-03-18 11:32:46.237,880, 708, 432, 6, 21, -3, -18, 15, 43, 970, 913, 47,∜
2025-03-18 11:32:46.290,754, 612, 262, 1, 15, 4, -19, 16, 42, 975, 932, 45,∜
2025-03-18 11:32:46.347,628, 436, 479, -5, -2, 11, -21, 18, 39, 975, 949, 409,∜
2025-03-18 11:32:46.405,657, 492, 353, 8, 4, -41, -20, 18, 39, 956, 923, 662,∜
2025-03-18 11:32:46.462,514, 523, 737, 15, -34, 18, -19, 16, 43, 963, 935, 681,∜
2025-03-18 11:32:46.520,773, 900, 20, -3, 34, 33, -19, 17, 42, 976, 936, 401,∜
2025-03-18 11:32:46.577,853, 331, 271, -37, 44, -47, -19, 17, 41, 952, 905, 554,∜
2025-03-18 11:32:46.633,480, 638, 745, -15, -4, -8, -19, 17, 38, 932, 894, 490,∜
2025-03-18 11:32:46.929,657, 617, 488, 2, -2, 1, -19, 16, 39, 869, 768, 190,∫
2025-03-18 11:32:46.986,649, 615, 476, 1, -2, 0, -21, 18, 39, 870, 770, 206,∫
2025-03-18 11:32:47.040,660, 623, 474, 5, -6, 0, -21, 16, 39, 880, 784, 263,∫
2025-03-18 11:32:47.097,680, 616, 423, 7, -2, -1, -19, 17, 40, 886, 762, 312,∫
2025-03-18 11:32:47.154,709, 634, 457, 4, -7, -1, -19, 17, 39, 892, 772, 433,∫
2025-03-18 11:32:47.208,641, 616, 452, -7, 2, -1, -19, 17, 37, 892, 768, 446,∫
2025-03-18 11:32:47.266,583, 637, 561, 6, -16, 17, -19, 17, 39, 915, 793, 376,∫
2025-03-18 11:32:47.327,680, 606, 367, 19, -10, 18, -18, 16, 40, 932, 807, 410,∫
2025-03-18 11:32:47.380,794, 646, 455, 0, 1, 0, -20, 16, 42, 934, 820, 421,∫
2025-03-18 11:32:47.437,762, 583, 374, -8, 8, -9, -20, 17, 41, 933, 817, 441,∫
2025-03-18 11:32:47.494,638, 629, 477, -20, 13, -7, -21, 19, 39, 935, 819, 412,∫
2025-03-18 11:32:47.551,550, 671, 564, 7, -31, 30, -21, 16, 39, 948, 865, 438,∫
2025-03-18 11:32:47.609,832, 542, 183, -27, -7, -3, -20, 18, 43, 955, 912, 307,∫
2025-03-18 11:32:47.662,576, 453, 561, 8, 1, -9, -20, 18, 41, 956, 916, 276,∫
2025-03-18 11:32:47.720,979, 933, 182, 3, 17, 13, -20, 18, 42, 970, 921, 55,∫
2025-03-18 11:32:47.776,563, 736, 483, -13, 33, 27, -19, 17, 41, 974, 924, 41,∫
2025-03-18 11:32:47.830,1024, 414, 345, 3, 26, -5, -19, 21, 38, 932, 839, 49,∫
2025-03-18 11:32:47.892,705, 571, 446, -56, 89, -68, -17, 17, 37, 887, 794, 125,∫
2025-03-18 11:32:48.142,618, 625, 508, -8, -3, -1, -18, 17, 37, 815, 440, 200,∮
2025-03-18 11:32:48.199,622, 630, 495, -4, -4, 0, -19, 17, 38, 814, 440, 195,∮
2025-03-18 11:32:48.252,675, 608, 437, -2, -9, 5, -18, 18, 38, 841, 479, 186,∮
2025-03-18 11:32:48.308,684, 622, 416, -9, 2, -4, -19, 17, 39, 833, 487, 155,∮
2025-03-18 11:32:48.367,649, 617, 457, -12, 1, -2, -19, 17, 40, 830, 488, 60,∮
2025-03-18 11:32:48.420,654, 614, 479, -4, -3, -1, -19, 16, 39, 840, 507, 34,∮
2025-03-18 11:32:48.477,661, 601, 440, -5, -3, 1, -18, 18, 37, 856, 541, 39,∮
2025-03-18 11:32:48.531,649, 628, 499, -6, -5, 4, -20, 18, 37, 880, 587, 47,∮
2025-03-18 11:32:48.588,675, 610, 451, 0, -10, 6, -19, 17, 38, 901, 685, 186,∮
2025-03-18 11:32:48.645,684, 595, 420, 4, -13, 10, -19, 17, 40, 918, 748, 336,∮
2025-03-18 11:32:48.703,672, 572, 446, -2, -20, 5, -19, 17, 41, 937, 859, 325,∮
2025-03-18 11:32:48.760,746, 545, 405, -15, -7, -14, -20, 17, 40, 949, 903, 179,∮
2025-03-18 11:32:48.817,608, 625, 453, 49, 20, -4, -20, 17, 41, 966, 905, 64,∮
2025-03-18 11:32:48.875,763, 701, 370, -18, 42, 52, -20, 19, 39, 971, 916, 52,∮
2025-03-18 11:32:48.932,450, 448, 585, 20, -34, -62, -18, 20, 38, 947, 904, 538,∮
2025-03-18 11:32:48.993,737, 424, 407, 12, -15, -12, -18, 18, 40, 961, 928, 519,∮
2025-03-18 11:32:49.046,592, 509, 457, 0, 9, 22, -20, 18, 39, 973, 927, 188,∮
2025-03-18 11:32:49.104,794, 523, 488, -36, 30, 28, -18, 17, 41, 973, 917, 49,∮
2025-03-18 11:32:49.161,842, 196, 513, 18, 0, -31, -19, 19, 39, 934, 854, 46,∮
2025-03-18 11:32:49.223,543, 541, 634, -49, -22, -10, -19, 19, 40, 948, 909, 193,∮
2025-03-18 11:32:49.276,492, 542, 609, 7, -28, 6, -19, 18, 40, 954, 927, 254,∮
2025-03-18 11:32:49.334,969, 558, 437, 15, 12, 5, -19, 19, 41, 971, 931, 43,∮
2025-03-18 11:32:49.390,557, 390, 469, 18, 44, 48, -20, 20, 42, 978, 934, 36,∮
2025-03-18 11:32:49.443,708, 583, 304, 6, 28, 15, -19, 19, 40, 962, 878, 43,∮
2025-03-18 11:32:49.501,983, 531, 277, 3, 31, -56, -18, 17, 40, 880, 786, 84,∮
2025-03-18 11:32:49.558,478, 581, 667, -38, 46, -55, -18, 18, 36, 873, 766, 30,∮
2025-03-18 11:32:49.616,425, 628, 673, 24, -17, -1, -17, 20, 33, 796, 657, 21,∮
2025-03-18 11:32:49.673,716, 568, 439, 16, -20, 3, -19, 20, 34, 755, 566, 48,∮
2025-03-18 11:32:49.944,591, 616, 519, -1, -6, 1, -17, 18, 35, 733, 500, 55,∂
2025-03-18 11:32:49.997,595, 616, 516, 2, -6, 2, -17, 16, 36, 736, 500, 56,∂
2025-03-18 11:32:50.054,619, 612, 508, -1, -4, 2, -17, 18, 34, 736, 490, 41,∂
2025-03-18 11:32:50.108,625, 605, 514, 3, -6, 2, -19, 18, 36, 738, 491, 49,∂
2025-03-18 11:32:50.161,620, 619, 513, 2, -6, 2, -16, 16, 36, 728, 486, 24,∂
2025-03-18 11:32:50.214,614, 613, 506, 6, -11, 5, -18, 18, 37, 738, 494, 40,∂
2025-03-18 11:32:50.271,625, 615, 499, 7, -17, 10, -18, 19, 36, 773, 550, 31,∂
2025-03-18 11:32:50.329,673, 623, 451, 6, -17, 9, -19, 14, 40, 817, 584, 51,∂
2025-03-18 11:32:50.381,720, 610, 426, -7, -6, 6, -18, 16, 40, 857, 643, 51,∂
2025-03-18 11:32:50.439,726, 599, 466, 11, -2, 13, -19, 17, 41, 887, 718, 194,∂
2025-03-18 11:32:50.497,626, 579, 426, 11, -7, 7, -19, 18, 38, 910, 759, 445,∂
2025-03-18 11:32:50.550,711, 602, 416, -8, -2, 0, -20, 19, 39, 919, 780, 432,∂
2025-03-18 11:32:50.608,624, 621, 502, -11, -2, 0, -20, 17, 40, 929, 774, 195,∂
2025-03-18 11:32:50.664,846, 498, 354, 4, -22, -4, -18, 18, 41, 943, 886, 122,∂
2025-03-18 11:32:50.722,791, 532, 410, 20, -12, 8, -19, 16, 41, 964, 918, 328,∂
2025-03-18 11:32:50.780,687, 736, 416, -1, 26, 26, -21, 19, 39, 971, 918, 51,∂
2025-03-18 11:32:50.837,825, 540, 337, -48, 20, 8, -19, 20, 39, 964, 884, 55,∂
2025-03-18 11:32:50.894,970, 362, 657, 10, -31, -19, -20, 20, 38, 964, 942, 54,∂
2025-03-18 11:32:50.947,581, 709, 514, 5, -9, 3, -19, 20, 40, 976, 953, 45,∂
2025-03-18 11:32:51.004,884, 416, 190, -6, 43, -37, -19, 18, 39, 957, 906, 181,∂
2025-03-18 11:32:51.325,629, 590, 509, 5, -7, 5, -18, 18, 35, 877, 623, 58,∇
2025-03-18 11:32:51.382,634, 588, 503, 8, -9, 5, -18, 17, 38, 878, 625, 50,∇
2025-03-18 11:32:51.435,660, 602, 479, 10, -12, 3, -18, 18, 37, 873, 625, 182,∇
2025-03-18 11:32:51.492,697, 602, 456, 5, -17, -4, -18, 18, 39, 879, 646, 252,∇
2025-03-18 11:32:51.554,688, 599, 399, -14, -13, -19, -20, 17, 40, 882, 650, 322,∇
2025-03-18 11:32:51.611,621, 570, 509, -15, 3, -37, -19, 16, 40, 889, 653, 385,∇
2025-03-18 11:32:51.672,584, 772, 400, -7, -5, -12, -19, 16, 39, 910, 627, 514,∇
2025-03-18 11:32:51.730,552, 668, 448, 10, -5, 37, -20, 16, 39, 924, 705, 549,∇
2025-03-18 11:32:51.784,703, 641, 426, 15, -7, 38, -19, 15, 39, 927, 748, 560,∇
2025-03-18 11:32:51.840,751, 562, 382, 4, 3, 11, -19, 16, 40, 926, 768, 511,∇
2025-03-18 11:32:51.893,689, 602, 433, -7, 5, 1, -19, 18, 40, 928, 770, 383,∇
2025-03-18 11:32:51.950,646, 606, 445, -3, 1, -2, -18, 17, 40, 930, 771, 357,∇
2025-03-18 11:32:52.009,556, 590, 516, -1, -16, -4, -20, 16, 40, 924, 805, 185,∇
2025-03-18 11:32:52.065,805, 454, 149, 19, -5, -9, -19, 16, 42, 949, 906, 50,∇
2025-03-18 11:32:52.123,642, 492, 412, 3, -3, 23, -19, 18, 41, 968, 915, 410,∇
2025-03-18 11:32:52.176,631, 469, 538, 11, -6, 3, -20, 17, 40, 970, 912, 378,∇
2025-03-18 11:32:52.234,930, 667, 366, -22, 41, 27, -21, 20, 39, 972, 869, 49,∇
2025-03-18 11:32:52.291,735, 645, 423, -28, 24, 6, -19, 18, 37, 940, 785, 46,∇
2025-03-18 11:32:52.347,567, 898, 576, 11, -29, -28, -20, 18, 39, 904, 849, 331,∇
2025-03-18 11:32:52.406,784, 658, 288, -19, -9, 9, -20, 17, 40, 965, 924, 41,∇
2025-03-18 11:32:52.463,677, 574, 365, -18, 36, 51, -19, 19, 39, 970, 917, 45,∇
2025-03-18 11:32:52.520,752, 364, 408, 16, 13, -60, -18, 20, 37, 927, 783, 306,∇
2025-03-18 11:32:52.815,637, 591, 499, -6, -1, 0, -19, 16, 39, 807, 575, 51,∆
2025-03-18 11:32:52.868,642, 605, 508, -7, -2, 1, -19, 19, 38, 814, 577, 43,∆
2025-03-18 11:32:52.925,668, 601, 500, 0, -8, 5, -20, 18, 38, 827, 617, 34,∆
2025-03-18 11:32:52.979,661, 569, 494, 11, -6, 3, -18, 19, 39, 819, 620, 50,∆
2025-03-18 11:32:53.032,690, 599, 441, 3, -5, 1, -19, 18, 38, 818, 636, 36,∆
2025-03-18 11:32:53.090,657, 601, 484, -2, 1, -3, -18, 17, 39, 819, 639, 46,∆
2025-03-18 11:32:53.142,672, 599, 473, -6, -3, 0, -17, 17, 40, 827, 647, 50,∆
2025-03-18 11:32:53.196,676, 599, 469, -6, 0, 0, -19, 19, 39, 839, 648, 40,∆
2025-03-18 11:32:53.253,660, 579, 480, 1, -3, -2, -19, 19, 40, 844, 652, 59,∆
2025-03-18 11:32:53.307,701, 590, 470, 0, -7, 7, -19, 18, 38, 868, 682, 31,∆
2025-03-18 11:32:53.364,649, 597, 488, -1, -1, -2, -17, 19, 39, 882, 703, 57,∆
2025-03-18 11:32:53.417,700, 561, 479, 2, -14, 5, -20, 19, 39, 890, 742, 56,∆
2025-03-18 11:32:53.474,680, 567, 418, -22, -17, 1, -21, 19, 40, 918, 808, 160,∆
2025-03-18 11:32:53.536,829, 389, 588, -43, -22, -19, -17, 18, 42, 956, 907, 35,∆
2025-03-18 11:32:53.589,579, 487, 517, 41, 16, -9, -23, 18, 42, 971, 907, 41,∆
2025-03-18 11:32:53.646,828, 703, 22, 16, 41, 23, -19, 18, 42, 956, 821, 51,∆
2025-03-18 11:32:53.703,770, 360, 519, -17, 8, -39, -19, 18, 39, 897, 790, 241,∆
2025-03-18 11:32:53.761,598, 577, 621, 0, -16, 0, -19, 19, 40, 920, 843, 96,∆
2025-03-18 11:32:53.819,729, 557, 374, -4, -12, -1, -20, 17, 40, 923, 821, 70,∆
2025-03-18 11:32:53.875,695, 582, 459, -20, -18, -6, -20, 17, 41, 929, 840, 133,∆
