Timestamp,Acc_X,Acc_Y,Acc_Z,Gyro_X,Gyro_Y,Gyro_Z,Mag_X,Mag_Y,Mag_Z,Force1,Force2,Force3,Letter
2025-03-12 13:11:39.632,294, 986, 392, 0, -5, 4, 4, -23, 21, 72, 73, 121,noise
2025-03-12 13:11:39.641,301, 937, 355, 1, -4, -7, 3, -22, 20, 54, 50, 88,noise
2025-03-12 13:11:39.643,294, 986, 392, 0, -5, 4, 4, -23, 21, 72, 73, 121,noise
2025-03-12 13:11:39.644,301, 937, 355, 1, -4, -7, 3, -22, 20, 54, 50, 88,noise
2025-03-12 13:11:39.646,294, 986, 392, 0, -5, 4, 4, -23, 21, 72, 73, 121,noise
2025-03-12 13:11:39.647,301, 937, 355, 1, -4, -7, 3, -22, 20, 54, 50, 88,noise
2025-03-12 13:11:46.542,483, 697, 553, -5, -1, 0, -1, 2, -2, 323, 55, 208,A
2025-03-12 13:11:46.596,489, 691, 556, -4, -1, 1, -2, 2, -1, 307, 38, 195,A
2025-03-12 13:11:46.653,531, 668, 543, -1, -3, 1, -2, 2, -1, 317, 60, 225,A
2025-03-12 13:11:46.702,517, 694, 534, -3, -2, -5, -1, 2, -1, 347, 62, 266,A
2025-03-12 13:11:46.761,509, 686, 542, -6, -2, -2, 0, -1, 4, 298, 42, 248,A
2025-03-12 13:11:46.814,502, 687, 551, -2, -3, -1, 0, 3, 2, 310, 73, 266,A
2025-03-12 13:11:46.865,513, 692, 531, -2, -1, 2, -1, 1, 0, 320, 78, 263,A
2025-03-12 13:11:46.912,515, 682, 544, -2, 0, 2, 0, 1, 0, 290, 35, 205,A
2025-03-12 13:11:46.963,529, 670, 550, 0, -1, 0, -1, 1, 1, 311, 67, 232,A
2025-03-12 13:11:47.013,526, 673, 539, -1, -2, -3, -1, 3, -1, 304, 66, 231,A
2025-03-12 13:11:47.071,517, 678, 541, -1, -2, -3, -2, 1, 0, 295, 47, 219,A
2025-03-12 13:11:47.121,522, 689, 534, 0, -3, -1, 0, 0, 1, 315, 63, 230,A
2025-03-12 13:11:47.172,518, 691, 529, -1, -1, -1, 0, 2, 1, 319, 79, 236,A
2025-03-12 13:11:47.228,516, 692, 541, 0, -1, 0, -1, 3, 1, 309, 57, 227,A
2025-03-12 13:11:47.272,525, 678, 530, 1, -1, 2, 0, 1, 2, 287, 36, 211,A
2025-03-12 13:11:47.323,530, 681, 537, 0, -1, 1, -1, 0, 1, 296, 50, 262,A
2025-03-12 13:11:47.378,544, 700, 519, -7, 4, -3, 0, 0, 1, 221, 67, 244,A
2025-03-12 13:11:47.432,582, 696, 555, -55, 2, -28, -1, 1, 0, 62, 290, 209,A
2025-03-12 13:11:47.483,468, 560, 728, 62, 1, -4, 1, 2, -1, 33, 575, 178,A
2025-03-12 13:11:47.536,536, 895, 577, 13, -27, -16, -1, -1, -1, 75, 646, 252,A
2025-03-12 13:11:47.596,469, 883, 423, 49, -43, 17, -1, 0, 0, 718, 742, 461,A
2025-03-12 13:11:47.647,473, 815, 390, 25, -4, 78, -3, -1, 2, 857, 786, 614,A
2025-03-12 13:11:47.703,417, 658, 374, -15, 9, 130, -3, 2, 1, 918, 806, 725,A
2025-03-12 13:11:47.753,863, 355, 547, 67, 2, 36, -5, 7, -2, 941, 858, 789,A
2025-03-12 13:11:47.813,574, 499, 487, 6, 24, 0, -4, 4, 1, 929, 890, 797,A
2025-03-12 13:11:47.864,583, 535, 387, -1, 13, -17, -5, 4, -1, 633, 855, 768,A
2025-03-12 13:11:47.912,518, 581, 678, -9, 11, 2, -5, 3, -1, 75, 773, 648,A
2025-03-12 13:11:47.973,848, 659, 480, 6, -18, 16, -5, 5, 0, 171, 713, 338,A
2025-03-12 13:11:48.031,732, 512, 344, -13, 20, 45, -3, 4, 2, 902, 771, 691,A
2025-03-12 13:11:48.083,534, 332, 448, -68, 5, -10, -4, 5, 0, 933, 867, 660,A
2025-03-12 13:11:48.145,1376, 504, 1494, 153, -79, -20, -2, 8, 1, 958, 927, 785,A
2025-03-12 13:11:48.196,590, 603, 750, -17, -23, -14, -4, 7, 3, 963, 943, 792,A
2025-03-12 13:11:48.252,590, 438, 517, -11, -24, 5, -3, 6, 2, 967, 948, 817,A
2025-03-12 13:11:48.312,654, 449, 485, 10, -75, 17, -4, 5, 4, 970, 954, 846,A
2025-03-12 13:11:48.364,702, 386, 531, 2, -12, -12, -5, 8, 7, 976, 961, 824,A
2025-03-12 13:11:48.413,639, 479, 497, 2, 73, 69, -5, 9, 6, 980, 958, 740,A
2025-03-12 13:11:48.477,784, 257, 609, -42, -5, -19, -3, 8, 5, 975, 954, 751,A
2025-03-12 13:11:48.529,681, 495, 685, 24, -58, 0, -4, 6, 4, 975, 960, 826,A
2025-03-12 13:11:48.582,802, 746, 91, 20, 6, 29, -2, 8, 8, 980, 964, 819,A
2025-03-12 13:11:48.632,726, 230, 536, -2, 50, 6, -4, 6, 5, 975, 957, 747,A
2025-03-12 13:11:48.682,575, 572, 644, -33, -38, -5, -4, 8, 6, 968, 938, 666,A
2025-03-12 13:11:48.746,790, 678, 98, 10, -10, 21, -5, 8, 5, 980, 964, 698,A
2025-03-12 13:11:48.795,988, 211, 252, 5, 25, -23, -6, 9, 5, 975, 958, 729,A
2025-03-12 13:11:48.853,651, 550, 376, -34, 92, -81, -3, 5, 4, 953, 935, 772,A
2025-03-12 13:11:48.911,455, 647, 794, -19, 18, -56, -1, 4, -2, 922, 854, 733,A
2025-03-12 13:11:48.962,555, 692, 602, 11, -55, -10, 1, 2, -2, 904, 842, 700,A
2025-03-12 13:11:49.021,640, 710, 417, 40, -60, 37, -3, 3, 2, 894, 831, 701,A
2025-03-12 13:11:49.078,645, 484, 362, 22, -1, 48, -5, 6, 2, 908, 831, 664,A
2025-03-12 13:11:49.132,666, 576, 458, -14, 32, 17, -2, 3, 5, 933, 864, 653,A
2025-03-12 13:11:49.182,728, 685, 514, -2, 11, 15, -4, 6, 2, 944, 875, 597,A
2025-03-12 13:11:49.233,724, 537, 448, -1, 10, 5, -4, 8, 1, 946, 886, 628,A
2025-03-12 13:11:49.285,768, 564, 367, -6, -9, -2, -2, 7, 2, 949, 897, 706,A
2025-03-12 13:11:49.346,712, 609, 470, -8, -3, 1, -3, 9, 1, 950, 908, 727,A
2025-03-12 13:11:49.396,732, 538, 442, -3, -1, -5, -3, 7, 1, 949, 912, 736,A
2025-03-12 13:11:49.452,725, 581, 445, -1, 0, -3, -4, 7, 3, 950, 905, 713,A
2025-03-12 13:11:49.503,716, 573, 426, -2, 3, -5, -3, 6, 1, 946, 900, 698,A
2025-03-12 13:11:49.553,679, 586, 452, -6, 4, 1, -2, 6, 3, 941, 891, 680,A
2025-03-12 13:11:49.611,705, 554, 440, -3, 1, -1, -3, 5, 3, 941, 887, 649,A
2025-03-12 13:11:49.663,703, 580, 467, 0, 1, -4, -3, 7, 2, 934, 868, 626,A
2025-03-12 13:11:49.712,694, 549, 459, -3, 0, -3, -2, 6, 2, 933, 865, 616,A
2025-03-12 13:11:49.763,691, 578, 477, 0, 0, -1, -5, 7, 2, 935, 872, 637,A
2025-03-12 13:11:49.822,707, 577, 450, -3, -1, -2, -4, 6, 3, 934, 879, 649,A
2025-03-12 13:11:49.877,704, 569, 428, -2, 1, -2, -1, 7, 3, 935, 876, 654,A
2025-03-12 13:11:50.890,698, 575, 410, -10, 0, 5, -3, 6, 3, 954, 923, 731,B
2025-03-12 13:11:50.943,725, 594, 394, -11, 1, 4, -5, 6, 4, 956, 924, 732,B
2025-03-12 13:11:50.996,675, 593, 413, -23, 3, -3, -4, 7, 4, 956, 924, 716,B
2025-03-12 13:11:51.052,728, 471, 604, -9, -8, -10, -2, 6, 5, 960, 933, 650,B
2025-03-12 13:11:51.102,832, 771, 423, 27, 7, 18, -4, 6, 3, 970, 940, 628,B
2025-03-12 13:11:51.160,722, 371, 230, -37, 44, 51, -3, 8, 3, 973, 935, 37,B
2025-03-12 13:11:51.212,725, 113, 635, 1, -42, -55, -3, 7, 1, 965, 936, 502,B
2025-03-12 13:11:51.266,885, 322, 549, 18, -37, -34, -2, 5, 5, 974, 954, 672,B
2025-03-12 13:11:51.322,530, 448, 637, 9, -4, 8, -3, 6, 2, 976, 960, 733,B
2025-03-12 13:11:51.372,857, 427, 459, 8, 8, 15, -4, 8, 2, 977, 956, 546,B
2025-03-12 13:11:51.429,632, 384, 745, -17, 19, 10, -4, 7, 4, 978, 951, 367,B
2025-03-12 13:11:51.479,871, 605, 457, 8, 13, 6, -3, 7, 3, 972, 932, 197,B
2025-03-12 13:11:51.533,945, 388, 278, -2, 28, -37, -3, 7, 3, 947, 899, 494,B
2025-03-12 13:11:51.594,472, 536, 841, -9, -12, -20, -3, 5, 1, 941, 908, 587,B
2025-03-12 13:11:51.872,657, 552, 525, 9, -17, 11, -3, 7, 2, 955, 926, 551,C
2025-03-12 13:11:51.933,693, 565, 490, 10, -18, 12, -2, 6, 3, 956, 931, 561,C
2025-03-12 13:11:51.982,723, 492, 408, 9, -12, 4, -4, 7, 3, 958, 935, 611,C
2025-03-12 13:11:52.044,710, 583, 426, -11, -8, -12, -4, 7, 3, 961, 942, 561,C
2025-03-12 13:11:52.095,630, 420, 601, 16, -4, -14, -3, 7, 6, 967, 939, 400,C
2025-03-12 13:11:52.148,706, 819, 117, -1, 36, 44, -2, 5, 4, 976, 940, 57,C
2025-03-12 13:11:52.206,498, 147, 788, -1, -15, 5, -4, 8, 3, 976, 955, 340,C
2025-03-12 13:11:52.261,624, 570, 515, -15, 40, -34, -3, 7, 2, 961, 939, 598,C
2025-03-12 13:11:52.312,574, 633, 648, 0, -7, -2, -1, 4, 2, 946, 913, 639,C
2025-03-12 13:11:52.363,774, 575, 416, 6, -13, 3, -3, 6, 2, 944, 908, 618,C
2025-03-12 13:11:52.617,681, 486, 476, -9, -17, -5, -6, 5, 4, 950, 921, 377,D
2025-03-12 13:11:52.673,718, 472, 472, -3, -13, -4, -4, 10, 4, 950, 927, 392,D
2025-03-12 13:11:52.728,804, 582, 523, 43, -1, -9, -2, 6, 5, 969, 937, 452,D
2025-03-12 13:11:52.780,663, 673, 147, -30, 38, 45, -2, 6, 2, 973, 932, 35,D
2025-03-12 13:11:52.834,533, 135, 819, -4, -14, -18, -3, 9, 2, 959, 921, 55,D
2025-03-12 13:11:52.892,828, 574, 773, 0, -42, -31, -2, 6, 2, 959, 939, 432,D
2025-03-12 13:11:52.945,473, 859, 328, 28, 2, 25, -3, 6, 4, 977, 951, 409,D
2025-03-12 13:11:52.999,607, 608, 175, -29, 47, 39, -4, 8, 2, 977, 939, 82,D
2025-03-12 13:11:53.053,1199, 184, 373, -16, 45, -39, -2, 7, 4, 948, 854, 183,D
2025-03-12 13:11:53.112,470, 573, 854, -12, 0, -29, -1, 5, 0, 907, 882, 455,D
2025-03-12 13:11:53.396,639, 580, 543, 1, -17, 0, -4, 6, 3, 928, 905, 377,E
2025-03-12 13:11:53.493,695, 566, 491, 1, -18, 2, -3, 6, 3, 928, 911, 376,E
2025-03-12 13:11:53.503,727, 494, 504, 3, -5, -8, -4, 7, 3, 951, 929, 390,E
2025-03-12 13:11:53.552,487, 916, 225, -8, 47, 32, -3, 6, 5, 971, 929, 51,E
2025-03-12 13:11:53.609,774, 733, 142, -43, 22, 27, 1, 7, 4, 969, 921, 46,E
2025-03-12 13:11:53.662,515, 447, 603, 2, -25, -58, -4, 7, 4, 954, 913, 47,E
2025-03-12 13:11:53.713,888, 651, 409, 69, -43, -17, -4, 6, 5, 973, 954, 243,E
2025-03-12 13:11:53.772,628, 499, 583, 34, 13, 29, -4, 7, 6, 968, 948, 562,E
2025-03-12 13:11:53.826,401, 645, 680, 8, 25, -9, -4, 7, 3, 956, 904, 366,E
2025-03-12 13:11:53.875,988, 803, 64, 2, -3, 4, -5, 6, 5, 972, 942, 142,E
2025-03-12 13:11:53.928,786, 442, 606, 25, 8, 20, -4, 7, 4, 974, 945, 227,E
2025-03-12 13:11:53.980,479, 547, 560, 14, 14, -7, -2, 8, 2, 957, 848, 123,E
2025-03-12 13:11:54.033,806, 620, 559, -7, -10, 4, -3, 8, 5, 972, 952, 71,E
2025-03-12 13:11:54.082,797, 636, 356, -8, 0, 10, -5, 7, 5, 965, 937, 212,E
2025-03-12 13:11:54.136,586, 548, 496, -4, 33, -44, -3, 7, 1, 933, 879, 453,E
2025-03-12 13:11:54.423,815, 481, 337, 2, -17, 5, -1, 5, 6, 941, 911, 437,F
2025-03-12 13:11:54.477,753, 604, 340, 4, -6, -9, -4, 5, 4, 943, 914, 426,F
2025-03-12 13:11:54.526,727, 523, 590, 2, 2, -2, -2, 5, 7, 958, 926, 418,F
2025-03-12 13:11:54.578,652, 953, 395, -3, 36, 49, -5, 5, 6, 969, 919, 64,F
2025-03-12 13:11:54.633,843, 720, 211, -35, 28, 31, -4, 8, 4, 965, 913, 32,F
2025-03-12 13:11:54.683,347, 620, 701, 1, 0, -52, -4, 7, 2, 946, 912, 246,F
2025-03-12 13:11:54.742,794, 904, 358, 12, -39, -17, -3, 6, 4, 967, 944, 216,F
2025-03-12 13:11:54.794,763, 520, 355, 11, 13, 27, -4, 5, 6, 972, 950, 523,F
2025-03-12 13:11:54.852,468, 476, 475, 15, 48, -26, -4, 5, 6, 958, 895, 465,F
2025-03-12 13:11:54.907,752, 1307, 308, 6, -13, 0, -4, 7, 4, 968, 932, 230,F
2025-03-12 13:11:54.952,799, 378, 717, 4, 0, 26, -4, 6, 4, 970, 941, 393,F
2025-03-12 13:11:55.013,550, 520, 515, -16, 47, -40, -4, 5, 3, 946, 897, 492,F
2025-03-12 13:11:55.287,742, 511, 414, 0, -19, 8, -4, 5, 5, 953, 926, 535,G
2025-03-12 13:11:55.332,755, 561, 390, 0, -16, 5, -4, 7, 5, 953, 930, 421,G
2025-03-12 13:11:55.395,801, 479, 517, 7, -1, -5, -3, 7, 6, 967, 936, 240,G
2025-03-12 13:11:55.447,1212, 812, 388, 11, 51, 34, -4, 5, 8, 975, 917, 46,G
2025-03-12 13:11:55.502,839, 754, 419, -71, 29, 42, -4, 8, 5, 974, 939, 69,G
2025-03-12 13:11:55.558,669, 421, 628, 4, -22, -22, -3, 7, 3, 969, 944, 103,G
2025-03-12 13:11:55.611,862, 1205, 48, 10, 33, 40, -4, 8, 5, 975, 942, 64,G
2025-03-12 13:11:55.663,685, 495, 568, -22, 5, 7, -5, 8, 4, 973, 928, 48,G
2025-03-12 13:11:55.713,611, 493, 653, 5, -26, -20, -4, 7, 3, 969, 931, 73,G
2025-03-12 13:11:55.773,877, 692, 133, 17, -16, 21, -5, 7, 3, 977, 954, 137,G
2025-03-12 13:11:55.830,803, 354, 128, -20, 53, -44, -4, 8, 4, 968, 937, 287,G
2025-03-12 13:11:56.088,672, 597, 418, -15, -6, -7, -4, 5, 3, 910, 825, 288,H
2025-03-12 13:11:56.143,671, 584, 415, -13, -7, -6, -3, 7, 3, 909, 821, 236,H
2025-03-12 13:11:56.194,675, 599, 495, 2, -22, 8, -2, 6, 2, 915, 863, 269,H
2025-03-12 13:11:56.246,820, 414, 338, 9, -6, -11, -3, 7, 3, 948, 912, 303,H
2025-03-12 13:11:56.302,1005, 698, 494, 35, 20, 23, -5, 6, 6, 969, 918, 62,H
2025-03-12 13:11:56.361,881, 270, 452, -26, 21, 24, -5, 7, 4, 974, 907, 45,H
2025-03-12 13:11:56.413,701, 53, 663, -9, -27, -47, -3, 8, 4, 960, 891, 63,H
2025-03-12 13:11:56.462,827, 630, 654, 9, -24, -26, -3, 8, 3, 965, 925, 46,H
2025-03-12 13:11:56.519,873, 768, 143, -19, 7, 51, -5, 5, 4, 974, 949, 117,H
2025-03-12 13:11:56.576,677, 431, 303, -13, 15, -41, -5, 8, 5, 969, 940, 440,H
2025-03-12 13:11:56.627,889, 382, 627, 18, -33, 18, -4, 7, 5, 972, 945, 417,H
2025-03-12 13:11:56.682,588, 932, 60, -6, 44, 60, -4, 7, 5, 977, 940, 60,H
2025-03-12 13:11:56.741,878, 269, 226, -20, 25, -46, -3, 8, 2, 969, 920, 271,H
2025-03-12 13:11:57.032,757, 520, 477, 1, -13, -7, -4, 6, 5, 943, 869, 49,I
2025-03-12 13:11:57.083,692, 384, 360, 16, -4, -21, -3, 4, 3, 946, 887, 53,I
2025-03-12 13:11:57.143,768, 969, 479, 11, -35, 33, -4, 5, 5, 969, 945, 291,I
2025-03-12 13:11:57.193,707, 541, 392, -4, 2, 22, -5, 4, 6, 968, 943, 312,I
2025-03-12 13:11:57.245,546, 516, 455, -10, 14, -25, -5, 8, 4, 957, 923, 201,I
2025-03-12 13:11:57.302,733, 368, 247, 35, 3, -2, -4, 6, 4, 974, 937, 55,I
2025-03-12 13:11:57.354,1021, 408, 355, -12, 44, 70, -4, 6, 5, 976, 932, 63,I
2025-03-12 13:11:57.409,580, 216, 532, 14, 14, -38, -4, 7, 4, 956, 838, 64,I
2025-03-12 13:11:57.466,881, 567, 488, 5, -16, -17, -3, 7, 2, 961, 917, 47,I
2025-03-12 13:11:57.520,730, 560, 455, -38, 13, 48, -4, 7, 3, 973, 942, 74,I
2025-03-12 13:11:57.573,562, 583, 344, -39, 62, -55, -3, 5, 5, 959, 901, 46,I
2025-03-12 13:11:57.823,646, 561, 549, -8, -17, 3, -2, 7, 4, 925, 869, 65,J
2025-03-12 13:11:57.876,676, 539, 521, -1, -22, 7, -3, 4, 3, 927, 869, 63,J
2025-03-12 13:11:57.933,851, 522, 270, 40, 0, -11, -4, 5, 4, 960, 923, 52,J
2025-03-12 13:11:57.983,428, 618, 336, -15, -2, 30, -3, 6, 7, 971, 948, 221,J
2025-03-12 13:11:58.041,715, 545, 259, 20, 14, -5, -2, 6, 5, 959, 909, 420,J
2025-03-12 13:11:58.093,916, 453, 604, 18, 1, -14, -1, 5, 7, 964, 904, 313,J
2025-03-12 13:11:58.145,571, 632, 266, 12, 36, 34, -4, 5, 4, 977, 937, 64,J
2025-03-12 13:11:58.203,604, 652, 153, -45, 20, 21, -5, 8, 2, 975, 927, 47,J
2025-03-12 13:11:58.258,1317, 211, 240, 59, -4, -58, -4, 8, 4, 926, 813, 49,J
2025-03-12 13:11:58.310,455, 592, 877, 5, 3, -17, -1, 6, 5, 910, 843, 266,J
2025-03-12 13:11:58.592,691, 580, 412, -5, -18, 2, -3, 4, 4, 859, 824, 81,K
2025-03-12 13:11:58.645,694, 586, 401, -4, -16, 2, -3, 3, 7, 863, 833, 87,K
2025-03-12 13:11:58.695,723, 546, 456, 0, -12, 3, -5, 6, 6, 876, 857, 196,K
2025-03-12 13:11:58.752,811, 524, 342, -3, 0, -5, -3, 4, 7, 918, 885, 85,K
2025-03-12 13:11:58.802,724, 495, 459, 13, 1, 0, -3, 6, 5, 946, 890, 61,K
2025-03-12 13:11:58.852,834, 556, 424, -25, 46, 41, -1, 7, 2, 959, 823, 41,K
2025-03-12 13:11:58.912,590, 604, 812, -69, -27, 10, -3, 8, 2, 966, 947, 52,K
2025-03-12 13:11:58.963,568, 264, 775, 16, -37, -18, -6, 7, 5, 968, 957, 68,K
2025-03-12 13:11:59.013,766, 536, 29, -2, 35, -15, -4, 6, 3, 951, 906, 228,K
2025-03-12 13:11:59.076,819, 402, 696, -6, -31, 31, -3, 7, 4, 963, 915, 64,K
2025-03-12 13:11:59.128,811, 576, -82, -24, 20, 59, -4, 7, 2, 979, 946, 70,K
2025-03-12 13:11:59.182,852, 539, -4, -21, 43, -71, -6, 9, 2, 967, 922, 69,K
2025-03-12 13:11:59.233,523, 593, 768, -7, 38, -46, -4, 7, 0, 922, 844, 152,K
2025-03-12 13:11:59.495,634, 572, 469, -1, -12, 1, -4, 6, 4, 927, 843, 120,L
2025-03-12 13:11:59.543,648, 570, 472, 2, -15, 3, -3, 7, 5, 924, 844, 132,L
2025-03-12 13:11:59.593,840, 468, 345, -22, -1, -12, -4, 8, 6, 941, 893, 54,L
2025-03-12 13:11:59.653,720, 521, 524, 24, -15, -11, -4, 6, 5, 960, 909, 49,L
2025-03-12 13:11:59.707,699, 710, 303, 0, 52, 43, -2, 4, 7, 968, 882, 42,L
2025-03-12 13:11:59.759,921, 669, 460, -26, 19, 35, -4, 8, 3, 971, 934, 64,L
2025-03-12 13:11:59.813,566, 324, 409, 14, -11, 5, -4, 8, 3, 972, 946, 57,L
2025-03-12 13:11:59.867,755, 569, 221, -31, 66, -45, -5, 10, 4, 956, 903, 57,L
2025-03-12 13:11:59.925,552, 527, 805, -4, -9, -12, -2, 9, 2, 938, 833, 39,L
2025-03-12 13:12:00.197,686, 576, 445, -11, -15, -3, -4, 5, 3, 882, 847, 55,M
2025-03-12 13:12:00.253,692, 577, 470, -9, -16, -1, -5, 8, 7, 884, 856, 53,M
2025-03-12 13:12:00.302,794, 495, 530, -11, -2, -8, -3, 6, 5, 937, 895, 45,M
2025-03-12 13:12:00.359,533, 794, 244, 31, 36, 38, -3, 5, 4, 963, 895, 64,M
2025-03-12 13:12:00.413,648, 522, 325, -27, 29, 30, -2, 9, 3, 954, 893, 27,M
2025-03-12 13:12:00.463,603, 594, 659, -6, -33, -33, -6, 7, 3, 931, 912, 50,M
2025-03-12 13:12:00.526,784, 374, 514, 26, -24, -17, -5, 9, 3, 970, 945, 47,M
2025-03-12 13:12:00.579,790, 742, 313, -23, 25, 39, -4, 7, 5, 973, 944, 67,M
2025-03-12 13:12:00.632,614, 174, 713, 9, -20, -22, -4, 8, 5, 967, 946, 100,M
2025-03-12 13:12:00.683,893, 829, 242, 44, -9, 1, -4, 7, 5, 974, 944, 42,M
2025-03-12 13:12:00.733,857, 349, 384, -11, 23, 14, -3, 6, 4, 970, 928, 49,M
2025-03-12 13:12:01.042,706, 541, 461, -7, -4, -5, -4, 7, 4, 915, 874, 63,N
2025-03-12 13:12:01.093,735, 531, 454, -7, -4, -5, 0, 7, 2, 916, 878, 72,N
2025-03-12 13:12:01.152,775, 549, 553, 1, -6, -11, -2, 6, 4, 940, 910, 65,N
2025-03-12 13:12:01.203,834, 520, 428, 41, 30, 43, -4, 5, 5, 968, 909, 35,N
2025-03-12 13:12:01.259,797, 663, 231, -22, 24, 31, -3, 5, 3, 962, 905, 68,N
2025-03-12 13:12:01.312,514, 738, 540, -10, -7, -39, -4, 7, 5, 944, 915, 60,N
2025-03-12 13:12:01.367,832, 449, 440, 32, -30, -16, -4, 6, 4, 968, 938, 53,N
2025-03-12 13:12:01.424,868, 1123, 382, -30, 24, 52, -7, 8, 3, 973, 931, 34,N
2025-03-12 13:12:01.476,531, 122, 898, 13, -40, -47, -5, 9, 3, 968, 947, 63,N
2025-03-12 13:12:01.534,1083, 576, -117, 17, 42, -30, -2, 6, 6, 940, 930, 188,N
2025-03-12 13:12:01.823,706, 530, 492, -3, -7, 6, -4, 7, 4, 911, 883, 50,O
2025-03-12 13:12:01.883,702, 534, 515, 0, -10, 6, -6, 8, 3, 917, 884, 55,O
2025-03-12 13:12:01.929,739, 540, 396, 4, -15, 8, -4, 8, 4, 936, 904, 57,O
2025-03-12 13:12:01.986,781, 439, 513, -20, -4, -22, -4, 7, 3, 945, 933, 55,O
2025-03-12 13:12:02.041,1214, 471, 429, 55, 7, -13, -4, 4, 6, 962, 926, 36,O
2025-03-12 13:12:02.093,716, 1240, 39, -74, 38, 74, -4, 8, 4, 973, 942, 50,O
2025-03-12 13:12:02.152,396, 61, 1034, -8, -31, -31, -4, 10, 2, 974, 957, 39,O
2025-03-12 13:12:02.209,1041, 602, 218, 28, -11, -48, -4, 7, 4, 945, 938, 53,O
2025-03-12 13:12:02.263,633, 564, 624, -31, 55, -18, -3, 7, 4, 944, 918, 61,O
2025-03-12 13:12:02.313,498, 528, 612, 15, 10, 8, -1, 7, 1, 923, 838, 62,O
2025-03-12 13:12:02.582,701, 538, 476, 1, -7, -2, -4, 7, 6, 906, 878, 60,P
2025-03-12 13:12:02.625,703, 525, 485, 6, -7, -1, -5, 7, 4, 908, 877, 46,P
2025-03-12 13:12:02.682,691, 599, 402, 9, -10, -1, -3, 6, 4, 912, 874, 31,P
2025-03-12 13:12:02.733,740, 519, 429, 2, -11, -11, -4, 6, 5, 917, 893, 63,P
2025-03-12 13:12:02.791,824, 611, 408, 28, 15, 13, -4, 7, 5, 962, 918, 51,P
2025-03-12 13:12:02.842,581, 475, 293, -18, 38, 53, -2, 8, 4, 972, 927, 56,P
2025-03-12 13:12:02.902,531, -21, 877, 20, -35, -41, -4, 8, 5, 964, 929, 47,P
2025-03-12 13:12:02.959,676, 504, 507, -12, -44, -19, -4, 8, 4, 968, 953, 61,P
2025-03-12 13:12:03.009,599, 843, 275, 3, 4, 21, -3, 7, 7, 977, 953, 45,P
2025-03-12 13:12:03.063,748, 360, 217, -12, 33, 30, -4, 8, 4, 971, 931, 52,P
2025-03-12 13:12:03.118,637, 561, 512, -23, 43, -36, -3, 9, 1, 954, 920, 46,P
2025-03-12 13:12:03.172,535, 596, 652, 16, -29, -10, -2, 5, 1, 948, 920, 57,P
2025-03-12 13:12:03.423,679, 534, 485, 7, -15, 7, -2, 6, 3, 947, 909, 60,Q
2025-03-12 13:12:03.475,685, 534, 489, 9, -17, 7, -2, 7, 5, 948, 912, 46,Q
2025-03-12 13:12:03.531,722, 530, 409, 1, -23, 6, -4, 8, 5, 950, 918, 34,Q
2025-03-12 13:12:03.582,733, 575, 373, -25, -3, -19, -3, 6, 8, 956, 940, 48,Q
2025-03-12 13:12:03.632,629, 307, 510, 89, 7, -31, -2, 2, 7, 971, 928, 43,Q
2025-03-12 13:12:03.682,706, 540, 350, -73, 39, 70, -3, 8, 3, 977, 947, 48,Q
2025-03-12 13:12:03.742,509, 169, 691, 3, -40, -39, -2, 9, 3, 975, 957, 45,Q
2025-03-12 13:12:03.794,853, 480, -12, 12, 33, -61, -3, 8, 4, 958, 924, 62,Q
2025-03-12 13:12:03.852,500, 718, 949, 12, -46, 46, -4, 6, 2, 965, 920, 44,Q
2025-03-12 13:12:03.903,618, 180, 290, -44, 9, 44, -5, 8, 5, 978, 950, 72,Q
2025-03-12 13:12:03.958,978, 29, 119, -10, 23, -51, -5, 9, 5, 975, 922, 42,Q
2025-03-12 13:12:04.012,530, 591, 610, 28, 33, -52, -4, 9, 3, 940, 829, 62,Q
2025-03-12 13:12:04.063,639, 563, 493, 19, -19, 2, -2, 5, 0, 904, 773, 44,Q
2025-03-12 13:12:04.318,649, 554, 513, -2, -7, 0, -3, 5, 2, 893, 805, 55,R
2025-03-12 13:12:04.373,645, 556, 522, 0, -11, 2, -2, 8, 6, 892, 810, 46,R
2025-03-12 13:12:04.426,588, 546, 541, 16, -37, 2, -3, 5, 5, 892, 844, 56,R
2025-03-12 13:12:04.479,781, 475, 463, 12, -8, -14, -4, 8, 6, 952, 887, 65,R
2025-03-12 13:12:04.532,423, 702, 423, -50, 51, 87, -5, 8, 3, 970, 899, 57,R
2025-03-12 13:12:04.582,504, -44, 679, -9, -29, -46, -4, 8, 3, 960, 912, 48,R
2025-03-12 13:12:04.643,797, 422, 727, -28, -16, -17, -3, 7, 5, 966, 943, 65,R
2025-03-12 13:12:04.692,645, 922, 375, 0, 7, 24, -5, 8, 4, 978, 948, 46,R
2025-03-12 13:12:04.746,755, 254, 477, -6, 32, 42, -4, 8, 3, 975, 937, 48,R
2025-03-12 13:12:04.793,738, 299, 622, 15, -11, 5, -4, 9, 4, 972, 939, 74,R
2025-03-12 13:12:04.856,686, 564, 451, -11, 41, -38, -5, 9, 0, 955, 906, 55,R
2025-03-12 13:12:05.135,731, 526, 451, 3, -17, 2, -4, 7, 5, 942, 911, 47,S
2025-03-12 13:12:05.182,741, 546, 426, 0, -17, 2, -5, 9, 4, 943, 912, 65,S
2025-03-12 13:12:05.241,681, 547, 456, -12, -11, 4, -4, 8, 4, 951, 924, 59,S
2025-03-12 13:12:05.295,846, 460, 509, -13, 1, -11, -7, 7, 4, 959, 937, 39,S
2025-03-12 13:12:05.344,685, 471, 201, 51, 11, -18, -4, 6, 4, 967, 932, 56,S
2025-03-12 13:12:05.393,551, 748, 509, -4, 34, 64, -4, 6, 6, 975, 946, 37,S
2025-03-12 13:12:05.454,557, 568, 520, -7, 8, 18, -4, 10, 2, 974, 940, 62,S
2025-03-12 13:12:05.508,1176, 268, 159, -15, 44, -39, 1, 10, 3, 952, 881, 38,S
2025-03-12 13:12:05.562,478, 498, 865, 3, 12, -18, -1, 8, 0, 937, 869, 56,S
2025-03-12 13:12:05.851,676, 549, 486, 0, -8, -3, -2, 5, 5, 884, 842, 36,T
2025-03-12 13:12:05.903,703, 535, 497, 3, -8, -3, -1, 5, 5, 885, 839, 42,T
2025-03-12 13:12:05.958,686, 572, 452, -3, -6, -6, -3, 6, 2, 888, 830, 45,T
2025-03-12 13:12:06.009,747, 514, 454, -4, -14, -4, -4, 7, 4, 903, 837, 46,T
2025-03-12 13:12:06.063,1093, 447, 599, 33, -18, -6, -4, 7, 5, 957, 920, 56,T
2025-03-12 13:12:06.117,562, 437, 402, 2, -5, 19, -5, 7, 7, 970, 944, 46,T
2025-03-12 13:12:06.169,731, 587, 246, 12, 12, -1, -5, 6, 6, 959, 905, 165,T
2025-03-12 13:12:06.224,826, 591, 620, -10, -3, 2, -4, 6, 6, 959, 901, 51,T
2025-03-12 13:12:06.277,944, 741, 153, -4, 24, 34, -4, 8, 5, 976, 929, 58,T
2025-03-12 13:12:06.331,787, 665, 338, -7, 17, 22, -2, 6, 5, 970, 908, 42,T
2025-03-12 13:12:06.383,621, 533, 464, -8, 35, -37, -4, 8, 2, 950, 895, 50,T
2025-03-12 13:12:06.440,640, 543, 643, 13, -14, -17, -2, 7, 1, 913, 877, 36,T
2025-03-12 13:12:06.493,748, 548, 474, 10, -11, 0, -4, 6, 1, 911, 866, 59,T
2025-03-12 13:12:06.744,795, 235, 302, 2, -3, -16, -4, 8, 4, 951, 904, 44,U
2025-03-12 13:12:06.798,747, 545, 498, 13, -3, -12, -2, 7, 6, 955, 904, 47,U
2025-03-12 13:12:06.851,799, 332, 572, 4, 18, 39, -2, 7, 4, 969, 913, 65,U
2025-03-12 13:12:06.903,599, 531, 657, -40, 6, 20, -3, 6, 6, 968, 937, 55,U
2025-03-12 13:12:06.961,1012, 334, 693, -3, -28, -26, -5, 7, 8, 958, 939, 39,U
2025-03-12 13:12:07.017,638, 1034, -152, -39, 46, 48, -4, 8, 3, 973, 924, 50,U
2025-03-12 13:12:07.066,916, 245, 293, -45, 29, -43, -3, 8, 4, 966, 917, 66,U
2025-03-12 13:12:07.125,527, 531, 667, -3, 18, -35, -1, 5, 1, 937, 900, 34,U
2025-03-12 13:12:07.174,621, 530, 489, 4, -15, -1, -3, 7, 2, 910, 880, 49,U
2025-03-12 13:12:07.225,727, 561, 419, 10, -11, 7, -1, 6, 1, 918, 860, 42,U
2025-03-12 13:12:07.284,718, 551, 438, -1, 7, -2, -4, 6, 2, 913, 844, 58,U
2025-03-12 13:12:07.332,669, 581, 503, -1, -5, 2, -3, 6, 2, 907, 826, 61,U
2025-03-12 13:12:08.018,713, 550, 489, 11, 0, -3, -4, 7, 1, 915, 811, 47,V
2025-03-12 13:12:08.074,705, 564, 476, 8, 1, -1, -3, 5, 3, 912, 808, 55,V
2025-03-12 13:12:08.124,716, 524, 504, 5, 0, 1, -3, 7, 3, 900, 789, 64,V
2025-03-12 13:12:11.694,703, 569, 456, -1, 0, -1, -1, 6, 3, 949, 896, 62,W
2025-03-12 13:12:11.731,697, 570, 453, -2, 0, 0, -1, 9, 6, 948, 893, 65,W
2025-03-12 13:12:11.794,702, 563, 459, -1, 0, -1, -3, 7, 5, 950, 894, 49,W
2025-03-12 13:12:11.861,699, 573, 449, -1, 0, 0, -4, 7, 5, 948, 894, 51,W
2025-03-12 13:12:11.890,697, 564, 450, 0, 0, -1, -3, 5, 4, 948, 890, 37,W
2025-03-12 13:12:11.942,705, 568, 456, -2, 0, 0, -4, 5, 6, 949, 891, 32,W
2025-03-12 13:12:11.991,700, 568, 449, 0, 0, -1, -2, 5, 5, 948, 891, 56,W
2025-03-12 13:12:12.049,704, 578, 448, -3, 1, 0, -3, 7, 3, 945, 892, 62,W
2025-03-12 13:12:12.102,703, 558, 462, 0, 0, -1, -3, 7, 4, 946, 894, 61,W
2025-03-12 13:12:12.148,701, 579, 444, -2, 0, 0, -2, 5, 5, 946, 893, 48,W
2025-03-12 13:12:12.192,703, 565, 456, 0, 0, -1, -3, 4, 5, 946, 890, 42,W
2025-03-12 13:12:12.249,703, 573, 461, -2, 0, 0, -4, 6, 6, 942, 887, 58,W
2025-03-12 13:12:12.339,694, 580, 432, -3, 1, 0, -3, 7, 4, 943, 888, 47,W
2025-03-12 13:12:12.386,683, 574, 453, -4, 2, 1, -3, 5, 5, 945, 897, 52,W
2025-03-12 13:12:12.482,708, 563, 469, -4, -2, -5, -3, 6, 4, 954, 918, 36,W
2025-03-12 13:12:12.566,892, 724, 502, 19, -3, 31, -3, 5, 6, 971, 930, 59,W
2025-03-12 13:12:12.646,537, 95, 547, -7, 11, 38, -4, 8, 2, 974, 938, 47,W
2025-03-12 13:12:12.676,631, 142, 538, 7, -27, -30, -7, 10, 4, 972, 951, 40,W
2025-03-12 13:12:12.680,832, 262, 632, 57, -15, -18, -3, 7, 3, 972, 947, 69,W
2025-03-12 13:12:12.684,758, 435, 448, -19, 9, 31, -4, 8, 3, 974, 942, 56,W
2025-03-12 13:12:12.716,1063, 434, 465, 1, -39, -32, -4, 9, 3, 971, 950, 65,W
2025-03-12 13:12:12.768,707, 468, 202, -34, 82, -45, -5, 9, 2, 956, 931, 54,W
2025-03-12 13:12:12.822,452, 620, 907, 6, 13, -3, -3, 7, -1, 945, 897, 32,W
2025-03-12 13:12:12.876,701, 530, 549, 26, -24, 11, -4, 9, -1, 938, 855, 64,W
2025-03-12 13:12:12.932,797, 537, 350, -7, -3, -6, -4, 6, 2, 933, 824, 33,W
2025-03-12 13:12:12.977,636, 544, 584, -9, 7, -4, -2, 6, 3, 930, 808, 66,W
2025-03-12 13:12:13.032,686, 524, 507, 5, -9, 4, -3, 7, 0, 931, 810, 67,W
2025-03-12 13:12:13.088,724, 539, 439, -3, 0, -1, -3, 8, 1, 931, 805, 63,W
2025-03-12 13:12:17.533,678, 524, 532, 1, -2, -1, -3, 8, 3, 914, 807, 28,X
2025-03-12 13:12:17.588,679, 525, 537, 1, -2, -1, -3, 8, 3, 913, 809, 38,X
2025-03-12 13:12:17.640,678, 527, 528, -1, 0, 0, -4, 6, 0, 913, 814, 63,X
2025-03-12 13:12:17.692,693, 533, 530, 1, -2, 0, -4, 7, -1, 917, 820, 46,X
2025-03-12 13:12:17.741,679, 526, 534, 0, 0, 0, -2, 7, 2, 917, 826, 52,X
2025-03-12 13:12:17.790,692, 524, 520, 0, -2, 0, -4, 8, 1, 917, 826, 61,X
2025-03-12 13:12:17.842,693, 519, 525, 2, -2, -1, -3, 6, 2, 920, 828, 58,X
2025-03-12 13:12:17.892,708, 544, 515, 3, -4, -1, -1, 7, 3, 924, 829, 47,X
2025-03-12 13:12:17.944,728, 513, 525, 6, -10, -10, -2, 9, 0, 923, 830, 43,X
2025-03-12 13:12:18.004,696, 583, 515, 9, -14, -20, -5, 7, 1, 927, 824, 64,X
2025-03-12 13:12:18.054,677, 584, 491, 9, -20, -3, -5, 6, 2, 935, 825, 60,X
2025-03-12 13:12:18.104,627, 546, 506, 8, -6, 17, -3, 5, 4, 943, 836, 52,X
2025-03-12 13:12:18.162,726, 538, 457, 7, -11, 23, -5, 7, 4, 949, 854, 42,X
2025-03-12 13:12:18.210,808, 504, 377, -6, 1, 4, -3, 6, 4, 952, 884, 51,X
2025-03-12 13:12:18.263,702, 539, 509, -10, 0, -1, -5, 7, 4, 956, 904, 54,X
2025-03-12 13:12:18.319,750, 523, 395, -2, -18, 6, -3, 6, 6, 959, 918, 40,X
2025-03-12 13:12:18.372,643, 351, 576, 18, -1, -10, -4, 9, 4, 969, 930, 46,X
2025-03-12 13:12:18.422,451, 820, 256, -1, 33, 35, -5, 8, 4, 974, 927, 42,X
2025-03-12 13:12:18.472,618, 32, 914, -15, 19, -16, -5, 9, 1, 960, 902, 66,X
2025-03-12 13:12:18.523,565, 496, 819, 13, -57, 4, -2, 8, 3, 957, 910, 64,X
2025-03-12 13:12:18.582,521, 518, -6, -36, 11, 59, -4, 6, 5, 976, 946, 41,X
2025-03-12 13:12:18.637,773, 208, 575, 10, -1, -4, -5, 9, 3, 969, 927, 71,X
2025-03-12 13:12:18.689,706, 569, 383, -1, 39, -56, -4, 4, 4, 938, 889, 34,X
2025-03-12 13:12:18.743,543, 599, 754, 3, -2, -17, -2, 8, 1, 898, 852, 53,X
2025-03-12 13:12:18.802,772, 540, 479, 14, -25, 12, -1, 6, 2, 903, 866, 51,X
2025-03-12 13:12:19.053,690, 553, 487, 0, -2, 1, -4, 8, 2, 919, 848, 46,Y
2025-03-12 13:12:19.105,686, 531, 517, 4, -3, 1, -2, 8, 3, 920, 847, 58,Y
2025-03-12 13:12:19.156,711, 542, 474, 4, -3, 0, -4, 7, 2, 921, 844, 46,Y
2025-03-12 13:12:19.206,705, 550, 469, -1, -1, 0, -3, 8, 0, 920, 838, 45,Y
2025-03-12 13:12:19.265,700, 543, 470, -2, -2, -1, -4, 8, 4, 920, 840, 49,Y
2025-03-12 13:12:19.316,722, 537, 474, -5, -2, -6, -4, 7, 4, 919, 842, 64,Y
2025-03-12 13:12:19.371,704, 554, 456, -3, -3, -8, -5, 6, 5, 920, 839, 38,Y
2025-03-12 13:12:19.425,716, 563, 524, -2, -19, -3, -3, 8, 3, 930, 871, 64,Y
2025-03-12 13:12:19.475,1004, 1114, 370, 57, -16, 33, -4, 8, 4, 971, 930, 47,Y
2025-03-12 13:12:19.532,712, 469, 437, 6, 31, 50, -3, 8, 3, 973, 936, 51,Y
2025-03-12 13:12:19.588,388, 506, 849, -18, 7, -30, -2, 7, 3, 966, 928, 126,Y
2025-03-12 13:12:19.639,932, 1035, 514, 19, -22, -7, -4, 7, 3, 972, 934, 59,Y
2025-03-12 13:12:19.693,672, 542, 182, -9, 52, 51, -4, 9, 4, 973, 904, 49,Y
2025-03-12 13:12:19.742,673, 544, 167, -25, 49, -59, -4, 8, 3, 954, 875, 73,Y
2025-03-12 13:12:20.018,714, 539, 455, 0, 0, 0, -4, 7, 3, 924, 855, 58,Z
2025-03-12 13:12:20.063,705, 545, 478, -1, -1, 0, -2, 7, 4, 923, 859, 66,Z
2025-03-12 13:12:20.121,704, 553, 496, 3, -9, 1, -3, 7, 4, 925, 860, 45,Z
2025-03-12 13:12:20.170,747, 524, 448, 1, -3, -2, -4, 6, 6, 931, 868, 50,Z
2025-03-12 13:12:20.222,692, 542, 478, -3, -1, -2, -4, 8, 4, 931, 868, 52,Z
2025-03-12 13:12:20.274,739, 527, 470, -4, -2, -6, -5, 8, 5, 932, 867, 51,Z
2025-03-12 13:12:20.323,717, 531, 477, 3, -1, -1, -4, 8, 4, 936, 872, 43,Z
2025-03-12 13:12:20.380,708, 552, 451, 0, 0, -1, -4, 6, 3, 936, 872, 54,Z
2025-03-12 13:12:20.432,684, 524, 490, 0, -4, -3, -4, 7, 5, 938, 874, 48,Z
2025-03-12 13:12:20.486,660, 538, 416, -3, -2, -12, -4, 8, 4, 949, 896, 37,Z
2025-03-12 13:12:20.539,746, 765, 339, 4, -2, 23, -2, 7, 5, 967, 944, 55,Z
2025-03-12 13:12:20.592,635, 719, 236, 49, 10, 20, -4, 7, 4, 967, 916, 95,Z
2025-03-12 13:12:20.642,993, 640, 313, -45, 30, 20, -4, 8, 3, 963, 882, 47,Z
2025-03-12 13:12:20.703,616, 301, 574, -28, -15, 22, -3, 8, 2, 971, 948, 45,Z
2025-03-12 13:12:20.752,724, 482, 395, 27, -2, 0, -3, 9, 4, 963, 942, 60,Z
2025-03-12 13:12:20.805,779, 548, 144, -4, 26, -61, -4, 8, 4, 938, 870, 65,Z
2025-03-12 13:12:20.862,663, 606, 791, -14, -6, -15, -4, 6, 2, 922, 764, 58,Z
2025-03-12 13:12:20.916,780, 988, 707, 78, -19, -13, -3, 7, 3, 959, 917, 47,Z
2025-03-12 13:12:20.973,454, 351, 763, 14, -15, 13, -4, 7, 3, 972, 949, 52,Z
2025-03-12 13:12:21.025,837, 387, 186, -8, 31, -26, -4, 8, 4, 957, 912, 97,Z
2025-03-12 13:12:21.072,580, 589, 657, -44, 46, -36, -3, 6, 3, 916, 780, 54,Z
2025-03-12 13:12:21.133,579, 541, 516, 30, -34, 10, -5, 5, 4, 901, 757, 39,Z
2025-03-12 13:12:21.185,781, 586, 323, 14, -16, 2, -4, 8, 1, 894, 735, 49,Z
2025-03-12 13:12:21.238,680, 575, 482, -5, 7, -2, -2, 6, 3, 894, 747, 47,Z
2025-03-12 13:12:21.542,711, 555, 469, 0, 1, 4, -3, 6, 3, 873, 654, 64,a
2025-03-12 13:12:21.597,706, 553, 460, 1, 0, 3, -3, 7, 3, 870, 655, 52,a
2025-03-12 13:12:21.645,708, 565, 444, -1, 2, 2, -4, 7, 3, 873, 681, 56,a
2025-03-12 13:12:21.692,712, 541, 454, 4, -4, 5, -4, 5, 4, 886, 711, 58,a
2025-03-12 13:12:21.744,700, 579, 449, -4, -1, 9, -6, 10, 1, 910, 726, 45,a
2025-03-12 13:12:21.793,675, 503, 471, -5, -5, 4, -4, 6, 3, 932, 764, 45,a
2025-03-12 13:12:21.853,743, 551, 381, -20, 5, -3, -3, 6, 2, 939, 848, 63,a
2025-03-12 13:12:21.904,695, 521, 527, -17, -2, -6, -4, 7, 3, 945, 868, 41,a
2025-03-12 13:12:21.954,769, 436, 537, 10, 1, -10, -3, 7, 3, 953, 862, 47,a
2025-03-12 13:12:22.012,777, 865, 229, -33, 27, 38, -1, 7, 3, 963, 898, 42,a
2025-03-12 13:12:22.071,561, 221, 697, 12, -21, -16, -4, 9, 3, 955, 921, 67,a
2025-03-12 13:12:22.125,777, 718, 380, 15, -8, -3, -2, 8, 4, 963, 925, 63,a
2025-03-12 13:12:22.173,751, 402, 556, -14, 8, 26, -3, 8, 3, 963, 901, 60,a
2025-03-12 13:12:22.222,645, 457, 604, -5, 17, -26, -1, 8, 2, 953, 871, 40,a
2025-03-12 13:12:22.503,674, 537, 488, -4, -11, -4, -4, 7, 4, 907, 863, 52,b
2025-03-12 13:12:22.552,648, 530, 516, -1, -12, -4, -3, 5, 6, 908, 868, 63,b
2025-03-12 13:12:22.605,687, 506, 487, 0, -16, -9, -2, 5, 5, 921, 892, 47,b
2025-03-12 13:12:22.664,838, 387, 510, 51, 0, -3, -3, 7, 4, 956, 906, 55,b
2025-03-12 13:12:22.718,526, 554, 292, -15, 46, 61, -4, 7, 4, 966, 912, 65,b
2025-03-12 13:12:22.771,680, 290, 607, -16, 8, -1, -4, 9, 3, 955, 903, 58,b
2025-03-12 13:12:22.823,770, 654, 625, -21, -37, -11, -4, 7, 4, 965, 933, 49,b
2025-03-12 13:12:22.872,734, 560, 97, -28, 29, 32, -5, 7, 4, 973, 933, 65,b
2025-03-12 13:12:22.923,795, 315, 491, -7, 21, 3, -4, 10, 4, 958, 869, 42,b
2025-03-12 13:12:22.987,681, 561, 699, -18, 30, -38, -3, 9, 0, 912, 841, 60,b
2025-03-12 13:12:23.262,674, 535, 529, -3, -4, 1, -4, 8, 3, 936, 868, 53,c
2025-03-12 13:12:23.314,678, 548, 533, -3, -7, 3, -1, 7, 2, 937, 871, 59,c
2025-03-12 13:12:23.368,662, 545, 502, -3, -16, 7, -4, 6, 4, 945, 894, 59,c
2025-03-12 13:12:23.422,691, 477, 326, -17, 0, -11, -3, 7, 3, 957, 921, 50,c
2025-03-12 13:12:23.476,713, 289, 662, 29, 7, -16, -3, 7, 5, 968, 924, 42,c
2025-03-12 13:12:23.522,810, 519, 281, -10, 18, 43, -3, 7, 4, 973, 936, 67,c
2025-03-12 13:12:23.586,732, 103, 472, 30, -27, -32, -4, 12, 0, 967, 938, 45,c
2025-03-12 13:12:23.639,633, 570, 575, -21, 25, -28, -3, 8, 3, 936, 914, 59,c
2025-03-12 13:12:23.929,691, 546, 493, 10, -11, 10, -2, 7, 3, 938, 879, 62,d
2025-03-12 13:12:23.983,691, 537, 524, 13, -12, 10, -4, 6, 3, 938, 883, 67,d
2025-03-12 13:12:24.037,746, 519, 378, 5, -18, 2, -4, 7, 4, 945, 908, 66,d
2025-03-12 13:12:24.088,875, 395, 584, -8, 1, -16, -4, 8, 4, 953, 935, 38,d
2025-03-12 13:12:24.142,1040, 646, 630, 37, 18, 4, -2, 7, 6, 968, 923, 63,d
2025-03-12 13:12:24.192,544, 536, 293, -66, 24, 36, -3, 7, 4, 974, 947, 51,d
2025-03-12 13:12:24.254,479, 454, 845, 11, -45, -53, -1, 10, 2, 967, 953, 44,d
2025-03-12 13:12:24.306,833, 621, 540, 66, -6, -6, -6, 6, 6, 974, 942, 48,d
2025-03-12 13:12:24.357,814, 704, 368, -20, 24, 42, -5, 8, 5, 973, 935, 55,d
2025-03-12 13:12:24.412,546, 418, 751, -14, 41, -52, -2, 7, 3, 964, 928, 44,d
2025-03-12 13:12:24.465,601, 551, 658, 7, -12, -1, -4, 7, 2, 943, 916, 61,d
2025-03-12 13:12:24.699,689, 545, 501, 4, 1, 0, -3, 9, 3, 928, 860, 62,e
2025-03-12 13:12:24.743,681, 554, 508, 2, 0, 1, -1, 8, 2, 928, 863, 60,e
2025-03-12 13:12:24.799,676, 511, 526, 9, -4, 5, -3, 7, 2, 930, 850, 61,e
2025-03-12 13:12:24.854,693, 541, 520, 28, -22, 17, -5, 8, 3, 939, 849, 52,e
2025-03-12 13:12:24.904,924, 784, 479, -13, 4, 14, -5, 7, 3, 959, 922, 65,e
2025-03-12 13:12:24.962,608, 473, 546, -20, -12, -3, -4, 8, 5, 965, 944, 43,e
2025-03-12 13:12:25.013,624, 440, 576, 19, -1, -24, -2, 8, 3, 961, 933, 60,e
2025-03-12 13:12:25.072,1082, 1066, 254, -45, 39, 53, -4, 5, 8, 977, 942, 40,e
2025-03-12 13:12:25.123,758, 87, 871, 8, -20, -18, -4, 10, 2, 972, 939, 51,e
2025-03-12 13:12:25.173,613, 549, 689, 0, 35, -33, -1, 7, 3, 949, 917, 61,e
2025-03-12 13:12:25.232,578, 558, 562, 14, -21, 10, -3, 8, 1, 937, 893, 63,e
2025-03-12 13:12:25.462,659, 539, 561, 9, -8, 23, 0, 10, 0, 940, 856, 41,f
2025-03-12 13:12:25.513,680, 543, 550, 10, -12, 25, 0, 10, 0, 941, 858, 50,f
2025-03-12 13:12:25.569,738, 681, 291, -26, 14, 6, -3, 8, 3, 950, 892, 43,f
2025-03-12 13:12:25.622,-73, 364, 481, -21, -30, -67, -4, 11, 2, 954, 940, 60,f
2025-03-12 13:12:25.673,818, 645, 899, 13, -46, -32, -4, 4, 7, 967, 957, 46,f
2025-03-12 13:12:25.733,724, 578, 63, 19, 26, 42, -5, 8, 5, 967, 945, 67,f
2025-03-12 13:12:25.785,445, 614, 624, 18, 39, -15, -4, 4, 6, 963, 925, 36,f
2025-03-12 13:12:25.842,922, 1105, 543, 5, -24, -13, -4, 7, 4, 965, 934, 57,f
2025-03-12 13:12:25.892,865, 375, 431, 0, -1, 27, -4, 8, 4, 974, 952, 43,f
2025-03-12 13:12:25.943,705, 608, 257, -20, 71, -51, -4, 7, 4, 963, 933, 57,f
2025-03-12 13:12:26.002,424, 512, 909, -12, 26, -11, -1, 6, -2, 945, 885, 45,f
2025-03-12 13:12:26.056,682, 589, 493, 23, -25, 6, -2, 5, -1, 930, 842, 39,f
2025-03-12 13:12:26.104,731, 558, 399, -1, 1, -3, -3, 6, 2, 918, 803, 55,f
2025-03-12 13:12:26.162,666, 575, 549, -6, 5, 1, -1, 5, 2, 913, 769, 65,f
2025-03-12 13:12:26.429,709, 560, 469, 7, -6, 8, -2, 6, 3, 927, 801, 37,g
2025-03-12 13:12:26.473,706, 536, 476, 6, -6, 7, 0, 7, 2, 927, 806, 45,g
2025-03-12 13:12:26.523,721, 546, 442, 5, -5, 3, -3, 7, 4, 931, 828, 67,g
2025-03-12 13:12:26.577,705, 562, 446, 0, -2, 2, -3, 7, 3, 931, 839, 63,g
2025-03-12 13:12:26.632,675, 565, 490, 4, -12, 10, -5, 7, 4, 938, 865, 63,g
2025-03-12 13:12:26.687,691, 652, 367, -20, 0, -7, -5, 5, 6, 952, 906, 28,g
2025-03-12 13:12:26.740,766, 392, 430, -3, -3, -17, -3, 7, 5, 954, 906, 69,g
2025-03-12 13:12:26.792,651, 981, 232, -21, 24, 53, -4, 10, 4, 969, 923, 40,g
2025-03-12 13:12:26.851,666, 197, 853, 8, -19, -11, -4, 9, 2, 963, 931, 56,g
2025-03-12 13:12:26.904,761, 387, 640, 21, -12, -19, -6, 9, 1, 962, 928, 52,g
2025-03-12 13:12:26.953,827, 1028, 281, -40, 31, 44, -3, 10, 4, 969, 925, 49,g
2025-03-12 13:12:27.018,915, 157, 432, -6, 17, -36, -3, 10, 4, 945, 824, 70,g
2025-03-12 13:12:27.313,706, 550, 470, -1, -11, 3, -2, 7, 4, 907, 859, 34,h
2025-03-12 13:12:27.366,696, 540, 483, 0, -11, 3, -2, 7, 3, 908, 867, 32,h
2025-03-12 13:12:27.420,757, 545, 470, 0, -1, -7, -1, 6, 3, 940, 896, 38,h
2025-03-12 13:12:27.473,799, 620, 444, -18, 7, 28, -4, 8, 2, 962, 913, 55,h
2025-03-12 13:12:27.527,743, 412, 555, -22, 18, 34, -3, 8, 1, 968, 908, 48,h
2025-03-12 13:12:27.573,736, 37, 980, 12, -32, -24, -3, 9, 2, 963, 927, 43,h
2025-03-12 13:12:27.632,650, 655, 513, 6, -14, 2, -4, 10, 4, 970, 939, 57,h
2025-03-12 13:12:27.686,711, 254, 583, -1, 19, 25, -4, 9, 1, 969, 914, 42,h
2025-03-12 13:12:27.737,706, 471, 506, 2, 25, -36, -4, 9, 1, 952, 867, 54,h
2025-03-12 13:12:27.793,578, 533, 715, 7, -3, -15, -4, 8, 0, 928, 817, 51,h
2025-03-12 13:12:28.023,718, 500, 483, 2, -4, 4, -4, 7, 1, 921, 820, 70,i
2025-03-12 13:12:28.084,721, 498, 472, 3, -4, 4, -4, 11, 2, 923, 819, 60,i
2025-03-12 13:12:28.134,723, 525, 491, 3, -5, 2, -3, 7, 4, 926, 823, 35,i
2025-03-12 13:12:28.185,765, 479, 481, 10, -8, -1, -4, 9, 2, 923, 822, 49,i
2025-03-12 13:12:28.236,701, 534, 477, -3, 0, -3, -3, 8, 3, 919, 810, 60,i
2025-03-12 13:12:28.292,738, 464, 473, -8, -14, 2, -6, 9, 4, 941, 864, 45,i
2025-03-12 13:12:28.343,798, 694, 362, -15, 13, 22, -4, 7, 5, 965, 903, 56,i
2025-03-12 13:12:28.394,852, 415, 293, -21, 22, 34, -5, 8, 4, 966, 874, 37,i
2025-03-12 13:12:28.454,441, 565, 576, -2, -1, -77, -4, 10, 2, 954, 902, 49,i
2025-03-12 13:12:28.513,739, 724, 308, -51, -27, -16, -4, 8, 2, 969, 934, 39,i
2025-03-12 13:12:28.563,912, 592, 591, 44, -16, 9, -4, 9, 5, 962, 917, 53,i
2025-03-12 13:12:28.619,581, 564, 538, -16, 59, -29, -4, 8, 2, 954, 900, 57,i
2025-03-12 13:12:28.672,516, 536, 744, 15, -17, 5, -2, 7, 0, 939, 877, 63,i
2025-03-12 13:12:29.209,687, 541, 505, -2, 0, -1, -4, 7, 3, 892, 719, 60,j
2025-03-12 13:12:29.253,686, 541, 503, -2, 0, 0, -2, 8, 2, 893, 719, 54,j
2025-03-12 13:12:29.313,693, 548, 504, 0, -1, -1, -4, 6, 3, 895, 729, 56,j
2025-03-12 13:12:29.362,688, 548, 499, -1, 0, 0, -4, 7, 2, 900, 739, 59,j
2025-03-12 13:12:29.413,691, 550, 507, -1, -1, 1, -4, 9, 2, 900, 751, 65,j
2025-03-12 13:12:29.468,702, 539, 509, 1, -3, 3, -3, 6, 1, 907, 757, 35,j
2025-03-12 13:12:29.517,700, 533, 502, 4, -4, 4, -3, 7, 4, 911, 777, 47,j
2025-03-12 13:12:29.570,688, 513, 553, 10, -10, 11, -3, 8, 2, 924, 800, 64,j
2025-03-12 13:12:29.622,731, 548, 423, 7, -5, 12, -3, 8, 4, 933, 826, 51,j
2025-03-12 13:12:29.672,621, 494, 582, 5, -14, 13, -3, 8, 5, 940, 853, 55,j
2025-03-12 13:12:29.723,723, 642, 473, -14, 3, 20, -4, 8, 4, 960, 910, 64,j
2025-03-12 13:12:29.784,793, 691, 576, -32, 31, 63, -4, 9, 3, 972, 921, 34,j
2025-03-12 13:12:29.836,588, -154, 556, -28, 0, -31, -4, 10, 3, 958, 891, 59,j
2025-03-12 13:12:29.892,422, 604, 1388, 1, -53, -19, -4, 10, 2, 950, 915, 66,j
2025-03-12 13:12:29.943,776, 719, 34, 18, -12, -6, -3, 7, 5, 970, 930, 35,j
2025-03-12 13:12:30.003,964, 320, 263, -7, 23, -13, -4, 6, 4, 955, 894, 61,j
2025-03-12 13:12:30.053,588, 606, 490, -23, 52, -22, -4, 5, 0, 941, 862, 52,j
2025-03-12 13:12:30.751,690, 534, 492, -1, -2, 0, -4, 8, 2, 895, 754, 49,k
2025-03-12 13:12:30.803,694, 533, 489, -2, -2, -1, -1, 8, 2, 896, 758, 61,k
2025-03-12 13:12:30.855,684, 525, 515, -2, -2, 1, -4, 7, 2, 900, 774, 64,k
2025-03-12 13:12:30.906,705, 539, 494, 2, -4, 4, -4, 5, 6, 910, 791, 40,k
2025-03-12 13:12:30.953,687, 535, 514, 2, -3, 6, -2, 8, 3, 916, 802, 57,k
2025-03-12 13:12:31.006,726, 515, 471, 3, -7, 2, -5, 7, 3, 925, 820, 60,k
2025-03-12 13:12:31.055,709, 539, 459, 9, -8, 3, -3, 8, 5, 933, 828, 61,k
2025-03-12 13:12:31.110,735, 533, 453, 0, -1, 1, -4, 7, 3, 936, 844, 54,k
2025-03-12 13:12:31.162,697, 535, 496, -1, -1, -1, -5, 7, 6, 940, 850, 36,k
2025-03-12 13:12:31.217,688, 511, 491, 2, -17, -7, -3, 8, 3, 940, 877, 58,k
2025-03-12 13:12:31.269,818, 572, 525, -20, -5, -15, -4, 8, 5, 950, 912, 52,k
2025-03-12 13:12:31.322,799, 423, 488, 77, 14, 5, -4, 8, 6, 964, 893, 67,k
2025-03-12 13:12:31.372,694, 641, 179, 21, 19, 30, -4, 7, 3, 968, 887, 52,k
2025-03-12 13:12:31.422,624, 260, 530, -26, -21, 5, -2, 8, 5, 968, 945, 54,k
2025-03-12 13:12:31.485,688, 407, 166, 76, -13, -41, -4, 7, 5, 949, 899, 65,k
2025-03-12 13:12:31.536,684, 804, 776, -4, -15, 27, -1, 5, 8, 946, 871, 67,k
2025-03-12 13:12:31.592,607, 684, 200, -26, 7, 55, -4, 6, 5, 972, 940, 56,k
2025-03-12 13:12:31.642,979, 122, 45, -10, 35, -54, -4, 7, 4, 961, 901, 51,k
2025-03-12 13:12:31.700,477, 656, 552, -28, 57, -57, -2, 6, 2, 907, 727, 48,k
2025-03-12 13:12:31.752,556, 540, 625, -6, -20, 5, -3, 7, -1, 885, 707, 56,k
2025-03-12 13:12:31.802,845, 586, 330, 4, -23, 8, -3, 5, 3, 891, 687, 44,k
2025-03-12 13:12:32.102,677, 563, 490, 2, -11, 6, -4, 8, 3, 891, 773, 39,l
2025-03-12 13:12:32.153,677, 568, 500, 4, -13, 7, -4, 8, 3, 895, 776, 46,l
2025-03-12 13:12:32.203,729, 538, 441, 11, -11, 7, -4, 6, 5, 903, 779, 52,l
2025-03-12 13:12:32.261,734, 545, 445, 11, -3, -1, -4, 7, 4, 905, 770, 57,l
2025-03-12 13:12:32.312,726, 536, 413, 3, -1, -10, -5, 6, 4, 897, 765, 51,l
2025-03-12 13:12:32.368,627, 604, 473, 5, -21, -17, -2, 6, 5, 898, 792, 36,l
2025-03-12 13:12:32.419,736, 539, 547, -9, -7, -11, -2, 5, 4, 950, 894, 58,l
2025-03-12 13:12:32.472,798, 37, 685, -45, 52, 45, -2, 10, 5, 966, 877, 47,l
2025-03-12 13:12:32.527,631, 1072, 309, -22, 13, 38, -4, 7, 3, 971, 933, 69,l
2025-03-12 13:12:32.585,788, 611, 402, 34, -7, -1, -2, 8, 3, 966, 925, 42,l
2025-03-12 13:12:32.636,621, 514, 615, -35, 65, -37, -4, 7, 1, 941, 807, 60,l
2025-03-12 13:12:32.692,548, 533, 719, -2, -18, 7, -2, 7, 0, 924, 665, 46,l
2025-03-12 13:12:32.743,783, 532, 410, 4, -15, 4, -1, 8, 0, 924, 651, 54,l
2025-03-12 13:12:32.797,684, 555, 512, -6, 3, -9, -3, 8, -1, 913, 675, 48,l
2025-03-12 13:12:32.852,648, 554, 513, -1, -9, 0, -4, 7, 1, 915, 698, 54,l
2025-03-12 13:12:32.900,745, 536, 462, -3, -5, 1, -4, 6, 2, 918, 713, 68,l
2025-03-12 13:12:33.194,694, 539, 497, -1, -1, -2, -2, 7, 3, 914, 718, 54,m
2025-03-12 13:12:33.243,689, 550, 488, 0, -1, -2, -1, 5, 0, 910, 719, 44,m
2025-03-12 13:12:33.301,683, 538, 515, 4, -3, -3, -3, 7, 3, 885, 697, 53,m
2025-03-12 13:12:33.355,704, 533, 489, 0, -4, 4, -2, 7, 1, 895, 712, 60,m
2025-03-12 13:12:33.404,678, 568, 508, 3, -10, 6, 1, 5, 0, 912, 722, 35,m
2025-03-12 13:12:33.452,721, 536, 447, 4, -8, 10, -2, 4, 7, 925, 756, 41,m
2025-03-12 13:12:33.510,690, 491, 455, 14, -21, -14, -2, 8, 1, 933, 815, 63,m
2025-03-12 13:12:33.568,751, 485, 579, -17, -9, -12, -5, 11, 1, 962, 906, 43,m
2025-03-12 13:12:33.619,525, 1103, 271, -64, 32, 51, -4, 9, 4, 972, 915, 54,m
2025-03-12 13:12:33.672,834, 272, 516, -18, -8, -8, -4, 10, 2, 968, 922, 69,m
2025-03-12 13:12:33.723,744, 519, 587, 16, -20, -13, -5, 9, 0, 975, 937, 30,m
2025-03-12 13:12:33.784,739, 465, 419, -16, 28, 38, -3, 8, 3, 974, 935, 57,m
2025-03-12 13:12:33.838,696, 103, 706, 3, -24, -21, -2, 7, 5, 969, 933, 41,m
2025-03-12 13:12:33.886,741, 825, 199, 14, 2, 20, -3, 7, 4, 974, 937, 49,m
2025-03-12 13:12:33.943,923, 78, 230, -25, 33, -42, -6, 9, 0, 970, 910, 39,m
2025-03-12 13:12:34.001,645, 516, 661, -4, 15, -46, -4, 9, 2, 952, 888, 58,m
2025-03-12 13:12:34.272,698, 538, 500, 5, -2, 3, -3, 6, 4, 916, 761, 57,n
2025-03-12 13:12:34.323,712, 534, 511, 5, -3, 4, -9, 7, 6, 916, 764, 53,n
2025-03-12 13:12:34.373,727, 541, 440, 7, -5, 0, -2, 8, 3, 918, 770, 55,n
2025-03-12 13:12:34.432,725, 554, 453, -2, -1, -2, -3, 7, 3, 917, 780, 52,n
2025-03-12 13:12:34.485,692, 551, 472, -1, -3, -6, -2, 10, 4, 914, 786, 44,n
2025-03-12 13:12:34.534,693, 565, 477, -3, -11, 3, -4, 8, 4, 926, 836, 66,n
2025-03-12 13:12:34.588,728, 608, 420, -17, 1, 0, -3, 6, 4, 944, 880, 41,n
2025-03-12 13:12:34.636,705, 404, 557, 8, -4, -7, -2, 8, 4, 956, 893, 57,n
2025-03-12 13:12:34.692,639, 661, 308, 2, 20, 32, -3, 8, 3, 962, 897, 57,n
2025-03-12 13:12:34.742,750, 136, 945, 8, -44, -16, -3, 8, 4, 961, 927, 53,n
2025-03-12 13:12:34.801,658, 446, 556, 22, -25, -8, -4, 7, 4, 972, 939, 53,n
2025-03-12 13:12:34.853,792, 227, 468, -13, 21, 28, -4, 8, 4, 975, 934, 57,n
2025-03-12 13:12:34.902,740, 340, 295, -9, 31, -44, -4, 9, 2, 965, 916, 63,n
2025-03-12 13:12:34.960,632, 550, 615, -5, 5, -18, -4, 8, 3, 947, 892, 63,n
2025-03-12 13:12:35.225,704, 539, 477, 4, -4, 4, -6, 9, 3, 934, 857, 40,o
2025-03-12 13:12:35.272,709, 553, 481, 4, -5, 4, -5, 6, 6, 935, 857, 42,o
2025-03-12 13:12:35.324,726, 525, 471, 8, -12, 9, -4, 8, 4, 939, 867, 64,o
2025-03-12 13:12:35.383,736, 539, 409, -3, -4, 4, -4, 7, 4, 946, 889, 53,o
2025-03-12 13:12:35.435,716, 500, 514, -22, 0, -12, -4, 7, 4, 953, 922, 49,o
2025-03-12 13:12:35.485,836, 376, 491, 35, -1, -22, -3, 8, 4, 962, 920, 58,o
2025-03-12 13:12:35.542,759, 656, 223, -26, 20, 55, -7, 8, 0, 972, 936, 57,o
2025-03-12 13:12:35.599,648, 187, 784, 4, -42, -37, -4, 10, 4, 970, 948, 66,o
2025-03-12 13:12:35.652,1048, 658, -156, -30, 55, -46, -5, 7, 5, 947, 913, 51,o
2025-03-12 13:12:35.710,443, 621, 871, -5, 19, -3, -3, 7, 1, 931, 852, 55,o
2025-03-12 13:12:35.762,689, 502, 382, 23, -19, 12, -4, 7, 1, 925, 754, 63,o
2025-03-12 13:12:36.017,669, 562, 500, 8, -20, 6, -2, 6, 3, 894, 786, 67,p
2025-03-12 13:12:36.066,707, 549, 436, 2, -21, 6, -8, 8, 4, 895, 796, 60,p
2025-03-12 13:12:36.122,728, 500, 556, -30, 0, -10, -1, 6, 4, 924, 871, 43,p
2025-03-12 13:12:36.173,770, 973, 136, -9, 39, 55, -4, 6, 4, 965, 896, 49,p
2025-03-12 13:12:36.223,681, 481, 468, -29, 27, 37, -5, 6, 6, 964, 883, 48,p
2025-03-12 13:12:36.283,1356, -69, 532, 46, -39, -85, -3, 8, 2, 944, 901, 67,p
2025-03-12 13:12:36.335,672, 606, 466, -16, -37, -10, -4, 8, 5, 967, 949, 54,p
2025-03-12 13:12:36.393,634, 956, 60, -3, 30, 36, -7, 11, 1, 975, 946, 34,p
2025-03-12 13:12:36.443,947, 277, 338, -3, 30, 1, -3, 8, 5, 956, 886, 70,p
2025-03-12 13:12:36.500,624, 508, 655, -22, 38, -27, -5, 8, 2, 933, 832, 70,p
2025-03-12 13:12:36.770,674, 550, 504, 12, -13, 13, -4, 8, 3, 942, 862, 51,q
2025-03-12 13:12:36.826,675, 541, 517, 12, -17, 15, -5, 8, 5, 943, 866, 58,q
2025-03-12 13:12:36.873,714, 638, 372, -14, 3, -5, -4, 7, 5, 954, 903, 63,q
2025-03-12 13:12:36.934,705, 371, 631, -11, -6, -10, -4, 9, 2, 960, 924, 37,q
2025-03-12 13:12:36.986,857, 661, 269, -7, 24, 17, -5, 7, 4, 967, 901, 66,q
2025-03-12 13:12:37.036,748, 539, 551, -41, 6, 31, -4, 4, 6, 973, 935, 35,q
2025-03-12 13:12:37.095,721, 578, 390, 13, -20, -24, -6, 9, 4, 969, 946, 53,q
2025-03-12 13:12:37.148,748, 436, 135, 29, 26, 22, -6, 7, 6, 975, 930, 31,q
2025-03-12 13:12:37.200,794, 698, 377, -27, 14, 24, -4, 7, 3, 974, 943, 61,q
2025-03-12 13:12:37.253,879, 408, 308, 13, -5, -25, -4, 10, 0, 965, 933, 54,q
2025-03-12 13:12:37.310,580, 488, 690, -13, 31, -25, -3, 8, 2, 951, 909, 52,q
2025-03-12 13:12:37.551,666, 518, 554, 3, -15, 4, -3, 8, 6, 939, 866, 42,r
2025-03-12 13:12:37.598,650, 511, 554, 5, -19, 4, -3, 7, 4, 941, 871, 52,r
2025-03-12 13:12:37.652,817, 499, 310, 4, -22, 0, -4, 7, 4, 947, 895, 66,r
2025-03-12 13:12:37.703,778, 423, 565, -14, 5, -2, -4, 8, 5, 959, 920, 46,r
2025-03-12 13:12:37.753,535, 457, 439, 9, 25, 53, -7, 10, 4, 971, 918, 63,r
2025-03-12 13:12:37.806,775, 476, 614, -52, -2, 11, -6, 10, 2, 973, 943, 50,r
2025-03-12 13:12:37.868,762, 548, 501, 37, -29, -22, -4, 7, 4, 969, 949, 58,r
2025-03-12 13:12:37.922,738, 522, 302, -35, 74, -9, -4, 10, 3, 964, 922, 51,r
2025-03-12 13:12:37.973,524, 451, 854, 4, -14, -7, -4, 8, 1, 955, 889, 62,r
2025-03-12 13:12:38.227,742, 522, 461, 9, -16, 7, -4, 7, 4, 947, 879, 62,s
2025-03-12 13:12:38.282,749, 524, 435, 8, -15, 7, -2, 11, 5, 948, 877, 65,s
2025-03-12 13:12:38.334,709, 516, 480, 2, -16, 10, -4, 8, 3, 952, 898, 63,s
2025-03-12 13:12:38.384,725, 603, 424, -24, 3, -7, -5, 8, 4, 959, 924, 47,s
2025-03-12 13:12:38.434,742, 445, 561, 17, 0, -9, -3, 8, 5, 962, 930, 61,s
2025-03-12 13:12:38.493,980, 887, 164, -11, 26, 29, -5, 8, 3, 971, 938, 54,s
2025-03-12 13:12:38.548,638, 800, 524, 3, 7, 16, -6, 5, 8, 973, 938, 29,s
2025-03-12 13:12:38.593,763, 391, 354, -2, 25, 2, -1, 9, 5, 955, 879, 53,s
2025-03-12 13:12:38.652,663, 382, 637, -35, 55, -34, -3, 9, 1, 947, 870, 52,s
2025-03-12 13:12:38.703,526, 539, 663, 23, -25, -7, -4, 9, 0, 943, 868, 47,s
2025-03-12 13:12:38.977,712, 524, 485, 3, -6, 2, -5, 8, 4, 926, 823, 29,t
2025-03-12 13:12:39.024,723, 532, 476, 3, -6, 2, -5, 8, 4, 927, 825, 40,t
2025-03-12 13:12:39.081,709, 526, 467, -1, -1, -1, -4, 8, 3, 928, 827, 50,t
2025-03-12 13:12:39.134,710, 524, 489, -5, -6, -2, -5, 8, 2, 931, 846, 46,t
2025-03-12 13:12:39.184,721, 534, 478, -1, -5, -2, -3, 7, 4, 931, 863, 50,t
2025-03-12 13:12:39.234,724, 529, 461, -2, -7, -2, -2, 8, 3, 933, 868, 62,t
2025-03-12 13:12:39.298,676, 543, 506, -12, -11, -7, -7, 8, 2, 932, 883, 41,t
2025-03-12 13:12:39.350,830, 273, 159, -60, -6, -17, -3, 8, 6, 946, 913, 64,t
2025-03-12 13:12:39.447,962, 698, 443, 77, 44, 58, -5, 6, 5, 968, 916, 52,t
2025-03-12 13:12:39.455,752, 649, 308, -9, 31, 43, -5, 10, 4, 972, 922, 66,t
2025-03-12 13:12:39.506,694, 252, 396, -12, 4, -79, -5, 9, 3, 960, 898, 59,t
2025-03-12 13:12:39.572,4587, 288, -253, -32, -23, -34, -3, 8, 4, 966, 924, 48,t
2025-03-12 13:12:39.619,809, 112, 353, -2, 0, 25, -4, 8, 5, 974, 950, 67,t
2025-03-12 13:12:39.678,742, 486, 14, -7, 64, -45, -4, 10, 3, 964, 911, 36,t
2025-03-12 13:12:39.732,441, 579, 771, -40, 41, -20, -3, 7, 1, 940, 802, 57,t
2025-03-12 13:12:39.784,693, 506, 510, 18, -29, 9, 0, 5, 3, 928, 742, 44,t
2025-03-12 13:12:39.835,834, 550, 338, 6, -7, 0, -5, 7, 2, 921, 767, 56,t
2025-03-12 13:12:39.885,678, 527, 557, -6, 6, -7, -4, 7, 3, 912, 759, 62,t
2025-03-12 13:12:39.935,702, 558, 461, -3, -2, 0, -2, 7, 2, 905, 744, 39,t
2025-03-12 13:12:40.623,707, 544, 491, 1, -3, 0, -2, 6, 2, 896, 737, 59,u
2025-03-12 13:12:40.674,706, 542, 480, 1, -3, 0, -2, 6, 4, 898, 735, 60,u
2025-03-12 13:12:40.724,696, 534, 490, 3, -3, 3, -4, 5, 2, 904, 748, 64,u
2025-03-12 13:12:40.776,711, 548, 480, 4, -4, 3, -4, 6, 3, 908, 762, 57,u
2025-03-12 13:12:40.824,691, 548, 479, 4, -2, 4, -4, 6, 5, 917, 772, 55,u
2025-03-12 13:12:40.873,697, 541, 450, 2, -4, 2, -4, 6, 1, 923, 783, 33,u
2025-03-12 13:12:40.931,576, 514, 699, 21, -34, 9, -6, 8, 4, 930, 824, 37,u
2025-03-12 13:12:40.981,841, 748, 170, 33, 13, 6, -4, 7, 5, 961, 905, 61,u
2025-03-12 13:12:41.033,734, 718, 247, -40, 16, 45, -5, 8, 3, 971, 933, 45,u
2025-03-12 13:12:41.085,735, 290, 673, -5, -23, -21, -4, 9, 3, 964, 942, 57,u
2025-03-12 13:12:41.143,782, 743, 217, 48, -1, -11, -2, 8, 5, 971, 932, 29,u
2025-03-12 13:12:41.193,753, 404, 504, -3, 5, 9, -5, 9, 3, 965, 916, 58,u
2025-03-12 13:12:41.250,683, 478, 568, -6, 10, -32, -4, 7, 3, 954, 905, 54,u
2025-03-12 13:12:41.489,668, 484, 555, 13, -5, 1, -2, 8, 2, 929, 786, 36,v
2025-03-12 13:12:41.534,724, 513, 544, 14, -7, 2, -2, 8, 2, 928, 787, 36,v
2025-03-12 13:12:41.583,734, 543, 430, 10, -7, 2, -5, 7, 4, 928, 759, 57,v
2025-03-12 13:12:41.643,759, 533, 428, -3, 7, -2, -7, 4, 7, 929, 745, 28,v
2025-03-12 13:12:41.697,693, 545, 462, -3, -2, -3, -5, 9, 3, 930, 753, 55,v
2025-03-12 13:12:41.752,865, 382, 421, -11, 0, -18, -5, 7, 6, 945, 855, 51,v
2025-03-12 13:12:41.802,1003, 387, 573, 19, -8, -4, -5, 6, 3, 965, 911, 52,v
2025-03-12 13:12:41.852,656, 473, 297, -15, 5, 28, -4, 8, 4, 972, 925, 58,v
2025-03-12 13:12:41.906,762, 389, 333, 6, -41, -40, -4, 11, 4, 973, 948, 55,v
2025-03-12 13:12:41.967,875, 579, -185, -18, 69, -21, -4, 8, 5, 950, 926, 66,v
2025-03-12 13:12:42.264,726, 546, 441, 4, -6, 3, -4, 9, 2, 918, 812, 48,w
2025-03-12 13:12:42.318,774, 532, 430, 3, -3, 2, -4, 10, 7, 921, 809, 49,w
2025-03-12 13:12:42.366,716, 509, 475, 1, 2, -8, -2, 8, 3, 918, 815, 44,w
2025-03-12 13:12:42.422,725, 549, 479, -2, -17, -3, -4, 9, 1, 928, 851, 59,w
2025-03-12 13:12:42.472,800, 326, 574, 3, -6, -10, -5, 7, 3, 960, 912, 57,w
2025-03-12 13:12:42.522,782, 812, 344, -18, 10, 40, -2, 5, 7, 973, 927, 45,w
2025-03-12 13:12:42.583,732, 343, 666, -28, -18, -1, -6, 10, 3, 969, 942, 58,w
2025-03-12 13:12:42.634,868, 1042, 276, 64, -8, 10, -7, 10, 2, 967, 920, 61,w
2025-03-12 13:12:42.692,749, 520, 610, -45, -6, 14, -4, 9, 5, 971, 935, 46,w
2025-03-12 13:12:42.749,1014, 491, -250, -11, 61, -34, -3, 8, 5, 957, 920, 73,w
2025-03-12 13:12:43.026,708, 532, 486, -5, -7, -4, -7, 10, 1, 923, 796, 31,x
2025-03-12 13:12:43.083,713, 528, 498, -4, -9, -3, -5, 6, 4, 927, 812, 40,x
2025-03-12 13:12:43.132,727, 523, 472, 4, -13, 6, -5, 6, 5, 931, 848, 50,x
2025-03-12 13:12:43.183,724, 509, 422, 2, -16, 6, -3, 9, 5, 940, 881, 65,x
2025-03-12 13:12:43.232,779, 531, 426, -16, 0, -11, -5, 8, 5, 955, 919, 51,x
2025-03-12 13:12:43.292,1331, 714, 394, 22, 35, 13, -5, 8, 4, 960, 902, 49,x
2025-03-12 13:12:43.348,733, 604, 336, -55, 37, 25, -5, 8, 6, 949, 869, 57,x
2025-03-12 13:12:43.399,853, 576, 651, 24, -14, -42, -4, 8, 4, 950, 901, 64,x
2025-03-12 13:12:43.455,976, 833, 44, -19, 6, 67, -5, 7, 5, 974, 936, 35,x
2025-03-12 13:12:43.502,853, 131, 243, -18, 20, -26, -3, 9, 5, 963, 909, 56,x
2025-03-12 13:12:43.565,629, 561, 512, -25, 47, -39, -5, 7, 2, 925, 833, 62,x
2025-03-12 13:12:43.833,740, 526, 477, -9, -20, -3, -4, 8, 7, 935, 867, 47,y
2025-03-12 13:12:43.893,797, 472, 436, -13, -16, -1, -3, 7, 5, 940, 878, 53,y
2025-03-12 13:12:43.942,790, 905, 551, 5, 11, 42, -4, 8, 5, 965, 917, 53,y
2025-03-12 13:12:43.999,761, 674, 411, -16, 13, 32, -5, 11, 3, 969, 933, 59,y
2025-03-12 13:12:44.053,531, 477, 501, 5, -2, -38, -3, 9, 5, 955, 927, 53,y
2025-03-12 13:12:44.103,946, 1021, 312, -5, 2, 27, -4, 10, 4, 970, 936, 57,y
2025-03-12 13:12:44.160,561, 386, 494, 1, 22, 31, -4, 9, 4, 973, 917, 67,y
2025-03-12 13:12:44.213,922, 208, 111, -57, 33, -82, -6, 10, 1, 945, 778, 46,y
2025-03-12 13:12:44.267,467, 490, 1127, -41, 13, -20, -2, 8, 1, 912, 791, 61,y
2025-03-12 13:12:44.322,739, 562, 375, 43, -46, 7, -4, 9, 3, 920, 799, 56,y
2025-03-12 13:12:45.193,811, 564, 402, 28, -26, -1, -3, 8, 1, 879, 717, 47,z
2025-03-12 13:12:45.247,820, 578, 363, 20, -20, -2, -3, 5, 3, 875, 712, 47,z
2025-03-12 13:12:45.302,733, 545, 458, -9, 7, -5, -4, 9, 3, 870, 695, 48,z
2025-03-12 13:12:45.352,678, 535, 538, -8, -2, -3, -3, 6, 0, 874, 664, 43,z
2025-03-12 13:12:45.406,720, 551, 462, -1, -6, -4, -3, 7, 1, 866, 634, 46,z
2025-03-12 13:12:45.462,708, 539, 463, -8, 2, -3, -3, 7, 3, 867, 650, 63,z
2025-03-12 13:12:45.509,696, 529, 503, -4, -1, -4, -3, 8, 1, 865, 667, 43,z
2025-03-12 13:12:45.564,696, 574, 462, -7, 4, -1, -2, 5, 4, 863, 641, 54,z
2025-03-12 13:12:45.617,687, 543, 505, -7, 3, 0, -3, 6, 3, 863, 574, 61,z
2025-03-12 13:12:45.666,708, 541, 484, -9, 4, -2, -3, 6, 2, 833, 521, 49,z
2025-03-12 13:12:45.716,700, 533, 520, 1, -2, -1, -2, 7, 1, 807, 541, 55,z
2025-03-12 13:12:45.767,715, 527, 488, 2, -3, 0, -4, 7, 1, 838, 606, 47,z
2025-03-12 13:12:45.823,710, 551, 513, 10, -11, 2, -3, 6, 2, 890, 704, 56,z
2025-03-12 13:12:45.873,650, 553, 451, 13, -13, 12, -4, 7, 5, 922, 766, 38,z
2025-03-12 13:12:45.932,733, 535, 439, 14, -10, 12, -4, 7, 3, 936, 829, 61,z
2025-03-12 13:12:45.982,745, 563, 452, 7, -6, 11, -5, 9, 4, 940, 848, 40,z
2025-03-12 13:12:46.035,726, 533, 433, 6, -2, 6, -5, 8, 3, 944, 856, 63,z
2025-03-12 13:12:46.082,728, 529, 421, 0, 3, 0, -4, 7, 5, 946, 861, 63,z
2025-03-12 13:12:46.136,706, 541, 445, -7, 9, -8, -4, 8, 5, 947, 852, 50,z
2025-03-12 13:12:46.185,570, 521, 636, -7, -11, -2, -7, 10, 1, 945, 816, 30,z
2025-03-12 13:12:46.240,948, 615, 307, 7, 0, 0, -4, 8, 5, 961, 928, 64,z
2025-03-12 13:12:46.292,494, 449, 532, 11, -4, 28, -5, 8, 4, 969, 936, 46,z
2025-03-12 13:12:46.347,699, 394, 526, 9, 19, 0, -2, 5, 6, 965, 886, 57,z
2025-03-12 13:12:46.399,816, 1055, 420, -40, 9, 49, -3, 8, 3, 972, 934, 91,z
2025-03-12 13:12:46.453,658, 338, 441, 11, 3, 12, -6, 10, 5, 969, 925, 47,z
2025-03-12 13:12:46.503,447, 543, 466, -4, 33, -48, -4, 8, 5, 954, 891, 50,z
2025-03-12 13:12:46.564,702, 1314, 654, -24, -28, -10, -5, 9, 4, 967, 938, 53,z
2025-03-12 13:12:46.615,702, 314, 289, 14, 1, 15, -4, 8, 5, 973, 940, 64,z
2025-03-12 13:12:46.665,721, 565, 143, -7, 63, -41, -4, 9, 4, 953, 852, 37,z
2025-03-12 13:12:46.942,753, 540, 422, -9, 1, -7, -4, 7, 3, 827, 494, 53,0
2025-03-12 13:12:47.003,744, 530, 428, -8, 2, -8, -3, 5, 3, 825, 496, 47,0
2025-03-12 13:12:47.050,696, 546, 492, 4, 2, -11, -4, 9, 0, 809, 496, 48,0
2025-03-12 13:12:47.103,710, 546, 486, 5, -5, -16, -4, 6, 2, 789, 465, 49,0
2025-03-12 13:12:47.152,689, 593, 449, 11, -6, -23, -4, 5, 4, 757, 426, 40,0
2025-03-12 13:12:47.215,674, 600, 463, 16, -8, -24, -2, 4, 3, 753, 280, 55,0
2025-03-12 13:12:47.267,640, 711, 366, 5, -4, -11, -3, 1, 3, 807, 332, 41,0
2025-03-12 13:12:47.317,600, 673, 466, 3, -5, 26, -4, 4, 5, 874, 499, 46,0
2025-03-12 13:12:47.367,711, 577, 362, -5, 11, 27, -4, 4, 3, 894, 623, 57,0
2025-03-12 13:12:47.422,662, 561, 473, 1, 6, 15, -3, 4, 3, 906, 689, 28,0
2025-03-12 13:12:47.472,721, 589, 432, 5, -1, 12, -5, 7, 2, 911, 727, 51,0
2025-03-12 13:12:47.523,786, 546, 376, -11, 6, -1, -4, 7, 5, 908, 765, 47,0
2025-03-12 13:12:47.580,742, 589, 440, -11, 7, 1, -2, 5, 4, 914, 779, 44,0
2025-03-12 13:12:47.633,709, 570, 489, -3, -3, 4, -2, 7, 3, 924, 799, 43,0
2025-03-12 13:12:47.681,733, 571, 405, 3, -8, 5, -2, 7, 2, 929, 816, 51,0
2025-03-12 13:12:47.732,700, 569, 424, -1, -5, -7, -4, 6, 4, 927, 817, 41,0
2025-03-12 13:12:47.782,668, 570, 438, -11, -6, -13, -3, 6, 4, 924, 815, 67,0
2025-03-12 13:12:47.846,673, 572, 457, -3, -4, -10, -4, 6, 4, 920, 807, 39,0
2025-03-12 13:12:47.893,767, 570, 360, -1, -3, 3, -4, 6, 4, 930, 830, 53,0
2025-03-12 13:12:47.949,695, 601, 486, -9, -9, 7, -4, 5, 5, 940, 865, 55,0
2025-03-12 13:12:47.998,677, 581, 543, -43, -8, -11, -4, 7, 5, 946, 902, 43,0
2025-03-12 13:12:48.054,1056, 97, 504, 72, 1, -20, -4, 5, 6, 958, 889, 62,0
2025-03-12 13:12:48.112,452, 458, 224, -59, 43, 68, -5, 10, 0, 971, 919, 33,0
2025-03-12 13:12:48.164,536, 295, 644, -10, -43, -52, -3, 8, 5, 965, 936, 66,0
2025-03-12 13:12:48.223,1285, 607, -212, 10, 41, -53, -4, 4, 6, 935, 899, 51,0
2025-03-12 13:12:48.273,388, 576, 913, -26, 58, -4, 1, 4, 2, 930, 777, 45,0
2025-03-12 13:12:48.333,551, 484, 589, 16, -27, 24, -2, 5, -1, 907, 596, 57,0
2025-03-12 13:12:48.612,638, 557, 550, 7, -15, 11, -3, 7, 2, 902, 750, 53,1
2025-03-12 13:12:48.669,611, 542, 546, 13, -19, 13, -2, 5, 1, 904, 757, 66,1
2025-03-12 13:12:48.723,780, 548, 52, -3, -10, -19, -4, 6, 5, 932, 836, 64,1
2025-03-12 13:12:48.780,802, 659, 468, -35, -27, 12, -3, 8, 3, 955, 932, 39,1
2025-03-12 13:12:48.832,672, 272, 833, 45, -19, -12, -4, 5, 5, 967, 933, 66,1
2025-03-12 13:12:48.882,422, 1344, -42, -49, 51, 52, -3, 7, 5, 975, 929, 48,1
2025-03-12 13:12:48.943,674, 268, 477, -29, 39, -8, -4, 7, 3, 963, 881, 34,1
2025-03-12 13:12:48.998,1165, 59, 43, 39, -14, -41, -3, 9, 5, 962, 898, 50,1
2025-03-12 13:12:49.050,807, 358, 296, 6, -14, 33, -2, 6, 4, 975, 943, 38,1
2025-03-12 13:12:49.103,766, 416, 26, -19, 48, -46, -4, 8, 4, 961, 908, 71,1
2025-03-12 13:12:49.157,537, 582, 653, -19, 36, -35, -4, 6, 1, 923, 779, 53,1
2025-03-12 13:12:49.842,697, 572, 463, 3, -2, 1, -4, 5, 4, 854, 738, 50,2
2025-03-12 13:12:49.892,693, 578, 459, 3, -2, 1, -2, 4, 5, 853, 733, 32,2
2025-03-12 13:12:49.947,710, 573, 436, 1, -2, -1, -4, 5, 4, 858, 741, 52,2
2025-03-12 13:12:49.996,684, 573, 474, 5, 0, 1, -3, 4, 7, 861, 741, 45,2
2025-03-12 13:12:50.047,675, 563, 449, 9, -3, 3, -5, 4, 5, 862, 743, 29,2
2025-03-12 13:12:50.102,644, 541, 561, 34, -31, 7, -4, 5, 4, 883, 776, 44,2
2025-03-12 13:12:50.153,897, 512, 225, -13, 7, -10, -3, 6, 6, 927, 883, 69,2
2025-03-12 13:12:50.202,535, 491, 480, 31, -10, 24, -2, 5, 6, 958, 916, 62,2
2025-03-12 13:12:50.262,240, 591, 271, -31, 54, 16, -5, 6, 5, 960, 859, 59,2
2025-03-12 13:12:50.315,944, 672, 440, -38, 21, 22, -4, 7, 4, 969, 926, 52,2
2025-03-12 13:12:50.364,658, 322, 644, 24, -11, 19, -4, 7, 4, 969, 931, 55,2
2025-03-12 13:12:50.422,653, 583, 424, -24, 51, -42, -3, 6, 3, 948, 891, 64,2
2025-03-12 13:12:50.702,663, 564, 464, -10, -1, -7, -4, 5, 2, 908, 810, 45,3
2025-03-12 13:12:50.763,661, 567, 477, -10, -2, -7, -2, 5, 2, 908, 810, 56,3
2025-03-12 13:12:50.812,559, 590, 598, 17, -27, 7, -2, 8, 1, 916, 811, 37,3
2025-03-12 13:12:50.864,867, 641, 100, -5, -7, -9, -1, 5, 6, 956, 914, 50,3
2025-03-12 13:12:50.918,602, 521, 666, 8, 6, 16, -5, 7, 5, 963, 926, 57,3
2025-03-12 13:12:50.967,996, 403, 491, 20, 0, -6, -2, 7, 8, 966, 920, 38,3
2025-03-12 13:12:51.022,748, 540, 437, -11, 24, 24, -4, 7, 5, 969, 927, 66,3
2025-03-12 13:12:51.072,562, 645, 362, 4, 31, 24, -4, 6, 4, 967, 903, 53,3
2025-03-12 13:12:51.131,1196, 205, 334, -10, 27, -37, -2, 5, 4, 932, 817, 45,3
2025-03-12 13:12:51.184,413, 534, 1013, -27, 18, -20, -3, 7, 0, 925, 841, 55,3
2025-03-12 13:12:52.004,699, 572, 438, -3, 1, -2, -3, 7, 6, 901, 811, 29,4
2025-03-12 13:12:52.061,705, 573, 449, -3, 0, -2, -3, 7, 6, 903, 813, 49,4
2025-03-12 13:12:52.104,703, 577, 435, 1, 0, -1, -4, 5, 5, 903, 815, 69,4
2025-03-12 13:12:52.163,726, 549, 447, -2, 0, -2, -5, 7, 5, 902, 816, 47,4
2025-03-12 13:12:52.214,714, 578, 432, -1, -2, -1, -4, 4, 5, 904, 819, 58,4
2025-03-12 13:12:52.264,705, 555, 450, 0, -4, -2, -3, 7, 5, 910, 831, 55,4
2025-03-12 13:12:52.315,687, 573, 448, -2, -9, 4, -4, 5, 5, 922, 853, 50,4
2025-03-12 13:12:52.372,738, 648, 388, -7, -6, -8, -4, 5, 8, 946, 894, 60,4
2025-03-12 13:12:52.422,542, 605, 506, 26, 12, -8, -4, 5, 6, 956, 854, 58,4
2025-03-12 13:12:52.479,895, 694, 68, 20, 10, 6, -5, 7, 5, 966, 894, 37,4
2025-03-12 13:12:52.528,576, 437, 517, -16, 3, 27, -4, 6, 6, 968, 938, 53,4
2025-03-12 13:12:52.582,718, 407, 514, 26, -4, -4, -3, 7, 6, 948, 912, 61,4
2025-03-12 13:12:52.637,550, 709, 580, 1, -3, -22, -4, 4, 5, 937, 873, 146,4
2025-03-12 13:12:52.682,801, 1026, 5, -11, 9, 23, -3, 5, 5, 973, 913, 50,4
2025-03-12 13:12:52.733,901, 757, 506, -40, 33, 44, -4, 6, 5, 970, 862, 39,4
2025-03-12 13:12:52.797,658, 554, 287, -1, 26, -58, -3, 8, 3, 944, 791, 50,4
2025-03-12 13:12:53.043,672, 593, 458, 2, -1, 5, -3, 5, 4, 889, 814, 61,5
2025-03-12 13:12:53.092,677, 582, 462, 3, -2, 5, -4, 8, 2, 886, 808, 58,5
2025-03-12 13:12:53.145,714, 563, 433, 0, -3, 4, -3, 7, 3, 874, 790, 51,5
2025-03-12 13:12:53.195,687, 558, 447, -10, 0, -7, -4, 8, 3, 876, 778, 49,5
2025-03-12 13:12:53.247,671, 588, 462, -8, -2, -2, -4, 6, 5, 891, 761, 53,5
2025-03-12 13:12:53.303,932, 142, 77, -48, -6, -15, -3, 9, 2, 942, 862, 53,5
2025-03-12 13:12:53.353,536, 375, 315, -32, 4, 29, -5, 8, 4, 967, 936, 59,5
2025-03-12 13:12:53.413,537, 207, 653, 45, -16, -21, -4, 5, 5, 958, 919, 27,5
2025-03-12 13:12:53.464,984, 613, 119, 18, 3, -21, -5, 7, 7, 965, 909, 56,5
2025-03-12 13:12:53.513,564, 314, 703, -24, 16, 28, -1, 5, 6, 975, 935, 45,5
2025-03-12 13:12:53.572,943, 446, 173, 7, 20, 13, -4, 8, 4, 952, 830, 68,5
2025-03-12 13:12:53.623,808, 403, 292, -18, 51, -43, -1, 6, 0, 861, 653, 37,5
2025-03-12 13:12:53.854,705, 547, 522, 3, -21, -7, -2, 5, 3, 829, 694, 42,6
2025-03-12 13:12:53.914,654, 545, 516, 10, -21, -4, -2, 6, 1, 832, 715, 49,6
2025-03-12 13:12:53.965,720, 572, 464, 10, -18, 10, -2, 6, 4, 854, 763, 66,6
2025-03-12 13:12:54.014,718, 563, 452, 5, -15, 10, -4, 6, 3, 884, 787, 54,6
2025-03-12 13:12:54.064,707, 588, 421, -6, -17, 7, -4, 6, 4, 909, 839, 53,6
2025-03-12 13:12:54.123,751, 541, 465, -11, 0, -13, -1, 7, 2, 934, 895, 40,6
2025-03-12 13:12:54.179,828, 429, 596, 74, 14, -16, -4, 6, 6, 960, 908, 71,6
2025-03-12 13:12:54.233,972, 777, 216, -21, 55, 56, -4, 10, 5, 975, 934, 48,6
2025-03-12 13:12:54.283,457, -57, 947, 17, -41, -27, -2, 8, 4, 965, 942, 52,6
2025-03-12 13:12:54.335,1196, 471, 44, -13, 32, -45, -3, 6, 5, 900, 880, 48,6
2025-03-12 13:12:54.397,421, 544, 906, -28, 39, -10, -3, 7, 0, 888, 826, 58,6
2025-03-12 13:12:54.663,527, 555, 642, 27, -44, 7, -3, 7, 4, 877, 780, 47,7
2025-03-12 13:12:54.722,666, 495, 633, 30, -52, 10, -3, 5, 3, 885, 797, 45,7
2025-03-12 13:12:54.773,901, 1029, 314, 14, -11, 21, -5, 6, 6, 948, 912, 62,7
2025-03-12 13:12:54.830,649, 315, 820, 42, -14, 3, -4, 10, 1, 964, 921, 32,7
2025-03-12 13:12:54.882,642, 547, 298, -5, 47, 42, -3, 7, 4, 968, 885, 57,7
2025-03-12 13:12:54.932,774, 445, 520, -58, 33, 6, -4, 7, 4, 949, 712, 43,7
2025-03-12 13:12:54.992,1116, 558, 685, -149, -31, -57, -3, 6, 2, 951, 878, 47,7
2025-03-12 13:12:55.049,797, 947, 102, -2, 8, 39, -4, 6, 5, 969, 931, 54,7
2025-03-12 13:12:55.096,718, 479, 137, -17, 62, -50, -4, 7, 5, 950, 800, 69,7
2025-03-12 13:12:55.153,583, 612, 677, -32, 45, -23, -4, 8, 0, 870, 471, 55,7
2025-03-12 13:12:55.383,685, 589, 419, -1, -5, 2, -2, 6, 2, 842, 554, 59,8
2025-03-12 13:12:55.444,697, 592, 408, -2, -3, 2, -5, 7, 0, 842, 555, 52,8
2025-03-12 13:12:55.493,654, 586, 511, -3, -2, 1, -2, 3, 3, 847, 568, 27,8
2025-03-12 13:12:55.546,694, 577, 415, -1, -6, -2, -4, 6, 0, 853, 582, 60,8
2025-03-12 13:12:55.597,685, 579, 476, -8, 2, -1, -4, 7, 1, 858, 599, 48,8
2025-03-12 13:12:55.653,692, 603, 440, -3, -1, -2, -5, 7, 1, 850, 563, 27,8
2025-03-12 13:12:55.702,676, 578, 480, -4, -1, 0, -3, 4, 2, 852, 579, 59,8
2025-03-12 13:12:55.759,696, 577, 439, -3, -2, -2, -4, 7, 3, 854, 590, 49,8
2025-03-12 13:12:55.812,681, 585, 474, -3, -2, -1, -3, 7, 1, 858, 640, 55,8
2025-03-12 13:12:55.862,686, 570, 473, 4, -5, 6, -4, 4, 4, 881, 680, 45,8
2025-03-12 13:12:55.913,692, 587, 465, 0, -10, 15, -4, 4, 4, 907, 731, 47,8
2025-03-12 13:12:55.965,539, 566, 577, 22, -50, 23, -5, 7, 2, 929, 830, 62,8
2025-03-12 13:12:56.014,239, 558, 535, 6, 0, -20, -4, 6, 6, 952, 900, 65,8
2025-03-12 13:12:56.073,873, 976, 54, -15, 37, 34, -7, 6, 8, 969, 912, 33,8
2025-03-12 13:12:56.128,454, 446, 557, -31, 19, 29, -2, 8, 5, 970, 938, 60,8
2025-03-12 13:12:56.180,621, 432, 421, 32, -39, -58, -4, 7, 4, 953, 937, 37,8
2025-03-12 13:12:56.232,932, 794, 486, 5, -23, -7, -5, 6, 5, 967, 943, 67,8
2025-03-12 13:12:56.283,668, 696, 352, 19, 7, 20, -4, 3, 8, 968, 927, 38,8
2025-03-12 13:12:56.595,694, 584, 415, 6, -6, 6, -4, 5, 3, 871, 736, 43,9
2025-03-12 13:12:56.644,686, 584, 417, 7, -5, 7, -6, 8, 3, 871, 726, 34,9
2025-03-12 13:12:56.696,695, 610, 427, -1, -6, 7, -3, 6, 5, 875, 731, 47,9
2025-03-12 13:12:56.746,729, 557, 415, 3, -6, 5, -5, 6, 3, 891, 743, 30,9
2025-03-12 13:12:56.799,704, 561, 392, -3, -4, 1, -7, 7, 4, 902, 774, 47,9
2025-03-12 13:12:56.853,602, 557, 541, 2, -12, 8, -5, 5, 5, 913, 810, 57,9
2025-03-12 13:12:56.902,688, 613, 296, -21, 1, -15, -5, 6, 7, 940, 890, 56,9
2025-03-12 13:12:56.953,895, 1004, 256, 19, 24, 24, -4, 5, 8, 966, 899, 66,9
2025-03-12 13:12:57.013,699, 589, 451, -27, 27, 27, -5, 7, 4, 967, 930, 48,9
2025-03-12 13:12:57.064,799, 532, 514, 30, -12, -26, -4, 7, 3, 952, 924, 63,9
2025-03-12 13:12:57.123,592, 740, 236, -32, 39, 57, -1, 8, 4, 969, 927, 47,9
2025-03-12 13:12:57.173,648, 359, 530, 0, 24, 24, -4, 8, 2, 957, 836, 73,9
2025-03-12 13:12:57.229,849, 511, 311, -12, 32, -56, -4, 9, 3, 885, 735, 50,9
2025-03-12 13:12:57.482,676, 609, 451, 9, -9, 11, -4, 7, 3, 884, 793, 65,+
2025-03-12 13:12:57.533,706, 582, 468, 10, -9, 13, -3, 5, 2, 885, 795, 61,+
2025-03-12 13:12:57.594,680, 529, 456, -7, -5, 2, -5, 9, 3, 896, 804, 63,+
2025-03-12 13:12:57.647,768, 584, 323, -19, -10, -5, -4, 6, 4, 919, 878, 54,+
2025-03-12 13:12:57.699,857, 638, 610, 39, -5, 4, -4, 7, 7, 961, 914, 42,+
2025-03-12 13:12:57.753,503, 444, 196, -8, 35, 51, -4, 9, 5, 974, 919, 56,+
2025-03-12 13:12:57.803,687, 88, 810, -27, 3, -17, -4, 8, 4, 961, 870, 42,+
2025-03-12 13:12:57.860,738, 661, 774, 15, -46, 0, -4, 8, 2, 954, 892, 63,+
2025-03-12 13:12:57.913,683, 696, 77, 5, -22, 21, -2, 7, 5, 971, 945, 46,+
2025-03-12 13:12:57.963,835, 293, 151, 9, 12, -14, -5, 5, 5, 960, 907, 39,+
2025-03-12 13:12:58.020,535, 619, 611, -17, 34, -32, -2, 8, 4, 925, 800, 58,+
2025-03-12 13:12:58.303,650, 580, 482, -5, 8, -5, -2, 6, 2, 845, 643, 59,-
2025-03-12 13:12:58.353,656, 581, 490, -6, 7, -4, -2, 8, 5, 842, 641, 55,-
2025-03-12 13:12:58.403,789, 480, 477, -3, -8, -4, -4, 7, 3, 864, 624, 43,-
2025-03-12 13:12:58.453,746, 533, 461, -16, 2, -6, -4, 5, 3, 926, 750, 64,-
2025-03-12 13:12:58.515,999, 622, 580, 32, -19, -3, -4, 9, 3, 957, 911, 32,-
2025-03-12 13:12:58.563,446, 658, 495, -41, -12, 38, -4, 6, 4, 972, 948, 64,-
2025-03-12 13:12:58.623,679, 600, 346, 32, 1, 10, -6, 10, 3, 964, 925, 50,-
2025-03-12 13:12:58.673,732, 486, 327, -34, 50, -43, -4, 7, 5, 934, 835, 51,-
2025-03-12 13:12:58.729,647, 532, 723, 0, -6, -4, -3, 5, 4, 910, 772, 50,-
2025-03-12 13:12:58.781,738, 587, 390, 25, -16, 0, -6, 6, 4, 893, 765, 61,-
2025-03-12 13:12:58.833,740, 557, 345, -5, 8, -6, -3, 7, 5, 871, 733, 32,-
2025-03-12 13:12:58.883,686, 569, 486, -3, 2, 0, -4, 5, 5, 875, 717, 52,-
2025-03-12 13:12:58.935,747, 566, 406, -5, 3, -7, -4, 5, 4, 858, 685, 51,-
2025-03-12 13:12:58.984,688, 566, 467, -9, 5, -5, -4, 6, 5, 848, 612, 58,-
2025-03-12 13:12:59.036,696, 567, 443, -3, 0, -1, -7, 6, 4, 842, 533, 41,-
2025-03-12 13:12:59.092,693, 571, 459, -1, 0, 2, -4, 6, 4, 856, 546, 46,-
2025-03-12 13:12:59.142,710, 570, 424, 1, -1, 1, -4, 7, 5, 859, 574, 52,-
2025-03-12 13:12:59.197,697, 561, 428, -2, 3, -3, -4, 7, 3, 851, 559, 64,-
2025-03-12 13:12:59.245,689, 582, 476, -1, 0, -1, -4, 5, 4, 841, 550, 30,-
2025-03-12 13:12:59.296,706, 569, 432, -1, 0, -1, -5, 7, 4, 845, 561, 40,-
2025-03-12 13:12:59.346,686, 571, 448, -1, -2, -1, -5, 8, 3, 852, 610, 65,-
2025-03-12 13:12:59.404,713, 575, 430, -1, 2, -2, -4, 7, 1, 850, 577, 33,-
2025-03-12 13:12:59.693,686, 569, 438, -3, -2, -4, -4, 5, 5, 826, 594, 52,÷
2025-03-12 13:12:59.745,693, 584, 440, -3, -2, -3, -2, 6, 2, 828, 603, 64,÷
2025-03-12 13:12:59.797,691, 589, 455, -1, -1, 1, -2, 6, 6, 840, 641, 45,÷
2025-03-12 13:12:59.848,690, 585, 445, -3, -2, 2, -4, 4, 2, 854, 659, 59,÷
2025-03-12 13:12:59.902,693, 578, 461, 2, -11, 10, -5, 5, 5, 880, 704, 44,÷
2025-03-12 13:12:59.953,618, 597, 472, -5, -27, 12, -5, 6, 4, 908, 806, 46,÷
2025-03-12 13:13:00.013,744, 568, 415, -21, -10, -24, -3, 8, 6, 939, 904, 33,÷
2025-03-12 13:13:00.065,935, 1013, 77, 12, 5, 8, -4, 5, 7, 965, 919, 68,÷
2025-03-12 13:13:00.113,737, 486, 400, -36, 27, 34, -4, 6, 6, 970, 930, 54,÷
2025-03-12 13:13:00.164,615, 497, 494, 8, 69, 8, -5, 9, 3, 955, 883, 61,÷
2025-03-12 13:13:00.222,476, 556, 746, 33, -29, 45, -2, 7, 2, 952, 829, 65,÷
2025-03-12 13:13:00.276,755, 682, 486, -19, 13, 9, -5, 6, 7, 965, 925, 40,÷
2025-03-12 13:13:00.330,792, 343, 255, -9, 4, -38, -4, 8, 3, 950, 879, 51,÷
2025-03-12 13:13:00.382,591, 672, 745, 25, -23, -15, -4, 8, 2, 933, 835, 48,÷
2025-03-12 13:13:00.432,666, 556, 127, -40, -19, 0, -5, 6, 5, 969, 939, 55,÷
2025-03-12 13:13:00.489,829, 399, 561, 30, -4, 5, -4, 8, 6, 964, 920, 36,÷
2025-03-12 13:13:00.543,592, 600, 508, -2, 56, -40, -4, 5, 2, 928, 784, 54,÷
2025-03-12 13:13:00.816,688, 583, 437, -2, -1, 0, -3, 4, 5, 870, 739, 49,=
2025-03-12 13:13:00.871,686, 590, 442, -1, -2, 1, -1, 7, 8, 868, 739, 37,=
2025-03-12 13:13:00.920,717, 580, 388, -1, -4, 1, -3, 4, 9, 874, 743, 42,=
2025-03-12 13:13:00.973,703, 596, 415, -2, -2, -1, -4, 6, 4, 878, 747, 47,=
2025-03-12 13:13:01.026,722, 592, 393, -4, -3, 1, -3, 5, 6, 883, 757, 67,=
2025-03-12 13:13:01.076,727, 573, 416, -4, 2, 0, 0, 3, 6, 880, 761, 35,=
2025-03-12 13:13:01.127,703, 572, 430, -6, 1, -1, -2, 9, 4, 876, 750, 46,=
2025-03-12 13:13:01.177,732, 570, 391, -10, 3, -3, -4, 5, 7, 863, 715, 65,=
2025-03-12 13:13:01.232,695, 586, 472, -4, 0, -2, -4, 7, 5, 864, 700, 45,=
2025-03-12 13:13:01.282,725, 549, 412, 0, -3, -1, -1, 6, 4, 879, 712, 51,=
2025-03-12 13:13:01.333,713, 570, 431, -3, 0, 1, -3, 6, 5, 886, 733, 66,=
2025-03-12 13:13:01.386,689, 570, 430, 3, 1, 0, -4, 6, 5, 897, 761, 65,=
2025-03-12 13:13:01.435,735, 582, 403, 0, -5, -7, -4, 7, 6, 895, 765, 48,=
2025-03-12 13:13:01.486,684, 580, 392, -5, 8, -3, -4, 7, 4, 893, 725, 33,=
2025-03-12 13:13:01.544,703, 479, 456, -4, -8, -2, -3, 3, 5, 933, 809, 65,=
2025-03-12 13:13:01.596,493, 1273, 369, -14, -32, 30, -5, 6, 5, 968, 937, 48,=
2025-03-12 13:13:01.652,577, 539, 527, 66, 8, 20, -5, 7, 6, 963, 906, 57,=
2025-03-12 13:13:01.702,526, 602, 552, 17, 25, -6, -3, 7, 3, 945, 826, 49,=
2025-03-12 13:13:01.753,846, 710, 292, -16, -5, 3, -1, 6, 5, 964, 929, 64,=
2025-03-12 13:13:01.812,729, 657, 520, 19, -10, 35, -4, 8, 4, 963, 924, 53,=
2025-03-12 13:13:01.863,556, 639, 368, -16, 54, -40, -4, 7, 1, 936, 824, 46,=
2025-03-12 13:13:02.113,664, 593, 457, -2, 1, 3, -3, 3, 4, 838, 615, 47,≠
2025-03-12 13:13:02.163,665, 587, 462, 0, -1, 4, -4, 7, 2, 839, 621, 58,≠
2025-03-12 13:13:02.212,716, 571, 390, 1, -7, 2, -3, 5, 6, 841, 637, 52,≠
2025-03-12 13:13:02.270,675, 576, 425, -17, 2, -9, -4, 5, 5, 850, 649, 66,≠
2025-03-12 13:13:02.322,619, 599, 466, -14, -6, -6, -4, 5, 4, 862, 679, 35,≠
2025-03-12 13:13:02.379,839, 558, 376, 4, -3, -20, -4, 7, 4, 936, 842, 51,≠
2025-03-12 13:13:02.428,538, 519, 39, -40, -11, 37, -3, 6, 6, 965, 936, 40,≠
2025-03-12 13:13:02.484,597, 606, 371, 49, 14, 16, -4, 7, 6, 954, 881, 63,≠
2025-03-12 13:13:02.538,425, 577, 575, -17, 24, -7, -5, 7, 2, 934, 714, 62,≠
2025-03-12 13:13:02.582,916, 812, 224, -19, -10, 20, -7, 7, 2, 968, 938, 52,≠
2025-03-12 13:13:02.645,604, 484, 403, 9, 4, 25, -5, 7, 6, 966, 927, 47,≠
2025-03-12 13:13:02.695,644, 579, 329, -27, 48, -44, -4, 7, 5, 942, 878, 51,≠
2025-03-12 13:13:02.752,555, 594, 869, -15, -29, -5, -4, 5, 2, 924, 873, 67,≠
2025-03-12 13:13:02.806,806, 600, 295, 12, -44, -5, -4, 5, 6, 930, 902, 50,≠
2025-03-12 13:13:02.861,803, 311, 580, 20, -14, -14, -4, 7, 6, 963, 929, 39,≠
2025-03-12 13:13:02.912,830, 585, 125, 20, 50, 28, -4, 6, 5, 970, 900, 52,≠
2025-03-12 13:13:02.972,1132, 523, 259, -3, 38, 15, -3, 7, 4, 935, 751, 44,≠
2025-03-12 13:13:03.023,579, 573, 719, -44, 30, -33, -3, 7, 2, 916, 826, 64,≠
2025-03-12 13:13:03.079,536, 603, 633, 13, -28, 4, -1, 7, 1, 904, 767, 29,≠
2025-03-12 13:13:03.365,713, 542, 448, -5, -1, 0, -4, 7, 3, 821, 593, 54,≈
2025-03-12 13:13:03.422,698, 551, 452, -5, -1, 0, -1, 4, -1, 822, 607, 64,≈
2025-03-12 13:13:03.476,704, 555, 458, 0, -4, -4, -4, 8, 2, 814, 643, 59,≈
2025-03-12 13:13:03.525,675, 576, 481, 2, -4, -2, -2, 5, 5, 814, 652, 33,≈
2025-03-12 13:13:03.578,723, 563, 435, 0, -4, 1, -2, 6, 5, 821, 656, 42,≈
2025-03-12 13:13:03.628,697, 575, 459, -9, 0, 2, -4, 7, 1, 843, 661, 44,≈
2025-03-12 13:13:03.682,714, 551, 460, -7, -5, 3, -3, 8, 4, 885, 696, 46,≈
2025-03-12 13:13:03.732,719, 557, 459, -3, -2, 4, -4, 6, 4, 903, 752, 35,≈
2025-03-12 13:13:03.782,727, 538, 447, -2, -1, 0, -2, 8, 3, 913, 776, 62,≈
2025-03-12 13:13:03.833,706, 555, 465, -2, -1, -1, -5, 6, 5, 912, 784, 65,≈
2025-03-12 13:13:03.883,730, 553, 445, 0, 0, -1, -3, 7, 4, 908, 785, 32,≈
2025-03-12 13:13:03.936,703, 575, 448, -4, 1, 0, -4, 6, 3, 910, 788, 41,≈
2025-03-12 13:13:03.986,726, 550, 437, -5, 0, 0, -3, 7, 3, 913, 779, 46,≈
2025-03-12 13:13:04.032,708, 555, 455, -3, 2, -2, -3, 6, 4, 914, 776, 51,≈
2025-03-12 13:13:04.094,727, 547, 441, -2, -1, 0, -4, 8, 3, 915, 772, 45,≈
2025-03-12 13:13:04.146,707, 548, 462, -3, 1, -3, -4, 8, 3, 913, 775, 52,≈
2025-03-12 13:13:04.197,710, 561, 447, -2, -1, -2, -3, 7, 4, 915, 775, 64,≈
2025-03-12 13:13:04.245,717, 549, 469, -2, 1, -2, -3, 6, 3, 916, 770, 41,≈
2025-03-12 13:13:04.296,706, 563, 457, 3, 0, 2, -6, 9, 0, 918, 754, 57,≈
2025-03-12 13:13:04.353,681, 560, 454, 1, 2, -3, -4, 9, 3, 918, 768, 46,≈
2025-03-12 13:13:04.397,704, 511, 476, 6, 7, 3, -3, 6, 3, 921, 740, 49,≈
2025-03-12 13:13:04.453,875, 567, 327, 9, 10, -2, -3, 7, 3, 945, 891, 64,≈
2025-03-12 13:13:04.509,475, 550, 377, -13, -21, 16, -3, 6, 3, 966, 937, 49,≈
2025-03-12 13:13:04.561,674, 830, 257, 12, -1, 24, -3, 8, 5, 973, 934, 52,≈
2025-03-12 13:13:04.616,740, 462, 67, -23, 69, -27, -6, 7, 3, 961, 881, 49,≈
2025-03-12 13:13:04.663,489, 523, 928, 24, -8, 8, -3, 7, 2, 948, 795, 65,≈
2025-03-12 13:13:04.721,918, 1060, 154, -26, -7, -3, -4, 8, 4, 961, 920, 59,≈
2025-03-12 13:13:04.777,761, 373, 890, 15, -30, -1, -5, 11, 3, 971, 939, 46,≈
2025-03-12 13:13:04.827,790, 579, 444, -13, 7, 26, -4, 7, 4, 974, 937, 36,≈
2025-03-12 13:13:04.882,907, 311, 116, -28, 46, -43, -3, 6, 4, 964, 914, 56,≈
2025-03-12 13:13:04.942,515, 545, 806, -19, 35, -29, -4, 3, 3, 932, 833, 41,≈
2025-03-12 13:13:05.212,681, 579, 469, 0, 0, -6, -4, 7, 2, 870, 613, 38,<
2025-03-12 13:13:05.261,684, 572, 481, 2, -1, -4, -1, 5, 0, 875, 617, 53,<
2025-03-12 13:13:05.313,706, 588, 416, 5, -6, -1, -4, 5, 3, 878, 649, 52,<
2025-03-12 13:13:05.362,710, 595, 437, 5, -6, 0, -4, 4, 4, 888, 663, 64,<
2025-03-12 13:13:05.413,708, 576, 411, 5, 0, -1, -4, 5, 6, 884, 671, 39,<
2025-03-12 13:13:05.463,714, 584, 438, 1, 1, 2, -3, 8, 1, 877, 668, 45,<
2025-03-12 13:13:05.513,708, 589, 422, 0, 1, -1, -3, 7, 4, 876, 662, 48,<
2025-03-12 13:13:05.565,712, 586, 439, -2, 1, -1, -2, 7, 4, 872, 670, 53,<
2025-03-12 13:13:05.622,701, 598, 429, -1, -1, -1, -3, 5, 3, 873, 672, 45,<
2025-03-12 13:13:05.670,701, 584, 426, -2, 0, 0, -2, 7, 3, 874, 670, 59,<
2025-03-12 13:13:05.723,701, 593, 419, -3, 0, 1, -4, 6, 2, 874, 674, 61,<
2025-03-12 13:13:05.777,707, 577, 430, -2, -2, -1, -4, 4, 3, 874, 674, 57,<
2025-03-12 13:13:05.827,717, 580, 426, -5, -3, 1, -7, 9, 3, 883, 683, 29,<
2025-03-12 13:13:05.880,706, 594, 389, -6, -5, -4, -3, 5, 4, 901, 719, 47,<
2025-03-12 13:13:05.933,703, 594, 428, -9, -14, 0, -4, 5, 3, 909, 769, 56,<
2025-03-12 13:13:05.982,752, 578, 466, -2, -17, 7, -6, 7, 4, 929, 841, 39,<
2025-03-12 13:13:06.032,612, 532, 439, -21, -8, 1, -3, 7, 5, 948, 900, 50,<
2025-03-12 13:13:06.097,483, 479, 490, 29, -17, -19, -4, 7, 5, 962, 919, 46,<
2025-03-12 13:13:06.147,949, 694, 320, 16, 22, 2, -5, 5, 6, 968, 899, 53,<
2025-03-12 13:13:06.203,585, 638, 339, -50, 28, 70, -6, 7, 4, 977, 940, 64,<
2025-03-12 13:13:06.252,716, 398, 457, 21, 6, 1, -4, 9, 4, 967, 913, 57,<
2025-03-12 13:13:06.303,632, 516, 431, -18, 54, -54, -3, 7, 2, 932, 799, 60,<
2025-03-12 13:13:06.562,690, 579, 440, -9, -1, 0, -3, 7, 3, 921, 840, 28,≤
2025-03-12 13:13:06.612,652, 581, 473, -9, -4, 1, -3, 7, 3, 923, 845, 42,≤
2025-03-12 13:13:06.670,665, 579, 507, 11, -28, 10, -3, 5, 4, 934, 866, 63,≤
2025-03-12 13:13:06.723,713, 670, 336, -11, -5, -6, -3, 6, 6, 949, 903, 62,≤
2025-03-12 13:13:06.777,686, 520, 538, 10, -8, -7, -4, 6, 4, 958, 913, 60,≤
2025-03-12 13:13:06.826,857, 483, 226, 9, 8, -10, -4, 5, 4, 965, 893, 37,≤
2025-03-12 13:13:06.882,820, 634, 339, -47, 16, 65, -5, 7, 5, 976, 938, 77,≤
2025-03-12 13:13:06.937,669, 539, 493, 25, 12, 20, -8, 10, 6, 971, 929, 36,≤
2025-03-12 13:13:06.983,593, 533, 435, -7, 60, -26, -3, 8, 2, 945, 781, 42,≤
2025-03-12 13:13:07.045,965, -54, 32, 27, -11, -17, -3, 6, 6, 962, 897, 32,≤
2025-03-12 13:13:07.100,804, 472, 401, -10, -8, 27, -4, 8, 5, 974, 947, 74,≤
2025-03-12 13:13:07.152,920, 250, 132, 6, 28, -36, -4, 10, 2, 958, 898, 38,≤
2025-03-12 13:13:07.207,560, 575, 646, -34, 46, -32, -3, 7, 0, 902, 705, 60,≤
2025-03-12 13:13:07.477,714, 545, 479, -1, -6, -4, -4, 7, 4, 896, 784, 40,>
2025-03-12 13:13:07.527,711, 558, 467, -1, -6, -5, -6, 8, 4, 894, 787, 31,>
2025-03-12 13:13:07.583,715, 542, 464, -5, -3, -5, -2, 8, 2, 892, 789, 41,>
2025-03-12 13:13:07.632,675, 571, 465, -3, -7, -4, -4, 7, 4, 885, 780, 51,>
2025-03-12 13:13:07.683,725, 532, 452, 7, -15, 2, -4, 8, 3, 884, 786, 40,>
2025-03-12 13:13:07.743,732, 533, 338, 3, 0, -13, -5, 7, 6, 936, 856, 65,>
2025-03-12 13:13:07.792,739, 625, 221, -4, -7, 35, -4, 7, 6, 962, 925, 52,>
2025-03-12 13:13:07.847,661, 460, 562, 42, -10, -2, -6, 6, 4, 967, 926, 43,>
2025-03-12 13:13:07.903,1093, 524, 69, -21, 52, 13, -5, 7, 6, 967, 911, 63,>
2025-03-12 13:13:07.952,911, 202, 475, -40, 54, -6, -2, 6, 5, 949, 840, 38,>
2025-03-12 13:13:08.010,592, 578, 735, 27, -18, 23, -4, 7, 3, 939, 793, 54,>
2025-03-12 13:13:08.064,874, 428, 559, 0, -2, -6, -4, 6, 3, 964, 926, 37,>
2025-03-12 13:13:08.113,800, 707, 260, 28, -27, 10, -4, 9, 4, 968, 940, 65,>
2025-03-12 13:13:08.175,717, 551, 167, -38, 73, -45, -4, 6, 2, 944, 821, 45,>
2025-03-12 13:13:08.223,523, 506, 851, -4, 5, -5, -2, 7, 1, 929, 762, 65,>
2025-03-12 13:13:08.276,761, 560, 390, 8, -10, -1, -3, 8, 1, 924, 786, 49,>
2025-03-12 13:13:08.330,663, 560, 532, -2, 4, -4, -2, 8, 0, 916, 776, 58,>
2025-03-12 13:13:08.378,654, 531, 522, 5, -9, 4, -5, 6, 1, 913, 779, 63,>
2025-03-12 13:13:08.432,727, 555, 418, -1, -6, -3, -3, 7, 0, 910, 779, 65,>
2025-03-12 13:13:08.482,665, 575, 500, -7, 0, -3, -5, 5, 1, 909, 775, 34,>
2025-03-12 13:13:08.532,681, 539, 494, 6, -9, 1, -3, 6, 2, 895, 772, 64,>
2025-03-12 13:13:08.583,734, 568, 425, -1, -3, -4, -2, 6, 1, 890, 767, 57,>
2025-03-12 13:13:08.641,688, 541, 515, -3, 2, -4, -4, 8, 1, 888, 752, 29,>
2025-03-12 13:13:08.693,696, 562, 473, -4, -2, 0, -5, 6, 2, 890, 749, 46,>
2025-03-12 13:13:08.742,706, 550, 461, -2, 0, -2, -3, 6, 2, 891, 744, 59,>
2025-03-12 13:13:08.796,685, 560, 488, -2, 1, -1, -3, 8, 1, 887, 735, 50,>
2025-03-12 13:13:08.844,709, 555, 441, -2, 0, -3, -3, 6, 3, 878, 726, 48,>
2025-03-12 13:13:09.329,696, 559, 466, 0, -12, -1, -5, 6, 2, 882, 792, 40,≥
2025-03-12 13:13:09.377,701, 564, 469, 2, -11, 0, -4, 5, 5, 885, 795, 50,≥
2025-03-12 13:13:09.429,718, 560, 437, 3, -6, 0, -6, 6, 3, 888, 806, 43,≥
2025-03-12 13:13:09.478,693, 572, 462, 3, -5, -2, -4, 8, 4, 891, 808, 32,≥
2025-03-12 13:13:09.533,663, 566, 458, -3, -11, -7, -4, 5, 5, 895, 820, 46,≥
2025-03-12 13:13:09.583,662, 559, 461, 16, -29, 4, -4, 6, 5, 922, 845, 55,≥
2025-03-12 13:13:09.641,743, 743, 274, -7, 8, -1, -4, 5, 7, 949, 893, 40,≥
2025-03-12 13:13:09.693,803, 827, 297, 18, -28, 23, -4, 7, 6, 963, 935, 47,≥
2025-03-12 13:13:09.744,528, 431, 547, 22, -9, 0, -5, 7, 7, 969, 930, 32,≥
2025-03-12 13:13:09.795,621, 857, -84, 7, 28, 12, -5, 6, 6, 971, 927, 88,≥
2025-03-12 13:13:09.853,870, 1008, 156, -28, 59, 42, -5, 8, 5, 960, 849, 63,≥
2025-03-12 13:13:09.902,461, 479, 684, 0, 28, -17, -3, 8, 2, 941, 677, 55,≥
2025-03-12 13:13:09.962,797, 277, 579, 86, -28, -30, -4, 8, 4, 960, 902, 57,≥
2025-03-12 13:13:10.013,777, 508, 680, -14, -22, 18, -4, 9, 4, 973, 943, 104,≥
2025-03-12 13:13:10.070,798, 559, 344, 27, 4, -1, -4, 7, 4, 957, 886, 39,≥
2025-03-12 13:13:10.123,684, 553, 512, -50, 76, -34, -5, 8, 1, 912, 675, 65,≥
2025-03-12 13:13:10.402,683, 619, 441, 9, -4, -30, -3, 4, 4, 688, 394, 49,±
2025-03-12 13:13:10.453,677, 613, 435, 11, -5, -29, -2, 6, 2, 693, 407, 44,±
2025-03-12 13:13:10.513,664, 607, 460, 17, -10, -29, -3, 2, 4, 708, 408, 45,±
2025-03-12 13:13:10.565,622, 606, 486, 38, -31, -56, -2, 0, 4, 727, 211, 47,±
2025-03-12 13:13:10.624,528, 750, 330, 25, -2, -19, 0, -1, 5, 772, 200, 144,±
2025-03-12 13:13:10.676,533, 874, 236, 32, 9, 36, -4, 0, 4, 836, 219, 303,±
2025-03-12 13:13:10.728,624, 700, 316, 33, 19, 51, -2, 2, 4, 856, 141, 312,±
2025-03-12 13:13:10.782,686, 654, 214, 24, 19, 34, -4, 0, 6, 827, 53, 416,±
2025-03-12 13:13:10.832,740, 649, 344, 32, 10, 9, -1, 4, 6, 733, 34, 449,±
2025-03-12 13:13:10.882,717, 654, 291, 1, 5, 2, -3, 3, 5, 717, 42, 462,±
2025-03-12 13:13:10.933,676, 696, 348, -17, 0, 0, -2, 4, 3, 767, 59, 428,±
2025-03-12 13:13:10.983,777, 615, 333, -22, 3, 12, -2, 4, 4, 850, 48, 131,±
2025-03-12 13:13:11.045,691, 755, 313, -40, -17, 13, -1, 6, 3, 874, 254, 382,±
2025-03-12 13:13:11.094,671, 600, 364, -53, -1, 10, -3, 4, 6, 916, 656, 333,±
2025-03-12 13:13:11.145,698, 608, 403, -35, 1, 0, -6, 6, 5, 933, 772, 190,±
2025-03-12 13:13:11.209,1079, 433, 493, -36, 7, -16, -3, 6, 7, 945, 798, 35,±
2025-03-12 13:13:11.263,1063, 1050, 544, -11, -47, 23, -2, 5, 6, 968, 934, 52,±
2025-03-12 13:13:11.317,586, 448, 378, 2, 15, 28, -4, 7, 7, 966, 928, 50,±
2025-03-12 13:13:11.363,419, 673, 619, 2, 7, -24, -6, 7, 4, 960, 917, 61,±
2025-03-12 13:13:11.426,751, 517, 406, -1, -17, -11, -6, 5, 4, 971, 930, 48,±
2025-03-12 13:13:11.475,990, 911, 397, -2, 41, 45, -4, 6, 5, 970, 914, 53,±
2025-03-12 13:13:11.526,426, 539, 560, 17, 36, -17, -2, 5, 7, 960, 867, 42,±
2025-03-12 13:13:11.582,1097, 718, 454, -19, -29, 9, -5, 7, 4, 971, 941, 63,±
2025-03-12 13:13:11.632,754, 245, 496, 10, 0, 38, -4, 7, 3, 972, 940, 43,±
2025-03-12 13:13:11.692,559, 544, 449, -34, 72, -51, -5, 7, 1, 953, 885, 54,±
2025-03-12 13:13:11.971,753, 567, 384, -3, -1, 0, -4, 7, 4, 940, 852, 29,∓
2025-03-12 13:13:12.024,736, 556, 398, -4, 0, -1, -4, 7, 4, 938, 851, 37,∓
2025-03-12 13:13:12.075,723, 550, 465, -2, -5, -2, -5, 7, 4, 940, 858, 66,∓
2025-03-12 13:13:12.126,713, 600, 413, -6, -2, -3, -4, 11, 3, 942, 850, 40,∓
2025-03-12 13:13:12.183,701, 560, 455, -9, -1, -2, -2, 7, 4, 941, 854, 53,∓
2025-03-12 13:13:12.232,698, 563, 433, -7, -5, -2, -6, 7, 3, 940, 843, 31,∓
2025-03-12 13:13:12.290,670, 555, 455, -9, -7, 0, -5, 6, 4, 941, 856, 61,∓
2025-03-12 13:13:12.344,815, 527, 470, -5, -11, -18, -4, 7, 6, 958, 923, 66,∓
2025-03-12 13:13:12.393,1116, 528, 355, -11, -27, 29, -4, 6, 6, 973, 956, 89,∓
2025-03-12 13:13:12.451,629, 537, 597, 60, 6, 13, -3, 9, 5, 968, 932, 45,∓
2025-03-12 13:13:12.507,520, 514, 407, -1, 49, -24, -4, 7, 5, 948, 857, 58,∓
2025-03-12 13:13:12.561,925, 572, 385, 4, -13, -12, -5, 7, 5, 962, 922, 51,∓
2025-03-12 13:13:12.612,770, 390, 415, -11, -13, 23, -5, 8, 5, 970, 949, 91,∓
2025-03-12 13:13:12.663,767, 286, 236, -3, 12, -46, -4, 6, 6, 963, 924, 34,∓
2025-03-12 13:13:12.724,580, 656, 838, 10, -35, 41, -5, 6, 6, 966, 930, 55,∓
2025-03-12 13:13:12.775,950, 623, 69, -23, 46, 43, -2, 5, 7, 973, 923, 36,∓
2025-03-12 13:13:12.825,872, 192, 370, -32, 44, -44, -3, 9, 3, 956, 857, 66,∓
2025-03-12 13:13:13.123,721, 560, 435, -8, 4, -2, -3, 7, 6, 889, 749, 45,∞
2025-03-12 13:13:13.183,702, 561, 455, -7, 3, -2, -5, 6, 3, 892, 752, 53,∞
2025-03-12 13:13:13.233,691, 573, 451, -4, -1, -4, -2, 6, 3, 895, 751, 38,∞
2025-03-12 13:13:13.288,724, 523, 453, 6, -1, -7, -5, 6, 3, 902, 745, 40,∞
2025-03-12 13:13:13.342,697, 595, 423, 9, -1, -13, -3, 6, 3, 907, 687, 54,∞
2025-03-12 13:13:13.394,728, 640, 394, 21, -4, -15, -2, 4, 5, 911, 609, 45,∞
2025-03-12 13:13:13.443,611, 511, 487, 36, -11, -32, -4, 5, 3, 921, 581, 49,∞
2025-03-12 13:13:13.502,616, 668, 436, 9, -5, 1, -3, 3, 5, 934, 584, 45,∞
2025-03-12 13:13:13.552,666, 743, 312, -14, 6, 27, -4, 4, 5, 939, 626, 42,∞
2025-03-12 13:13:13.608,684, 539, 440, -26, 14, 26, -4, 7, 6, 944, 752, 47,∞
2025-03-12 13:13:13.658,687, 593, 407, -12, -4, 3, -3, 6, 6, 944, 821, 63,∞
2025-03-12 13:13:13.709,787, 543, 441, -9, 2, -1, -4, 7, 3, 946, 840, 27,∞
2025-03-12 13:13:13.767,746, 587, 418, 2, 2, 8, -4, 5, 3, 945, 850, 56,∞
2025-03-12 13:13:13.812,716, 578, 421, -9, 1, -2, -4, 6, 3, 946, 860, 46,∞
2025-03-12 13:13:13.862,606, 576, 583, -8, -14, 9, -4, 4, 2, 948, 875, 48,∞
2025-03-12 13:13:13.917,736, 541, 262, 5, -11, 8, -4, 5, 3, 952, 887, 42,∞
2025-03-12 13:13:13.973,668, 589, 493, -11, 2, -4, -5, 7, 4, 952, 892, 47,∞
2025-03-12 13:13:14.025,700, 527, 441, 0, -10, 5, -4, 7, 5, 957, 906, 70,∞
2025-03-12 13:13:14.075,672, 526, 396, 2, 13, -5, -4, 7, 4, 968, 919, 34,∞
2025-03-12 13:13:14.126,671, 264, 451, -20, 18, 6, -5, 8, 3, 965, 903, 42,∞
2025-03-12 13:13:14.186,1199, 166, 736, 13, -14, -30, -3, 8, 4, 955, 913, 67,∞
2025-03-12 13:13:14.240,692, 820, 372, -13, -34, 30, -4, 6, 6, 974, 943, 55,∞
2025-03-12 13:13:14.296,495, 593, 341, -21, 0, 10, -1, 11, 2, 974, 946, 38,∞
2025-03-12 13:13:14.342,568, 590, 420, 8, -13, -31, -6, 8, 4, 967, 939, 60,∞
2025-03-12 13:13:14.403,441, 1021, 308, -3, 29, 17, -6, 6, 6, 976, 933, 51,∞
2025-03-12 13:13:14.457,894, 490, 236, -27, 30, 12, -4, 9, 4, 968, 881, 61,∞
2025-03-12 13:13:14.509,844, 360, 327, 2, 38, -50, -5, 10, 4, 945, 838, 51,∞
2025-03-12 13:13:14.792,676, 583, 389, 20, -8, -37, -3, 4, 5, 852, 562, 47,∑
2025-03-12 13:13:14.845,670, 600, 410, 20, -7, -38, -3, 4, 4, 853, 550, 60,∑
2025-03-12 13:13:14.900,491, 720, 478, 15, 4, 9, -1, 2, 4, 881, 506, 40,∑
2025-03-12 13:13:14.942,686, 638, 403, 36, -1, 35, -4, 2, 6, 896, 526, 61,∑
2025-03-12 13:13:14.997,751, 659, 290, 0, 11, 29, -4, 3, 4, 901, 625, 49,∑
2025-03-12 13:13:15.052,765, 556, 391, -23, 8, 11, -6, 6, 4, 913, 704, 46,∑
2025-03-12 13:13:15.108,714, 598, 459, -19, 6, 8, -5, 7, 3, 923, 752, 43,∑
2025-03-12 13:13:15.159,718, 566, 427, -11, 1, 2, -2, 5, 4, 927, 787, 53,∑
2025-03-12 13:13:15.210,725, 548, 437, -3, -1, 1, -4, 5, 4, 931, 802, 40,∑
2025-03-12 13:13:15.262,678, 606, 410, -9, 5, -4, -4, 5, 6, 934, 812, 66,∑
2025-03-12 13:13:15.317,651, 596, 401, -24, 10, -8, -4, 6, 4, 936, 811, 53,∑
2025-03-12 13:13:15.368,894, 553, 505, 1, -12, -2, -1, 4, 6, 937, 825, 32,∑
2025-03-12 13:13:15.424,727, 541, 404, -8, -1, -9, -2, 7, 5, 939, 833, 62,∑
2025-03-12 13:13:15.477,685, 589, 508, -4, -17, 4, -4, 7, 4, 944, 856, 37,∑
2025-03-12 13:13:15.527,716, 679, 269, 6, -2, -8, -5, 6, 5, 945, 836, 62,∑
2025-03-12 13:13:15.583,729, 561, 412, -11, 9, -1, -3, 5, 4, 951, 856, 52,∑
2025-03-12 13:13:15.632,466, 790, 235, -16, -53, 43, -3, 7, 7, 974, 945, 43,∑
2025-03-12 13:13:15.689,580, 395, 555, 23, -4, 4, -6, 7, 6, 971, 946, 74,∑
2025-03-12 13:13:15.742,690, 625, 224, 16, 41, -25, -4, 8, 5, 952, 902, 27,∑
2025-03-12 13:13:15.795,897, 489, 481, -15, 3, -9, -3, 7, 4, 958, 902, 51,∑
2025-03-12 13:13:15.842,260, 497, 320, -37, 1, 24, -4, 5, 4, 972, 943, 54,∑
2025-03-12 13:13:15.902,626, 550, 583, -2, 8, 15, -4, 7, 3, 966, 929, 50,∑
2025-03-12 13:13:15.956,749, 413, 484, 29, 27, -17, -4, 7, 4, 946, 802, 60,∑
2025-03-12 13:13:16.009,725, 791, 416, -80, -11, 40, -4, 8, 3, 971, 941, 31,∑
2025-03-12 13:13:16.059,728, 610, 469, 5, 0, 17, -4, 9, 4, 962, 923, 70,∑
2025-03-12 13:13:16.112,744, 584, 282, -18, 60, -41, -6, 7, 3, 928, 751, 47,∑
2025-03-12 13:13:16.372,708, 570, 436, -3, -1, -2, -2, 7, 6, 892, 742, 66,∏
2025-03-12 13:13:16.436,707, 566, 438, 0, -1, -1, -5, 5, 6, 888, 742, 46,∏
2025-03-12 13:13:16.484,707, 547, 450, 3, -2, 1, -4, 7, 5, 879, 745, 43,∏
2025-03-12 13:13:16.533,717, 579, 437, -4, 1, -1, -2, 7, 5, 878, 753, 58,∏
2025-03-12 13:13:16.590,716, 556, 458, -4, 1, 0, -4, 7, 1, 879, 755, 65,∏
2025-03-12 13:13:16.640,717, 558, 444, -3, -1, 0, -4, 6, 4, 882, 756, 67,∏
2025-03-12 13:13:16.693,701, 556, 470, -6, 0, -1, -4, 10, 2, 876, 739, 34,∏
2025-03-12 13:13:16.742,730, 541, 453, -5, 0, 1, -4, 7, 3, 878, 726, 55,∏
2025-03-12 13:13:16.793,704, 554, 442, -5, -1, -2, -4, 7, 5, 883, 721, 51,∏
2025-03-12 13:13:16.848,711, 555, 456, -3, 0, 0, -5, 7, 4, 888, 722, 29,∏
2025-03-12 13:13:16.892,667, 572, 449, -3, 3, -5, -2, 4, 3, 893, 722, 63,∏
2025-03-12 13:13:16.955,670, 505, 470, 10, -7, -17, -2, 7, 4, 880, 693, 50,∏
2025-03-12 13:13:17.009,907, 368, 615, 23, -4, -20, -4, 7, 4, 945, 885, 42,∏
2025-03-12 13:13:17.060,308, 352, 24, -44, -16, 39, -4, 6, 5, 973, 947, 83,∏
2025-03-12 13:13:17.112,569, 470, 667, 27, -9, 11, -4, 7, 6, 969, 934, 70,∏
2025-03-12 13:13:17.167,659, 414, 119, 17, 33, -30, -5, 7, 6, 945, 879, 61,∏
2025-03-12 13:13:17.222,792, 796, 860, 25, 3, -5, -4, 4, 6, 923, 815, 28,∏
2025-03-12 13:13:17.274,754, 600, 165, -28, -10, 28, -4, 6, 8, 967, 928, 64,∏
2025-03-12 13:13:17.326,683, 970, 170, 3, 38, 46, -5, 7, 7, 970, 909, 35,∏
2025-03-12 13:13:17.377,850, 298, 454, 1, 7, -17, -3, 7, 4, 945, 853, 47,∏
2025-03-12 13:13:17.433,581, 588, 784, -4, -35, -18, -4, 6, 3, 937, 895, 49,∏
2025-03-12 13:13:17.493,718, 699, 643, -24, -18, -7, -4, 7, 6, 964, 935, 66,∏
2025-03-12 13:13:17.543,626, 1045, 336, -2, 36, 46, -5, 7, 4, 976, 938, 42,∏
2025-03-12 13:13:17.592,802, 489, 530, -6, 11, 9, -5, 8, 3, 967, 898, 63,∏
2025-03-12 13:13:17.652,739, 581, 436, -37, 54, -53, -5, 8, 2, 932, 872, 53,∏
2025-03-12 13:13:17.929,708, 551, 479, 2, -5, -35, -4, 5, 4, 735, 467, 43,√
2025-03-12 13:13:17.983,686, 567, 476, 1, -6, -35, -3, 6, 3, 734, 460, 32,√
2025-03-12 13:13:18.040,642, 612, 481, 13, -17, -28, -1, 5, 3, 756, 480, 54,√
2025-03-12 13:13:18.094,666, 658, 443, 11, -21, -32, -2, 4, 3, 739, 471, 49,√
2025-03-12 13:13:18.148,645, 657, 435, 12, -28, -44, -4, 2, 4, 721, 482, 40,√
2025-03-12 13:13:18.202,615, 783, 354, 28, -20, -22, -2, 1, 6, 720, 502, 30,√
2025-03-12 13:13:18.257,510, 848, 318, 55, -3, 55, -4, 0, 8, 761, 515, 55,√
2025-03-12 13:13:18.308,645, 524, 95, -14, 35, 100, -4, 3, 8, 759, 552, 23,√
2025-03-12 13:13:18.362,682, 450, 320, -13, 55, 37, -6, 4, 6, 756, 581, 42,√
2025-03-12 13:13:18.416,676, 556, 450, -14, 29, 11, -1, 2, 7, 760, 598, 33,√
2025-03-12 13:13:18.474,1009, 752, 738, 17, -1, -19, -2, 7, 4, 809, 671, 44,√
2025-03-12 13:13:18.524,514, 427, 442, -32, 25, 10, -4, 7, 1, 838, 747, 47,√
2025-03-12 13:13:18.574,679, 746, 434, 3, -1, -6, -4, 5, 4, 856, 773, 59,√
2025-03-12 13:13:18.626,895, 500, 499, 8, 6, -27, -4, 4, 6, 914, 857, 40,√
2025-03-12 13:13:18.682,967, 895, 380, -33, -18, 31, -3, 6, 2, 954, 930, 69,√
2025-03-12 13:13:18.741,377, 114, 715, 23, 9, 10, -5, 7, 3, 960, 926, 31,√
2025-03-12 13:13:18.792,840, 789, 174, -52, 18, 35, -4, 8, 2, 962, 920, 47,√
2025-03-12 13:13:18.848,858, 89, 487, -17, -50, -40, -3, 9, 3, 956, 942, 39,√
2025-03-12 13:13:18.905,971, 518, 289, -17, -32, -26, -4, 5, 5, 962, 949, 62,√
2025-03-12 13:13:18.958,703, 763, 203, -1, 0, 16, -4, 6, 6, 970, 953, 40,√
2025-03-12 13:13:19.007,852, 464, 71, 0, 61, -67, -5, 7, 4, 956, 936, 55,√
2025-03-12 13:13:19.062,471, 631, 728, -28, 33, -36, -3, 5, 3, 912, 874, 68,√
2025-03-12 13:13:19.612,680, 589, 445, -3, 1, 2, -3, 6, 2, 784, 664, 42,∛
2025-03-12 13:13:19.667,676, 599, 444, -4, 1, 2, -3, 5, 4, 787, 667, 50,∛
2025-03-12 13:13:19.720,667, 603, 453, -1, -1, 0, -3, 4, 3, 791, 679, 34,∛
2025-03-12 13:13:19.768,697, 606, 416, 0, 0, 1, -4, 7, 3, 800, 700, 43,∛
2025-03-12 13:13:19.817,687, 598, 450, 3, 2, 2, -4, 4, 2, 817, 719, 63,∛
2025-03-12 13:13:19.866,686, 611, 433, 1, 1, 4, -4, 6, 3, 823, 729, 46,∛
2025-03-12 13:13:19.912,699, 600, 420, 3, 2, 3, -3, 4, 4, 830, 738, 71,∛
2025-03-12 13:13:19.968,686, 611, 440, 3, 8, 5, -3, 6, 3, 831, 737, 47,∛
2025-03-12 13:13:20.018,716, 586, 425, -3, 1, 0, -3, 6, 4, 820, 736, 56,∛
2025-03-12 13:13:20.072,674, 614, 439, -9, 3, -3, -1, 4, 4, 818, 734, 45,∛
2025-03-12 13:13:20.122,601, 610, 460, -8, 1, 0, -2, 7, 3, 830, 727, 50,∛
2025-03-12 13:13:20.176,750, 636, 334, 10, 7, -16, -4, 7, 3, 877, 812, 55,∛
2025-03-12 13:13:20.225,919, 618, 685, -27, -21, 20, -2, 5, 4, 942, 892, 45,∛
2025-03-12 13:13:20.277,611, 660, 368, 9, 20, 30, -3, 6, 2, 957, 884, 70,∛
2025-03-12 13:13:20.332,815, 538, 348, -56, 15, 29, -4, 9, 1, 953, 917, 46,∛
2025-03-12 13:13:20.391,99, 560, 1131, 63, -60, -68, -5, 9, 2, 943, 941, 49,∛
2025-03-12 13:13:20.442,700, 544, 349, 11, -34, -7, -4, 7, 6, 967, 951, 30,∛
2025-03-12 13:13:20.493,743, 537, 289, 22, 25, 4, -4, 6, 5, 956, 937, 49,∛
2025-03-12 13:13:20.543,345, 667, 640, 29, 26, -47, -3, 4, 4, 934, 915, 301,∛
2025-03-12 13:13:20.607,881, 367, 222, 20, -59, -47, -3, 3, 5, 951, 918, 343,∛
2025-03-12 13:13:20.657,742, 754, 566, -19, 10, 8, -2, 5, 3, 964, 933, 270,∛
2025-03-12 13:13:20.713,550, 698, 300, 10, 6, 9, -4, 4, 7, 963, 936, 329,∛
2025-03-12 13:13:20.765,786, 584, 340, -32, 18, 7, -1, 7, 4, 969, 936, 180,∛
2025-03-12 13:13:20.817,650, 458, 546, 2, 4, 4, -4, 5, 5, 967, 929, 51,∛
2025-03-12 13:13:20.871,964, 539, 207, 1, 38, -13, -5, 6, 4, 939, 896, 198,∛
2025-03-12 13:13:20.926,505, 570, 760, -36, 32, -2, -4, 6, 1, 925, 888, 85,∛
2025-03-12 13:13:20.973,588, 628, 451, 9, -20, 17, -1, 4, 1, 924, 865, 73,∛
2025-03-12 13:13:21.445,687, 595, 461, 2, 1, 4, -4, 6, 4, 802, 730, 61,∜
2025-03-12 13:13:21.497,687, 587, 445, 2, 2, 3, -1, 6, 3, 800, 729, 58,∜
2025-03-12 13:13:21.546,699, 604, 427, -1, 3, 0, -2, 6, 2, 796, 728, 51,∜
2025-03-12 13:13:21.595,663, 586, 475, 3, 3, 1, 0, 6, 0, 809, 722, 41,∜
2025-03-12 13:13:21.642,668, 593, 432, -1, 1, 1, 0, 8, 1, 813, 724, 27,∜
2025-03-12 13:13:21.693,686, 596, 470, 4, 1, 5, 0, 3, 5, 823, 731, 38,∜
2025-03-12 13:13:21.743,678, 588, 424, 2, -2, -2, -2, 4, 7, 834, 742, 40,∜
2025-03-12 13:13:21.798,716, 588, 367, 7, 2, -11, -3, 4, 4, 898, 815, 54,∜
2025-03-12 13:13:21.852,930, 807, 466, -16, -16, 15, -4, 5, 3, 949, 916, 55,∜
2025-03-12 13:13:21.906,541, 420, 540, -20, 20, 26, -4, 8, 3, 965, 925, 62,∜
2025-03-12 13:13:21.957,733, 622, 336, -55, 21, 30, -3, 7, 4, 965, 919, 62,∜
2025-03-12 13:13:22.014,1237, 172, 479, 81, -86, -83, -3, 6, 2, 952, 941, 59,∜
2025-03-12 13:13:22.074,768, 317, 694, 20, -59, -21, -3, 5, 6, 967, 951, 30,∜
2025-03-12 13:13:22.124,610, 615, 219, 21, 14, 20, -5, 7, 7, 967, 937, 57,∜
2025-03-12 13:13:22.173,479, 770, 478, 22, 50, -60, -3, 2, 6, 952, 923, 250,∜
2025-03-12 13:13:22.233,562, 760, 635, 16, -33, 5, -4, 3, 5, 944, 903, 557,∜
2025-03-12 13:13:22.292,715, 1272, 374, -14, -21, -12, -4, 4, 8, 963, 934, 582,∜
2025-03-12 13:13:22.343,624, 674, 429, 9, 2, -1, -2, 4, 7, 970, 929, 510,∜
2025-03-12 13:13:22.398,638, 848, 126, 5, 11, 1, -4, 4, 7, 973, 914, 194,∜
2025-03-12 13:13:22.451,901, 609, 276, -31, 0, 32, -3, 4, 5, 976, 947, 144,∜
2025-03-12 13:13:22.506,721, 284, 380, 5, 2, -29, -3, 3, 5, 966, 935, 466,∜
2025-03-12 13:13:22.556,546, 762, 693, 15, -27, 26, -3, 2, 4, 964, 927, 646,∜
2025-03-12 13:13:22.614,763, 1047, -191, -12, 38, 35, -3, 4, 6, 976, 935, 295,∜
2025-03-12 13:13:22.672,751, 626, 251, -30, 45, -60, -4, 5, 4, 960, 905, 440,∜
2025-03-12 13:13:22.922,663, 604, 423, -3, 2, 0, -3, 4, 5, 915, 794, 151,∫
2025-03-12 13:13:22.973,671, 604, 437, -4, 1, 0, -1, 4, 4, 910, 777, 156,∫
2025-03-12 13:13:23.023,666, 624, 413, 3, 1, 2, -2, 5, 1, 906, 753, 152,∫
2025-03-12 13:13:23.078,674, 638, 397, 0, 1, 3, -2, 4, 2, 892, 743, 59,∫
2025-03-12 13:13:23.124,678, 617, 416, 2, 2, 3, -3, 5, 3, 886, 734, 93,∫
2025-03-12 13:13:23.174,669, 613, 416, 1, 1, 4, -3, 4, 3, 886, 730, 136,∫
2025-03-12 13:13:23.223,688, 627, 397, 0, 1, 2, -4, 7, 5, 885, 717, 132,∫
2025-03-12 13:13:23.273,682, 595, 454, 0, 0, 4, -3, 5, 4, 886, 713, 41,∫
2025-03-12 13:13:23.323,692, 612, 387, 1, 1, 3, -4, 4, 4, 893, 725, 92,∫
2025-03-12 13:13:23.379,730, 608, 422, -1, -1, 4, -1, 5, 4, 903, 754, 100,∫
2025-03-12 13:13:23.434,689, 635, 421, -3, 4, 5, -2, 5, 4, 910, 766, 51,∫
2025-03-12 13:13:23.488,693, 576, 353, -5, -4, 6, -3, 4, 4, 923, 775, 130,∫
2025-03-12 13:13:23.540,711, 633, 463, -8, -8, 11, -6, 4, 4, 929, 779, 80,∫
2025-03-12 13:13:23.593,750, 526, 350, -8, -27, 16, -3, 5, 4, 945, 839, 54,∫
2025-03-12 13:13:23.642,630, 586, 447, -37, -3, -6, -4, 7, 5, 954, 898, 28,∫
2025-03-12 13:13:23.695,802, 252, 702, 21, -8, -28, -4, 7, 4, 962, 928, 47,∫
2025-03-12 13:13:23.754,751, 614, 416, 41, 27, 10, -3, 7, 4, 972, 930, 23,∫
2025-03-12 13:13:23.807,640, 1125, 163, -19, 51, 25, -5, 6, 3, 975, 935, 64,∫
2025-03-12 13:13:23.857,712, 550, 392, 9, 28, 8, -1, 6, 4, 956, 863, 27,∫
2025-03-12 13:13:23.915,806, 555, 292, -38, 44, -50, -1, 7, 1, 902, 828, 74,∫
2025-03-12 13:13:24.194,674, 594, 456, 4, -6, 2, -4, 7, 3, 898, 847, 43,∮
2025-03-12 13:13:24.245,682, 600, 453, 5, -6, 4, -3, 6, 2, 899, 844, 40,∮
2025-03-12 13:13:24.294,692, 579, 457, 3, -8, 10, -2, 4, 3, 916, 857, 52,∮
2025-03-12 13:13:24.355,706, 565, 384, -11, -13, -1, -3, 6, 3, 924, 866, 27,∮
2025-03-12 13:13:24.407,827, 497, 557, -16, -2, -12, -3, 7, 4, 940, 900, 54,∮
2025-03-12 13:13:24.462,283, 1279, 86, 76, 44, 34, -1, 5, 5, 965, 909, 60,∮
2025-03-12 13:13:24.515,842, 881, 210, -16, 42, 42, -2, 5, 3, 962, 915, 52,∮
2025-03-12 13:13:24.572,664, 377, 525, 75, -57, -64, -4, 6, 3, 903, 862, 84,∮
2025-03-12 13:13:24.622,890, 493, 703, -44, -32, -8, -3, 6, 4, 947, 918, 60,∮
2025-03-12 13:13:24.678,592, 1225, 169, 2, 13, 38, -4, 6, 4, 972, 941, 64,∮
2025-03-12 13:13:24.733,637, 510, 166, -8, 39, 23, -6, 9, 3, 967, 927, 48,∮
2025-03-12 13:13:24.788,1179, 254, 511, -14, 13, -41, -5, 9, 2, 927, 873, 51,∮
2025-03-12 13:13:24.842,411, 503, 729, 8, -76, -17, -4, 7, 2, 938, 922, 39,∮
2025-03-12 13:13:24.895,523, 477, 461, 17, -5, -21, -3, 5, 5, 957, 931, 62,∮
2025-03-12 13:13:24.945,938, 231, 275, -6, 42, 57, -5, 7, 5, 974, 940, 29,∮
2025-03-12 13:13:25.005,484, 481, 491, 3, 36, 31, -4, 7, 1, 973, 940, 52,∮
2025-03-12 13:13:25.057,763, 598, 415, 12, 20, 14, -3, 9, 2, 950, 879, 50,∮
2025-03-12 13:13:25.109,709, 499, 321, -48, 58, -37, -3, 9, 0, 896, 817, 58,∮
2025-03-12 13:13:25.425,692, 524, 511, 8, -3, -6, -3, 6, 0, 704, 536, 41,∂
2025-03-12 13:13:25.477,687, 541, 513, 5, -3, -7, 0, 8, -2, 701, 537, 46,∂
2025-03-12 13:13:25.532,666, 563, 507, 11, -6, -11, -2, 5, 1, 609, 497, 40,∂
2025-03-12 13:13:25.582,661, 598, 504, 2, -2, -6, -5, 6, 0, 517, 480, 25,∂
2025-03-12 13:13:25.638,673, 583, 484, 3, -6, -6, -1, 5, 1, 611, 523, 43,∂
2025-03-12 13:13:25.689,632, 632, 491, 1, -4, -4, -3, 4, 1, 728, 574, 48,∂
2025-03-12 13:13:25.739,686, 597, 479, 5, -10, 3, -2, 4, 3, 801, 607, 34,∂
2025-03-12 13:13:25.792,679, 596, 461, 2, -4, 1, -2, 5, 3, 834, 647, 54,∂
2025-03-12 13:13:25.842,670, 600, 468, 1, -8, 1, -3, 6, 2, 855, 717, 62,∂
2025-03-12 13:13:25.896,683, 598, 471, 0, -10, 3, -2, 4, 3, 883, 769, 66,∂
2025-03-12 13:13:25.946,692, 581, 447, 11, -12, 5, -1, 4, 5, 898, 791, 39,∂
2025-03-12 13:13:26.002,712, 613, 417, 10, -8, 5, -4, 4, 4, 907, 795, 64,∂
2025-03-12 13:13:26.042,657, 587, 400, 9, -9, 3, -4, 5, 3, 916, 797, 61,∂
2025-03-12 13:13:26.106,678, 585, 392, -6, 12, -10, -3, 5, 3, 921, 800, 36,∂
2025-03-12 13:13:26.155,598, 623, 473, -1, -11, 2, -2, 4, 4, 926, 815, 60,∂
2025-03-12 13:13:26.207,755, 758, 429, 6, -2, -11, -2, 5, 5, 945, 898, 39,∂
2025-03-12 13:13:26.263,804, 616, 398, 17, -10, 12, -4, 5, 5, 962, 935, 64,∂
2025-03-12 13:13:26.317,630, 325, 541, -3, 20, 31, -4, 4, 5, 969, 933, 61,∂
2025-03-12 13:13:26.371,878, 565, 179, -21, 29, 13, -5, 7, 2, 967, 928, 46,∂
2025-03-12 13:13:26.426,808, 392, 717, -2, -10, -14, -4, 6, 4, 961, 932, 47,∂
2025-03-12 13:13:26.472,462, 224, 593, -5, -27, 9, -3, 6, 3, 976, 954, 60,∂
2025-03-12 13:13:26.527,696, 576, 343, 5, 12, 8, -4, 8, 4, 970, 941, 54,∂
2025-03-12 13:13:26.588,699, 585, 406, -31, 59, -43, -3, 5, 2, 952, 893, 40,∂
2025-03-12 13:13:26.866,675, 633, 427, 7, -5, 0, -4, 4, 3, 831, 658, 35,∇
2025-03-12 13:13:26.923,660, 638, 439, 5, -6, 1, -4, 8, 2, 830, 667, 42,∇
2025-03-12 13:13:26.974,669, 597, 433, 4, -4, -1, -2, 4, 3, 821, 665, 53,∇
2025-03-12 13:13:27.022,672, 615, 433, 5, -4, -1, -3, 4, 2, 806, 654, 63,∇
2025-03-12 13:13:27.073,667, 608, 432, -2, -2, 1, -2, 3, 3, 792, 642, 39,∇
2025-03-12 13:13:27.123,676, 615, 421, 0, -4, 3, -4, 6, 3, 806, 684, 48,∇
2025-03-12 13:13:27.172,685, 625, 406, -2, -1, -1, -3, 4, 3, 802, 684, 53,∇
2025-03-12 13:13:27.226,699, 610, 411, -9, 3, -2, -2, 1, 3, 795, 667, 39,∇
2025-03-12 13:13:27.282,685, 625, 456, -15, -2, -3, -4, 5, 3, 822, 663, 59,∇
2025-03-12 13:13:27.337,671, 599, 450, -9, -3, 0, -3, 6, 4, 859, 715, 64,∇
2025-03-12 13:13:27.388,705, 591, 452, 0, -5, 6, -2, 3, 3, 873, 753, 32,∇
2025-03-12 13:13:27.438,661, 601, 417, 2, -8, 7, -3, 5, 4, 899, 797, 50,∇
2025-03-12 13:13:27.489,723, 549, 403, 1, 7, -11, -3, 5, 5, 901, 810, 66,∇
2025-03-12 13:13:27.539,582, 622, 565, 6, 2, 0, -4, 5, 2, 907, 786, 44,∇
2025-03-12 13:13:27.592,710, 567, 396, 14, -17, -5, -4, 5, 4, 902, 805, 47,∇
2025-03-12 13:13:27.642,811, 708, 396, 30, -11, -15, -4, 4, 4, 949, 891, 62,∇
2025-03-12 13:13:27.703,523, 661, 200, -21, -16, 37, -6, 7, 3, 968, 942, 43,∇
2025-03-12 13:13:27.755,640, 501, 695, 59, -12, 1, -4, 4, 6, 974, 936, 51,∇
2025-03-12 13:13:27.812,999, 746, -223, -22, 43, 21, -4, 2, 9, 973, 926, 38,∇
2025-03-12 13:13:27.865,829, -55, 710, -9, 18, -64, -3, 5, 3, 945, 876, 54,∇
2025-03-12 13:13:27.924,741, 798, 808, 22, -68, 11, -4, 5, 4, 911, 871, 248,∇
2025-03-12 13:13:27.972,686, 696, 151, -17, -15, 12, -4, 5, 5, 969, 930, 44,∇
2025-03-12 13:13:28.029,629, 414, 585, -13, 32, 47, -3, 8, 3, 968, 908, 51,∇
2025-03-12 13:13:28.082,593, 587, 418, 15, 55, -51, -1, 5, 3, 932, 814, 39,∇
2025-03-12 13:13:28.372,669, 602, 436, 3, -14, 4, -4, 5, 4, 893, 825, 60,∆
2025-03-12 13:13:28.424,660, 600, 455, 6, -17, 6, 1, 2, 6, 898, 828, 53,∆
2025-03-12 13:13:28.474,728, 585, 354, 1, -13, 5, -3, 7, 5, 925, 866, 72,∆
2025-03-12 13:13:28.533,687, 544, 490, 4, -10, -8, -3, 6, 6, 955, 903, 49,∆
2025-03-12 13:13:28.582,778, 971, 189, 57, 46, 12, -3, 5, 4, 964, 881, 48,∆
2025-03-12 13:13:28.636,916, 620, 119, -7, 10, 2, -4, 5, 6, 967, 885, 48,∆
2025-03-12 13:13:28.692,779, 326, 208, -33, -14, 36, -4, 7, 5, 977, 951, 42,∆
2025-03-12 13:13:28.743,674, 644, 345, 18, 10, 9, -4, 7, 3, 963, 938, 64,∆
2025-03-12 13:13:28.792,441, 612, 377, 15, 20, -77, -2, 6, 6, 922, 876, 262,∆
2025-03-12 13:13:28.860,1029, -466, 223, -14, -19, -24, -3, 5, 5, 959, 922, 250,∆
2025-03-12 13:13:28.906,1069, 688, 371, 4, 41, 62, -6, 6, 5, 974, 937, 63,∆
2025-03-12 13:13:28.964,815, 351, 140, -23, 51, -38, -3, 6, 2, 961, 881, 52,∆
2025-03-12 13:13:29.015,539, 578, 816, 1, 14, -16, -4, 5, 1, 909, 770, 99,∆
2025-03-12 13:13:29.293,686, 580, 460, -1, -2, -4, -4, 6, 1, 818, 608, 36,π
2025-03-12 13:13:29.343,694, 595, 466, 0, -2, -3, -4, 7, 3, 819, 614, 46,π
2025-03-12 13:13:29.403,699, 583, 437, -2, -2, -5, -3, 5, 3, 798, 574, 42,π
2025-03-12 13:13:29.455,689, 591, 451, 3, 2, -7, -4, 5, 3, 658, 430, 40,π
2025-03-12 13:13:29.504,672, 613, 453, 0, 0, -2, -2, 5, 4, 653, 236, 59,π
2025-03-12 13:13:29.555,682, 601, 427, 2, -1, -3, -4, 4, 4, 687, 142, 54,π
2025-03-12 13:13:29.607,675, 597, 473, 1, -1, 2, -3, 5, 2, 780, 281, 55,π
2025-03-12 13:13:29.656,680, 574, 396, 14, -7, -6, -4, 9, 3, 822, 373, 39,π
2025-03-12 13:13:29.713,750, 650, 426, 29, -11, 4, -2, 3, 3, 869, 447, 43,π
2025-03-12 13:13:29.766,601, 612, 413, 6, 1, 5, -4, 5, 3, 902, 572, 147,π
2025-03-12 13:13:29.816,706, 618, 376, 2, -4, 2, -4, 4, 4, 904, 598, 156,π
2025-03-12 13:13:29.869,688, 636, 394, 0, 11, 1, -3, 3, 4, 912, 548, 53,π
2025-03-12 13:13:29.914,674, 599, 473, 0, 0, 9, -4, 5, 4, 902, 457, 61,π
2025-03-12 13:13:29.971,712, 638, 297, -12, 0, -6, -3, 6, 5, 899, 607, 49,π
2025-03-12 13:13:30.023,601, 609, 483, -4, 2, -11, -1, 4, 5, 895, 666, 31,π
2025-03-12 13:13:30.074,771, 563, 318, -6, -7, -3, -2, 4, 4, 913, 758, 63,π
2025-03-12 13:13:30.132,730, 651, 338, 8, -11, -12, -5, 5, 5, 955, 890, 35,π
2025-03-12 13:13:30.183,408, 541, -18, -40, -39, 63, -4, 5, 5, 974, 948, 48,π
2025-03-12 13:13:30.238,634, 400, 460, 29, -7, 10, -4, 8, 4, 976, 943, 35,π
2025-03-12 13:13:30.290,590, 531, 114, 4, 45, -14, -3, 5, 7, 955, 910, 55,π
2025-03-12 13:13:30.343,874, 666, 536, 52, 16, -35, -3, 6, 5, 924, 832, 195,π
2025-03-12 13:13:30.402,613, 538, 575, -39, -5, 6, -3, 4, 4, 959, 916, 143,π
2025-03-12 13:13:30.455,577, 1027, 36, -36, 32, 32, -4, 4, 5, 974, 923, 45,π
2025-03-12 13:13:30.507,906, 624, 249, -13, 25, 13, -3, 6, 5, 954, 873, 65,π
2025-03-12 13:13:30.566,703, 638, 346, -31, -21, -24, -2, 5, 4, 950, 913, 38,π
2025-03-12 13:13:30.619,666, 571, 295, -7, -9, -14, -4, 7, 5, 967, 941, 48,π
2025-03-12 13:13:30.664,780, 670, 310, 6, 7, 8, -2, 5, 6, 975, 940, 43,π
2025-03-12 13:13:30.721,588, 664, 269, -21, 14, 28, -3, 6, 3, 977, 946, 62,π
2025-03-12 13:13:30.772,724, 365, 573, 11, -2, 8, -4, 7, 4, 970, 941, 59,π
2025-03-12 13:13:30.823,614, 528, 546, -28, 63, -33, -3, 7, 3, 951, 921, 49,π
2025-03-12 13:13:30.885,566, 575, 661, -3, -4, -9, -3, 6, 1, 925, 795, 45,π
2025-03-12 13:13:30.938,684, 582, 487, 16, -13, -5, -4, 7, -1, 886, 706, 62,π
2025-03-12 13:13:30.988,717, 581, 406, 1, 1, -9, -5, 7, 3, 825, 577, 48,π
2025-03-12 13:13:31.038,679, 604, 510, -10, 3, -3, -5, 5, 1, 806, 479, 38,π
2025-03-12 13:13:31.092,683, 593, 472, -4, -1, 1, -3, 4, 2, 826, 472, 56,π
2025-03-12 13:13:31.374,679, 572, 471, -2, -1, -8, -3, 5, 2, 756, 207, 28,θ
2025-03-12 13:13:31.426,680, 595, 472, -1, -1, -7, -2, 7, -1, 758, 211, 42,θ
2025-03-12 13:13:31.483,674, 589, 476, 10, -6, -6, -4, 5, 1, 737, 236, 29,θ
2025-03-12 13:13:31.536,660, 615, 449, 17, -8, -4, -2, 5, 3, 726, 385, 56,θ
2025-03-12 13:13:31.590,645, 609, 437, 28, -11, -2, -3, 4, 2, 660, 391, 49,θ
2025-03-12 13:13:31.642,693, 623, 415, 14, -2, 2, -5, 6, 1, 696, 476, 45,θ
2025-03-12 13:13:31.692,684, 619, 399, 6, -5, 2, -1, 4, 4, 777, 533, 102,θ
2025-03-12 13:13:31.742,695, 624, 366, 0, -1, 3, -3, 6, 4, 809, 606, 179,θ
2025-03-12 13:13:31.793,681, 627, 391, -4, 4, -1, -3, 4, 4, 828, 658, 201,θ
2025-03-12 13:13:31.852,694, 631, 432, -1, 1, 2, -4, 5, 4, 833, 695, 215,θ
2025-03-12 13:13:31.894,705, 621, 361, -4, 0, 5, -3, 5, 4, 859, 718, 199,θ
2025-03-12 13:13:31.955,696, 631, 408, -4, -3, 5, -3, 5, 3, 873, 761, 203,θ
2025-03-12 13:13:32.005,630, 609, 348, -11, -16, 5, -4, 5, 4, 902, 790, 172,θ
2025-03-12 13:13:32.065,594, 614, 517, -40, -3, -15, -4, 6, 4, 931, 878, 59,θ
2025-03-12 13:13:32.115,822, 810, 266, 56, 30, 7, -3, 4, 5, 962, 872, 43,θ
2025-03-12 13:13:32.171,578, 611, 114, -68, 52, 75, -4, 6, 4, 966, 896, 37,θ
2025-03-12 13:13:32.222,376, 680, 614, 7, 3, -77, -3, 7, 2, 950, 910, 50,θ
2025-03-12 13:13:32.276,825, 633, 283, -1, -76, 18, -4, 6, 4, 959, 928, 245,θ
2025-03-12 13:13:32.327,603, 500, 479, -40, 5, 37, -4, 6, 5, 974, 944, 65,θ
2025-03-12 13:13:32.383,752, 492, 551, 2, 26, 34, -2, 7, 3, 976, 937, 34,θ
2025-03-12 13:13:32.437,579, 329, 514, -1, 21, -16, -2, 6, 3, 950, 864, 52,θ
2025-03-12 13:13:32.488,429, 701, 1230, 47, -56, 17, -2, 8, 2, 949, 888, 50,θ
2025-03-12 13:13:32.543,763, 880, 141, -11, -21, 28, -4, 5, 4, 974, 948, 66,θ
2025-03-12 13:13:32.602,890, 308, 291, 27, 21, -27, -6, 6, 3, 961, 925, 35,θ
2025-03-12 13:13:32.655,644, 667, 523, -23, 59, -35, -3, 4, 2, 885, 780, 63,θ
2025-03-12 13:13:32.707,548, 551, 704, 12, -19, 1, -1, 2, 1, 831, 667, 39,θ
2025-03-12 13:13:32.764,730, 576, 387, 11, -21, -2, -2, 5, 0, 721, 532, 57,θ
2025-03-12 13:13:32.819,670, 611, 420, -21, 10, -10, -4, 5, 2, 724, 488, 50,θ
2025-03-12 13:13:32.871,628, 582, 570, -14, -2, 2, -2, 7, 2, 618, 134, 47,θ
2025-03-12 13:13:32.924,644, 547, 526, 5, -11, 4, -3, 4, 1, 602, 234, 48,θ
2025-03-12 13:13:32.973,701, 571, 443, 7, -19, 5, -2, 5, 2, 636, 411, 58,θ
2025-03-12 13:13:33.023,709, 616, 409, -6, -2, -3, -3, 6, 2, 668, 538, 46,θ
2025-03-12 13:13:33.076,655, 601, 489, -3, -1, -5, -4, 5, 2, 668, 548, 51,θ
2025-03-12 13:13:33.134,671, 559, 481, -1, -4, 2, -3, 5, 3, 647, 511, 39,θ
2025-03-12 13:13:33.182,687, 603, 445, -1, 1, 2, -4, 5, 2, 625, 466, 33,θ
2025-03-12 13:13:33.236,676, 555, 489, 3, -1, 5, -3, 7, 4, 626, 453, 21,θ
2025-03-12 13:13:33.285,703, 572, 449, -2, 3, 0, -4, 7, 2, 609, 434, 44,θ
2025-03-12 13:13:33.338,697, 577, 469, -1, 5, -6, -3, 6, 2, 575, 439, 39,θ
2025-03-12 13:13:33.387,675, 575, 487, 6, 2, -7, -2, 7, 2, 544, 448, 44,θ
2025-03-12 13:13:33.437,660, 612, 464, 8, -2, -3, -2, 8, -1, 512, 495, 27,θ
2025-03-12 13:13:33.492,674, 618, 407, 4, 2, -2, -4, 5, 3, 500, 545, 56,θ
2025-03-12 13:13:33.543,683, 554, 492, -8, 12, -4, -4, 7, 1, 528, 560, 65,θ
2025-03-12 13:13:33.595,633, 608, 524, 5, -7, 2, 0, 6, -1, 520, 538, 29,θ
2025-03-12 13:13:34.592,663, 607, 459, -3, 2, -8, -4, 4, 1, 664, 600, 43,λ
2025-03-12 13:13:34.642,660, 613, 454, -3, 2, -7, -5, 5, 3, 665, 601, 44,λ
2025-03-12 13:13:34.693,661, 602, 462, 3, -2, -11, -2, 4, 3, 647, 593, 47,λ
2025-03-12 13:13:34.752,681, 607, 463, 14, -15, -23, -3, 4, 4, 675, 593, 43,λ
2025-03-12 13:13:34.806,628, 623, 423, 16, -27, -36, -2, 1, 4, 690, 599, 52,λ
2025-03-12 13:13:34.863,654, 683, 387, 22, -41, -59, -4, 0, 4, 712, 607, 53,λ
2025-03-12 13:13:34.919,593, 763, 331, 17, -44, -60, -4, -2, 8, 725, 611, 43,λ
2025-03-12 13:13:34.976,550, 849, 234, 10, -31, -45, -2, -3, 10, 741, 615, 49,λ
2025-03-12 13:13:35.022,490, 964, 171, 26, 0, 7, -2, -5, 12, 774, 621, 43,λ
2025-03-12 13:13:35.083,516, 845, 211, 23, 18, 72, -4, -2, 9, 794, 629, 44,λ
2025-03-12 13:13:35.137,610, 647, 230, 2, 40, 70, -4, -3, 10, 797, 625, 28,λ
2025-03-12 13:13:35.195,549, 593, 189, -70, 111, 76, -3, 0, 6, 817, 633, 45,λ
2025-03-12 13:13:35.243,560, 598, 561, -32, 48, 30, -3, 3, 5, 837, 671, 55,λ
2025-03-12 13:13:35.292,669, 684, 125, -32, -2, 23, -2, 4, 1, 882, 740, 196,λ
2025-03-12 13:13:35.354,850, 711, 545, 25, -26, 8, -4, 6, 1, 904, 796, 259,λ
2025-03-12 13:13:35.405,619, 504, 480, 1, 6, 7, -2, 6, 3, 912, 823, 309,λ
2025-03-12 13:13:35.455,647, 581, 408, -1, -5, -3, -3, 5, 2, 917, 840, 372,λ
2025-03-12 13:13:35.518,816, 677, 358, -18, -7, -12, -3, 4, 5, 935, 894, 262,λ
2025-03-12 13:13:35.571,738, 611, 400, -24, -22, 18, -4, 5, 4, 961, 929, 38,λ
2025-03-12 13:13:35.622,559, 566, 364, 31, 23, 37, -4, 6, 3, 966, 927, 46,λ
2025-03-12 13:13:35.677,724, 511, 295, -15, 30, 10, -3, 7, 3, 953, 891, 57,λ
2025-03-12 13:13:35.730,486, 719, 743, 14, -37, 5, -3, 5, 4, 951, 892, 135,λ
2025-03-12 13:13:35.788,572, 783, 111, 3, -7, 4, -3, 8, 3, 970, 923, 61,λ
2025-03-12 13:13:35.839,762, 625, 140, -13, 36, 28, -4, 6, 2, 962, 869, 72,λ
2025-03-12 13:13:35.894,811, 579, 270, -29, 62, -57, -3, 7, 2, 918, 829, 50,λ
2025-03-12 13:13:36.173,625, 638, 417, 33, -24, 11, -4, 5, 0, 766, 611, 61,μ
2025-03-12 13:13:36.223,640, 617, 355, 30, -25, 13, -1, 4, 6, 761, 607, 60,μ
2025-03-12 13:13:36.272,688, 542, 235, 7, -5, 4, -3, 4, 3, 739, 604, 60,μ
2025-03-12 13:13:36.328,813, 656, 477, -2, 4, -6, -4, 4, 5, 734, 599, 46,μ
2025-03-12 13:13:36.382,576, 606, 414, -29, 6, -4, -2, 3, 5, 744, 614, 53,μ
2025-03-12 13:13:36.435,753, 681, 418, 10, -13, 4, -4, 4, 2, 739, 615, 54,μ
2025-03-12 13:13:36.487,694, 610, 332, 0, -1, -3, -3, 2, 5, 694, 595, 33,μ
2025-03-12 13:13:36.538,666, 610, 427, -8, 2, -8, -4, 5, 5, 595, 541, 42,μ
2025-03-12 13:13:36.591,700, 645, 450, 15, -10, 9, -1, 4, 5, 768, 594, 59,μ
2025-03-12 13:13:36.642,751, 618, 336, -1, -6, 14, -4, 4, 4, 865, 677, 29,μ
2025-03-12 13:13:36.692,653, 664, 344, -31, 13, 8, -5, 5, 4, 911, 770, 59,μ
2025-03-12 13:13:36.751,679, 580, 516, -3, -3, 15, -4, 5, 6, 928, 829, 47,μ
2025-03-12 13:13:36.803,744, 531, 353, -2, 7, 2, -2, 7, 3, 929, 848, 171,μ
2025-03-12 13:13:36.856,717, 622, 399, -4, 12, 4, -3, 5, 2, 932, 853, 186,μ
2025-03-12 13:13:36.904,661, 593, 480, 1, 14, 8, -3, 7, 3, 931, 843, 78,μ
2025-03-12 13:13:36.954,717, 582, 409, 3, 11, 9, -1, 7, 3, 930, 825, 46,μ
2025-03-12 13:13:37.012,897, 467, 495, -2, 12, -2, -3, 5, 3, 940, 837, 58,μ
2025-03-12 13:13:37.061,708, 652, 313, -26, 5, 1, -2, 7, 2, 951, 873, 52,μ
2025-03-12 13:13:37.119,683, 310, 700, -14, -38, -15, -3, 10, 0, 958, 940, 23,μ
2025-03-12 13:13:37.173,382, 625, 692, -21, -37, -28, -2, 7, 4, 964, 950, 31,μ
2025-03-12 13:13:37.223,712, 451, 474, 23, -26, -22, -4, 7, 5, 968, 946, 70,μ
2025-03-12 13:13:37.283,770, 371, 587, 26, 29, 36, -6, 7, 4, 973, 944, 44,μ
2025-03-12 13:13:37.336,712, 756, 292, -16, 5, 10, -4, 8, 5, 973, 946, 65,μ
2025-03-12 13:13:37.389,697, 451, 516, -2, -24, -2, -3, 7, 2, 975, 952, 26,μ
2025-03-12 13:13:37.442,715, 509, 538, 11, -9, -8, -3, 8, 5, 973, 949, 47,μ
2025-03-12 13:13:37.492,631, 630, 361, -17, 17, 19, -3, 7, 4, 975, 946, 43,μ
2025-03-12 13:13:37.553,765, 425, 635, -7, -13, -6, -3, 6, 4, 972, 945, 77,μ
2025-03-12 13:13:37.603,746, 546, 362, -37, 62, -28, -7, 10, 3, 961, 932, 48,μ
2025-03-12 13:13:37.929,668, 594, 441, 27, -16, -31, -4, 4, 1, 801, 198, 37,ω
2025-03-12 13:13:37.984,686, 607, 451, 30, -18, -29, -1, 5, 0, 802, 188, 38,ω
2025-03-12 13:13:38.036,589, 700, 399, 7, -6, 2, -3, 5, 2, 844, 380, 24,ω
2025-03-12 13:13:38.090,653, 691, 368, -3, -1, 23, -4, 3, 4, 880, 605, 59,ω
2025-03-12 13:13:38.137,712, 576, 427, -3, 3, 21, -4, 6, 3, 897, 696, 53,ω
2025-03-12 13:13:38.192,711, 598, 410, -4, 3, 11, -4, 6, 5, 908, 730, 38,ω
2025-03-12 13:13:38.243,721, 572, 395, -3, -4, 1, -5, 5, 6, 916, 754, 54,ω
2025-03-12 13:13:38.292,709, 605, 408, -7, -4, -2, -4, 6, 4, 919, 762, 39,ω
2025-03-12 13:13:38.342,698, 603, 439, -9, -6, 0, -5, 5, 5, 924, 775, 41,ω
2025-03-12 13:13:38.401,678, 604, 390, -2, -1, 0, -3, 6, 4, 925, 779, 57,ω
2025-03-12 13:13:38.453,730, 613, 411, -5, -1, 4, -4, 6, 4, 923, 779, 46,ω
2025-03-12 13:13:38.503,701, 585, 435, -8, -4, 1, -3, 5, 4, 927, 788, 37,ω
2025-03-12 13:13:38.553,718, 565, 380, -9, -3, -10, -4, 5, 7, 930, 814, 62,ω
2025-03-12 13:13:38.608,687, 628, 396, -15, -6, 0, -2, 5, 4, 940, 838, 65,ω
2025-03-12 13:13:38.663,887, 489, 562, -8, -1, -8, -3, 4, 5, 959, 885, 40,ω
2025-03-12 13:13:38.719,765, 1247, -65, -32, 25, 51, -4, 6, 4, 973, 925, 59,ω
2025-03-12 13:13:38.772,573, 449, 569, -15, -8, 9, -4, 8, 4, 972, 940, 46,ω
2025-03-12 13:13:38.827,752, 289, 724, 12, -18, -17, -5, 8, 4, 965, 940, 66,ω
2025-03-12 13:13:38.873,911, 834, 272, 20, 18, 37, -4, 6, 4, 971, 926, 55,ω
2025-03-12 13:13:38.934,730, 462, 582, -40, 1, 14, -4, 7, 5, 968, 935, 57,ω
2025-03-12 13:13:38.985,920, 507, 101, 11, 24, -27, -3, 7, 8, 939, 889, 33,ω
2025-03-12 13:13:39.293,699, 635, 391, 5, -6, -7, -4, 4, 2, 848, 654, 32,!
2025-03-12 13:13:39.351,704, 633, 389, 5, -7, -6, -4, 4, 2, 853, 649, 49,!
2025-03-12 13:13:39.403,709, 598, 379, 5, -3, -14, -4, 4, 4, 855, 645, 59,!
2025-03-12 13:13:39.454,705, 596, 445, 13, -13, -29, -4, 5, 3, 855, 647, 27,!
2025-03-12 13:13:39.513,640, 705, 306, 18, -18, -18, -2, 4, 6, 873, 621, 101,!
2025-03-12 13:13:39.568,585, 707, 385, -2, 12, 13, -2, 3, 7, 900, 660, 102,!
2025-03-12 13:13:39.621,663, 677, 362, -3, 8, 31, -4, 3, 6, 920, 718, 105,!
2025-03-12 13:13:39.674,726, 607, 355, -11, 9, 14, -6, 6, 3, 925, 800, 183,!
2025-03-12 13:13:39.722,683, 614, 419, -8, 3, 7, -4, 6, 7, 930, 825, 175,!
2025-03-12 13:13:39.782,686, 651, 327, -3, -4, 0, -3, 5, 5, 933, 837, 188,!
2025-03-12 13:13:39.838,678, 674, 323, -24, -11, -8, -2, 4, 5, 931, 851, 190,!
2025-03-12 13:13:39.892,715, 517, 472, -17, -5, -10, -3, 4, 5, 935, 876, 251,!
2025-03-12 13:13:39.950,708, 498, 543, -14, -1, -4, -1, 3, 7, 956, 912, 38,!
2025-03-12 13:13:40.002,760, 359, 348, -30, 36, 33, -5, 7, 5, 973, 932, 65,!
2025-03-12 13:13:40.054,719, 932, 254, -36, 49, 46, -3, 5, 3, 969, 911, 35,!
2025-03-12 13:13:40.113,698, 607, 320, -31, 66, -52, -2, 6, 2, 942, 881, 53,!
2025-03-12 13:13:40.166,464, 565, 872, -1, -14, -4, -1, 6, 0, 918, 866, 66,!
2025-03-12 13:13:40.492,666, 590, 474, -2, 0, -1, -2, 4, 4, 858, 737, 61,@
2025-03-12 13:13:40.543,675, 579, 472, 0, -1, 0, -3, 7, 2, 855, 734, 50,@
2025-03-12 13:13:40.601,684, 577, 456, -2, -2, 0, -3, 7, 1, 858, 738, 41,@
2025-03-12 13:13:40.652,687, 586, 458, -4, 0, -2, -3, 5, 3, 856, 737, 44,@
2025-03-12 13:13:40.703,679, 583, 477, -3, 1, -2, -2, 6, 2, 853, 731, 56,@
2025-03-12 13:13:40.752,687, 581, 463, -1, -4, -2, -3, 5, 1, 855, 736, 52,@
2025-03-12 13:13:40.802,679, 582, 463, 0, -3, -7, -2, 6, 1, 822, 728, 44,@
2025-03-12 13:13:40.853,686, 607, 450, 0, 1, 3, -4, 5, 4, 841, 715, 52,@
2025-03-12 13:13:40.903,676, 602, 461, 0, 0, 4, -4, 5, 4, 868, 720, 53,@
2025-03-12 13:13:40.961,701, 573, 474, 3, -2, 6, -2, 5, 2, 888, 749, 59,@
2025-03-12 13:13:41.012,650, 595, 428, 0, -3, -1, -2, 4, 3, 893, 760, 34,@
2025-03-12 13:13:41.063,695, 574, 493, 2, -4, -1, -2, 6, 5, 897, 790, 61,@
2025-03-12 13:13:41.117,725, 594, 423, -3, -8, 2, -4, 6, 4, 904, 798, 57,@
2025-03-12 13:13:41.169,697, 561, 453, -5, -12, 4, -4, 6, 4, 925, 816, 37,@
2025-03-12 13:13:41.222,670, 541, 466, 5, -15, 7, -2, 5, 6, 931, 834, 63,@
2025-03-12 13:13:41.272,735, 577, 357, 10, 7, -10, -3, 7, 4, 927, 817, 55,@
2025-03-12 13:13:41.323,684, 616, 463, 2, -7, 8, -1, 4, 3, 929, 834, 40,@
2025-03-12 13:13:41.373,695, 551, 411, -3, -7, 2, -4, 5, 5, 936, 847, 47,@
2025-03-12 13:13:41.424,615, 486, 451, -5, -15, -8, -4, 5, 5, 951, 889, 69,@
2025-03-12 13:13:41.485,394, 409, 463, 15, -2, -20, -3, 4, 8, 960, 912, 41,@
2025-03-12 13:13:41.536,769, 664, 85, 22, 17, -8, -3, 7, 5, 965, 910, 59,@
2025-03-12 13:13:41.586,622, 341, 587, -31, 21, 22, -4, 7, 4, 972, 923, 64,@
2025-03-12 13:13:41.643,748, 510, 595, -4, -11, 1, -4, 7, 2, 964, 935, 64,@
2025-03-12 13:13:41.693,711, 588, 534, 2, -9, -10, -4, 6, 5, 960, 935, 47,@
2025-03-12 13:13:41.751,869, 878, 298, -27, 26, 34, -4, 5, 5, 970, 932, 54,@
2025-03-12 13:13:41.802,717, 680, 238, -34, 8, 21, -5, 8, 4, 969, 939, 67,@
2025-03-12 13:13:41.858,39, 366, 290, -4, -27, -36, -4, 6, 6, 964, 943, 34,@
2025-03-12 13:13:41.902,383, 323, 487, 39, -15, -46, -5, 6, 6, 961, 934, 52,@
2025-03-12 13:13:41.962,981, 839, 65, 11, 52, 59, -3, 4, 6, 972, 919, 60,@
2025-03-12 13:13:42.017,671, 374, 640, -17, 11, 35, -4, 6, 3, 968, 927, 66,@
2025-03-12 13:13:42.073,584, 562, 330, -9, 56, -63, -9, 8, 1, 945, 884, 49,@
2025-03-12 13:13:42.353,666, 609, 459, 1, -6, 7, -2, 5, 5, 801, 603, 49,#
2025-03-12 13:13:42.402,684, 591, 444, 2, -7, 6, -2, 6, 3, 800, 615, 40,#
2025-03-12 13:13:42.454,699, 598, 401, 0, -2, 2, -3, 5, 3, 813, 645, 65,#
2025-03-12 13:13:42.510,698, 594, 420, -2, 0, 1, -2, 4, 6, 803, 639, 40,#
2025-03-12 13:13:42.563,685, 597, 447, -6, 1, 0, -3, 8, 2, 788, 631, 45,#
2025-03-12 13:13:42.612,687, 583, 432, -5, -1, -2, -2, 5, 4, 755, 592, 56,#
2025-03-12 13:13:42.669,703, 591, 456, -8, -2, -4, -3, 5, 4, 721, 515, 40,#
2025-03-12 13:13:42.718,699, 588, 429, -4, -1, -1, -2, 5, 6, 765, 516, 52,#
2025-03-12 13:13:42.768,687, 603, 439, -3, -2, -1, -3, 5, 3, 782, 525, 44,#
2025-03-12 13:13:42.822,684, 599, 445, -4, -2, 1, -4, 6, 3, 810, 558, 34,#
2025-03-12 13:13:42.873,690, 585, 444, 2, -2, 3, -4, 6, 3, 841, 597, 45,#
