Timestamp,Acc_X,Acc_Y,Acc_Z,Gyro_X,Gyro_Y,Gyro_Z,Mag_X,Mag_Y,Mag_Z,Force1,Force2,Force3,Letter
2025-03-12 15:02:26.512,520, 537, 664, -13, 2, 1, -4, -6, -1, 59, 57, 62,noise
2025-03-12 15:02:26.515,514, 546, 693, -4, 3, -1, -4, -5, -2, 83, 76, 189,noise
2025-03-12 15:02:26.517,520, 537, 664, -13, 2, 1, -4, -6, -1, 59, 57, 62,noise
2025-03-12 15:02:26.518,514, 546, 693, -4, 3, -1, -4, -5, -2, 83, 76, 189,noise
2025-03-12 15:02:33.417,360, 643, 580, -6, -14, -11, -9, -7, -2, 686, 52, 56,A
2025-03-12 15:02:33.477,349, 666, 558, -6, -10, -11, -11, -8, -1, 690, 63, 53,A
2025-03-12 15:02:33.528,362, 742, 705, -3, 0, 0, -9, -6, -6, 697, 57, 54,A
2025-03-12 15:02:33.578,448, 661, 636, 5, -6, 2, -9, -6, -6, 705, 58, 52,A
2025-03-12 15:02:33.628,502, 645, 592, 7, -12, 5, -10, -7, -4, 707, 59, 67,A
2025-03-12 15:02:33.691,527, 669, 558, 0, -6, 0, -6, -10, 1, 714, 50, 50,A
2025-03-12 15:02:33.744,477, 664, 589, 0, -4, -2, -9, -6, -3, 731, 75, 78,A
2025-03-12 15:02:33.798,476, 687, 573, -1, -4, 2, -10, -7, -2, 738, 40, 36,A
2025-03-12 15:02:33.848,505, 687, 581, 1, -9, 4, -10, -7, -1, 756, 70, 64,A
2025-03-12 15:02:33.897,500, 682, 533, 2, -7, 3, -9, -7, 0, 767, 66, 60,A
2025-03-12 15:02:33.950,522, 666, 547, 2, -8, 1, -11, -7, 1, 750, 39, 54,A
2025-03-12 15:02:33.998,528, 674, 550, -5, -3, 1, -11, -5, 2, 760, 87, 87,A
2025-03-12 15:02:34.059,512, 678, 557, -7, -1, -2, -11, -5, 2, 754, 56, 67,A
2025-03-12 15:02:34.111,498, 673, 584, -5, -3, 2, -10, -4, 2, 765, 56, 58,A
2025-03-12 15:02:34.161,526, 666, 546, -4, -2, 3, -10, -5, 2, 779, 91, 90,A
2025-03-12 15:02:34.221,537, 656, 548, -10, -6, 4, -12, -4, 2, 769, 41, 100,A
2025-03-12 15:02:34.276,534, 665, 589, -7, -2, 1, -11, -5, 1, 789, 90, 178,A
2025-03-12 15:02:34.329,508, 645, 587, -3, -5, 2, -9, -3, 1, 782, 79, 177,A
2025-03-12 15:02:34.378,553, 666, 545, 4, -5, 2, -10, -5, 2, 768, 59, 158,A
2025-03-12 15:02:34.429,569, 686, 547, 7, 2, 0, -11, -6, 4, 738, 57, 119,A
2025-03-12 15:02:34.478,575, 679, 557, 9, 5, -8, -12, -4, 2, 711, 71, 61,A
2025-03-12 15:02:34.538,458, 655, 564, 12, 31, -6, -11, -6, 3, 661, 62, 58,A
2025-03-12 15:02:34.592,425, 689, 672, -15, 28, -6, -8, -7, 4, 590, 54, 49,A
2025-03-12 15:02:34.649,475, 817, 534, 35, 35, -11, -6, -7, 5, 597, 60, 54,A
2025-03-12 15:02:34.697,435, 900, 521, -14, 42, 36, -6, -9, 9, 679, 62, 54,A
2025-03-12 15:02:34.749,279, 695, 635, -77, 15, 74, -7, -6, 12, 474, 85, 66,A
2025-03-12 15:02:34.810,325, 575, 704, 36, -73, 71, -9, -3, 17, 54, 559, 52,A
2025-03-12 15:02:34.860,584, 540, 380, 40, -89, 74, -12, 1, 27, 43, 466, 43,A
2025-03-12 15:02:34.922,907, 486, 152, 31, -27, 18, -12, 1, 30, 91, 438, 90,A
2025-03-12 15:02:34.976,899, 515, 333, -37, 13, -4, -10, 1, 34, 67, 560, 49,A
2025-03-12 15:02:35.028,800, 386, 441, 2, 11, -86, -11, 4, 32, 49, 568, 51,A
2025-03-12 15:02:35.086,614, 696, 547, -44, 6, -22, -11, -1, 30, 764, 549, 62,A
2025-03-12 15:02:35.140,526, 566, 671, 45, 6, 20, -7, 0, 30, 884, 553, 484,A
2025-03-12 15:02:35.197,639, 717, 463, 11, -29, 37, -9, 0, 31, 901, 638, 608,A
2025-03-12 15:02:35.247,984, 407, 388, -62, -14, 44, -11, 2, 31, 917, 845, 710,A
2025-03-12 15:02:35.309,535, 599, 569, -42, 30, 32, -12, 5, 31, 943, 914, 754,A
2025-03-12 15:02:35.369,656, 495, 568, -14, -2, 9, -12, 7, 29, 959, 932, 794,A
2025-03-12 15:02:35.426,727, 394, 599, -10, -10, 2, -9, 7, 28, 962, 929, 796,A
2025-03-12 15:02:35.478,793, 447, 490, 13, -16, -5, -12, 6, 30, 965, 927, 807,A
2025-03-12 15:02:35.537,779, 506, 416, 3, 4, -11, -11, 7, 31, 964, 923, 806,A
2025-03-12 15:02:35.592,705, 509, 541, -4, 11, -8, -9, 5, 30, 960, 919, 797,A
2025-03-12 15:02:35.648,673, 496, 552, -2, -3, -2, -10, 4, 32, 957, 909, 794,A
2025-03-12 15:02:35.697,722, 487, 474, 1, -2, -1, -11, 6, 30, 952, 904, 782,A
2025-03-12 15:02:35.759,711, 494, 505, -1, 6, -5, -12, 6, 31, 942, 897, 768,A
2025-03-12 15:02:35.809,689, 523, 546, -2, -2, 2, -10, 6, 29, 937, 893, 758,A
2025-03-12 15:02:35.868,720, 488, 500, 1, -6, -1, -10, 5, 30, 931, 893, 750,A
2025-03-12 15:02:35.925,723, 502, 515, -6, -4, -4, -11, 6, 30, 928, 890, 750,A
2025-03-12 15:02:35.977,708, 525, 506, 1, -6, -4, -11, 4, 30, 935, 896, 766,A
2025-03-12 15:02:36.028,694, 509, 516, 2, -8, -1, -11, 4, 31, 934, 895, 761,A
2025-03-12 15:02:36.090,731, 538, 458, 4, -8, -3, -13, 6, 33, 934, 892, 750,A
2025-03-12 15:02:36.147,718, 529, 465, -3, -1, -2, -11, 5, 32, 934, 895, 752,A
2025-03-12 15:02:36.197,703, 522, 496, -11, -3, 1, -11, 4, 32, 931, 894, 757,A
2025-03-12 15:02:36.258,718, 507, 518, -11, -6, 1, -12, 6, 32, 936, 895, 755,A
2025-03-12 15:02:36.309,739, 481, 466, 2, -12, -2, -10, 5, 32, 951, 911, 782,A
2025-03-12 15:02:36.368,731, 527, 429, -4, -3, -3, -11, 5, 32, 956, 920, 794,A
2025-03-12 15:02:36.428,703, 503, 450, -26, -19, -7, -13, 6, 30, 962, 936, 798,A
2025-03-12 15:02:36.488,777, 459, 536, -4, -8, -10, -10, 3, 35, 970, 951, 817,A
2025-03-12 15:02:36.542,437, 402, 289, 100, -9, -36, -16, 2, 36, 980, 953, 789,A
2025-03-12 15:02:36.597,985, 1243, -506, -1, 78, 40, -13, 2, 34, 981, 948, 752,A
2025-03-12 15:02:36.659,763, 122, 498, -50, -10, -47, -10, 5, 33, 975, 949, 819,A
2025-03-12 15:02:36.719,684, 51, 324, -28, -20, -19, -10, 3, 33, 982, 962, 851,A
2025-03-12 15:02:36.774,750, 700, 220, 8, 50, 56, -11, 6, 34, 985, 966, 838,A
2025-03-12 15:02:36.828,721, 369, 492, 0, 43, -18, -11, 4, 31, 983, 957, 832,A
2025-03-12 15:02:36.877,865, 495, 468, 2, -64, 1, -15, 6, 33, 978, 956, 811,A
2025-03-12 15:02:36.942,888, 864, 103, -22, 8, 26, -12, 3, 34, 983, 968, 827,A
2025-03-12 15:02:36.998,805, 459, 348, -13, 76, -40, -12, 4, 32, 980, 962, 838,A
2025-03-12 15:02:37.057,510, 507, 692, -6, 42, -31, -10, 1, 28, 972, 938, 836,A
2025-03-12 15:02:37.109,583, 594, 623, -15, -3, -4, -10, 4, 26, 964, 910, 801,A
2025-03-12 15:02:37.169,705, 550, 471, -13, -3, 0, -6, 1, 28, 964, 903, 777,A
2025-03-12 15:02:37.225,619, 540, 575, -6, 2, -1, -7, 1, 26, 962, 901, 756,A
2025-03-12 15:02:37.278,642, 533, 583, -1, -2, 1, -8, 3, 28, 961, 901, 763,A
2025-03-12 15:02:37.331,666, 539, 534, 0, 2, -1, -10, 3, 26, 961, 897, 747,A
2025-03-12 15:02:55.308,443, 607, 557, 1, 22, 33, -11, -2, 19, 836, 657, 659,B
2025-03-12 15:02:55.365,447, 592, 553, 2, 23, 37, -9, -1, 23, 816, 658, 666,B
2025-03-12 15:02:55.421,581, 661, 473, 21, -12, 29, -9, -2, 22, 120, 541, 530,B
2025-03-12 15:02:55.472,747, 654, 406, 8, -13, 2, -7, -2, 23, 121, 525, 362,B
2025-03-12 15:02:55.527,672, 603, 492, 18, 5, -13, -9, -2, 23, 96, 508, 409,B
2025-03-12 15:02:55.587,614, 641, 482, 0, 2, -9, -7, -1, 24, 111, 472, 429,B
2025-03-12 15:02:55.638,599, 621, 512, 8, -1, 1, -7, -4, 24, 83, 375, 422,B
2025-03-12 15:02:55.689,758, 648, 537, -13, -6, 10, -7, -3, 23, 109, 391, 233,B
2025-03-12 15:02:55.748,650, 615, 412, 28, -17, -15, -9, 1, 23, 113, 274, 173,B
2025-03-12 15:02:55.808,681, 661, 437, -8, -3, 28, -8, -3, 25, 805, 306, 383,B
2025-03-12 15:02:55.865,666, 677, 512, 34, 10, 7, -8, -2, 24, 899, 120, 548,B
2025-03-12 15:02:55.919,694, 586, 490, 5, 3, 25, -7, -1, 25, 911, 120, 621,B
2025-03-12 15:02:55.971,625, 710, 493, -29, -14, 19, -8, -1, 23, 928, 651, 721,B
2025-03-12 15:02:56.028,733, 577, 315, -66, -22, 3, -10, 0, 25, 951, 850, 780,B
2025-03-12 15:02:56.087,567, 368, 470, -64, 38, 18, -10, 0, 25, 969, 920, 791,B
2025-03-12 15:02:56.138,969, 439, 979, 21, -19, 5, -9, 3, 25, 973, 941, 811,B
2025-03-12 15:02:56.198,571, 429, 509, 6, -20, -7, -11, 3, 25, 973, 947, 813,B
2025-03-12 15:02:56.258,708, 530, 500, 12, -46, -14, -12, 3, 28, 976, 953, 836,B
2025-03-12 15:02:56.313,727, 333, 411, 20, -21, -14, -13, 3, 29, 982, 962, 826,B
2025-03-12 15:02:56.370,804, 978, -88, 47, 53, 45, -11, 5, 29, 984, 956, 774,B
2025-03-12 15:02:56.428,666, 146, 624, -12, -40, -45, -10, 3, 30, 983, 958, 824,B
2025-03-12 15:02:56.487,827, 284, 451, -4, -38, -28, -12, 1, 30, 987, 971, 870,B
2025-03-12 15:02:56.547,524, 778, 620, -7, 15, 21, -11, 1, 30, 990, 973, 863,B
2025-03-12 15:02:56.602,900, 451, 101, 4, 4, 18, -10, 1, 31, 990, 973, 823,B
2025-03-12 15:02:56.655,657, 507, 775, -9, 16, 8, -12, 3, 30, 990, 974, 794,B
2025-03-12 15:02:56.713,976, 623, 39, 22, 14, -1, -13, 2, 31, 988, 968, 752,B
2025-03-12 15:02:56.771,846, 549, 266, -25, 44, -44, -12, 1, 29, 979, 951, 792,B
2025-03-12 15:02:56.828,548, 664, 625, -13, -27, 5, -11, 2, 29, 977, 947, 784,B
2025-03-12 15:02:57.117,700, 553, 426, -7, -12, 11, -14, 6, 29, 972, 934, 710,C
2025-03-12 15:02:57.178,726, 551, 397, -7, -11, 12, -8, 1, 35, 971, 936, 712,C
2025-03-12 15:02:57.228,741, 512, 456, -6, 3, 7, -13, 3, 30, 974, 942, 715,C
2025-03-12 15:02:57.289,654, 528, 468, -3, -13, 5, -11, 4, 32, 976, 950, 735,C
2025-03-12 15:02:57.348,745, 548, 493, -13, -1, -9, -11, 6, 30, 978, 959, 668,C
2025-03-12 15:02:57.405,679, 879, 236, 90, 28, -14, -12, 5, 32, 985, 952, 573,C
2025-03-12 15:02:57.462,854, 723, 338, -32, 41, 52, -11, 5, 30, 989, 970, 400,C
2025-03-12 15:02:57.519,659, 338, 512, 22, 32, -39, -12, 4, 28, 983, 970, 720,C
2025-03-12 15:02:57.570,680, 513, 563, 4, -1, -22, -10, 3, 27, 978, 961, 784,C
2025-03-12 15:02:57.627,706, 605, 476, 0, -15, 1, -11, 3, 29, 974, 950, 764,C
2025-03-12 15:02:57.687,749, 555, 416, -11, -4, -4, -11, 3, 28, 975, 946, 757,C
2025-03-12 15:02:57.737,687, 537, 514, -11, 1, 2, -10, 4, 28, 975, 941, 739,C
2025-03-12 15:02:58.012,729, 526, 467, -3, -6, -3, -11, 3, 28, 969, 927, 737,D
2025-03-12 15:02:58.072,727, 522, 466, -3, -6, -3, -10, 6, 29, 971, 927, 734,D
2025-03-12 15:02:58.130,734, 545, 430, -1, -1, -4, -13, 6, 27, 969, 931, 735,D
2025-03-12 15:02:58.178,703, 521, 477, -5, -8, -8, -10, 3, 29, 972, 939, 751,D
2025-03-12 15:02:58.238,747, 516, 473, -5, -21, 0, -11, 4, 31, 977, 953, 770,D
2025-03-12 15:02:58.298,746, 541, 327, 26, 44, 32, -11, 4, 28, 987, 955, 632,D
2025-03-12 15:02:58.355,756, 584, 283, -21, 25, 28, -13, 4, 28, 986, 951, 327,D
2025-03-12 15:02:58.412,631, 630, 815, 0, -25, -26, -11, 3, 27, 982, 956, 752,D
2025-03-12 15:02:58.470,686, 843, 428, -17, -13, 2, -10, 2, 29, 990, 974, 684,D
2025-03-12 15:02:58.521,785, 519, 364, 10, 17, 24, -12, 4, 29, 987, 966, 468,D
2025-03-12 15:02:58.577,948, 343, 404, 10, 28, -39, -10, 1, 32, 976, 942, 658,D
2025-03-12 15:02:58.638,553, 538, 714, -14, -10, -21, -6, -1, 27, 970, 940, 696,D
2025-03-12 15:02:58.878,695, 544, 472, -14, -30, 0, -13, 7, 29, 971, 946, 692,E
2025-03-12 15:02:58.927,707, 532, 459, -18, -30, 2, -9, 3, 32, 975, 949, 698,E
2025-03-12 15:02:58.991,736, 365, 587, 27, -8, -14, -10, 3, 31, 983, 957, 646,E
2025-03-12 15:02:59.048,817, 1075, -3, 26, 44, 39, -12, 4, 31, 987, 955, 105,E
2025-03-12 15:02:59.106,735, -77, 738, -9, -31, -54, -11, 5, 30, 979, 946, 352,E
2025-03-12 15:02:59.167,4875, -149, 242, 30, -37, -37, -11, 2, 31, 988, 962, 653,E
2025-03-12 15:02:59.223,700, 641, 571, -6, 24, 33, -11, 3, 31, 989, 975, 674,E
2025-03-12 15:02:59.278,626, 355, 506, 51, 22, 5, -13, 4, 30, 977, 958, 689,E
2025-03-12 15:02:59.335,654, 774, 203, 18, -12, -29, -14, 3, 32, 970, 928, 680,E
2025-03-12 15:02:59.388,684, 491, 408, -42, 13, 34, -13, 3, 30, 982, 963, 629,E
2025-03-12 15:02:59.447,441, 262, 663, 54, 30, -32, -10, 4, 31, 963, 918, 636,E
2025-03-12 15:02:59.504,823, 369, 60, -43, 1, -3, -10, 5, 32, 975, 957, 550,E
2025-03-12 15:02:59.558,765, 571, 466, -18, 7, 22, -13, 5, 29, 976, 958, 402,E
2025-03-12 15:02:59.617,514, 575, 550, 7, 22, -42, -10, 3, 28, 957, 930, 621,E
2025-03-12 15:02:59.670,585, 554, 509, 1, -40, 2, -11, 3, 28, 960, 912, 724,E
2025-03-12 15:02:59.727,823, 585, 286, 0, -15, 2, -11, 2, 30, 960, 910, 732,E
2025-03-12 15:02:59.781,762, 558, 362, -4, 1, -1, -13, 3, 30, 961, 899, 722,E
2025-03-12 15:03:00.038,695, 565, 458, -8, -8, -1, -12, 0, 32, 959, 894, 690,F
2025-03-12 15:03:00.088,708, 555, 429, -8, -9, -2, -10, 3, 30, 960, 896, 694,F
2025-03-12 15:03:00.153,722, 561, 391, -14, -8, -3, -14, 3, 32, 962, 911, 698,F
2025-03-12 15:03:00.208,744, 541, 448, -13, -19, 1, -14, 5, 30, 965, 936, 662,F
2025-03-12 15:03:00.262,625, 542, 654, 13, 25, 15, -12, 2, 34, 977, 939, 487,F
2025-03-12 15:03:00.322,784, 768, 98, -39, 36, 46, -11, 4, 33, 981, 933, 76,F
2025-03-12 15:03:00.378,581, 231, 564, 24, -37, -83, -12, 5, 30, 972, 926, 393,F
2025-03-12 15:03:00.437,831, 438, 322, 18, -33, -17, -14, 3, 31, 982, 967, 557,F
2025-03-12 15:03:00.491,632, 519, 522, 11, 28, 36, -13, 3, 31, 981, 965, 617,F
2025-03-12 15:03:00.551,371, 618, 726, 58, -7, -14, -10, 0, 32, 970, 927, 669,F
2025-03-12 15:03:00.607,959, 854, 261, -13, 15, 15, -12, 2, 33, 982, 962, 545,F
2025-03-12 15:03:00.666,907, 340, 242, -11, 52, -29, -13, 4, 32, 975, 954, 580,F
2025-03-12 15:03:00.721,522, 582, 655, 19, -3, -31, -11, 3, 29, 958, 895, 715,F
2025-03-12 15:03:00.777,724, 625, 441, 6, -30, 6, -11, 1, 28, 959, 880, 724,F
2025-03-12 15:03:00.827,750, 549, 389, -13, -9, 5, -11, 0, 32, 962, 893, 668,F
2025-03-12 15:03:00.888,750, 555, 375, -7, -4, 1, -10, 2, 29, 963, 894, 658,F
2025-03-12 15:03:02.138,707, 552, 448, 0, -6, 1, -11, 3, 28, 961, 897, 646,G
2025-03-12 15:03:02.188,705, 555, 447, 0, -6, 1, -10, 6, 32, 963, 899, 647,G
2025-03-12 15:03:02.243,736, 548, 437, -7, -5, 2, -11, 3, 30, 962, 907, 664,G
2025-03-12 15:03:02.304,712, 553, 438, -5, -6, 0, -12, 4, 28, 964, 912, 670,G
2025-03-12 15:03:02.358,725, 552, 432, -7, -4, -1, -12, 3, 30, 964, 918, 677,G
2025-03-12 15:03:02.408,744, 520, 444, -6, -6, -3, -12, 4, 30, 965, 922, 688,G
2025-03-12 15:03:02.470,713, 576, 421, -3, -1, -4, -13, 6, 28, 964, 923, 696,G
2025-03-12 15:03:02.528,726, 551, 444, -6, -31, -10, -10, -2, 35, 965, 937, 588,G
2025-03-12 15:03:02.587,815, 518, 174, 55, -14, -33, -12, 0, 36, 979, 935, 284,G
2025-03-12 15:03:02.637,645, 923, -50, -30, 62, 59, -15, 3, 33, 983, 940, 49,G
2025-03-12 15:03:02.701,696, 356, 616, -26, 10, 26, -11, 4, 32, 982, 955, 108,G
2025-03-12 15:03:02.757,689, 382, 756, 9, -21, -21, -12, 5, 32, 979, 958, 403,G
2025-03-12 15:03:02.811,1071, 544, 213, -20, 25, 23, -11, 4, 32, 986, 959, 285,G
2025-03-12 15:03:02.870,740, 187, 604, -27, 2, -33, -11, 4, 31, 979, 946, 309,G
2025-03-12 15:03:02.928,1092, 41, 261, -6, -19, -21, -14, 6, 28, 981, 961, 366,G
2025-03-12 15:03:02.988,871, 376, 351, -1, 12, 32, -15, 3, 34, 987, 967, 323,G
2025-03-12 15:03:03.040,669, 565, 412, 2, 58, -55, -12, 3, 30, 975, 953, 494,G
2025-03-12 15:03:03.103,536, 633, 666, -13, 17, -40, -10, 2, 27, 959, 868, 619,G
2025-03-12 15:03:03.358,702, 599, 432, -6, -6, 1, -8, 0, 34, 946, 876, 673,H
2025-03-12 15:03:03.412,701, 595, 426, -7, -5, 2, -11, -1, 32, 948, 880, 676,H
2025-03-12 15:03:03.468,717, 564, 453, -3, -5, 3, -11, 5, 30, 951, 893, 692,H
2025-03-12 15:03:03.517,716, 580, 411, -2, -1, 1, -10, 4, 29, 952, 895, 692,H
2025-03-12 15:03:03.578,705, 567, 447, -2, -3, 2, -11, 2, 32, 956, 900, 699,H
2025-03-12 15:03:03.635,740, 564, 396, -4, 0, 0, -13, 3, 29, 955, 902, 697,H
2025-03-12 15:03:03.687,710, 563, 444, -7, 0, -2, -12, 3, 29, 955, 902, 692,H
2025-03-12 15:03:03.738,699, 564, 434, -7, -8, -8, -11, 3, 30, 956, 909, 705,H
2025-03-12 15:03:03.802,767, 597, 396, -15, -11, 1, -9, 0, 32, 958, 925, 691,H
2025-03-12 15:03:03.858,729, 316, 659, 39, -9, -14, -12, 4, 31, 976, 935, 593,H
2025-03-12 15:03:03.917,892, 1061, -54, -19, 45, 46, -12, 2, 32, 980, 915, 97,H
2025-03-12 15:03:03.969,611, 89, 659, -18, -15, -51, -11, 4, 32, 969, 891, 207,H
2025-03-12 15:03:04.027,796, 879, 508, 16, -29, -10, -11, 3, 31, 979, 959, 545,H
2025-03-12 15:03:04.087,679, 411, 629, -7, 12, 33, -12, 6, 30, 980, 964, 599,H
2025-03-12 15:03:04.138,454, 487, 788, 37, -52, -13, -12, 4, 29, 976, 962, 783,H
2025-03-12 15:03:04.204,845, 1127, -106, 27, 46, 40, -12, 2, 33, 984, 954, 667,H
2025-03-12 15:03:04.262,952, 382, 298, 0, 18, -17, -15, 2, 30, 977, 937, 635,H
2025-03-12 15:03:04.511,661, 564, 475, -3, -6, -2, -11, 1, 32, 958, 891, 695,I
2025-03-12 15:03:04.561,668, 572, 453, -2, -7, -1, -10, 2, 33, 956, 888, 690,I
2025-03-12 15:03:04.619,666, 450, 440, 2, -7, -20, -12, 4, 31, 962, 906, 475,I
2025-03-12 15:03:04.678,839, 905, 458, -1, -12, 21, -11, 1, 33, 980, 959, 611,I
2025-03-12 15:03:04.735,686, 530, 365, 19, 19, 16, -12, 2, 30, 978, 957, 683,I
2025-03-12 15:03:04.788,497, 580, 689, 21, -8, -17, -10, 2, 31, 967, 941, 759,I
2025-03-12 15:03:04.847,436, 1062, 321, 7, 30, 24, -12, 4, 30, 984, 949, 437,I
2025-03-12 15:03:04.903,855, 576, 518, 0, 30, 18, -12, 3, 31, 980, 929, 379,I
2025-03-12 15:03:04.960,411, 605, 702, 17, -21, -40, -10, 2, 30, 967, 878, 658,I
2025-03-12 15:03:05.012,946, 1114, 178, 2, 0, 32, -11, 2, 32, 986, 960, 539,I
2025-03-12 15:03:05.069,871, 219, 485, -5, 16, -8, -12, 4, 30, 977, 951, 488,I
2025-03-12 15:03:05.128,480, 496, 650, 11, -1, -44, -11, 3, 29, 961, 906, 651,I
2025-03-12 15:03:05.348,674, 589, 450, -4, -6, -4, -12, 1, 30, 957, 903, 713,J
2025-03-12 15:03:05.412,679, 599, 451, -4, -6, -3, -10, 6, 30, 956, 903, 707,J
2025-03-12 15:03:05.467,632, 527, 518, 4, -26, -5, -13, 5, 30, 954, 895, 612,J
2025-03-12 15:03:05.521,891, 486, 444, 14, -9, -5, -12, 1, 33, 974, 951, 532,J
2025-03-12 15:03:05.577,586, 667, 394, -25, 18, 47, -12, 2, 34, 984, 970, 534,J
2025-03-12 15:03:05.638,763, 381, 293, 14, 26, -22, -14, 3, 32, 967, 952, 698,J
2025-03-12 15:03:05.688,832, 497, 614, -10, -24, 10, -12, 2, 32, 970, 944, 684,J
2025-03-12 15:03:05.753,722, 282, 443, 35, 47, 72, -11, 3, 32, 987, 957, 106,J
2025-03-12 15:03:05.808,668, 603, 301, -26, 25, 14, -10, 3, 33, 979, 950, 73,J
2025-03-12 15:03:05.868,1073, 811, 104, 40, 9, -55, -11, 4, 32, 934, 874, 552,J
2025-03-12 15:03:05.921,500, 578, 721, -8, 11, -4, -10, 2, 28, 927, 861, 520,J
2025-03-12 15:03:06.157,717, 588, 386, 0, -2, -2, -11, 2, 30, 907, 750, 565,K
2025-03-12 15:03:06.207,735, 590, 381, -3, 0, -2, -9, 2, 27, 909, 754, 566,K
2025-03-12 15:03:06.265,683, 592, 455, -7, 0, 1, -9, 2, 29, 914, 766, 535,K
2025-03-12 15:03:06.318,700, 558, 461, -2, -8, 2, -12, 1, 30, 920, 798, 566,K
2025-03-12 15:03:06.378,698, 574, 432, -10, -8, -2, -13, 1, 32, 923, 820, 535,K
2025-03-12 15:03:06.435,681, 554, 480, -10, -17, -2, -10, -1, 30, 929, 862, 570,K
2025-03-12 15:03:06.488,971, 246, 364, -1, -6, -8, -11, 0, 34, 952, 907, 502,K
2025-03-12 15:03:06.552,1302, 763, 731, 10, 36, 18, -11, 3, 31, 976, 891, 86,K
2025-03-12 15:03:06.602,790, 661, 27, -17, 18, 18, -12, 4, 31, 979, 946, 111,K
2025-03-12 15:03:06.661,640, 389, 534, 9, -20, 1, -10, 4, 31, 980, 969, 149,K
2025-03-12 15:03:06.718,626, 609, 158, 54, 23, -12, -12, 2, 33, 958, 924, 611,K
2025-03-12 15:03:06.769,831, 679, 512, -6, -33, 13, -10, 2, 30, 965, 900, 525,K
2025-03-12 15:03:06.828,840, 356, 16, -55, 25, 53, -11, 4, 32, 984, 958, 101,K
2025-03-12 15:03:06.887,769, 374, 192, 1, 53, -58, -12, 5, 30, 970, 928, 192,K
2025-03-12 15:03:07.163,729, 578, 448, -8, -23, 7, -15, 1, 33, 960, 927, 692,L
2025-03-12 15:03:07.219,786, 483, 407, -6, -19, 4, -11, 1, 32, 964, 934, 667,L
2025-03-12 15:03:07.270,716, 573, 399, 0, -4, -6, -12, 2, 33, 971, 943, 542,L
2025-03-12 15:03:07.328,730, 655, 375, 36, 17, 4, -12, 1, 32, 977, 935, 385,L
2025-03-12 15:03:07.383,994, 497, 335, 3, 15, 12, -12, 2, 34, 979, 903, 75,L
2025-03-12 15:03:07.438,658, 519, 598, -58, 6, 46, -12, 4, 32, 986, 965, 107,L
2025-03-12 15:03:07.489,677, 525, 442, 29, 7, 2, -12, 3, 31, 981, 956, 340,L
2025-03-12 15:03:07.552,603, 698, 555, -19, 34, -42, -11, 4, 28, 960, 902, 554,L
2025-03-12 15:03:07.797,695, 579, 412, -9, -6, -8, -12, 4, 32, 941, 862, 540,M
2025-03-12 15:03:07.858,687, 585, 424, -8, -7, -9, -11, 5, 33, 938, 866, 549,M
2025-03-12 15:03:07.916,670, 597, 442, -8, -23, -7, -11, 0, 35, 934, 882, 594,M
2025-03-12 15:03:07.971,760, 581, 613, -12, -5, -3, -13, 3, 31, 963, 927, 551,M
2025-03-12 15:03:08.022,856, 528, 335, 41, 56, 58, -13, 3, 33, 979, 913, 80,M
2025-03-12 15:03:08.078,834, 538, 634, -20, 3, 4, -9, 1, 34, 974, 915, 219,M
2025-03-12 15:03:08.137,549, 606, 693, -22, -32, 4, -11, 3, 31, 970, 946, 629,M
2025-03-12 15:03:08.190,575, 1151, -196, 7, 32, 48, -12, 3, 32, 984, 961, 498,M
2025-03-12 15:03:08.251,741, 674, 603, -28, 7, 19, -10, 4, 31, 983, 964, 353,M
2025-03-12 15:03:08.307,725, 270, 836, 37, -32, -17, -12, 3, 32, 984, 967, 531,M
2025-03-12 15:03:08.366,924, 685, 375, -19, 28, 24, -11, 6, 30, 983, 958, 227,M
2025-03-12 15:03:08.421,530, 588, 573, -22, 28, -36, -12, 1, 32, 971, 931, 162,M
2025-03-12 15:03:08.629,719, 579, 393, -5, -4, -1, -10, 4, 31, 958, 860, 510,N
2025-03-12 15:03:08.693,727, 584, 381, -5, -2, 0, -10, 1, 29, 956, 859, 505,N
2025-03-12 15:03:08.739,708, 560, 442, -6, 2, 0, -13, 6, 29, 958, 861, 480,N
2025-03-12 15:03:08.800,713, 550, 447, -3, 1, -3, -13, 3, 30, 957, 861, 471,N
2025-03-12 15:03:08.857,707, 556, 441, -4, -2, -4, -9, 1, 32, 953, 857, 484,N
2025-03-12 15:03:08.908,712, 578, 429, -2, -2, -4, -11, 1, 32, 948, 849, 452,N
2025-03-12 15:03:08.968,695, 592, 438, 0, -5, -5, -13, 3, 30, 946, 851, 504,N
2025-03-12 15:03:09.018,646, 601, 450, -5, -22, -6, -11, 1, 30, 948, 878, 525,N
2025-03-12 15:03:09.082,770, 546, 474, -30, -8, 0, -10, 3, 31, 970, 931, 309,N
2025-03-12 15:03:09.134,619, 541, 401, 10, 58, 55, -11, 2, 33, 982, 918, 87,N
2025-03-12 15:03:09.188,704, 492, 523, -19, 14, -2, -11, 5, 31, 976, 922, 126,N
2025-03-12 15:03:09.251,1210, 523, 365, -47, -13, -16, -10, 2, 32, 975, 950, 560,N
2025-03-12 15:03:09.307,698, 783, 271, -6, 40, 71, -12, 4, 31, 988, 953, 124,N
2025-03-12 15:03:09.365,687, 514, 594, -50, -18, 7, -11, 4, 31, 987, 964, 104,N
2025-03-12 15:03:09.417,933, 490, 273, 49, 1, -19, -12, 3, 33, 975, 956, 525,N
2025-03-12 15:03:09.698,690, 553, 500, -3, -3, 0, -12, 4, 29, 956, 886, 533,O
2025-03-12 15:03:09.752,703, 544, 496, 0, -4, 2, -12, 4, 30, 956, 885, 533,O
2025-03-12 15:03:09.808,728, 573, 397, 0, -5, 4, -12, 3, 31, 959, 898, 552,O
2025-03-12 15:03:09.865,718, 491, 371, -32, -6, -6, -15, 4, 30, 961, 918, 448,O
2025-03-12 15:03:09.918,849, 371, 554, -5, -16, -27, -9, 7, 27, 965, 949, 328,O
2025-03-12 15:03:09.978,681, 239, 642, 99, 0, -36, -12, 4, 31, 978, 932, 348,O
2025-03-12 15:03:10.033,655, 559, 181, -85, 47, 70, -11, 4, 31, 984, 958, 82,O
2025-03-12 15:03:10.087,532, 267, 624, 13, -53, -52, -12, 5, 31, 982, 967, 114,O
2025-03-12 15:03:10.152,915, 670, 74, -29, 77, -43, -13, 4, 30, 945, 928, 571,O
2025-03-12 15:03:10.445,694, 540, 388, -7, -12, -2, -10, 2, 34, 941, 890, 446,P
2025-03-12 15:03:10.500,690, 589, 439, -8, -13, -1, -14, 4, 29, 941, 894, 444,P
2025-03-12 15:03:10.557,720, 613, 408, -12, -1, -5, -11, 3, 32, 945, 915, 391,P
2025-03-12 15:03:10.611,726, 426, 573, 0, -7, -8, -12, 3, 32, 965, 929, 312,P
2025-03-12 15:03:10.667,509, 969, 8, 5, 74, 88, -12, 4, 32, 980, 934, 83,P
2025-03-12 15:03:10.719,710, 621, 416, -42, 22, 15, -10, 4, 30, 975, 942, 106,P
2025-03-12 15:03:10.783,603, 785, 371, -14, -39, -39, -12, 3, 30, 974, 957, 665,P
2025-03-12 15:03:10.835,699, 923, 55, -1, 2, 16, -12, 1, 33, 988, 965, 368,P
2025-03-12 15:03:10.892,620, 701, 231, -20, 28, 24, -11, 2, 33, 984, 947, 81,P
2025-03-12 15:03:10.950,707, 616, 335, -36, 56, -31, -12, 4, 31, 969, 929, 397,P
2025-03-12 15:03:11.218,693, 543, 457, -9, -11, 8, -13, 4, 30, 961, 914, 436,Q
2025-03-12 15:03:11.277,708, 547, 417, -11, -10, 6, -11, 3, 30, 961, 917, 407,Q
2025-03-12 15:03:11.336,790, 651, 413, -27, 1, -5, -12, 3, 33, 967, 948, 172,Q
2025-03-12 15:03:11.388,510, 534, 593, -11, -10, -15, -15, 4, 30, 969, 945, 59,Q
2025-03-12 15:03:11.450,892, 1087, -426, 67, 61, 55, -12, 4, 34, 983, 941, 71,Q
2025-03-12 15:03:11.508,683, 524, 1141, -54, -18, 16, -10, 6, 29, 985, 966, 104,Q
2025-03-12 15:03:11.565,744, 475, 255, 64, 0, -36, -11, 4, 30, 970, 943, 307,Q
2025-03-12 15:03:11.618,359, 788, 967, -1, -31, 49, -12, 3, 28, 974, 941, 298,Q
2025-03-12 15:03:11.678,899, 778, 130, -13, 4, 54, -13, 5, 29, 990, 963, 115,Q
2025-03-12 15:03:11.733,868, 171, 328, 18, 22, -25, -16, 4, 31, 976, 923, 86,Q
2025-03-12 15:03:11.787,627, 556, 617, 5, 18, -55, -10, 4, 28, 939, 788, 228,Q
2025-03-12 15:03:12.028,678, 559, 482, -8, -23, -1, -12, 5, 29, 926, 881, 448,R
2025-03-12 15:03:12.083,685, 557, 467, -7, -25, 0, -10, 1, 34, 927, 883, 443,R
2025-03-12 15:03:12.138,794, 569, 474, -21, -20, -5, -11, 3, 32, 937, 922, 331,R
2025-03-12 15:03:12.199,625, 814, 240, 68, 33, 27, -12, 4, 31, 972, 929, 82,R
2025-03-12 15:03:12.251,638, 448, 177, 5, 27, 37, -11, 4, 30, 980, 919, 82,R
2025-03-12 15:03:12.307,734, 54, 765, 62, -47, -75, -12, 8, 30, 965, 924, 119,R
2025-03-12 15:03:12.367,642, 542, 608, -27, -34, 2, -11, 2, 30, 981, 962, 82,R
2025-03-12 15:03:12.419,718, 395, 592, -18, 27, 32, -12, 5, 30, 985, 960, 107,R
2025-03-12 15:03:12.483,879, 585, 382, -29, 16, 31, -9, 5, 30, 983, 945, 106,R
2025-03-12 15:03:12.534,607, 548, 491, 3, 42, -43, -11, 8, 27, 972, 929, 73,R
2025-03-12 15:03:12.818,718, 538, 460, -6, -9, 7, -12, 6, 30, 967, 932, 95,S
2025-03-12 15:03:12.870,726, 513, 460, -6, -9, 6, -7, 5, 27, 970, 934, 116,S
2025-03-12 15:03:12.929,714, 489, 363, -19, -1, -7, -11, 6, 30, 972, 945, 84,S
2025-03-12 15:03:12.983,716, 313, 585, 16, -3, -18, -14, 6, 30, 974, 950, 106,S
2025-03-12 15:03:13.037,558, 564, 323, 55, 41, 27, -11, 6, 29, 982, 954, 103,S
2025-03-12 15:03:13.088,662, 655, 557, -18, 16, 30, -10, 4, 30, 988, 957, 84,S
2025-03-12 15:03:13.151,720, 302, 422, 45, 9, -26, -12, 6, 30, 973, 910, 87,S
2025-03-12 15:03:13.210,595, 508, 567, -39, 55, -36, -11, 4, 27, 950, 884, 103,S
2025-03-12 15:03:13.498,709, 581, 470, -2, -12, -10, -13, 3, 31, 931, 874, 90,T
2025-03-12 15:03:13.550,712, 541, 429, 1, -9, -10, -12, 4, 27, 929, 875, 87,T
2025-03-12 15:03:13.610,622, 539, 544, -5, -21, -4, -12, 3, 32, 935, 884, 84,T
2025-03-12 15:03:13.668,1069, 635, 497, 38, -20, -1, -13, 2, 32, 976, 947, 83,T
2025-03-12 15:03:13.721,667, 457, 429, -10, 15, 38, -13, 4, 33, 982, 962, 83,T
2025-03-12 15:03:13.778,500, 503, 588, 28, 7, -38, -13, 6, 30, 972, 945, 282,T
2025-03-12 15:03:13.838,621, 1005, 493, -14, 11, 3, -14, 4, 33, 980, 935, 70,T
2025-03-12 15:03:13.888,767, 391, 31, 8, 32, 28, -13, 3, 32, 981, 913, 94,T
2025-03-12 15:03:13.949,737, 511, 331, -1, 39, -55, -14, 4, 32, 963, 879, 213,T
2025-03-12 15:03:14.241,686, 535, 457, -7, -9, -3, -13, 4, 30, 944, 880, 249,U
2025-03-12 15:03:14.301,724, 518, 439, -7, -10, -6, -13, 4, 30, 945, 882, 257,U
2025-03-12 15:03:14.358,695, 554, 476, -10, -20, 1, -10, 4, 32, 954, 898, 129,U
2025-03-12 15:03:14.410,835, 349, 549, 50, 3, -9, -11, 3, 31, 975, 914, 129,U
2025-03-12 15:03:14.464,930, 758, 283, -31, 24, 55, -8, 4, 30, 982, 928, 95,U
2025-03-12 15:03:14.523,349, 186, 735, -14, -29, -13, -13, 6, 30, 980, 954, 111,U
2025-03-12 15:03:14.583,680, 460, 465, 56, -19, -24, -13, 4, 30, 981, 948, 140,U
2025-03-12 15:03:14.638,818, 500, 307, -11, 27, 25, -12, 4, 31, 982, 934, 111,U
2025-03-12 15:03:14.699,544, 601, 636, -16, 27, -30, -12, 4, 29, 973, 908, 106,U
2025-03-12 15:03:14.960,697, 546, 450, 9, -1, -5, -12, 3, 31, 941, 836, 125,V
2025-03-12 15:03:15.011,707, 536, 431, 10, -1, -7, -11, 7, 31, 938, 834, 116,V
2025-03-12 15:03:15.067,710, 550, 452, 9, -2, -11, -11, 4, 29, 936, 843, 185,V
2025-03-12 15:03:15.128,738, 645, 389, -14, -12, -5, -12, 3, 32, 947, 885, 285,V
2025-03-12 15:03:15.184,729, 579, 510, -25, -5, -1, -12, 4, 32, 971, 935, 113,V
2025-03-12 15:03:15.237,918, 804, 406, 20, 39, 56, -12, 4, 31, 984, 936, 98,V
2025-03-12 15:03:15.290,604, 650, 273, -22, 14, 24, -9, 6, 32, 985, 946, 81,V
2025-03-12 15:03:15.351,961, 463, 575, 24, -39, -33, -13, 4, 30, 982, 964, 103,V
2025-03-12 15:03:15.415,904, 743, 115, -10, 60, -11, -12, 3, 31, 965, 933, 351,V
2025-03-12 15:03:15.697,677, 576, 434, 8, -7, -4, -8, -1, 32, 930, 834, 308,W
2025-03-12 15:03:15.751,683, 575, 424, 10, -8, -4, -8, 4, 29, 925, 830, 289,W
2025-03-12 15:03:15.812,706, 617, 462, -8, -17, 1, -12, 2, 32, 937, 882, 337,W
2025-03-12 15:03:15.870,708, 391, 583, -19, -15, -8, -13, 4, 30, 971, 927, 72,W
2025-03-12 15:03:15.928,680, 1014, 151, -9, 31, 58, -12, 6, 31, 983, 937, 53,W
2025-03-12 15:03:15.981,621, 388, 998, -37, -4, 13, -12, 5, 31, 981, 956, 94,W
2025-03-12 15:03:16.037,664, 325, 748, 32, -18, -18, -12, 5, 31, 978, 952, 74,W
2025-03-12 15:03:16.088,654, 698, 263, -30, 4, 29, -12, 4, 31, 982, 958, 76,W
2025-03-12 15:03:16.149,682, 250, 517, 18, -9, -3, -13, 7, 31, 980, 957, 59,W
2025-03-12 15:03:16.203,738, 540, 392, -6, 70, -38, -13, 6, 31, 961, 903, 100,W
2025-03-12 15:03:16.470,745, 520, 399, -2, -18, 6, -14, 4, 30, 965, 914, 154,X
2025-03-12 15:03:16.518,746, 534, 392, -3, -15, 7, -13, 7, 34, 963, 916, 175,X
2025-03-12 15:03:16.583,706, 463, 410, -19, -9, -11, -15, 6, 30, 974, 941, 131,X
2025-03-12 15:03:16.638,451, 816, 440, 39, 41, 3, -13, -1, 37, 977, 927, 96,X
2025-03-12 15:03:16.697,731, 590, 231, -41, 36, 17, -13, 5, 31, 969, 915, 158,X
2025-03-12 15:03:16.753,645, 844, 573, 2, -35, -13, -12, 1, 32, 964, 924, 254,X
2025-03-12 15:03:16.808,959, 898, -326, -37, 30, 74, -11, 3, 33, 988, 957, 155,X
2025-03-12 15:03:16.865,687, 431, 633, 3, 7, 4, -11, 4, 33, 983, 947, 164,X
2025-03-12 15:03:16.919,577, 601, 621, 4, 6, -57, -12, 3, 28, 958, 928, 157,X
2025-03-12 15:03:17.172,716, 548, 438, -3, -2, -2, -12, 3, 31, 949, 912, 295,Y
2025-03-12 15:03:17.228,707, 557, 444, -3, -2, -3, -13, 2, 32, 944, 910, 283,Y
2025-03-12 15:03:17.283,680, 553, 482, 0, -14, -6, -12, 4, 31, 948, 914, 220,Y
2025-03-12 15:03:17.337,830, 582, 456, -14, -7, -9, -12, 3, 31, 961, 927, 75,Y
2025-03-12 15:03:17.398,675, 912, -70, -3, 23, 51, -15, 5, 31, 982, 953, 73,Y
2025-03-12 15:03:17.450,621, 323, 615, -7, -1, 11, -13, 4, 31, 972, 949, 45,Y
2025-03-12 15:03:17.508,1311, 315, 706, -4, -26, -25, -13, 4, 31, 972, 950, 107,Y
2025-03-12 15:03:17.565,664, 1158, -1, 14, 32, 23, -12, 4, 33, 984, 928, 65,Y
2025-03-12 15:03:17.618,917, 661, 476, -10, 30, 23, -12, 7, 29, 970, 893, 71,Y
2025-03-12 15:03:17.677,499, 676, 683, -40, 23, -31, -11, 3, 30, 932, 880, 56,Y
2025-03-12 15:03:17.947,1859, 432, 122, -53, -6, -15, -13, 3, 30, 941, 890, 71,Z
2025-03-12 15:03:18.007,645, 604, 429, -1, -2, -14, -12, 2, 33, 947, 895, 55,Z
2025-03-12 15:03:18.065,917, 729, 573, 20, -20, 20, -12, 4, 33, 978, 952, 74,Z
2025-03-12 15:03:18.118,842, 647, 476, 56, 9, 22, -12, 4, 32, 981, 950, 89,Z
2025-03-12 15:03:18.168,568, 570, 469, 11, 26, -7, -12, 1, 31, 978, 915, 75,Z
2025-03-12 15:03:18.232,946, 1075, 445, -44, 17, 37, -12, 4, 31, 985, 953, 92,Z
2025-03-12 15:03:18.283,597, 446, 499, 3, 3, 20, -11, 5, 31, 983, 955, 93,Z
2025-03-12 15:03:18.338,437, 583, 545, 77, 0, -76, -13, 5, 29, 962, 907, 129,Z
2025-03-12 15:03:18.397,819, 836, 365, -70, -22, 0, -13, 3, 32, 979, 952, 72,Z
2025-03-12 15:03:18.449,617, 475, 361, -11, 12, 36, -13, 6, 29, 983, 959, 79,Z
2025-03-12 15:03:18.499,675, 553, 294, 11, 59, -56, -13, 4, 31, 962, 888, 48,Z
2025-03-12 15:03:18.769,725, 555, 417, -7, 2, 3, -12, 2, 30, 935, 789, 61,a
2025-03-12 15:03:18.819,716, 566, 428, -8, 1, 3, -13, 2, 30, 936, 794, 73,a
2025-03-12 15:03:18.869,733, 547, 428, -13, -1, -2, -12, 4, 31, 935, 796, 67,a
2025-03-12 15:03:18.933,686, 540, 466, -4, -5, 2, -11, 3, 30, 937, 795, 61,a
2025-03-12 15:03:18.987,752, 572, 376, -4, -1, 2, -14, 3, 32, 941, 809, 83,a
2025-03-12 15:03:19.038,703, 529, 459, -6, 2, -1, -13, 4, 31, 943, 825, 86,a
2025-03-12 15:03:19.093,728, 546, 447, -2, 1, 1, -13, 5, 31, 947, 845, 89,a
2025-03-12 15:03:19.147,719, 571, 429, -4, 2, 8, -13, 6, 30, 951, 855, 54,a
2025-03-12 15:03:19.200,701, 616, 456, -12, -10, 5, -14, 5, 31, 966, 906, 79,a
2025-03-12 15:03:19.251,937, 541, 507, 15, -6, -25, -13, 7, 32, 969, 916, 83,a
2025-03-12 15:03:19.314,959, 877, -6, -27, 36, 34, -15, 5, 32, 979, 922, 35,a
2025-03-12 15:03:19.368,677, 184, 855, -14, -17, 2, -12, 5, 30, 979, 945, 72,a
2025-03-12 15:03:19.418,924, 565, 437, 23, -14, -24, -11, 4, 32, 980, 944, 67,a
2025-03-12 15:03:19.482,815, 446, 483, -13, 14, 23, -12, 6, 32, 977, 937, 66,a
2025-03-12 15:03:19.538,575, 470, 678, -13, 17, -25, -10, 6, 29, 971, 912, 61,a
2025-03-12 15:03:19.597,652, 514, 530, 7, -19, -16, -12, 4, 29, 950, 890, 88,a
2025-03-12 15:03:19.651,753, 581, 430, -1, -3, 4, -11, 2, 30, 948, 876, 63,a
2025-03-12 15:03:19.701,710, 548, 467, -4, 3, 0, -11, 1, 32, 947, 852, 28,a
2025-03-12 15:03:19.752,689, 520, 493, 1, -3, 0, -12, 4, 29, 948, 854, 95,a
2025-03-12 15:03:19.807,723, 549, 465, 2, -6, 0, -12, 3, 30, 945, 841, 48,a
2025-03-12 15:03:19.863,726, 523, 490, -4, 0, 0, -12, 4, 31, 943, 827, 91,a
2025-03-12 15:03:19.916,713, 560, 451, -2, 0, -3, -12, 6, 30, 942, 806, 91,a
2025-03-12 15:03:20.198,703, 552, 471, 0, -2, -4, -12, 4, 32, 928, 815, 94,b
2025-03-12 15:03:20.249,702, 552, 475, -1, -3, -4, -12, 6, 32, 927, 817, 89,b
2025-03-12 15:03:20.307,715, 535, 445, 0, -4, -3, -13, 3, 32, 927, 821, 83,b
2025-03-12 15:03:20.363,683, 569, 438, -3, -10, -7, -11, 3, 31, 925, 837, 90,b
2025-03-12 15:03:20.418,660, 559, 457, -9, -21, -10, -11, 4, 31, 915, 881, 58,b
2025-03-12 15:03:20.477,825, 315, 499, 41, -6, -10, -11, 4, 32, 968, 909, 65,b
2025-03-12 15:03:20.532,344, 606, 165, -19, 52, 46, -12, 3, 31, 977, 892, 75,b
2025-03-12 15:03:20.588,825, 166, 682, 23, -15, -24, -11, 3, 30, 960, 893, 102,b
2025-03-12 15:03:20.648,633, 477, 678, -11, -17, 5, -11, 4, 31, 976, 947, 80,b
2025-03-12 15:03:20.699,727, 462, 385, -26, 25, 19, -11, 1, 34, 975, 928, 61,b
2025-03-12 15:03:20.759,909, 448, 314, -1, 26, -50, -11, 3, 31, 953, 871, 82,b
2025-03-12 15:03:21.038,729, 556, 415, -8, -6, 4, -13, 5, 29, 948, 873, 68,c
2025-03-12 15:03:21.087,713, 560, 436, -8, -7, 5, -12, 5, 31, 949, 878, 67,c
2025-03-12 15:03:21.149,738, 523, 482, -13, -14, 3, -12, 4, 31, 958, 904, 70,c
2025-03-12 15:03:21.202,694, 515, 542, -9, -8, -14, -8, 3, 32, 965, 932, 74,c
2025-03-12 15:03:21.257,318, 426, 458, 70, 8, -24, -12, 4, 32, 980, 929, 71,c
2025-03-12 15:03:21.318,803, 729, 362, -48, 36, 67, -13, 4, 30, 985, 950, 65,c
2025-03-12 15:03:21.369,784, 411, 363, 13, 12, -30, -12, 5, 30, 974, 948, 66,c
2025-03-12 15:03:21.427,623, 568, 668, -10, 5, -17, -13, 3, 29, 945, 913, 65,c
2025-03-12 15:03:21.678,712, 553, 502, 0, -8, 6, -13, 4, 29, 955, 903, 76,d
2025-03-12 15:03:21.738,699, 517, 469, 1, -9, 5, -15, 1, 29, 955, 905, 71,d
2025-03-12 15:03:21.796,621, 640, 476, -19, -3, -10, -13, 5, 30, 962, 933, 58,d
2025-03-12 15:03:21.848,935, 316, 514, 36, -3, -29, -14, 5, 32, 969, 935, 66,d
2025-03-12 15:03:21.908,992, 818, 34, -24, 29, 37, -13, 5, 31, 979, 934, 46,d
2025-03-12 15:03:21.967,654, 186, 701, -31, -28, -11, -11, 5, 31, 981, 954, 80,d
2025-03-12 15:03:22.024,700, 435, 589, 23, -23, -28, -12, 5, 30, 979, 955, 55,d
2025-03-12 15:03:22.080,812, 308, 497, 4, 28, 37, -11, 5, 31, 984, 947, 54,d
2025-03-12 15:03:22.134,807, 349, 429, -18, 13, -40, -11, 6, 30, 976, 927, 41,d
2025-03-12 15:03:22.391,716, 564, 438, 0, 0, 0, -12, 5, 32, 956, 894, 53,e
2025-03-12 15:03:22.447,708, 550, 461, 1, 0, 2, -10, 6, 28, 957, 892, 58,e
2025-03-12 15:03:22.499,704, 534, 455, 7, -1, 3, -13, 4, 31, 956, 895, 52,e
2025-03-12 15:03:22.551,742, 480, 469, 0, -5, -1, -11, 4, 32, 960, 896, 47,e
2025-03-12 15:03:22.607,588, 628, 361, -37, 11, 27, -14, 3, 31, 977, 938, 75,e
2025-03-12 15:03:22.665,560, 252, 852, 3, -21, -10, -12, 5, 31, 976, 951, 48,e
2025-03-12 15:03:22.718,544, 195, 522, 36, -9, -36, -13, 5, 32, 973, 940, 51,e
2025-03-12 15:03:22.779,854, 793, 119, -42, 46, 62, -13, 6, 30, 984, 942, 63,e
2025-03-12 15:03:22.832,748, 200, 523, -13, 14, -42, -12, 5, 31, 979, 936, 60,e
2025-03-12 15:03:23.098,730, 408, 481, -9, 2, 12, -12, 7, 28, 960, 876, 40,f
2025-03-12 15:03:23.151,741, 505, 430, -8, 2, 9, -12, 7, 28, 962, 884, 56,f
2025-03-12 15:03:23.214,720, 562, 450, -32, 10, 8, -12, 5, 30, 966, 912, 46,f
2025-03-12 15:03:23.267,816, 505, 533, 26, -51, -71, -12, 5, 31, 970, 954, 78,f
2025-03-12 15:03:23.322,773, 485, 165, 13, -26, -13, -12, 5, 31, 981, 967, 81,f
2025-03-12 15:03:23.381,552, 504, 446, -3, 49, 40, -14, 7, 31, 975, 953, 79,f
2025-03-12 15:03:23.431,308, 556, 794, 8, -28, -8, -13, 4, 30, 967, 929, 38,f
2025-03-12 15:03:23.487,770, 528, 257, 7, 3, -2, -12, 4, 30, 980, 954, 55,f
2025-03-12 15:03:23.538,896, 195, 447, -2, 12, -1, -11, 6, 29, 976, 945, 58,f
2025-03-12 15:03:23.807,759, 506, 380, 0, -19, 10, -11, 5, 31, 966, 895, 75,g
2025-03-12 15:03:23.868,747, 562, 415, -7, -16, 7, -13, 5, 31, 966, 905, 73,g
2025-03-12 15:03:23.918,587, 424, 620, -11, -1, -11, -12, 6, 32, 972, 937, 46,g
2025-03-12 15:03:23.981,876, 852, -105, 9, 27, 13, -12, 3, 32, 983, 937, 57,g
2025-03-12 15:03:24.032,742, 316, 632, -49, 32, 37, -12, 6, 31, 982, 944, 75,g
2025-03-12 15:03:24.087,784, 395, 612, 38, -18, -30, -12, 4, 32, 976, 941, 35,g
2025-03-12 15:03:24.147,684, 561, 297, 18, 35, 36, -11, 3, 30, 984, 939, 37,g
2025-03-12 15:03:24.197,758, 390, 458, -18, 22, 4, -11, 4, 30, 974, 901, 65,g
2025-03-12 15:03:24.262,746, 534, 517, -3, 35, -52, -11, 4, 28, 947, 891, 69,g
2025-03-12 15:03:24.314,613, 594, 610, 1, -15, -5, -11, 3, 25, 908, 891, 47,g
2025-03-12 15:03:24.548,733, 568, 407, 7, -7, 2, -11, 1, 29, 859, 742, 63,h
2025-03-12 15:03:24.607,728, 582, 398, 5, -5, 2, -11, 4, 32, 859, 735, 49,h
2025-03-12 15:03:24.663,687, 561, 478, -2, 2, 1, -11, 1, 30, 871, 738, 75,h
2025-03-12 15:03:24.716,700, 547, 469, 0, -6, 1, -12, 3, 30, 873, 741, 52,h
2025-03-12 15:03:24.766,709, 581, 435, 0, -8, 1, -12, 3, 29, 880, 765, 61,h
2025-03-12 15:03:24.817,712, 568, 433, -3, -9, 0, -12, 2, 32, 874, 777, 65,h
2025-03-12 15:03:24.875,698, 574, 478, -5, -9, 2, -10, 4, 30, 877, 790, 54,h
2025-03-12 15:03:24.933,718, 598, 420, -17, -14, 1, -12, 3, 32, 896, 828, 141,h
2025-03-12 15:03:24.991,778, 506, 444, -42, -6, -3, -13, 3, 32, 953, 909, 51,h
2025-03-12 15:03:25.037,85, 739, 190, 16, 57, 53, -12, 3, 31, 980, 906, 61,h
2025-03-12 15:03:25.097,704, 508, 159, -12, 26, 15, -12, 6, 32, 977, 904, 76,h
2025-03-12 15:03:25.158,583, 633, 759, -14, -26, -11, -13, 5, 31, 975, 930, 64,h
2025-03-12 15:03:25.213,936, 678, 197, -19, 33, 35, -13, 6, 31, 981, 926, 76,h
2025-03-12 15:03:25.268,695, 545, 520, -32, 64, -50, -11, 5, 28, 967, 892, 48,h
2025-03-12 15:03:25.527,762, 567, 386, -4, -2, 5, -11, 4, 30, 949, 866, 33,i
2025-03-12 15:03:25.581,764, 539, 388, -7, 0, 4, -10, 7, 30, 949, 869, 27,i
2025-03-12 15:03:25.638,701, 534, 458, -7, -4, -4, -12, 4, 32, 954, 879, 62,i
2025-03-12 15:03:25.696,747, 539, 508, -36, -3, -2, -14, 5, 31, 964, 914, 55,i
2025-03-12 15:03:25.748,954, 879, 341, -24, 33, 34, -12, 4, 31, 981, 917, 80,i
2025-03-12 15:03:25.808,837, -44, 418, -6, 10, -39, -13, 6, 32, 970, 898, 53,i
2025-03-12 15:03:25.868,156, 349, 1305, 19, -106, 20, -11, 2, 31, 970, 931, 35,i
2025-03-12 15:03:25.917,820, 455, 26, 28, 15, 5, -14, 5, 33, 978, 940, 31,i
2025-03-12 15:03:25.978,730, 425, 363, -5, 58, -24, -11, 4, 30, 969, 910, 81,i
2025-03-12 15:03:26.228,713, 565, 412, 2, -5, 19, -11, 4, 31, 957, 858, 75,j
2025-03-12 15:03:26.280,728, 522, 431, 1, -4, 18, -14, 5, 29, 956, 858, 65,j
2025-03-12 15:03:26.338,732, 505, 418, -4, -2, 4, -11, 5, 32, 958, 872, 72,j
2025-03-12 15:03:26.391,770, 552, 442, -12, 2, -3, -14, 7, 32, 962, 901, 40,j
2025-03-12 15:03:26.448,829, 907, 338, -5, 24, 37, -13, 5, 29, 980, 919, 77,j
2025-03-12 15:03:26.501,758, 366, 418, -64, 38, 45, -10, 6, 30, 980, 911, 49,j
2025-03-12 15:03:26.564,478, 654, 772, -16, -14, -75, -11, 7, 30, 973, 916, 50,j
2025-03-12 15:03:26.618,719, 241, 87, -6, -26, -12, -13, 6, 30, 982, 948, 42,j
2025-03-12 15:03:26.668,821, 399, 385, 18, 21, 35, -13, 6, 31, 977, 924, 73,j
2025-03-12 15:03:26.732,521, 591, 704, -3, 26, -17, -12, 5, 27, 972, 894, 63,j
2025-03-12 15:03:27.013,744, 444, 441, -2, -3, -5, -12, 6, 30, 972, 924, 525,k
2025-03-12 15:03:27.072,727, 455, 498, 12, -4, -8, -13, 4, 33, 973, 922, 521,k
2025-03-12 15:03:27.129,855, 616, 488, 33, 25, 18, -13, 3, 32, 978, 899, 260,k
2025-03-12 15:03:27.180,916, 729, 394, -66, 13, 34, -12, 2, 32, 983, 949, 76,k
2025-03-12 15:03:27.238,708, 447, 535, 45, -8, 2, -13, 5, 31, 980, 950, 80,k
2025-03-12 15:03:27.297,646, 493, 508, 51, 31, -45, -12, 3, 30, 965, 882, 517,k
2025-03-12 15:03:27.347,859, 1151, 339, -55, -17, 1, -13, 4, 30, 979, 929, 52,k
2025-03-12 15:03:27.407,721, 271, 529, -1, 14, 33, -13, 5, 30, 984, 937, 56,k
2025-03-12 15:03:27.463,610, 581, 384, 9, 41, -53, -12, 5, 28, 965, 882, 57,k
2025-03-12 15:03:27.710,689, 581, 450, -9, -16, -6, -12, 3, 30, 954, 886, 500,l
2025-03-12 15:03:27.768,680, 600, 456, -12, -21, -4, -14, 4, 32, 955, 890, 515,l
2025-03-12 15:03:27.830,766, 364, 302, -39, -3, -6, -13, 6, 33, 963, 923, 444,l
2025-03-12 15:03:27.881,731, 577, 456, -6, -6, -5, -13, 4, 32, 971, 934, 288,l
2025-03-12 15:03:27.938,681, 406, 495, 30, 4, -3, -13, 3, 32, 979, 938, 57,l
2025-03-12 15:03:27.997,1271, 390, 363, 15, 35, 27, -12, 4, 33, 984, 919, 65,l
2025-03-12 15:03:28.048,973, 176, 378, -23, 19, -51, -11, 5, 31, 971, 903, 52,l
2025-03-12 15:03:28.112,544, 500, 781, -4, -5, -13, -10, 4, 30, 949, 901, 55,l
2025-03-12 15:03:28.397,733, 548, 405, 7, -7, 2, -13, 5, 30, 943, 873, 64,m
2025-03-12 15:03:28.448,737, 558, 401, 7, -5, 1, -10, 5, 32, 942, 872, 82,m
2025-03-12 15:03:28.497,658, 522, 480, 7, -12, -7, -12, 3, 30, 934, 857, 149,m
2025-03-12 15:03:28.562,779, 624, 603, -26, -6, -1, -11, 4, 30, 961, 916, 68,m
2025-03-12 15:03:28.615,756, 595, 445, -7, 30, 28, -12, 4, 31, 981, 920, 42,m
2025-03-12 15:03:28.668,801, 532, 429, -23, 17, 9, -13, 5, 32, 979, 932, 76,m
2025-03-12 15:03:28.730,795, 492, 626, -16, -14, -10, -14, 7, 30, 980, 942, 49,m
2025-03-12 15:03:28.788,698, 710, 234, -22, 25, 37, -13, 7, 29, 986, 945, 54,m
2025-03-12 15:03:28.844,781, 257, 819, -14, -21, -4, -12, 5, 29, 979, 944, 34,m
2025-03-12 15:03:28.897,777, 711, 289, 15, -4, 10, -12, 6, 31, 985, 952, 55,m
2025-03-12 15:03:28.947,940, 227, 398, -8, 33, -27, -13, 6, 31, 978, 922, 54,m
2025-03-12 15:03:29.009,569, 461, 743, 12, 1, -36, -11, 4, 29, 960, 894, 59,m
2025-03-12 15:03:29.257,725, 525, 436, 8, -3, 1, -10, 5, 30, 946, 882, 331,n
2025-03-12 15:03:29.314,738, 537, 418, 5, -3, 0, -10, 5, 30, 947, 884, 338,n
2025-03-12 15:03:29.371,668, 559, 529, 3, -13, 0, -10, 3, 32, 952, 901, 389,n
2025-03-12 15:03:29.430,762, 415, 568, -12, -3, -7, -12, 5, 31, 974, 932, 157,n
2025-03-12 15:03:29.480,823, 265, 897, -10, 3, 16, -12, 6, 30, 983, 931, 64,n
2025-03-12 15:03:29.537,696, 160, 771, -3, -29, -16, -10, 4, 31, 977, 939, 72,n
2025-03-12 15:03:29.597,760, 703, 459, 25, -13, 11, -11, 5, 31, 983, 950, 48,n
2025-03-12 15:03:29.648,785, 561, 432, -3, 35, 34, -12, 3, 30, 983, 931, 41,n
2025-03-12 15:03:29.707,507, 471, 703, -18, 38, -30, -12, 4, 29, 973, 909, 79,n
2025-03-12 15:03:29.972,714, 495, 478, 1, -2, 1, -13, 4, 30, 954, 885, 51,o
2025-03-12 15:03:30.018,718, 494, 475, 2, -3, 0, -10, 4, 30, 953, 885, 48,o
2025-03-12 15:03:30.078,738, 525, 456, 2, -2, 1, -14, 4, 29, 952, 884, 55,o
2025-03-12 15:03:30.131,724, 522, 457, 0, -5, -1, -13, 5, 28, 953, 883, 56,o
2025-03-12 15:03:30.181,746, 531, 426, -5, -1, 0, -13, 6, 30, 956, 891, 52,o
2025-03-12 15:03:30.237,691, 529, 489, -14, -6, -10, -11, 6, 30, 962, 914, 75,o
2025-03-12 15:03:30.298,1008, 311, 546, 21, -16, -29, -11, 5, 32, 969, 932, 74,o
2025-03-12 15:03:30.349,1135, 1220, -205, 25, 41, 56, -13, 4, 32, 983, 926, 49,o
2025-03-12 15:03:30.417,470, 235, 1094, -39, -20, 15, -11, 5, 30, 984, 957, 55,o
2025-03-12 15:03:30.469,674, 731, 173, 83, -16, -39, -11, 3, 31, 965, 944, 241,o
2025-03-12 15:03:30.533,587, 738, 577, -31, 44, -11, -10, 3, 29, 947, 915, 235,o
2025-03-12 15:03:30.783,809, 467, 381, -58, -3, -9, -12, 4, 30, 949, 905, 62,p
2025-03-12 15:03:30.837,694, 558, 542, -35, -1, -7, -14, 5, 30, 949, 908, 34,p
2025-03-12 15:03:30.898,745, 527, 386, 41, 4, -5, -12, 3, 31, 970, 923, 73,p
2025-03-12 15:03:30.950,648, 408, 296, -16, 41, 52, -10, 6, 30, 978, 903, 75,p
2025-03-12 15:03:31.012,499, -118, 899, 30, -34, -39, -12, 6, 29, 966, 918, 33,p
2025-03-12 15:03:31.067,854, 517, 478, -50, -43, -15, -13, 5, 32, 978, 957, 42,p
2025-03-12 15:03:31.118,132, 868, -29, 10, 28, 32, -12, 5, 29, 983, 954, 39,p
2025-03-12 15:03:31.170,895, 356, 292, 4, 31, 10, -13, 5, 30, 975, 923, 54,p
2025-03-12 15:03:31.233,414, 474, 842, -30, 17, -12, -10, 4, 28, 965, 908, 37,p
2025-03-12 15:03:31.478,681, 510, 535, -4, -12, 8, -12, 5, 31, 963, 915, 47,q
2025-03-12 15:03:31.538,679, 501, 536, -4, -15, 8, -16, 6, 29, 965, 921, 49,q
2025-03-12 15:03:31.598,780, 500, 523, -24, 1, -5, -13, 5, 31, 970, 939, 49,q
2025-03-12 15:03:31.648,575, 490, 378, 40, -4, -23, -13, 6, 31, 975, 931, 39,q
2025-03-12 15:03:31.708,880, 1035, 263, -58, 47, 67, -11, 5, 29, 983, 943, 58,q
2025-03-12 15:03:31.765,550, 337, 804, -6, -22, -10, -12, 6, 29, 982, 956, 67,q
2025-03-12 15:03:31.820,739, 698, 379, 74, 8, -11, -13, 6, 31, 982, 936, 75,q
2025-03-12 15:03:31.872,785, 566, 59, -22, 21, 20, -13, 4, 31, 983, 936, 34,q
2025-03-12 15:03:31.930,680, 264, 717, 16, -23, -7, -13, 7, 30, 979, 951, 67,q
2025-03-12 15:03:32.217,658, 520, 515, 3, -12, -2, -12, 5, 30, 954, 905, 30,r
2025-03-12 15:03:32.271,641, 524, 526, 5, -19, -3, -9, 2, 30, 956, 909, 47,r
2025-03-12 15:03:32.329,670, 366, 418, -18, 4, -3, -11, 4, 31, 967, 933, 55,r
2025-03-12 15:03:32.379,475, 476, 413, 13, 43, 46, -13, 5, 30, 979, 932, 77,r
2025-03-12 15:03:32.438,780, 689, 298, -79, 15, 22, -13, 7, 28, 978, 943, 50,r
2025-03-12 15:03:32.497,774, 195, 508, 5, -19, -19, -12, 6, 30, 978, 962, 56,r
2025-03-12 15:03:32.547,874, 345, 353, 1, 49, 11, -12, 5, 31, 973, 939, 47,r
2025-03-12 15:03:32.598,536, 459, 691, 1, -1, -15, -10, 7, 29, 970, 920, 53,r
2025-03-12 15:03:32.888,805, 428, 358, -43, -5, -8, -12, 5, 30, 969, 928, 63,s
2025-03-12 15:03:32.938,707, 513, 545, -19, -4, -8, -13, 6, 30, 970, 932, 58,s
2025-03-12 15:03:32.999,1045, 496, 424, 38, -7, -23, -13, 8, 32, 974, 941, 72,s
2025-03-12 15:03:33.051,747, 509, 274, 4, 29, 25, -12, 4, 30, 983, 948, 44,s
2025-03-12 15:03:33.108,449, 585, 654, -11, 7, 27, -12, 9, 30, 984, 947, 77,s
2025-03-12 15:03:33.165,1170, 236, 172, 26, 16, -28, -12, 6, 32, 963, 902, 55,s
2025-03-12 15:03:33.224,338, 458, 1020, -26, 22, -20, -11, 4, 28, 952, 875, 33,s
2025-03-12 15:03:33.483,681, 556, 494, -17, -13, -1, -15, 5, 29, 921, 858, 44,t
2025-03-12 15:03:33.543,667, 534, 525, -18, -20, 0, -15, 5, 29, 925, 864, 42,t
2025-03-12 15:03:33.598,740, 523, 413, -17, -19, 1, -12, 4, 32, 940, 901, 62,t
2025-03-12 15:03:33.657,689, 301, 574, 29, -4, -14, -12, 4, 33, 960, 918, 42,t
2025-03-12 15:03:33.714,1197, 1255, 134, -5, 44, 72, -13, 3, 33, 980, 927, 60,t
2025-03-12 15:03:33.769,600, 248, 696, -16, 7, 11, -10, 6, 29, 975, 936, 41,t
2025-03-12 15:03:33.823,574, 650, 614, 14, -47, -47, -12, 5, 30, 960, 918, 54,t
2025-03-12 15:03:33.880,1051, 981, 250, -8, -10, 28, -14, 3, 32, 983, 958, 54,t
2025-03-12 15:03:33.931,808, 249, 520, 8, 22, 12, -13, 3, 30, 977, 937, 65,t
2025-03-12 15:03:34.217,690, 557, 474, -4, -1, 7, -13, 6, 30, 948, 855, 35,u
2025-03-12 15:03:34.268,680, 554, 474, -4, -2, 7, -13, 6, 30, 949, 855, 33,u
2025-03-12 15:03:34.322,631, 521, 537, 6, -27, 9, -10, 1, 32, 953, 872, 38,u
2025-03-12 15:03:34.381,704, 337, 414, -1, 3, -9, -14, 4, 32, 970, 904, 47,u
2025-03-12 15:03:34.433,822, 1092, 84, -30, 33, 67, -13, 5, 30, 982, 925, 41,u
2025-03-12 15:03:34.493,680, 219, 694, -33, -8, 9, -11, 8, 31, 982, 950, 55,u
2025-03-12 15:03:34.548,797, 447, 604, 29, -20, -25, -13, 6, 32, 977, 946, 50,u
2025-03-12 15:03:34.598,812, 443, 424, -17, 29, 42, -12, 7, 31, 983, 940, 56,u
2025-03-12 15:03:34.662,786, 512, 262, -14, 28, -55, -11, 6, 29, 976, 922, 50,u
2025-03-12 15:03:34.877,711, 549, 477, -1, -2, 0, -12, 4, 26, 898, 722, 30,v
2025-03-12 15:03:34.938,717, 543, 485, -1, -2, 0, -14, 6, 28, 901, 730, 51,v
2025-03-12 15:03:34.993,727, 526, 476, -4, -1, 0, -12, 4, 29, 900, 733, 28,v
2025-03-12 15:03:35.047,706, 532, 489, -1, -2, -1, -11, 5, 29, 900, 741, 56,v
2025-03-12 15:03:35.097,720, 524, 469, -3, -3, -1, -11, 4, 29, 899, 733, 34,v
2025-03-12 15:03:35.157,714, 539, 475, -5, -3, -3, -12, 3, 30, 901, 746, 62,v
2025-03-12 15:03:35.211,705, 526, 505, -6, -6, -1, -10, 4, 30, 900, 758, 75,v
2025-03-12 15:03:35.268,678, 533, 480, 3, -10, -1, -10, 3, 29, 903, 787, 26,v
2025-03-12 15:03:35.318,655, 520, 490, 4, -18, -5, -12, 3, 30, 909, 838, 56,v
2025-03-12 15:03:35.379,732, 747, 638, -50, -8, -10, -12, 3, 32, 953, 902, 66,v
2025-03-12 15:03:35.431,1085, 940, 376, 33, 33, 52, -14, 5, 29, 978, 916, 47,v
2025-03-12 15:03:35.493,850, 727, 172, -46, 17, 30, -12, 5, 31, 984, 942, 34,v
2025-03-12 15:03:35.545,681, 297, 753, 9, -16, -14, -12, 6, 32, 977, 959, 75,v
2025-03-12 15:03:35.598,881, 602, 166, -20, 84, -23, -11, 7, 31, 956, 906, 67,v
2025-03-12 15:03:35.897,715, 520, 467, 9, -3, 5, -10, 5, 29, 943, 855, 442,w
2025-03-12 15:03:35.947,724, 535, 457, 9, -4, 3, -12, 5, 30, 945, 857, 455,w
2025-03-12 15:03:36.011,667, 561, 465, -2, -9, -5, -10, 4, 30, 948, 882, 495,w
2025-03-12 15:03:36.070,697, 418, 427, -27, -10, -13, -12, 4, 31, 964, 922, 303,w
2025-03-12 15:03:36.127,840, 371, 543, -40, 25, 41, -12, 5, 29, 983, 936, 53,w
2025-03-12 15:03:36.178,810, 333, 744, -34, -1, 13, -12, 6, 29, 980, 944, 65,w
2025-03-12 15:03:36.238,704, 344, 665, 36, -18, -19, -12, 8, 30, 976, 939, 45,w
2025-03-12 15:03:36.294,698, 602, 221, -19, 10, 21, -12, 7, 29, 979, 941, 26,w
2025-03-12 15:03:36.348,870, 354, 248, 24, -14, -23, -11, 5, 30, 973, 939, 83,w
2025-03-12 15:03:36.410,596, 597, 672, -6, 37, -23, -11, 4, 27, 957, 897, 79,w
2025-03-12 15:03:36.647,761, 497, 437, 0, -8, 5, -14, 6, 30, 945, 860, 74,x
2025-03-12 15:03:36.699,770, 505, 427, 0, -6, 4, -11, 6, 31, 948, 862, 72,x
2025-03-12 15:03:36.759,749, 510, 449, -8, 2, 0, -13, 6, 32, 947, 864, 49,x
2025-03-12 15:03:36.812,746, 525, 438, -10, -4, 0, -12, 4, 30, 952, 879, 73,x
2025-03-12 15:03:36.867,740, 516, 475, -20, -3, -4, -11, 6, 32, 961, 903, 53,x
2025-03-12 15:03:36.926,674, 405, 582, 35, -9, -15, -11, 4, 31, 966, 920, 46,x
2025-03-12 15:03:36.980,527, 654, 186, 24, 35, 13, -13, 5, 30, 967, 902, 34,x
2025-03-12 15:03:37.037,651, 93, 765, 27, -24, -71, -10, 5, 30, 932, 896, 63,x
2025-03-12 15:03:37.088,924, 747, 527, -21, -30, 4, -11, 4, 30, 977, 939, 46,x
2025-03-12 15:03:37.148,635, 375, 517, 6, 23, 34, -12, 4, 31, 975, 932, 54,x
2025-03-12 15:03:37.425,695, 531, 477, -2, -1, 5, -12, 4, 28, 951, 902, 69,y
2025-03-12 15:03:37.478,701, 547, 487, -3, -2, 6, -12, 3, 29, 951, 901, 54,y
2025-03-12 15:03:37.527,722, 509, 469, -4, -3, 0, -12, 5, 30, 953, 905, 66,y
2025-03-12 15:03:37.588,676, 480, 510, 3, -24, -4, -12, 4, 30, 957, 912, 33,y
2025-03-12 15:03:37.643,832, 588, 300, 28, -1, -9, -13, 5, 32, 975, 928, 72,y
2025-03-12 15:03:37.697,753, 285, 314, -35, 39, 52, -14, 6, 31, 982, 944, 57,y
2025-03-12 15:03:37.758,606, 431, 622, 29, -17, -38, -11, 7, 29, 969, 937, 44,y
2025-03-12 15:03:37.811,487, 854, 361, 0, 11, 8, -11, 3, 30, 979, 944, 49,y
2025-03-12 15:03:37.868,681, 668, 267, -27, 33, 32, -11, 5, 30, 978, 922, 52,y
2025-03-12 15:03:37.920,883, 501, 264, -7, 18, -65, -8, 4, 30, 955, 889, 48,y
2025-03-12 15:03:38.207,969, 368, 398, 12, -10, -24, -12, 4, 30, 947, 888, 55,z
2025-03-12 15:03:38.272,755, 638, 336, -9, -10, -19, -12, 6, 33, 955, 901, 56,z
2025-03-12 15:03:38.327,476, 796, 264, -30, 5, 40, -13, 4, 32, 980, 953, 60,z
2025-03-12 15:03:38.381,439, 479, 472, 52, 16, 11, -11, 5, 31, 978, 932, 43,z
2025-03-12 15:03:38.438,763, 760, 48, -19, 13, -3, -12, 4, 31, 974, 917, 61,z
2025-03-12 15:03:38.495,697, 678, 332, -27, 13, 50, -12, 5, 30, 982, 955, 46,z
2025-03-12 15:03:38.549,776, 119, 455, 15, 14, -43, -13, 8, 29, 970, 927, 44,z
2025-03-12 15:03:38.597,670, 613, 625, 28, -55, -9, -12, 5, 30, 964, 913, 210,z
2025-03-12 15:03:38.664,774, 726, 110, -25, 7, 37, -12, 6, 30, 982, 957, 67,z
2025-03-12 15:03:38.714,885, 273, 212, -3, 50, -38, -10, 6, 30, 972, 925, 80,z
2025-03-12 15:03:38.997,570, 665, 511, 2, -15, -64, -10, -1, 29, 753, 432, 67,0
2025-03-12 15:03:39.051,560, 687, 507, 7, -17, -59, -10, 0, 27, 760, 453, 54,0
2025-03-12 15:03:39.111,558, 738, 414, 32, -28, -35, -11, -3, 30, 781, 569, 259,0
2025-03-12 15:03:39.161,553, 704, 409, 9, -4, 13, -13, -2, 30, 802, 567, 356,0
2025-03-12 15:03:39.222,576, 757, 383, 12, 0, 11, -13, -5, 29, 812, 580, 406,0
2025-03-12 15:03:39.278,597, 751, 369, 10, 2, 2, -13, -5, 30, 827, 611, 429,0
2025-03-12 15:03:39.334,639, 699, 277, 4, -5, 8, -14, -3, 31, 835, 632, 437,0
2025-03-12 15:03:39.392,516, 597, 397, -14, 3, 48, -13, -1, 30, 841, 633, 380,0
2025-03-12 15:03:39.447,685, 345, 443, -10, 3, 53, -13, -3, 32, 857, 669, 383,0
2025-03-12 15:03:39.497,796, 688, 433, -10, 5, 25, -12, 2, 33, 863, 670, 362,0
2025-03-12 15:03:39.562,730, 617, 281, -25, 34, 12, -12, 2, 29, 885, 699, 409,0
2025-03-12 15:03:39.618,646, 557, 806, 1, -13, 21, -11, 2, 28, 914, 763, 407,0
2025-03-12 15:03:39.675,642, 526, 382, -6, 5, 15, -11, 4, 29, 932, 823, 408,0
2025-03-12 15:03:39.728,754, 568, 325, -11, -13, 2, -11, 4, 30, 944, 863, 510,0
2025-03-12 15:03:39.787,799, 334, 509, -32, -16, -26, -13, 2, 30, 954, 921, 241,0
2025-03-12 15:03:39.843,1343, 939, 79, 69, 38, 4, -10, 3, 32, 974, 909, 58,0
2025-03-12 15:03:39.898,576, 596, 928, -78, 6, 41, -12, 5, 29, 977, 936, 39,0
2025-03-12 15:03:39.958,1006, 272, 446, 78, -29, -40, -12, 3, 29, 965, 930, 324,0
2025-03-12 15:03:40.011,696, 541, 454, -20, 67, -28, -11, 3, 27, 953, 898, 424,0
2025-03-12 15:03:40.068,498, 659, 660, -3, -16, 14, -11, 3, 27, 947, 839, 285,0
2025-03-12 15:03:40.130,809, 560, 319, 1, -41, 6, -11, 2, 30, 944, 824, 333,0
2025-03-12 15:03:40.178,762, 525, 430, -10, 4, -8, -11, 4, 30, 930, 809, 320,0
2025-03-12 15:03:40.428,721, 555, 415, 0, -4, 0, -11, 4, 30, 931, 827, 293,1
2025-03-12 15:03:40.493,733, 562, 416, -2, -4, -1, -13, 4, 29, 934, 834, 320,1
2025-03-12 15:03:40.543,658, 523, 500, 10, -4, 2, -11, 3, 31, 938, 838, 332,1
2025-03-12 15:03:40.597,802, 551, 260, -7, -2, -8, -10, 3, 32, 953, 876, 45,1
2025-03-12 15:03:40.662,812, 630, 384, -19, -15, 18, -12, 4, 32, 969, 932, 203,1
2025-03-12 15:03:40.717,640, 348, 731, 52, -17, -13, -13, 6, 30, 977, 937, 259,1
2025-03-12 15:03:40.776,707, 749, -44, 11, 42, 46, -13, 4, 31, 982, 931, 74,1
2025-03-12 15:03:40.828,669, 175, 639, 13, 25, -47, -12, 5, 30, 971, 900, 28,1
2025-03-12 15:03:40.887,609, 1055, 560, 41, -13, -23, -12, 3, 31, 975, 915, 69,1
2025-03-12 15:03:40.944,846, 600, 507, -21, 16, 48, -10, 4, 30, 980, 940, 76,1
2025-03-12 15:03:41.219,758, 556, 406, -5, -8, 5, -13, 4, 30, 956, 893, 218,2
2025-03-12 15:03:41.280,755, 553, 429, -8, -7, 5, -13, 4, 31, 956, 893, 172,2
2025-03-12 15:03:41.329,740, 562, 388, -5, 9, -2, -11, 5, 29, 958, 893, 209,2
2025-03-12 15:03:41.388,680, 541, 505, -3, -4, 2, -11, 7, 28, 957, 892, 71,2
2025-03-12 15:03:41.443,741, 510, 417, 1, 6, -3, -11, 4, 31, 957, 891, 199,2
2025-03-12 15:03:41.497,707, 559, 459, -5, -1, 0, -14, 6, 30, 958, 888, 212,2
2025-03-12 15:03:41.547,728, 513, 448, 7, 3, -2, -12, 5, 30, 953, 882, 218,2
2025-03-12 15:03:41.608,709, 541, 444, 11, 2, -7, -11, 3, 29, 949, 864, 307,2
2025-03-12 15:03:41.660,658, 560, 459, 20, -5, -15, -10, 3, 29, 938, 853, 369,2
2025-03-12 15:03:41.720,958, 340, 186, -44, -6, -13, -13, 4, 31, 956, 895, 51,2
2025-03-12 15:03:41.777,657, 752, 404, -11, -8, 15, -13, 3, 30, 973, 939, 231,2
2025-03-12 15:03:41.828,513, 610, 454, 28, 30, 25, -12, 4, 31, 975, 917, 233,2
2025-03-12 15:03:41.890,915, 510, 365, -32, 7, -2, -12, 3, 31, 973, 912, 66,2
2025-03-12 15:03:41.944,708, 249, 511, -32, 9, 40, -12, 1, 31, 983, 954, 64,2
2025-03-12 15:03:41.999,856, 348, 275, 2, 42, -34, -12, 4, 30, 971, 918, 55,2
2025-03-12 15:03:42.278,729, 583, 445, -10, -1, 2, -13, 3, 29, 935, 853, 63,3
2025-03-12 15:03:42.338,734, 593, 440, -12, -1, 3, -11, 2, 31, 934, 854, 42,3
2025-03-12 15:03:42.392,684, 537, 487, -4, -9, 4, -13, 4, 29, 940, 863, 119,3
2025-03-12 15:03:42.447,725, 568, 433, 1, -2, -4, -13, 3, 30, 943, 876, 242,3
2025-03-12 15:03:42.501,659, 572, 475, 6, -8, -8, -13, 2, 31, 942, 880, 355,3
2025-03-12 15:03:42.558,808, 354, 290, 4, -8, -16, -10, 3, 33, 962, 906, 50,3
2025-03-12 15:03:42.611,645, 634, 461, -12, 7, 13, -13, 4, 31, 975, 942, 43,3
2025-03-12 15:03:42.662,606, 479, 484, 22, 7, 4, -13, 4, 30, 976, 938, 241,3
2025-03-12 15:03:42.720,852, 493, 453, -4, 6, -5, -13, 3, 32, 977, 934, 67,3
2025-03-12 15:03:42.775,712, 844, 516, 12, 15, 12, -12, 4, 30, 980, 936, 66,3
2025-03-12 15:03:42.828,903, 607, 155, 32, 19, 9, -12, 5, 29, 966, 908, 84,3
2025-03-12 15:03:42.888,824, 671, 293, -45, 51, -39, -10, 2, 31, 916, 892, 419,3
2025-03-12 15:03:43.152,734, 484, 449, -21, -8, -3, -12, 1, 32, 965, 930, 42,4
2025-03-12 15:03:43.213,715, 510, 449, -11, -7, -4, -13, 4, 31, 968, 933, 45,4
2025-03-12 15:03:43.261,479, 474, 532, 39, 16, -7, -12, 4, 33, 974, 919, 48,4
2025-03-12 15:03:43.318,931, 655, 124, 2, 8, 6, -12, 3, 33, 981, 916, 80,4
2025-03-12 15:03:43.370,652, 617, 323, -54, 13, 49, -13, 4, 31, 984, 955, 53,4
2025-03-12 15:03:43.426,652, 397, 451, 21, 7, 0, -14, 4, 30, 973, 941, 76,4
2025-03-12 15:03:43.487,458, 682, 741, 25, -28, -13, -12, 3, 30, 965, 924, 612,4
2025-03-12 15:03:43.544,957, 1227, 193, 10, 31, 24, -13, 1, 32, 984, 929, 270,4
2025-03-12 15:03:43.597,766, 621, 372, 11, 18, 16, -12, 4, 30, 975, 892, 150,4
2025-03-12 15:03:43.848,692, 544, 460, -1, -1, -3, -12, 4, 29, 953, 901, 419,5
2025-03-12 15:03:43.898,691, 551, 451, -1, -2, -3, -13, 3, 27, 951, 895, 405,5
2025-03-12 15:03:43.961,593, 538, 558, 8, -19, 1, -10, 3, 29, 944, 891, 440,5
2025-03-12 15:03:44.021,820, 918, 394, -21, -11, -9, -12, 4, 33, 965, 922, 175,5
2025-03-12 15:03:44.074,556, 392, 489, -27, 2, 16, -13, 4, 30, 977, 955, 73,5
2025-03-12 15:03:44.128,407, 509, 497, 52, -4, -21, -12, 4, 32, 968, 935, 371,5
2025-03-12 15:03:44.188,1101, 731, -17, 19, 37, 13, -13, 4, 32, 979, 933, 74,5
2025-03-12 15:03:44.242,515, 572, 370, -9, 25, 28, -12, 5, 30, 986, 938, 59,5
2025-03-12 15:03:44.298,740, 305, 442, 53, 11, -17, -9, 3, 31, 962, 901, 78,5
2025-03-12 15:03:44.585,684, 579, 450, -2, -15, 13, -10, 1, 31, 937, 884, 348,6
2025-03-12 15:03:44.643,684, 569, 595, -1, -18, 16, -11, 4, 30, 938, 886, 345,6
2025-03-12 15:03:44.698,772, 501, 326, -10, -3, -6, -10, 2, 30, 951, 905, 107,6
2025-03-12 15:03:44.758,604, 338, 632, 39, -13, -28, -11, 3, 31, 961, 919, 52,6
2025-03-12 15:03:44.808,918, 993, -442, -5, 53, 42, -12, 3, 32, 982, 918, 50,6
2025-03-12 15:03:44.867,566, 376, 810, -49, 0, 15, -11, 4, 28, 981, 946, 82,6
2025-03-12 15:03:44.925,905, 583, 179, 43, -1, -42, -13, 3, 31, 947, 906, 36,6
2025-03-12 15:03:44.979,672, 684, 496, -47, 54, -13, -9, 3, 28, 934, 895, 89,6
2025-03-12 15:03:45.219,639, 560, 508, 2, -33, 6, -12, 3, 31, 908, 849, 70,7
2025-03-12 15:03:45.278,690, 548, 390, 1, -33, 7, -11, 3, 29, 911, 858, 59,7
2025-03-12 15:03:45.329,905, 551, 388, -5, 1, 3, -12, 4, 31, 961, 918, 64,7
2025-03-12 15:03:45.380,571, 356, 670, -26, 10, 26, -12, 4, 31, 971, 943, 34,7
2025-03-12 15:03:45.441,847, 842, 397, 36, 31, 44, -12, 3, 32, 980, 926, 74,7
2025-03-12 15:03:45.493,750, 622, 247, -3, 30, 22, -12, 4, 31, 972, 905, 63,7
2025-03-12 15:03:45.547,413, 549, 802, 26, -39, -42, -10, 3, 31, 953, 882, 31,7
2025-03-12 15:03:45.598,958, 687, 351, 7, -12, 7, -12, 3, 30, 978, 946, 40,7
2025-03-12 15:03:45.658,807, 313, 398, 4, 30, 3, -11, 5, 30, 970, 919, 57,7
2025-03-12 15:03:45.938,676, 489, 486, -1, -26, 12, -11, 4, 32, 952, 857, 54,8
2025-03-12 15:03:45.998,756, 506, 413, -1, -23, 6, -11, 3, 30, 950, 871, 46,8
2025-03-12 15:03:46.059,780, 401, 660, -14, -13, -22, -12, 4, 31, 964, 920, 64,8
2025-03-12 15:03:46.110,959, 858, 218, 30, 20, 16, -11, 6, 29, 979, 923, 53,8
2025-03-12 15:03:46.171,599, 551, 679, -24, 15, 26, -10, 6, 29, 979, 945, 69,8
2025-03-12 15:03:46.228,323, 406, 568, 30, -36, -61, -11, 3, 28, 965, 947, 27,8
2025-03-12 15:03:46.282,804, 651, 360, 7, -8, -11, -11, 4, 30, 979, 959, 49,8
2025-03-12 15:03:46.337,820, 407, 395, 16, 14, 15, -12, 4, 31, 976, 945, 70,8
2025-03-12 15:03:46.628,715, 602, 532, -27, -3, -10, -12, 4, 30, 968, 936, 39,9
2025-03-12 15:03:46.682,821, 458, 604, -18, -8, -11, -13, 6, 31, 968, 938, 30,9
2025-03-12 15:03:46.744,1041, 813, 323, 46, 12, 2, -12, 3, 30, 982, 938, 56,9
2025-03-12 15:03:46.797,691, 312, 448, -28, 26, 37, -11, 5, 29, 984, 947, 48,9
2025-03-12 15:03:46.848,616, 364, 574, 24, -19, -30, -11, 4, 32, 975, 951, 69,9
2025-03-12 15:03:46.910,728, 863, 213, -14, 33, 41, -10, 6, 29, 984, 954, 47,9
2025-03-12 15:03:46.967,868, 358, 422, -2, 28, 11, -12, 5, 29, 975, 915, 64,9
2025-03-12 15:03:47.025,768, 582, 442, -16, 49, -56, -10, 4, 28, 937, 889, 84,9
2025-03-12 15:03:47.288,725, 537, 473, 4, -3, 0, -10, 3, 29, 930, 836, 73,+
2025-03-12 15:03:47.343,738, 554, 452, 2, -4, 0, -9, 4, 29, 929, 837, 74,+
2025-03-12 15:03:47.398,725, 543, 459, -5, 3, 0, -10, 5, 27, 933, 843, 143,+
2025-03-12 15:03:47.458,731, 536, 451, 0, -10, -7, -10, 3, 29, 937, 841, 139,+
2025-03-12 15:03:47.509,660, 577, 521, -15, -20, -6, -10, 3, 30, 936, 864, 309,+
2025-03-12 15:03:47.567,789, 418, 209, -13, -4, -5, -12, 4, 31, 961, 912, 184,+
2025-03-12 15:03:47.628,786, 723, 514, 13, 32, 37, -12, 3, 31, 981, 926, 73,+
2025-03-12 15:03:47.677,729, 545, 301, -7, 28, 25, -12, 4, 30, 982, 906, 67,+
2025-03-12 15:03:47.738,459, 399, 655, 52, -24, -66, -12, 4, 30, 960, 888, 51,+
2025-03-12 15:03:47.792,892, 587, 348, 12, -10, -3, -11, 3, 32, 980, 948, 52,+
2025-03-12 15:03:47.847,724, 487, 529, 14, 16, 19, -10, 5, 32, 975, 937, 235,+
2025-03-12 15:03:47.909,518, 557, 670, -15, 29, -41, -11, 4, 27, 953, 895, 429,+
2025-03-12 15:03:48.158,701, 564, 453, 1, -2, 0, -12, 4, 30, 956, 903, 589,-
2025-03-12 15:03:48.211,702, 574, 445, 1, -2, 0, -13, 6, 29, 956, 900, 585,-
2025-03-12 15:03:48.272,739, 530, 466, 4, -3, -3, -11, 3, 29, 958, 902, 607,-
2025-03-12 15:03:48.318,663, 564, 469, 2, 3, 0, -10, 4, 28, 956, 902, 597,-
2025-03-12 15:03:48.378,592, 543, 553, 23, -14, -1, -10, 3, 29, 955, 901, 587,-
2025-03-12 15:03:48.440,913, 568, 369, -17, -12, -14, -10, 4, 31, 972, 919, 53,-
2025-03-12 15:03:48.494,543, 468, -7, -53, 5, 41, -12, 5, 30, 987, 963, 74,-
2025-03-12 15:03:48.547,640, 454, 398, 54, 17, 5, -12, 5, 31, 979, 948, 389,-
2025-03-12 15:03:48.598,570, 609, 594, -37, 46, -40, -12, 2, 28, 963, 907, 559,-
2025-03-12 15:03:48.885,714, 550, 458, -3, -2, -6, -11, 1, 30, 927, 824, 451,÷
2025-03-12 15:03:48.941,714, 562, 466, -1, -3, -5, -11, 4, 30, 928, 825, 461,÷
2025-03-12 15:03:48.996,725, 583, 458, 0, -1, 2, -11, 3, 28, 929, 836, 479,÷
2025-03-12 15:03:49.048,701, 571, 451, -2, 0, 1, -12, 1, 30, 934, 846, 508,÷
2025-03-12 15:03:49.107,712, 574, 428, -1, -2, 0, -11, 3, 28, 932, 847, 509,÷
2025-03-12 15:03:49.161,705, 561, 442, -3, 0, -1, -11, 3, 30, 935, 858, 529,÷
2025-03-12 15:03:49.217,714, 548, 445, -5, -2, 0, -11, 2, 30, 937, 866, 521,÷
2025-03-12 15:03:49.269,707, 571, 447, -7, -1, -2, -13, 5, 29, 934, 867, 482,÷
2025-03-12 15:03:49.328,744, 564, 422, -7, 0, 2, -11, 4, 30, 942, 881, 512,÷
2025-03-12 15:03:49.378,672, 573, 495, -7, -5, 7, -11, 3, 30, 945, 881, 481,÷
2025-03-12 15:03:49.439,705, 521, 443, -18, -13, -2, -12, 3, 30, 958, 903, 296,÷
2025-03-12 15:03:49.492,856, 433, 582, 22, -14, -21, -12, 3, 30, 970, 932, 39,÷
2025-03-12 15:03:49.548,829, 974, -57, -38, 31, 28, -11, 3, 31, 982, 943, 49,÷
2025-03-12 15:03:49.607,816, 90, 425, 23, 72, 12, -11, 5, 30, 977, 915, 239,÷
2025-03-12 15:03:49.658,455, 445, 791, 65, -37, 14, -12, 3, 27, 966, 886, 33,÷
2025-03-12 15:03:49.718,752, 704, 242, -18, 8, 8, -10, 6, 29, 978, 916, 76,÷
2025-03-12 15:03:49.775,682, 305, 475, 12, 0, -33, -11, 5, 27, 968, 901, 74,÷
2025-03-12 15:03:49.828,726, 551, 624, 17, -43, -6, -13, 3, 28, 959, 899, 342,÷
2025-03-12 15:03:49.889,767, 609, 261, -32, -13, 21, -11, 4, 30, 983, 947, 79,÷
2025-03-12 15:03:49.941,826, 360, 413, 14, 19, 5, -13, 4, 30, 976, 932, 303,÷
2025-03-12 15:03:49.998,577, 550, 623, -5, 41, -37, -11, 5, 25, 949, 864, 491,÷
2025-03-12 15:03:50.258,681, 573, 459, -3, -5, 0, -12, 2, 29, 925, 820, 417,=
2025-03-12 15:03:50.308,672, 573, 467, -2, -5, 1, -9, 3, 29, 927, 821, 417,=
2025-03-12 15:03:50.358,698, 553, 463, 1, -8, 3, -11, 4, 29, 929, 826, 426,=
2025-03-12 15:03:50.422,731, 564, 422, -3, -5, 0, -10, 4, 29, 934, 835, 444,=
2025-03-12 15:03:50.475,708, 566, 451, 0, -2, 1, -13, 4, 30, 937, 839, 424,=
2025-03-12 15:03:50.528,718, 587, 419, -3, 0, 2, -11, 3, 31, 939, 845, 464,=
2025-03-12 15:03:50.577,708, 544, 462, -1, 0, 0, -10, 4, 29, 939, 849, 447,=
2025-03-12 15:03:50.639,719, 548, 432, 1, -2, -2, -13, 2, 30, 941, 856, 485,=
2025-03-12 15:03:50.691,718, 567, 436, 1, -2, -1, -12, 4, 30, 943, 862, 498,=
2025-03-12 15:03:50.747,729, 571, 431, -1, 0, 0, -13, 3, 30, 941, 860, 487,=
2025-03-12 15:03:50.797,699, 567, 434, 1, -1, -3, -13, 3, 32, 943, 864, 513,=
2025-03-12 15:03:50.858,667, 508, 469, 15, -8, -8, -11, 1, 29, 942, 867, 552,=
2025-03-12 15:03:50.918,747, 582, 380, -16, -5, -10, -10, 1, 30, 961, 895, 193,=
2025-03-12 15:03:50.975,309, 658, 115, -37, -1, 46, -12, 1, 32, 980, 950, 186,=
2025-03-12 15:03:51.028,664, 425, 637, 68, -4, -5, -13, 3, 30, 977, 934, 405,=
2025-03-12 15:03:51.090,593, 524, 474, 40, 13, -27, -11, 2, 32, 963, 888, 525,=
2025-03-12 15:03:51.142,969, 888, 416, -17, 1, 18, -13, 3, 30, 979, 939, 55,=
2025-03-12 15:03:51.197,721, 481, 415, 17, 13, 30, -11, 3, 29, 979, 933, 198,=
2025-03-12 15:03:51.258,628, 590, 431, -13, 59, -42, -11, 5, 27, 950, 848, 511,=
2025-03-12 15:03:51.527,693, 557, 484, -2, 0, -3, -13, 6, 26, 937, 858, 650,≠
2025-03-12 15:03:51.577,688, 563, 480, -1, -1, -2, -13, 6, 26, 936, 858, 654,≠
2025-03-12 15:03:51.639,710, 561, 435, -3, -2, -2, -12, 3, 29, 941, 859, 657,≠
2025-03-12 15:03:51.691,703, 592, 451, -6, -1, -2, -9, 2, 30, 944, 866, 653,≠
2025-03-12 15:03:51.747,706, 572, 440, -3, -1, 1, -11, 3, 30, 949, 873, 653,≠
2025-03-12 15:03:51.798,705, 565, 448, -5, -1, 0, -11, 4, 28, 949, 878, 630,≠
2025-03-12 15:03:51.858,708, 560, 445, -7, -3, -1, -11, 4, 29, 949, 876, 571,≠
2025-03-12 15:03:51.908,708, 573, 451, -5, -1, 1, -9, 2, 31, 955, 886, 582,≠
2025-03-12 15:03:51.959,708, 566, 456, 1, -3, 2, -11, 3, 29, 956, 890, 603,≠
2025-03-12 15:03:52.023,706, 551, 479, 4, -3, -1, -12, 3, 29, 956, 891, 614,≠
2025-03-12 15:03:52.075,733, 567, 414, 0, -4, -5, -12, 2, 30, 956, 893, 631,≠
2025-03-12 15:03:52.128,714, 553, 448, -2, 0, -2, -10, 2, 31, 954, 889, 618,≠
2025-03-12 15:03:52.187,736, 573, 426, -3, -3, -1, -11, 3, 31, 958, 898, 655,≠
2025-03-12 15:03:52.242,699, 530, 356, -10, -6, 1, -10, 3, 29, 956, 906, 672,≠
2025-03-12 15:03:52.297,652, 545, 605, -13, -37, -1, -10, 2, 30, 963, 924, 624,≠
2025-03-12 15:03:52.358,650, 630, 245, 16, 2, -12, -12, 6, 31, 965, 916, 373,≠
2025-03-12 15:03:52.409,695, 576, 368, 4, 7, -1, -12, 3, 32, 965, 901, 386,≠
2025-03-12 15:03:52.468,699, 565, 442, -6, -8, -10, -13, 4, 33, 970, 912, 198,≠
2025-03-12 15:03:52.527,1119, 881, 385, 17, -13, 19, -12, 2, 32, 985, 952, 228,≠
2025-03-12 15:03:52.578,505, 352, 471, -6, 7, 28, -14, 4, 32, 985, 953, 48,≠
2025-03-12 15:03:52.637,640, 509, 350, 37, 40, -5, -13, 4, 31, 973, 920, 462,≠
2025-03-12 15:03:52.697,1389, 584, 418, 10, -12, -32, -12, 3, 31, 971, 903, 506,≠
2025-03-12 15:03:52.747,815, 844, 15, -46, 17, 61, -13, 2, 33, 985, 952, 55,≠
2025-03-12 15:03:52.807,812, 319, 345, -9, 11, 2, -13, 4, 30, 977, 938, 213,≠
2025-03-12 15:03:52.858,516, 613, 780, 14, -52, -8, -12, 4, 30, 971, 929, 639,≠
2025-03-12 15:03:52.918,673, 802, 26, 37, -9, -4, -12, 4, 32, 985, 938, 442,≠
2025-03-12 15:03:52.977,1129, 645, 226, 21, 50, 24, -12, 3, 31, 979, 902, 233,≠
2025-03-12 15:03:53.027,1035, 350, 291, -56, 38, -42, -12, 3, 29, 952, 847, 554,≠
2025-03-12 15:03:53.322,736, 574, 415, 46, 9, 4, -9, 1, 29, 844, 41, 726,≈
2025-03-12 15:03:53.374,712, 573, 408, 50, 11, 4, -9, 1, 30, 843, 59, 724,≈
2025-03-12 15:03:53.427,702, 611, 409, 43, 4, 3, -10, -1, 30, 831, 61, 747,≈
2025-03-12 15:03:53.480,676, 639, 395, 23, 1, 5, -10, 0, 29, 819, 59, 765,≈
2025-03-12 15:03:53.540,717, 610, 371, 2, 1, -1, -10, -1, 28, 834, 59, 781,≈
2025-03-12 15:03:53.590,683, 599, 396, -5, 0, 2, -9, 0, 28, 866, 72, 794,≈
2025-03-12 15:03:53.645,668, 642, 381, -30, -8, -3, -11, -1, 29, 889, 53, 774,≈
2025-03-12 15:03:53.698,729, 611, 375, -2, -4, 0, -11, 0, 30, 905, 413, 764,≈
2025-03-12 15:03:53.756,715, 605, 407, -23, 1, 1, -10, 1, 29, 913, 529, 760,≈
2025-03-12 15:03:53.807,700, 593, 396, -31, 6, 6, -10, 2, 29, 933, 585, 723,≈
2025-03-12 15:03:53.866,714, 571, 437, -24, -1, 5, -11, 1, 29, 941, 711, 686,≈
2025-03-12 15:03:53.923,696, 572, 437, -17, 0, 1, -10, 1, 31, 944, 767, 694,≈
2025-03-12 15:03:53.973,674, 558, 487, -6, 0, 4, -11, 5, 29, 949, 807, 706,≈
2025-03-12 15:03:54.027,667, 567, 463, 2, -1, 1, -12, 3, 28, 953, 830, 694,≈
2025-03-12 15:03:54.088,779, 656, 270, -15, -9, -8, -11, 3, 29, 962, 907, 598,≈
2025-03-12 15:03:54.140,826, 524, 315, -13, -23, 4, -11, 2, 31, 975, 947, 703,≈
2025-03-12 15:03:54.197,666, 734, 369, 18, 2, 11, -12, 1, 30, 979, 948, 675,≈
2025-03-12 15:03:54.256,778, 620, 363, -6, 20, 14, -10, 3, 29, 973, 933, 684,≈
2025-03-12 15:03:54.307,479, 574, 708, 7, 33, -16, -11, 3, 26, 967, 896, 642,≈
2025-03-12 15:03:54.368,650, 575, 480, 28, -32, -2, -8, 1, 27, 958, 824, 622,≈
2025-03-12 15:03:54.424,783, 471, 224, -27, 0, -4, -8, 3, 29, 969, 930, 419,≈
2025-03-12 15:03:54.478,823, 370, 436, -12, -15, 11, -12, 3, 30, 979, 960, 589,≈
2025-03-12 15:03:54.539,704, 518, 185, 7, 5, 15, -12, 5, 30, 981, 962, 401,≈
2025-03-12 15:03:54.593,892, 309, 414, -19, 29, -23, -13, 5, 26, 975, 949, 552,≈
2025-03-12 15:03:54.647,548, 478, 734, -7, 15, -17, -11, 1, 25, 960, 922, 630,≈
2025-03-12 15:03:54.866,679, 569, 460, -1, -1, -1, -11, 2, 28, 929, 776, 503,<
2025-03-12 15:03:54.918,691, 565, 465, -1, -2, -1, -10, 1, 28, 930, 779, 503,<
2025-03-12 15:03:54.973,704, 561, 460, -4, 0, -3, -11, 2, 28, 932, 793, 521,<
2025-03-12 15:03:55.029,713, 562, 464, -3, -2, -4, -12, 2, 27, 931, 784, 493,<
2025-03-12 15:03:55.078,704, 562, 448, -2, -5, -9, -10, 2, 28, 931, 782, 487,<
2025-03-12 15:03:55.140,714, 574, 483, 6, -10, -16, -12, 3, 27, 927, 776, 487,<
2025-03-12 15:03:55.198,704, 583, 442, 4, -18, -31, -9, 0, 29, 928, 765, 485,<
2025-03-12 15:03:55.255,586, 705, 403, -5, -1, 5, -12, 0, 29, 934, 778, 467,<
2025-03-12 15:03:55.308,673, 597, 430, 2, -14, 24, -12, 1, 29, 946, 829, 442,<
2025-03-12 15:03:55.365,703, 617, 386, -4, 2, 11, -11, 0, 30, 949, 859, 468,<
2025-03-12 15:03:55.423,739, 633, 355, -9, -7, 8, -11, 5, 30, 953, 888, 540,<
2025-03-12 15:03:55.478,640, 407, 559, 16, -39, 10, -12, 2, 30, 964, 938, 501,<
2025-03-12 15:03:55.538,836, 442, 414, 20, -2, -20, -13, 4, 30, 977, 948, 130,<
2025-03-12 15:03:55.590,1174, 702, 442, 7, 23, -1, -13, 3, 32, 979, 902, 59,<
2025-03-12 15:03:55.647,1070, 816, 299, -55, 30, 68, -12, 4, 32, 986, 956, 51,<
2025-03-12 15:03:55.698,675, 401, 496, 5, 10, 10, -12, 5, 30, 981, 956, 64,<
2025-03-12 15:03:55.758,712, 597, 312, -15, 64, -50, -10, 4, 28, 957, 901, 275,<
2025-03-12 15:03:55.817,530, 600, 723, 8, -9, -8, -10, 2, 25, 921, 851, 453,<
2025-03-12 15:03:55.868,742, 599, 417, 21, -31, 8, -9, 2, 28, 924, 829, 406,<
2025-03-12 15:03:55.924,779, 580, 330, -12, 3, -6, -12, 1, 28, 921, 804, 325,<
2025-03-12 15:03:56.198,702, 565, 465, 5, -10, 3, -11, 4, 30, 928, 811, 287,≤
2025-03-12 15:03:56.248,719, 572, 451, 4, -9, 4, -11, 3, 27, 929, 814, 303,≤
2025-03-12 15:03:56.305,716, 574, 427, -1, -6, 3, -12, 1, 27, 929, 819, 289,≤
2025-03-12 15:03:56.358,729, 553, 436, -7, -3, 1, -12, 4, 29, 931, 824, 223,≤
2025-03-12 15:03:56.407,711, 555, 452, -6, -3, 0, -11, 4, 29, 933, 834, 207,≤
2025-03-12 15:03:56.471,712, 547, 462, -6, -7, 0, -13, 3, 31, 939, 842, 187,≤
2025-03-12 15:03:56.524,743, 545, 415, -4, -3, 0, -12, 4, 31, 945, 852, 211,≤
2025-03-12 15:03:56.578,680, 552, 505, 2, -11, 2, -12, 3, 31, 948, 873, 218,≤
2025-03-12 15:03:56.630,813, 496, 303, 5, -9, -8, -13, 2, 30, 954, 892, 205,≤
2025-03-12 15:03:56.689,734, 579, 467, -2, 1, -4, -13, 4, 30, 964, 927, 66,≤
2025-03-12 15:03:56.741,730, 543, 410, -6, 0, 0, -12, 2, 31, 965, 940, 41,≤
2025-03-12 15:03:56.790,725, 559, 447, -9, 0, 0, -13, 4, 32, 969, 949, 58,≤
2025-03-12 15:03:56.848,661, 506, 551, 7, -8, -7, -12, 3, 34, 971, 939, 35,≤
2025-03-12 15:03:56.905,1040, 359, 317, 52, 9, -17, -13, 3, 32, 973, 887, 74,≤
2025-03-12 15:03:56.958,939, 769, 561, -23, 11, 31, -11, 2, 32, 982, 947, 42,≤
2025-03-12 15:03:57.007,716, 520, 547, 8, 5, 15, -11, 5, 29, 985, 965, 33,≤
2025-03-12 15:03:57.068,814, 426, 315, 38, 47, -9, -13, 5, 30, 971, 913, 338,≤
2025-03-12 15:03:57.127,2053, 84, 119, 2, -6, -14, -11, 2, 29, 970, 905, 230,≤
2025-03-12 15:03:57.178,645, 516, 363, -34, 2, 30, -10, 3, 30, 983, 963, 200,≤
2025-03-12 15:03:57.240,887, 470, 187, -15, 61, -45, -12, 5, 28, 964, 890, 317,≤
2025-03-12 15:03:57.512,748, 583, 400, -11, -11, -3, -12, 4, 29, 928, 826, 434,>
2025-03-12 15:03:57.568,743, 585, 401, -13, -7, -2, -11, 1, 31, 928, 832, 426,>
2025-03-12 15:03:57.623,711, 576, 416, -5, -6, -3, -12, 2, 30, 937, 842, 385,>
2025-03-12 15:03:57.677,659, 561, 473, -3, -7, -2, -11, 3, 30, 943, 835, 343,>
2025-03-12 15:03:57.737,785, 555, 452, 8, -16, -29, -12, 3, 33, 952, 873, 54,>
2025-03-12 15:03:57.798,1126, 1071, 108, 14, -2, 33, -12, 3, 32, 976, 952, 306,>
2025-03-12 15:03:57.847,522, 391, 699, 10, -1, 2, -13, 3, 33, 982, 959, 281,>
2025-03-12 15:03:57.905,393, 494, 239, 19, 29, -3, -13, 3, 33, 982, 945, 52,>
2025-03-12 15:03:57.958,780, 589, 236, -4, 42, 10, -11, 3, 33, 973, 909, 70,>
2025-03-12 15:03:58.017,484, 657, 548, -11, 47, -29, -11, 4, 28, 950, 872, 452,>
2025-03-12 15:03:58.077,646, 664, 497, 13, -13, 9, -12, 3, 28, 944, 826, 357,>
2025-03-12 15:03:58.127,799, 589, 296, -5, -2, 0, -11, 2, 28, 944, 813, 317,>
2025-03-12 15:03:58.188,706, 568, 474, -8, -3, -1, -12, 1, 28, 946, 807, 229,>
2025-03-12 15:03:58.238,716, 578, 424, -8, 1, -6, -11, 3, 29, 939, 778, 57,>
2025-03-12 15:03:58.289,689, 579, 456, -7, 2, -4, -12, 3, 29, 936, 768, 86,>
2025-03-12 15:03:59.105,698, 570, 443, -2, 0, 0, -10, 2, 27, 934, 819, 183,≥
2025-03-12 15:03:59.158,700, 566, 441, -2, 0, 0, -12, 1, 30, 933, 822, 198,≥
2025-03-12 15:03:59.208,693, 567, 457, -2, 0, 0, -11, 2, 29, 933, 819, 177,≥
2025-03-12 15:03:59.269,702, 560, 454, -3, -2, -2, -11, 2, 28, 935, 825, 201,≥
2025-03-12 15:03:59.323,692, 572, 454, -4, -2, -2, -10, 3, 29, 934, 829, 191,≥
2025-03-12 15:03:59.378,710, 563, 448, -6, -3, -1, -11, 3, 29, 936, 839, 212,≥
2025-03-12 15:03:59.438,696, 562, 456, -3, -3, -1, -11, 5, 29, 940, 854, 232,≥
2025-03-12 15:03:59.492,714, 556, 445, -3, -5, -3, -12, 4, 29, 943, 862, 303,≥
2025-03-12 15:03:59.547,587, 552, 584, 7, -24, -1, -12, 4, 27, 946, 876, 267,≥
2025-03-12 15:03:59.606,778, 726, 392, 2, -13, -15, -12, 3, 32, 963, 918, 35,≥
2025-03-12 15:03:59.658,645, 401, 350, -20, 11, 35, -11, 4, 30, 983, 961, 85,≥
2025-03-12 15:03:59.708,399, 673, 370, 44, 16, 5, -13, 4, 31, 982, 955, 77,≥
2025-03-12 15:03:59.768,846, 761, 67, 20, 43, 7, -13, 3, 30, 968, 884, 44,≥
2025-03-12 15:03:59.822,258, 565, 841, 8, 44, -6, -11, 4, 29, 960, 829, 68,≥
2025-03-12 15:03:59.884,738, 1307, 374, 109, -33, -12, -11, 4, 28, 977, 943, 311,≥
2025-03-12 15:03:59.938,731, 310, 341, -14, 8, 23, -11, 4, 31, 982, 957, 49,≥
2025-03-12 15:03:59.992,693, 619, 242, -15, 73, -51, -10, 4, 29, 959, 887, 226,≥
2025-03-12 15:04:00.277,702, 575, 426, -7, -12, -3, -11, 3, 27, 903, 785, 32,±
2025-03-12 15:04:00.338,716, 556, 436, -7, -12, -5, -11, 3, 27, 905, 788, 34,±
2025-03-12 15:04:00.395,704, 580, 425, -7, -8, -3, -11, 2, 27, 913, 815, 65,±
2025-03-12 15:04:00.448,699, 554, 466, -2, -3, -2, -11, 3, 27, 916, 829, 78,±
2025-03-12 15:04:00.505,687, 563, 451, 3, -8, -1, -12, 1, 29, 923, 832, 160,±
2025-03-12 15:04:00.557,712, 574, 441, -1, -8, -1, -11, 2, 30, 931, 843, 223,±
2025-03-12 15:04:00.608,708, 576, 425, 0, -4, 0, -11, 4, 30, 939, 858, 256,±
2025-03-12 15:04:00.670,716, 589, 426, -2, -3, 1, -12, 4, 30, 944, 868, 343,±
2025-03-12 15:04:00.722,687, 581, 413, -1, 0, 1, -12, 3, 29, 947, 871, 247,±
2025-03-12 15:04:00.772,708, 562, 425, 0, -3, -3, -12, 2, 30, 947, 874, 312,±
2025-03-12 15:04:00.827,717, 574, 439, 3, -4, -8, -12, 3, 30, 947, 875, 368,±
2025-03-12 15:04:00.889,686, 586, 438, -11, 3, -5, -14, 4, 30, 948, 880, 247,±
2025-03-12 15:04:00.939,689, 568, 433, -1, -6, -4, -13, 2, 31, 950, 873, 191,±
2025-03-12 15:04:00.998,697, 599, 421, 10, -2, -5, -11, 2, 31, 948, 860, 83,±
2025-03-12 15:04:01.058,779, 645, 486, 41, -17, -23, -11, 3, 30, 963, 907, 51,±
2025-03-12 15:04:01.108,732, 408, 66, -24, 2, 31, -12, 3, 34, 978, 955, 41,±
2025-03-12 15:04:01.165,642, 447, 457, 7, 14, 16, -12, 4, 30, 969, 939, 321,±
2025-03-12 15:04:01.222,568, 636, 583, 2, -21, -16, -13, 2, 30, 946, 920, 623,±
2025-03-12 15:04:01.277,809, 856, 83, 12, -1, 1, -11, 5, 30, 977, 940, 364,±
2025-03-12 15:04:01.328,518, 422, 421, -9, 44, 34, -12, 3, 31, 972, 899, 58,±
2025-03-12 15:04:01.389,393, 612, 758, 27, -19, -3, -11, 2, 32, 959, 878, 55,±
2025-03-12 15:04:01.438,1020, 960, 458, 6, -3, 28, -11, 3, 31, 979, 960, 44,±
2025-03-12 15:04:01.498,836, 444, 376, -6, 25, 12, -10, 4, 30, 975, 952, 61,±
2025-03-12 15:04:01.808,715, 555, 436, -3, -13, 1, -12, 2, 30, 931, 865, 51,∓
2025-03-12 15:04:01.858,721, 580, 432, -3, -12, 1, -8, 2, 30, 933, 870, 65,∓
2025-03-12 15:04:01.908,697, 579, 422, 0, -8, 1, -13, 3, 30, 937, 876, 71,∓
2025-03-12 15:04:01.968,721, 551, 435, 0, -2, -4, -11, 3, 29, 938, 878, 277,∓
2025-03-12 15:04:02.023,712, 579, 404, -1, -5, -7, -11, 3, 30, 939, 875, 365,∓
2025-03-12 15:04:02.077,627, 591, 473, 1, -5, -12, -11, 2, 32, 939, 862, 335,∓
2025-03-12 15:04:02.139,1108, 180, 416, -26, -21, -31, -10, 1, 31, 953, 884, 60,∓
2025-03-12 15:04:02.198,1050, 788, 234, -31, -22, 49, -11, 1, 32, 983, 960, 75,∓
2025-03-12 15:04:02.255,734, 652, 533, 27, 17, 26, -13, 3, 33, 972, 925, 131,∓
2025-03-12 15:04:02.308,395, 645, 484, 26, 58, -47, -13, 3, 30, 949, 836, 414,∓
2025-03-12 15:04:02.370,1082, 37, 196, 77, -29, -28, -12, 3, 31, 971, 913, 208,∓
2025-03-12 15:04:02.422,845, 213, 345, -34, 13, 32, -12, 3, 32, 982, 959, 56,∓
2025-03-12 15:04:02.478,558, 425, 517, 16, -3, -40, -10, 3, 32, 969, 935, 46,∓
2025-03-12 15:04:02.539,768, 772, 458, -5, -16, -12, -13, 2, 35, 973, 945, 49,∓
2025-03-12 15:04:02.590,825, 1057, 36, -4, 40, 30, -12, 3, 33, 982, 936, 54,∓
2025-03-12 15:04:02.652,957, 306, 266, -34, 53, -35, -13, 4, 32, 964, 849, 33,∓
2025-03-12 15:04:02.937,675, 567, 489, -8, -6, 7, -10, 3, 28, 930, 833, 74,∞
2025-03-12 15:04:02.988,682, 559, 489, -8, -6, 7, -11, 1, 27, 930, 839, 74,∞
2025-03-12 15:04:03.040,702, 557, 450, 1, -9, 4, -12, 5, 28, 937, 856, 76,∞
2025-03-12 15:04:03.097,714, 564, 447, 0, -3, 2, -11, 4, 29, 938, 856, 37,∞
2025-03-12 15:04:03.148,708, 567, 452, -5, -2, 0, -11, 3, 31, 944, 867, 215,∞
2025-03-12 15:04:03.208,707, 555, 465, -1, -2, 0, -12, 3, 30, 945, 870, 220,∞
2025-03-12 15:04:03.258,710, 573, 437, -2, -4, 1, -10, 1, 28, 949, 876, 254,∞
2025-03-12 15:04:03.314,711, 561, 464, 2, -5, 3, -10, 3, 29, 949, 880, 257,∞
2025-03-12 15:04:03.369,741, 558, 419, 1, 1, 2, -11, 5, 29, 953, 880, 258,∞
2025-03-12 15:04:03.423,677, 545, 464, 2, 7, 2, -13, 5, 28, 950, 862, 224,∞
2025-03-12 15:04:03.478,784, 563, 376, 6, -5, -5, -11, 5, 31, 951, 872, 269,∞
2025-03-12 15:04:03.533,743, 567, 404, -9, 10, -6, -9, 1, 31, 951, 875, 249,∞
2025-03-12 15:04:03.586,680, 554, 515, 2, -4, 5, -12, 4, 28, 953, 873, 250,∞
2025-03-12 15:04:03.638,750, 547, 456, -2, -4, 2, -12, 3, 27, 950, 882, 259,∞
2025-03-12 15:04:03.689,729, 567, 455, -10, 0, 5, -11, 4, 30, 955, 884, 48,∞
2025-03-12 15:04:03.747,648, 526, 475, -5, -6, 14, -12, 2, 29, 961, 898, 75,∞
2025-03-12 15:04:03.807,1979, 482, 381, -65, -11, -8, -12, 6, 29, 971, 927, 51,∞
2025-03-12 15:04:03.858,782, 612, 574, -9, 24, 6, -13, 3, 32, 974, 934, 33,∞
2025-03-12 15:04:03.922,920, 482, 157, -13, 20, -14, -11, 6, 31, 968, 898, 47,∞
2025-03-12 15:04:03.972,884, 480, 660, 8, -19, -11, -11, 5, 30, 974, 934, 49,∞
2025-03-12 15:04:04.028,681, 493, 353, -6, -1, 24, -11, 5, 32, 985, 951, 44,∞
2025-03-12 15:04:04.086,680, 538, 667, -24, -8, 9, -12, 6, 30, 983, 958, 54,∞
2025-03-12 15:04:04.138,737, 421, 579, 6, -15, -29, -11, 6, 30, 977, 952, 51,∞
2025-03-12 15:04:04.188,791, 536, 444, 2, 12, 5, -14, 6, 30, 983, 941, 47,∞
2025-03-12 15:04:04.253,887, 688, 248, -22, 33, 12, -12, 4, 32, 970, 870, 63,∞
2025-03-12 15:04:04.558,724, 548, 442, 3, -2, 4, -11, 5, 30, 928, 826, 211,∑
2025-03-12 15:04:04.608,729, 539, 444, 4, -2, 4, -10, 5, 30, 929, 830, 213,∑
2025-03-12 15:04:04.667,723, 554, 446, 6, -2, 2, -12, 5, 29, 931, 829, 315,∑
2025-03-12 15:04:04.721,720, 556, 437, -1, -3, 1, -12, 5, 29, 934, 839, 377,∑
2025-03-12 15:04:04.777,728, 538, 454, -4, -2, -1, -11, 4, 29, 937, 853, 384,∑
2025-03-12 15:04:04.827,726, 549, 431, -2, 0, -1, -13, 5, 31, 943, 859, 373,∑
2025-03-12 15:04:04.877,731, 555, 440, -2, 2, 0, -12, 3, 30, 947, 867, 360,∑
2025-03-12 15:04:04.942,722, 539, 466, -3, 0, 0, -11, 2, 30, 947, 868, 336,∑
2025-03-12 15:04:04.988,727, 530, 452, -1, 1, -1, -12, 4, 30, 949, 871, 339,∑
2025-03-12 15:04:05.052,717, 543, 422, 0, -1, -1, -12, 2, 31, 949, 865, 332,∑
2025-03-12 15:04:05.105,722, 565, 456, -10, -2, -1, -13, 5, 29, 951, 871, 354,∑
2025-03-12 15:04:05.162,678, 545, 418, -14, 8, -7, -13, 4, 29, 955, 866, 71,∑
2025-03-12 15:04:05.220,651, 523, 477, 14, -15, -1, -14, 5, 28, 958, 868, 42,∑
2025-03-12 15:04:05.278,1073, 567, 621, 39, -15, 3, -12, 4, 31, 976, 949, 100,∑
2025-03-12 15:04:05.327,649, 579, 584, 7, 5, 38, -12, 7, 30, 983, 958, 75,∑
2025-03-12 15:04:05.377,670, 409, 436, 57, 11, -52, -13, 5, 29, 968, 941, 280,∑
2025-03-12 15:04:05.437,1037, 435, 231, 12, -8, -27, -11, 4, 31, 970, 923, 353,∑
2025-03-12 15:04:05.497,470, 649, 140, -25, 22, 36, -12, 3, 31, 984, 953, 40,∑
2025-03-12 15:04:05.552,620, 502, 624, 8, 9, 13, -11, 4, 29, 980, 941, 49,∑
2025-03-12 15:04:05.608,471, 686, 349, 17, 0, -19, -11, 4, 29, 970, 856, 42,∑
2025-03-12 15:04:05.662,550, 770, 363, -69, 10, 42, -13, 4, 30, 982, 949, 53,∑
2025-03-12 15:04:05.720,807, 291, 412, -5, 12, -10, -12, 5, 29, 973, 923, 76,∑
2025-03-12 15:04:05.777,471, 519, 770, -2, 17, -32, -10, 3, 28, 940, 809, 143,∑
2025-03-12 15:04:06.011,725, 577, 427, -9, -2, -1, -11, 3, 29, 928, 794, 48,∏
2025-03-12 15:04:06.058,712, 565, 425, -10, 0, 0, -11, 3, 27, 930, 795, 63,∏
2025-03-12 15:04:06.117,717, 552, 462, -8, -2, 2, -12, 5, 27, 929, 796, 42,∏
2025-03-12 15:04:06.171,723, 543, 452, -6, -2, 1, -9, 3, 29, 932, 810, 70,∏
2025-03-12 15:04:06.224,711, 553, 449, -3, -2, 0, -11, 5, 29, 932, 813, 42,∏
2025-03-12 15:04:06.278,725, 522, 461, -2, -3, 0, -12, 2, 30, 934, 821, 55,∏
2025-03-12 15:04:06.327,719, 543, 463, -10, 0, -3, -11, 3, 30, 934, 817, 41,∏
2025-03-12 15:04:06.388,718, 543, 452, -11, -1, 1, -12, 6, 31, 944, 807, 70,∏
2025-03-12 15:04:06.441,723, 508, 461, -7, 0, 1, -12, 4, 27, 947, 805, 69,∏
2025-03-12 15:04:06.488,740, 547, 457, -1, -1, 0, -13, 4, 30, 949, 826, 63,∏
2025-03-12 15:04:06.548,710, 510, 497, 2, 2, -1, -11, 4, 30, 946, 824, 58,∏
2025-03-12 15:04:06.598,748, 541, 403, 4, 0, -7, -11, 4, 28, 944, 798, 54,∏
2025-03-12 15:04:06.658,612, 534, 549, -3, 7, -17, -12, 6, 27, 940, 795, 52,∏
2025-03-12 15:04:06.716,818, 458, 527, 30, -28, -15, -11, 6, 31, 938, 856, 74,∏
2025-03-12 15:04:06.773,1344, 1140, 267, 2, -33, 45, -12, 4, 31, 979, 957, 72,∏
2025-03-12 15:04:06.825,544, 651, 742, -20, -5, 33, -13, 5, 31, 985, 962, 87,∏
2025-03-12 15:04:06.878,532, 358, 236, 33, 15, -24, -13, 5, 31, 970, 938, 47,∏
2025-03-12 15:04:06.939,804, 786, 622, 13, -12, -11, -12, 3, 31, 961, 897, 281,∏
2025-03-12 15:04:06.989,706, 635, 287, 9, 19, 17, -11, 3, 31, 981, 940, 48,∏
2025-03-12 15:04:07.052,840, 717, 77, -14, 40, 24, -11, 4, 32, 979, 915, 45,∏
2025-03-12 15:04:07.109,819, 256, 369, -34, -8, -28, -11, 4, 30, 966, 917, 209,∏
2025-03-12 15:04:07.166,726, 401, 543, -10, -54, 13, -13, 4, 29, 974, 951, 52,∏
2025-03-12 15:04:07.219,616, 624, 236, 13, 26, 41, -13, 6, 30, 986, 955, 71,∏
2025-03-12 15:04:07.270,820, 529, 326, 2, 27, 6, -11, 5, 29, 977, 911, 50,∏
2025-03-12 15:04:07.328,632, 539, 531, -35, 70, -43, -12, 5, 28, 949, 872, 99,∏
2025-03-12 15:04:07.601,703, 536, 469, 10, -8, -7, -12, 4, 30, 915, 758, 71,√
2025-03-12 15:04:07.657,705, 525, 483, 10, -9, -8, -11, 4, 30, 913, 759, 68,√
2025-03-12 15:04:07.710,694, 588, 427, 9, -8, -2, -10, 3, 30, 920, 792, 41,√
2025-03-12 15:04:07.769,709, 605, 433, 0, -5, 6, -11, 2, 30, 931, 816, 53,√
2025-03-12 15:04:07.822,721, 552, 414, -4, 1, 2, -12, 3, 29, 934, 834, 29,√
2025-03-12 15:04:07.875,720, 559, 449, -4, -2, 2, -11, 2, 30, 941, 846, 73,√
2025-03-12 15:04:07.928,718, 562, 433, -3, 1, 1, -13, 3, 32, 942, 852, 42,√
2025-03-12 15:04:07.978,711, 551, 428, 0, -1, 0, -13, 4, 30, 943, 853, 49,√
2025-03-12 15:04:08.027,722, 540, 442, -5, 2, -2, -11, 3, 31, 945, 859, 71,√
2025-03-12 15:04:08.087,736, 562, 386, -3, -1, -2, -13, 4, 31, 947, 863, 67,√
2025-03-12 15:04:08.139,653, 553, 500, -1, 5, -5, -11, 4, 29, 945, 844, 44,√
2025-03-12 15:04:08.188,662, 573, 416, 9, 6, 6, -11, 3, 29, 943, 838, 73,√
2025-03-12 15:04:08.252,800, 498, 503, -2, -12, 8, -11, 3, 31, 953, 869, 48,√
2025-03-12 15:04:08.305,925, 667, 345, 20, 7, 3, -12, 5, 32, 972, 927, 56,√
2025-03-12 15:04:08.357,747, 517, 478, -12, -6, 14, -13, 6, 30, 976, 951, 60,√
2025-03-12 15:04:08.415,645, 469, 433, 20, 18, 11, -13, 3, 31, 980, 945, 69,√
2025-03-12 15:04:08.468,726, 679, 173, -70, 39, 48, -12, 5, 30, 984, 946, 62,√
2025-03-12 15:04:08.521,902, 38, 741, -19, -45, -37, -11, 7, 29, 982, 962, 41,√
2025-03-12 15:04:08.577,825, 460, 664, 19, -32, -18, -14, 7, 29, 979, 969, 58,√
2025-03-12 15:04:08.636,786, 863, 227, 7, 23, 30, -14, 5, 31, 978, 962, 64,√
2025-03-12 15:04:08.687,666, 562, 432, -4, 54, -47, -10, 4, 29, 964, 942, 33,√
2025-03-12 15:04:08.948,710, 570, 461, -6, 2, -3, -12, 4, 29, 923, 800, 29,∛
2025-03-12 15:04:09.001,701, 564, 469, -6, 1, -1, -11, 4, 29, 926, 799, 34,∛
2025-03-12 15:04:09.054,711, 575, 446, 2, -6, 0, -13, 2, 28, 922, 799, 46,∛
2025-03-12 15:04:09.107,732, 561, 429, -1, -5, -1, -10, 5, 30, 920, 807, 66,∛
2025-03-12 15:04:09.162,724, 553, 436, -1, 0, 0, -11, 2, 32, 921, 819, 54,∛
2025-03-12 15:04:09.218,716, 557, 435, 1, -2, 0, -14, 3, 31, 923, 822, 61,∛
2025-03-12 15:04:09.271,726, 545, 422, -3, -2, -1, -12, 3, 32, 924, 835, 33,∛
2025-03-12 15:04:09.322,706, 567, 441, 0, -1, 0, -12, 3, 32, 931, 850, 55,∛
2025-03-12 15:04:09.378,724, 567, 422, -2, 2, -1, -12, 3, 31, 931, 837, 32,∛
2025-03-12 15:04:09.427,684, 553, 456, 5, 6, -2, -12, 4, 31, 930, 833, 73,∛
2025-03-12 15:04:09.477,687, 583, 415, 19, 5, -4, -12, 4, 30, 925, 824, 37,∛
2025-03-12 15:04:09.541,757, 559, 309, -16, 7, -2, -13, 4, 31, 953, 900, 55,∛
2025-03-12 15:04:09.589,611, 408, 561, -7, 6, 20, -13, 4, 29, 970, 939, 65,∛
2025-03-12 15:04:09.647,820, 373, 523, -4, 25, 22, -11, 4, 29, 975, 919, 67,∛
2025-03-12 15:04:09.705,877, 728, 566, -77, 10, 23, -11, 5, 29, 969, 932, 73,∛
2025-03-12 15:04:09.758,999, 599, 851, 21, -60, -45, -12, 3, 31, 965, 952, 39,∛
2025-03-12 15:04:09.815,594, 728, -99, -28, 0, 42, -14, 4, 32, 981, 960, 48,∛
2025-03-12 15:04:09.870,729, -14, 460, 24, 22, -70, -14, 5, 32, 972, 953, 74,∛
2025-03-12 15:04:09.927,618, 630, 691, 28, -25, -47, -10, 0, 32, 957, 918, 573,∛
2025-03-12 15:04:09.988,713, 626, -81, -29, -8, -6, -13, 2, 34, 975, 952, 573,∛
2025-03-12 15:04:10.049,635, 568, 554, -20, 12, 14, -11, -2, 35, 978, 958, 571,∛
2025-03-12 15:04:10.102,582, 491, 490, 3, -4, 2, -12, 3, 32, 978, 957, 371,∛
2025-03-12 15:04:10.155,818, 630, 382, -20, 19, 9, -13, 3, 32, 983, 959, 176,∛
2025-03-12 15:04:10.208,592, 621, 432, 21, 11, 9, -14, 3, 30, 978, 946, 128,∛
2025-03-12 15:04:10.271,1052, 507, 171, -21, 49, -37, -11, 3, 32, 956, 910, 476,∛
2025-03-12 15:04:10.328,478, 547, 779, -8, -8, 4, -11, 1, 28, 948, 899, 276,∛
2025-03-12 15:04:10.568,675, 544, 462, 2, 3, 0, -12, 3, 29, 935, 794, 65,∜
2025-03-12 15:04:10.620,670, 548, 473, 3, 2, 0, -12, 3, 29, 937, 799, 111,∜
2025-03-12 15:04:10.675,666, 597, 410, -3, 0, 0, -12, 3, 31, 933, 788, 161,∜
2025-03-12 15:04:10.728,782, 509, 440, 0, -18, -1, -12, 3, 32, 944, 833, 55,∜
2025-03-12 15:04:10.788,901, 628, 543, 9, -4, 2, -11, 4, 32, 967, 919, 36,∜
2025-03-12 15:04:10.841,696, 118, 751, 24, 7, 17, -11, 4, 30, 977, 937, 70,∜
2025-03-12 15:04:10.898,908, 846, 206, -28, 34, 48, -10, 5, 30, 978, 919, 60,∜
2025-03-12 15:04:10.951,595, 44, 929, -6, -68, -40, -11, 5, 29, 969, 947, 62,∜
2025-03-12 15:04:11.008,801, 400, 707, -3, -38, -7, -12, 4, 31, 979, 966, 53,∜
2025-03-12 15:04:11.062,565, 563, 234, -15, 13, 23, -12, 3, 33, 979, 960, 52,∜
2025-03-12 15:04:11.120,720, 502, 308, 21, 16, -60, -13, 4, 30, 963, 946, 208,∜
2025-03-12 15:04:11.178,655, 785, 589, 13, -28, -26, -12, 3, 29, 960, 917, 672,∜
2025-03-12 15:04:11.238,734, 882, 267, -25, -21, -6, -12, 2, 33, 980, 953, 614,∜
2025-03-12 15:04:11.288,755, 541, 542, -1, 22, 9, -12, 3, 33, 983, 945, 196,∜
2025-03-12 15:04:11.348,787, 639, 176, -5, 10, 6, -14, 2, 33, 980, 924, 32,∜
2025-03-12 15:04:11.401,440, 424, 429, -15, 2, 23, -12, 3, 32, 983, 955, 49,∜
2025-03-12 15:04:11.457,773, 349, 387, -2, -3, -22, -12, 1, 32, 973, 937, 326,∜
2025-03-12 15:04:11.515,626, 488, 699, 15, -31, 13, -13, 2, 31, 976, 940, 511,∜
2025-03-12 15:04:11.569,900, 479, 232, -23, 38, 36, -13, 3, 33, 983, 931, 186,∜
2025-03-12 15:04:11.838,709, 585, 424, -11, 1, -2, -11, 2, 29, 941, 772, 155,∫
2025-03-12 15:04:11.897,701, 569, 416, -11, 1, -2, -12, 2, 29, 941, 772, 96,∫
2025-03-12 15:04:11.948,679, 553, 472, -3, 0, 1, -11, 1, 29, 940, 762, 60,∫
2025-03-12 15:04:12.004,718, 553, 447, -2, 3, 0, -10, 1, 31, 933, 731, 58,∫
2025-03-12 15:04:12.056,680, 578, 459, -3, 2, 3, -11, 4, 29, 931, 721, 56,∫
2025-03-12 15:04:12.108,702, 553, 450, 3, -2, 4, -12, 5, 27, 926, 712, 45,∫
2025-03-12 15:04:12.162,698, 556, 461, 6, -2, 6, -11, 3, 30, 930, 732, 50,∫
2025-03-12 15:04:12.216,709, 561, 454, 1, 0, 5, -11, 4, 30, 937, 749, 49,∫
2025-03-12 15:04:12.269,748, 561, 435, 6, -4, 6, -12, 3, 29, 942, 766, 58,∫
2025-03-12 15:04:12.322,702, 549, 465, -3, 3, -1, -11, 5, 31, 945, 778, 64,∫
2025-03-12 15:04:12.372,753, 553, 434, -2, -4, 2, -11, 5, 29, 947, 805, 54,∫
2025-03-12 15:04:12.427,682, 534, 454, -10, 2, 3, -11, 3, 30, 952, 834, 60,∫
2025-03-12 15:04:12.486,715, 586, 513, 0, -21, 24, -12, 4, 30, 958, 848, 54,∫
2025-03-12 15:04:12.541,724, 536, 489, -14, -5, -7, -14, 6, 30, 966, 898, 75,∫
2025-03-12 15:04:12.597,588, 413, 563, 18, -3, -25, -14, 5, 31, 974, 918, 52,∫
2025-03-12 15:04:12.651,780, 469, 415, 17, 19, 1, -13, 4, 32, 980, 931, 76,∫
2025-03-12 15:04:12.704,680, 662, 373, 6, 31, 18, -12, 4, 31, 980, 914, 77,∫
2025-03-12 15:04:12.758,972, 349, 361, 22, 15, -21, -12, 5, 29, 944, 801, 79,∫
2025-03-12 15:04:12.819,578, 554, 715, -57, 51, -13, -9, 5, 26, 875, 787, 41,∫
2025-03-12 15:04:13.068,711, 552, 488, 2, -6, 2, -12, 3, 30, 938, 854, 77,∮
2025-03-12 15:04:13.119,709, 550, 469, 4, -8, 3, -12, 4, 28, 939, 848, 62,∮
2025-03-12 15:04:13.178,744, 574, 414, 6, -6, 1, -11, 4, 30, 941, 841, 49,∮
2025-03-12 15:04:13.229,701, 537, 446, 3, -2, 7, -12, 3, 29, 948, 834, 75,∮
2025-03-12 15:04:13.285,769, 521, 418, -1, -8, 10, -11, 5, 31, 948, 833, 37,∮
2025-03-12 15:04:13.338,672, 537, 442, -14, -8, 13, -12, 6, 32, 957, 852, 74,∮
2025-03-12 15:04:13.398,722, 683, 367, -44, -6, -4, -13, 5, 31, 965, 905, 56,∮
2025-03-12 15:04:13.458,503, 321, 570, -12, -7, -34, -13, 6, 30, 975, 945, 54,∮
2025-03-12 15:04:13.511,1270, 754, 459, 101, 15, -17, -12, 4, 34, 981, 937, 53,∮
2025-03-12 15:04:13.569,850, 791, 283, -35, 47, 55, -12, 3, 32, 982, 944, 48,∮
2025-03-12 15:04:13.620,711, 349, 370, -2, 3, -55, -12, 4, 30, 973, 945, 79,∮
2025-03-12 15:04:13.678,802, 547, 482, 13, -60, 3, -11, 3, 29, 963, 949, 156,∮
2025-03-12 15:04:13.736,864, 601, 362, -49, -1, 31, -13, 3, 30, 982, 958, 52,∮
2025-03-12 15:04:13.793,647, 361, 376, -23, 27, 37, -13, 6, 31, 984, 954, 54,∮
2025-03-12 15:04:13.851,955, 130, 578, 1, 17, -26, -12, 6, 29, 968, 902, 80,∮
2025-03-12 15:04:13.907,486, 450, 958, -57, -31, -11, -11, 3, 29, 960, 935, 43,∮
2025-03-12 15:04:13.960,580, 447, 676, 11, -8, -13, -13, 3, 30, 963, 952, 45,∮
2025-03-12 15:04:14.019,744, 609, 427, 49, 11, 10, -11, 5, 30, 981, 951, 61,∮
2025-03-12 15:04:14.069,337, 577, 328, -34, 40, 57, -13, 6, 28, 986, 947, 55,∮
2025-03-12 15:04:14.127,874, 372, 372, 20, 25, -9, -11, 9, 26, 963, 854, 58,∮
2025-03-12 15:04:14.428,697, 540, 527, 18, -20, -17, -10, 2, 24, 816, 647, 53,∂
2025-03-12 15:04:14.488,691, 540, 477, 17, -19, -17, -9, 3, 24, 822, 658, 50,∂
2025-03-12 15:04:14.548,690, 543, 482, 15, -27, -31, -10, 2, 27, 859, 677, 67,∂
2025-03-12 15:04:14.605,561, 665, 509, -10, -10, 3, -12, 1, 28, 899, 722, 61,∂
2025-03-12 15:04:14.658,618, 627, 503, 6, -17, 33, -12, 2, 29, 921, 797, 55,∂
2025-03-12 15:04:14.713,759, 600, 375, 10, -5, 26, -10, 2, 27, 935, 830, 44,∂
2025-03-12 15:04:14.769,749, 579, 422, -1, -4, 13, -11, 3, 30, 945, 860, 74,∂
2025-03-12 15:04:14.821,684, 520, 481, 0, 2, -1, -10, 1, 31, 948, 871, 60,∂
2025-03-12 15:04:14.878,743, 559, 409, -4, -2, 3, -12, 4, 30, 954, 881, 70,∂
2025-03-12 15:04:14.928,736, 536, 475, -1, -1, 3, -13, 5, 28, 952, 880, 42,∂
2025-03-12 15:04:14.985,666, 556, 455, -3, 10, -3, -12, 4, 30, 957, 878, 60,∂
2025-03-12 15:04:15.037,759, 541, 501, -3, -9, -1, -10, 4, 30, 957, 877, 76,∂
2025-03-12 15:04:15.088,798, 534, 487, 5, -5, 8, -11, 4, 29, 958, 895, 79,∂
2025-03-12 15:04:15.147,598, 545, 436, -7, 23, -4, -13, 3, 28, 957, 885, 64,∂
2025-03-12 15:04:15.202,617, 573, 513, 5, -12, -6, -11, 2, 30, 956, 883, 62,∂
2025-03-12 15:04:15.261,796, 526, 146, -11, -6, -15, -12, 4, 30, 962, 900, 63,∂
2025-03-12 15:04:15.317,521, 501, 389, -13, 11, 35, -13, 4, 30, 978, 941, 62,∂
2025-03-12 15:04:15.370,634, 613, 547, -27, 37, 29, -14, 4, 30, 976, 907, 53,∂
2025-03-12 15:04:15.428,946, 360, 216, -13, 21, -6, -11, 5, 30, 962, 898, 50,∂
2025-03-12 15:04:15.488,653, 411, 536, -15, -10, 19, -12, 5, 30, 983, 963, 81,∂
2025-03-12 15:04:15.537,1010, 350, 150, -10, 44, -33, -11, 6, 30, 974, 945, 88,∂
2025-03-12 15:04:15.828,684, 527, 505, -3, -3, -23, -12, 3, 27, 906, 714, 57,∇
2025-03-12 15:04:15.881,697, 540, 518, 2, -4, -23, -10, 2, 28, 902, 711, 64,∇
2025-03-12 15:04:15.939,637, 554, 502, 27, -23, -24, -12, 4, 25, 898, 705, 60,∇
2025-03-12 15:04:15.998,662, 667, 368, 10, -14, -2, -13, 2, 28, 907, 735, 61,∇
2025-03-12 15:04:16.050,645, 636, 423, -5, -5, 13, -12, 0, 29, 929, 792, 71,∇
2025-03-12 15:04:16.108,707, 560, 450, -5, -1, 17, -13, 1, 29, 939, 836, 55,∇
2025-03-12 15:04:16.158,713, 553, 435, -6, 1, 13, -13, 3, 30, 945, 850, 53,∇
2025-03-12 15:04:16.213,729, 553, 448, -4, -3, 9, -11, 4, 29, 947, 859, 40,∇
2025-03-12 15:04:16.266,712, 572, 425, -8, 1, 3, -12, 3, 29, 952, 872, 60,∇
2025-03-12 15:04:16.318,741, 522, 460, -4, -2, 2, -12, 1, 32, 953, 877, 50,∇
2025-03-12 15:04:16.368,712, 562, 452, 3, -2, 2, -12, 5, 29, 953, 880, 70,∇
2025-03-12 15:04:16.419,687, 539, 433, 4, -1, -2, -13, 3, 30, 954, 881, 35,∇
2025-03-12 15:04:16.484,606, 498, 575, 26, -18, -1, -12, 3, 32, 956, 884, 61,∇
2025-03-12 15:04:16.538,1078, 838, 409, 1, -6, 17, -11, 4, 30, 976, 944, 66,∇
2025-03-12 15:04:16.588,782, 196, 655, 8, -3, 40, -12, 5, 30, 983, 958, 73,∇
2025-03-12 15:04:16.648,806, 483, 338, 25, 9, -15, -13, 5, 29, 971, 930, 83,∇
2025-03-12 15:04:16.701,579, 537, 710, 5, -30, 5, -12, 5, 29, 970, 931, 33,∇
2025-03-12 15:04:16.757,713, 456, 567, 10, -14, -9, -13, 4, 31, 980, 947, 56,∇
2025-03-12 15:04:16.811,405, 664, 307, 12, 51, 26, -13, 5, 31, 984, 938, 74,∇
2025-03-12 15:04:16.868,816, 677, -42, -26, 36, 9, -12, 5, 32, 972, 911, 59,∇
2025-03-12 15:04:16.918,449, 717, 516, -40, 24, -51, -12, 3, 30, 938, 894, 57,∇
2025-03-12 15:04:16.984,1023, 528, 59, -76, -20, -16, -14, 6, 30, 955, 921, 50,∇
2025-03-12 15:04:17.037,1036, 713, -14, -14, 40, 78, -11, 5, 31, 983, 938, 65,∇
2025-03-12 15:04:17.097,878, 249, 358, -18, 29, 16, -13, 7, 28, 974, 864, 45,∇
2025-03-12 15:04:17.151,574, 390, 732, 0, 50, -45, -10, 5, 26, 920, 737, 60,∇
2025-03-12 15:04:17.208,535, 476, 696, 8, -13, -11, -11, 4, 23, 683, 600, 66,∇
2025-03-12 15:04:17.467,632, 610, 528, 2, -19, -11, -11, 2, 25, 845, 542, 68,∆
2025-03-12 15:04:17.520,615, 601, 539, 7, -22, -6, -10, 2, 29, 857, 569, 64,∆
2025-03-12 15:04:17.567,640, 609, 398, 7, -29, 17, -12, 3, 28, 904, 684, 50,∆
2025-03-12 15:04:17.627,766, 573, 340, -4, -11, 21, -12, 4, 29, 929, 769, 77,∆
2025-03-12 15:04:17.683,773, 549, 401, -3, -4, 1, -13, 3, 31, 936, 797, 65,∆
2025-03-12 15:04:17.737,697, 579, 512, -3, -15, 7, -13, 3, 30, 947, 828, 57,∆
2025-03-12 15:04:17.789,687, 507, 526, 8, -24, 8, -13, 5, 32, 964, 880, 79,∆
2025-03-12 15:04:17.847,906, 670, 406, 25, 21, 1, -16, 6, 32, 968, 862, 47,∆
2025-03-12 15:04:17.900,1082, 599, 61, -9, 11, 8, -12, 4, 33, 975, 879, 67,∆
2025-03-12 15:04:17.957,631, 604, 652, -67, 8, 59, -10, 4, 30, 981, 951, 51,∆
2025-03-12 15:04:18.011,672, 518, 504, 20, 9, 9, -14, 7, 29, 972, 923, 79,∆
2025-03-12 15:04:18.064,441, 601, 532, 36, 5, -64, -10, 5, 29, 942, 862, 245,∆
2025-03-12 15:04:18.121,959, 815, 266, -33, -2, 24, -12, 5, 30, 978, 928, 81,∆
2025-03-12 15:04:18.177,821, 233, 432, -4, 38, 50, -12, 5, 29, 979, 914, 75,∆
2025-03-12 15:04:18.498,504, 780, 448, 32, -67, -121, -13, -2, 27, 638, 82, 30,π
2025-03-12 15:04:18.557,476, 845, 318, 32, -62, -105, -12, -3, 30, 652, 114, 44,π
2025-03-12 15:04:18.617,487, 823, 332, 22, -27, -10, -11, -5, 30, 740, 357, 42,π
2025-03-12 15:04:18.669,469, 742, 385, 2, 1, 57, -15, -4, 32, 794, 539, 49,π
2025-03-12 15:04:18.727,652, 925, 59, 15, -9, 2, -14, -6, 34, 834, 661, 248,π
2025-03-12 15:04:18.784,436, 875, 173, -13, 20, 79, -15, -3, 33, 873, 709, 106,π
2025-03-12 15:04:18.837,652, 224, 546, -7, 30, 74, -14, 1, 32, 876, 713, 88,π
2025-03-12 15:04:18.888,810, 559, 498, 7, 20, 36, -14, 1, 30, 893, 738, 275,π
2025-03-12 15:04:18.951,804, 684, 189, -37, 24, 1, -13, 4, 29, 914, 760, 298,π
2025-03-12 15:04:19.002,725, 550, 626, -6, -4, 6, -13, 1, 28, 927, 790, 313,π
2025-03-12 15:04:19.060,655, 548, 478, -20, 14, 5, -11, 3, 30, 934, 817, 221,π
2025-03-12 15:04:19.117,702, 603, 376, -19, 5, -8, -11, 3, 28, 937, 847, 297,π
2025-03-12 15:04:19.177,630, 533, 537, 11, -11, -11, -12, 2, 27, 936, 864, 293,π
2025-03-12 15:04:19.232,795, 533, 469, 10, -21, -3, -11, 3, 32, 936, 871, 51,π
2025-03-12 15:04:19.288,980, 984, 459, -20, -43, 29, -10, 2, 30, 978, 949, 56,π
2025-03-12 15:04:19.338,608, 357, 398, -9, 2, 36, -13, 4, 31, 984, 962, 81,π
2025-03-12 15:04:19.400,674, 494, 416, 46, -9, -10, -11, 4, 30, 969, 941, 80,π
2025-03-12 15:04:19.458,674, 677, 533, 36, 11, -42, -13, 3, 30, 952, 892, 444,π
2025-03-12 15:04:19.511,679, 984, 138, -31, 6, 20, -13, 3, 30, 977, 932, 65,π
2025-03-12 15:04:19.568,418, 688, 380, -40, 36, 26, -13, 4, 30, 979, 922, 79,π
2025-03-12 15:04:19.624,979, 137, 567, 29, -12, -20, -13, 5, 29, 948, 893, 47,π
2025-03-12 15:04:19.683,436, 422, 848, -20, -36, 0, -12, 4, 26, 967, 934, 39,π
2025-03-12 15:04:19.737,812, 469, 391, 8, -14, -11, -13, 5, 30, 978, 948, 80,π
2025-03-12 15:04:19.788,993, 808, 141, -15, 21, 37, -13, 5, 30, 986, 950, 77,π
2025-03-12 15:04:19.839,731, 311, 555, 30, -3, 8, -12, 6, 30, 976, 947, 48,π
2025-03-12 15:04:19.908,632, 545, 560, -26, 85, -32, -11, 4, 26, 949, 886, 237,π
2025-03-12 15:04:20.177,647, 545, 521, 22, -20, -11, -9, 2, 27, 848, 673, 178,θ
2025-03-12 15:04:20.237,657, 541, 518, 24, -22, -12, -10, 2, 25, 848, 683, 196,θ
2025-03-12 15:04:20.301,692, 562, 430, 39, -28, -15, -12, 2, 27, 859, 709, 428,θ
2025-03-12 15:04:20.361,723, 583, 394, 32, -22, -15, -12, 2, 28, 893, 745, 563,θ
2025-03-12 15:04:20.416,704, 654, 338, 11, -2, -9, -13, 1, 30, 924, 800, 650,θ
2025-03-12 15:04:20.468,647, 711, 343, 5, -1, -2, -13, 0, 30, 942, 864, 702,θ
2025-03-12 15:04:20.526,724, 655, 321, -12, 1, 5, -14, 2, 29, 948, 884, 692,θ
2025-03-12 15:04:20.584,698, 628, 388, 0, 0, 11, -13, 1, 30, 953, 891, 675,θ
2025-03-12 15:04:20.634,702, 633, 390, -6, 3, 3, -12, 1, 32, 954, 894, 678,θ
2025-03-12 15:04:20.687,729, 630, 386, -10, 0, 6, -12, 3, 31, 955, 893, 647,θ
2025-03-12 15:04:20.748,729, 614, 358, -15, 6, 1, -11, 3, 31, 957, 891, 579,θ
2025-03-12 15:04:20.800,632, 567, 438, -7, -17, 3, -11, 2, 30, 955, 880, 565,θ
2025-03-12 15:04:20.860,838, 479, 344, -44, -4, -10, -12, 3, 29, 959, 905, 430,θ
2025-03-12 15:04:20.910,630, 932, 55, 14, 49, 55, -9, 2, 33, 980, 911, 62,θ
2025-03-12 15:04:20.967,655, 625, 490, -36, 37, 37, -11, 4, 29, 978, 931, 67,θ
2025-03-12 15:04:21.018,520, 654, 534, 15, -31, -44, -10, 3, 28, 960, 930, 692,θ
2025-03-12 15:04:21.084,720, 670, 240, -51, -9, 13, -11, 4, 30, 979, 953, 337,θ
2025-03-12 15:04:21.138,468, 827, 32, -22, 50, 53, -12, 4, 31, 984, 948, 40,θ
2025-03-12 15:04:21.188,734, 539, 354, -19, 31, 12, -13, 4, 29, 971, 902, 80,θ
2025-03-12 15:04:21.251,628, 717, 667, 2, -29, -4, -12, 4, 30, 963, 917, 69,θ
2025-03-12 15:04:21.307,768, 833, -12, -40, -2, 40, -11, 3, 29, 985, 962, 63,θ
2025-03-12 15:04:21.366,844, 328, 311, 12, 35, -14, -10, 4, 30, 973, 930, 212,θ
2025-03-12 15:04:21.644,663, 589, 505, 1, -13, 1, -9, 0, 27, 906, 761, 263,λ
2025-03-12 15:04:21.699,648, 583, 497, 3, -14, 1, -9, 1, 27, 906, 766, 261,λ
2025-03-12 15:04:21.752,662, 578, 482, 8, -15, 4, -12, 3, 27, 919, 804, 316,λ
2025-03-12 15:04:21.808,710, 554, 429, 7, -12, 0, -7, 3, 29, 926, 816, 323,λ
2025-03-12 15:04:21.857,705, 577, 424, 1, -3, -4, -10, 2, 29, 932, 834, 360,λ
2025-03-12 15:04:21.916,693, 577, 444, 7, -1, -5, -10, 1, 28, 931, 832, 352,λ
2025-03-12 15:04:21.972,696, 586, 435, -2, 1, -3, -11, 3, 28, 927, 811, 316,λ
2025-03-12 15:04:22.021,686, 565, 460, -3, -1, 0, -10, 2, 28, 930, 815, 331,λ
2025-03-12 15:04:22.084,685, 594, 426, -2, 0, 0, -10, 2, 30, 928, 808, 306,λ
2025-03-12 15:04:22.137,714, 569, 455, -4, 0, 3, -10, 2, 28, 930, 811, 291,λ
2025-03-12 15:04:22.187,708, 583, 448, -9, -9, -2, -11, 4, 29, 934, 815, 290,λ
2025-03-12 15:04:22.248,728, 569, 438, -3, -4, -2, -12, 3, 29, 938, 841, 331,λ
2025-03-12 15:04:22.300,586, 596, 547, 8, -2, 0, -13, 2, 30, 942, 842, 304,λ
2025-03-12 15:04:22.358,855, 482, 405, 31, -17, -45, -13, 0, 31, 956, 877, 160,λ
2025-03-12 15:04:22.411,903, 350, 363, 10, 5, -6, -9, 3, 31, 973, 931, 46,λ
2025-03-12 15:04:22.468,517, 382, 552, -9, 7, 29, -12, 3, 30, 984, 953, 89,λ
2025-03-12 15:04:22.519,691, 670, 133, 2, 31, 44, -13, 3, 29, 985, 948, 62,λ
2025-03-12 15:04:22.577,808, 345, 457, -10, 17, -18, -13, 3, 29, 973, 921, 90,λ
2025-03-12 15:04:22.633,536, 574, 803, 17, -43, 0, -10, 3, 29, 967, 918, 475,λ
2025-03-12 15:04:22.688,814, 623, 490, 8, -16, -13, -10, 3, 32, 980, 938, 47,λ
2025-03-12 15:04:22.738,809, 622, 301, 4, 34, 20, -11, 3, 29, 970, 886, 94,λ
2025-03-12 15:04:22.800,788, 622, 245, -37, 52, -44, -9, 3, 30, 932, 846, 302,λ
2025-03-12 15:04:23.059,724, 577, 420, 29, -1, -1, -10, 2, 27, 856, 355, 607,μ
2025-03-12 15:04:23.116,744, 574, 419, 30, 2, 0, -14, 3, 28, 850, 247, 615,μ
2025-03-12 15:04:23.169,686, 606, 437, 46, -1, 4, -9, 1, 29, 826, 85, 697,μ
2025-03-12 15:04:23.218,683, 656, 379, 35, -1, 5, -12, 1, 28, 815, 75, 763,μ
2025-03-12 15:04:23.271,693, 617, 372, -2, 1, 3, -11, 0, 27, 826, 46, 789,μ
2025-03-12 15:04:23.328,692, 612, 386, -5, 1, 0, -10, 0, 29, 848, 73, 802,μ
2025-03-12 15:04:23.382,696, 600, 359, -5, -2, -2, -11, 1, 29, 868, 89, 802,μ
2025-03-12 15:04:23.438,641, 616, 409, -39, -4, 0, -11, 1, 29, 905, 188, 786,μ
2025-03-12 15:04:23.489,734, 604, 376, -16, -4, 8, -10, 1, 30, 928, 489, 740,μ
2025-03-12 15:04:23.550,676, 619, 387, -23, -2, 1, -7, 4, 29, 938, 627, 726,μ
2025-03-12 15:04:23.601,726, 571, 432, -11, 6, -5, -12, 3, 28, 943, 730, 729,μ
2025-03-12 15:04:23.665,750, 604, 403, -10, -7, -3, -12, 2, 28, 947, 769, 710,μ
2025-03-12 15:04:23.717,714, 580, 417, -1, 6, -3, -10, 1, 28, 950, 781, 703,μ
2025-03-12 15:04:23.770,572, 547, 613, 12, 17, 10, -10, 1, 29, 949, 752, 649,μ
2025-03-12 15:04:23.832,654, 588, 470, 30, 29, 26, -11, 2, 26, 952, 745, 456,μ
2025-03-12 15:04:23.885,687, 604, 277, 7, 2, -4, -13, 4, 25, 960, 794, 73,μ
2025-03-12 15:04:23.938,778, 534, 408, -44, -2, 1, -10, 4, 30, 966, 906, 72,μ
2025-03-12 15:04:24.000,989, 519, 551, -14, -53, -28, -10, 3, 29, 974, 949, 251,μ
2025-03-12 15:04:24.052,721, 479, 780, 2, -16, -6, -12, 2, 29, 977, 954, 470,μ
2025-03-12 15:04:24.110,1003, 391, 393, 21, 28, 15, -10, 7, 26, 981, 948, 440,μ
2025-03-12 15:04:24.168,798, 435, 459, -33, 13, 20, -11, 4, 28, 982, 945, 60,μ
2025-03-12 15:04:24.220,635, 372, 139, -21, -15, -9, -12, 4, 30, 981, 954, 63,μ
2025-03-12 15:04:24.278,702, 452, 501, 3, -9, -6, -12, 4, 29, 980, 957, 69,μ
2025-03-12 15:04:24.336,647, 551, 300, 30, 19, 27, -11, 2, 30, 982, 950, 42,μ
2025-03-12 15:04:24.388,788, 627, 348, -34, 7, 13, -12, 5, 28, 982, 952, 74,μ
2025-03-12 15:04:24.438,977, 532, 112, -21, 63, -26, -14, 7, 27, 972, 941, 91,μ
2025-03-12 15:04:24.739,586, 697, 436, 6, -39, -58, -10, -3, 26, 764, 90, 232,ω
2025-03-12 15:04:24.801,595, 697, 422, 7, -42, -57, -10, -3, 27, 768, 94, 227,ω
2025-03-12 15:04:24.858,559, 726, 372, 11, -41, -53, -11, -7, 30, 757, 81, 147,ω
2025-03-12 15:04:24.917,527, 813, 319, 12, -44, -22, -14, -4, 30, 792, 203, 75,ω
2025-03-12 15:04:24.968,552, 788, 192, 9, -19, 5, -11, -7, 35, 833, 461, 200,ω
2025-03-12 15:04:25.028,504, 762, 199, -23, 9, 70, -15, -5, 35, 873, 594, 55,ω
2025-03-12 15:04:25.088,639, 483, 286, -56, 61, 119, -14, -2, 32, 881, 671, 62,ω
2025-03-12 15:04:25.143,727, 552, 504, -3, 15, 47, -12, 1, 30, 891, 706, 72,ω
2025-03-12 15:04:25.200,891, 601, 197, -41, 17, 10, -14, 3, 30, 913, 755, 237,ω
2025-03-12 15:04:25.249,677, 589, 569, -6, -5, 4, -9, 0, 29, 928, 831, 281,ω
2025-03-12 15:04:25.299,718, 563, 366, 2, 3, 5, -13, 4, 29, 941, 845, 293,ω
2025-03-12 15:04:25.364,673, 576, 424, -20, 6, -15, -14, 4, 30, 940, 851, 292,ω
2025-03-12 15:04:25.418,730, 580, 443, -3, -7, -3, -11, 4, 30, 945, 851, 201,ω
2025-03-12 15:04:25.467,717, 615, 576, -29, -4, -6, -10, 3, 31, 963, 902, 92,ω
2025-03-12 15:04:25.532,1083, 1011, 249, 32, 27, 33, -11, 3, 30, 977, 915, 68,ω
2025-03-12 15:04:25.589,788, 730, 350, -26, 3, 33, -9, 6, 28, 980, 941, 44,ω
2025-03-12 15:04:25.638,527, 395, 674, -13, -28, -20, -13, 5, 28, 975, 954, 70,ω
2025-03-12 15:04:25.699,835, 720, 351, 30, 1, 5, -11, 4, 30, 981, 948, 85,ω
2025-03-12 15:04:25.750,824, 702, 291, -45, 4, 27, -15, 7, 32, 982, 953, 40,ω
2025-03-12 15:04:25.810,753, 392, 306, 50, -17, -24, -13, 7, 30, 973, 952, 73,ω
2025-03-12 15:04:25.867,832, 574, 281, -15, 61, -21, -12, 5, 28, 958, 923, 86,ω
2025-03-12 15:04:26.143,712, 607, 406, -2, -7, 4, -12, 3, 29, 935, 823, 592,!
2025-03-12 15:04:26.199,712, 615, 393, -4, -7, 4, -11, 0, 30, 936, 830, 596,!
2025-03-12 15:04:26.253,665, 585, 476, -2, -7, 3, -13, 4, 30, 944, 862, 562,!
2025-03-12 15:04:26.306,725, 614, 370, 2, -3, 3, -12, 1, 29, 947, 874, 565,!
2025-03-12 15:04:26.369,747, 591, 354, -10, 4, -2, -11, 2, 29, 944, 875, 533,!
2025-03-12 15:04:26.416,693, 586, 458, -4, -2, 0, -11, 1, 31, 949, 886, 547,!
2025-03-12 15:04:26.468,717, 589, 404, -1, -1, -1, -11, 1, 31, 949, 888, 520,!
2025-03-12 15:04:26.531,706, 574, 418, -5, -1, 0, -11, 4, 30, 947, 888, 505,!
2025-03-12 15:04:26.583,767, 574, 423, 3, -2, 0, -13, 3, 26, 950, 887, 480,!
2025-03-12 15:04:26.637,667, 613, 440, -3, 2, -3, -12, 3, 31, 949, 880, 468,!
2025-03-12 15:04:26.688,802, 575, 441, -3, -8, 7, -11, 3, 30, 949, 889, 441,!
2025-03-12 15:04:26.749,679, 579, 414, -5, 7, -2, -12, 2, 30, 952, 888, 449,!
2025-03-12 15:04:26.800,695, 597, 442, -18, -18, -4, -14, 2, 30, 951, 892, 479,!
2025-03-12 15:04:26.861,703, 626, 539, -13, -5, -2, -9, 1, 32, 970, 930, 218,!
2025-03-12 15:04:26.918,725, 950, 211, 47, 25, 23, -12, 2, 32, 984, 942, 70,!
2025-03-12 15:04:26.968,830, 949, 191, 0, 39, 40, -11, 4, 29, 984, 931, 93,!
2025-03-12 15:04:27.018,781, 256, 576, 4, -4, -28, -11, 5, 30, 967, 895, 63,!
2025-03-12 15:04:27.082,584, 481, 698, -34, 28, -11, -10, 4, 26, 953, 902, 69,!
2025-03-12 15:04:27.137,643, 555, 536, 6, -8, 6, -10, 3, 26, 955, 903, 78,!
2025-03-12 15:04:27.187,802, 562, 344, 0, 15, 12, -9, 4, 27, 958, 892, 74,!
2025-03-12 15:04:27.239,593, 573, 513, -4, 24, 17, -12, 4, 27, 961, 859, 65,!
2025-03-12 15:04:27.299,568, 1200, 682, 78, -20, -29, -10, 5, 27, 971, 914, 57,!
2025-03-12 15:04:27.357,899, 435, 769, 1, 13, 11, -10, 4, 29, 964, 888, 77,!
2025-03-12 15:04:27.416,496, 530, 707, -57, 85, -27, -10, 5, 23, 948, 827, 91,!
2025-03-12 15:04:27.468,479, 547, 691, -4, -3, -2, -7, 5, 19, 938, 826, 86,!
2025-03-12 15:04:27.748,691, 539, 523, -4, -4, -1, -11, 6, 25, 885, 736, 60,@
2025-03-12 15:04:27.807,695, 527, 519, -3, -5, 0, -10, 7, 24, 884, 730, 46,@
2025-03-12 15:04:27.860,690, 540, 503, 0, -7, 0, -11, 4, 25, 889, 750, 85,@
2025-03-12 15:04:27.916,708, 561, 468, -4, -3, 1, -12, 4, 28, 889, 764, 58,@
2025-03-12 15:04:27.968,685, 528, 498, -3, 0, 0, -10, 5, 27, 893, 772, 78,@
2025-03-12 15:04:28.017,695, 519, 524, -2, -6, -3, -11, 5, 25, 893, 775, 90,@
2025-03-12 15:04:28.078,718, 528, 466, 7, -1, -10, -11, 5, 26, 848, 710, 94,@
2025-03-12 15:04:28.133,694, 539, 479, 0, -2, -8, -11, 7, 23, 832, 667, 45,@
2025-03-12 15:04:28.184,702, 581, 504, 6, -4, -2, -11, 3, 27, 846, 696, 66,@
2025-03-12 15:04:28.238,663, 535, 478, -2, -4, 4, -8, 2, 28, 884, 720, 46,@
2025-03-12 15:04:28.297,778, 509, 481, 1, -8, 6, -12, 3, 28, 906, 769, 128,@
2025-03-12 15:04:28.340,677, 550, 464, -8, -9, 7, -9, 4, 28, 924, 794, 62,@
2025-03-12 15:04:28.401,746, 487, 480, -5, -2, -3, -11, 3, 26, 930, 808, 160,@
2025-03-12 15:04:28.451,749, 521, 455, 4, -4, 2, -10, 6, 29, 933, 818, 169,@
2025-03-12 15:04:28.508,684, 569, 489, 6, 7, 1, -11, 3, 28, 937, 819, 182,@
2025-03-12 15:04:28.567,746, 514, 451, -2, -7, 10, -14, 2, 28, 941, 827, 137,@
2025-03-12 15:04:28.617,644, 494, 539, -7, -8, 4, -12, 5, 28, 957, 866, 97,@
2025-03-12 15:04:28.678,583, 588, 495, 12, -8, -20, -13, 4, 28, 968, 911, 98,@
2025-03-12 15:04:28.734,1061, 861, 309, -10, 17, 5, -13, 3, 29, 978, 916, 62,@
2025-03-12 15:04:28.788,612, 472, 445, -61, 6, 28, -11, 6, 30, 982, 939, 81,@
2025-03-12 15:04:28.838,718, 371, 652, 4, -15, -20, -12, 6, 28, 978, 950, 72,@
2025-03-12 15:04:28.899,724, 625, 398, 14, 7, 11, -11, 4, 29, 981, 945, 79,@
2025-03-12 15:04:28.950,864, 715, 214, 14, 11, 19, -11, 3, 29, 983, 938, 103,@
2025-03-12 15:04:29.013,722, 474, 452, -39, -11, 12, -10, 4, 30, 982, 950, 84,@
2025-03-12 15:04:29.067,678, 507, 471, -21, -19, -29, -11, 6, 30, 973, 957, 81,@
2025-03-12 15:04:29.118,222, 314, 606, 23, 6, -39, -12, 6, 29, 972, 935, 91,@
2025-03-12 15:04:29.181,700, 1572, -194, 28, 71, 70, -12, 6, 30, 984, 933, 89,@
2025-03-12 15:04:29.237,680, 301, 746, -50, 2, 31, -11, 6, 27, 982, 950, 89,@
2025-03-12 15:04:29.288,891, 603, -19, 7, 75, -47, -12, 8, 26, 954, 899, 75,@
2025-03-12 15:04:29.590,681, 581, 500, 55, -57, -60, -9, 0, 27, 583, 88, 53,#
2025-03-12 15:04:29.650,686, 644, 371, 54, -55, -64, -11, -1, 28, 575, 94, 55,#
2025-03-12 15:04:29.708,628, 748, 246, 20, -26, -71, -11, -2, 29, 565, 97, 156,#
2025-03-12 15:04:29.765,478, 768, 397, -13, -8, 7, -12, -3, 28, 765, 317, 219,#
2025-03-12 15:04:29.818,509, 693, 395, -40, 10, 69, -12, -2, 30, 871, 623, 71,#
2025-03-12 15:04:29.882,660, 613, 408, -31, 8, 77, -12, 1, 29, 912, 738, 75,#
2025-03-12 15:04:29.932,830, 573, 320, -18, -7, 8, -10, 2, 31, 925, 808, 64,#
2025-03-12 15:04:29.988,771, 545, 451, 3, -2, 14, -11, 3, 32, 937, 848, 187,#
2025-03-12 15:04:30.040,728, 575, 425, -9, 1, 3, -13, 5, 31, 942, 868, 251,#
2025-03-12 15:04:30.099,731, 539, 459, -8, 6, -4, -13, 3, 30, 946, 878, 265,#
2025-03-12 15:04:30.149,704, 561, 433, -12, 5, -3, -12, 2, 29, 945, 879, 173,#
2025-03-12 15:04:30.209,710, 546, 506, -3, 0, -4, -13, 3, 30, 943, 876, 151,#
2025-03-12 15:04:30.265,707, 572, 464, -1, -1, 0, -12, 4, 29, 943, 875, 169,#
2025-03-12 15:04:30.318,746, 588, 410, -5, 0, 2, -12, 3, 29, 947, 877, 182,#
2025-03-12 15:04:30.367,681, 567, 464, -9, 3, -1, -10, 3, 29, 949, 876, 179,#
2025-03-12 15:04:30.431,728, 565, 525, 3, -6, 6, -12, 3, 30, 951, 882, 187,#
2025-03-12 15:04:30.487,655, 564, 418, -16, -10, -3, -12, 5, 27, 956, 879, 69,#
2025-03-12 15:04:30.538,706, 576, 454, -1, -39, 12, -15, 2, 30, 970, 913, 89,#
2025-03-12 15:04:30.598,571, 380, 466, 71, 6, -9, -13, 3, 33, 978, 921, 64,#
2025-03-12 15:04:30.649,880, 550, 177, 10, 73, 56, -11, 9, 29, 976, 898, 44,#
2025-03-12 15:04:30.709,776, -41, 637, -26, -25, -26, -13, 5, 30, 958, 886, 89,#
2025-03-12 15:04:30.765,690, 126, 517, -6, -24, -22, -13, 7, 30, 975, 932, 100,#
2025-03-12 15:04:30.817,911, 664, 260, 16, 52, 35, -12, 5, 31, 980, 904, 69,#
2025-03-12 15:04:30.873,730, 658, 426, -41, 33, 6, -12, 7, 29, 967, 884, 63,#
2025-03-12 15:04:30.935,870, 404, 100, -53, -34, -34, -10, 1, 30, 963, 905, 91,#
2025-03-12 15:04:30.987,871, 1007, 61, -27, -20, 44, -13, 3, 32, 984, 958, 78,#
2025-03-12 15:04:31.048,573, 445, 634, 52, 16, 11, -12, 5, 30, 973, 916, 76,#
2025-03-12 15:04:31.099,316, 680, 777, 51, -17, -25, -10, 2, 30, 949, 834, 223,#
2025-03-12 15:04:31.164,1032, 832, 165, -64, -8, 29, -15, 4, 30, 981, 951, 62,#
2025-03-12 15:04:31.215,813, 356, 426, 20, 22, 6, -14, 5, 30, 965, 899, 59,#
2025-03-12 15:04:31.273,525, 551, 595, -17, 82, -64, -11, 2, 26, 911, 734, 241,#
2025-03-12 15:04:31.538,722, 569, 426, 0, -12, 5, -9, 3, 27, 873, 677, 73,%
2025-03-12 15:04:31.589,724, 570, 428, 0, -11, 5, -12, 4, 30, 874, 680, 81,%
2025-03-12 15:04:31.648,727, 600, 397, -7, -4, 0, -12, 3, 30, 874, 680, 48,%
2025-03-12 15:04:31.699,712, 560, 459, -13, -5, -3, -12, 3, 28, 876, 692, 66,%
2025-03-12 15:04:31.758,711, 561, 462, -13, 0, -3, -12, 2, 28, 883, 709, 68,%
2025-03-12 15:04:31.814,720, 551, 460, -12, -1, -2, -10, 4, 29, 893, 694, 68,%
2025-03-12 15:04:31.872,705, 549, 463, -5, -2, -3, -12, 4, 29, 898, 730, 90,%
2025-03-12 15:04:31.923,720, 569, 451, -4, -5, -5, -11, 2, 31, 909, 779, 46,%
2025-03-12 15:04:31.978,718, 542, 442, -5, -3, 3, -12, 4, 29, 928, 821, 68,%
2025-03-12 15:04:32.031,676, 555, 484, -5, -7, -4, -12, 4, 28, 934, 842, 64,%
2025-03-12 15:04:32.087,781, 529, 433, -1, -7, -6, -11, 4, 29, 930, 861, 60,%
2025-03-12 15:04:32.147,709, 601, 340, -12, 38, -11, -11, 3, 30, 930, 827, 92,%
2025-03-12 15:04:32.198,544, 548, 557, -6, -29, 7, -13, 4, 27, 944, 844, 90,%
2025-03-12 15:04:32.248,653, 456, 548, 4, -58, 2, -11, 3, 29, 950, 894, 56,%
2025-03-12 15:04:32.314,1052, 484, 396, 37, -1, -24, -12, 4, 32, 969, 915, 92,%
2025-03-12 15:04:32.372,650, 657, 184, -108, 44, 63, -12, 3, 33, 982, 942, 93,%
2025-03-12 15:04:32.429,740, 155, 598, 10, -20, -12, -10, 6, 29, 977, 945, 82,%
2025-03-12 15:04:32.481,606, 573, 635, -1, 24, 0, -11, 4, 29, 969, 936, 67,%
2025-03-12 15:04:32.532,664, 564, 659, 29, -45, 7, -12, 6, 29, 977, 946, 95,%
2025-03-12 15:04:32.587,312, 690, 279, 40, 15, 13, -11, 4, 31, 984, 933, 49,%
2025-03-12 15:04:32.648,1030, 775, -106, 11, 39, 29, -13, 4, 31, 976, 856, 69,%
2025-03-12 15:04:32.698,536, 403, 713, -59, -4, 3, -13, 7, 27, 972, 900, 67,%
2025-03-12 15:04:32.757,591, 603, 648, 9, -27, -22, -13, 6, 29, 975, 936, 77,%
2025-03-12 15:04:32.818,861, 845, -242, -35, 28, 20, -13, 3, 30, 981, 933, 41,%
2025-03-12 15:04:32.868,652, 41, 848, -7, -17, -3, -13, 7, 30, 979, 950, 60,%
2025-03-12 15:04:32.928,970, 652, 107, 3, 78, -39, -11, 4, 29, 947, 890, 67,%
2025-03-12 15:04:32.981,444, 492, 880, -10, 14, -8, -9, 5, 25, 927, 813, 52,%
2025-03-12 15:04:33.031,669, 505, 552, 22, -36, 1, -11, 5, 23, 905, 726, 80,%
2025-03-12 15:04:33.088,791, 509, 301, 0, -4, -3, -13, 4, 26, 888, 659, 62,%
2025-03-12 15:04:33.408,728, 538, 470, 6, -11, -2, -12, 6, 28, 846, 660, 67,^
2025-03-12 15:04:33.466,718, 543, 467, 5, -11, -3, -14, 5, 27, 850, 668, 63,^
2025-03-12 15:04:33.518,715, 541, 451, -2, -3, -6, -11, 4, 29, 862, 692, 42,^
2025-03-12 15:04:33.577,682, 533, 479, -1, -2, -5, -11, 3, 26, 886, 754, 71,^
2025-03-12 15:04:33.630,725, 559, 448, 8, -5, -1, -11, 3, 29, 902, 774, 73,^
2025-03-12 15:04:33.684,696, 560, 441, 6, -1, -2, -11, 2, 29, 915, 789, 175,^
2025-03-12 15:04:33.742,746, 552, 458, -2, -2, 3, -11, 3, 28, 930, 811, 182,^
2025-03-12 15:04:33.791,709, 569, 465, -2, -1, 1, -13, 3, 29, 928, 819, 139,^
2025-03-12 15:04:33.848,720, 540, 458, 5, -3, -4, -10, 3, 30, 932, 830, 247,^
2025-03-12 15:04:33.898,758, 535, 352, 2, -2, -3, -12, 4, 29, 936, 828, 182,^
2025-03-12 15:04:33.957,739, 496, 483, -20, 12, -21, -12, 3, 27, 939, 810, 66,^
2025-03-12 15:04:34.017,746, 593, 449, -11, -5, -11, -12, 4, 28, 942, 793, 79,^
2025-03-12 15:04:34.076,567, 571, 597, 44, 20, 22, -10, 4, 26, 931, 754, 85,^
2025-03-12 15:04:34.129,661, 464, 409, 0, -26, 13, -12, 5, 30, 940, 817, 34,^
2025-03-12 15:04:34.181,641, 470, 599, -31, -41, -15, -14, 5, 29, 965, 934, 67,^
2025-03-12 15:04:34.238,579, 379, 752, -8, -25, 2, -13, 4, 29, 976, 954, 86,^
2025-03-12 15:04:34.296,765, 858, 66, 17, 27, 28, -12, 6, 29, 982, 951, 70,^
2025-03-12 15:04:34.348,964, 394, 189, -36, 69, -42, -12, 6, 31, 973, 923, 137,^
2025-03-12 15:04:34.407,497, 447, 839, -18, 23, -30, -12, 3, 26, 947, 846, 66,^
2025-03-12 15:04:34.667,714, 633, 434, 18, -31, -51, -12, -1, 27, 882, 557, 205,&
2025-03-12 15:04:34.719,712, 672, 419, 19, -30, -49, -14, 3, 28, 886, 548, 219,&
2025-03-12 15:04:34.781,470, 752, 485, -12, 5, 19, -11, -2, 28, 932, 718, 273,&
2025-03-12 15:04:34.837,661, 589, 492, 7, -7, 34, -12, 1, 28, 944, 789, 281,&
2025-03-12 15:04:34.895,719, 592, 356, 0, -2, 22, -12, 3, 29, 951, 832, 249,&
2025-03-12 15:04:34.949,749, 562, 395, -3, 2, 10, -13, 2, 30, 955, 864, 290,&
2025-03-12 15:04:35.000,726, 560, 432, 0, -4, 7, -12, 2, 30, 955, 881, 311,&
2025-03-12 15:04:35.058,748, 532, 383, -1, 1, 2, -15, 6, 32, 957, 875, 211,&
2025-03-12 15:04:35.112,708, 574, 438, 2, 0, 1, -12, 3, 29, 957, 874, 275,&
2025-03-12 15:04:35.166,734, 583, 420, -2, -5, 2, -11, 4, 30, 955, 872, 227,&
2025-03-12 15:04:35.218,742, 525, 444, -2, 12, -5, -11, 5, 30, 958, 871, 198,&
2025-03-12 15:04:35.269,776, 586, 438, 6, -6, -3, -12, 3, 30, 956, 859, 178,&
2025-03-12 15:04:35.330,715, 547, 428, -6, 0, 2, -12, 2, 30, 958, 872, 142,&
2025-03-12 15:04:35.385,659, 561, 473, 1, 3, 10, -13, 3, 31, 960, 862, 151,&
2025-03-12 15:04:35.438,696, 547, 366, -5, 9, 10, -13, 5, 31, 959, 856, 51,&
2025-03-12 15:04:35.488,745, 523, 439, -10, -7, -3, -12, 4, 29, 962, 863, 68,&
2025-03-12 15:04:35.551,672, 540, 487, -1, 9, -6, -13, 4, 28, 960, 848, 74,&
2025-03-12 15:04:35.601,693, 553, 436, 9, -8, 4, -11, 3, 30, 961, 864, 80,&
2025-03-12 15:04:35.651,821, 481, 382, 27, 6, 0, -13, 5, 30, 975, 909, 43,&
2025-03-12 15:04:35.708,676, 354, 581, -6, 20, 24, -13, 4, 29, 980, 932, 84,&
2025-03-12 15:04:35.768,478, 482, 476, -12, 16, -1, -11, 6, 29, 972, 904, 39,&
2025-03-12 15:04:35.819,1278, 585, 401, 19, -14, -32, -11, 5, 27, 960, 913, 72,&
2025-03-12 15:04:35.882,910, 558, 622, -44, -30, 11, -12, 6, 27, 976, 953, 82,&
2025-03-12 15:04:35.938,479, 383, 687, 3, -12, -13, -13, 6, 28, 976, 954, 86,&
2025-03-12 15:04:35.989,1083, 457, 478, 35, -8, -24, -12, 3, 30, 976, 941, 72,&
2025-03-12 15:04:36.050,347, 649, 493, -53, 31, 57, -12, 4, 29, 984, 954, 68,&
2025-03-12 15:04:36.101,642, 485, 464, 8, 13, 18, -12, 5, 29, 980, 938, 56,&
2025-03-12 15:04:36.413,662, 553, 561, 21, -27, -95, -11, 0, 24, 247, 62, 74,*
2025-03-12 15:04:36.468,667, 562, 537, 28, -35, -101, -11, 0, 24, 185, 62, 68,*
2025-03-12 15:04:36.530,553, 883, 471, -7, -29, -84, -10, -5, 26, 267, 28, 205,*
2025-03-12 15:04:36.580,399, 857, 470, 0, -14, 7, -10, -6, 27, 556, 194, 193,*
2025-03-12 15:04:36.637,436, 801, 339, 1, -18, 72, -11, -5, 27, 723, 417, 167,*
2025-03-12 15:04:36.697,600, 447, 340, 2, 9, 98, -13, 1, 29, 804, 518, 53,*
2025-03-12 15:04:36.748,742, 397, 385, 15, 11, 45, -14, 2, 30, 797, 541, 59,*
2025-03-12 15:04:36.811,1115, 714, 491, 12, -6, -11, -11, 0, 30, 805, 610, 278,*
2025-03-12 15:04:36.864,564, 553, 634, -7, 14, 6, -13, 2, 29, 875, 714, 211,*
2025-03-12 15:04:36.917,672, 507, 344, 3, 7, 7, -12, 3, 30, 896, 755, 313,*
2025-03-12 15:04:36.973,785, 616, 371, 0, -12, 4, -12, 2, 29, 906, 760, 307,*
2025-03-12 15:04:37.030,676, 571, 492, -13, -2, -11, -12, 3, 27, 913, 800, 322,*
2025-03-12 15:04:37.088,753, 583, 216, -37, -5, -7, -13, 4, 28, 936, 846, 351,*
2025-03-12 15:04:37.148,605, 614, 490, -21, -35, 1, -13, 1, 31, 944, 863, 318,*
2025-03-12 15:04:37.198,975, 430, 255, -1, -18, -3, -12, 3, 29, 963, 905, 395,*
2025-03-12 15:04:37.258,713, 602, 520, -25, 1, -1, -12, 3, 30, 964, 917, 189,*
2025-03-12 15:04:37.314,723, 601, 422, -20, -14, -7, -12, 4, 30, 974, 930, 70,*
2025-03-12 15:04:37.371,440, 784, 179, 60, 37, -2, -12, 2, 32, 975, 899, 61,*
2025-03-12 15:04:37.423,813, 658, 34, -8, 28, -5, -12, 3, 32, 950, 868, 79,*
2025-03-12 15:04:37.480,762, 597, 681, 2, -17, -18, -12, 3, 31, 963, 919, 504,*
2025-03-12 15:04:37.537,1006, 779, -171, 1, 3, 43, -14, 4, 32, 986, 948, 392,*
2025-03-12 15:04:37.594,547, 631, 590, -5, 18, 24, -12, 3, 30, 978, 923, 392,*
2025-03-12 15:04:37.648,500, 579, 468, 15, -9, -52, -13, 3, 30, 960, 872, 591,*
2025-03-12 15:04:37.713,934, 1023, 124, -37, -12, 24, -12, 3, 32, 982, 948, 452,*
2025-03-12 15:04:37.768,732, 297, 475, -5, 10, -2, -12, 3, 31, 981, 940, 550,*
2025-03-12 15:04:37.817,470, 529, 778, 16, -45, -9, -12, 2, 27, 975, 927, 762,*
2025-03-12 15:04:37.880,610, 779, 50, 8, 30, 23, -13, 6, 30, 986, 932, 484,*
