Timestamp,Acc_X,Acc_Y,Acc_Z,Gyro_X,Gyro_Y,Gyro_Z,Mag_X,Mag_Y,Mag_Z,Force1,Force2,Force3,Letter
2025-03-17 10:39:45.757,419, 599, 721, -1, 0, 0, 0, -2, -2, 593, 51, 43,noise
2025-03-17 10:39:45.806,421, 603, 724, 0, 0, 0, 0, -2, -1, 595, 42, 61,noise
2025-03-17 10:39:45.854,424, 595, 718, 0, 0, -1, 1, -3, -2, 578, 19, 26,noise
2025-03-17 10:39:45.906,422, 598, 715, -1, 0, 0, -2, 0, -4, 579, 21, 22,noise
2025-03-17 10:39:45.955,418, 592, 723, -1, 0, -1, 0, 0, -3, 585, 33, 35,noise
2025-03-17 10:39:46.006,421, 602, 719, -1, 0, 0, -1, -1, -3, 585, 34, 38,noise
2025-03-17 10:39:46.055,418, 607, 713, -1, 0, -1, 0, -2, -1, 592, 43, 48,noise
2025-03-17 10:39:46.107,422, 597, 711, -2, 0, 0, -1, -1, -3, 590, 32, 47,noise
2025-03-17 10:39:46.160,420, 601, 721, 0, 0, 0, -2, -2, -2, 593, 35, 30,noise
2025-03-17 10:39:46.220,422, 599, 709, -1, 0, -1, 0, -2, -2, 593, 35, 39,noise
2025-03-17 10:39:46.269,418, 595, 711, -2, 0, 0, 0, -2, -3, 592, 29, 28,noise
2025-03-17 10:39:46.321,421, 599, 711, -1, 1, -1, -2, -4, 0, 593, 26, 42,noise
2025-03-17 10:39:46.371,427, 603, 710, 0, 0, -1, 0, 0, -1, 607, 48, 54,noise
2025-03-17 10:39:46.421,420, 594, 714, -1, -1, -2, 0, -2, -2, 617, 35, 39,noise
2025-03-17 10:39:46.471,415, 605, 713, 0, 0, -3, 0, -3, -2, 624, 33, 35,noise
2025-03-17 10:39:46.521,417, 594, 708, 4, -2, -2, -2, 0, -3, 636, 43, 39,noise
2025-03-17 10:39:46.573,422, 601, 705, 3, -3, -4, 0, -2, 0, 645, 35, 40,noise
2025-03-17 10:39:46.626,431, 607, 710, 2, -4, -5, 0, -2, -1, 649, 38, 37,noise
2025-03-17 10:39:46.671,428, 620, 714, 1, -3, -3, -2, -2, 0, 650, 28, 26,noise
2025-03-17 10:39:46.735,444, 657, 717, -4, -3, -9, -2, -2, -2, 661, 49, 51,noise
2025-03-17 10:39:46.787,354, 603, 727, -2, 0, -2, -1, -2, -2, 660, 51, 48,noise
2025-03-17 10:39:46.837,403, 605, 681, 4, 0, -2, 0, -3, -1, 652, 38, 63,noise
2025-03-17 10:39:46.888,413, 600, 664, 1, -6, -3, -2, -1, -1, 633, 42, 41,noise
2025-03-17 10:39:46.943,420, 636, 650, 2, 2, -6, -3, -4, 1, 601, 43, 48,noise
2025-03-17 10:39:46.988,396, 619, 683, 1, -2, 1, -2, -3, 1, 540, 24, 15,noise
2025-03-17 10:39:47.038,408, 631, 675, 2, -5, 4, -4, -2, 0, 537, 38, 35,noise
2025-03-17 10:39:47.096,442, 643, 660, 6, -2, 0, -2, -4, 1, 529, 45, 49,noise
2025-03-17 10:39:47.144,435, 643, 664, -3, 1, -3, -3, -2, -1, 530, 50, 52,noise
2025-03-17 10:39:47.203,409, 632, 686, -6, 3, -3, -2, -3, 2, 511, 30, 33,noise
2025-03-17 10:39:47.252,411, 616, 696, -4, 1, 0, 0, -3, 0, 521, 49, 54,noise
2025-03-17 10:39:47.304,431, 601, 684, 1, -2, 1, -3, -2, 0, 522, 40, 46,noise
2025-03-17 10:39:47.354,426, 618, 670, -3, 1, -4, -2, -4, 1, 521, 41, 35,noise
2025-03-17 10:39:47.404,412, 644, 671, -5, 1, -4, -2, -4, -1, 521, 35, 41,noise
2025-03-17 10:39:47.460,396, 641, 691, -3, 0, -3, -1, -4, 2, 520, 39, 39,noise
2025-03-17 10:39:47.514,406, 634, 676, -4, 0, 0, -3, -1, -1, 525, 48, 58,noise
2025-03-17 10:39:47.559,419, 625, 687, -5, 2, -1, -1, -4, -2, 514, 24, 38,noise
2025-03-17 10:39:47.615,395, 612, 698, -1, 1, 0, -1, -2, 1, 527, 47, 55,noise
2025-03-17 10:39:47.670,417, 632, 681, -1, -1, 1, -2, -2, -1, 529, 47, 38,noise
2025-03-17 10:39:47.721,428, 612, 696, -2, -1, -1, -2, -3, 0, 516, 20, 19,noise
2025-03-17 10:39:47.770,402, 621, 701, 0, -1, -2, -2, -2, 0, 530, 43, 48,noise
2025-03-17 10:39:47.821,410, 628, 684, 2, 0, 1, -2, -3, 0, 519, 35, 42,noise
2025-03-17 10:39:47.870,414, 628, 691, -4, 1, 2, -3, -2, -1, 526, 52, 56,noise
2025-03-17 10:39:47.928,413, 616, 714, 2, 0, 2, -5, -2, -1, 508, 19, 29,noise
2025-03-17 10:39:47.977,413, 625, 696, 3, -2, 2, -2, -4, 0, 508, 32, 28,noise
2025-03-17 10:39:48.026,420, 620, 686, 2, -4, 2, -3, -2, -3, 465, 37, 28,noise
2025-03-17 10:39:48.077,422, 632, 698, 10, -14, 0, -3, -3, 2, 368, 40, 43,noise
2025-03-17 10:39:48.136,484, 665, 657, 13, -10, -4, -3, -3, 1, 330, 35, 35,noise
2025-03-17 10:39:48.188,467, 699, 597, -11, 3, -14, -4, -3, 1, 412, 39, 33,noise
2025-03-17 10:39:48.238,446, 663, 638, -17, -3, -25, -4, -3, 2, 359, 38, 43,noise
2025-03-17 10:39:48.296,440, 692, 612, -18, -6, -47, -4, -4, 2, 292, 30, 24,noise
2025-03-17 10:39:48.354,334, 664, 704, 2, 7, -40, -4, -3, -4, 251, 47, 46,noise
2025-03-17 10:39:48.404,300, 672, 654, 16, -8, -33, -4, -4, -2, 235, 54, 44,noise
2025-03-17 10:39:48.454,312, 690, 663, 5, -4, -20, -4, -6, -2, 296, 100, 102,noise
2025-03-17 10:39:48.520,304, 663, 664, 9, -1, -13, -4, -7, -2, 298, 117, 132,noise
2025-03-17 10:39:49.340,320, 895, 592, -17, -1, 10, -5, -4, -5, 482, 386, 22,A
2025-03-17 10:39:49.402,353, 843, 565, -33, 5, 22, -5, -1, 0, 532, 347, 18,A
2025-03-17 10:39:49.454,471, 719, 673, 4, -9, 23, -4, -3, -5, 741, 125, 16,A
2025-03-17 10:39:49.503,253, 583, 664, -51, -1, 20, -6, -3, -3, 651, 19, 22,A
2025-03-17 10:39:49.554,441, 544, 654, 85, -28, -21, -5, -1, -4, 157, 178, 15,A
2025-03-17 10:39:49.619,496, 757, 632, -1, -16, 0, -6, -7, 0, 27, 720, 30,A
2025-03-17 10:39:49.671,464, 625, 684, -22, -8, 12, -8, -4, -1, 21, 765, 283,A
2025-03-17 10:39:49.721,473, 677, 592, 45, -7, 28, -7, -4, 0, 809, 729, 489,A
2025-03-17 10:39:49.787,548, 673, 499, -44, -11, 3, -9, -5, 3, 877, 24, 532,A
2025-03-17 10:39:49.837,543, 684, 617, -24, -5, -2, -10, -5, 4, 878, 29, 526,A
2025-03-17 10:39:49.897,294, 599, 660, -11, -4, 21, -11, -3, 1, 861, 15, 563,A
2025-03-17 10:39:49.955,529, 686, 708, -52, -55, 34, -11, -1, 2, 764, 666, 597,A
2025-03-17 10:39:50.004,525, 554, 766, 44, -51, 13, -13, 0, 6, 22, 738, 570,A
2025-03-17 10:39:50.069,679, 637, 469, -3, -30, 18, -16, -2, 8, 32, 747, 523,A
2025-03-17 10:39:50.127,680, 471, 481, 13, -15, 30, -17, -5, 16, 812, 744, 619,A
2025-03-17 10:39:50.184,718, 380, 662, -27, -9, 15, -17, -1, 15, 930, 810, 743,A
2025-03-17 10:39:50.237,654, 467, 604, 20, 7, 30, -17, -1, 15, 957, 885, 807,A
2025-03-17 10:39:50.287,577, 416, 423, 4, 14, 34, -17, 1, 15, 969, 916, 830,A
2025-03-17 10:39:50.352,676, 443, 452, 3, -31, -3, -17, 2, 16, 972, 934, 840,A
2025-03-17 10:39:50.404,1183, 1001, 442, 9, -8, -56, -17, 0, 20, 978, 951, 854,A
2025-03-17 10:39:50.468,424, 292, 686, 20, -26, -4, -17, 0, 21, 982, 958, 846,A
2025-03-17 10:39:50.521,681, 628, 395, 32, -51, 20, -18, 0, 21, 982, 964, 860,A
2025-03-17 10:39:50.571,875, 470, 458, 25, -52, 15, -19, 1, 23, 984, 968, 873,A
2025-03-17 10:39:50.636,877, 489, 233, 50, 6, -16, -21, 1, 24, 985, 966, 809,A
2025-03-17 10:39:50.687,797, 540, 118, -11, 33, 15, -20, 2, 22, 986, 952, 774,A
2025-03-17 10:39:50.752,624, 689, 616, -40, -28, -31, -21, 1, 22, 985, 966, 842,A
2025-03-17 10:39:50.803,728, 541, 191, 26, -14, 10, -18, 0, 26, 986, 974, 840,A
2025-03-17 10:39:50.869,535, 517, 395, -11, 46, 44, -20, 0, 24, 985, 969, 809,A
2025-03-17 10:39:50.921,434, 630, 715, -7, -25, -30, -20, 1, 23, 981, 953, 801,A
2025-03-17 10:39:50.971,936, 712, 402, -5, -12, 1, -21, 0, 25, 987, 978, 768,A
2025-03-17 10:39:51.037,889, 397, 360, 18, 24, 18, -20, 1, 23, 984, 978, 830,A
2025-03-17 10:39:51.097,536, 474, 621, -32, 49, -48, -17, 2, 18, 975, 965, 806,A
2025-03-17 10:39:51.153,605, 627, 601, 2, -14, -12, -16, 0, 21, 972, 952, 803,A
2025-03-17 10:39:51.485,713, 557, 468, -2, -1, -2, -19, 1, 21, 968, 942, 801,B
2025-03-17 10:39:51.544,718, 553, 455, -1, -1, -1, -18, 3, 20, 970, 942, 802,B
2025-03-17 10:39:51.596,699, 556, 465, 1, 0, 5, -19, 1, 21, 969, 946, 807,B
2025-03-17 10:39:51.651,725, 536, 439, 0, -2, 4, -19, 2, 20, 969, 950, 816,B
2025-03-17 10:39:51.705,704, 542, 458, -3, -2, 1, -17, 0, 22, 970, 952, 823,B
2025-03-17 10:39:51.755,700, 544, 446, -4, -10, 4, -20, 2, 20, 972, 957, 831,B
2025-03-17 10:39:51.819,729, 507, 481, -7, -14, 5, -20, 4, 21, 973, 961, 838,B
2025-03-17 10:39:51.871,749, 411, 464, 9, -15, -11, -19, 2, 22, 978, 969, 830,B
2025-03-17 10:39:51.923,469, 367, -56, 42, 28, 41, -19, 1, 22, 985, 968, 677,B
2025-03-17 10:39:51.987,642, 290, 635, -15, 5, -11, -19, 0, 20, 981, 967, 750,B
2025-03-17 10:39:52.042,821, 379, 409, -20, -22, -25, -16, 0, 23, 985, 977, 832,B
2025-03-17 10:39:52.102,528, 674, 441, -2, -6, 2, -17, 0, 22, 986, 981, 850,B
2025-03-17 10:39:52.159,686, 596, 119, 9, 12, 17, -22, 2, 22, 986, 980, 801,B
2025-03-17 10:39:52.203,754, 649, 387, -2, 27, 27, -21, 0, 22, 985, 979, 791,B
2025-03-17 10:39:52.300,784, 517, 198, 17, 8, 12, -19, 4, 19, 988, 979, 656,B
2025-03-17 10:39:52.325,870, 267, 376, 16, 22, -25, -18, 1, 22, 979, 969, 730,B
2025-03-17 10:39:52.384,618, 509, 636, -32, 39, -44, -19, 1, 22, 971, 962, 766,B
2025-03-17 10:39:52.444,524, 653, 581, -11, -8, -11, -18, -1, 19, 970, 958, 776,B
2025-03-17 10:39:52.715,703, 551, 481, -8, -5, 1, -18, -1, 22, 973, 958, 778,C
2025-03-17 10:39:52.773,701, 539, 478, -6, -6, 3, -19, 1, 21, 973, 958, 778,C
2025-03-17 10:39:52.831,721, 520, 452, 3, -3, 6, -20, 0, 21, 973, 960, 791,C
2025-03-17 10:39:52.884,720, 543, 456, 2, -4, 2, -19, -1, 21, 975, 961, 793,C
2025-03-17 10:39:52.936,727, 553, 464, 2, -8, 5, -17, 1, 22, 975, 963, 801,C
2025-03-17 10:39:52.986,692, 521, 499, 5, -18, 7, -19, 1, 21, 975, 968, 810,C
2025-03-17 10:39:53.052,645, 560, 499, -15, -10, -8, -20, 0, 23, 977, 972, 761,C
2025-03-17 10:39:53.103,516, 843, 74, 49, 5, -9, -20, 0, 24, 983, 971, 629,C
2025-03-17 10:39:53.153,900, 564, 307, 20, 40, 52, -19, -1, 25, 987, 978, 621,C
2025-03-17 10:39:53.219,861, 248, 340, 11, 14, -14, -17, 1, 24, 980, 979, 799,C
2025-03-17 10:39:53.270,656, 545, 558, -58, 43, -49, -19, 0, 18, 970, 970, 778,C
2025-03-17 10:39:53.334,547, 554, 569, -4, -15, 1, -18, -2, 19, 966, 955, 709,C
2025-03-17 10:39:53.597,744, 530, 417, -5, -8, 0, -18, 0, 23, 973, 960, 765,D
2025-03-17 10:39:53.653,748, 525, 427, -6, -7, -1, -21, 2, 24, 973, 960, 765,D
2025-03-17 10:39:53.703,718, 515, 454, -6, -13, -3, -19, 1, 23, 974, 964, 771,D
2025-03-17 10:39:53.752,745, 563, 426, -11, -5, -2, -19, 2, 23, 977, 969, 756,D
2025-03-17 10:39:53.819,757, 637, 613, 38, 18, 21, -18, 1, 23, 982, 972, 586,D
2025-03-17 10:39:53.869,781, 561, 122, 3, 32, 25, -19, 0, 21, 984, 969, 384,D
2025-03-17 10:39:53.937,615, 226, 525, 2, -37, -83, -23, 3, 21, 979, 965, 739,D
2025-03-17 10:39:53.988,1015, 653, 493, 3, -33, -4, -19, 0, 22, 985, 980, 810,D
2025-03-17 10:39:54.052,731, 1031, 251, 34, -3, 21, -19, -2, 24, 987, 981, 767,D
2025-03-17 10:39:54.104,1144, 226, 445, -5, 36, 17, -18, 1, 25, 984, 977, 506,D
2025-03-17 10:39:54.155,1067, 333, 241, -34, 65, -70, -19, -2, 22, 975, 958, 711,D
2025-03-17 10:39:54.220,571, 678, 613, -46, 23, -50, -18, -1, 18, 968, 951, 703,D
2025-03-17 10:39:54.285,540, 645, 631, -2, -17, 5, -17, -1, 18, 966, 941, 676,D
2025-03-17 10:39:54.530,705, 560, 455, 4, -11, 8, -18, 0, 23, 973, 958, 768,E
2025-03-17 10:39:54.592,720, 540, 438, 5, -11, 8, -20, 1, 21, 972, 960, 771,E
2025-03-17 10:39:54.641,729, 519, 450, 1, -10, 3, -20, 0, 22, 973, 963, 787,E
2025-03-17 10:39:54.702,736, 548, 412, -5, -6, 0, -20, -1, 22, 972, 963, 795,E
2025-03-17 10:39:54.752,897, 339, 333, -14, -8, -7, -18, 2, 24, 976, 968, 787,E
2025-03-17 10:39:54.817,780, 427, 605, 26, -11, -9, -19, 0, 23, 981, 972, 736,E
2025-03-17 10:39:54.869,870, 539, 321, 27, 27, 35, -19, 1, 22, 987, 969, 394,E
2025-03-17 10:39:54.932,685, -64, 674, -27, -20, -38, -19, 1, 23, 980, 967, 657,E
2025-03-17 10:39:54.986,860, 437, 436, 13, -25, -23, -19, -1, 24, 985, 977, 750,E
2025-03-17 10:39:55.050,727, 755, 204, 23, 1, 14, -20, -1, 25, 987, 984, 812,E
2025-03-17 10:39:55.102,669, 351, 341, 8, 27, 3, -19, -2, 24, 982, 978, 820,E
2025-03-17 10:39:55.153,756, 506, 549, 22, -30, 2, -20, -1, 23, 982, 968, 724,E
2025-03-17 10:39:55.218,567, 635, 219, 2, 13, 24, -19, -2, 25, 986, 981, 729,E
2025-03-17 10:39:55.270,623, 438, 370, 11, 33, 16, -17, -1, 23, 982, 971, 779,E
2025-03-17 10:39:55.333,716, 528, 567, 34, -32, 16, -19, -1, 23, 980, 949, 685,E
2025-03-17 10:39:55.385,752, 606, 308, 3, 6, 15, -19, -1, 24, 986, 978, 657,E
2025-03-17 10:39:55.445,967, 387, 121, -24, 29, -37, -19, -2, 22, 978, 971, 770,E
2025-03-17 10:39:55.502,377, 571, 761, -37, 20, -33, -18, -1, 19, 971, 944, 677,E
2025-03-17 10:39:55.800,723, 582, 427, -5, -3, 0, -19, 0, 23, 970, 951, 774,F
2025-03-17 10:39:55.854,736, 566, 420, -7, -2, 0, -21, 0, 23, 970, 952, 776,F
2025-03-17 10:39:55.905,710, 564, 445, -3, -3, 1, -18, -1, 21, 970, 955, 780,F
2025-03-17 10:39:55.954,716, 565, 429, -5, -5, 1, -19, 0, 22, 970, 954, 786,F
2025-03-17 10:39:56.021,695, 566, 476, -4, -19, 6, -18, -2, 24, 972, 960, 795,F
2025-03-17 10:39:56.070,767, 629, 395, -5, -8, -4, -20, -1, 25, 976, 967, 772,F
2025-03-17 10:39:56.135,732, 561, 535, 43, 28, 29, -21, -2, 24, 985, 967, 597,F
2025-03-17 10:39:56.188,892, 636, -48, 7, 26, 20, -20, 0, 23, 984, 961, 255,F
2025-03-17 10:39:56.251,786, -100, 551, -19, -28, -71, -19, 0, 22, 976, 961, 658,F
2025-03-17 10:39:56.303,690, 707, 578, 7, -60, 4, -19, -2, 22, 978, 971, 729,F
2025-03-17 10:39:56.353,862, 505, 14, 32, -19, 20, -20, -2, 24, 986, 983, 779,F
2025-03-17 10:39:56.421,660, 466, 535, 17, 17, 20, -19, 0, 23, 985, 980, 819,F
2025-03-17 10:39:56.469,522, 632, 583, -14, 26, -35, -19, -1, 22, 976, 961, 721,F
2025-03-17 10:39:56.536,929, 674, 67, 9, -13, 13, -20, -1, 22, 985, 973, 692,F
2025-03-17 10:39:56.588,514, 354, 423, 5, 20, 31, -19, 0, 23, 984, 980, 792,F
2025-03-17 10:39:56.652,655, 593, 244, -62, 85, -51, -18, -1, 21, 976, 967, 772,F
2025-03-17 10:39:56.703,461, 577, 829, -10, -2, -12, -17, -1, 19, 968, 938, 678,F
2025-03-17 10:39:56.963,722, 542, 455, 1, -12, 8, -19, 0, 23, 973, 964, 795,G
2025-03-17 10:39:57.019,727, 541, 424, 0, -12, 7, -19, 1, 23, 974, 965, 797,G
2025-03-17 10:39:57.083,702, 565, 446, 0, -9, 6, -19, -1, 23, 977, 969, 807,G
2025-03-17 10:39:57.137,729, 633, 306, -6, -7, -3, -20, 1, 22, 978, 972, 797,G
2025-03-17 10:39:57.194,723, 583, 535, -9, -8, -6, -20, 2, 22, 981, 975, 716,G
2025-03-17 10:39:57.253,1116, 454, 354, 44, 7, -8, -19, -1, 23, 985, 964, 533,G
2025-03-17 10:39:57.303,830, 889, 352, -24, 37, 57, -19, -1, 23, 986, 972, 446,G
2025-03-17 10:39:57.369,474, 500, 484, -13, -19, -7, -17, -1, 22, 985, 979, 711,G
2025-03-17 10:39:57.420,721, 404, 561, 19, -28, -18, -18, 0, 24, 985, 981, 695,G
2025-03-17 10:39:57.484,763, 351, 119, 7, 26, 24, -19, 0, 23, 987, 978, 568,G
2025-03-17 10:39:57.537,537, 601, 576, -18, -11, -42, -19, 3, 22, 982, 971, 648,G
2025-03-17 10:39:57.602,866, 338, 213, -15, -19, -10, -20, 1, 21, 983, 978, 443,G
2025-03-17 10:39:57.653,615, 391, 290, 15, 16, 30, -20, 1, 22, 987, 981, 720,G
2025-03-17 10:39:57.717,766, 482, 233, -45, 53, -59, -18, 1, 21, 979, 976, 742,G
2025-03-17 10:39:57.768,561, 604, 792, -9, 0, -22, -18, 0, 18, 972, 960, 678,G
2025-03-17 10:39:58.030,727, 558, 439, 4, -14, 5, -19, 1, 23, 972, 955, 704,H
2025-03-17 10:39:58.085,732, 545, 405, 4, -14, 4, -18, -1, 21, 972, 955, 715,H
2025-03-17 10:39:58.135,696, 572, 451, 3, -10, -2, -16, 3, 20, 973, 957, 741,H
2025-03-17 10:39:58.200,769, 555, 305, -1, -4, -8, -19, 1, 22, 974, 964, 752,H
2025-03-17 10:39:58.252,727, 472, 541, 3, -5, -6, -18, 0, 23, 977, 968, 741,H
2025-03-17 10:39:58.302,786, 541, 382, 27, 33, 29, -20, 1, 21, 983, 968, 502,H
2025-03-17 10:39:58.367,733, 643, 77, 13, 18, 17, -19, -1, 23, 983, 955, 164,H
2025-03-17 10:39:58.418,794, 321, 333, -28, -15, -88, -18, 0, 22, 977, 950, 456,H
2025-03-17 10:39:58.487,873, 124, 48, 35, -22, -23, -19, -1, 24, 981, 966, 447,H
2025-03-17 10:39:58.538,814, 704, 471, 31, 13, 37, -20, 0, 23, 985, 979, 677,H
2025-03-17 10:39:58.602,642, 400, 373, -37, 11, -40, -19, -1, 22, 981, 977, 774,H
2025-03-17 10:39:58.653,631, 528, 733, 14, -46, 19, -18, 0, 24, 983, 975, 782,H
2025-03-17 10:39:58.716,471, 1066, -281, 15, 35, 33, -21, 2, 22, 987, 975, 504,H
2025-03-17 10:39:58.769,852, 429, 342, 2, 28, -1, -20, 1, 22, 981, 962, 628,H
2025-03-17 10:39:58.820,655, 546, 641, -58, 26, -41, -18, -2, 22, 971, 960, 713,H
2025-03-17 10:39:59.101,711, 550, 445, -6, -2, 0, -20, 0, 21, 971, 956, 672,I
2025-03-17 10:39:59.151,732, 540, 431, -6, -2, 0, -19, 2, 20, 972, 955, 670,I
2025-03-17 10:39:59.201,699, 563, 443, -14, 1, -5, -23, 4, 19, 972, 952, 611,I
2025-03-17 10:39:59.268,680, 537, 474, -2, -15, 0, -18, 0, 24, 972, 944, 529,I
2025-03-17 10:39:59.318,817, 362, 382, 38, 0, -6, -19, 0, 24, 979, 965, 495,I
2025-03-17 10:39:59.368,694, 576, 237, 23, -4, 27, -20, 1, 22, 984, 980, 694,I
2025-03-17 10:39:59.433,759, 571, 400, 21, 5, -1, -21, 0, 22, 978, 970, 756,I
2025-03-17 10:39:59.485,617, 684, 660, -6, -7, -5, -19, -1, 22, 974, 953, 710,I
2025-03-17 10:39:59.544,675, 861, 43, 52, 13, 10, -19, -1, 25, 983, 967, 589,I
2025-03-17 10:39:59.604,682, 536, 163, 27, 44, 27, -19, 0, 23, 984, 963, 524,I
2025-03-17 10:39:59.651,490, 638, 538, -22, 2, -59, -20, 0, 20, 973, 933, 623,I
2025-03-17 10:39:59.716,851, 644, 302, 7, -19, -1, -20, 0, 21, 980, 968, 565,I
2025-03-17 10:39:59.768,663, 701, 336, 11, 15, 37, -21, 2, 21, 983, 977, 664,I
2025-03-17 10:39:59.819,901, 403, 67, -63, 61, -77, -17, 1, 20, 975, 966, 682,I
2025-03-17 10:39:59.884,501, 763, 820, -25, -3, -26, -18, -1, 21, 964, 945, 638,I
2025-03-17 10:40:00.162,734, 564, 400, -1, -4, 2, -20, 0, 22, 967, 944, 728,J
2025-03-17 10:40:00.217,744, 573, 375, -4, -2, 1, -20, 0, 22, 966, 943, 729,J
2025-03-17 10:40:00.268,698, 551, 452, -10, 1, -5, -18, -2, 23, 967, 937, 684,J
2025-03-17 10:40:00.334,699, 575, 442, -4, -14, 3, -19, 1, 21, 966, 940, 587,J
2025-03-17 10:40:00.393,884, 513, 461, 38, -6, -2, -19, 0, 23, 977, 966, 615,J
2025-03-17 10:40:00.449,676, 724, 409, 24, 4, 29, -20, 1, 24, 981, 978, 764,J
2025-03-17 10:40:00.502,668, 474, 323, -18, 11, -10, -21, -1, 22, 975, 969, 781,J
2025-03-17 10:40:00.568,820, 602, 619, -5, -13, 4, -17, -2, 24, 973, 957, 654,J
2025-03-17 10:40:00.618,832, 1171, 312, 38, 30, 41, -20, -1, 25, 986, 972, 441,J
2025-03-17 10:40:00.683,699, 659, 262, -19, 22, 19, -19, 0, 22, 985, 971, 243,J
2025-03-17 10:40:00.735,774, 492, 598, 7, -21, -58, -19, 0, 21, 965, 941, 523,J
2025-03-17 10:40:00.793,623, 622, 532, -28, 43, -18, -18, -1, 20, 957, 937, 603,J
2025-03-17 10:40:00.850,544, 580, 579, 2, -7, 7, -18, 0, 19, 958, 922, 643,J
2025-03-17 10:40:01.141,723, 576, 414, -8, -5, 2, -17, -1, 24, 966, 943, 684,K
2025-03-17 10:40:01.193,710, 561, 424, -6, -5, 3, -20, 1, 21, 966, 943, 687,K
2025-03-17 10:40:01.252,716, 553, 442, -7, -13, 5, -20, 0, 22, 968, 953, 731,K
2025-03-17 10:40:01.300,736, 530, 394, -4, -2, -1, -20, 1, 23, 972, 964, 712,K
2025-03-17 10:40:01.366,723, 507, 455, 16, -6, -3, -18, -1, 23, 980, 967, 667,K
2025-03-17 10:40:01.418,384, 662, 141, 64, 24, 21, -20, 2, 23, 980, 957, 337,K
2025-03-17 10:40:01.467,770, 435, 373, 3, 18, 12, -17, 0, 20, 981, 968, 218,K
2025-03-17 10:40:01.535,967, 928, 102, -6, -64, -11, -21, 1, 23, 984, 984, 610,K
2025-03-17 10:40:01.590,716, 537, 406, 18, -7, -6, -20, 1, 24, 982, 981, 714,K
2025-03-17 10:40:01.649,616, 343, 458, -17, 54, -46, -19, 0, 23, 973, 962, 530,K
2025-03-17 10:40:01.701,729, 456, 514, 37, -47, 23, -20, -2, 25, 979, 957, 517,K
2025-03-17 10:40:01.767,1176, 463, 276, -20, 18, 55, -20, -1, 24, 986, 978, 488,K
2025-03-17 10:40:01.818,678, 342, 350, -3, 16, 11, -19, 1, 21, 984, 975, 670,K
2025-03-17 10:40:01.868,654, 572, 593, -38, 57, -65, -18, 1, 20, 965, 946, 570,K
2025-03-17 10:40:01.934,591, 597, 556, 9, -21, -3, -18, 0, 18, 958, 936, 670,K
2025-03-17 10:40:02.190,695, 569, 446, -4, -12, 0, -20, -1, 21, 967, 947, 700,L
2025-03-17 10:40:02.249,694, 565, 447, -3, -14, 0, -21, -1, 21, 966, 949, 703,L
2025-03-17 10:40:02.299,745, 558, 419, -1, -8, -1, -19, 0, 22, 967, 953, 731,L
2025-03-17 10:40:02.357,701, 543, 453, -3, -10, 0, -20, -2, 22, 970, 955, 734,L
2025-03-17 10:40:02.419,838, 491, 353, -10, -1, -5, -20, 1, 23, 971, 960, 715,L
2025-03-17 10:40:02.467,726, 505, 478, 7, -7, -6, -20, 1, 22, 976, 967, 661,L
2025-03-17 10:40:02.522,743, 752, 188, 38, 17, 13, -19, 1, 23, 982, 963, 541,L
2025-03-17 10:40:02.583,763, 727, 144, 13, 21, 12, -19, -1, 24, 982, 949, 225,L
2025-03-17 10:40:02.643,789, 309, 536, 21, -2, 33, -18, 0, 24, 986, 979, 357,L
2025-03-17 10:40:02.692,673, 486, 419, 11, 2, 17, -19, 0, 23, 986, 982, 612,L
2025-03-17 10:40:02.758,875, 379, 53, -42, 57, -76, -18, -1, 21, 975, 966, 680,L
2025-03-17 10:40:02.816,536, 643, 743, -25, 14, -27, -16, 0, 18, 964, 920, 531,L
2025-03-17 10:40:03.081,677, 557, 474, -2, -10, 1, -19, 1, 19, 962, 935, 627,M
2025-03-17 10:40:03.133,692, 564, 458, -1, -11, 0, -19, 0, 22, 964, 935, 626,M
2025-03-17 10:40:03.193,721, 565, 437, 1, -8, 2, -19, -1, 19, 964, 936, 622,M
2025-03-17 10:40:03.250,692, 576, 447, -2, -15, -1, -19, 0, 21, 963, 942, 689,M
2025-03-17 10:40:03.301,776, 551, 442, 0, -23, 7, -18, 0, 22, 969, 960, 708,M
2025-03-17 10:40:03.365,773, 433, 539, 34, -1, -5, -20, -1, 25, 978, 962, 565,M
2025-03-17 10:40:03.417,879, 853, -250, 28, 23, 16, -19, 0, 21, 983, 951, 370,M
2025-03-17 10:40:03.467,807, 105, 651, -19, -31, -44, -18, 0, 22, 970, 954, 663,M
2025-03-17 10:40:03.534,662, 576, 249, -13, -15, -12, -20, 0, 21, 974, 970, 725,M
2025-03-17 10:40:03.595,799, 626, 268, 30, 2, 15, -21, -1, 23, 982, 973, 679,M
2025-03-17 10:40:03.652,814, 519, 165, 0, 22, 26, -20, -1, 23, 983, 976, 659,M
2025-03-17 10:40:03.700,697, 500, 478, -9, -24, -17, -19, 1, 23, 979, 975, 757,M
2025-03-17 10:40:03.760,750, 627, 316, 28, 6, 7, -19, 1, 22, 984, 973, 661,M
2025-03-17 10:40:03.817,860, 645, 124, 4, 25, 19, -21, 0, 23, 982, 970, 654,M
2025-03-17 10:40:03.868,771, 600, 290, -57, 52, -47, -20, 1, 19, 972, 966, 677,M
2025-03-17 10:40:03.934,498, 599, 767, -26, 0, -17, -17, 1, 20, 970, 962, 586,M
2025-03-17 10:40:04.189,705, 554, 432, -4, -3, 0, -19, -1, 23, 966, 942, 534,N
2025-03-17 10:40:04.250,705, 547, 430, -3, -3, -1, -17, 3, 23, 966, 940, 535,N
2025-03-17 10:40:04.300,753, 571, 408, -1, -6, 2, -18, 0, 21, 963, 937, 535,N
2025-03-17 10:40:04.351,726, 567, 401, -3, -3, 1, -18, 0, 22, 961, 938, 547,N
2025-03-17 10:40:04.418,690, 530, 482, -2, -12, -1, -19, 1, 22, 965, 943, 596,N
2025-03-17 10:40:04.467,760, 501, 444, -8, -7, -8, -21, 0, 22, 969, 957, 540,N
2025-03-17 10:40:04.518,939, 785, 501, 40, 25, 26, -19, 2, 20, 981, 955, 422,N
2025-03-17 10:40:04.581,773, 629, 271, 3, 26, 18, -19, 0, 23, 977, 951, 457,N
2025-03-17 10:40:04.633,684, 755, 482, -18, -31, -29, -20, 1, 21, 971, 959, 714,N
2025-03-17 10:40:04.700,710, 459, 496, 15, -16, 10, -20, -2, 24, 981, 972, 697,N
2025-03-17 10:40:04.750,686, 534, 258, 15, 25, 45, -20, 0, 23, 984, 966, 475,N
2025-03-17 10:40:04.816,777, -168, 706, -4, -26, -41, -17, 4, 21, 982, 979, 650,N
2025-03-17 10:40:04.867,793, 582, 347, 45, -8, -12, -19, 2, 22, 976, 973, 817,N
2025-03-17 10:40:04.917,646, 704, 490, -51, 69, -21, -20, 1, 19, 969, 949, 713,N
2025-03-17 10:40:04.983,576, 582, 609, -5, -20, 7, -16, 0, 21, 965, 937, 622,N
2025-03-17 10:40:05.276,739, 538, 419, 0, -6, 2, -19, 1, 21, 966, 951, 664,O
2025-03-17 10:40:05.341,748, 535, 412, 0, -6, 2, -22, -2, 22, 967, 950, 664,O
2025-03-17 10:40:05.396,736, 542, 418, 0, -4, 1, -20, 1, 20, 966, 952, 669,O
2025-03-17 10:40:05.450,736, 560, 429, 3, -5, 3, -19, 0, 21, 968, 955, 684,O
2025-03-17 10:40:05.500,735, 551, 417, 2, -8, 6, -19, -1, 22, 969, 958, 703,O
2025-03-17 10:40:05.564,723, 602, 371, -14, -5, -13, -18, -1, 23, 970, 967, 651,O
2025-03-17 10:40:05.616,660, 349, 577, -16, -10, -32, -20, 1, 23, 973, 963, 239,O
2025-03-17 10:40:05.667,1198, 1300, 60, 13, 42, 44, -21, 0, 25, 983, 963, 28,O
2025-03-17 10:40:05.735,484, 639, 353, -40, 7, 35, -19, 1, 21, 983, 980, 208,O
2025-03-17 10:40:05.792,175, 263, 723, -6, -42, -55, -22, 2, 21, 974, 980, 618,O
2025-03-17 10:40:05.851,989, 503, 17, -23, 52, -45, -19, -1, 24, 948, 963, 658,O
2025-03-17 10:40:05.899,563, 753, 662, -31, 45, 6, -18, -2, 20, 945, 920, 441,O
2025-03-17 10:40:05.966,629, 529, 494, 2, -7, 5, -17, -3, 18, 943, 893, 393,O
2025-03-17 10:40:06.228,715, 571, 417, -3, -9, 3, -19, -1, 20, 952, 933, 524,P
2025-03-17 10:40:06.282,728, 562, 418, -1, -8, 4, -18, -2, 21, 953, 934, 531,P
2025-03-17 10:40:06.336,728, 541, 432, 1, -6, 5, -15, 2, 21, 955, 938, 552,P
2025-03-17 10:40:06.392,729, 539, 444, 4, -8, 0, -21, 0, 22, 958, 941, 591,P
2025-03-17 10:40:06.449,696, 553, 436, -1, -13, 0, -18, -1, 22, 959, 947, 625,P
2025-03-17 10:40:06.501,775, 611, 416, -13, -5, -9, -19, 1, 23, 962, 955, 538,P
2025-03-17 10:40:06.565,728, 397, 608, 39, -12, -12, -20, -2, 23, 973, 958, 438,P
2025-03-17 10:40:06.616,884, 369, -32, 32, 26, 27, -20, 1, 25, 980, 960, 22,P
2025-03-17 10:40:06.667,457, 74, 936, 4, -37, -37, -20, 0, 22, 973, 962, 506,P
2025-03-17 10:40:06.735,861, 530, 589, 9, -45, -17, -18, -2, 24, 975, 975, 701,P
2025-03-17 10:40:06.784,527, 701, 340, 11, -9, 13, -20, 1, 21, 982, 979, 613,P
2025-03-17 10:40:06.841,928, 532, 222, -25, 43, 19, -19, 0, 24, 982, 977, 383,P
2025-03-17 10:40:06.899,1187, 455, 101, -32, 56, -37, -19, 0, 23, 974, 956, 429,P
2025-03-17 10:40:06.965,448, 582, 815, -23, 19, -27, -19, -1, 20, 970, 960, 521,P
2025-03-17 10:40:07.016,619, 614, 536, 26, -37, 13, -17, -1, 20, 966, 959, 585,P
2025-03-17 10:40:07.262,713, 562, 436, 1, -3, 3, -21, 1, 20, 967, 959, 630,Q
2025-03-17 10:40:07.315,712, 579, 439, 1, -4, 3, -19, 0, 23, 968, 960, 631,Q
2025-03-17 10:40:07.371,749, 550, 391, 2, -7, 2, -19, 0, 23, 968, 961, 639,Q
2025-03-17 10:40:07.421,731, 553, 415, -3, -5, 2, -19, 2, 20, 970, 962, 635,Q
2025-03-17 10:40:07.483,710, 572, 430, -2, -12, 4, -19, 2, 21, 973, 965, 632,Q
2025-03-17 10:40:07.543,704, 570, 491, -16, -5, -11, -19, 0, 24, 974, 970, 496,Q
2025-03-17 10:40:07.599,280, 333, 589, 26, -11, -25, -19, 0, 25, 977, 964, 22,Q
2025-03-17 10:40:07.650,1015, 689, 137, 19, 32, 25, -19, -2, 24, 981, 955, 23,Q
2025-03-17 10:40:07.715,685, 518, 333, -10, 19, 31, -19, 0, 22, 981, 970, 113,Q
2025-03-17 10:40:07.767,855, 404, 455, -2, -25, -23, -20, 1, 21, 975, 972, 478,Q
2025-03-17 10:40:07.830,652, 604, 495, -10, 11, -2, -20, -2, 23, 973, 965, 479,Q
2025-03-17 10:40:07.886,787, 565, 347, -3, -19, 3, -20, -1, 23, 975, 969, 514,Q
2025-03-17 10:40:07.948,834, 491, 351, -26, -12, -14, -19, -1, 24, 976, 976, 462,Q
2025-03-17 10:40:08.000,744, 577, 378, 9, -7, -4, -21, 1, 22, 979, 976, 465,Q
2025-03-17 10:40:08.049,747, 523, 398, 4, -1, -1, -20, 1, 22, 978, 974, 488,Q
2025-03-17 10:40:08.100,740, 578, 383, 0, 3, 0, -20, 0, 23, 978, 975, 521,Q
2025-03-17 10:40:08.169,735, 553, 391, -1, -1, 0, -19, -1, 24, 978, 974, 528,Q
2025-03-17 10:40:08.216,773, 561, 363, -1, 1, 2, -19, 0, 24, 973, 970, 572,Q
2025-03-17 10:40:08.266,768, 513, 343, -5, 35, -6, -20, 1, 21, 972, 965, 516,Q
2025-03-17 10:40:08.333,591, 653, 561, 16, 3, 10, -19, -1, 22, 972, 960, 384,Q
2025-03-17 10:40:08.383,719, 526, 381, 9, -5, 12, -20, 0, 21, 974, 960, 353,Q
2025-03-17 10:40:08.444,772, 573, 405, -5, -14, 0, -21, 0, 23, 975, 958, 350,Q
2025-03-17 10:40:08.501,890, 648, 488, 20, -8, 7, -20, -1, 23, 981, 972, 323,Q
2025-03-17 10:40:08.552,730, 640, 210, 6, 11, 42, -19, 2, 23, 989, 980, 194,Q
2025-03-17 10:40:08.602,899, 51, 435, -12, 18, -34, -18, 3, 22, 982, 976, 363,Q
2025-03-17 10:40:08.667,635, 546, 716, -28, 48, -46, -20, 1, 19, 966, 955, 405,Q
2025-03-17 10:40:08.732,629, 583, 538, 13, -10, -7, -18, -1, 19, 955, 939, 420,Q
2025-03-17 10:40:09.079,693, 548, 471, -2, -2, -1, -18, -1, 20, 953, 928, 390,R
2025-03-17 10:40:09.132,705, 565, 465, -3, -2, -1, -18, 2, 20, 953, 928, 386,R
2025-03-17 10:40:09.183,693, 548, 481, -6, -4, 0, -17, 0, 20, 953, 926, 368,R
2025-03-17 10:40:09.247,715, 540, 455, -8, -7, -1, -17, -2, 21, 954, 929, 343,R
2025-03-17 10:40:09.299,695, 548, 481, -3, -10, 2, -17, -1, 20, 958, 935, 318,R
2025-03-17 10:40:09.350,729, 552, 439, 0, -8, 2, -18, -2, 23, 961, 942, 391,R
2025-03-17 10:40:09.415,699, 541, 463, -2, -6, -1, -18, 2, 19, 964, 948, 437,R
2025-03-17 10:40:09.467,701, 551, 460, 5, -14, 3, -18, -1, 22, 964, 951, 493,R
2025-03-17 10:40:09.530,722, 550, 399, -5, -17, -8, -20, 0, 22, 965, 951, 536,R
2025-03-17 10:40:09.583,825, 466, 346, -6, -21, -9, -20, -2, 23, 968, 963, 532,R
2025-03-17 10:40:09.644,410, 1029, 225, 65, 32, 38, -22, -1, 24, 980, 964, 484,R
2025-03-17 10:40:09.700,721, 394, 236, 2, 31, 22, -18, -2, 23, 981, 969, 317,R
2025-03-17 10:40:09.750,713, 529, 403, 30, -55, -54, -19, -1, 22, 976, 974, 706,R
2025-03-17 10:40:09.816,727, 604, 469, 23, -18, 1, -23, 0, 24, 982, 979, 717,R
2025-03-17 10:40:09.866,996, 418, 311, -13, 32, 22, -20, -1, 23, 983, 975, 285,R
2025-03-17 10:40:09.930,772, 583, 214, -5, 33, 45, -19, 1, 22, 986, 982, 187,R
2025-03-17 10:40:09.985,856, 474, 185, -28, 61, -52, -18, 1, 21, 981, 975, 391,R
2025-03-17 10:40:10.041,461, 587, 759, -34, 25, -46, -17, -1, 19, 965, 949, 404,R
2025-03-17 10:40:10.332,720, 537, 452, -3, -9, 4, -19, -1, 22, 964, 945, 510,S
2025-03-17 10:40:10.389,714, 555, 448, -3, -10, 5, -18, 2, 21, 965, 947, 514,S
2025-03-17 10:40:10.443,760, 537, 399, -3, -8, 2, -21, 0, 23, 967, 954, 522,S
2025-03-17 10:40:10.496,730, 544, 422, -5, -2, 1, -20, 1, 22, 970, 956, 513,S
2025-03-17 10:40:10.550,723, 540, 446, 2, -10, 4, -19, 0, 23, 969, 961, 552,S
2025-03-17 10:40:10.599,728, 564, 431, 0, -8, 4, -20, -1, 22, 971, 964, 560,S
2025-03-17 10:40:10.665,762, 648, 346, -17, -5, -5, -18, -1, 23, 975, 971, 431,S
2025-03-17 10:40:10.715,862, 381, 555, 24, -16, -20, -19, -1, 24, 976, 970, 177,S
2025-03-17 10:40:10.782,710, 939, 75, 24, 39, 29, -19, -2, 25, 982, 974, 230,S
2025-03-17 10:40:10.833,596, 901, 517, 7, 14, 26, -19, -2, 25, 984, 977, 271,S
2025-03-17 10:40:10.892,708, 491, 334, 8, 23, -13, -17, 3, 21, 973, 952, 239,S
2025-03-17 10:40:10.948,728, 582, 333, -45, 63, -54, -20, 0, 20, 964, 929, 208,S
2025-03-17 10:40:11.229,702, 580, 437, 0, -10, 3, -15, 1, 21, 965, 951, 506,T
2025-03-17 10:40:11.291,707, 572, 429, 0, -9, 3, -19, 0, 23, 967, 954, 509,T
2025-03-17 10:40:11.347,722, 565, 402, -2, -6, 1, -19, 1, 20, 964, 955, 574,T
2025-03-17 10:40:11.398,708, 550, 444, -13, 4, -2, -18, 0, 20, 965, 959, 604,T
2025-03-17 10:40:11.448,645, 560, 476, -9, -8, -3, -19, -1, 21, 964, 952, 539,T
2025-03-17 10:40:11.515,821, 624, 429, 1, -10, -15, -20, 0, 22, 970, 953, 227,T
2025-03-17 10:40:11.566,528, 662, 129, 1, -32, 44, -18, 0, 24, 981, 980, 551,T
2025-03-17 10:40:11.621,681, 393, 441, 20, 7, 16, -19, 4, 21, 983, 977, 721,T
2025-03-17 10:40:11.682,562, 552, 494, -25, 16, -41, -18, -2, 24, 977, 964, 680,T
2025-03-17 10:40:11.742,922, 679, 536, 29, -24, -13, -20, -2, 24, 982, 969, 611,T
2025-03-17 10:40:11.799,588, 809, 174, 12, 32, 28, -19, 0, 24, 987, 972, 400,T
2025-03-17 10:40:11.848,997, 611, 375, -9, 27, -1, -20, 0, 22, 978, 955, 561,T
2025-03-17 10:40:11.915,616, 528, 734, -42, 26, -34, -16, -1, 21, 962, 949, 616,T
2025-03-17 10:40:12.206,680, 547, 477, -4, -3, 0, -19, 0, 20, 961, 934, 512,U
2025-03-17 10:40:12.264,678, 549, 510, -2, -6, 0, -19, 1, 19, 960, 935, 511,U
2025-03-17 10:40:12.315,728, 545, 407, 3, -11, 2, -19, -1, 22, 962, 937, 525,U
2025-03-17 10:40:12.379,697, 571, 436, -4, -8, -1, -20, -2, 23, 963, 943, 553,U
2025-03-17 10:40:12.431,744, 575, 389, -11, -16, -1, -19, 0, 24, 966, 954, 542,U
2025-03-17 10:40:12.489,734, 371, 573, 17, -12, -12, -20, 1, 24, 973, 954, 375,U
2025-03-17 10:40:12.552,167, 801, -140, 13, 29, 47, -18, 0, 24, 983, 964, 237,U
2025-03-17 10:40:12.599,616, 402, 354, -32, -1, 15, -21, 1, 21, 981, 976, 464,U
2025-03-17 10:40:12.665,936, 539, 492, -22, -29, -23, -19, 1, 23, 974, 977, 673,U
2025-03-17 10:40:12.715,1087, 590, 229, 38, 21, 13, -20, -2, 23, 982, 973, 527,U
2025-03-17 10:40:12.781,819, 615, 247, 6, 29, 20, -16, 1, 20, 983, 972, 530,U
2025-03-17 10:40:12.834,737, 555, 298, -43, 37, -46, -18, -1, 21, 969, 965, 639,U
2025-03-17 10:40:12.899,546, 590, 714, -30, 3, -15, -17, -1, 19, 962, 956, 564,U
2025-03-17 10:40:13.174,712, 544, 423, -5, -1, -4, -18, -1, 22, 960, 935, 475,V
2025-03-17 10:40:13.232,733, 555, 441, -5, -1, -4, -19, 3, 22, 962, 935, 469,V
2025-03-17 10:40:13.282,694, 543, 454, 4, -7, 1, -18, 1, 19, 963, 932, 468,V
2025-03-17 10:40:13.333,736, 541, 454, 4, -6, 0, -18, 0, 23, 962, 937, 476,V
2025-03-17 10:40:13.396,718, 552, 392, 0, -10, -7, -17, -2, 22, 962, 937, 529,V
2025-03-17 10:40:13.449,1045, 525, 304, -16, -4, -11, -19, 0, 23, 967, 949, 481,V
2025-03-17 10:40:13.504,855, 515, 561, 44, -7, 7, -21, 3, 21, 977, 957, 482,V
2025-03-17 10:40:13.566,857, 528, 234, 30, 19, 41, -18, -2, 23, 983, 963, 150,V
2025-03-17 10:40:13.616,726, 241, 720, -17, -27, 1, -19, -1, 23, 983, 980, 330,V
2025-03-17 10:40:13.682,680, 454, 455, 6, -30, -17, -20, 1, 24, 980, 982, 562,V
2025-03-17 10:40:13.733,851, 534, 283, -17, 22, -17, -19, 0, 23, 976, 973, 623,V
2025-03-17 10:40:13.798,643, 562, 537, -23, 44, -13, -18, -1, 22, 972, 967, 503,V
2025-03-17 10:40:13.849,651, 533, 556, 1, -4, -3, -18, 1, 21, 967, 951, 457,V
2025-03-17 10:40:14.125,671, 536, 484, 7, 0, 1, -17, 1, 21, 966, 930, 391,W
2025-03-17 10:40:14.179,692, 521, 476, 9, 0, 2, -20, 0, 19, 964, 930, 394,W
2025-03-17 10:40:14.234,747, 569, 408, 1, 5, 0, -17, -1, 22, 963, 929, 399,W
2025-03-17 10:40:14.284,704, 526, 486, -1, 1, -1, -19, 1, 19, 963, 932, 397,W
2025-03-17 10:40:14.347,639, 560, 540, 6, -24, -1, -20, -1, 21, 963, 940, 416,W
2025-03-17 10:40:14.398,804, 479, 422, 6, -24, 1, -18, -1, 23, 969, 955, 380,W
2025-03-17 10:40:14.451,673, 779, 400, 14, 19, 22, -18, 0, 22, 981, 960, 39,W
2025-03-17 10:40:14.514,767, 757, 409, 15, 10, 31, -21, 0, 23, 982, 970, 161,W
2025-03-17 10:40:14.570,638, 423, 845, -5, -26, -18, -21, 1, 22, 982, 978, 381,W
2025-03-17 10:40:14.629,696, 355, 537, 1, -18, -14, -20, 4, 22, 981, 979, 425,W
2025-03-17 10:40:14.681,948, 838, 301, 32, 37, 39, -22, 1, 21, 983, 974, 209,W
2025-03-17 10:40:14.743,848, 862, 216, -53, 16, 30, -21, 0, 24, 985, 981, 109,W
2025-03-17 10:40:14.797,1028, 289, 428, -6, -34, -15, -20, 2, 23, 984, 982, 436,W
2025-03-17 10:40:14.848,905, 537, 73, -29, 57, -24, -21, 1, 24, 980, 974, 345,W
2025-03-17 10:40:14.915,525, 545, 793, -19, 39, -14, -19, 1, 21, 976, 968, 121,W
2025-03-17 10:40:14.964,680, 515, 505, 12, -17, 1, -19, 1, 21, 972, 960, 234,W
2025-03-17 10:40:15.019,780, 509, 391, 1, -8, -5, -18, 1, 18, 970, 957, 254,W
2025-03-17 10:40:15.081,703, 539, 472, -1, -2, -1, -20, 1, 21, 969, 953, 253,W
2025-03-17 10:40:15.141,764, 530, 425, -2, 0, -1, -18, 1, 22, 967, 953, 253,W
2025-03-17 10:40:15.394,716, 518, 478, -1, -7, 2, -19, 1, 21, 969, 957, 280,X
2025-03-17 10:40:15.447,711, 514, 479, 2, -8, 2, -21, 1, 22, 969, 958, 282,X
2025-03-17 10:40:15.498,734, 505, 469, 3, -9, 3, -17, 0, 21, 971, 961, 298,X
2025-03-17 10:40:15.548,734, 517, 429, 6, -10, 3, -19, 1, 24, 971, 960, 385,X
2025-03-17 10:40:15.612,765, 522, 427, 8, -9, 3, -20, 1, 23, 972, 963, 451,X
2025-03-17 10:40:15.665,763, 508, 417, -5, 3, -4, -19, 1, 20, 970, 964, 432,X
2025-03-17 10:40:15.714,745, 512, 436, -1, -5, -1, -19, 1, 22, 971, 964, 454,X
2025-03-17 10:40:15.780,692, 527, 493, 6, -20, 3, -20, 1, 22, 974, 969, 482,X
2025-03-17 10:40:15.831,653, 344, 451, 10, -11, -16, -20, 2, 24, 976, 974, 252,X
2025-03-17 10:40:15.880,866, 644, 57, 48, 16, -5, -20, 1, 23, 979, 962, 77,X
2025-03-17 10:40:15.940,756, 624, 240, -42, 55, 8, -19, 2, 22, 971, 943, 86,X
2025-03-17 10:40:15.998,410, 796, 967, 2, -39, 5, -18, -2, 23, 969, 955, 523,X
2025-03-17 10:40:16.048,903, 894, -77, 11, -6, 38, -18, -2, 24, 985, 975, 441,X
2025-03-17 10:40:16.114,577, 466, 593, -9, 33, 46, -18, 0, 23, 986, 976, 332,X
2025-03-17 10:40:16.164,750, 461, 259, -34, 38, -66, -17, 0, 23, 975, 965, 498,X
2025-03-17 10:40:16.230,624, 722, 777, -18, 5, -28, -18, -1, 19, 955, 947, 500,X
2025-03-17 10:40:16.493,719, 534, 449, 1, -5, -1, -19, -2, 23, 960, 942, 493,Y
2025-03-17 10:40:16.548,727, 549, 435, 1, -6, -2, -21, 1, 22, 959, 943, 498,Y
2025-03-17 10:40:16.598,717, 559, 423, -3, -4, -3, -20, -1, 21, 961, 946, 502,Y
2025-03-17 10:40:16.664,691, 576, 431, -8, -3, -4, -18, -1, 24, 962, 942, 454,Y
2025-03-17 10:40:16.717,750, 427, 295, -18, -5, -9, -19, 0, 24, 967, 951, 277,Y
2025-03-17 10:40:16.771,797, 964, 372, 22, -1, 47, -19, 0, 25, 981, 974, 504,Y
2025-03-17 10:40:16.832,719, 379, 421, 18, 17, 20, -19, -1, 22, 981, 974, 654,Y
2025-03-17 10:40:16.892,515, 602, 722, -15, -10, -21, -21, 0, 22, 975, 972, 718,Y
2025-03-17 10:40:16.946,783, 727, 141, 7, -31, -12, -20, 1, 23, 983, 975, 609,Y
2025-03-17 10:40:17.004,458, 979, 180, 12, 36, 31, -20, 0, 24, 984, 968, 211,Y
2025-03-17 10:40:17.062,885, 583, 236, -1, 46, 11, -21, 3, 20, 977, 955, 491,Y
2025-03-17 10:40:17.113,666, 647, 602, -64, 28, -43, -19, -2, 22, 966, 957, 576,Y
2025-03-17 10:40:17.180,536, 570, 613, -10, -22, -1, -18, 0, 20, 964, 959, 546,Y
2025-03-17 10:40:17.435,700, 550, 450, -2, -6, -1, -20, 1, 22, 966, 952, 491,Z
2025-03-17 10:40:17.490,705, 548, 458, -2, -7, -1, -20, 1, 22, 967, 952, 494,Z
2025-03-17 10:40:17.549,715, 546, 426, -9, -7, -2, -21, 0, 22, 966, 942, 417,Z
2025-03-17 10:40:17.599,702, 529, 467, 1, -21, 3, -22, 1, 22, 968, 939, 268,Z
2025-03-17 10:40:17.650,787, 478, 261, 18, 6, -5, -20, 0, 26, 976, 964, 22,Z
2025-03-17 10:40:17.713,573, 685, 602, 36, -14, 27, -20, 1, 25, 983, 977, 516,Z
2025-03-17 10:40:17.769,54, 1035, -107, 46, 29, 23, -19, 1, 24, 983, 972, 278,Z
2025-03-17 10:40:17.828,528, 569, 40, -45, 23, -14, -20, 1, 23, 983, 958, 22,Z
2025-03-17 10:40:17.885,974, 854, 490, 13, -22, 26, -19, -2, 22, 986, 983, 79,Z
2025-03-17 10:40:17.934,712, 542, 241, 2, 10, 19, -20, 0, 23, 986, 981, 244,Z
2025-03-17 10:40:17.998,667, 482, 139, -40, 34, -76, -18, 1, 24, 980, 967, 387,Z
2025-03-17 10:40:18.047,645, 662, 597, 19, -73, 35, -19, -3, 23, 978, 962, 388,Z
2025-03-17 10:40:18.114,778, 587, 150, -1, -3, 39, -17, -2, 25, 987, 981, 307,Z
2025-03-17 10:40:18.164,673, 572, 470, 17, 13, 14, -20, 0, 25, 984, 977, 583,Z
2025-03-17 10:40:18.229,634, 637, 508, -70, 71, -56, -18, -1, 22, 972, 958, 435,Z
2025-03-17 10:40:18.280,569, 553, 521, 10, -26, -1, -17, 0, 21, 967, 939, 403,Z
2025-03-17 10:40:18.546,730, 553, 401, -3, -2, 3, -20, -1, 22, 968, 944, 385,a
2025-03-17 10:40:18.598,733, 552, 409, -3, -3, 2, -17, 1, 22, 968, 946, 397,a
2025-03-17 10:40:18.648,713, 557, 456, 1, -4, 2, -17, -3, 23, 972, 952, 461,a
2025-03-17 10:40:18.712,743, 558, 411, -4, 1, -1, -19, -1, 22, 970, 952, 486,a
2025-03-17 10:40:18.769,702, 559, 445, 2, -1, 4, -20, 0, 23, 972, 954, 485,a
2025-03-17 10:40:18.813,745, 560, 409, 2, -6, 4, -17, -1, 23, 972, 955, 477,a
2025-03-17 10:40:18.868,720, 554, 426, 4, -2, 6, -19, -2, 24, 973, 954, 460,a
2025-03-17 10:40:18.931,723, 536, 424, 9, -12, 9, -20, 1, 23, 975, 959, 471,a
2025-03-17 10:40:18.988,778, 630, 327, -25, -3, -6, -20, 1, 22, 978, 968, 253,a
2025-03-17 10:40:19.046,245, 337, 483, 21, -7, -29, -21, 1, 23, 981, 963, 21,a
2025-03-17 10:40:19.097,714, 546, 353, -4, 32, 31, -20, 0, 24, 985, 969, 31,a
2025-03-17 10:40:19.147,577, 315, 704, -5, -23, -8, -21, 0, 26, 984, 978, 294,a
2025-03-17 10:40:19.212,810, 519, 401, 20, -26, -23, -20, -1, 23, 983, 975, 383,a
2025-03-17 10:40:19.268,688, 276, 287, -13, 26, 23, -20, 0, 22, 985, 977, 279,a
2025-03-17 10:40:19.330,743, 581, 293, -29, 33, -42, -20, 2, 22, 979, 974, 481,a
2025-03-17 10:40:19.630,720, 522, 467, -2, -10, 0, -18, 3, 21, 969, 961, 473,b
2025-03-17 10:40:19.687,711, 511, 446, 2, -11, -1, -20, 1, 22, 971, 964, 477,b
2025-03-17 10:40:19.745,739, 545, 429, 3, -10, -1, -17, -1, 24, 968, 963, 514,b
2025-03-17 10:40:19.795,754, 498, 426, -12, 0, -6, -19, 1, 23, 970, 967, 411,b
2025-03-17 10:40:19.845,783, 588, 709, 33, 15, 17, -20, -2, 25, 977, 965, 400,b
2025-03-17 10:40:19.912,647, 613, 159, 18, 18, 21, -17, -2, 24, 980, 951, 206,b
2025-03-17 10:40:19.962,729, 241, 714, 13, -17, -20, -19, 0, 23, 971, 944, 414,b
2025-03-17 10:40:20.028,650, 633, 626, 16, -23, 4, -20, 0, 24, 979, 961, 573,b
2025-03-17 10:40:20.087,659, 927, -218, -24, 27, 37, -21, 1, 24, 985, 969, 243,b
2025-03-17 10:40:20.138,918, 344, 402, -4, 28, -10, -19, 1, 23, 975, 938, 238,b
2025-03-17 10:40:20.196,627, 563, 606, -33, 39, -32, -19, 0, 21, 970, 941, 383,b
2025-03-17 10:40:20.505,736, 554, 406, 0, -1, 3, -20, 0, 23, 972, 951, 472,c
2025-03-17 10:40:20.547,755, 541, 403, -1, -1, 2, -21, 1, 23, 971, 949, 474,c
2025-03-17 10:40:20.614,723, 547, 440, 0, -2, 1, -21, 0, 24, 971, 952, 471,c
2025-03-17 10:40:20.664,748, 550, 407, -2, 0, 1, -21, 1, 23, 973, 954, 485,c
2025-03-17 10:40:20.714,743, 524, 410, 1, -1, 4, -20, 1, 22, 974, 954, 478,c
2025-03-17 10:40:20.764,737, 545, 437, 5, 0, 9, -20, 0, 24, 975, 959, 520,c
2025-03-17 10:40:20.834,962, 392, 308, -9, -6, -4, -19, 1, 23, 977, 966, 444,c
2025-03-17 10:40:20.890,740, 551, 588, -28, -6, -5, -20, 0, 23, 980, 974, 150,c
2025-03-17 10:40:20.944,809, 586, 107, 40, 17, -8, -21, 0, 23, 983, 967, 70,c
2025-03-17 10:40:20.997,579, 368, 484, 16, 25, 34, -20, 3, 20, 987, 977, 94,c
2025-03-17 10:40:21.047,984, 301, 104, -5, 30, -49, -18, 2, 22, 981, 972, 480,c
2025-03-17 10:40:21.113,509, 622, 756, -26, 14, -25, -18, 1, 20, 967, 959, 410,c
2025-03-17 10:40:21.358,723, 540, 448, -4, -2, 1, -19, 2, 22, 967, 945, 399,d
2025-03-17 10:40:21.413,709, 536, 473, -2, -4, 1, -20, 1, 22, 966, 947, 393,d
2025-03-17 10:40:21.473,763, 532, 373, 0, -6, 1, -19, 0, 23, 966, 945, 352,d
2025-03-17 10:40:21.530,710, 535, 478, 2, -8, 5, -19, -1, 24, 967, 949, 349,d
2025-03-17 10:40:21.580,740, 526, 431, 2, -11, 7, -20, 2, 23, 969, 957, 361,d
2025-03-17 10:40:21.639,753, 538, 471, -12, 0, -8, -18, 0, 23, 973, 967, 253,d
2025-03-17 10:40:21.696,572, 581, 440, -10, -5, -14, -17, -2, 25, 976, 971, 23,d
2025-03-17 10:40:21.747,745, 498, 418, 26, 9, -12, -17, 0, 23, 981, 960, 33,d
2025-03-17 10:40:21.802,823, 475, 156, -2, 24, 43, -22, 1, 22, 982, 971, 73,d
2025-03-17 10:40:21.865,354, 238, 636, -2, -20, -19, -20, 1, 21, 979, 975, 230,d
2025-03-17 10:40:21.913,660, 353, 637, 6, -16, -19, -19, 0, 22, 975, 975, 368,d
2025-03-17 10:40:21.979,787, 588, 416, 39, 32, 48, -21, 1, 23, 982, 967, 90,d
2025-03-17 10:40:22.034,800, 537, 271, 10, 20, 13, -20, 2, 23, 983, 965, 20,d
2025-03-17 10:40:22.087,708, 594, 375, -37, 41, -52, -18, 1, 20, 973, 962, 318,d
2025-03-17 10:40:22.402,726, 530, 434, 0, -4, -1, -19, 0, 23, 970, 938, 38,e
2025-03-17 10:40:22.460,734, 525, 438, -1, -4, -3, -23, 3, 22, 969, 934, 24,e
2025-03-17 10:40:22.514,733, 567, 462, -1, -4, -3, -20, 1, 21, 971, 932, 21,e
2025-03-17 10:40:22.564,816, 456, 295, 36, -4, -7, -20, 1, 23, 979, 959, 21,e
2025-03-17 10:40:22.628,724, 603, 299, -10, 13, 37, -21, 1, 22, 985, 975, 225,e
2025-03-17 10:40:22.681,671, 397, 578, -8, -15, -11, -21, 2, 21, 983, 976, 345,e
2025-03-17 10:40:22.741,528, 285, 592, 7, -19, -35, -21, 1, 21, 983, 973, 91,e
2025-03-17 10:40:22.796,725, 798, 206, -6, 29, 45, -19, 1, 23, 989, 977, 89,e
2025-03-17 10:40:22.847,748, 359, 651, 10, 10, 20, -20, 2, 23, 984, 974, 215,e
2025-03-17 10:40:22.910,626, 549, 542, -42, 53, -56, -18, 1, 22, 971, 966, 319,e
2025-03-17 10:40:22.962,574, 498, 579, 5, -25, 0, -17, 2, 20, 966, 952, 302,e
2025-03-17 10:40:23.223,717, 536, 398, 9, -3, 11, -19, 0, 22, 969, 951, 210,f
2025-03-17 10:40:23.279,760, 525, 405, 6, -1, 11, -17, 2, 19, 973, 953, 206,f
2025-03-17 10:40:23.330,764, 484, 450, 6, 1, 4, -18, 1, 22, 974, 953, 23,f
2025-03-17 10:40:23.380,736, 513, 432, 3, -8, 3, -19, 2, 21, 975, 956, 18,f
2025-03-17 10:40:23.438,755, 419, 441, -16, -3, -14, -19, 1, 22, 978, 972, 22,f
2025-03-17 10:40:23.495,764, 429, 703, 18, -41, -22, -18, 0, 24, 981, 980, 217,f
2025-03-17 10:40:23.552,697, 700, 292, 33, -22, 0, -19, 1, 23, 983, 980, 528,f
2025-03-17 10:40:23.611,754, 522, 269, -13, 39, 18, -20, 0, 23, 979, 971, 491,f
2025-03-17 10:40:23.668,466, 697, 818, 3, -26, 2, -20, -1, 22, 977, 959, 315,f
2025-03-17 10:40:23.711,988, 915, 245, 5, 4, 19, -21, 0, 23, 985, 980, 273,f
2025-03-17 10:40:23.779,625, 466, 286, -1, 10, 26, -20, 0, 25, 986, 980, 407,f
2025-03-17 10:40:23.837,902, 445, 50, -37, 50, -57, -19, 0, 22, 976, 966, 440,f
2025-03-17 10:40:23.893,514, 604, 759, -25, 12, -18, -18, -1, 21, 968, 939, 248,f
2025-03-17 10:40:24.172,741, 558, 384, 1, -7, 5, -19, 0, 21, 969, 944, 370,g
2025-03-17 10:40:24.230,752, 562, 376, 3, -7, 5, -17, 0, 21, 967, 945, 377,g
2025-03-17 10:40:24.280,749, 555, 397, 3, -5, 7, -20, 2, 21, 968, 949, 385,g
2025-03-17 10:40:24.344,802, 519, 262, -29, -11, -9, -19, 1, 22, 973, 960, 307,g
2025-03-17 10:40:24.396,698, 468, 514, -23, -12, -14, -20, -1, 24, 976, 970, 34,g
2025-03-17 10:40:24.457,675, 668, 240, 37, 1, -9, -20, 0, 24, 981, 968, 48,g
2025-03-17 10:40:24.512,784, 761, 173, 7, 42, 46, -20, 0, 22, 984, 975, 73,g
2025-03-17 10:40:24.563,596, 194, 782, 16, -28, -26, -19, 1, 21, 981, 975, 232,g
2025-03-17 10:40:24.627,771, 345, 575, 10, -17, -18, -20, 0, 22, 979, 977, 347,g
2025-03-17 10:40:24.680,389, 889, 435, -43, 35, 39, -21, 0, 22, 986, 978, 83,g
2025-03-17 10:40:24.730,675, 376, 363, -35, 34, 5, -17, 5, 18, 983, 957, 17,g
2025-03-17 10:40:24.794,811, 591, 292, -24, 51, -64, -18, 0, 22, 953, 932, 26,g
2025-03-17 10:40:24.849,506, 626, 638, -7, -8, -15, -19, 0, 19, 951, 939, 187,g
2025-03-17 10:40:25.158,710, 549, 438, -3, -4, 0, -19, 1, 22, 964, 955, 413,h
2025-03-17 10:40:25.211,686, 544, 472, -1, -5, 1, -17, 2, 25, 965, 954, 415,h
2025-03-17 10:40:25.262,747, 537, 394, -4, -18, -1, -19, 2, 21, 965, 955, 447,h
2025-03-17 10:40:25.327,774, 526, 435, -10, -3, -6, -20, 0, 22, 975, 962, 378,h
2025-03-17 10:40:25.378,913, 782, 439, 22, 29, 28, -22, 0, 24, 982, 961, 146,h
2025-03-17 10:40:25.438,748, 341, 211, 3, 20, 13, -19, 1, 23, 982, 961, 20,h
2025-03-17 10:40:25.495,957, 421, 295, 10, -40, -28, -19, 0, 23, 980, 970, 244,h
2025-03-17 10:40:25.545,680, 898, 241, -2, -3, 13, -20, 1, 22, 985, 974, 272,h
2025-03-17 10:40:25.595,780, 658, 234, -1, 30, 25, -20, 2, 22, 983, 968, 277,h
2025-03-17 10:40:25.661,695, 529, 581, -34, 37, -45, -20, 3, 21, 971, 955, 410,h
2025-03-17 10:40:25.724,527, 516, 708, -4, -14, -6, -19, 1, 19, 965, 951, 387,h
2025-03-17 10:40:25.778,745, 554, 403, 3, -19, 6, -18, -1, 21, 966, 946, 384,h
2025-03-17 10:40:25.828,758, 549, 414, -3, 1, 5, -21, 1, 20, 967, 948, 319,h
2025-03-17 10:40:26.884,736, 530, 441, -2, 0, 0, -17, 0, 22, 965, 949, 223,i
2025-03-17 10:40:26.945,729, 528, 445, -2, -1, 0, -19, 3, 20, 966, 948, 218,i
2025-03-17 10:40:26.996,737, 516, 468, 0, -2, 2, -19, -1, 22, 967, 950, 220,i
2025-03-17 10:40:27.050,740, 519, 442, 1, -5, 1, -19, 0, 23, 968, 950, 226,i
2025-03-17 10:40:27.096,741, 518, 421, 0, -3, 1, -19, 2, 22, 969, 950, 233,i
2025-03-17 10:40:27.162,746, 515, 469, 0, -5, 2, -20, 2, 21, 971, 952, 245,i
2025-03-17 10:40:27.212,736, 519, 433, -1, -2, 1, -19, 2, 23, 971, 953, 241,i
2025-03-17 10:40:27.261,744, 522, 459, 1, -16, 1, -20, 1, 25, 972, 960, 259,i
2025-03-17 10:40:27.326,743, 408, 552, -5, -3, -7, -20, 1, 21, 977, 970, 24,i
2025-03-17 10:40:27.378,666, 815, 208, 13, 21, 32, -20, 0, 23, 988, 971, 51,i
2025-03-17 10:40:27.429,721, 576, 391, -8, 31, 19, -19, 0, 23, 983, 969, 202,i
2025-03-17 10:40:27.495,547, 794, 873, -20, -57, -25, -19, -1, 23, 981, 975, 577,i
2025-03-17 10:40:27.545,771, 724, -54, 17, -9, -6, -21, -2, 23, 986, 981, 511,i
2025-03-17 10:40:27.609,851, 186, 358, -5, 44, 0, -19, 2, 21, 980, 969, 603,i
2025-03-17 10:40:27.662,618, 479, 629, -34, 49, -19, -19, -1, 21, 975, 962, 427,i
2025-03-17 10:40:27.717,599, 541, 594, -5, -9, 2, -17, -1, 19, 975, 959, 342,i
2025-03-17 10:40:28.116,722, 544, 443, -1, 0, 0, -18, 2, 22, 971, 950, 355,j
2025-03-17 10:40:28.161,731, 540, 433, -1, 0, 0, -20, 0, 23, 970, 949, 352,j
2025-03-17 10:40:28.227,718, 538, 472, -1, 1, 0, -20, 1, 21, 970, 949, 361,j
2025-03-17 10:40:28.280,741, 545, 411, -3, 1, -1, -19, -1, 23, 968, 954, 362,j
2025-03-17 10:40:28.330,710, 537, 469, -3, -1, -1, -19, 0, 24, 969, 950, 363,j
2025-03-17 10:40:28.395,735, 539, 424, -2, -1, 0, -18, -1, 24, 969, 952, 374,j
2025-03-17 10:40:28.447,718, 543, 450, -3, 0, -2, -19, -2, 26, 969, 955, 364,j
2025-03-17 10:40:28.497,723, 537, 442, -3, -3, 0, -20, 0, 20, 970, 954, 359,j
2025-03-17 10:40:28.559,718, 546, 443, -1, -1, 3, -19, 0, 22, 971, 956, 366,j
2025-03-17 10:40:28.613,723, 527, 502, 7, -6, 11, -20, 1, 22, 973, 957, 367,j
2025-03-17 10:40:28.663,715, 524, 438, 7, -9, 8, -20, 1, 23, 973, 959, 415,j
2025-03-17 10:40:28.727,792, 440, 352, 3, -9, -13, -20, 0, 24, 975, 965, 418,j
2025-03-17 10:40:28.779,791, 605, 603, 36, -18, -8, -20, 1, 24, 980, 968, 366,j
2025-03-17 10:40:28.838,746, 1114, 70, -14, 23, 34, -20, -1, 24, 982, 967, 63,j
2025-03-17 10:40:28.894,939, -329, 1043, 6, -26, -66, -20, 3, 23, 975, 956, 26,j
2025-03-17 10:40:28.945,362, 407, 964, 13, -73, -15, -19, -2, 24, 980, 972, 383,j
2025-03-17 10:40:29.011,800, 824, -376, 14, 15, 6, -20, -2, 25, 984, 976, 381,j
2025-03-17 10:40:29.061,820, 149, 374, -6, 52, -19, -20, 1, 23, 978, 962, 482,j
2025-03-17 10:40:29.128,526, 489, 661, -20, 32, -22, -17, -2, 23, 974, 958, 387,j
2025-03-17 10:40:29.410,711, 532, 461, -2, -5, 0, -20, -1, 21, 969, 943, 332,k
2025-03-17 10:40:29.461,717, 542, 436, -2, -5, 0, -17, -2, 24, 968, 942, 338,k
2025-03-17 10:40:29.527,716, 541, 440, -3, -6, -3, -23, -2, 23, 969, 941, 348,k
2025-03-17 10:40:29.586,696, 538, 457, -3, -11, -7, -20, -2, 22, 968, 942, 385,k
2025-03-17 10:40:29.644,857, 394, 351, 2, -9, -14, -19, -2, 23, 972, 957, 378,k
2025-03-17 10:40:29.695,612, 684, 310, 52, 14, 7, -19, -1, 24, 977, 946, 371,k
2025-03-17 10:40:29.759,788, 891, 167, -19, 26, 23, -18, -1, 23, 978, 940, 25,k
2025-03-17 10:40:29.811,843, 128, 681, 21, -16, 14, -18, 0, 24, 979, 977, 144,k
2025-03-17 10:40:29.861,709, 520, 513, 34, -7, -7, -17, -4, 24, 973, 971, 300,k
2025-03-17 10:40:29.927,666, 497, 219, -31, 34, -24, -20, 0, 22, 962, 931, 326,k
2025-03-17 10:40:29.988,901, 393, 256, 19, -20, -6, -20, -1, 22, 977, 950, 26,k
2025-03-17 10:40:30.042,723, 337, 432, 4, 9, 27, -19, 1, 22, 983, 972, 72,k
2025-03-17 10:40:30.094,854, 294, 246, -20, 33, -59, -19, -1, 23, 976, 955, 316,k
2025-03-17 10:40:30.144,605, 652, 777, -28, 22, -40, -19, -3, 22, 946, 896, 193,k
2025-03-17 10:40:30.437,705, 549, 440, -2, -5, -2, -19, 0, 22, 950, 918, 368,l
2025-03-17 10:40:30.493,728, 562, 458, 0, -6, -2, -18, 1, 20, 949, 918, 378,l
2025-03-17 10:40:30.562,727, 539, 410, 4, -11, -9, -19, -1, 22, 940, 919, 416,l
2025-03-17 10:40:30.613,674, 582, 507, 12, -22, 4, -19, -1, 22, 935, 922, 457,l
2025-03-17 10:40:30.670,771, 527, 314, -8, 0, -4, -20, -2, 25, 963, 947, 258,l
2025-03-17 10:40:30.729,795, 520, 494, 10, 8, 11, -21, 1, 23, 978, 955, 26,l
2025-03-17 10:40:30.780,790, 479, 69, 24, 15, 8, -21, 1, 22, 977, 957, 23,l
2025-03-17 10:40:30.829,811, 448, 498, -7, 15, 8, -21, 0, 22, 969, 947, 333,l
2025-03-17 10:40:30.894,676, 587, 589, -58, 46, -43, -17, 0, 22, 951, 939, 356,l
2025-03-17 10:40:30.951,478, 534, 666, -13, 0, -8, -17, 1, 19, 942, 930, 296,l
2025-03-17 10:40:31.223,715, 535, 469, 5, -12, 5, -19, -1, 23, 954, 934, 244,m
2025-03-17 10:40:31.285,724, 544, 448, 3, -12, 5, -18, 4, 18, 956, 933, 239,m
2025-03-17 10:40:31.340,718, 547, 458, 5, -9, 3, -18, 0, 22, 959, 935, 254,m
2025-03-17 10:40:31.393,720, 530, 440, 3, -8, -2, -20, 0, 22, 959, 941, 295,m
2025-03-17 10:40:31.447,719, 520, 499, 5, -22, 4, -19, 0, 24, 966, 950, 300,m
2025-03-17 10:40:31.497,740, 419, 508, -2, -6, -7, -19, 0, 23, 978, 963, 13,m
2025-03-17 10:40:31.551,831, 541, 364, 1, 18, 22, -20, 0, 22, 982, 964, 29,m
2025-03-17 10:40:31.611,790, 572, 521, -15, 12, 12, -18, 0, 21, 982, 969, 23,m
2025-03-17 10:40:31.661,706, 603, 484, 8, -35, -11, -20, 1, 21, 983, 976, 149,m
2025-03-17 10:40:31.728,667, 916, 181, -10, 19, 27, -21, 0, 23, 985, 976, 53,m
2025-03-17 10:40:31.778,759, 484, 267, -2, 21, 12, -20, 2, 21, 984, 977, 57,m
2025-03-17 10:40:31.837,860, 603, 498, 13, -40, -28, -18, 1, 21, 983, 976, 274,m
2025-03-17 10:40:31.897,723, 834, 111, 10, -5, 13, -19, -2, 24, 987, 977, 269,m
2025-03-17 10:40:31.945,765, 455, 404, 4, 25, 18, -20, 1, 24, 984, 973, 290,m
2025-03-17 10:40:32.010,707, 468, 430, -36, 42, -44, -19, 1, 20, 974, 966, 262,m
2025-03-17 10:40:32.285,733, 544, 446, 1, 5, -4, -18, 2, 19, 964, 942, 147,n
2025-03-17 10:40:32.343,714, 532, 436, 1, 4, -5, -17, 2, 24, 962, 939, 153,n
2025-03-17 10:40:32.393,707, 548, 440, -3, -2, -7, -21, 0, 21, 960, 934, 161,n
2025-03-17 10:40:32.458,683, 580, 549, 12, -29, 8, -18, -1, 23, 963, 945, 284,n
2025-03-17 10:40:32.510,761, 688, 362, 13, 1, 4, -19, 1, 21, 976, 964, 216,n
2025-03-17 10:40:32.564,778, 672, 510, 2, 6, 18, -20, 2, 21, 983, 964, 27,n
2025-03-17 10:40:32.610,775, 597, 449, -12, 10, 9, -20, 1, 22, 981, 971, 15,n
2025-03-17 10:40:32.677,574, 547, 818, -4, -44, -7, -19, -1, 24, 982, 977, 297,n
2025-03-17 10:40:32.732,645, 596, 82, 0, 17, 23, -20, 0, 25, 988, 977, 170,n
2025-03-17 10:40:32.786,808, 588, 349, -2, 35, 21, -19, 0, 24, 984, 973, 276,n
2025-03-17 10:40:32.843,736, 562, 447, -38, 34, -36, -20, 1, 21, 975, 967, 354,n
2025-03-17 10:40:33.121,712, 521, 479, -4, 3, 0, -21, 1, 21, 966, 951, 222,o
2025-03-17 10:40:33.186,690, 520, 499, -1, 1, 1, -18, 1, 24, 968, 950, 222,o
2025-03-17 10:40:33.236,725, 533, 432, 7, -6, 5, -19, 0, 20, 967, 950, 235,o
2025-03-17 10:40:33.294,684, 535, 521, 14, -11, 13, -18, 2, 20, 969, 956, 264,o
2025-03-17 10:40:33.344,867, 432, 177, -9, -2, 0, -21, 1, 23, 973, 963, 285,o
2025-03-17 10:40:33.413,648, 459, 546, -10, -11, -15, -20, 3, 22, 974, 970, 254,o
2025-03-17 10:40:33.459,650, 318, 536, -8, -18, -38, -20, 2, 22, 977, 972, 37,o
2025-03-17 10:40:33.516,975, 934, 11, 25, 45, 51, -19, 0, 24, 984, 970, 54,o
2025-03-17 10:40:33.577,482, 348, 785, -25, 9, 32, -20, 0, 21, 984, 978, 65,o
2025-03-17 10:40:33.636,548, 63, 488, 24, -44, -64, -20, 0, 22, 976, 980, 267,o
2025-03-17 10:40:33.695,1061, 525, 174, -1, 19, -31, -20, -2, 25, 958, 961, 396,o
2025-03-17 10:40:33.744,626, 656, 517, -38, 62, -11, -19, -1, 21, 948, 912, 86,o
2025-03-17 10:40:34.038,721, 541, 420, 1, -8, 5, -20, 1, 21, 955, 935, 146,p
2025-03-17 10:40:34.092,704, 548, 441, 2, -9, 5, -19, 1, 22, 955, 936, 148,p
2025-03-17 10:40:34.144,743, 528, 429, 2, -20, 3, -19, 1, 22, 956, 943, 218,p
2025-03-17 10:40:34.196,736, 314, 250, -28, -1, -6, -19, 1, 23, 968, 964, 25,p
2025-03-17 10:40:34.244,739, 575, 398, -2, -5, -7, -19, 3, 21, 981, 972, 30,p
2025-03-17 10:40:34.310,646, 932, 206, 29, 46, 38, -19, 0, 24, 984, 973, 18,p
2025-03-17 10:40:34.361,839, 462, 361, 0, 34, 34, -19, 1, 22, 985, 969, 26,p
2025-03-17 10:40:34.425,772, -9, 739, 18, -37, -41, -18, 2, 21, 980, 970, 17,p
2025-03-17 10:40:34.485,822, 510, 535, -11, -45, -28, -19, -2, 23, 980, 978, 244,p
2025-03-17 10:40:34.536,719, 722, 229, 5, -9, 12, -18, 0, 26, 987, 981, 65,p
2025-03-17 10:40:34.593,829, 614, 245, -17, 21, 18, -19, 0, 24, 985, 977, 44,p
2025-03-17 10:40:34.645,992, 428, 158, -18, 52, -38, -20, -1, 24, 975, 964, 90,p
2025-03-17 10:40:34.711,458, 575, 715, -26, 16, -27, -17, 1, 20, 970, 965, 225,p
2025-03-17 10:40:34.996,734, 545, 419, 3, -9, 6, -21, 0, 20, 966, 959, 223,q
2025-03-17 10:40:35.047,726, 544, 399, 4, -8, 5, -20, 0, 22, 966, 961, 226,q
2025-03-17 10:40:35.108,687, 524, 480, 9, -12, 7, -21, 1, 21, 969, 963, 243,q
2025-03-17 10:40:35.160,723, 721, 337, 8, -10, -6, -20, 1, 24, 972, 970, 233,q
2025-03-17 10:40:35.210,739, 564, 551, -5, -7, -15, -21, 1, 22, 974, 973, 132,q
2025-03-17 10:40:35.276,787, 371, 461, 29, -1, -26, -19, 1, 22, 977, 969, 26,q
2025-03-17 10:40:35.326,884, 629, -20, 8, 28, 28, -18, 0, 23, 984, 968, 51,q
2025-03-17 10:40:35.387,712, 498, 762, -15, -11, 16, -19, 0, 21, 984, 978, 56,q
2025-03-17 10:40:35.445,739, 430, 468, -2, -23, -20, -22, 3, 22, 981, 978, 259,q
2025-03-17 10:40:35.493,809, 533, 364, 1, 23, 18, -19, 0, 22, 985, 971, 59,q
2025-03-17 10:40:35.547,809, 681, 254, -10, 16, 19, -19, 0, 23, 986, 974, 74,q
2025-03-17 10:40:35.611,719, 389, 569, 27, -20, -5, -19, 1, 24, 982, 976, 39,q
2025-03-17 10:40:35.660,601, 513, 609, -51, 71, -44, -19, -1, 22, 971, 967, 20,q
2025-03-17 10:40:35.968,690, 528, 505, -4, -18, -1, -18, 0, 21, 964, 946, 25,r
2025-03-17 10:40:36.030,708, 526, 498, -5, -19, 0, -18, 0, 22, 964, 947, 19,r
2025-03-17 10:40:36.081,795, 535, 335, 4, -14, 2, -19, 2, 21, 965, 951, 26,r
2025-03-17 10:40:36.131,744, 529, 422, 5, -7, -3, -20, 0, 22, 968, 952, 27,r
2025-03-17 10:40:36.194,690, 531, 547, 3, -12, -3, -19, 2, 23, 967, 954, 117,r
2025-03-17 10:40:36.247,759, 601, 371, 12, -4, -7, -22, 1, 22, 977, 965, 26,r
2025-03-17 10:40:36.297,701, 486, 461, 11, 32, 29, -19, 3, 21, 980, 966, 18,r
2025-03-17 10:40:36.358,744, 630, 207, -39, 20, 15, -19, 1, 24, 983, 973, 20,r
2025-03-17 10:40:36.413,936, 671, 198, -1, -31, -6, -19, 0, 22, 985, 980, 280,r
2025-03-17 10:40:36.461,793, 670, 214, -5, 22, 27, -20, 0, 25, 982, 976, 372,r
2025-03-17 10:40:36.528,662, 527, 645, -44, 49, -32, -20, 2, 21, 980, 969, 188,r
2025-03-17 10:40:36.826,739, 514, 435, -5, 0, 3, -18, 0, 23, 970, 956, 219,s
2025-03-17 10:40:36.874,736, 510, 444, -5, 0, 3, -20, 3, 21, 971, 955, 193,s
2025-03-17 10:40:36.938,743, 514, 453, -6, -2, 4, -21, 2, 21, 972, 952, 27,s
2025-03-17 10:40:36.992,743, 511, 442, -2, -2, 4, -19, 0, 24, 973, 954, 35,s
2025-03-17 10:40:37.049,705, 498, 520, 9, -15, 10, -20, 2, 23, 974, 958, 188,s
2025-03-17 10:40:37.102,755, 513, 281, -15, -1, -8, -18, 1, 23, 976, 970, 21,s
2025-03-17 10:40:37.159,1065, 364, 479, 9, -5, -19, -20, 1, 23, 980, 970, 22,s
2025-03-17 10:40:37.210,903, 822, 175, 32, 8, 22, -19, 0, 23, 984, 972, 51,s
2025-03-17 10:40:37.260,699, 856, 314, 6, 5, 15, -20, 2, 23, 984, 973, 67,s
2025-03-17 10:40:37.311,538, 362, 478, -11, 12, 0, -19, 1, 22, 980, 969, 21,s
2025-03-17 10:40:37.376,1084, 409, 259, -9, 24, -29, -20, 1, 23, 968, 933, 29,s
2025-03-17 10:40:37.427,652, 547, 587, -23, 36, -27, -18, 0, 22, 963, 939, 37,s
2025-03-17 10:40:37.491,562, 526, 606, 6, -11, 0, -17, 1, 19, 958, 933, 32,s
2025-03-17 10:40:37.754,682, 531, 528, -1, -8, 3, -20, 2, 19, 959, 937, 20,t
2025-03-17 10:40:37.815,704, 532, 518, -2, -9, 2, -17, 0, 23, 959, 940, 28,t
2025-03-17 10:40:37.862,723, 505, 467, 7, -14, 6, -19, 0, 22, 963, 944, 160,t
2025-03-17 10:40:37.925,758, 505, 427, 6, -11, 3, -19, 1, 21, 964, 950, 251,t
2025-03-17 10:40:37.975,680, 498, 504, 7, -32, -1, -20, 1, 21, 966, 959, 352,t
2025-03-17 10:40:38.034,747, 573, 438, -9, -15, -15, -19, 3, 23, 972, 972, 304,t
2025-03-17 10:40:38.092,751, 508, 523, 43, -3, -12, -20, -1, 21, 980, 970, 120,t
2025-03-17 10:40:38.143,637, 1146, -59, 20, 31, 38, -20, 0, 24, 986, 971, 64,t
2025-03-17 10:40:38.209,658, 392, 717, -3, 7, 18, -19, 1, 21, 982, 976, 335,t
2025-03-17 10:40:38.259,540, 568, 499, -11, -24, -50, -18, 0, 24, 973, 966, 482,t
2025-03-17 10:40:38.323,827, 233, 257, 2, -17, -22, -22, 0, 24, 984, 976, 188,t
2025-03-17 10:40:38.375,705, 568, 346, 11, 10, 37, -21, 0, 25, 988, 981, 419,t
2025-03-17 10:40:38.436,819, 374, 241, 5, 26, -19, -19, -1, 24, 981, 970, 576,t
2025-03-17 10:40:38.492,630, 546, 683, -33, 39, -26, -20, 0, 21, 967, 921, 389,t
2025-03-17 10:40:38.790,743, 559, 383, 0, -5, 2, -21, 1, 22, 963, 917, 274,u
2025-03-17 10:40:38.844,749, 553, 399, 0, -4, 1, -19, -1, 24, 963, 918, 270,u
2025-03-17 10:40:38.900,739, 559, 404, -4, -6, -3, -21, 0, 22, 965, 928, 265,u
2025-03-17 10:40:38.959,765, 554, 427, -4, -25, 4, -20, 0, 24, 969, 948, 224,u
2025-03-17 10:40:39.013,769, 469, 456, 18, 3, -3, -20, 0, 24, 977, 955, 140,u
2025-03-17 10:40:39.067,789, 295, 495, 13, 10, 24, -22, 1, 23, 985, 967, 55,u
2025-03-17 10:40:39.127,751, 271, 767, -20, -16, 4, -18, 3, 21, 982, 975, 239,u
2025-03-17 10:40:39.180,718, 392, 585, 6, -18, -18, -22, 2, 23, 978, 974, 344,u
2025-03-17 10:40:39.236,961, 759, 112, 1, 36, 38, -21, 0, 25, 985, 971, 206,u
2025-03-17 10:40:39.291,862, 421, 352, -4, 35, 18, -20, 0, 23, 980, 969, 310,u
2025-03-17 10:40:39.352,675, 447, 545, -44, 31, -49, -20, 0, 22, 969, 960, 310,u
2025-03-17 10:40:39.408,567, 521, 641, -19, -4, -17, -19, 1, 19, 961, 947, 208,u
2025-03-17 10:40:39.702,768, 526, 401, 11, -1, 1, -20, 0, 21, 960, 928, 140,v
2025-03-17 10:40:39.758,758, 536, 418, 10, 1, 0, -15, -2, 24, 958, 928, 153,v
2025-03-17 10:40:39.828,728, 514, 467, 10, -5, -5, -19, 0, 22, 958, 918, 175,v
2025-03-17 10:40:39.880,685, 606, 438, 12, -34, -9, -21, -1, 21, 955, 914, 194,v
2025-03-17 10:40:39.942,790, 480, 418, -2, -6, -10, -20, -1, 24, 971, 951, 25,v
2025-03-17 10:40:39.991,787, 386, 421, 6, 13, 27, -20, 0, 23, 980, 962, 19,v
2025-03-17 10:40:40.043,729, 776, 300, -14, 18, 29, -20, 0, 23, 983, 968, 59,v
2025-03-17 10:40:40.108,1060, 473, 263, -30, -19, -20, -20, 1, 23, 980, 975, 209,v
2025-03-17 10:40:40.159,727, 379, 560, 17, -16, -15, -21, 2, 22, 982, 976, 244,v
2025-03-17 10:40:40.224,834, 285, 453, 19, 22, 29, -21, 2, 23, 984, 973, 63,v
2025-03-17 10:40:40.276,753, 554, 449, -27, 11, 9, -21, 1, 21, 986, 976, 54,v
2025-03-17 10:40:40.335,767, 519, 385, -2, -1, -2, -19, 2, 24, 985, 975, 66,v
2025-03-17 10:40:40.384,767, 520, 417, -1, 0, 0, -18, 1, 24, 982, 975, 52,v
2025-03-17 10:40:40.441,763, 514, 413, -6, 1, 0, -20, 3, 23, 982, 975, 60,v
2025-03-17 10:40:40.492,761, 462, 431, 1, -1, -3, -20, 4, 23, 984, 974, 50,v
2025-03-17 10:40:40.542,761, 527, 411, -1, -1, 0, -20, 1, 22, 982, 975, 41,v
2025-03-17 10:40:40.592,765, 516, 412, -3, -1, -2, -19, 1, 24, 982, 973, 27,v
2025-03-17 10:40:40.658,760, 496, 421, -5, 0, 0, -20, 2, 24, 981, 975, 24,v
2025-03-17 10:40:40.708,764, 511, 426, -2, 0, -1, -20, 3, 22, 982, 974, 27,v
2025-03-17 10:40:40.758,761, 517, 417, -2, 0, -1, -21, 2, 22, 983, 974, 24,v
2025-03-17 10:40:40.808,762, 524, 407, -4, 1, 1, -21, 1, 21, 983, 975, 29,v
2025-03-17 10:40:40.864,762, 501, 425, 3, -1, -1, -19, 2, 25, 981, 974, 23,v
2025-03-17 10:40:40.924,811, 518, 399, 6, -4, -5, -19, 1, 24, 977, 969, 20,v
2025-03-17 10:40:40.981,659, 547, 485, -21, 37, -41, -20, 2, 21, 973, 963, 21,v
2025-03-17 10:40:41.039,546, 543, 608, -11, -20, -26, -19, 1, 22, 966, 937, 18,v
2025-03-17 10:40:41.092,826, 521, 291, 9, -45, 17, -18, -1, 23, 977, 953, 28,v
2025-03-17 10:40:41.142,892, 432, 525, 0, 7, 36, -19, 0, 24, 985, 970, 19,v
2025-03-17 10:40:41.192,665, 404, 253, 16, 7, 22, -22, 1, 23, 986, 968, 57,v
2025-03-17 10:40:41.258,708, 425, 588, -37, -11, 9, -21, 4, 22, 985, 975, 45,v
2025-03-17 10:40:41.308,832, 589, 372, 16, -9, -7, -20, 2, 24, 985, 975, 52,v
2025-03-17 10:40:41.359,783, 520, 189, -44, 82, -28, -20, 1, 24, 977, 965, 26,v
2025-03-17 10:40:41.425,560, 483, 756, -8, 18, -7, -17, 1, 19, 972, 942, 20,v
2025-03-17 10:40:41.474,753, 530, 488, 12, -7, -6, -19, 3, 18, 963, 916, 14,v
2025-03-17 10:40:41.534,741, 534, 480, -8, 9, -6, -17, 0, 20, 955, 899, 29,v
2025-03-17 10:40:41.833,694, 525, 499, -2, 0, 0, -17, 0, 18, 954, 899, 20,w
2025-03-17 10:40:41.883,704, 517, 501, -3, 0, -1, -19, 1, 20, 952, 901, 19,w
2025-03-17 10:40:41.941,695, 503, 530, -1, -3, -1, -18, 3, 17, 953, 908, 22,w
2025-03-17 10:40:41.994,666, 519, 531, 6, -4, 0, -19, 1, 20, 953, 909, 24,w
2025-03-17 10:40:42.051,690, 520, 508, 1, -6, 1, -19, -2, 21, 955, 911, 23,w
2025-03-17 10:40:42.098,710, 524, 480, 3, -10, 4, -20, 3, 20, 954, 917, 25,w
2025-03-17 10:40:42.157,724, 526, 453, -1, 0, 1, -19, 2, 20, 956, 921, 27,w
2025-03-17 10:40:42.209,682, 508, 540, 4, -8, 2, -17, 0, 21, 958, 926, 30,w
2025-03-17 10:40:42.259,694, 506, 496, 14, -18, 4, -18, 3, 21, 959, 930, 11,w
2025-03-17 10:40:42.314,685, 511, 472, 19, -16, 3, -20, 1, 22, 962, 934, 29,w
2025-03-17 10:40:42.374,737, 519, 377, 6, -20, -4, -20, 3, 22, 964, 935, 29,w
2025-03-17 10:40:42.427,812, 633, 535, -20, -2, -13, -20, 0, 23, 972, 960, 18,w
2025-03-17 10:40:42.489,988, 1023, 219, 47, -6, 18, -20, 2, 24, 985, 971, 27,w
2025-03-17 10:40:42.544,774, 699, 236, -15, 29, 36, -20, 2, 24, 986, 973, 49,w
2025-03-17 10:40:42.592,891, 377, 412, -6, -32, -30, -21, 2, 23, 985, 977, 53,w
2025-03-17 10:40:42.656,975, 702, 321, 27, -8, 7, -19, 3, 22, 985, 970, 65,w
2025-03-17 10:40:42.709,694, 647, 344, -31, 12, 27, -19, 1, 24, 984, 972, 208,w
2025-03-17 10:40:42.757,889, 501, 259, 7, -13, -12, -18, 2, 25, 981, 970, 99,w
2025-03-17 10:40:42.824,757, 507, 399, -45, 81, -31, -20, 3, 22, 976, 959, 30,w
2025-03-17 10:40:43.198,729, 522, 462, -5, 1, -3, -19, 1, 18, 947, 855, 29,x
2025-03-17 10:40:43.259,716, 524, 472, -6, 2, -3, -16, 0, 19, 948, 856, 28,x
2025-03-17 10:40:43.310,693, 532, 513, -4, 2, 0, -17, 1, 18, 947, 852, 21,x
2025-03-17 10:40:43.367,713, 531, 502, -1, -1, 0, -20, 1, 20, 947, 857, 22,x
2025-03-17 10:40:43.425,717, 500, 514, -3, -1, -3, -19, 0, 19, 946, 864, 31,x
2025-03-17 10:40:43.476,701, 523, 535, 3, -6, -1, -18, 3, 18, 946, 879, 18,x
2025-03-17 10:40:43.526,736, 521, 461, 0, -1, 0, -18, -1, 21, 947, 881, 21,x
2025-03-17 10:40:43.585,692, 520, 495, -3, 0, -1, -17, 1, 20, 946, 888, 25,x
2025-03-17 10:40:43.643,691, 526, 504, -5, -5, -2, -19, 0, 18, 948, 896, 25,x
2025-03-17 10:40:43.693,731, 513, 471, 2, -7, -6, -20, 2, 18, 949, 908, 20,x
2025-03-17 10:40:43.743,672, 524, 538, 10, -14, -2, -18, 0, 21, 950, 919, 19,x
2025-03-17 10:40:43.807,682, 521, 513, 18, -24, 4, -18, 1, 21, 951, 928, 28,x
2025-03-17 10:40:43.861,833, 508, 290, 17, -20, 7, -20, 2, 21, 957, 934, 170,x
2025-03-17 10:40:43.907,763, 603, 447, 15, 0, 11, -20, -1, 22, 964, 946, 280,x
2025-03-17 10:40:43.974,534, 523, 644, 27, -34, 17, -18, -1, 23, 971, 955, 487,x
2025-03-17 10:40:44.035,668, 479, 365, 11, -17, -20, -19, -2, 25, 978, 967, 51,x
2025-03-17 10:40:44.090,887, 673, 250, -7, 53, 21, -20, 1, 27, 979, 950, 53,x
2025-03-17 10:40:44.141,604, 108, 731, -19, 17, -31, -18, 0, 24, 971, 927, 29,x
2025-03-17 10:40:44.207,783, 527, 559, 11, -27, -15, -20, -4, 26, 978, 965, 227,x
2025-03-17 10:40:44.261,786, 600, 63, -3, 33, 64, -20, 0, 23, 986, 973, 61,x
2025-03-17 10:40:44.308,889, 245, 292, -14, 26, -25, -20, 0, 21, 980, 960, 226,x
2025-03-17 10:40:44.374,727, 483, 480, -29, 49, -71, -19, -1, 21, 941, 911, 322,x
2025-03-17 10:40:44.978,709, 543, 457, -3, 0, -2, -17, -2, 21, 937, 877, 33,y
2025-03-17 10:40:45.040,707, 558, 470, -3, 0, -2, -19, -1, 17, 938, 881, 28,y
2025-03-17 10:40:45.091,696, 549, 474, -3, -1, 1, -18, 0, 21, 942, 886, 18,y
2025-03-17 10:40:45.145,696, 548, 479, -3, -2, 1, -19, -2, 22, 944, 894, 32,y
2025-03-17 10:40:45.191,703, 556, 475, 1, -4, 3, -17, 1, 22, 949, 904, 18,y
2025-03-17 10:40:45.247,717, 539, 457, 0, -4, 3, -19, 0, 20, 953, 919, 24,y
2025-03-17 10:40:45.307,703, 535, 481, -1, -2, 2, -19, 1, 20, 957, 925, 15,y
2025-03-17 10:40:45.364,689, 549, 502, 5, -16, 5, -19, 1, 21, 961, 933, 120,y
2025-03-17 10:40:45.408,741, 540, 427, 5, -15, 5, -19, 0, 23, 963, 938, 202,y
2025-03-17 10:40:45.474,712, 550, 440, 2, -14, 3, -20, -1, 23, 964, 948, 252,y
2025-03-17 10:40:45.524,810, 518, 346, 11, -1, 0, -19, -1, 23, 967, 950, 298,y
2025-03-17 10:40:45.583,720, 546, 461, -5, 0, -7, -22, -1, 23, 967, 951, 291,y
2025-03-17 10:40:45.641,681, 555, 486, 2, -11, 2, -20, 0, 21, 970, 954, 249,y
2025-03-17 10:40:45.691,797, 520, 348, 4, -1, -2, -20, -1, 25, 969, 954, 253,y
2025-03-17 10:40:45.745,748, 516, 400, 13, 20, 6, -20, 2, 21, 967, 947, 261,y
2025-03-17 10:40:45.806,704, 570, 443, 8, 9, 9, -20, 1, 22, 970, 943, 239,y
2025-03-17 10:40:45.858,742, 517, 392, -5, -8, -8, -21, 2, 21, 970, 947, 275,y
2025-03-17 10:40:45.922,662, 566, 551, -8, -34, -1, -22, 0, 24, 972, 962, 208,y
2025-03-17 10:40:45.974,871, 966, 205, 28, 4, 25, -19, -2, 25, 983, 973, 75,y
2025-03-17 10:40:46.023,696, 781, 187, 11, 27, 38, -19, -1, 23, 985, 973, 297,y
2025-03-17 10:40:46.089,647, 573, 645, -2, -23, -27, -19, 1, 24, 980, 971, 542,y
2025-03-17 10:40:46.140,854, 364, 156, 10, -5, -4, -20, -1, 25, 986, 975, 266,y
2025-03-17 10:40:46.191,781, 672, -46, -7, 47, 33, -18, 2, 21, 986, 968, 43,y
2025-03-17 10:40:46.258,989, 275, 351, -14, 35, -64, -18, 0, 22, 970, 941, 148,y
2025-03-17 10:40:46.307,631, 561, 757, -61, 28, -55, -18, -2, 18, 950, 941, 82,y
2025-03-17 10:40:46.665,753, 536, 395, 1, -7, 1, -19, 0, 21, 953, 924, 26,z
2025-03-17 10:40:46.710,761, 518, 410, 1, -5, 0, -19, 2, 23, 955, 925, 24,z
2025-03-17 10:40:46.774,733, 542, 464, 6, -5, 0, -19, 1, 23, 957, 933, 139,z
2025-03-17 10:40:46.827,760, 527, 394, 4, -8, 1, -21, -2, 25, 961, 937, 150,z
2025-03-17 10:40:46.878,746, 524, 429, -3, 0, -5, -20, 0, 22, 961, 941, 173,z
2025-03-17 10:40:46.936,760, 520, 383, -1, -3, -3, -18, 2, 22, 963, 939, 133,z
2025-03-17 10:40:46.990,723, 539, 468, -3, 1, 0, -18, 0, 24, 963, 941, 13,z
2025-03-17 10:40:47.043,743, 542, 415, 1, -5, -1, -20, 0, 24, 964, 943, 22,z
2025-03-17 10:40:47.092,708, 564, 425, -3, -2, 0, -21, 1, 24, 967, 943, 14,z
2025-03-17 10:40:47.146,827, 536, 352, -9, -2, -5, -21, -1, 24, 965, 939, 24,z
2025-03-17 10:40:47.208,729, 509, 474, -11, -3, -9, -20, 0, 24, 968, 940, 29,z
2025-03-17 10:40:47.258,807, 371, 382, 51, -5, -14, -22, 1, 23, 976, 963, 19,z
2025-03-17 10:40:47.322,589, 464, 453, 32, 1, 9, -21, 1, 24, 982, 972, 277,z
2025-03-17 10:40:47.374,632, 796, 135, 18, 20, 15, -21, 0, 23, 980, 964, 232,z
2025-03-17 10:40:47.425,993, 540, 244, -5, 14, 1, -20, 0, 24, 982, 960, 51,z
2025-03-17 10:40:47.484,687, 599, 343, -3, 3, 33, -20, 1, 23, 988, 976, 158,z
2025-03-17 10:40:47.539,712, 494, 439, 13, 3, 6, -20, 0, 24, 982, 969, 78,z
2025-03-17 10:40:47.591,473, 590, 561, -28, 10, -55, -20, 0, 22, 972, 939, 157,z
2025-03-17 10:40:47.654,921, 648, 97, -3, -15, 14, -19, 0, 25, 985, 977, 70,z
2025-03-17 10:40:47.708,792, 614, 410, 10, 8, 23, -22, 2, 23, 987, 976, 148,z
2025-03-17 10:40:47.758,892, 431, 44, -21, 53, -56, -20, 3, 22, 975, 952, 344,z
2025-03-17 10:40:47.823,528, 593, 805, -39, 29, -19, -19, 1, 19, 954, 877, 110,z
2025-03-17 10:40:48.074,686, 566, 490, -6, 1, 0, -20, 0, 21, 943, 825, 23,0
2025-03-17 10:40:48.122,697, 545, 488, -5, -1, 0, -17, -1, 20, 944, 828, 25,0
2025-03-17 10:40:48.184,731, 534, 425, -5, -1, -3, -19, 2, 19, 943, 848, 20,0
2025-03-17 10:40:48.239,701, 556, 463, -6, 2, -4, -20, 1, 20, 942, 859, 18,0
2025-03-17 10:40:48.293,705, 567, 459, 0, -4, 4, -18, -2, 21, 944, 870, 31,0
2025-03-17 10:40:48.346,715, 547, 464, -5, 1, 1, -19, 1, 22, 946, 883, 15,0
2025-03-17 10:40:48.395,715, 541, 463, -3, -5, 2, -20, 1, 21, 950, 899, 16,0
2025-03-17 10:40:48.440,715, 552, 439, 1, -8, 2, -19, 1, 21, 955, 914, 21,0
2025-03-17 10:40:48.505,729, 542, 440, -1, -6, 2, -18, 0, 23, 959, 923, 35,0
2025-03-17 10:40:48.557,724, 541, 445, 0, -6, 6, -19, 0, 22, 961, 929, 20,0
2025-03-17 10:40:48.607,729, 544, 453, -4, 1, 0, -19, -1, 23, 961, 929, 25,0
2025-03-17 10:40:48.657,720, 538, 447, 7, -8, 5, -19, 1, 22, 963, 931, 11,0
2025-03-17 10:40:48.722,781, 547, 322, -5, 1, -7, -20, 1, 22, 961, 931, 20,0
2025-03-17 10:40:48.773,676, 555, 497, 10, -14, 9, -20, 1, 23, 962, 940, 231,0
2025-03-17 10:40:48.838,644, 507, 499, -11, -37, -3, -19, 1, 25, 965, 957, 315,0
2025-03-17 10:40:48.890,672, 571, 383, -28, -11, -19, -22, 0, 26, 972, 971, 24,0
2025-03-17 10:40:48.940,684, 1084, -143, 71, 50, 27, -19, -1, 26, 983, 967, 58,0
2025-03-17 10:40:49.007,777, 939, 449, -54, 41, 57, -20, 0, 24, 984, 975, 66,0
2025-03-17 10:40:49.057,420, 588, 419, -17, -45, -57, -19, 1, 24, 979, 977, 29,0
2025-03-17 10:40:49.123,1098, 680, 92, 23, 18, -10, -21, 1, 24, 957, 967, 285,0
2025-03-17 10:40:49.180,508, 654, 645, -39, 73, -16, -20, 0, 19, 950, 928, 14,0
2025-03-17 10:40:49.232,574, 548, 583, -3, 1, 8, -17, -1, 21, 942, 892, 17,0
2025-03-17 10:40:49.532,714, 517, 446, -3, -10, 0, -19, -1, 23, 958, 942, 20,1
2025-03-17 10:40:49.587,713, 522, 448, 2, -10, 1, -19, -1, 23, 957, 941, 19,1
2025-03-17 10:40:49.639,712, 549, 440, 3, -12, 4, -20, 0, 22, 962, 946, 31,1
2025-03-17 10:40:49.697,783, 699, 307, -1, -12, -12, -19, 0, 23, 972, 963, 27,1
2025-03-17 10:40:49.755,863, 649, 588, 11, -8, 18, -21, -1, 24, 976, 976, 47,1
2025-03-17 10:40:49.807,710, 477, 598, 25, -15, -4, -21, -1, 25, 980, 976, 76,1
2025-03-17 10:40:49.856,296, 354, 559, 20, 23, 32, -19, 0, 24, 983, 972, 102,1
2025-03-17 10:40:49.922,732, 386, 365, -20, 37, -5, -18, 1, 22, 978, 961, 22,1
2025-03-17 10:40:49.972,1263, -124, -1, -15, -18, -33, -20, 0, 22, 979, 963, 19,1
2025-03-17 10:40:50.040,783, 270, 293, 0, -22, 34, -19, 0, 24, 986, 978, 136,1
2025-03-17 10:40:50.090,873, 264, 299, 6, 17, 5, -19, 0, 23, 983, 970, 27,1
2025-03-17 10:40:50.143,646, 521, 536, -48, 68, -59, -18, 2, 22, 971, 954, 15,1
2025-03-17 10:40:50.205,565, 554, 695, 2, -20, -8, -19, 1, 18, 959, 944, 13,1
2025-03-17 10:40:50.468,694, 566, 434, 1, -16, -1, -19, 0, 22, 962, 945, 20,2
2025-03-17 10:40:50.525,714, 577, 404, 1, -16, -1, -18, 1, 24, 962, 946, 20,2
2025-03-17 10:40:50.572,657, 582, 447, -9, -15, 0, -21, 1, 23, 963, 944, 16,2
2025-03-17 10:40:50.632,855, 739, 131, -36, -8, -6, -19, -1, 26, 970, 959, 16,2
2025-03-17 10:40:50.691,551, 168, 463, 33, -23, 6, -20, -1, 26, 975, 974, 67,2
2025-03-17 10:40:50.741,835, 648, 370, 36, 19, 25, -20, -1, 28, 979, 970, 106,2
2025-03-17 10:40:50.807,1153, 328, 398, -9, 3, 1, -18, -1, 26, 979, 956, 19,2
2025-03-17 10:40:50.857,655, 462, 11, 1, -5, 28, -19, 2, 23, 986, 982, 309,2
2025-03-17 10:40:50.907,823, 490, 375, 19, 15, -4, -20, 1, 23, 980, 971, 32,2
2025-03-17 10:40:50.972,684, 510, 416, -53, 84, -55, -18, 2, 21, 962, 930, 21,2
2025-03-17 10:40:51.265,721, 548, 420, -1, -17, -1, -19, 0, 22, 955, 936, 16,3
2025-03-17 10:40:51.307,730, 550, 421, -3, -19, -1, -19, 0, 22, 955, 937, 17,3
2025-03-17 10:40:51.375,716, 562, 447, -14, -26, 1, -20, -1, 24, 964, 946, 28,3
2025-03-17 10:40:51.435,837, 566, 387, 22, -8, -11, -19, -2, 26, 974, 967, 43,3
2025-03-17 10:40:51.490,728, 678, 492, 21, 3, 15, -21, -1, 27, 980, 970, 90,3
2025-03-17 10:40:51.539,708, 338, 304, 9, 7, 6, -21, 1, 25, 980, 966, 25,3
2025-03-17 10:40:51.590,830, 667, 297, -5, 13, 5, -21, 1, 22, 981, 969, 45,3
2025-03-17 10:40:51.645,715, 1126, -21, -10, 9, 13, -19, 0, 25, 984, 971, 75,3
2025-03-17 10:40:51.707,820, 475, 248, 11, 41, 11, -20, 0, 25, 970, 947, 26,3
2025-03-17 10:40:51.757,629, 477, 715, -46, 66, -51, -19, -2, 22, 961, 948, 17,3
2025-03-17 10:40:51.823,415, 626, 680, 0, -40, -6, -19, -3, 22, 963, 952, 23,3
2025-03-17 10:40:52.076,733, 474, 465, 12, -30, 3, -19, 1, 26, 974, 969, 20,4
2025-03-17 10:40:52.134,1245, 275, 239, -1, -18, -13, -19, 1, 26, 975, 969, 23,4
2025-03-17 10:40:52.191,682, 527, 473, 16, 0, -4, -20, -2, 25, 980, 969, 25,4
2025-03-17 10:40:52.242,986, 508, 418, 10, -10, -8, -19, -2, 26, 981, 956, 39,4
2025-03-17 10:40:52.294,942, 460, 524, -3, 7, 32, -21, 2, 25, 986, 979, 148,4
2025-03-17 10:40:52.355,612, 634, 255, 7, 7, 20, -21, 0, 27, 983, 975, 195,4
2025-03-17 10:40:52.405,559, 618, 496, -25, 8, -46, -20, -3, 27, 974, 966, 23,4
2025-03-17 10:40:52.470,602, 851, 236, 34, -30, -15, -20, 0, 27, 983, 968, 66,4
2025-03-17 10:40:52.522,643, 1128, -230, -22, 63, 55, -22, -1, 27, 986, 951, 114,4
2025-03-17 10:40:52.588,1083, 117, 303, -32, 47, -37, -18, -1, 27, 971, 935, 19,4
2025-03-17 10:40:52.639,525, 458, 766, -27, 9, -23, -19, -1, 22, 965, 952, 25,4
2025-03-17 10:40:52.919,707, 492, 481, 1, -22, -1, -19, 0, 24, 965, 948, 29,5
2025-03-17 10:40:52.977,710, 494, 458, 2, -23, -1, -20, 2, 24, 966, 946, 31,5
2025-03-17 10:40:53.037,893, 467, 122, -1, -6, -15, -21, -2, 25, 976, 965, 35,5
2025-03-17 10:40:53.089,795, 515, 402, 0, 3, 13, -18, 0, 27, 981, 974, 82,5
2025-03-17 10:40:53.141,657, 453, 476, 14, -10, -9, -24, 0, 27, 974, 969, 16,5
2025-03-17 10:40:53.203,934, 497, 330, 40, -8, -17, -20, -1, 26, 979, 962, 42,5
2025-03-17 10:40:53.256,810, 714, 592, 7, 32, 36, -20, 0, 25, 986, 971, 90,5
2025-03-17 10:40:53.307,791, 459, 202, -3, 35, 10, -19, 1, 23, 980, 966, 24,5
2025-03-17 10:40:53.357,1167, 520, 47, -28, 61, -42, -20, 2, 22, 964, 942, 32,5
2025-03-17 10:40:53.423,515, 589, 789, -19, 16, -32, -19, 0, 18, 962, 945, 30,5
2025-03-17 10:40:53.715,708, 567, 458, -3, -13, 4, -20, 1, 21, 953, 938, 16,6
2025-03-17 10:40:53.755,704, 558, 438, -2, -14, 5, -19, -2, 24, 955, 939, 19,6
2025-03-17 10:40:53.822,714, 541, 472, 6, -17, 14, -19, 0, 23, 959, 949, 25,6
2025-03-17 10:40:53.873,734, 464, 296, 13, -22, 10, -23, 2, 22, 963, 952, 29,6
2025-03-17 10:40:53.937,817, 520, 323, -7, -18, -6, -21, 0, 23, 971, 963, 16,6
2025-03-17 10:40:53.988,795, 461, 548, 12, -9, -21, -19, -1, 26, 975, 968, 25,6
2025-03-17 10:40:54.038,1424, 670, 324, 14, 38, 27, -20, 0, 26, 982, 959, 58,6
2025-03-17 10:40:54.105,429, 336, 452, -16, 31, 21, -20, 2, 22, 981, 970, 72,6
2025-03-17 10:40:54.156,696, 475, 518, 13, -44, -57, -21, 1, 23, 972, 971, 17,6
2025-03-17 10:40:54.219,991, 608, 46, -32, 60, -34, -22, -2, 25, 958, 948, 21,6
2025-03-17 10:40:54.271,431, 640, 785, -29, 36, -6, -19, -2, 22, 954, 904, 31,6
2025-03-17 10:40:54.549,728, 498, 415, 2, -26, 10, -20, 2, 24, 962, 943, 29,7
2025-03-17 10:40:54.607,810, 440, 255, -10, -23, -13, -18, -2, 27, 965, 950, 17,7
2025-03-17 10:40:54.670,927, 610, 283, 15, -7, 22, -22, 1, 23, 977, 972, 20,7
2025-03-17 10:40:54.724,649, 449, 622, 36, -10, 6, -21, 0, 24, 983, 973, 73,7
2025-03-17 10:40:54.774,794, 565, 53, 30, 27, 25, -22, 2, 24, 985, 967, 128,7
2025-03-17 10:40:54.837,729, 666, 304, -27, 29, 14, -19, -1, 25, 980, 956, 22,7
2025-03-17 10:40:54.888,743, 586, 630, -10, -33, -29, -19, 0, 23, 977, 962, 25,7
2025-03-17 10:40:54.952,716, 288, 426, 10, -21, 26, -20, -1, 25, 984, 977, 196,7
2025-03-17 10:40:55.010,875, 304, 313, 14, 17, -7, -20, 0, 25, 979, 966, 28,7
2025-03-17 10:40:55.054,622, 508, 559, -53, 77, -53, -18, -1, 22, 963, 938, 19,7
2025-03-17 10:40:55.343,700, 532, 430, 10, -24, 15, -20, 0, 23, 965, 926, 30,8
2025-03-17 10:40:55.403,725, 495, 437, 19, -26, 15, -19, 2, 22, 965, 929, 25,8
2025-03-17 10:40:55.456,759, 522, 202, -35, 1, -10, -20, 1, 23, 971, 953, 22,8
2025-03-17 10:40:55.518,583, 466, 545, -18, -16, -21, -21, -1, 24, 975, 962, 20,8
2025-03-17 10:40:55.572,1000, 740, -55, 33, 34, 28, -20, -3, 27, 983, 964, 37,8
2025-03-17 10:40:55.623,618, 436, 429, -20, 23, 26, -21, 3, 22, 983, 973, 20,8
2025-03-17 10:40:55.688,1042, 418, 455, -6, -41, -62, -19, 2, 23, 978, 978, 19,8
2025-03-17 10:40:55.739,923, 339, 691, 13, -32, -8, -22, 2, 24, 983, 979, 25,8
2025-03-17 10:40:55.789,730, 916, 107, 9, 7, 18, -22, 0, 25, 986, 978, 77,8
2025-03-17 10:40:55.844,860, 470, 299, 4, 33, 5, -19, 0, 27, 978, 969, 33,8
2025-03-17 10:40:55.905,668, 519, 585, -38, 50, -35, -20, 1, 22, 973, 963, 21,8
2025-03-17 10:40:56.166,666, 541, 501, 2, -16, 8, -20, -1, 25, 970, 963, 32,9
2025-03-17 10:40:56.222,715, 508, 476, 0, -20, 6, -20, 1, 23, 971, 963, 29,9
2025-03-17 10:40:56.280,755, 470, 467, -8, -5, -15, -22, 0, 26, 972, 968, 15,9
2025-03-17 10:40:56.322,767, 836, 69, 33, 18, 11, -20, 0, 26, 980, 970, 49,9
2025-03-17 10:40:56.386,781, 622, 468, -4, 29, 34, -19, 3, 23, 983, 975, 31,9
2025-03-17 10:40:56.443,758, 443, 510, 4, -21, -25, -20, 2, 23, 977, 973, 16,9
2025-03-17 10:40:56.497,612, 932, 100, -4, 23, 36, -20, -1, 24, 983, 972, 30,9
2025-03-17 10:40:56.554,590, 535, 58, -38, 39, 30, -19, 0, 23, 982, 971, 32,9
2025-03-17 10:40:56.605,1329, 245, 316, -1, 42, -64, -18, 3, 20, 961, 942, 19,9
2025-03-17 10:40:56.669,535, 491, 898, -24, 31, -40, -17, 2, 18, 948, 936, 24,9
2025-03-17 10:40:56.721,570, 602, 597, 6, -21, 0, -18, 2, 18, 946, 927, 23,9
2025-03-17 10:40:56.772,713, 539, 429, 6, -14, 7, -21, 2, 17, 941, 913, 22,9
2025-03-17 10:40:56.821,711, 523, 474, -5, -3, 2, -18, 1, 20, 942, 914, 24,9
2025-03-17 10:40:56.885,707, 541, 488, -3, -4, 0, -19, 2, 19, 942, 914, 23,9
2025-03-17 10:40:57.478,711, 536, 484, 0, -4, 0, -21, 0, 21, 946, 926, 24,+
2025-03-17 10:40:57.537,709, 532, 477, 0, -4, 0, -21, 2, 20, 946, 926, 23,+
2025-03-17 10:40:57.588,733, 530, 492, 0, -4, 0, -19, 0, 21, 947, 930, 32,+
2025-03-17 10:40:57.639,722, 522, 473, -1, -2, 0, -19, 2, 21, 950, 934, 27,+
2025-03-17 10:40:57.689,723, 525, 468, 2, -3, -2, -19, 3, 18, 950, 937, 23,+
2025-03-17 10:40:57.744,724, 539, 462, 5, -2, -2, -19, -1, 21, 951, 937, 26,+
2025-03-17 10:40:57.804,697, 539, 479, 4, -3, 1, -20, 1, 21, 954, 941, 33,+
2025-03-17 10:40:57.858,732, 516, 457, 3, -2, 2, -19, 0, 21, 959, 941, 25,+
2025-03-17 10:40:57.909,705, 557, 469, 1, -7, 2, -19, 1, 22, 961, 945, 13,+
2025-03-17 10:40:57.959,769, 523, 433, 4, -6, 3, -20, 1, 22, 961, 946, 25,+
2025-03-17 10:40:58.009,686, 525, 520, 9, -7, 1, -18, 0, 22, 961, 949, 20,+
2025-03-17 10:40:58.074,774, 541, 353, -3, -11, -1, -20, -1, 23, 962, 951, 20,+
2025-03-17 10:40:58.125,666, 539, 539, -3, -29, -2, -20, 0, 23, 963, 960, 27,+
2025-03-17 10:40:58.189,774, 405, 444, -4, -11, -13, -21, -1, 23, 973, 971, 24,+
2025-03-17 10:40:58.242,728, 807, 500, 29, 9, 20, -21, 0, 24, 984, 968, 44,+
2025-03-17 10:40:58.292,706, 394, 309, -6, 32, 20, -19, 2, 22, 981, 961, 24,+
2025-03-17 10:40:58.352,567, 653, 690, -4, -46, -19, -19, 0, 22, 975, 962, 25,+
2025-03-17 10:40:58.414,966, 1022, 225, 11, -40, 34, -22, -1, 25, 986, 980, 153,+
2025-03-17 10:40:58.471,763, 539, 512, 23, 15, 27, -21, 1, 23, 980, 966, 269,+
2025-03-17 10:40:58.522,644, 549, 337, -74, 80, -67, -20, 2, 20, 961, 938, 26,+
2025-03-17 10:40:58.830,715, 537, 457, 2, -13, 7, -21, 0, 22, 961, 935, 27,-
2025-03-17 10:40:58.886,719, 539, 434, 1, -13, 7, -18, -1, 26, 961, 938, 29,-
2025-03-17 10:40:58.938,776, 532, 355, -2, -3, 5, -21, 0, 24, 964, 937, 23,-
2025-03-17 10:40:58.997,745, 546, 422, -8, 4, -1, -21, 1, 22, 966, 936, 26,-
2025-03-17 10:40:59.055,746, 540, 431, -2, -1, 2, -19, -1, 24, 965, 939, 29,-
2025-03-17 10:40:59.104,732, 528, 430, -3, 3, 0, -18, -1, 23, 969, 940, 24,-
2025-03-17 10:40:59.154,751, 530, 427, -1, -4, 2, -20, -1, 22, 967, 941, 12,-
2025-03-17 10:40:59.209,761, 547, 392, 3, -4, 0, -19, 1, 23, 968, 942, 34,-
2025-03-17 10:40:59.270,749, 513, 426, 0, -1, -2, -19, -2, 24, 970, 938, 12,-
2025-03-17 10:40:59.323,645, 556, 535, 9, -16, 1, -22, 0, 22, 968, 937, 28,-
2025-03-17 10:40:59.384,881, 687, 333, -25, -6, -6, -19, 0, 23, 973, 946, 22,-
2025-03-17 10:40:59.442,604, 577, 196, 21, -12, 73, -20, -2, 26, 985, 975, 322,-
2025-03-17 10:40:59.487,692, 436, 381, 12, 5, 9, -21, 2, 25, 983, 972, 417,-
2025-03-17 10:40:59.546,862, 411, 261, 0, 10, -56, -20, 1, 25, 964, 933, 31,-
2025-03-17 10:40:59.848,742, 543, 430, -4, -1, -4, -20, 2, 22, 937, 835, 21,÷
2025-03-17 10:40:59.903,734, 553, 413, -4, -1, -5, -18, 0, 25, 937, 833, 23,÷
2025-03-17 10:40:59.955,755, 536, 406, 4, 2, -13, -19, 0, 23, 933, 822, 30,÷
2025-03-17 10:41:00.019,809, 472, 431, 4, 0, -44, -20, 1, 22, 922, 810, 30,÷
2025-03-17 10:41:00.069,730, 570, 418, 0, 3, -85, -20, -3, 23, 912, 761, 24,÷
2025-03-17 10:41:00.129,669, 747, 294, 4, -16, -96, -20, -6, 24, 905, 660, 116,÷
2025-03-17 10:41:00.187,342, 796, 573, 10, -14, -8, -19, -9, 23, 916, 725, 26,÷
2025-03-17 10:41:00.237,473, 814, 326, 5, -1, 64, -18, -7, 23, 933, 831, 18,÷
2025-03-17 10:41:00.296,709, 725, 254, 5, -2, 52, -20, -6, 24, 945, 877, 20,÷
2025-03-17 10:41:00.353,708, 592, 400, -13, 3, 47, -19, -4, 24, 949, 901, 24,÷
2025-03-17 10:41:00.404,726, 586, 435, -2, -7, 38, -20, -3, 25, 953, 917, 112,÷
2025-03-17 10:41:00.459,751, 518, 373, 5, -5, 15, -19, -2, 24, 963, 931, 126,÷
2025-03-17 10:41:00.521,731, 632, 326, -7, 2, 7, -21, 0, 25, 965, 942, 221,÷
2025-03-17 10:41:00.571,716, 570, 419, -3, 1, 4, -20, -1, 23, 968, 947, 247,÷
2025-03-17 10:41:00.631,717, 574, 366, -12, -1, 3, -20, -1, 25, 971, 950, 220,÷
2025-03-17 10:41:00.686,567, 560, 492, -8, -23, 7, -19, 1, 24, 974, 959, 236,÷
2025-03-17 10:41:00.747,757, 571, 149, -13, -11, -5, -20, -1, 27, 983, 971, 29,÷
2025-03-17 10:41:00.803,946, 379, 301, 19, 33, 21, -22, 1, 25, 979, 964, 123,÷
2025-03-17 10:41:00.853,306, 585, 927, 5, 37, 30, -17, 1, 22, 977, 949, 15,÷
2025-03-17 10:41:00.904,842, 711, -163, 36, -16, -15, -19, 0, 24, 979, 961, 25,÷
2025-03-17 10:41:00.969,789, 458, 526, 8, 0, 7, -20, 0, 24, 976, 959, 24,÷
2025-03-17 10:41:01.020,467, 500, 625, 3, 13, -46, -20, 0, 22, 969, 944, 30,÷
2025-03-17 10:41:01.072,766, 448, 379, 7, -68, 16, -19, 0, 24, 978, 957, 24,÷
2025-03-17 10:41:01.133,822, 484, 50, -7, -14, 46, -22, 1, 23, 987, 977, 148,÷
2025-03-17 10:41:01.189,733, 616, 328, 22, 12, 17, -21, 1, 25, 983, 971, 206,÷
2025-03-17 10:41:01.238,793, 563, 222, -50, 78, -68, -20, 1, 23, 963, 938, 34,÷
2025-03-17 10:41:01.301,475, 532, 839, -14, 4, -9, -21, 1, 20, 947, 882, 31,÷
2025-03-17 10:41:01.568,694, 574, 460, -2, -5, 0, -20, 0, 24, 946, 893, 31,=
2025-03-17 10:41:01.625,702, 566, 445, 0, -6, 1, -21, -2, 22, 949, 893, 31,=
2025-03-17 10:41:01.669,758, 561, 389, 3, -5, 2, -18, -1, 21, 948, 901, 19,=
2025-03-17 10:41:01.735,732, 555, 416, -4, -2, 1, -20, 1, 25, 953, 911, 27,=
2025-03-17 10:41:01.787,704, 559, 407, 3, -3, 2, -20, -2, 26, 956, 916, 21,=
2025-03-17 10:41:01.837,761, 548, 369, 0, -3, 4, -21, 1, 22, 957, 922, 47,=
2025-03-17 10:41:01.887,733, 555, 420, 1, -4, 2, -20, -3, 25, 961, 928, 23,=
2025-03-17 10:41:01.946,774, 565, 366, -1, 1, 2, -19, -1, 24, 962, 932, 49,=
2025-03-17 10:41:02.001,724, 550, 409, -2, -1, 0, -21, 0, 25, 962, 931, 18,=
2025-03-17 10:41:02.054,743, 544, 398, -3, 1, 0, -20, -2, 24, 964, 933, 28,=
2025-03-17 10:41:02.104,703, 548, 447, -3, -3, 0, -20, -1, 24, 965, 932, 17,=
2025-03-17 10:41:02.170,857, 445, 200, -18, -11, -18, -21, 1, 25, 971, 945, 28,=
2025-03-17 10:41:02.225,879, 727, -1, 24, -14, 43, -21, 1, 23, 985, 974, 176,=
2025-03-17 10:41:02.270,678, 366, 519, 37, 7, 11, -20, 0, 24, 980, 964, 313,=
2025-03-17 10:41:02.336,524, 538, 546, -5, 38, -28, -22, 0, 26, 969, 931, 18,=
2025-03-17 10:41:02.386,892, 416, 103, 12, -14, -10, -20, 0, 25, 977, 965, 50,=
2025-03-17 10:41:02.445,731, 554, 183, 11, 7, 27, -20, 1, 25, 982, 972, 330,=
2025-03-17 10:41:02.504,965, 234, 94, -12, 33, -45, -20, 0, 24, 970, 934, 16,=
2025-03-17 10:41:02.814,761, 561, 391, -4, -2, -2, -20, 0, 25, 944, 853, 25,≠
2025-03-17 10:41:02.871,759, 552, 377, -6, -2, -2, -19, 0, 24, 943, 856, 22,≠
2025-03-17 10:41:02.935,737, 561, 436, 1, -2, -1, -21, 0, 25, 948, 877, 25,≠
2025-03-17 10:41:02.987,750, 570, 372, -6, -1, 0, -22, 0, 23, 952, 892, 28,≠
2025-03-17 10:41:03.042,738, 561, 409, -2, -3, -1, -21, 1, 23, 954, 906, 22,≠
2025-03-17 10:41:03.095,725, 550, 409, -2, -3, -3, -19, 0, 25, 955, 911, 21,≠
2025-03-17 10:41:03.152,745, 558, 395, -1, 1, -3, -20, -2, 25, 955, 918, 31,≠
2025-03-17 10:41:03.204,706, 551, 423, 1, -5, -3, -19, -1, 23, 956, 922, 20,≠
2025-03-17 10:41:03.268,659, 557, 499, -1, -18, -3, -21, 1, 24, 956, 922, 20,≠
2025-03-17 10:41:03.320,879, 317, 375, 34, -17, -17, -22, 0, 24, 974, 958, 20,≠
2025-03-17 10:41:03.370,461, 554, 412, -5, 7, 30, -23, 0, 26, 981, 968, 150,≠
2025-03-17 10:41:03.420,658, 468, 261, 14, 27, -6, -20, 0, 27, 969, 942, 14,≠
2025-03-17 10:41:03.486,715, 522, 661, -11, -24, -3, -20, 0, 24, 964, 891, 32,≠
2025-03-17 10:41:03.547,1149, 1102, 292, -13, -14, 39, -20, -3, 25, 977, 967, 115,≠
2025-03-17 10:41:03.603,731, 467, 338, 1, 8, 23, -21, 1, 24, 975, 959, 21,≠
2025-03-17 10:41:03.653,456, 703, 970, -12, -16, -18, -19, 0, 23, 969, 953, 183,≠
2025-03-17 10:41:03.719,881, 697, 127, -26, -26, -8, -21, -1, 25, 981, 966, 98,≠
2025-03-17 10:41:03.775,155, 824, 289, 43, 47, 21, -21, 0, 24, 983, 952, 80,≠
2025-03-17 10:41:03.832,852, 731, 80, -9, 67, 34, -20, 0, 23, 966, 875, 25,≠
2025-03-17 10:41:03.886,669, 568, 338, -44, 44, -62, -18, 1, 21, 930, 890, 18,≠
2025-03-17 10:41:03.938,392, 600, 813, -21, 6, -9, -19, -1, 19, 929, 910, 20,≠
2025-03-17 10:41:04.201,750, 542, 421, -2, -3, 2, -19, 0, 23, 935, 869, 27,≈
2025-03-17 10:41:04.253,740, 539, 402, -2, -3, 1, -21, 3, 20, 935, 868, 34,≈
2025-03-17 10:41:04.303,729, 520, 451, -2, 0, -2, -20, 0, 22, 935, 873, 27,≈
2025-03-17 10:41:04.358,717, 545, 449, -6, 0, -1, -19, 0, 22, 934, 867, 16,≈
2025-03-17 10:41:04.418,709, 538, 478, -9, 1, 0, -21, -2, 23, 937, 862, 30,≈
2025-03-17 10:41:04.470,668, 547, 460, -4, -5, 5, -19, -2, 25, 941, 860, 15,≈
2025-03-17 10:41:04.520,743, 520, 424, 1, -4, 1, -19, 0, 22, 946, 885, 21,≈
2025-03-17 10:41:04.570,735, 541, 436, 5, -6, -1, -18, 0, 23, 947, 900, 14,≈
2025-03-17 10:41:04.624,701, 565, 457, 0, 0, -3, -19, 0, 23, 947, 910, 22,≈
2025-03-17 10:41:04.686,714, 551, 446, 10, -13, 1, -21, 0, 24, 950, 906, 23,≈
2025-03-17 10:41:04.736,795, 548, 344, -8, 5, -4, -20, 0, 24, 948, 912, 24,≈
2025-03-17 10:41:04.795,679, 587, 456, 13, 0, 7, -20, 1, 21, 950, 931, 27,≈
2025-03-17 10:41:04.845,731, 543, 431, -3, -2, -3, -20, 0, 24, 952, 933, 27,≈
2025-03-17 10:41:04.903,686, 561, 414, -13, -3, -3, -21, 0, 25, 953, 934, 21,≈
2025-03-17 10:41:04.953,757, 515, 449, 2, -25, 7, -23, 2, 23, 963, 947, 22,≈
2025-03-17 10:41:05.002,754, 490, 436, -2, 4, -1, -19, -2, 26, 964, 951, 29,≈
2025-03-17 10:41:05.069,725, 552, 454, -4, -6, -4, -22, 2, 23, 967, 953, 12,≈
2025-03-17 10:41:05.119,770, 447, 437, 0, 0, -4, -19, 0, 23, 970, 964, 24,≈
2025-03-17 10:41:05.170,775, 363, 661, 4, -35, 8, -18, -1, 26, 977, 971, 21,≈
2025-03-17 10:41:05.234,761, 710, 321, 8, 4, 18, -20, 1, 26, 984, 971, 24,≈
2025-03-17 10:41:05.286,759, 628, 326, -9, 11, 12, -22, 2, 24, 984, 970, 69,≈
2025-03-17 10:41:05.340,743, 341, 566, 10, -12, -5, -21, 1, 25, 980, 971, 25,≈
2025-03-17 10:41:05.401,700, 509, 286, -4, 45, -15, -20, -1, 25, 976, 964, 22,≈
2025-03-17 10:41:05.452,566, 570, 586, 9, -8, -10, -20, -2, 24, 972, 943, 20,≈
2025-03-17 10:41:05.511,883, 586, 89, -9, 14, 0, -20, -1, 25, 977, 966, 23,≈
2025-03-17 10:41:05.553,857, 640, 369, 7, -16, 20, -22, 0, 24, 983, 974, 50,≈
2025-03-17 10:41:05.618,737, 650, 356, 1, 3, 17, -22, 0, 25, 987, 975, 59,≈
2025-03-17 10:41:05.670,794, 675, 314, -14, 17, 24, -22, -1, 24, 985, 970, 33,≈
2025-03-17 10:41:05.720,834, 485, 418, 8, -13, -2, -20, 3, 25, 981, 970, 31,≈
2025-03-17 10:41:05.786,859, 510, 89, -38, 73, -31, -22, 2, 22, 975, 960, 14,≈
2025-03-17 10:41:05.841,500, 533, 777, -21, 30, -20, -19, 1, 21, 965, 930, 23,≈
2025-03-17 10:41:05.900,688, 555, 480, 13, -20, 1, -18, -1, 22, 958, 906, 29,≈
2025-03-17 10:41:06.179,719, 551, 451, 6, -13, 2, -19, -2, 23, 956, 901, 21,<
2025-03-17 10:41:06.237,721, 540, 436, 7, -12, 1, -19, 0, 23, 958, 901, 25,<
2025-03-17 10:41:06.288,745, 549, 403, 1, -9, 1, -20, 0, 23, 954, 900, 30,<
2025-03-17 10:41:06.339,763, 532, 394, 0, 0, -5, -20, 1, 23, 957, 902, 13,<
2025-03-17 10:41:06.396,751, 527, 429, 2, 0, -19, -19, -2, 24, 958, 908, 32,<
2025-03-17 10:41:06.453,750, 561, 398, 10, -5, -39, -21, -1, 23, 957, 905, 24,<
2025-03-17 10:41:06.504,713, 536, 416, 18, -2, -69, -20, -4, 25, 948, 861, 14,<
2025-03-17 10:41:06.569,594, 759, 398, -10, -11, -58, -19, -6, 22, 948, 816, 17,<
2025-03-17 10:41:06.621,479, 837, 420, 11, -11, 2, -18, -7, 23, 952, 850, 13,<
2025-03-17 10:41:06.684,573, 812, 286, -3, 6, 71, -20, -6, 24, 959, 907, 32,<
2025-03-17 10:41:06.736,772, 534, 440, 2, -18, 55, -21, -4, 25, 963, 928, 20,<
2025-03-17 10:41:06.787,809, 560, 303, -6, -3, 17, -19, -3, 25, 965, 941, 55,<
2025-03-17 10:41:06.851,725, 556, 438, -4, -7, 12, -22, -2, 25, 968, 952, 77,<
2025-03-17 10:41:06.903,666, 593, 450, 0, -25, 19, -22, -1, 24, 975, 959, 52,<
2025-03-17 10:41:06.954,830, 570, 140, -39, -3, 0, -20, 0, 26, 980, 968, 30,<
2025-03-17 10:41:07.019,723, 471, 542, 28, -5, -18, -19, -1, 29, 986, 969, 23,<
2025-03-17 10:41:07.071,883, 693, 318, 1, 5, 4, -20, -2, 26, 985, 964, 16,<
2025-03-17 10:41:07.120,733, 1238, 212, -4, 28, 74, -20, 3, 23, 989, 975, 228,<
2025-03-17 10:41:07.183,750, 433, 413, 12, 21, 19, -20, 2, 24, 981, 967, 68,<
2025-03-17 10:41:07.237,676, 507, 345, -44, 72, -67, -20, 1, 22, 962, 931, 23,<
2025-03-17 10:41:07.512,748, 526, 403, -4, -1, -1, -18, 1, 23, 954, 912, 19,≤
2025-03-17 10:41:07.569,718, 528, 434, -3, -2, -1, -18, 1, 23, 954, 911, 19,≤
2025-03-17 10:41:07.623,726, 525, 484, 2, -12, 1, -18, -1, 24, 957, 913, 25,≤
2025-03-17 10:41:07.683,779, 536, 363, 4, -11, -3, -20, 3, 22, 957, 916, 19,≤
2025-03-17 10:41:07.740,745, 541, 406, -2, 0, -2, -19, -1, 25, 959, 922, 25,≤
2025-03-17 10:41:07.789,734, 527, 425, -6, -2, -3, -19, 1, 25, 960, 927, 23,≤
2025-03-17 10:41:07.840,742, 530, 405, 1, 0, 0, -20, 0, 23, 960, 924, 27,≤
2025-03-17 10:41:07.900,741, 520, 414, -4, -2, -2, -22, 1, 24, 960, 929, 24,≤
2025-03-17 10:41:07.953,776, 556, 387, -4, -6, -2, -20, 0, 25, 963, 932, 20,≤
2025-03-17 10:41:08.006,756, 523, 412, -2, 2, -1, -20, 0, 25, 964, 931, 29,≤
2025-03-17 10:41:08.057,741, 551, 400, 1, 2, 2, -21, 2, 24, 965, 933, 20,≤
2025-03-17 10:41:08.117,779, 553, 393, 2, -1, 2, -19, 0, 25, 966, 938, 26,≤
2025-03-17 10:41:08.171,729, 522, 443, -3, 0, -3, -20, 0, 25, 967, 937, 33,≤
2025-03-17 10:41:08.223,785, 542, 379, -3, -4, -2, -20, 1, 25, 968, 940, 26,≤
2025-03-17 10:41:08.270,749, 505, 478, 7, -15, 4, -19, 0, 25, 967, 947, 22,≤
2025-03-17 10:41:08.334,729, 614, 451, -14, -12, -4, -19, 0, 27, 975, 960, 24,≤
2025-03-17 10:41:08.386,581, 509, 313, 21, 2, -17, -19, 0, 27, 979, 960, 16,≤
2025-03-17 10:41:08.441,897, 741, 35, -10, -4, -4, -21, 0, 25, 983, 948, 23,≤
2025-03-17 10:41:08.501,692, 479, 430, -7, -2, 47, -20, 1, 24, 988, 977, 242,≤
2025-03-17 10:41:08.552,762, 569, 463, 36, 0, 11, -19, 0, 26, 985, 972, 243,≤
2025-03-17 10:41:08.602,574, 417, 506, -5, 66, -30, -20, 1, 23, 975, 937, 29,≤
2025-03-17 10:41:08.668,927, 547, 250, 40, -19, -16, -19, 0, 22, 981, 951, 23,≤
2025-03-17 10:41:08.719,799, 398, 300, 2, -2, 36, -20, 4, 22, 987, 973, 238,≤
2025-03-17 10:41:08.774,902, 174, 374, 10, 20, -30, -19, 3, 22, 975, 948, 27,≤
2025-03-17 10:41:08.835,653, 566, 719, -45, 61, -30, -18, 0, 21, 953, 816, 32,≤
2025-03-17 10:41:09.096,753, 544, 419, -4, -7, 4, -19, -1, 23, 951, 877, 20,>
2025-03-17 10:41:09.159,739, 524, 412, -3, -7, 2, -19, -1, 23, 950, 877, 20,>
2025-03-17 10:41:09.208,746, 522, 413, -3, -9, 0, -20, -1, 24, 951, 881, 28,>
2025-03-17 10:41:09.267,772, 541, 398, -6, -3, -3, -20, 0, 25, 954, 898, 22,>
2025-03-17 10:41:09.323,730, 551, 441, -3, -3, 0, -21, 1, 25, 955, 903, 18,>
2025-03-17 10:41:09.369,747, 504, 438, 0, -7, -1, -21, 1, 22, 957, 911, 18,>
2025-03-17 10:41:09.424,757, 526, 407, -3, -2, -4, -19, 0, 25, 959, 916, 22,>
2025-03-17 10:41:09.485,746, 545, 410, 0, -1, -3, -20, 3, 23, 961, 914, 31,>
2025-03-17 10:41:09.535,723, 548, 429, -1, -5, -2, -19, 0, 23, 963, 919, 29,>
2025-03-17 10:41:09.595,629, 526, 548, -1, -31, 2, -22, 1, 25, 967, 933, 22,>
2025-03-17 10:41:09.653,911, 544, 306, 30, -1, -6, -18, -3, 26, 978, 964, 17,>
2025-03-17 10:41:09.702,596, 519, 651, 16, -5, 14, -22, 1, 25, 984, 966, 97,>
2025-03-17 10:41:09.761,431, 541, -21, 40, 11, 6, -23, 2, 24, 986, 963, 194,>
2025-03-17 10:41:09.817,853, 647, 63, -8, 48, 1, -20, 0, 24, 979, 949, 23,>
2025-03-17 10:41:09.869,936, 232, 145, -40, 40, -40, -19, 1, 24, 964, 936, 25,>
2025-03-17 10:41:10.178,752, 552, 377, -9, 0, -1, -21, -1, 25, 956, 908, 25,≥
2025-03-17 10:41:10.238,742, 543, 403, -10, 2, -2, -17, 3, 24, 957, 908, 23,≥
2025-03-17 10:41:10.289,715, 535, 495, -2, -8, 1, -19, 0, 25, 959, 904, 18,≥
2025-03-17 10:41:10.349,758, 531, 403, 0, -9, -1, -20, 0, 24, 959, 907, 25,≥
2025-03-17 10:41:10.403,767, 543, 395, -3, -1, -2, -20, -1, 23, 962, 910, 11,≥
2025-03-17 10:41:10.454,727, 547, 432, -3, -2, -3, -20, 0, 24, 961, 917, 23,≥
2025-03-17 10:41:10.516,746, 539, 439, 2, -11, 0, -20, -2, 24, 962, 920, 20,≥
2025-03-17 10:41:10.568,732, 543, 402, 4, -10, 1, -21, 0, 25, 965, 925, 21,≥
2025-03-17 10:41:10.617,733, 544, 415, 1, -13, 3, -21, 1, 25, 967, 930, 30,≥
2025-03-17 10:41:10.680,752, 550, 341, -10, 0, -5, -20, 0, 25, 969, 935, 16,≥
2025-03-17 10:41:10.734,759, 522, 417, -11, -2, -2, -20, 1, 27, 971, 942, 23,≥
2025-03-17 10:41:10.784,847, 694, 386, 40, -28, 22, -19, -1, 28, 979, 962, 78,≥
2025-03-17 10:41:10.844,643, 570, 604, -5, -1, 6, -21, 3, 24, 981, 969, 175,≥
2025-03-17 10:41:10.901,543, 384, 404, 15, 19, -4, -19, 0, 27, 987, 969, 120,≥
2025-03-17 10:41:10.951,773, 590, 223, -1, 31, 9, -20, -2, 27, 984, 966, 31,≥
2025-03-17 10:41:11.006,822, 534, 444, 18, 2, 3, -21, -1, 24, 981, 963, 16,≥
2025-03-17 10:41:11.070,638, 609, 389, -27, 57, -26, -21, 0, 22, 975, 944, 25,≥
2025-03-17 10:41:11.117,605, 602, 747, 32, -42, 42, -20, 1, 22, 977, 919, 20,≥
2025-03-17 10:41:11.173,865, 1096, 444, 9, -4, 37, -20, 2, 21, 985, 967, 88,≥
2025-03-17 10:41:11.235,760, 307, 311, 10, -2, 22, -20, 2, 24, 987, 971, 343,≥
2025-03-17 10:41:11.295,995, 390, 215, -2, 27, -20, -21, 3, 25, 972, 938, 28,≥
2025-03-17 10:41:11.351,617, 638, 763, -36, 62, -30, -19, 1, 22, 949, 827, 32,≥
2025-03-17 10:41:11.644,750, 537, 393, -4, 0, -3, -19, 2, 22, 950, 887, 22,±
2025-03-17 10:41:11.688,737, 537, 393, -3, 0, -3, -17, 1, 23, 951, 889, 18,±
2025-03-17 10:41:11.753,736, 554, 423, 2, -3, -1, -18, 2, 24, 951, 891, 26,±
2025-03-17 10:41:11.803,756, 546, 393, 4, -3, 0, -19, 1, 22, 952, 901, 29,±
2025-03-17 10:41:11.853,734, 543, 399, -3, 0, -1, -20, -1, 24, 954, 910, 106,±
2025-03-17 10:41:11.918,751, 565, 404, -1, -3, -1, -19, -2, 25, 957, 917, 158,±
2025-03-17 10:41:11.970,760, 547, 388, -1, 1, -1, -19, -1, 24, 957, 925, 171,±
2025-03-17 10:41:12.025,726, 561, 417, -1, -1, 0, -21, 0, 23, 959, 929, 174,±
2025-03-17 10:41:12.086,754, 537, 404, -2, 1, -1, -22, 0, 22, 960, 930, 204,±
2025-03-17 10:41:12.136,736, 548, 410, -3, 2, 1, -20, 2, 22, 959, 930, 168,±
2025-03-17 10:41:12.192,757, 541, 394, -3, -1, -2, -19, -1, 24, 960, 930, 161,±
2025-03-17 10:41:12.252,719, 552, 437, -4, -2, -3, -20, -1, 24, 959, 932, 138,±
2025-03-17 10:41:12.300,751, 519, 384, -3, 4, -5, -19, -1, 25, 959, 931, 105,±
2025-03-17 10:41:12.356,688, 567, 425, -2, -7, -13, -19, 0, 24, 960, 926, 104,±
2025-03-17 10:41:12.417,635, 555, 619, 12, -29, -1, -19, -2, 25, 964, 917, 19,±
2025-03-17 10:41:12.467,947, 634, 131, 11, 0, -2, -20, -1, 27, 979, 960, 28,±
2025-03-17 10:41:12.532,419, 292, 548, 1, 0, 40, -21, -1, 25, 986, 971, 170,±
2025-03-17 10:41:12.585,775, 572, 371, 18, 7, 2, -21, 2, 25, 976, 955, 16,±
2025-03-17 10:41:12.635,720, 634, 440, -14, -5, -42, -20, 1, 24, 970, 940, 159,±
2025-03-17 10:41:12.700,778, 631, 192, 21, -15, 6, -21, -1, 25, 982, 959, 33,±
2025-03-17 10:41:12.751,746, 746, 269, -11, 55, 51, -21, 1, 27, 980, 945, 11,±
2025-03-17 10:41:12.814,395, 616, 697, 25, 22, -20, -20, 0, 24, 971, 904, 25,±
2025-03-17 10:41:12.868,927, 426, 178, 3, -6, -2, -20, 0, 25, 979, 959, 33,±
2025-03-17 10:41:12.917,692, -54, 479, -8, 3, 34, -21, 2, 23, 985, 973, 128,±
2025-03-17 10:41:12.968,928, 178, 195, 0, 39, -42, -20, 2, 25, 975, 951, 24,±
2025-03-17 10:41:13.280,745, 514, 468, -7, -1, -2, -16, 2, 22, 942, 838, 20,∓
2025-03-17 10:41:13.333,739, 505, 468, -6, -2, -3, -16, 2, 22, 943, 841, 27,∓
2025-03-17 10:41:13.395,684, 505, 482, 1, -9, -1, -21, 0, 23, 944, 857, 29,∓
2025-03-17 10:41:13.450,740, 523, 399, -1, -7, 0, -21, 1, 22, 946, 875, 20,∓
2025-03-17 10:41:13.501,745, 536, 421, -6, 0, -3, -21, 1, 22, 949, 885, 31,∓
2025-03-17 10:41:13.551,732, 513, 451, -3, -2, 1, -19, 0, 24, 952, 888, 22,∓
2025-03-17 10:41:13.609,759, 522, 425, -7, 0, -4, -18, 0, 23, 954, 892, 27,∓
2025-03-17 10:41:13.666,721, 552, 445, -6, -3, -1, -21, 1, 24, 954, 897, 21,∓
2025-03-17 10:41:13.718,708, 511, 500, -9, -10, -3, -19, 0, 24, 957, 906, 24,∓
2025-03-17 10:41:13.773,648, 532, 481, 4, -23, -2, -18, -1, 25, 959, 914, 31,∓
2025-03-17 10:41:13.834,839, 413, 210, -25, -7, -17, -22, -1, 27, 971, 938, 20,∓
2025-03-17 10:41:13.895,643, 791, 84, -10, -28, 33, -18, -1, 26, 982, 971, 259,∓
2025-03-17 10:41:13.949,721, 421, 432, 34, 0, 4, -20, 1, 26, 980, 960, 319,∓
2025-03-17 10:41:14.001,844, 505, 150, 15, 56, -2, -22, -1, 24, 963, 911, 25,∓
2025-03-17 10:41:14.051,690, 666, 770, 11, 15, -17, -21, 1, 23, 952, 819, 27,∓
2025-03-17 10:41:14.117,908, 943, 97, -24, -21, 0, -20, 0, 23, 977, 953, 22,∓
2025-03-17 10:41:14.167,669, 263, 422, -4, -1, 27, -22, 1, 24, 983, 970, 294,∓
2025-03-17 10:41:14.217,752, 228, 434, 5, 7, -23, -22, 3, 23, 974, 950, 27,∓
2025-03-17 10:41:14.281,669, 705, 936, 8, -27, 5, -19, -2, 27, 971, 943, 44,∓
2025-03-17 10:41:14.334,1129, 983, 67, 1, 32, 46, -19, -1, 27, 984, 962, 70,∓
2025-03-17 10:41:14.384,755, 536, 479, 17, 31, 15, -22, 0, 26, 978, 908, 18,∓
2025-03-17 10:41:14.449,876, 581, 268, -31, 62, -58, -19, 1, 22, 944, 875, 42,∓
2025-03-17 10:41:14.727,712, 540, 497, -10, 2, -1, -20, 0, 21, 945, 827, 14,∞
2025-03-17 10:41:14.790,704, 521, 498, -9, 0, -1, -19, 0, 21, 945, 829, 22,∞
2025-03-17 10:41:14.843,703, 529, 454, 5, -7, 1, -21, 1, 21, 946, 851, 22,∞
2025-03-17 10:41:14.893,718, 552, 425, 1, -2, 1, -19, -2, 24, 948, 884, 22,∞
2025-03-17 10:41:14.953,719, 567, 444, -1, -3, 2, -18, -2, 23, 951, 897, 20,∞
2025-03-17 10:41:14.999,739, 531, 443, -3, 0, -2, -19, 1, 22, 952, 897, 16,∞
2025-03-17 10:41:15.059,712, 540, 454, 1, -4, 1, -20, 1, 22, 956, 902, 27,∞
2025-03-17 10:41:15.105,734, 553, 475, 7, -12, 3, -18, 0, 22, 958, 909, 27,∞
2025-03-17 10:41:15.166,740, 537, 400, 9, -4, 6, -21, 1, 22, 960, 917, 22,∞
2025-03-17 10:41:15.217,752, 525, 403, 0, -1, -2, -19, -2, 24, 961, 919, 36,∞
2025-03-17 10:41:15.267,727, 548, 447, -3, -5, -4, -20, -1, 24, 961, 923, 26,∞
2025-03-17 10:41:15.329,779, 543, 381, -1, -6, 1, -22, 0, 24, 961, 928, 22,∞
2025-03-17 10:41:15.382,664, 508, 476, 2, -2, 3, -21, 2, 24, 965, 931, 24,∞
2025-03-17 10:41:15.434,770, 546, 332, 10, -7, 6, -20, 1, 23, 966, 932, 35,∞
2025-03-17 10:41:15.484,722, 516, 466, -2, 0, -5, -20, 0, 25, 963, 935, 71,∞
2025-03-17 10:41:15.544,761, 564, 336, -1, -2, -2, -19, 0, 24, 963, 933, 69,∞
2025-03-17 10:41:15.600,785, 530, 443, 8, 0, 8, -19, -1, 24, 965, 932, 65,∞
2025-03-17 10:41:15.650,732, 546, 350, 2, -1, 0, -19, 0, 25, 965, 924, 11,∞
2025-03-17 10:41:15.700,772, 515, 402, 6, 5, 6, -21, 1, 24, 966, 914, 22,∞
2025-03-17 10:41:15.750,740, 548, 400, -4, -3, 2, -19, 0, 25, 968, 920, 25,∞
2025-03-17 10:41:15.817,712, 620, 419, -11, -20, -12, -21, 1, 25, 975, 944, 26,∞
2025-03-17 10:41:15.874,881, 888, 77, -31, 36, 20, -19, 0, 27, 979, 955, 30,∞
2025-03-17 10:41:15.916,618, 480, 43, -31, 28, -15, -21, 1, 24, 976, 946, 15,∞
2025-03-17 10:41:15.983,905, 433, 553, 14, -26, -10, -21, 0, 24, 979, 963, 27,∞
2025-03-17 10:41:16.034,615, 285, 201, -16, 5, 26, -22, 0, 25, 988, 968, 123,∞
2025-03-17 10:41:16.092,668, 424, 627, -13, 3, 7, -22, 1, 26, 985, 967, 37,∞
2025-03-17 10:41:16.150,708, 489, 594, -1, -11, -20, -22, 1, 26, 980, 966, 31,∞
2025-03-17 10:41:16.205,620, 693, 356, 1, 9, 10, -22, 1, 25, 985, 967, 28,∞
2025-03-17 10:41:16.250,844, 655, 216, -11, 16, 3, -21, 1, 23, 983, 958, 14,∞
2025-03-17 10:41:16.316,1020, 286, 379, -3, 31, -39, -19, 0, 26, 964, 921, 29,∞
2025-03-17 10:41:16.366,679, 580, 560, -34, 48, -36, -19, 0, 22, 955, 902, 33,∞
2025-03-17 10:41:16.665,720, 565, 482, 17, -7, -54, -19, -5, 24, 939, 786, 23,∑
2025-03-17 10:41:16.733,715, 578, 466, 15, -8, -57, -16, -3, 22, 936, 781, 18,∑
2025-03-17 10:41:16.792,637, 592, 506, 10, -15, -70, -19, -5, 21, 929, 705, 28,∑
2025-03-17 10:41:16.850,556, 706, 416, 18, -23, -65, -20, -8, 23, 918, 632, 15,∑
2025-03-17 10:41:16.904,518, 749, 455, 29, -19, -11, -19, -9, 26, 922, 663, 32,∑
2025-03-17 10:41:16.964,608, 781, 245, 25, -23, -20, -20, -9, 25, 927, 641, 21,∑
2025-03-17 10:41:17.019,648, 713, 311, 16, -34, -54, -18, -12, 27, 928, 597, 24,∑
2025-03-17 10:41:17.083,500, 837, 317, 5, -7, -4, -18, -13, 28, 927, 538, 26,∑
2025-03-17 10:41:17.135,466, 890, 102, 20, -14, 5, -17, -13, 29, 928, 585, 30,∑
2025-03-17 10:41:17.198,441, 1063, 64, -44, 42, 98, -19, -11, 29, 940, 725, 33,∑
2025-03-17 10:41:17.248,770, 476, 641, -9, 36, 125, -19, -7, 28, 947, 854, 16,∑
2025-03-17 10:41:17.308,685, 761, 206, -9, 18, 49, -19, -5, 25, 957, 907, 20,∑
2025-03-17 10:41:17.365,691, 522, 379, -2, -4, 30, -20, -3, 26, 963, 924, 151,∑
2025-03-17 10:41:17.417,722, 609, 353, -10, 6, 3, -20, -1, 25, 964, 932, 166,∑
2025-03-17 10:41:17.482,1065, 666, 354, -34, -1, -11, -20, -3, 26, 971, 936, 30,∑
2025-03-17 10:41:17.533,1007, 967, 67, 1, -24, 57, -23, 0, 25, 984, 965, 67,∑
2025-03-17 10:41:17.592,594, 397, 507, 22, 14, 11, -23, 0, 24, 981, 960, 149,∑
2025-03-17 10:41:17.648,546, 572, 456, 13, 16, -40, -21, 0, 26, 969, 936, 52,∑
2025-03-17 10:41:17.701,815, 485, 169, 2, 0, -7, -22, -1, 25, 979, 951, 19,∑
2025-03-17 10:41:17.753,946, 358, 340, 0, 4, 26, -20, 0, 27, 984, 967, 19,∑
2025-03-17 10:41:17.800,592, 421, 579, 16, 4, 3, -20, 0, 27, 981, 957, 34,∑
2025-03-17 10:41:17.865,907, 488, 447, 13, 0, -9, -21, 0, 24, 974, 914, 26,∑
2025-03-17 10:41:17.917,434, 556, 629, -19, -6, 48, -19, 0, 26, 983, 964, 82,∑
2025-03-17 10:41:17.967,701, 481, 426, 16, 11, 15, -21, 2, 27, 977, 959, 32,∑
2025-03-17 10:41:18.309,657, 461, 615, -1, -2, -78, -20, -4, 21, 836, 458, 22,∏
2025-03-17 10:41:18.366,638, 492, 612, 12, -6, -79, -19, -4, 21, 815, 411, 13,∏
2025-03-17 10:41:18.416,628, 663, 418, 28, -25, -80, -19, -4, 21, 752, 199, 12,∏
2025-03-17 10:41:18.487,645, 767, 356, -27, -13, -90, -19, -7, 23, 779, 356, 15,∏
2025-03-17 10:41:18.545,500, 804, 499, -37, 0, -92, -17, -8, 17, 773, 498, 103,∏
2025-03-17 10:41:18.599,412, 861, 488, -50, 12, -79, -15, -13, 21, 777, 577, 139,∏
2025-03-17 10:41:18.649,178, 900, 598, 11, 8, 35, -14, -14, 19, 773, 613, 155,∏
2025-03-17 10:41:18.715,130, 786, 539, 3, 40, 164, -17, -11, 18, 799, 644, 25,∏
2025-03-17 10:41:18.765,513, 325, 525, 21, 12, 191, -19, -7, 18, 807, 649, 33,∏
2025-03-17 10:41:18.831,674, 449, 330, 22, 8, 47, -18, -1, 18, 816, 688, 123,∏
2025-03-17 10:41:18.891,683, 432, 701, 23, -37, 36, -17, -2, 20, 853, 769, 156,∏
2025-03-17 10:41:18.941,541, 722, 97, -28, 2, 21, -19, -2, 22, 891, 841, 191,∏
2025-03-17 10:41:18.999,810, 754, 482, 26, -33, 6, -16, -1, 21, 909, 881, 383,∏
2025-03-17 10:41:19.065,567, 529, 482, 10, -14, -25, -19, -2, 25, 920, 875, 362,∏
2025-03-17 10:41:19.115,560, 463, 449, 13, -11, -33, -20, -3, 26, 938, 875, 24,∏
2025-03-17 10:41:19.165,992, 963, 263, -67, -36, 83, -20, -5, 26, 979, 958, 130,∏
2025-03-17 10:41:19.232,506, 395, 566, 0, 12, 32, -19, 0, 25, 975, 954, 270,∏
2025-03-17 10:41:19.292,670, 538, 408, 11, 20, -42, -21, -1, 26, 951, 911, 423,∏
2025-03-17 10:41:19.349,794, 367, 317, -16, -2, -8, -21, -1, 23, 956, 915, 504,∏
2025-03-17 10:41:19.399,726, 662, 389, -8, -11, -7, -22, 0, 24, 975, 942, 245,∏
2025-03-17 10:41:19.467,716, 646, 309, -21, 21, 22, -21, 0, 25, 979, 949, 25,∏
2025-03-17 10:41:19.515,862, 671, 420, 8, 17, 22, -20, 0, 25, 982, 949, 21,∏
2025-03-17 10:41:19.567,747, 603, 280, 0, 35, 16, -20, -1, 25, 973, 929, 21,∏
2025-03-17 10:41:19.632,770, 669, 300, -41, 14, -33, -19, 2, 23, 955, 933, 413,∏
2025-03-17 10:41:19.692,524, 614, 648, -3, -50, 23, -20, -1, 24, 967, 953, 445,∏
2025-03-17 10:41:19.749,757, 430, 328, -5, -10, -5, -21, -1, 25, 982, 964, 198,∏
2025-03-17 10:41:19.798,800, 796, 230, 5, 31, 40, -20, -1, 24, 985, 959, 12,∏
2025-03-17 10:41:19.864,1018, 227, 575, -7, 22, -16, -19, 0, 23, 974, 936, 235,∏
2025-03-17 10:41:19.915,613, 482, 675, -69, 75, -50, -19, -1, 21, 934, 924, 361,∏
2025-03-17 10:41:20.236,691, 548, 508, -3, -2, -2, -17, 1, 21, 930, 855, 49,√
2025-03-17 10:41:20.291,696, 548, 501, -4, -1, -1, -18, 1, 22, 930, 856, 48,√
2025-03-17 10:41:20.347,708, 524, 502, 3, -8, 0, -21, 0, 22, 930, 859, 49,√
2025-03-17 10:41:20.399,726, 538, 438, -4, 0, 0, -20, 3, 19, 933, 859, 19,√
2025-03-17 10:41:20.449,706, 525, 520, -3, -1, -1, -20, 0, 22, 931, 852, 21,√
2025-03-17 10:41:20.503,732, 509, 483, 3, -3, -4, -18, 0, 22, 929, 851, 63,√
2025-03-17 10:41:20.563,710, 533, 484, 6, -7, -1, -20, 1, 21, 932, 863, 138,√
2025-03-17 10:41:20.618,721, 536, 496, 13, -8, -1, -20, 1, 21, 941, 894, 290,√
2025-03-17 10:41:20.666,705, 547, 435, 10, -2, -1, -17, -3, 22, 949, 910, 413,√
2025-03-17 10:41:20.732,737, 545, 442, 5, -5, 1, -20, 0, 22, 951, 921, 445,√
2025-03-17 10:41:20.782,721, 517, 462, 2, -1, -3, -21, 0, 21, 953, 925, 460,√
2025-03-17 10:41:20.842,693, 538, 490, 6, 2, -5, -21, 1, 22, 953, 926, 456,√
2025-03-17 10:41:20.895,650, 524, 405, 3, 5, -6, -18, -2, 25, 954, 921, 448,√
2025-03-17 10:41:20.952,685, 562, 480, 11, 6, -4, -17, 0, 22, 954, 904, 413,√
2025-03-17 10:41:20.998,807, 611, 175, 0, -9, -6, -20, -1, 23, 968, 932, 302,√
2025-03-17 10:41:21.063,666, 530, 573, 0, 1, 26, -21, 0, 25, 975, 955, 530,√
2025-03-17 10:41:21.116,994, 449, 142, 48, 10, 17, -19, -1, 22, 980, 945, 365,√
2025-03-17 10:41:21.165,794, 717, 291, -53, 21, 26, -18, -1, 22, 978, 954, 28,√
2025-03-17 10:41:21.232,1318, 725, 791, -8, -66, -51, -20, 1, 23, 972, 965, 245,√
2025-03-17 10:41:21.291,714, 720, 391, 20, -44, -12, -20, 0, 24, 984, 969, 210,√
2025-03-17 10:41:21.350,661, 399, 403, 6, 15, 19, -21, 0, 26, 984, 969, 385,√
2025-03-17 10:41:21.399,808, 485, 209, 2, 36, -25, -22, 1, 24, 969, 951, 495,√
2025-03-17 10:41:21.698,733, 571, 434, 2, 7, 1, -21, -1, 23, 936, 833, 337,∛
2025-03-17 10:41:21.748,736, 573, 427, 1, 5, 0, -20, -2, 22, 936, 833, 336,∛
2025-03-17 10:41:21.817,689, 577, 465, 0, 4, 2, -19, -1, 24, 936, 846, 359,∛
2025-03-17 10:41:21.868,725, 602, 378, 4, 0, 0, -21, -1, 22, 935, 849, 360,∛
2025-03-17 10:41:21.916,673, 609, 446, -1, 2, -1, -20, -2, 22, 935, 851, 360,∛
2025-03-17 10:41:21.981,657, 569, 472, 7, -11, 2, -21, 0, 23, 937, 859, 299,∛
2025-03-17 10:41:22.033,794, 525, 337, 3, 2, -10, -20, -2, 25, 959, 918, 24,∛
2025-03-17 10:41:22.092,694, 471, 531, -6, -9, 15, -20, 0, 24, 970, 949, 342,∛
2025-03-17 10:41:22.149,676, 812, 145, -12, 23, 40, -17, 1, 23, 978, 946, 28,∛
2025-03-17 10:41:22.199,768, 709, 160, -54, 31, 31, -18, -2, 24, 977, 957, 16,∛
2025-03-17 10:41:22.264,728, 713, 744, 5, -68, -57, -20, -1, 23, 971, 966, 117,∛
2025-03-17 10:41:22.316,613, 516, 50, 13, -42, 26, -21, -2, 26, 982, 970, 32,∛
2025-03-17 10:41:22.366,632, 509, 423, 0, 24, 20, -20, -1, 26, 982, 965, 280,∛
2025-03-17 10:41:22.432,592, 613, 280, 12, 38, -79, -22, 0, 25, 965, 949, 464,∛
2025-03-17 10:41:22.482,607, 730, 689, 20, -50, 9, -19, -5, 27, 960, 934, 542,∛
2025-03-17 10:41:22.546,765, 639, 109, -1, 7, -8, -19, -5, 25, 975, 960, 476,∛
2025-03-17 10:41:22.600,600, 603, 469, 9, 1, 7, -19, -3, 25, 978, 961, 593,∛
2025-03-17 10:41:22.651,744, 515, 267, 2, 6, 4, -18, -4, 27, 976, 958, 588,∛
2025-03-17 10:41:22.701,578, 553, 561, -8, 6, 3, -21, -2, 24, 978, 962, 527,∛
2025-03-17 10:41:22.764,668, 492, 421, -4, 1, -2, -20, 0, 23, 981, 962, 385,∛
2025-03-17 10:41:22.818,744, 576, 398, 16, 21, 1, -19, -3, 26, 967, 935, 409,∛
2025-03-17 10:41:22.868,582, 560, 487, -27, 43, -23, -17, -2, 24, 961, 935, 445,∛
2025-03-17 10:41:22.933,561, 648, 518, 12, -20, 13, -18, -3, 23, 958, 930, 441,∛
2025-03-17 10:41:22.994,828, 570, 287, 6, -7, 3, -20, -1, 23, 952, 920, 444,∛
2025-03-17 10:41:23.263,687, 585, 436, 4, 3, 3, -18, -2, 23, 940, 883, 402,∜
2025-03-17 10:41:23.315,701, 577, 418, 4, 3, 2, -22, -1, 22, 940, 881, 398,∜
2025-03-17 10:41:23.366,671, 620, 461, 2, 5, 2, -19, -3, 21, 941, 878, 398,∜
2025-03-17 10:41:23.421,668, 556, 475, 5, -9, 7, -21, -3, 22, 944, 880, 378,∜
2025-03-17 10:41:23.481,709, 519, 274, -1, -4, -11, -19, -2, 24, 952, 896, 264,∜
2025-03-17 10:41:23.540,841, 547, 516, 13, 2, 2, -19, -2, 23, 967, 939, 247,∜
2025-03-17 10:41:23.591,647, 577, 583, 14, 11, 36, -19, 0, 22, 979, 954, 329,∜
2025-03-17 10:41:23.648,745, 531, 279, -27, 20, 26, -19, 0, 23, 981, 951, 30,∜
2025-03-17 10:41:23.700,289, -88, 205, -44, -35, -32, -20, 2, 21, 976, 966, 23,∜
2025-03-17 10:41:23.765,593, 249, 521, 3, -51, -24, -20, 0, 23, 975, 971, 29,∜
2025-03-17 10:41:23.817,654, 625, -65, 2, -11, 24, -17, 0, 25, 981, 971, 40,∜
2025-03-17 10:41:23.866,788, 407, 452, 14, 12, -8, -21, 1, 24, 969, 957, 206,∜
2025-03-17 10:41:23.934,488, 586, 606, -6, 32, -65, -21, -1, 24, 954, 935, 459,∜
2025-03-17 10:41:23.996,631, 594, 512, 26, -58, 12, -21, -2, 24, 962, 932, 450,∜
2025-03-17 10:41:24.048,726, 593, 498, -7, 2, -5, -20, -2, 25, 976, 961, 330,∜
2025-03-17 10:41:24.099,650, 556, 380, 24, -20, -12, -21, 0, 25, 982, 957, 319,∜
2025-03-17 10:41:24.164,850, 772, -7, 12, 17, 3, -21, -3, 25, 981, 945, 21,∜
2025-03-17 10:41:24.214,814, 406, 316, -8, 4, 33, -18, -3, 26, 983, 970, 377,∜
2025-03-17 10:41:24.265,650, 660, 528, -14, 1, 9, -21, -1, 24, 974, 963, 634,∜
2025-03-17 10:41:24.332,565, 666, 667, 16, -19, 5, -20, -1, 25, 970, 953, 701,∜
2025-03-17 10:41:24.382,869, 568, 251, -10, 10, 10, -20, -4, 26, 987, 965, 533,∜
2025-03-17 10:41:24.447,681, 494, 487, 9, 26, 22, -20, -3, 25, 981, 938, 608,∜
2025-03-17 10:41:24.497,760, 544, 272, -60, 70, -57, -18, -4, 24, 939, 911, 527,∜
2025-03-17 10:41:24.564,381, 555, 845, -9, -12, -2, -18, -4, 21, 930, 921, 429,∜
2025-03-17 10:41:24.857,673, 581, 451, 6, -6, 5, -18, -3, 23, 937, 874, 392,∫
2025-03-17 10:41:24.902,685, 591, 450, 6, -6, 5, -18, -2, 24, 937, 873, 401,∫
2025-03-17 10:41:24.966,724, 583, 424, -1, 1, 4, -21, -2, 23, 939, 880, 411,∫
2025-03-17 10:41:25.016,680, 600, 454, -5, 0, 3, -18, -3, 24, 942, 893, 413,∫
2025-03-17 10:41:25.065,702, 561, 450, -1, -1, 2, -19, -1, 24, 948, 897, 409,∫
2025-03-17 10:41:25.131,699, 565, 440, -6, 3, -2, -19, -1, 22, 949, 893, 393,∫
2025-03-17 10:41:25.181,670, 594, 459, 6, -2, 5, -20, -3, 23, 950, 876, 403,∫
2025-03-17 10:41:25.241,740, 550, 436, 7, -3, 7, -19, -1, 22, 954, 880, 418,∫
2025-03-17 10:41:25.298,681, 577, 458, 4, 3, 4, -19, -1, 22, 953, 878, 425,∫
2025-03-17 10:41:25.349,734, 581, 405, 4, -2, 3, -20, -1, 22, 954, 888, 437,∫
2025-03-17 10:41:25.398,669, 578, 500, -5, 4, 3, -19, 1, 22, 958, 886, 423,∫
2025-03-17 10:41:25.462,731, 536, 414, -3, -1, -3, -19, -2, 23, 958, 889, 410,∫
2025-03-17 10:41:25.519,733, 578, 412, -7, 1, -1, -19, 0, 24, 959, 896, 409,∫
2025-03-17 10:41:25.565,689, 572, 461, 4, -3, 3, -20, 0, 24, 960, 894, 396,∫
2025-03-17 10:41:25.619,774, 572, 389, -3, -5, 4, -19, -2, 21, 960, 902, 447,∫
2025-03-17 10:41:25.683,689, 588, 487, 5, -18, 10, -18, -3, 25, 962, 902, 459,∫
2025-03-17 10:41:25.740,664, 525, 367, 0, -23, 9, -21, -2, 24, 967, 925, 436,∫
2025-03-17 10:41:25.798,714, 467, 457, -24, -8, -5, -20, -1, 24, 972, 947, 292,∫
2025-03-17 10:41:25.848,632, 487, 528, 19, -15, -23, -21, 1, 23, 978, 951, 106,∫
2025-03-17 10:41:25.913,621, 452, 204, 32, 31, 5, -21, -2, 24, 983, 955, 21,∫
2025-03-17 10:41:25.965,596, 945, 521, -17, 38, 16, -21, 0, 24, 985, 958, 23,∫
2025-03-17 10:41:26.021,862, 620, 236, 35, 21, 3, -18, 2, 22, 968, 928, 12,∫
2025-03-17 10:41:26.081,791, 685, 177, -71, 75, -40, -18, -1, 22, 941, 924, 266,∫
2025-03-17 10:41:26.357,713, 548, 462, -6, -7, -3, -19, 2, 18, 941, 903, 266,∮
2025-03-17 10:41:26.413,718, 544, 487, -3, -6, -3, -19, 2, 18, 944, 906, 282,∮
2025-03-17 10:41:26.466,709, 570, 441, -4, -4, 0, -20, 1, 23, 947, 910, 322,∮
2025-03-17 10:41:26.523,709, 557, 450, -4, -6, 4, -21, -1, 21, 948, 920, 329,∮
2025-03-17 10:41:26.580,738, 552, 415, -4, 0, 1, -20, 0, 22, 951, 924, 350,∮
2025-03-17 10:41:26.631,685, 558, 500, -1, 0, 4, -19, 0, 24, 954, 929, 375,∮
2025-03-17 10:41:26.680,741, 536, 424, 0, -5, 2, -21, 3, 21, 956, 930, 393,∮
2025-03-17 10:41:26.740,719, 550, 440, -1, 0, -2, -20, 0, 24, 957, 933, 414,∮
2025-03-17 10:41:26.797,694, 555, 449, 0, -3, -5, -19, -1, 24, 954, 928, 418,∮
2025-03-17 10:41:26.848,725, 545, 459, -4, -3, -2, -20, 1, 22, 954, 927, 421,∮
2025-03-17 10:41:26.898,704, 557, 483, -5, 2, -2, -20, 1, 21, 956, 932, 411,∮
2025-03-17 10:41:26.965,745, 549, 388, 13, -4, 5, -20, 0, 22, 960, 934, 423,∮
2025-03-17 10:41:27.024,633, 540, 485, 23, -25, 13, -20, -1, 23, 964, 935, 425,∮
2025-03-17 10:41:27.081,730, 548, 252, -19, -1, -4, -21, -1, 24, 967, 947, 295,∮
2025-03-17 10:41:27.131,891, 392, 721, 6, -15, -25, -19, -2, 23, 973, 954, 29,∮
2025-03-17 10:41:27.195,859, 791, -83, 19, 46, 37, -20, -2, 25, 983, 949, 26,∮
2025-03-17 10:41:27.247,618, 448, 442, -11, 27, 38, -18, 1, 24, 981, 956, 28,∮
2025-03-17 10:41:27.298,612, 602, 588, 7, -33, -33, -21, 1, 22, 970, 959, 431,∮
2025-03-17 10:41:27.364,870, 796, 434, -14, -13, 15, -19, -3, 23, 981, 967, 257,∮
2025-03-17 10:41:27.415,745, 643, 478, -28, 14, 26, -18, 0, 25, 988, 965, 18,∮
2025-03-17 10:41:27.478,626, 440, 132, -26, 41, 6, -20, 1, 25, 978, 940, 28,∮
2025-03-17 10:41:27.532,787, 660, 292, -47, 21, -34, -19, 0, 23, 961, 941, 26,∮
2025-03-17 10:41:27.590,365, 579, 751, 1, -47, 6, -20, 1, 22, 970, 955, 244,∮
2025-03-17 10:41:27.647,778, 639, 319, -6, -10, -16, -20, 0, 24, 975, 960, 32,∮
2025-03-17 10:41:27.698,973, 527, 520, -19, 50, 69, -20, 0, 23, 985, 962, 31,∮
2025-03-17 10:41:27.748,673, 286, 384, 29, 24, 18, -20, 1, 24, 986, 959, 23,∮
2025-03-17 10:41:27.814,756, 449, 362, 49, 31, -2, -20, 2, 22, 963, 900, 23,∮
2025-03-17 10:41:27.864,817, 561, 242, -45, 70, -55, -21, 2, 20, 908, 873, 25,∮
2025-03-17 10:41:27.928,343, 608, 964, -15, -5, -7, -17, 0, 18, 917, 875, 27,∮
2025-03-17 10:41:28.191,680, 532, 532, 1, -3, -1, -19, 0, 21, 931, 850, 26,∂
2025-03-17 10:41:28.247,678, 540, 513, 1, -4, -1, -18, -1, 19, 930, 852, 25,∂
2025-03-17 10:41:28.301,704, 531, 486, -4, -3, 0, -20, 1, 21, 932, 855, 15,∂
2025-03-17 10:41:28.352,706, 526, 497, -10, -1, 0, -18, 0, 22, 935, 863, 23,∂
2025-03-17 10:41:28.412,705, 528, 494, -3, -1, 3, -17, 0, 21, 940, 868, 12,∂
2025-03-17 10:41:28.464,693, 506, 521, -8, 1, 0, -18, 0, 22, 940, 870, 20,∂
2025-03-17 10:41:28.521,717, 507, 476, -3, -3, 0, -19, -1, 23, 943, 876, 14,∂
2025-03-17 10:41:28.568,709, 533, 505, 0, 0, 0, -19, 1, 21, 944, 875, 21,∂
2025-03-17 10:41:28.629,715, 526, 504, -1, -1, 4, -19, 1, 20, 942, 873, 15,∂
2025-03-17 10:41:28.681,711, 524, 492, 1, -7, -2, -19, 0, 22, 944, 880, 27,∂
2025-03-17 10:41:28.735,765, 489, 454, 20, -6, 3, -17, 2, 23, 941, 888, 19,∂
2025-03-17 10:41:28.781,670, 530, 485, 4, -1, -6, -20, 1, 21, 937, 890, 228,∂
2025-03-17 10:41:28.846,623, 536, 525, 7, -15, -11, -20, 0, 22, 935, 882, 196,∂
2025-03-17 10:41:28.898,2033, 354, -2, -14, -11, -26, -20, -1, 22, 948, 914, 17,∂
2025-03-17 10:41:28.961,811, 702, 344, 3, -8, 26, -21, 0, 22, 975, 950, 204,∂
2025-03-17 10:41:29.014,746, 987, 210, 9, 25, 28, -19, 0, 22, 979, 948, 23,∂
2025-03-17 10:41:29.064,462, 367, 322, -11, 21, -10, -19, -1, 23, 975, 928, 20,∂
2025-03-17 10:41:29.131,1047, 372, 441, 4, -22, -17, -19, 0, 22, 978, 960, 26,∂
2025-03-17 10:41:29.181,632, 341, 316, -2, -16, 17, -21, 0, 22, 985, 971, 22,∂
2025-03-17 10:41:29.241,859, 304, 279, -15, 29, -27, -18, 0, 22, 975, 956, 330,∂
2025-03-17 10:41:29.540,690, 555, 497, 7, -5, 5, -19, 0, 21, 944, 879, 180,∇
2025-03-17 10:41:29.598,694, 577, 485, 6, -6, 6, -20, -1, 20, 945, 883, 198,∇
2025-03-17 10:41:29.662,708, 546, 448, 0, -3, 3, -18, -2, 21, 947, 900, 318,∇
2025-03-17 10:41:29.715,710, 554, 461, -4, -8, 1, -20, -2, 23, 948, 907, 335,∇
2025-03-17 10:41:29.765,718, 553, 446, -1, -3, 1, -18, -1, 21, 949, 910, 324,∇
2025-03-17 10:41:29.829,711, 532, 477, 0, 0, 2, -20, -1, 21, 951, 910, 294,∇
2025-03-17 10:41:29.882,709, 528, 478, 1, -3, 1, -19, 1, 21, 951, 915, 293,∇
2025-03-17 10:41:29.932,722, 529, 468, -2, -4, 1, -20, 0, 23, 952, 920, 290,∇
2025-03-17 10:41:29.992,712, 536, 459, -2, 1, -2, -20, 1, 22, 954, 919, 273,∇
2025-03-17 10:41:30.047,712, 534, 449, -5, -4, -2, -19, -1, 23, 953, 919, 235,∇
2025-03-17 10:41:30.098,720, 531, 421, 2, -4, -1, -19, -1, 22, 953, 921, 265,∇
2025-03-17 10:41:30.161,676, 528, 514, 3, -1, -3, -18, -1, 23, 953, 919, 260,∇
2025-03-17 10:41:30.215,612, 536, 491, 20, -14, -3, -18, -1, 22, 956, 920, 245,∇
2025-03-17 10:41:30.265,882, 380, 342, 13, -7, -5, -20, 0, 25, 975, 952, 23,∇
2025-03-17 10:41:30.329,845, 306, 430, 7, -6, 29, -21, 0, 22, 983, 963, 27,∇
2025-03-17 10:41:30.382,679, 549, 644, 17, -16, -2, -22, 0, 23, 984, 962, 44,∇
2025-03-17 10:41:30.432,312, 791, 217, 8, 32, 6, -17, -4, 25, 985, 954, 18,∇
2025-03-17 10:41:30.491,863, 706, 341, -1, 52, 18, -20, 2, 22, 978, 929, 26,∇
2025-03-17 10:41:30.548,479, 585, 651, 10, -32, -84, -19, 2, 21, 944, 900, 411,∇
2025-03-17 10:41:30.611,764, 499, 827, -37, -21, -8, -19, 1, 21, 974, 949, 183,∇
2025-03-17 10:41:30.664,628, 614, -63, -18, 44, 84, -22, 4, 22, 987, 959, 16,∇
2025-03-17 10:41:30.720,658, 230, 637, 28, 18, 16, -19, 0, 23, 978, 944, 162,∇
2025-03-17 10:41:30.779,810, 496, 363, -10, 47, -59, -19, 1, 21, 918, 871, 385,∇
2025-03-17 10:41:31.073,726, 523, 462, -5, -2, -1, -20, 1, 22, 931, 867, 186,∆
2025-03-17 10:41:31.128,717, 508, 467, -5, -1, -2, -19, 1, 21, 933, 869, 187,∆
2025-03-17 10:41:31.180,706, 551, 512, 3, -12, -4, -19, -1, 21, 934, 876, 218,∆
2025-03-17 10:41:31.238,719, 548, 467, 2, -13, -2, -18, 1, 23, 940, 892, 240,∆
2025-03-17 10:41:31.295,722, 522, 456, 7, -13, 0, -20, 1, 22, 944, 901, 260,∆
2025-03-17 10:41:31.347,690, 533, 415, 8, -13, 8, -20, 1, 24, 951, 908, 238,∆
2025-03-17 10:41:31.396,752, 529, 366, 0, -7, 1, -20, -2, 24, 955, 919, 242,∆
2025-03-17 10:41:31.462,740, 523, 418, -10, -1, -5, -19, 0, 24, 964, 939, 34,∆
2025-03-17 10:41:31.513,720, 547, 464, -4, -13, -7, -19, 0, 24, 975, 952, 20,∆
2025-03-17 10:41:31.566,724, 929, 250, 9, 21, -6, -19, 1, 24, 979, 939, 18,∆
2025-03-17 10:41:31.630,798, 641, 255, -15, 12, 5, -20, -1, 24, 977, 930, 22,∆
2025-03-17 10:41:31.681,668, 957, 784, -58, -11, 55, -19, 1, 23, 985, 965, 24,∆
2025-03-17 10:41:31.738,658, 276, 337, 0, 4, 13, -20, 2, 23, 985, 967, 21,∆
2025-03-17 10:41:31.795,864, 168, 283, 5, 3, -60, -21, 1, 24, 970, 949, 410,∆
2025-03-17 10:41:31.846,617, 737, 1122, 15, -41, 3, -18, -2, 23, 963, 931, 407,∆
2025-03-17 10:41:31.896,898, 858, -124, -19, 20, 32, -20, -2, 25, 985, 961, 18,∆
2025-03-17 10:41:31.963,577, 31, 659, -18, 41, 56, -19, 0, 24, 984, 957, 24,∆
2025-03-17 10:41:32.019,895, 162, 270, -10, 44, -48, -18, 1, 23, 962, 899, 115,∆
2025-03-17 10:41:32.080,550, 472, 792, -27, 27, -32, -19, 0, 20, 918, 861, 247,∆
2025-03-17 10:41:32.348,693, 527, 531, -5, -1, 1, -20, 1, 19, 933, 837, 28,π
2025-03-17 10:41:32.399,700, 510, 521, -5, -2, 0, -18, -1, 19, 934, 837, 28,π
