Timestamp,Acc_X,Acc_Y,Acc_Z,Gyro_X,Gyro_Y,Gyro_Z,Mag_X,Mag_Y,Mag_Z,Force1,Force2,Force3,Letter
2025-03-18 12:21:22.127,455, 729, 560, -26, 2, -13, 7, -1, -7, 52, 46, 54,noise
2025-03-18 12:21:22.128,428, 686, 600, -14, 5, -11, 5, 1, -9, 52, 47, 44,noise
2025-03-18 12:21:22.130,455, 729, 560, -26, 2, -13, 7, -1, -7, 52, 46, 54,noise
2025-03-18 12:21:22.132,428, 686, 600, -14, 5, -11, 5, 1, -9, 52, 47, 44,noise
2025-03-18 12:21:29.033,467, 817, 341, -5, -10, -1, 1, -7, 13, 31, 593, 243,A
2025-03-18 12:21:29.090,455, 827, 342, -7, -8, -1, 3, -7, 14, 39, 602, 235,A
2025-03-18 12:21:29.144,507, 815, 341, 16, 1, -1, 2, -7, 13, 51, 619, 228,A
2025-03-18 12:21:29.197,481, 787, 401, -16, 0, 0, 1, -6, 11, 14, 622, 202,A
2025-03-18 12:21:29.251,440, 814, 445, -11, 3, 17, 2, -7, 13, 285, 659, 214,A
2025-03-18 12:21:29.304,462, 756, 458, 6, -5, 32, 0, -5, 12, 457, 633, 202,A
2025-03-18 12:21:29.357,607, 737, 340, 6, -5, 9, 0, -5, 13, 522, 602, 230,A
2025-03-18 12:21:29.415,564, 773, 352, -22, 6, -7, 1, -6, 14, 550, 587, 223,A
2025-03-18 12:21:29.468,516, 764, 447, -41, 13, -2, 1, -5, 12, 749, 688, 423,A
2025-03-18 12:21:29.525,487, 749, 537, -24, 3, -8, 1, -4, 10, 841, 711, 483,A
2025-03-18 12:21:29.578,438, 682, 493, -30, -8, 3, 1, -3, 11, 867, 696, 505,A
2025-03-18 12:21:29.635,533, 732, 503, -3, -18, 14, 2, -4, 13, 894, 711, 540,A
2025-03-18 12:21:29.693,605, 750, 483, -38, -16, 22, 1, -3, 14, 923, 777, 593,A
2025-03-18 12:21:29.750,542, 622, 562, -56, -29, 18, -1, -2, 13, 937, 834, 627,A
2025-03-18 12:21:29.807,530, 618, 557, -6, -31, 29, -1, -1, 15, 950, 879, 634,A
2025-03-18 12:21:29.865,592, 626, 461, 19, -28, 31, -2, -1, 17, 953, 894, 627,A
2025-03-18 12:21:29.922,683, 636, 429, 20, -28, 23, -4, 1, 17, 957, 896, 640,A
2025-03-18 12:21:29.976,645, 621, 402, -2, -38, 2, -4, -1, 17, 958, 904, 680,A
2025-03-18 12:21:30.032,702, 625, 450, -8, -34, 12, -3, -1, 22, 963, 913, 713,A
2025-03-18 12:21:30.090,650, 529, 360, 84, 1, -35, -4, -2, 23, 973, 900, 586,A
2025-03-18 12:21:30.143,865, 932, -200, 0, 62, 41, -5, 1, 22, 973, 861, 94,A
2025-03-18 12:21:30.201,739, 65, 632, -60, -17, -31, -4, 1, 19, 956, 890, 437,A
2025-03-18 12:21:30.258,612, 381, 776, -6, -18, 25, -5, 0, 22, 972, 921, 604,A
2025-03-18 12:21:30.311,736, 805, 101, -14, 51, 63, -5, 0, 23, 978, 908, 24,A
2025-03-18 12:21:30.368,582, 329, 445, -28, 37, -9, -3, 3, 20, 965, 883, 48,A
2025-03-18 12:21:30.426,1128, 546, 486, 23, -30, -32, -3, 1, 20, 967, 874, 149,A
2025-03-18 12:21:30.483,784, 769, 147, -30, -14, 53, -5, 2, 21, 981, 931, 457,A
2025-03-18 12:21:30.540,947, 300, 114, -36, 75, -47, -5, 3, 19, 968, 921, 363,A
2025-03-18 12:21:30.598,521, 494, 440, -93, 137, -95, -2, 2, 15, 926, 846, 465,A
2025-03-18 12:21:30.651,390, 614, 869, -40, 59, -51, 1, 2, 7, 896, 791, 497,A
2025-03-18 12:21:31.146,670, 655, 389, -2, -1, -1, -3, -2, 18, 911, 767, 492,B
2025-03-18 12:21:31.204,656, 649, 386, -3, 0, -3, -3, -2, 18, 910, 772, 500,B
2025-03-18 12:21:31.258,650, 666, 435, -3, 1, -9, -4, -1, 18, 908, 767, 495,B
2025-03-18 12:21:31.315,699, 684, 287, -13, 18, -36, -4, -1, 17, 897, 739, 456,B
2025-03-18 12:21:31.376,632, 720, 614, -22, -4, -40, -3, -2, 16, 901, 753, 464,B
2025-03-18 12:21:31.430,335, 745, 501, -36, 6, 22, -1, -3, 16, 926, 828, 381,B
2025-03-18 12:21:31.486,487, 647, 595, 6, -18, 68, -2, 0, 16, 943, 859, 431,B
2025-03-18 12:21:31.539,648, 640, 323, 6, -24, 38, -3, 0, 17, 951, 873, 534,B
2025-03-18 12:21:31.597,875, 480, 401, -8, -37, 21, -3, -1, 20, 959, 897, 635,B
2025-03-18 12:21:31.654,635, 829, 242, 73, 24, 11, -5, 0, 21, 979, 907, 538,B
2025-03-18 12:21:31.707,680, 531, 336, -13, 25, 29, -2, 0, 20, 977, 894, 38,B
2025-03-18 12:21:31.765,663, 226, 682, 36, -49, -59, -2, 0, 20, 961, 888, 494,B
2025-03-18 12:21:31.823,685, 508, 521, -25, -21, 3, -4, 2, 19, 973, 919, 602,B
2025-03-18 12:21:31.876,661, 728, 375, 7, 7, 21, -6, 2, 19, 977, 918, 507,B
2025-03-18 12:21:31.930,879, 693, 144, -1, 13, 17, -3, 1, 19, 979, 915, 263,B
2025-03-18 12:21:31.983,569, 557, 687, -7, 8, 6, -3, 3, 21, 978, 913, 40,B
2025-03-18 12:21:32.036,775, 664, 169, 27, 19, 4, -5, 1, 20, 969, 883, 24,B
2025-03-18 12:21:32.093,793, 416, 331, -44, 45, -55, -3, 3, 17, 953, 866, 276,B
2025-03-18 12:21:32.150,434, 566, 778, -31, -23, -9, -3, 1, 16, 951, 878, 280,B
2025-03-18 12:21:32.405,604, 564, 556, -18, 0, 1, -4, 1, 17, 953, 863, 137,C
2025-03-18 12:21:32.458,610, 572, 585, -13, -4, 5, -2, 1, 18, 953, 865, 144,C
2025-03-18 12:21:32.515,624, 577, 529, 11, -28, 18, -5, 3, 17, 957, 882, 270,C
2025-03-18 12:21:32.568,758, 524, 406, 5, -16, 2, -3, 2, 19, 960, 901, 397,C
2025-03-18 12:21:32.626,701, 465, 589, 19, -2, -15, -4, 5, 20, 966, 902, 314,C
2025-03-18 12:21:32.679,939, 544, 329, 88, 21, -5, -4, 0, 21, 974, 888, 43,C
2025-03-18 12:21:32.728,703, 343, 2, 16, 42, 62, -4, 3, 20, 979, 907, 31,C
2025-03-18 12:21:32.785,606, 354, 655, 10, -12, 9, -3, 3, 18, 972, 921, 86,C
2025-03-18 12:21:32.843,742, 651, 280, -17, 43, -38, -4, 3, 17, 944, 898, 552,C
2025-03-18 12:21:32.901,592, 550, 623, -16, 10, -12, -3, 3, 14, 939, 868, 510,C
2025-03-18 12:21:33.154,650, 570, 490, -10, -14, 2, -2, 2, 18, 941, 845, 461,D
2025-03-18 12:21:33.211,647, 559, 500, -10, -16, 2, -2, 2, 18, 942, 847, 460,D
2025-03-18 12:21:33.269,694, 547, 580, -2, -24, 12, -2, 2, 19, 953, 886, 363,D
2025-03-18 12:21:33.321,954, 637, 536, 35, 20, 20, -2, 2, 20, 971, 904, 39,D
2025-03-18 12:21:33.379,464, 600, 326, -13, 34, 43, -2, 3, 17, 974, 888, 21,D
2025-03-18 12:21:33.432,636, 381, 601, -4, 5, -10, -3, 5, 17, 946, 855, 52,D
2025-03-18 12:21:33.490,731, 972, 418, 15, -62, -47, -2, 2, 17, 934, 899, 494,D
2025-03-18 12:21:33.542,597, 534, 570, -3, -29, 7, -5, 2, 20, 976, 923, 271,D
2025-03-18 12:21:33.595,726, 526, 404, -7, 41, 38, -4, 4, 17, 978, 916, 55,D
2025-03-18 12:21:33.649,731, 511, 316, -29, 33, 8, -3, 4, 19, 957, 839, 34,D
2025-03-18 12:21:33.706,720, 546, 510, -15, 33, -51, -3, 2, 16, 926, 823, 54,D
2025-03-18 12:21:34.018,675, 541, 506, -3, -8, -3, -4, 3, 16, 934, 835, 59,E
2025-03-18 12:21:34.076,671, 540, 486, -5, -8, -4, -4, 3, 17, 934, 836, 51,E
2025-03-18 12:21:34.129,656, 532, 596, -1, -17, -1, -2, 3, 18, 939, 846, 88,E
2025-03-18 12:21:34.186,679, 444, 554, 21, -19, -24, -4, 1, 19, 962, 878, 41,E
2025-03-18 12:21:34.239,724, 472, 473, 9, 47, 40, -3, 1, 18, 976, 876, 39,E
2025-03-18 12:21:34.292,681, 600, 318, -3, 14, 16, -3, 4, 18, 967, 844, 37,E
2025-03-18 12:21:34.350,627, 520, 612, 30, -48, -53, -2, 2, 19, 943, 851, 251,E
2025-03-18 12:21:34.408,753, 726, 331, 25, -22, -8, -3, 0, 21, 970, 920, 481,E
2025-03-18 12:21:34.461,694, 577, 480, 12, 4, 21, -2, 2, 22, 968, 915, 584,E
2025-03-18 12:21:34.514,591, 501, 428, 20, 34, -9, -3, 4, 21, 946, 860, 515,E
2025-03-18 12:21:34.571,794, 210, 211, -5, -6, -15, -4, 1, 19, 966, 863, 40,E
2025-03-18 12:21:34.625,749, 479, 406, 8, 9, 25, -5, 1, 20, 973, 904, 113,E
2025-03-18 12:21:34.678,501, 447, 455, 23, 50, -14, -3, 3, 18, 944, 761, 153,E
2025-03-18 12:21:34.735,1746, 369, 124, 26, -9, -11, -3, 2, 17, 962, 814, 41,E
2025-03-18 12:21:34.788,791, 510, 386, -21, 2, 38, -3, 3, 16, 965, 896, 28,E
2025-03-18 12:21:34.846,664, 459, 281, -28, 46, -54, -2, 3, 18, 915, 820, 250,E
2025-03-18 12:21:35.140,657, 576, 490, -8, -14, -1, -2, 3, 18, 927, 824, 374,F
2025-03-18 12:21:35.194,670, 584, 508, -8, -17, 0, -3, 2, 18, 927, 829, 403,F
2025-03-18 12:21:35.247,691, 552, 480, -5, -19, 6, -4, 1, 19, 936, 867, 462,F
2025-03-18 12:21:35.303,695, 391, 531, 20, -6, -8, -2, 1, 19, 964, 886, 318,F
2025-03-18 12:21:35.357,423, 622, 468, 21, 55, 46, -4, 1, 19, 972, 850, 50,F
2025-03-18 12:21:35.414,707, 612, 255, -21, 21, 18, -2, 3, 18, 962, 815, 52,F
2025-03-18 12:21:35.468,599, 598, 538, 3, -50, -77, -3, 3, 17, 921, 834, 280,F
2025-03-18 12:21:35.525,837, 505, 760, 12, -24, -6, -5, 3, 19, 966, 911, 332,F
2025-03-18 12:21:35.578,636, 674, 271, -1, 2, 36, -5, 2, 21, 974, 924, 396,F
2025-03-18 12:21:35.636,496, 400, 477, 35, 47, -21, -4, 3, 19, 950, 875, 336,F
2025-03-18 12:21:35.693,1022, -277, 4, -57, -2, -18, -5, 2, 18, 967, 845, 35,F
2025-03-18 12:21:35.747,609, 505, 402, -23, 3, 33, -3, 1, 20, 976, 917, 44,F
2025-03-18 12:21:35.803,784, 294, 295, -12, 51, -45, -4, 0, 20, 944, 874, 222,F
2025-03-18 12:21:36.091,625, 583, 517, -4, -24, 16, -3, 3, 18, 934, 862, 421,G
2025-03-18 12:21:36.148,626, 555, 526, -1, -25, 16, -4, 1, 17, 937, 865, 418,G
2025-03-18 12:21:36.201,730, 551, 454, -7, -17, 2, -4, 3, 19, 946, 885, 208,G
2025-03-18 12:21:36.255,649, 380, 496, 33, -4, -19, -4, 3, 19, 969, 881, 52,G
2025-03-18 12:21:36.312,614, 1152, 176, 40, 37, 29, -3, 3, 20, 978, 865, 54,G
2025-03-18 12:21:36.366,787, 726, 520, -37, 17, 40, -4, 4, 18, 972, 888, 18,G
2025-03-18 12:21:36.427,711, 345, 500, -12, -28, -27, -3, 3, 20, 962, 900, 134,G
2025-03-18 12:21:36.476,684, 804, 387, 12, 1, 12, -3, 3, 21, 974, 902, 57,G
2025-03-18 12:21:36.533,750, 511, 307, -11, 20, 21, -4, 4, 19, 969, 866, 24,G
2025-03-18 12:21:36.590,528, 546, 650, 6, -23, -39, -2, 2, 17, 948, 839, 247,G
2025-03-18 12:21:36.643,741, 810, 224, 2, -17, 13, -4, 2, 18, 977, 917, 369,G
2025-03-18 12:21:36.700,763, 298, 382, -16, 42, -13, -4, 1, 19, 962, 896, 323,G
2025-03-18 12:21:36.976,631, 583, 489, -3, -6, -4, -4, 3, 16, 921, 755, 166,H
2025-03-18 12:21:37.029,623, 574, 501, 0, -8, -4, -2, 2, 17, 916, 759, 197,H
2025-03-18 12:21:37.086,627, 577, 547, 9, -30, 2, -2, 2, 18, 913, 826, 416,H
2025-03-18 12:21:37.138,723, 286, 472, 19, -17, -19, -4, 1, 21, 949, 864, 319,H
2025-03-18 12:21:37.196,447, 700, 432, 22, 39, 29, -5, 2, 19, 971, 832, 44,H
2025-03-18 12:21:37.250,695, 743, 340, -46, 21, 22, -4, 4, 18, 966, 770, 47,H
2025-03-18 12:21:37.307,596, 227, 641, 26, -19, -37, -3, 3, 20, 925, 770, 39,H
2025-03-18 12:21:37.364,932, 1014, 467, -10, -30, 26, -4, 2, 20, 966, 906, 195,H
2025-03-18 12:21:37.418,713, 352, 430, -12, 17, 6, -4, 3, 21, 963, 914, 297,H
2025-03-18 12:21:37.478,464, 698, 680, -26, -10, -30, -3, 3, 19, 951, 901, 510,H
2025-03-18 12:21:37.532,929, 964, 533, 50, -11, -2, -3, 3, 22, 976, 907, 271,H
2025-03-18 12:21:37.586,947, 989, 90, 2, 40, 49, -3, 2, 20, 976, 878, 39,H
2025-03-18 12:21:37.643,752, 255, 487, -20, 28, -45, -3, 4, 17, 935, 807, 47,H
2025-03-18 12:21:37.909,641, 572, 501, 2, -1, -12, -3, 0, 20, 915, 800, 97,I
2025-03-18 12:21:37.966,634, 565, 500, 1, -1, -12, -3, 2, 18, 914, 794, 134,I
2025-03-18 12:21:38.020,703, 552, 493, 4, -13, -1, -4, 2, 18, 926, 779, 26,I
2025-03-18 12:21:38.077,947, 628, 431, 86, -14, -7, -2, 1, 20, 964, 891, 32,I
2025-03-18 12:21:38.130,637, 380, 424, 16, -2, 21, -4, 1, 23, 970, 909, 298,I
2025-03-18 12:21:38.184,713, 546, 315, 16, 10, -3, -4, 1, 21, 914, 878, 573,I
2025-03-18 12:21:38.241,763, 665, 634, -11, -9, -2, -2, 1, 20, 929, 874, 433,I
2025-03-18 12:21:38.294,754, 511, 305, 10, 26, 28, -2, 1, 21, 972, 884, 41,I
2025-03-18 12:21:38.347,714, 420, 339, 3, 31, 4, -5, 4, 17, 952, 784, 44,I
2025-03-18 12:21:38.401,692, 654, 634, 41, -2, -12, -4, 2, 16, 907, 692, 32,I
2025-03-18 12:21:38.462,869, 629, -91, -44, -24, 36, -2, -1, 21, 965, 913, 363,I
2025-03-18 12:21:38.519,822, 398, 307, -32, 47, -15, -5, 2, 20, 936, 896, 481,I
2025-03-18 12:21:38.793,680, 574, 506, -11, -15, 1, -3, 0, 17, 915, 766, 38,J
2025-03-18 12:21:38.847,672, 565, 528, 0, -20, 5, -4, 3, 18, 920, 777, 43,J
2025-03-18 12:21:38.900,1027, 678, 460, 58, -18, 2, -3, 1, 18, 961, 896, 29,J
2025-03-18 12:21:38.958,483, 410, 333, 11, -7, 29, -5, 1, 20, 972, 913, 354,J
2025-03-18 12:21:39.011,725, 436, 318, 21, 5, -7, -4, 3, 23, 945, 881, 573,J
2025-03-18 12:21:39.068,604, 676, 509, -21, 22, -38, -4, 0, 19, 910, 835, 505,J
2025-03-18 12:21:39.126,719, 554, 376, 14, -19, 15, -4, 0, 18, 949, 897, 532,J
2025-03-18 12:21:39.179,795, 801, 543, -24, 21, 32, -4, 2, 19, 972, 909, 252,J
2025-03-18 12:21:39.236,520, 787, 230, -30, 22, 28, -2, 2, 18, 977, 904, 16,J
2025-03-18 12:21:39.293,701, 306, 593, -19, 18, -32, -4, 5, 16, 945, 819, 41,J
2025-03-18 12:21:39.350,676, 752, 359, -11, 50, -26, -2, 3, 16, 887, 810, 264,J
2025-03-18 12:21:39.403,496, 645, 684, 9, -10, -2, -3, 3, 13, 883, 781, 307,J
2025-03-18 12:21:39.670,675, 590, 442, -3, -7, -6, -4, 1, 18, 925, 819, 314,K
2025-03-18 12:21:39.728,662, 590, 452, -4, -8, -7, -4, 1, 19, 924, 822, 309,K
2025-03-18 12:21:39.781,694, 558, 495, 5, -11, 0, -4, 3, 17, 935, 867, 340,K
2025-03-18 12:21:39.834,713, 659, 486, -3, -15, -6, -2, 1, 19, 957, 896, 284,K
2025-03-18 12:21:39.891,666, 811, 372, 37, 46, 37, -2, -1, 19, 970, 881, 36,K
2025-03-18 12:21:39.945,768, 734, 216, -33, 28, 25, -2, 2, 18, 971, 860, 38,K
2025-03-18 12:21:39.998,643, 311, 605, 4, -43, 5, -4, 3, 18, 976, 924, 34,K
2025-03-18 12:21:40.056,594, 559, 403, 35, -14, -14, -3, 2, 18, 959, 915, 312,K
2025-03-18 12:21:40.113,532, 735, 419, -24, 33, -31, -3, 1, 19, 945, 850, 128,K
2025-03-18 12:21:40.170,760, 1248, 218, -34, -12, 57, -4, 3, 19, 979, 915, 59,K
2025-03-18 12:21:40.223,672, 348, 466, -5, 23, 35, -2, 4, 19, 976, 909, 50,K
2025-03-18 12:21:40.280,516, 696, 376, -40, 52, -75, -3, 2, 16, 935, 854, 171,K
2025-03-18 12:21:40.550,668, 572, 494, 7, -12, 3, -1, 3, 16, 931, 856, 484,L
2025-03-18 12:21:40.604,664, 563, 487, 12, -13, 3, -3, 0, 17, 930, 856, 488,L
2025-03-18 12:21:40.662,693, 606, 419, 0, -13, -6, -3, 1, 18, 930, 864, 511,L
2025-03-18 12:21:40.719,673, 561, 540, 13, -15, -13, -4, 2, 19, 955, 892, 392,L
2025-03-18 12:21:40.773,662, 684, 445, 22, 11, 3, -3, 1, 20, 970, 886, 221,L
2025-03-18 12:21:40.826,449, 790, 412, -26, 37, 26, -3, 1, 18, 970, 843, 35,L
2025-03-18 12:21:40.883,760, 661, 514, -3, 11, 30, -4, 3, 18, 977, 909, 51,L
2025-03-18 12:21:40.936,522, 481, 330, 16, -5, 12, -3, 4, 20, 977, 921, 250,L
2025-03-18 12:21:40.993,756, 440, 255, -16, 52, -39, -2, 1, 19, 949, 859, 454,L
2025-03-18 12:21:41.292,661, 609, 430, -9, -11, -4, -2, 0, 18, 919, 817, 455,M
2025-03-18 12:21:41.350,641, 614, 461, -14, -14, -5, -4, 2, 15, 915, 824, 474,M
2025-03-18 12:21:41.402,725, 579, 521, -19, -31, 7, -3, 1, 17, 932, 884, 563,M
2025-03-18 12:21:41.460,699, 348, 534, 27, -18, -17, -5, 2, 18, 959, 882, 445,M
2025-03-18 12:21:41.513,525, 494, 323, 7, 40, 44, -3, 2, 19, 971, 852, 19,M
2025-03-18 12:21:41.566,738, 385, 475, -24, 3, 2, -3, 1, 19, 954, 871, 321,M
2025-03-18 12:21:41.628,587, 835, 473, -27, -39, -18, -4, 0, 19, 932, 901, 632,M
2025-03-18 12:21:41.681,879, 524, 463, 16, -9, -1, -4, 1, 19, 972, 915, 512,M
2025-03-18 12:21:41.739,712, 519, 426, -33, 17, 47, -6, 3, 20, 975, 918, 37,M
2025-03-18 12:21:41.792,805, 356, 533, 0, -27, -20, -5, 4, 18, 960, 913, 18,M
2025-03-18 12:21:41.846,789, 602, 407, 44, -5, 7, -3, 3, 20, 975, 914, 106,M
2025-03-18 12:21:41.898,783, 527, 277, -2, 26, 31, -5, 4, 20, 975, 908, 50,M
2025-03-18 12:21:41.956,675, 395, 474, -24, 19, -63, -4, 2, 18, 954, 900, 134,M
2025-03-18 12:21:42.013,585, 510, 576, -3, -10, -11, -3, 3, 18, 949, 898, 258,M
2025-03-18 12:21:42.066,706, 556, 448, 13, -8, 4, -4, 1, 19, 944, 887, 262,M
2025-03-18 12:21:42.124,746, 532, 439, 11, 3, -3, -4, 3, 17, 936, 863, 196,M
2025-03-18 12:21:43.385,686, 567, 462, -1, -1, -2, -4, 0, 18, 935, 831, 238,N
2025-03-18 12:21:43.442,686, 574, 468, -1, -1, -1, -3, 4, 17, 932, 831, 235,N
2025-03-18 12:21:43.496,686, 584, 467, -4, -1, -2, -3, 3, 17, 931, 832, 247,N
2025-03-18 12:21:43.553,679, 573, 476, -1, -2, -1, -3, 1, 19, 933, 840, 262,N
2025-03-18 12:21:43.606,692, 570, 462, -2, 0, 0, -2, 2, 20, 935, 843, 277,N
2025-03-18 12:21:43.655,685, 561, 471, 0, 0, 1, -2, 4, 17, 931, 842, 263,N
2025-03-18 12:21:43.713,689, 585, 452, -3, 0, -2, -4, 3, 17, 933, 842, 267,N
2025-03-18 12:21:43.766,651, 574, 484, 1, -8, -2, -4, 3, 20, 934, 850, 286,N
2025-03-18 12:21:43.820,706, 610, 518, -4, -21, -2, -4, 1, 18, 941, 870, 304,N
2025-03-18 12:21:43.877,713, 584, 357, -20, -2, -1, -3, 2, 21, 959, 889, 20,N
2025-03-18 12:21:43.931,696, 649, 373, 1, -7, -3, -3, 2, 19, 973, 889, 37,N
2025-03-18 12:21:43.983,733, 645, 352, -2, -1, 0, -5, 2, 19, 973, 899, 27,N
2025-03-18 12:21:44.033,697, 534, 500, -3, 4, 1, -5, 2, 18, 968, 902, 48,N
2025-03-18 12:21:44.090,689, 376, 631, 40, -15, -15, -4, 2, 21, 974, 889, 55,N
2025-03-18 12:21:44.143,880, 496, 332, -2, 28, 32, -3, 1, 21, 976, 852, 46,N
2025-03-18 12:21:44.200,731, 291, 615, -19, 7, -14, -4, 4, 18, 949, 829, 25,N
2025-03-18 12:21:44.258,608, 697, 561, -26, -42, 0, -3, 3, 17, 946, 889, 382,N
2025-03-18 12:21:44.311,643, 664, 101, 32, 17, 35, -2, 2, 21, 975, 898, 28,N
2025-03-18 12:21:44.364,729, 740, 266, -9, 17, 29, -3, 5, 19, 973, 879, 33,N
2025-03-18 12:21:44.422,553, 210, 924, 19, -50, -53, -4, 4, 18, 947, 900, 183,N
2025-03-18 12:21:44.475,941, 644, 98, -5, 73, -18, -4, 2, 18, 909, 850, 460,N
2025-03-18 12:21:44.777,674, 532, 507, 7, -11, 5, -3, 3, 17, 922, 825, 32,O
2025-03-18 12:21:44.831,670, 537, 502, 9, -13, 4, -3, 3, 17, 923, 826, 30,O
2025-03-18 12:21:44.884,726, 582, 415, -1, -4, -1, -4, 3, 18, 925, 840, 202,O
2025-03-18 12:21:44.937,695, 558, 456, 0, -3, 2, -4, 3, 16, 927, 853, 244,O
2025-03-18 12:21:44.995,649, 561, 497, -2, -12, 1, -3, 2, 18, 933, 861, 252,O
2025-03-18 12:21:45.053,871, 406, 329, -6, -10, -22, -3, 1, 19, 937, 880, 246,O
2025-03-18 12:21:45.106,702, 505, 410, 73, 4, -14, -2, 1, 21, 960, 881, 42,O
2025-03-18 12:21:45.158,539, 500, 219, -70, 35, 63, -3, 3, 18, 976, 911, 37,O
2025-03-18 12:21:45.216,569, 9, 776, -21, -31, -25, -3, 6, 16, 970, 920, 37,O
2025-03-18 12:21:45.273,1021, 698, 142, 41, 10, -43, -4, 2, 18, 922, 890, 555,O
2025-03-18 12:21:45.331,552, 561, 567, -22, 47, -15, -3, 1, 16, 916, 846, 360,O
2025-03-18 12:21:45.593,695, 596, 430, -2, -5, 1, -4, 1, 18, 926, 791, 32,P
2025-03-18 12:21:45.642,693, 585, 439, -3, -4, 2, -4, 1, 18, 924, 792, 25,P
2025-03-18 12:21:45.695,664, 557, 488, 1, -5, -1, -3, 1, 17, 926, 811, 33,P
2025-03-18 12:21:45.753,684, 567, 451, -6, -10, -8, -3, 3, 16, 925, 835, 175,P
2025-03-18 12:21:45.810,642, 582, 483, -18, -17, -13, -2, 2, 17, 925, 849, 260,P
2025-03-18 12:21:45.867,792, 269, 516, -8, -14, -10, -4, 2, 19, 947, 883, 23,P
2025-03-18 12:21:45.921,438, 1104, 294, 18, 60, 80, -3, 3, 18, 974, 891, 39,P
2025-03-18 12:21:45.977,731, 678, 232, -8, 21, 19, -4, 5, 18, 967, 884, 30,P
2025-03-18 12:21:46.035,766, 593, 506, 35, -56, -69, -3, 2, 18, 942, 895, 393,P
2025-03-18 12:21:46.089,580, 454, 579, 3, -21, -1, -4, 1, 20, 976, 916, 189,P
2025-03-18 12:21:46.141,558, 617, 310, -17, 28, 21, -3, 1, 20, 975, 903, 43,P
2025-03-18 12:21:46.199,1002, 376, 361, -21, 51, -45, -2, 2, 19, 947, 870, 38,P
2025-03-18 12:21:46.470,682, 559, 442, 4, -11, 8, -4, 3, 17, 935, 839, 43,Q
2025-03-18 12:21:46.522,688, 561, 466, 5, -10, 8, -3, 1, 19, 936, 845, 45,Q
2025-03-18 12:21:46.576,715, 541, 425, 5, -6, 1, -2, 4, 17, 938, 847, 49,Q
2025-03-18 12:21:46.629,674, 561, 481, -4, -12, -1, -4, 3, 18, 935, 853, 39,Q
2025-03-18 12:21:46.686,655, 533, 343, -7, -13, -25, -3, 2, 20, 941, 883, 40,Q
2025-03-18 12:21:46.743,1335, 106, 775, 65, 6, -30, -4, 1, 20, 962, 887, 45,Q
2025-03-18 12:21:46.797,630, 553, 225, -68, 40, 79, -2, 1, 19, 979, 906, 29,Q
2025-03-18 12:21:46.850,501, 151, 941, -10, -25, 1, -3, 5, 17, 976, 920, 48,Q
2025-03-18 12:21:46.907,842, 636, 144, 41, 13, -48, -4, 3, 18, 936, 883, 183,Q
2025-03-18 12:21:46.965,572, 675, 946, -12, -11, 29, -2, 2, 17, 952, 870, 34,Q
2025-03-18 12:21:47.018,638, 277, 61, -33, -4, 29, -3, 4, 18, 982, 913, 45,Q
2025-03-18 12:21:47.071,833, 180, 415, -4, 28, 7, -2, 7, 16, 974, 894, 47,Q
2025-03-18 12:21:47.125,660, 563, 337, -9, 57, -81, -3, 4, 16, 898, 759, 56,Q
2025-03-18 12:21:47.403,717, 581, 493, 3, -12, 1, -3, 4, 18, 906, 804, 31,R
2025-03-18 12:21:47.456,710, 583, 488, 0, -13, 2, -3, 4, 18, 907, 809, 65,R
2025-03-18 12:21:47.510,647, 548, 504, 1, -19, 6, -2, 3, 17, 915, 841, 167,R
2025-03-18 12:21:47.563,704, 536, 513, -8, -20, 4, -3, 2, 18, 927, 875, 271,R
2025-03-18 12:21:47.620,723, 375, 652, 36, -8, -6, -3, 1, 20, 956, 884, 14,R
2025-03-18 12:21:47.673,416, 746, 403, -5, 49, 57, -3, 3, 17, 972, 886, 34,R
2025-03-18 12:21:47.727,717, 516, 490, -22, 13, 11, -3, 5, 16, 962, 885, 42,R
2025-03-18 12:21:47.784,799, 931, 447, -3, -52, -50, -1, 2, 18, 953, 903, 42,R
2025-03-18 12:21:47.837,632, 460, 520, -9, -15, 4, -3, 3, 20, 979, 920, 45,R
2025-03-18 12:21:47.895,892, 454, 380, -24, 28, 32, -5, 4, 19, 977, 908, 30,R
2025-03-18 12:21:47.948,873, 645, 494, -32, 11, 59, -4, 3, 18, 980, 918, 38,R
2025-03-18 12:21:48.001,805, 229, 371, -15, 34, -3, -5, 6, 17, 978, 910, 53,R
2025-03-18 12:21:48.058,548, 513, 695, -16, 49, -56, -2, 7, 15, 954, 888, 45,R
2025-03-18 12:21:48.292,681, 569, 511, -13, 2, -7, -3, 3, 16, 934, 833, 36,S
2025-03-18 12:21:48.346,670, 570, 509, -14, 2, -6, -4, 3, 15, 936, 836, 42,S
2025-03-18 12:21:48.398,688, 568, 523, -3, -4, 0, -2, 3, 16, 932, 839, 38,S
2025-03-18 12:21:48.452,699, 540, 495, -4, -3, -1, -2, 4, 17, 924, 841, 48,S
2025-03-18 12:21:48.505,679, 554, 486, 0, -3, 1, -3, 3, 16, 928, 848, 55,S
2025-03-18 12:21:48.558,690, 511, 492, -2, -4, 4, -2, 3, 17, 933, 853, 36,S
2025-03-18 12:21:48.611,700, 550, 495, -1, -4, 1, -3, 5, 17, 936, 859, 46,S
2025-03-18 12:21:48.664,661, 540, 500, -3, -12, 8, -3, 3, 19, 942, 870, 42,S
2025-03-18 12:21:48.718,603, 578, 500, -4, -30, 0, -2, 4, 18, 950, 887, 142,S
2025-03-18 12:21:48.775,1083, 304, 619, 38, -3, -20, -3, 3, 20, 960, 893, 22,S
2025-03-18 12:21:48.828,802, 706, 387, -24, 30, 56, -5, 3, 20, 978, 913, 56,S
2025-03-18 12:21:48.882,466, 604, 562, 0, 8, 24, -4, 4, 17, 982, 910, 42,S
2025-03-18 12:21:48.936,897, 230, 378, 5, 18, -22, -3, 5, 17, 952, 819, 39,S
2025-03-18 12:21:48.992,636, 678, 416, -10, 38, -38, -4, 3, 17, 917, 804, 46,S
2025-03-18 12:21:49.242,705, 588, 449, 7, -4, 1, -1, 3, 17, 876, 748, 34,T
2025-03-18 12:21:49.296,705, 589, 435, 4, -3, 1, -1, 3, 17, 876, 742, 34,T
2025-03-18 12:21:49.348,696, 567, 477, -2, -2, 1, -4, 3, 18, 875, 758, 35,T
2025-03-18 12:21:49.402,698, 562, 460, 0, -2, -1, -5, 3, 18, 876, 768, 54,T
2025-03-18 12:21:49.455,689, 576, 463, -9, 1, -5, -2, 3, 17, 877, 764, 46,T
2025-03-18 12:21:49.508,672, 566, 470, -2, -4, -9, -5, 4, 18, 887, 773, 24,T
2025-03-18 12:21:49.561,664, 580, 494, -10, -5, -7, -1, 2, 19, 891, 784, 41,T
2025-03-18 12:21:49.614,681, 540, 541, 6, -32, 6, -3, 0, 20, 939, 850, 38,T
2025-03-18 12:21:49.672,704, 916, 223, -32, -16, 52, -5, 1, 20, 978, 915, 57,T
2025-03-18 12:21:49.726,662, 438, 510, 22, 0, 2, -5, 4, 18, 966, 904, 278,T
2025-03-18 12:21:49.779,634, 755, 598, 8, -8, -14, -3, 2, 20, 958, 888, 345,T
2025-03-18 12:21:49.836,935, 522, -42, 64, 50, 61, -3, 3, 21, 979, 888, 37,T
2025-03-18 12:21:49.885,805, 488, 279, -9, 24, 6, -3, 2, 18, 960, 765, 31,T
2025-03-18 12:21:49.942,622, 699, 479, 4, 20, -54, -4, 2, 17, 906, 796, 286,T
2025-03-18 12:21:49.999,542, 522, 625, -6, -12, -2, -3, 2, 17, 912, 832, 312,T
2025-03-18 12:21:50.053,672, 575, 468, -4, -13, 2, -4, 2, 17, 925, 827, 244,T
2025-03-18 12:21:50.106,725, 564, 406, -6, -3, -4, -4, 3, 16, 920, 788, 171,T
2025-03-18 12:21:50.402,667, 623, 424, 10, -1, -2, -3, 2, 18, 821, 20, 429,U
2025-03-18 12:21:50.454,668, 626, 430, 7, -2, -1, -3, 2, 18, 826, 26, 435,U
2025-03-18 12:21:50.504,712, 612, 406, 1, -3, 5, -1, 0, 18, 828, 36, 490,U
2025-03-18 12:21:50.558,690, 568, 377, 11, 3, -3, -3, 1, 20, 828, 40, 495,U
2025-03-18 12:21:50.614,644, 687, 409, -15, -2, -1, -2, 1, 17, 837, 364, 526,U
2025-03-18 12:21:50.672,648, 623, 427, -53, -19, -9, -4, 1, 18, 883, 780, 553,U
2025-03-18 12:21:50.729,686, 453, 610, 4, -12, -13, -4, 3, 19, 943, 872, 459,U
2025-03-18 12:21:50.782,888, 698, 163, -15, 32, 47, -5, 3, 18, 969, 885, 249,U
2025-03-18 12:21:50.840,711, 387, 423, -14, 8, 23, -2, 3, 17, 968, 905, 337,U
2025-03-18 12:21:50.897,691, 594, 621, -15, -26, -19, -3, 2, 18, 954, 907, 598,U
2025-03-18 12:21:50.954,796, 949, -63, 31, 22, 22, -3, 3, 19, 973, 900, 400,U
2025-03-18 12:21:51.008,858, 406, 401, -8, 22, -3, -3, 3, 18, 956, 874, 445,U
2025-03-18 12:21:51.065,645, 602, 515, -37, 28, -35, -3, 2, 17, 916, 861, 578,U
2025-03-18 12:21:51.298,672, 596, 478, 5, 6, -4, -4, 3, 16, 899, 763, 350,V
2025-03-18 12:21:51.352,675, 603, 474, 6, 5, -2, -2, 2, 16, 901, 766, 359,V
2025-03-18 12:21:51.405,649, 585, 471, 12, -1, -7, -3, 2, 16, 894, 777, 403,V
2025-03-18 12:21:51.458,683, 605, 438, 4, 0, -10, -2, 1, 18, 890, 793, 429,V
2025-03-18 12:21:51.514,669, 601, 450, -6, -5, -4, -3, 1, 16, 897, 806, 430,V
2025-03-18 12:21:51.568,699, 594, 486, 10, -4, -1, -2, 3, 17, 906, 822, 463,V
2025-03-18 12:21:51.622,651, 616, 476, -5, -8, 0, -3, 3, 18, 908, 828, 447,V
2025-03-18 12:21:51.679,686, 601, 464, -3, -18, 3, -2, -1, 19, 928, 866, 458,V
2025-03-18 12:21:51.736,920, 535, 605, 11, -9, 13, -3, -1, 20, 965, 884, 202,V
2025-03-18 12:21:51.790,542, 496, 349, -7, 11, 26, -3, 2, 18, 971, 893, 31,V
2025-03-18 12:21:51.847,625, 121, 834, 38, -47, -19, -3, 4, 17, 956, 913, 259,V
2025-03-18 12:21:51.905,795, 555, 202, -16, 41, -23, -4, 3, 18, 919, 867, 615,V
2025-03-18 12:21:51.962,581, 648, 634, -11, 33, -14, -1, 2, 15, 904, 789, 405,V
2025-03-18 12:21:52.249,667, 585, 486, -9, -5, -3, -3, 1, 17, 885, 739, 37,W
2025-03-18 12:21:52.302,675, 575, 497, -5, -7, -2, -4, 3, 17, 884, 744, 33,W
2025-03-18 12:21:52.356,690, 561, 447, 11, -8, 0, -4, 2, 18, 890, 752, 108,W
2025-03-18 12:21:52.412,698, 584, 443, 6, -3, -1, -3, 0, 17, 893, 779, 249,W
2025-03-18 12:21:52.466,659, 593, 433, 5, -2, -6, -3, 3, 18, 882, 791, 291,W
2025-03-18 12:21:52.520,704, 589, 489, 5, -21, -2, -3, 3, 17, 905, 855, 405,W
2025-03-18 12:21:52.576,682, 592, 562, -5, -2, -4, -3, 2, 17, 946, 885, 246,W
2025-03-18 12:21:52.630,874, 481, 353, -6, 28, 54, -3, 3, 18, 974, 895, 61,W
2025-03-18 12:21:52.682,654, 759, 442, -52, 9, 27, -3, 4, 16, 972, 912, 48,W
2025-03-18 12:21:52.740,689, 571, 540, 18, -17, -23, -3, 1, 19, 958, 910, 439,W
2025-03-18 12:21:52.794,627, 790, 118, 7, 15, 39, -2, 1, 19, 969, 900, 308,W
2025-03-18 12:21:52.851,725, 471, 783, -18, -7, 12, -4, 3, 19, 961, 907, 280,W
2025-03-18 12:21:52.908,599, 397, 394, -18, 49, -44, -4, 5, 17, 926, 887, 531,W
2025-03-18 12:21:53.192,695, 567, 473, -10, -8, -6, -2, 1, 17, 879, 785, 286,X
2025-03-18 12:21:53.248,693, 563, 464, -10, -8, -6, -4, 3, 16, 881, 794, 287,X
2025-03-18 12:21:53.301,666, 556, 504, -1, -21, 2, -3, 4, 18, 904, 846, 453,X
2025-03-18 12:21:53.359,717, 591, 468, -17, -14, 5, -3, 2, 20, 920, 875, 391,X
2025-03-18 12:21:53.413,710, 472, 548, -32, -16, -4, -5, 3, 20, 950, 897, 46,X
2025-03-18 12:21:53.469,577, 762, 354, 67, 29, 16, -4, 2, 20, 966, 873, 40,X
2025-03-18 12:21:53.522,566, 676, -56, 9, 42, 18, -5, 4, 20, 958, 851, 30,X
2025-03-18 12:21:53.576,628, 82, 852, -12, -4, -58, -2, 3, 15, 869, 832, 142,X
2025-03-18 12:21:53.632,950, 312, 750, 23, -21, -5, -4, 1, 18, 962, 892, 235,X
2025-03-18 12:21:53.686,589, 978, 132, -9, 39, 56, -4, 4, 19, 980, 908, 63,X
2025-03-18 12:21:53.743,738, 281, 519, 2, 10, -25, -4, 5, 18, 952, 872, 210,X
2025-03-18 12:21:53.801,699, 635, 446, -35, 34, -57, -4, 2, 17, 811, 777, 411,X
2025-03-18 12:21:54.038,675, 606, 470, -4, -4, -7, -2, 3, 17, 826, 795, 287,Y
2025-03-18 12:21:54.096,680, 604, 464, -3, -4, -5, -4, 3, 18, 826, 794, 277,Y
2025-03-18 12:21:54.149,668, 572, 453, 0, -3, -8, -3, 2, 18, 833, 807, 279,Y
2025-03-18 12:21:54.207,616, 569, 519, 12, -12, -5, -3, 1, 17, 834, 802, 218,Y
2025-03-18 12:21:54.260,706, 616, 444, 7, -26, -2, -3, 1, 19, 889, 830, 55,Y
2025-03-18 12:21:54.313,892, 906, 469, -3, -3, 36, -3, 1, 22, 962, 889, 63,Y
2025-03-18 12:21:54.366,672, 516, 447, 4, 13, 27, -4, 2, 20, 971, 897, 178,Y
2025-03-18 12:21:54.424,646, 300, 497, -20, -12, -42, -5, 4, 17, 935, 877, 574,Y
2025-03-18 12:21:54.481,650, 315, 800, 7, -34, -5, -4, 1, 19, 961, 898, 437,Y
2025-03-18 12:21:54.539,1215, 1086, 246, 18, 46, 42, -4, 3, 21, 975, 873, 49,Y
2025-03-18 12:21:54.592,750, 482, 353, 16, 32, 13, -3, 4, 18, 948, 772, 40,Y
2025-03-18 12:21:54.649,625, 602, 380, -29, 32, -60, -3, 2, 16, 837, 770, 356,Y
2025-03-18 12:21:54.956,683, 595, 487, 4, -3, 1, -2, 2, 18, 865, 799, 301,Z
2025-03-18 12:21:55.010,685, 574, 480, 5, -4, 1, -3, 2, 18, 864, 798, 304,Z
2025-03-18 12:21:55.063,579, 607, 515, 18, -12, 3, -2, 1, 18, 873, 794, 299,Z
2025-03-18 12:21:55.119,580, 442, 342, -5, -9, -17, -4, 1, 20, 912, 821, 43,Z
2025-03-18 12:21:55.177,624, 786, 570, -43, -23, 27, -3, 1, 19, 964, 905, 257,Z
2025-03-18 12:21:55.231,456, 615, 413, 56, 16, 14, -5, 0, 20, 966, 879, 255,Z
2025-03-18 12:21:55.287,522, 725, 227, -65, 23, 9, -3, 0, 20, 962, 793, 31,Z
2025-03-18 12:21:55.340,491, 717, 429, -27, -3, 40, -4, 4, 17, 975, 913, 37,Z
2025-03-18 12:21:55.394,625, 461, 387, 21, -6, -8, -4, 3, 18, 953, 896, 160,Z
2025-03-18 12:21:55.451,457, 825, 531, -12, 0, -50, -4, 0, 19, 918, 818, 349,Z
2025-03-18 12:21:55.509,900, 762, 298, -25, -23, 4, -2, 1, 18, 970, 910, 203,Z
2025-03-18 12:21:55.561,693, 387, 379, 3, 0, 20, -3, 2, 19, 971, 913, 313,Z
2025-03-18 12:21:55.614,646, 568, 287, 5, 42, -63, -4, 1, 19, 901, 832, 530,Z
2025-03-18 12:21:55.902,677, 591, 436, -3, -1, 9, -3, 0, 18, 916, 740, 159,a
2025-03-18 12:21:55.954,689, 581, 451, -2, -2, 7, -4, 2, 16, 918, 739, 161,a
2025-03-18 12:21:56.008,691, 587, 428, -7, -3, -6, -2, 1, 18, 918, 769, 225,a
2025-03-18 12:21:56.062,662, 569, 509, -2, -1, 3, -4, 3, 18, 924, 781, 168,a
2025-03-18 12:21:56.115,693, 594, 432, 6, -7, 6, -3, 1, 16, 929, 779, 21,a
2025-03-18 12:21:56.168,708, 567, 431, 2, -3, 9, -4, 2, 17, 935, 794, 58,a
2025-03-18 12:21:56.217,706, 580, 463, 7, -5, 7, -4, 2, 17, 940, 807, 85,a
2025-03-18 12:21:56.275,583, 630, 535, 5, -25, 10, -2, 1, 20, 949, 845, 47,a
2025-03-18 12:21:56.328,988, 407, 432, -7, -7, -30, -2, 1, 20, 952, 857, 59,a
2025-03-18 12:21:56.381,774, 1009, 98, -3, 22, 38, -4, 1, 21, 974, 884, 28,a
2025-03-18 12:21:56.434,606, 489, 532, -16, 1, 14, -5, 4, 17, 975, 913, 47,a
2025-03-18 12:21:56.492,707, 715, 507, 22, -13, -21, -5, 2, 20, 955, 904, 196,a
2025-03-18 12:21:56.548,829, 658, 195, -9, 30, 36, -4, 3, 21, 964, 888, 44,a
2025-03-18 12:21:56.861,684, 599, 436, -10, -6, -14, -4, 2, 19, 924, 849, 388,b
2025-03-18 12:21:56.918,662, 602, 431, -15, -7, -14, -4, 3, 18, 926, 847, 371,b
2025-03-18 12:21:56.976,731, 561, 466, -18, -8, 2, -2, 2, 18, 943, 870, 174,b
2025-03-18 12:21:57.029,698, 652, 447, -11, 0, -2, -3, 3, 18, 953, 884, 39,b
2025-03-18 12:21:57.082,670, 553, 477, 5, 1, -3, -4, 4, 20, 964, 890, 62,b
2025-03-18 12:21:57.135,751, 1013, 252, 35, 51, 62, -3, 3, 19, 979, 887, 65,b
2025-03-18 12:21:57.188,708, 617, 407, -4, 10, 12, -4, 2, 18, 974, 872, 50,b
2025-03-18 12:21:57.246,811, 453, 533, 50, -34, -50, -4, 3, 17, 959, 882, 33,b
2025-03-18 12:21:57.298,516, 623, 469, -24, -1, 23, -5, 4, 19, 980, 912, 59,b
2025-03-18 12:21:57.356,689, 635, 299, -11, 20, 25, -4, 4, 18, 981, 904, 64,b
2025-03-18 12:21:57.409,922, 251, 500, 20, 20, -35, -3, 3, 18, 960, 844, 34,b
2025-03-18 12:21:57.467,626, 543, 604, -16, 7, -21, -3, 3, 18, 952, 863, 62,b
2025-03-18 12:21:57.729,693, 550, 476, -6, -3, 3, -3, 2, 18, 946, 854, 63,c
2025-03-18 12:21:57.778,686, 557, 493, -3, -4, 4, -2, 1, 19, 945, 851, 43,c
2025-03-18 12:21:57.832,683, 591, 420, -1, -7, 6, -4, 3, 17, 951, 867, 59,c
2025-03-18 12:21:57.889,728, 416, 391, -11, -6, -6, -3, 3, 19, 958, 887, 53,c
2025-03-18 12:21:57.946,667, 505, 485, -13, -2, -11, -3, 1, 20, 966, 902, 68,c
2025-03-18 12:21:57.999,885, 800, 389, 34, 17, -4, -5, 3, 19, 975, 885, 31,c
2025-03-18 12:21:58.053,748, 637, 333, -16, 23, 38, -4, 3, 17, 981, 915, 43,c
2025-03-18 12:21:58.106,818, 362, 352, 27, 4, -35, -4, 4, 18, 954, 897, 28,c
2025-03-18 12:21:58.163,584, 631, 635, -40, 43, -31, -5, 3, 16, 921, 864, 58,c
2025-03-18 12:21:58.466,264, 804, 578, -42, 1, -100, -2, -5, 8, 820, 575, 323,d
2025-03-18 12:21:58.524,164, 883, 609, -38, 6, -75, -2, -7, 11, 837, 591, 317,d
2025-03-18 12:21:58.577,145, 668, 830, 27, -44, 27, -3, -6, 9, 899, 701, 30,d
2025-03-18 12:21:58.634,169, 826, 495, 61, -66, 152, -3, -5, 13, 920, 760, 43,d
2025-03-18 12:21:58.691,782, 444, 589, 42, 15, 148, -3, -2, 16, 932, 800, 46,d
2025-03-18 12:21:58.744,794, 758, 115, 16, -2, 75, -4, 1, 19, 938, 827, 57,d
2025-03-18 12:21:58.798,610, 482, 644, 9, -30, 29, -5, 3, 17, 949, 861, 66,d
2025-03-18 12:21:58.851,525, 557, 543, 6, -5, -26, -6, 3, 19, 957, 886, 60,d
2025-03-18 12:21:58.908,1055, 861, 134, -9, 12, 13, -4, 3, 21, 973, 882, 65,d
2025-03-18 12:21:58.961,743, 457, 505, -68, 9, 37, -2, 4, 18, 974, 906, 49,d
2025-03-18 12:21:59.015,443, 530, 428, 7, -39, -48, -5, 4, 17, 962, 911, 50,d
2025-03-18 12:21:59.072,896, 1085, 158, 17, 21, 19, -4, 3, 19, 977, 900, 41,d
2025-03-18 12:21:59.126,751, 503, 352, 1, 31, 36, -4, 6, 17, 973, 865, 41,d
2025-03-18 12:21:59.179,653, 476, 456, -15, 27, -53, -4, 5, 17, 954, 859, 57,d
2025-03-18 12:21:59.434,691, 518, 521, 0, -1, 7, -3, 4, 16, 951, 859, 57,e
2025-03-18 12:21:59.487,689, 520, 512, 0, -3, 8, -4, 5, 16, 951, 859, 47,e
2025-03-18 12:21:59.540,691, 528, 479, -1, -3, 1, -3, 4, 17, 953, 863, 42,e
2025-03-18 12:21:59.592,679, 437, 544, 5, -16, 1, -6, 5, 16, 960, 862, 48,e
2025-03-18 12:21:59.646,904, 630, 377, -12, -4, 6, -5, 6, 16, 972, 890, 48,e
2025-03-18 12:21:59.700,651, 403, 501, -24, 3, 18, -4, 7, 16, 975, 910, 48,e
2025-03-18 12:21:59.756,775, 436, 570, 5, -8, -30, -4, 7, 18, 973, 907, 39,e
2025-03-18 12:21:59.809,870, 914, 352, 38, 13, 32, -4, 5, 18, 981, 905, 51,e
2025-03-18 12:21:59.862,751, 510, 501, -10, 16, 36, -4, 7, 17, 982, 911, 50,e
2025-03-18 12:21:59.920,698, 543, 251, -1, 49, -68, -3, 6, 13, 947, 879, 35,e
2025-03-18 12:22:00.208,711, 484, 499, -1, 2, 10, -5, 6, 13, 943, 839, 63,f
2025-03-18 12:22:00.261,711, 484, 519, -1, 1, 9, -3, 5, 14, 945, 837, 64,f
2025-03-18 12:22:00.314,725, 487, 499, -2, 0, 10, -1, 7, 13, 946, 839, 65,f
2025-03-18 12:22:00.367,722, 481, 497, -6, 4, 6, -3, 5, 16, 950, 840, 42,f
2025-03-18 12:22:00.420,649, 473, 583, -5, -9, 14, -3, 6, 15, 951, 851, 59,f
2025-03-18 12:22:00.473,760, 356, 293, -70, -1, -25, -3, 7, 14, 962, 906, 54,f
2025-03-18 12:22:00.530,857, 563, 585, -19, -52, -19, -4, 7, 14, 970, 924, 39,f
2025-03-18 12:22:00.588,721, 500, 485, 48, -10, 13, -5, 5, 16, 975, 916, 44,f
2025-03-18 12:22:00.640,638, 247, 479, 19, 35, -17, -3, 6, 17, 968, 898, 38,f
2025-03-18 12:22:00.698,867, 791, 598, -24, -5, -1, -4, 7, 17, 975, 918, 62,f
2025-03-18 12:22:00.752,793, 399, 363, 17, -5, 18, -5, 7, 16, 979, 920, 49,f
2025-03-18 12:22:01.035,731, 522, 460, 0, -4, 1, -3, 4, 15, 945, 839, 39,g
2025-03-18 12:22:01.087,726, 513, 454, -1, -4, 0, -4, 6, 15, 942, 837, 31,g
2025-03-18 12:22:01.141,714, 516, 504, 1, -1, 2, -3, 5, 18, 945, 837, 31,g
2025-03-18 12:22:01.194,743, 510, 452, -4, -2, 0, -4, 5, 15, 946, 841, 56,g
2025-03-18 12:22:01.248,677, 495, 512, -10, -11, 3, -2, 5, 15, 949, 855, 42,g
2025-03-18 12:22:01.305,624, 523, 577, -17, -8, -14, -4, 5, 16, 959, 892, 56,g
2025-03-18 12:22:01.357,955, 501, 420, 18, 3, -13, -4, 5, 18, 971, 899, 34,g
2025-03-18 12:22:01.410,688, 469, 361, -32, 30, 60, -4, 7, 16, 979, 912, 41,g
2025-03-18 12:22:01.469,582, 69, 773, 15, -23, -22, -4, 7, 13, 970, 905, 42,g
2025-03-18 12:22:01.522,838, 358, 557, 21, -9, -9, -3, 5, 16, 974, 911, 56,g
2025-03-18 12:22:01.575,858, 603, 412, -29, 36, 47, -4, 6, 16, 979, 909, 48,g
2025-03-18 12:22:01.632,900, -36, 579, -9, 22, -57, -4, 8, 13, 957, 833, 51,g
2025-03-18 12:22:01.932,718, 547, 429, -6, 10, -19, -4, 4, 16, 909, 752, 48,h
2025-03-18 12:22:01.985,694, 559, 470, -8, 9, -18, -5, 5, 15, 909, 759, 42,h
2025-03-18 12:22:02.041,638, 566, 555, 5, -13, -14, -3, 4, 15, 914, 785, 62,h
2025-03-18 12:22:02.095,670, 544, 574, -6, -38, 31, -3, 3, 16, 951, 866, 68,h
2025-03-18 12:22:02.152,739, 578, 544, -25, -1, 6, -5, 6, 16, 966, 894, 19,h
2025-03-18 12:22:02.205,421, 548, 523, 10, 45, 59, -5, 7, 17, 981, 897, 41,h
2025-03-18 12:22:02.258,811, 386, 305, -2, 12, 14, -4, 5, 17, 976, 895, 25,h
2025-03-18 12:22:02.316,792, 149, 681, -12, -37, -22, -4, 7, 15, 973, 906, 54,h
2025-03-18 12:22:02.369,711, 625, 220, 21, 14, 31, -4, 7, 17, 982, 904, 63,h
2025-03-18 12:22:02.426,856, 270, 488, -2, 16, -22, -3, 7, 16, 965, 860, 57,h
2025-03-18 12:22:02.726,734, 495, 480, -3, -2, -1, -4, 7, 15, 940, 822, 54,i
2025-03-18 12:22:02.779,730, 491, 492, -4, -2, -1, -4, 6, 15, 940, 821, 44,i
2025-03-18 12:22:02.832,700, 475, 511, 0, -7, -3, -5, 6, 15, 942, 832, 57,i
2025-03-18 12:22:02.886,732, 496, 509, -5, -13, 3, -4, 7, 15, 948, 857, 32,i
2025-03-18 12:22:02.939,749, 511, 520, -10, -6, -5, -4, 5, 17, 963, 876, 65,i
2025-03-18 12:22:02.996,409, 790, 444, -10, 23, 44, -3, 5, 17, 975, 872, 22,i
2025-03-18 12:22:03.050,816, 626, 360, -6, 6, 10, -4, 7, 17, 970, 874, 53,i
2025-03-18 12:22:03.108,505, 940, 643, -18, -41, -46, -5, 6, 17, 969, 899, 49,i
2025-03-18 12:22:03.161,787, 579, 284, 24, -11, -9, -5, 6, 17, 977, 909, 27,i
2025-03-18 12:22:03.213,911, 290, 364, -9, 37, 7, -5, 5, 17, 962, 860, 49,i
2025-03-18 12:22:03.271,620, 546, 561, -20, 54, -17, -5, 7, 15, 947, 761, 43,i
2025-03-18 12:22:03.517,724, 495, 495, 2, -5, 8, -4, 6, 15, 934, 758, 66,j
2025-03-18 12:22:03.566,747, 486, 474, 1, -5, 8, -4, 6, 16, 935, 760, 52,j
2025-03-18 12:22:03.619,726, 473, 499, 2, -1, 6, -4, 6, 14, 933, 765, 40,j
2025-03-18 12:22:03.672,684, 445, 504, 4, -10, 1, -5, 4, 15, 940, 808, 50,j
2025-03-18 12:22:03.726,845, 375, 569, 7, -20, 9, -3, 6, 15, 961, 866, 34,j
2025-03-18 12:22:03.778,720, 671, 343, 2, 23, 47, -4, 6, 18, 978, 889, 62,j
2025-03-18 12:22:03.832,956, 313, 456, -29, 18, 34, -6, 9, 15, 977, 881, 41,j
2025-03-18 12:22:03.889,824, 276, 390, -4, -30, -131, -3, 7, 15, 966, 891, 55,j
2025-03-18 12:22:03.946,597, 933, 953, 23, -42, -25, -5, 6, 17, 975, 908, 34,j
2025-03-18 12:22:04.000,848, 739, 421, 19, 24, 35, -5, 4, 19, 967, 874, 40,j
2025-03-18 12:22:04.057,694, 500, 368, -16, 49, -36, -4, 5, 17, 950, 790, 52,j
2025-03-18 12:22:04.308,712, 508, 503, -3, 0, -3, -3, 4, 18, 931, 749, 48,k
2025-03-18 12:22:04.361,711, 512, 505, -1, -2, -3, -3, 4, 18, 931, 750, 40,k
2025-03-18 12:22:04.417,691, 525, 481, -4, -14, -2, -5, 6, 17, 932, 778, 36,k
2025-03-18 12:22:04.471,755, 536, 464, 2, -17, 4, -4, 6, 17, 946, 846, 64,k
2025-03-18 12:22:04.524,740, 466, 425, -17, -5, -7, -5, 5, 17, 963, 878, 42,k
2025-03-18 12:22:04.577,701, 588, 336, 48, 23, 16, -3, 4, 20, 972, 859, 58,k
2025-03-18 12:22:04.634,773, 498, 333, -22, 17, 16, -5, 7, 18, 968, 853, 57,k
2025-03-18 12:22:04.688,638, 152, 865, -18, -26, 0, -5, 6, 17, 972, 912, 41,k
2025-03-18 12:22:04.745,763, 494, 471, 45, -15, -17, -4, 3, 18, 954, 867, 51,k
2025-03-18 12:22:04.798,686, 638, 591, -18, 10, 11, -4, 5, 17, 955, 823, 61,k
2025-03-18 12:22:04.852,697, 459, 303, -15, 9, 49, -3, 6, 17, 976, 899, 45,k
2025-03-18 12:22:04.905,972, 7, 277, -9, 27, -38, -5, 8, 16, 969, 881, 71,k
2025-03-18 12:22:05.204,713, 550, 469, -6, -5, 0, -4, 5, 16, 931, 832, 66,l
2025-03-18 12:22:05.257,705, 524, 475, -4, -5, -1, -2, 3, 17, 932, 831, 58,l
2025-03-18 12:22:05.314,690, 520, 469, 5, -11, -8, -4, 4, 16, 931, 830, 46,l
2025-03-18 12:22:05.367,746, 602, 445, 3, -18, -11, -4, 4, 17, 926, 841, 48,l
2025-03-18 12:22:05.421,707, 468, 549, -2, -25, 8, -4, 3, 18, 952, 878, 46,l
2025-03-18 12:22:05.473,799, 622, 274, 19, 42, 49, -3, 4, 19, 980, 890, 62,l
2025-03-18 12:22:05.527,966, 398, 231, 0, 31, 31, -5, 5, 18, 977, 885, 41,l
2025-03-18 12:22:05.581,886, 92, 566, -4, 10, -49, -3, 5, 15, 954, 868, 49,l
2025-03-18 12:22:05.638,658, 540, 654, -35, 16, -17, -3, 5, 16, 933, 871, 42,l
2025-03-18 12:22:05.954,708, 512, 499, 2, 0, 4, -5, 5, 14, 939, 840, 69,m
2025-03-18 12:22:06.008,707, 511, 483, 4, -1, 4, -5, 4, 17, 938, 838, 66,m
2025-03-18 12:22:06.056,717, 502, 471, 6, 2, -1, -4, 5, 15, 929, 815, 29,m
2025-03-18 12:22:06.113,667, 499, 489, 12, -11, -9, -3, 3, 16, 932, 811, 52,m
2025-03-18 12:22:06.167,753, 602, 499, -6, -20, -15, -3, 5, 17, 939, 845, 39,m
2025-03-18 12:22:06.224,753, 440, 401, 3, -5, -11, -3, 3, 18, 969, 884, 43,m
2025-03-18 12:22:06.276,560, 672, 374, -23, 31, 40, -4, 4, 17, 976, 889, 45,m
2025-03-18 12:22:06.330,753, 383, 721, -15, 1, 7, -4, 6, 15, 966, 898, 35,m
2025-03-18 12:22:06.388,858, 682, 276, -12, -30, -15, -4, 6, 17, 972, 912, 46,m
2025-03-18 12:22:06.441,432, 739, 148, -8, 29, 41, -4, 6, 16, 979, 906, 27,m
2025-03-18 12:22:06.497,778, 523, 381, -19, 18, 19, -4, 6, 19, 977, 906, 57,m
2025-03-18 12:22:06.551,846, 725, 463, 0, -42, -27, -4, 6, 17, 972, 908, 41,m
2025-03-18 12:22:06.605,604, 918, 103, 3, 18, 37, -4, 6, 17, 980, 905, 43,m
2025-03-18 12:22:06.662,886, 142, 346, -30, 39, -32, -4, 6, 17, 971, 875, 47,m
2025-03-18 12:22:06.715,723, 475, 658, -25, 25, -48, -2, 6, 13, 939, 841, 49,m
2025-03-18 12:22:06.969,735, 508, 454, 2, -1, -9, -3, 3, 17, 901, 737, 23,n
2025-03-18 12:22:07.022,750, 519, 469, 0, -1, -11, -5, 5, 15, 904, 744, 50,n
2025-03-18 12:22:07.076,662, 527, 548, 6, -4, -8, -3, 4, 15, 907, 770, 45,n
2025-03-18 12:22:07.128,728, 601, 520, 0, -25, 5, -3, 4, 14, 931, 841, 55,n
2025-03-18 12:22:07.183,764, 487, 426, -1, 7, -1, -4, 3, 18, 964, 875, 47,n
2025-03-18 12:22:07.235,503, 636, 255, -6, 32, 41, -4, 6, 16, 970, 869, 57,n
2025-03-18 12:22:07.292,742, 543, 495, -25, 13, 12, -5, 5, 16, 958, 887, 52,n
2025-03-18 12:22:07.346,826, 595, 771, 7, -42, -10, -3, 6, 16, 964, 909, 66,n
2025-03-18 12:22:07.399,601, 618, 462, 19, -3, 13, -5, 5, 18, 976, 904, 26,n
2025-03-18 12:22:07.452,822, 581, 327, -6, 23, 30, -4, 2, 19, 981, 901, 51,n
2025-03-18 12:22:07.506,872, 117, 595, 0, 6, -19, -3, 5, 15, 958, 874, 45,n
2025-03-18 12:22:07.563,755, 615, 384, -36, 35, -39, -3, 6, 13, 922, 845, 58,n
2025-03-18 12:22:07.834,731, 478, 481, -1, -3, 0, -4, 7, 14, 922, 779, 44,o
2025-03-18 12:22:07.887,713, 479, 489, 1, -2, 0, -3, 4, 15, 924, 781, 32,o
2025-03-18 12:22:07.941,742, 498, 484, 2, -4, 2, -5, 7, 14, 920, 786, 28,o
2025-03-18 12:22:07.988,721, 487, 481, 5, -4, -1, -3, 4, 17, 924, 800, 53,o
2025-03-18 12:22:08.042,749, 503, 457, 0, -4, 2, -3, 5, 15, 924, 804, 41,o
2025-03-18 12:22:08.094,721, 492, 491, -2, -2, 1, -4, 5, 17, 929, 822, 32,o
2025-03-18 12:22:08.148,648, 509, 551, -1, -15, 3, -4, 4, 18, 937, 856, 66,o
2025-03-18 12:22:08.206,1049, 459, 493, -11, -1, -17, -3, 5, 16, 948, 877, 43,o
2025-03-18 12:22:08.259,974, 992, 150, 43, 9, 28, -4, 5, 17, 975, 885, 47,o
2025-03-18 12:22:08.316,565, 315, 438, -31, 15, 27, -3, 5, 16, 977, 910, 51,o
2025-03-18 12:22:08.370,711, 435, 566, 72, -35, -56, -4, 7, 16, 949, 902, 45,o
2025-03-18 12:22:08.427,753, 513, 281, -17, 60, -22, -5, 6, 16, 911, 848, 48,o
2025-03-18 12:22:08.726,722, 517, 460, 0, -2, 2, -3, 3, 16, 863, 730, 44,p
2025-03-18 12:22:08.780,720, 516, 463, 0, -2, 2, -3, 4, 16, 864, 731, 48,p
2025-03-18 12:22:08.833,713, 507, 496, 0, -4, 2, -3, 3, 16, 871, 739, 68,p
2025-03-18 12:22:08.886,738, 529, 414, -3, -4, -3, -5, 5, 16, 879, 748, 50,p
2025-03-18 12:22:08.939,738, 518, 460, -4, -2, -5, -4, 6, 14, 886, 777, 46,p
2025-03-18 12:22:08.996,736, 526, 529, -8, -14, -3, -4, 3, 17, 909, 835, 73,p
2025-03-18 12:22:09.050,829, 790, 501, 43, 6, 20, -2, 5, 18, 961, 856, 45,p
2025-03-18 12:22:09.103,723, 387, 494, -9, 23, 32, -4, 5, 17, 969, 837, 65,p
2025-03-18 12:22:09.156,723, -112, 704, 19, -6, -41, -4, 7, 15, 944, 870, 64,p
2025-03-18 12:22:09.214,644, 689, 300, -26, -26, -6, -4, 3, 17, 961, 902, 26,p
2025-03-18 12:22:09.268,879, 565, 286, 2, 22, 32, -4, 5, 19, 975, 890, 66,p
2025-03-18 12:22:09.321,935, 328, 373, -24, 33, -5, -3, 6, 17, 956, 784, 48,p
2025-03-18 12:22:09.615,721, 550, 451, -2, -3, 5, -5, 5, 16, 911, 796, 51,q
2025-03-18 12:22:09.668,733, 537, 462, -1, -2, 5, -5, 4, 15, 910, 794, 30,q
2025-03-18 12:22:09.722,756, 520, 453, 4, -3, 2, -5, 4, 16, 915, 815, 40,q
2025-03-18 12:22:09.771,724, 509, 473, 0, -2, 2, -3, 4, 17, 923, 833, 68,q
2025-03-18 12:22:09.824,709, 530, 488, -1, -7, 3, -5, 7, 17, 926, 846, 44,q
2025-03-18 12:22:09.880,625, 532, 451, -17, -4, -8, -4, 6, 17, 943, 874, 53,q
2025-03-18 12:22:09.934,617, 420, 544, 8, 2, -18, -3, 3, 18, 957, 876, 48,q
2025-03-18 12:22:09.988,878, 801, 100, -29, 30, 40, -2, 5, 18, 975, 880, 54,q
2025-03-18 12:22:10.044,577, 446, 539, -35, -1, 14, -3, 7, 16, 973, 908, 69,q
2025-03-18 12:22:10.098,662, 321, 644, 28, -13, -17, -4, 6, 16, 970, 907, 42,q
2025-03-18 12:22:10.151,834, 702, 223, -5, 22, 45, -3, 6, 16, 977, 897, 60,q
2025-03-18 12:22:10.204,831, 95, 587, -1, -5, -7, -5, 6, 17, 966, 895, 70,q
2025-03-18 12:22:10.512,736, 509, 476, 8, -10, 3, -4, 6, 15, 924, 846, 59,r
2025-03-18 12:22:10.561,746, 496, 445, 9, -9, 3, -4, 4, 18, 923, 842, 54,r
2025-03-18 12:22:10.614,754, 520, 440, -5, 3, -6, -5, 5, 16, 925, 836, 57,r
2025-03-18 12:22:10.668,721, 526, 490, -5, 0, -4, -4, 5, 17, 919, 828, 40,r
2025-03-18 12:22:10.721,750, 502, 454, -1, 1, -4, -5, 6, 17, 926, 832, 65,r
2025-03-18 12:22:10.774,719, 517, 482, 0, 0, 0, -4, 5, 16, 926, 831, 46,r
2025-03-18 12:22:10.823,728, 523, 467, 1, -2, 0, -4, 6, 15, 925, 832, 24,r
2025-03-18 12:22:10.877,724, 500, 472, 1, 0, 3, -5, 6, 16, 931, 838, 45,r
2025-03-18 12:22:10.930,721, 510, 455, -2, -2, -7, -4, 5, 16, 930, 847, 49,r
2025-03-18 12:22:10.983,669, 596, 639, -2, -22, 3, -4, 5, 18, 942, 874, 20,r
2025-03-18 12:22:11.037,790, 979, 283, 18, 24, 28, -4, 6, 18, 974, 886, 44,r
2025-03-18 12:22:11.093,682, 763, 281, -41, 18, 32, -3, 6, 18, 974, 886, 33,r
2025-03-18 12:22:11.151,660, 418, 676, 32, -33, -34, -2, 6, 17, 962, 909, 47,r
2025-03-18 12:22:11.204,808, 396, 180, -11, 51, -1, -5, 6, 17, 954, 877, 53,r
2025-03-18 12:22:11.258,529, 560, 873, -19, 16, -2, -5, 6, 14, 942, 840, 38,r
2025-03-18 12:22:11.528,678, 512, 545, 1, -2, 6, -4, 6, 15, 929, 809, 60,s
2025-03-18 12:22:11.581,696, 498, 541, 3, -5, 7, -5, 6, 16, 928, 806, 46,s
2025-03-18 12:22:11.634,765, 493, 450, 7, -10, 4, -5, 5, 17, 930, 812, 52,s
2025-03-18 12:22:11.683,744, 490, 469, 0, -1, 1, -4, 5, 17, 934, 832, 57,s
2025-03-18 12:22:11.737,711, 510, 504, -4, -9, 1, -4, 6, 16, 938, 847, 43,s
2025-03-18 12:22:11.794,875, 379, 364, -11, -5, -9, -4, 4, 17, 943, 871, 58,s
2025-03-18 12:22:11.847,672, 354, 525, 7, 3, -15, -4, 4, 16, 949, 878, 53,s
2025-03-18 12:22:11.896,862, 544, 338, 32, 9, 7, -4, 6, 16, 966, 896, 47,s
2025-03-18 12:22:11.949,668, 629, 524, 15, 9, 19, -4, 4, 18, 973, 896, 65,s
2025-03-18 12:22:12.003,755, 436, 413, 12, 16, 4, -3, 5, 16, 951, 857, 41,s
2025-03-18 12:22:12.060,869, 350, 322, -38, 52, -69, -3, 7, 13, 910, 776, 72,s
2025-03-18 12:22:12.114,559, 564, 830, -12, 2, -16, -2, 6, 12, 909, 820, 51,s
2025-03-18 12:22:12.171,618, 614, 536, 13, -19, 1, -2, 5, 14, 897, 828, 48,s
2025-03-18 12:22:12.224,743, 525, 452, 14, -23, 6, -2, 5, 15, 885, 836, 67,s
2025-03-18 12:22:12.278,710, 488, 475, -14, 5, -5, -3, 5, 14, 887, 842, 39,s
2025-03-18 12:22:13.285,690, 563, 474, -1, -4, 6, -5, 4, 16, 892, 784, 43,t
2025-03-18 12:22:13.338,711, 553, 470, 1, -3, 6, -5, 4, 16, 894, 784, 37,t
2025-03-18 12:22:13.392,723, 557, 446, 4, -3, 2, -6, 3, 18, 900, 790, 42,t
2025-03-18 12:22:13.445,705, 561, 446, -4, -4, 2, -4, 3, 18, 913, 817, 62,t
2025-03-18 12:22:13.498,676, 563, 473, -4, -10, 0, -4, 4, 17, 916, 834, 54,t
2025-03-18 12:22:13.555,742, 547, 399, -10, -18, -2, -6, 4, 18, 919, 861, 52,t
2025-03-18 12:22:13.608,826, 479, 432, -16, -5, -3, -5, 3, 18, 938, 884, 33,t
2025-03-18 12:22:13.662,603, 418, 426, 69, 23, -1, -3, 4, 20, 960, 876, 41,t
2025-03-18 12:22:13.718,948, 430, 136, -2, 23, 53, -4, 5, 18, 976, 899, 22,t
2025-03-18 12:22:13.772,684, 409, 726, -10, 8, 25, -2, 4, 16, 968, 900, 42,t
2025-03-18 12:22:13.824,438, 738, 319, 17, -15, -66, -4, 3, 18, 944, 878, 36,t
2025-03-18 12:22:13.882,835, 398, 257, 5, -8, -10, -3, 4, 18, 975, 916, 69,t
2025-03-18 12:22:13.936,680, 502, 459, 15, 1, 30, -5, 5, 17, 975, 911, 67,t
2025-03-18 12:22:13.989,697, 493, 327, -3, 37, -43, -4, 3, 18, 944, 843, 52,t
2025-03-18 12:22:14.244,702, 556, 454, -4, 3, -3, -4, 3, 16, 904, 759, 47,u
2025-03-18 12:22:14.297,693, 546, 469, -3, 3, -3, -4, 4, 16, 906, 762, 65,u
2025-03-18 12:22:14.350,706, 551, 454, -3, -3, 0, -4, 3, 16, 903, 757, 43,u
2025-03-18 12:22:14.403,728, 551, 441, -1, -6, 1, -4, 3, 18, 913, 784, 44,u
2025-03-18 12:22:14.456,688, 570, 582, -5, -19, 6, -5, 5, 17, 930, 838, 58,u
2025-03-18 12:22:14.510,858, 710, 388, 15, 15, 13, -5, 6, 18, 961, 862, 26,u
2025-03-18 12:22:14.563,629, 455, 367, -7, 11, 38, -3, 4, 18, 973, 892, 47,u
2025-03-18 12:22:14.620,723, 162, 766, -1, -32, -32, -3, 5, 16, 958, 900, 28,u
2025-03-18 12:22:14.674,774, 563, 523, 27, -11, -9, -4, 4, 17, 969, 895, 65,u
2025-03-18 12:22:14.726,709, 334, 442, 2, 22, 29, -3, 5, 18, 966, 869, 54,u
2025-03-18 12:22:14.784,698, 492, 434, -11, 18, -41, -4, 6, 16, 942, 842, 69,u
2025-03-18 12:22:15.050,717, 550, 470, 2, 0, 1, -4, 5, 18, 906, 748, 46,v
2025-03-18 12:22:15.104,723, 517, 454, 3, -1, -1, -3, 5, 15, 906, 744, 23,v
2025-03-18 12:22:15.157,718, 559, 466, 4, -3, -11, -2, 3, 16, 903, 748, 37,v
2025-03-18 12:22:15.211,661, 582, 484, -9, -17, -7, -2, 4, 17, 896, 766, 62,v
2025-03-18 12:22:15.267,770, 424, 382, -26, -3, -3, -3, 4, 18, 941, 872, 30,v
2025-03-18 12:22:15.320,664, 803, 307, 5, 26, 71, -5, 5, 19, 969, 871, 45,v
2025-03-18 12:22:15.373,765, 561, 308, -30, 7, 24, -4, 7, 15, 970, 894, 58,v
2025-03-18 12:22:15.431,716, 268, 704, 71, -25, -31, -4, 4, 18, 947, 897, 69,v
2025-03-18 12:22:15.485,738, 487, 197, -32, 46, -18, -4, 3, 17, 890, 671, 48,v
2025-03-18 12:22:15.542,533, 471, 764, -26, 21, -12, -3, 4, 13, 862, 493, 34,v
2025-03-18 12:22:15.792,698, 560, 479, 6, -3, -8, -3, 5, 14, 816, 631, 63,w
2025-03-18 12:22:15.844,697, 551, 480, 7, -4, -7, -3, 3, 17, 811, 633, 62,w
2025-03-18 12:22:15.898,709, 529, 440, 11, -7, -9, -4, 4, 16, 786, 668, 46,w
2025-03-18 12:22:15.956,642, 572, 498, -15, -9, -9, -4, 4, 17, 848, 759, 43,w
2025-03-18 12:22:16.008,745, 558, 548, -19, -17, -9, -3, 2, 16, 934, 852, 29,w
2025-03-18 12:22:16.063,772, 787, 345, -9, 22, 52, -4, 3, 20, 973, 878, 66,w
2025-03-18 12:22:16.119,675, 738, 467, -39, 9, 30, -3, 5, 17, 971, 900, 56,w
2025-03-18 12:22:16.172,766, 329, 678, 6, -29, -27, -3, 6, 16, 960, 909, 68,w
2025-03-18 12:22:16.226,807, 727, 321, 25, 4, 20, -5, 4, 17, 967, 880, 54,w
2025-03-18 12:22:16.278,763, 650, 433, -34, 8, 28, -5, 7, 18, 969, 900, 64,w
2025-03-18 12:22:16.332,979, 443, 89, 13, 20, -40, -5, 6, 17, 937, 867, 76,w
2025-03-18 12:22:16.610,717, 516, 505, 3, -12, 5, -4, 5, 16, 863, 644, 48,x
2025-03-18 12:22:16.663,728, 508, 483, 4, -13, 3, -4, 3, 15, 870, 681, 65,x
2025-03-18 12:22:16.717,708, 546, 498, 5, -17, 14, -6, 5, 16, 902, 798, 50,x
2025-03-18 12:22:16.771,666, 506, 458, -6, -23, 1, -2, 4, 18, 925, 853, 44,x
2025-03-18 12:22:16.823,681, 481, 381, -1, -7, -14, -4, 3, 19, 950, 874, 47,x
2025-03-18 12:22:16.877,879, 685, 83, 45, 24, -2, -5, 4, 18, 950, 799, 38,x
2025-03-18 12:22:16.930,788, 596, 305, -52, 35, 7, -5, 5, 16, 870, 650, 49,x
2025-03-18 12:22:16.987,580, 953, 667, 51, -45, -8, -3, 3, 18, 915, 852, 49,x
2025-03-18 12:22:17.041,810, 900, 24, -42, 8, 53, -3, 3, 20, 977, 904, 47,x
2025-03-18 12:22:17.094,708, 282, 665, -3, 11, 10, -4, 6, 16, 964, 851, 56,x
2025-03-18 12:22:17.152,761, 608, 310, 26, 20, -56, -5, 4, 17, 871, 736, 68,x
2025-03-18 12:22:17.394,661, 534, 513, -11, -8, 0, -3, 3, 17, 919, 791, 42,y
2025-03-18 12:22:17.450,647, 546, 539, -10, -13, 2, -4, 7, 15, 922, 794, 49,y
2025-03-18 12:22:17.505,717, 519, 475, -10, -20, 5, -4, 4, 18, 935, 845, 63,y
2025-03-18 12:22:17.557,726, 507, 512, -15, 2, -3, -4, 4, 20, 952, 873, 66,y
2025-03-18 12:22:17.614,503, 1055, 134, 13, 21, 57, -5, 4, 16, 977, 895, 63,y
2025-03-18 12:22:17.668,618, 448, 541, -19, 14, 29, -5, 6, 14, 965, 891, 50,y
2025-03-18 12:22:17.724,643, 723, 511, 37, -16, -21, -4, 5, 17, 929, 873, 28,y
2025-03-18 12:22:17.777,595, 911, 166, 5, 22, 31, -5, 4, 17, 970, 903, 66,y
2025-03-18 12:22:17.831,820, 557, 263, -35, 31, 33, -5, 7, 17, 971, 884, 32,y
2025-03-18 12:22:17.888,1053, 157, 489, 27, 10, -85, -3, 4, 17, 917, 837, 72,y
2025-03-18 12:22:17.942,522, 439, 748, -20, 8, -23, -2, 4, 14, 886, 862, 43,y
2025-03-18 12:22:18.188,712, 525, 498, -7, -2, 1, -4, 5, 16, 901, 819, 62,z
2025-03-18 12:22:18.241,718, 515, 500, -7, -3, 1, -3, 3, 15, 902, 819, 64,z
2025-03-18 12:22:18.295,697, 507, 504, -2, -6, 3, -4, 6, 14, 910, 825, 45,z
2025-03-18 12:22:18.347,709, 492, 504, 1, -15, 0, -4, 4, 16, 920, 842, 65,z
2025-03-18 12:22:18.400,696, 526, 449, -20, -12, -8, -4, 5, 18, 931, 839, 41,z
2025-03-18 12:22:18.457,1025, 591, 615, 37, -19, 3, -4, 6, 17, 964, 907, 54,z
2025-03-18 12:22:18.512,662, 513, 444, 29, -5, 23, -5, 5, 17, 975, 907, 38,z
2025-03-18 12:22:18.564,529, 508, 334, 3, 25, 9, -6, 6, 18, 970, 889, 35,z
2025-03-18 12:22:18.613,875, 531, 500, 4, 9, 20, -3, 4, 18, 974, 898, 46,z
2025-03-18 12:22:18.667,762, 529, 508, 1, -8, 14, -5, 5, 17, 975, 912, 64,z
2025-03-18 12:22:18.724,679, 323, 311, 21, 13, -59, -3, 6, 16, 944, 859, 25,z
2025-03-18 12:22:18.782,867, 764, 813, -11, -23, 12, -3, 5, 17, 951, 862, 52,z
2025-03-18 12:22:18.835,631, 408, 342, -34, -17, 30, -5, 7, 18, 980, 917, 57,z
2025-03-18 12:22:18.889,827, 266, 348, 25, 9, -11, -5, 6, 17, 960, 886, 71,z
2025-03-18 12:22:18.946,638, 670, 348, -41, 65, -52, -3, 3, 15, 880, 703, 68,z
2025-03-18 12:22:19.207,699, 528, 506, -9, 0, -9, -4, 2, 16, 888, 765, 54,0
2025-03-18 12:22:19.261,697, 528, 517, -9, -2, -9, -3, 4, 14, 888, 762, 41,0
2025-03-18 12:22:19.314,727, 527, 469, 8, -8, -4, -4, 5, 15, 896, 770, 52,0
2025-03-18 12:22:19.371,735, 548, 445, 14, -4, -13, -6, 4, 15, 901, 760, 42,0
2025-03-18 12:22:19.424,805, 449, 551, 8, -7, -44, -4, 1, 15, 914, 760, 67,0
2025-03-18 12:22:19.482,634, 568, 490, 3, -11, -48, -4, -1, 18, 915, 753, 67,0
2025-03-18 12:22:19.539,625, 695, 497, -3, -20, -25, -4, -1, 17, 909, 707, 35,0
2025-03-18 12:22:19.592,568, 746, 362, 13, -10, -2, -5, 0, 18, 923, 756, 55,0
2025-03-18 12:22:19.646,652, 651, 425, 4, -2, 53, -4, 0, 17, 939, 827, 59,0
2025-03-18 12:22:19.699,726, 611, 380, -2, 0, 48, -6, 1, 19, 945, 844, 35,0
2025-03-18 12:22:19.752,749, 521, 375, -13, -8, 9, -6, 3, 19, 951, 861, 68,0
2025-03-18 12:22:19.806,691, 524, 482, -3, -8, 11, -4, 3, 20, 951, 867, 66,0
2025-03-18 12:22:19.863,703, 494, 465, -16, -17, -3, -5, 2, 20, 956, 886, 67,0
2025-03-18 12:22:19.915,746, 431, 291, -16, 4, -7, -2, 3, 20, 962, 900, 27,0
2025-03-18 12:22:19.969,539, 362, 576, 2, -2, -18, -5, 5, 20, 966, 901, 45,0
2025-03-18 12:22:20.027,1280, 496, 350, 17, 44, 52, -5, 4, 17, 978, 896, 22,0
2025-03-18 12:22:20.079,581, 469, 458, -57, 15, 44, -4, 4, 18, 980, 916, 54,0
2025-03-18 12:22:20.137,712, 465, 503, 65, -42, -57, -6, 5, 18, 955, 910, 62,0
2025-03-18 12:22:20.194,933, 607, 125, -18, 60, -21, -6, 3, 18, 915, 836, 36,0
2025-03-18 12:22:20.490,714, 556, 417, -7, -3, -2, -5, 3, 19, 909, 788, 47,1
2025-03-18 12:22:20.543,720, 544, 434, -7, -1, -3, -5, 6, 18, 910, 792, 40,1
2025-03-18 12:22:20.596,599, 543, 524, 4, -12, 6, -5, 4, 18, 916, 803, 43,1
2025-03-18 12:22:20.653,891, 471, 240, -5, -9, -16, -5, 3, 19, 935, 861, 45,1
2025-03-18 12:22:20.707,846, 667, 560, -41, -15, 28, -5, 3, 18, 960, 906, 45,1
2025-03-18 12:22:20.759,658, 393, 628, 27, -9, 4, -5, 3, 19, 976, 908, 72,1
2025-03-18 12:22:20.812,1171, 872, 204, 2, 41, 40, -6, 6, 18, 977, 902, 50,1
2025-03-18 12:22:20.866,716, 300, 561, 1, 26, 1, -4, 6, 16, 964, 843, 38,1
2025-03-18 12:22:20.919,708, 665, 783, 10, -24, 8, -3, 3, 18, 959, 862, 51,1
2025-03-18 12:22:20.977,956, 752, 462, -24, -16, 43, -5, 5, 17, 978, 911, 42,1
2025-03-18 12:22:21.030,889, 203, 259, 5, 29, -47, -3, 6, 17, 961, 871, 56,1
2025-03-18 12:22:21.305,701, 524, 486, -6, 0, -6, -5, 4, 17, 908, 787, 43,2
2025-03-18 12:22:21.358,691, 533, 483, -4, 0, -7, -4, 4, 17, 909, 782, 49,2
2025-03-18 12:22:21.412,664, 525, 481, -3, -8, -8, -5, 5, 16, 911, 769, 66,2
2025-03-18 12:22:21.468,769, 548, 487, 11, -23, 0, -4, 5, 18, 924, 830, 62,2
2025-03-18 12:22:21.522,736, 930, 382, -14, -21, 33, -4, 2, 20, 967, 902, 67,2
2025-03-18 12:22:21.579,771, 628, 453, 50, 12, 21, -3, 3, 20, 972, 891, 46,2
2025-03-18 12:22:21.633,694, 402, 335, -40, 28, -3, -5, 3, 20, 963, 861, 22,2
2025-03-18 12:22:21.686,896, 716, 542, -15, -1, 30, -4, 5, 17, 979, 917, 53,2
2025-03-18 12:22:21.742,855, 325, 317, 19, 4, -10, -5, 6, 18, 969, 899, 77,2
2025-03-18 12:22:22.030,719, 578, 387, -15, -6, -5, -4, 3, 18, 919, 840, 48,3
2025-03-18 12:22:22.087,709, 570, 396, -22, -3, -6, -5, 4, 16, 921, 839, 45,3
2025-03-18 12:22:22.141,629, 551, 637, -2, -34, 4, -5, 5, 18, 929, 849, 42,3
2025-03-18 12:22:22.194,800, 517, 236, -20, 1, -3, -5, 5, 20, 955, 893, 69,3
2025-03-18 12:22:22.247,705, 526, 451, -4, -6, 22, -4, 6, 19, 970, 904, 42,3
2025-03-18 12:22:22.301,586, 850, 305, 13, 14, 20, -4, 5, 18, 972, 903, 69,3
2025-03-18 12:22:22.353,885, 567, 156, -3, 12, 7, -5, 4, 19, 973, 904, 48,3
2025-03-18 12:22:22.407,586, 666, 524, -2, 8, 19, -6, 6, 18, 977, 911, 41,3
2025-03-18 12:22:22.464,687, 513, 265, -4, 19, 13, -3, 5, 18, 971, 893, 47,3
2025-03-18 12:22:22.516,1018, 327, 530, 3, 19, -17, -2, 5, 16, 948, 860, 76,3
2025-03-18 12:22:22.574,609, 540, 607, -22, 25, -32, -3, 6, 17, 929, 852, 31,3
2025-03-18 12:22:22.816,689, 541, 525, -4, -10, 4, -4, 6, 15, 913, 790, 34,4
2025-03-18 12:22:22.869,692, 523, 531, -1, -12, 6, -4, 6, 15, 916, 792, 31,4
2025-03-18 12:22:22.923,721, 515, 443, 5, -12, 1, -7, 6, 16, 915, 808, 47,4
2025-03-18 12:22:22.980,728, 522, 476, -1, -16, -5, -4, 4, 18, 922, 825, 49,4
2025-03-18 12:22:23.033,711, 534, 422, -16, -15, -2, -4, 3, 18, 935, 858, 46,4
2025-03-18 12:22:23.090,728, 644, 531, -4, -18, -10, -6, 5, 18, 961, 891, 46,4
2025-03-18 12:22:23.144,715, 552, 330, 34, 16, 1, -5, 4, 19, 969, 873, 62,4
2025-03-18 12:22:23.192,884, 468, 229, 2, 8, 3, -4, 4, 19, 971, 877, 32,4
2025-03-18 12:22:23.250,653, 636, 458, -16, -12, 58, -4, 4, 19, 979, 915, 50,4
2025-03-18 12:22:23.307,732, 299, 545, 15, -6, -12, -6, 7, 18, 964, 898, 38,4
2025-03-18 12:22:23.361,706, 687, 538, -24, -3, -11, -5, 5, 20, 960, 897, 67,4
2025-03-18 12:22:23.417,707, 583, 184, 39, 26, 30, -5, 3, 21, 977, 901, 65,4
2025-03-18 12:22:23.467,831, 115, 324, 9, 27, 33, -5, 6, 17, 972, 851, 43,4
2025-03-18 12:22:23.524,858, 308, 362, 4, 34, -71, -3, 4, 16, 928, 783, 47,4
2025-03-18 12:22:23.774,729, 520, 482, 0, -3, 0, -4, 4, 17, 920, 816, 42,5
2025-03-18 12:22:23.827,710, 502, 472, 1, -3, -2, -5, 5, 16, 921, 816, 49,5
2025-03-18 12:22:23.881,686, 517, 512, -8, -3, -10, -2, 5, 17, 918, 801, 61,5
2025-03-18 12:22:23.934,709, 550, 612, 6, -32, 11, -4, 5, 18, 934, 821, 64,5
2025-03-18 12:22:23.987,751, 761, 49, -23, -4, 20, -4, 5, 17, 962, 895, 60,5
2025-03-18 12:22:24.040,584, 371, 630, 11, -9, 0, -4, 7, 17, 956, 892, 62,5
2025-03-18 12:22:24.098,791, 492, 395, 59, 6, -18, -5, 4, 20, 947, 834, 41,5
2025-03-18 12:22:24.152,645, 776, 237, -13, 36, 44, -3, 4, 19, 973, 895, 49,5
2025-03-18 12:22:24.205,639, 541, 483, 2, 12, 18, -5, 5, 17, 972, 887, 23,5
2025-03-18 12:22:24.257,913, 291, 473, 29, 12, -25, -4, 5, 18, 914, 761, 74,5
2025-03-18 12:22:24.564,690, 520, 458, 6, -24, 15, -4, 4, 19, 923, 841, 43,6
2025-03-18 12:22:24.622,762, 456, 387, -3, -18, 10, -4, 5, 18, 927, 842, 50,6
2025-03-18 12:22:24.680,1047, 424, 333, -13, -2, -9, -4, 6, 18, 935, 861, 36,6
2025-03-18 12:22:24.732,722, 410, 577, -9, -1, -14, -5, 5, 18, 949, 882, 47,6
2025-03-18 12:22:24.786,776, 602, 347, 56, 38, 7, -5, 3, 18, 966, 875, 46,6
2025-03-18 12:22:24.840,808, 873, 89, -12, 35, 65, -3, 5, 19, 978, 905, 63,6
2025-03-18 12:22:24.897,555, 188, 998, -8, -15, -6, -4, 4, 18, 969, 908, 65,6
2025-03-18 12:22:24.950,843, 658, 382, 43, -6, -33, -4, 6, 16, 915, 856, 28,6
2025-03-18 12:22:25.007,736, 479, 305, -40, 61, -26, -2, 5, 15, 911, 773, 60,6
2025-03-18 12:22:25.282,671, 526, 454, 4, -14, 4, -5, 3, 18, 909, 767, 47,7
2025-03-18 12:22:25.335,668, 517, 494, 5, -16, 5, -4, 4, 18, 910, 769, 42,7
2025-03-18 12:22:25.388,765, 286, 268, 6, -6, -19, -4, 5, 18, 926, 819, 62,7
2025-03-18 12:22:25.442,901, 952, 440, -30, -12, 35, -5, 4, 18, 959, 889, 31,7
2025-03-18 12:22:25.494,557, 440, 724, 41, 4, 17, -4, 3, 20, 972, 894, 28,7
2025-03-18 12:22:25.552,496, 663, 226, -4, 32, 35, -6, 4, 17, 975, 885, 65,7
2025-03-18 12:22:25.604,767, 95, 510, -36, 24, -42, -4, 7, 15, 956, 841, 65,7
2025-03-18 12:22:25.658,827, 679, 640, 13, -53, 21, -6, 5, 16, 962, 881, 68,7
2025-03-18 12:22:25.712,815, 593, 374, -7, 2, 40, -6, 6, 17, 977, 908, 23,7
2025-03-18 12:22:25.768,856, 209, 310, 5, 27, -36, -4, 4, 17, 962, 873, 73,7
2025-03-18 12:22:25.822,645, 584, 602, -58, 65, -33, -5, 5, 15, 908, 711, 49,7
2025-03-18 12:22:26.060,697, 522, 508, -6, -2, -2, -3, 4, 15, 873, 627, 45,8
2025-03-18 12:22:26.117,686, 518, 505, -5, -3, -2, -5, 6, 14, 879, 644, 47,8
2025-03-18 12:22:26.166,696, 521, 511, 0, -3, 3, -4, 5, 14, 881, 673, 42,8
2025-03-18 12:22:26.221,702, 528, 511, -1, 0, 1, -3, 5, 14, 882, 688, 45,8
2025-03-18 12:22:26.269,700, 511, 507, 0, 0, 1, -3, 5, 14, 882, 688, 43,8
2025-03-18 12:22:26.322,711, 527, 497, -4, 0, -1, -5, 5, 15, 887, 680, 48,8
2025-03-18 12:22:26.375,707, 515, 516, -2, 1, -2, -3, 4, 14, 887, 669, 51,8
2025-03-18 12:22:26.428,674, 528, 529, 2, -4, 7, -3, 4, 16, 898, 698, 37,8
2025-03-18 12:22:26.482,726, 557, 504, 13, -16, 28, -4, 6, 15, 926, 792, 70,8
2025-03-18 12:22:26.539,722, 394, 473, 15, -40, 10, -5, 6, 16, 943, 838, 24,8
2025-03-18 12:22:26.592,653, 487, 461, -22, 2, -29, -5, 4, 18, 956, 871, 57,8
2025-03-18 12:22:26.650,1079, 838, 238, 12, 22, 43, -3, 5, 20, 975, 891, 68,8
2025-03-18 12:22:26.702,531, 576, 729, -24, -1, 15, -5, 7, 16, 975, 907, 31,8
2025-03-18 12:22:26.760,585, 691, 412, 2, -41, -77, -5, 5, 16, 958, 913, 47,8
2025-03-18 12:22:26.813,612, 645, 478, 5, -14, 6, -5, 4, 19, 976, 917, 61,8
2025-03-18 12:22:26.863,708, 503, 326, 7, 16, 32, -5, 7, 18, 970, 884, 51,8
2025-03-18 12:22:27.158,708, 451, 469, -3, -13, 8, -4, 4, 18, 942, 847, 29,9
2025-03-18 12:22:27.211,698, 468, 476, -2, -13, 6, -6, 5, 18, 942, 848, 23,9
2025-03-18 12:22:27.264,666, 559, 450, -15, -5, -9, -5, 6, 18, 950, 877, 42,9
2025-03-18 12:22:27.321,627, 382, 545, 17, -5, -21, -5, 4, 19, 960, 877, 43,9
2025-03-18 12:22:27.375,1017, 852, 125, -1, 41, 48, -4, 4, 19, 975, 895, 66,9
2025-03-18 12:22:27.428,707, 474, 604, -9, 8, 24, -3, 6, 16, 968, 892, 32,9
2025-03-18 12:22:27.485,810, 578, 419, 37, -11, -15, -5, 7, 17, 955, 879, 65,9
2025-03-18 12:22:27.539,525, 740, 232, -16, 31, 41, -5, 5, 16, 971, 891, 49,9
2025-03-18 12:22:27.591,883, 303, 380, -8, 25, -6, -3, 6, 17, 947, 828, 56,9
2025-03-18 12:22:27.886,694, 530, 479, 5, -10, 0, -1, 4, 18, 878, 734, 68,+
2025-03-18 12:22:27.937,693, 526, 467, 6, -9, 0, -2, 5, 14, 877, 737, 68,+
2025-03-18 12:22:27.989,700, 527, 487, 2, -3, 0, -3, 3, 16, 876, 764, 66,+
2025-03-18 12:22:28.043,690, 539, 479, 0, -4, 0, -4, 5, 15, 881, 771, 53,+
2025-03-18 12:22:28.096,707, 495, 487, 6, -8, -2, -3, 4, 16, 883, 762, 35,+
2025-03-18 12:22:28.148,723, 554, 443, -3, -4, -1, -4, 3, 16, 891, 751, 68,+
2025-03-18 12:22:28.202,758, 561, 475, 4, -5, 1, -4, 5, 16, 895, 743, 51,+
2025-03-18 12:22:28.255,704, 524, 446, -3, 3, -4, -2, 4, 17, 903, 752, 52,+
2025-03-18 12:22:28.305,721, 523, 479, 2, -3, -1, -4, 4, 17, 900, 763, 64,+
2025-03-18 12:22:28.358,714, 561, 432, -8, 2, -5, -4, 4, 17, 902, 763, 36,+
2025-03-18 12:22:28.416,712, 587, 485, -6, -18, -7, -4, 4, 18, 906, 788, 60,+
2025-03-18 12:22:28.472,714, 522, 568, -19, -21, 13, -4, 3, 18, 944, 869, 47,+
2025-03-18 12:22:28.524,594, 753, 320, 45, 27, 40, -5, 5, 18, 974, 884, 48,+
2025-03-18 12:22:28.579,821, 737, 227, -16, 29, 36, -3, 6, 16, 969, 860, 60,+
2025-03-18 12:22:28.636,602, 92, 772, 13, -16, -85, -4, 6, 15, 921, 780, 50,+
2025-03-18 12:22:28.689,952, 861, 624, -11, -29, 15, -2, 3, 18, 970, 908, 51,+
2025-03-18 12:22:28.743,737, 481, 550, 6, 9, 35, -5, 4, 20, 964, 897, 67,+
2025-03-18 12:22:28.800,605, 586, 293, -11, 56, -53, -3, 5, 17, 916, 779, 64,+
2025-03-18 12:22:29.078,779, 562, 432, 2, -3, 5, -4, 3, 18, 915, 778, 67,-
2025-03-18 12:22:29.132,747, 573, 454, -1, -2, 8, -4, 5, 16, 916, 781, 65,-
2025-03-18 12:22:29.185,732, 552, 527, 11, -7, 21, -4, 4, 18, 926, 808, 64,-
2025-03-18 12:22:29.238,729, 512, 358, 2, -5, 12, -3, 4, 17, 935, 817, 52,-
2025-03-18 12:22:29.292,707, 494, 519, -2, -7, 14, -4, 5, 18, 950, 842, 39,-
2025-03-18 12:22:29.345,755, 501, 393, -4, -3, 4, -5, 7, 18, 953, 854, 43,-
2025-03-18 12:22:29.398,765, 504, 456, -6, -4, 7, -5, 5, 18, 958, 863, 71,-
2025-03-18 12:22:29.451,760, 488, 443, -6, -2, 2, -5, 5, 18, 959, 864, 50,-
2025-03-18 12:22:29.505,735, 469, 460, -3, -1, -2, -5, 5, 19, 960, 866, 41,-
2025-03-18 12:22:29.561,778, 438, 527, -10, -4, -23, -6, 5, 17, 965, 865, 67,-
2025-03-18 12:22:29.615,873, 454, 389, -4, -1, -2, -7, 7, 18, 971, 900, 51,-
2025-03-18 12:22:29.672,649, 461, 470, -4, -27, 34, -4, 6, 21, 978, 910, 259,-
2025-03-18 12:22:29.726,761, 471, 434, 23, -2, -1, -6, 7, 21, 965, 875, 57,-
2025-03-18 12:22:29.783,820, 573, 306, -23, 40, -45, -6, 6, 20, 941, 793, 39,-
2025-03-18 12:22:30.058,730, 413, 408, -8, 13, -87, -4, 0, 17, 882, 702, 45,÷
2025-03-18 12:22:30.115,694, 430, 436, -6, 15, -93, -5, 4, 16, 866, 683, 50,÷
2025-03-18 12:22:30.168,670, 584, 485, -6, -3, -98, -5, -1, 18, 819, 495, 63,÷
2025-03-18 12:22:30.230,483, 709, 568, -17, -15, -49, -5, -3, 18, 846, 493, 55,÷
2025-03-18 12:22:30.286,438, 765, 484, -15, -27, 34, -5, -3, 18, 909, 695, 66,÷
2025-03-18 12:22:30.340,669, 663, 422, 3, -18, 74, -6, -1, 21, 927, 739, 63,÷
2025-03-18 12:22:30.393,668, 621, 357, -3, -2, 59, -7, 0, 20, 936, 788, 38,÷
2025-03-18 12:22:30.446,789, 463, 458, -2, -1, 32, -7, 4, 19, 940, 810, 68,÷
2025-03-18 12:22:30.503,712, 557, 445, -5, -2, 27, -8, 6, 18, 943, 824, 44,÷
2025-03-18 12:22:30.557,761, 488, 433, 1, -4, 13, -7, 5, 18, 948, 846, 67,÷
2025-03-18 12:22:30.606,738, 510, 438, -6, 0, 7, -7, 2, 20, 952, 851, 46,÷
2025-03-18 12:22:30.659,768, 499, 453, 2, -3, 8, -6, 4, 19, 954, 852, 43,÷
2025-03-18 12:22:30.713,747, 516, 413, -9, 0, 1, -7, 5, 18, 958, 862, 63,÷
2025-03-18 12:22:30.766,655, 514, 489, -9, -5, 4, -7, 5, 20, 959, 867, 51,÷
2025-03-18 12:22:30.819,894, 209, 143, 24, -45, -34, -7, 6, 21, 968, 889, 59,÷
2025-03-18 12:22:30.876,1174, 545, 457, 48, 30, 16, -6, 4, 24, 959, 848, 34,÷
2025-03-18 12:22:30.930,232, 515, 897, -8, 45, 43, -6, 5, 20, 962, 794, 66,÷
2025-03-18 12:22:30.987,819, 1032, -84, -4, -20, -2, -5, 7, 21, 964, 837, 34,÷
2025-03-18 12:22:31.040,873, 227, 654, 0, 31, -11, -7, 7, 19, 949, 812, 45,÷
2025-03-18 12:22:31.094,494, 614, 664, -13, 12, -13, -5, 6, 18, 942, 767, 50,÷
2025-03-18 12:22:31.151,901, 793, 457, 26, -24, -8, -6, 7, 19, 969, 880, 44,÷
2025-03-18 12:22:31.204,661, 588, 299, -12, 3, 43, -6, 7, 20, 974, 893, 68,÷
2025-03-18 12:22:31.257,892, 333, 67, -7, 79, -74, -6, 7, 20, 948, 833, 66,÷
2025-03-18 12:22:31.315,628, 532, 555, -94, 139, -64, -4, 5, 14, 843, 599, 72,÷
2025-03-18 12:22:31.597,296, 720, 780, -47, 71, -82, -2, 7, -4, 638, 540, 231,=
2025-03-18 12:22:31.655,270, 735, 831, -56, 72, -67, -2, 6, -6, 662, 572, 232,=
2025-03-18 12:22:31.712,27, 598, 1067, -18, 31, 20, -1, 7, -11, 779, 664, 269,=
2025-03-18 12:22:31.774,-41, 533, 1201, 108, -134, 154, -2, 7, -10, 767, 646, 47,=
2025-03-18 12:22:31.831,419, 286, 316, 109, -125, 205, -4, 3, 2, 697, 526, 62,=
2025-03-18 12:22:31.884,800, 264, 422, 84, -85, 60, -6, 4, 9, 660, 576, 43,=
2025-03-18 12:22:31.941,794, 575, 168, 56, -28, -2, -5, 4, 12, 729, 537, 58,=
2025-03-18 12:22:31.995,785, 560, 509, -20, 16, -24, -5, 4, 13, 802, 640, 67,=
2025-03-18 12:22:32.052,658, 948, 242, -57, 15, -8, -4, 2, 14, 853, 669, 28,=
2025-03-18 12:22:32.105,653, 532, 702, 31, -22, 6, -4, 3, 13, 888, 715, 69,=
2025-03-18 12:22:32.158,706, 480, 315, -2, -10, 5, -4, 2, 15, 895, 719, 48,=
2025-03-18 12:22:32.212,767, 624, 321, -13, 6, -9, -3, 3, 12, 908, 742, 65,=
2025-03-18 12:22:32.264,617, 606, 585, 1, 4, 0, -4, 3, 14, 914, 764, 33,=
2025-03-18 12:22:32.318,717, 560, 402, 5, -15, 3, -5, 3, 13, 915, 770, 58,=
2025-03-18 12:22:32.371,724, 605, 396, -7, 11, 3, -5, 3, 15, 920, 768, 51,=
2025-03-18 12:22:32.420,687, 558, 473, 5, 1, -2, -4, 1, 16, 919, 757, 59,=
2025-03-18 12:22:32.474,685, 578, 430, -3, 11, 0, -5, 4, 12, 920, 715, 65,=
2025-03-18 12:22:32.527,685, 601, 443, -7, 6, 0, -4, 3, 14, 913, 694, 42,=
2025-03-18 12:22:32.581,664, 575, 441, -1, 0, 2, -4, 2, 13, 918, 719, 61,=
2025-03-18 12:22:32.633,729, 557, 441, 0, -6, -3, -5, 3, 13, 919, 756, 72,=
2025-03-18 12:22:32.687,664, 579, 472, 2, -10, 3, -5, 3, 15, 923, 785, 38,=
2025-03-18 12:22:32.739,743, 611, 398, 8, -8, -13, -4, 2, 15, 930, 827, 56,=
2025-03-18 12:22:32.793,708, 540, 418, -4, 3, -1, -5, 3, 16, 939, 844, 55,=
2025-03-18 12:22:32.846,706, 616, 415, 1, -3, -3, -3, 2, 16, 947, 864, 65,=
2025-03-18 12:22:32.896,703, 575, 422, -5, 0, 0, -4, 3, 15, 951, 871, 50,=
2025-03-18 12:22:32.949,843, 583, 507, 13, -7, -1, -3, 2, 16, 961, 884, 40,=
2025-03-18 12:22:33.002,702, 501, 364, -6, 0, 7, -4, 2, 17, 970, 901, 49,=
2025-03-18 12:22:33.056,698, 523, 414, -8, 0, 0, -5, 5, 16, 972, 904, 67,=
2025-03-18 12:22:33.109,718, 571, 467, 7, 0, -3, -5, 5, 16, 977, 909, 42,=
2025-03-18 12:22:33.158,714, 579, 444, -5, -5, 9, -3, 3, 17, 977, 911, 52,=
2025-03-18 12:22:33.216,564, 439, 336, -11, -9, 19, -6, 5, 17, 975, 911, 68,=
2025-03-18 12:22:33.269,699, 562, 421, 24, -2, -5, -6, 4, 16, 956, 872, 74,=
2025-03-18 12:22:33.326,557, 629, 480, -34, 30, -30, -4, 4, 16, 931, 744, 41,=
2025-03-18 12:22:33.383,837, 993, 309, -27, -17, 12, -4, 4, 16, 968, 889, 55,=
2025-03-18 12:22:33.437,593, 483, 433, -21, 6, 23, -5, 6, 16, 968, 900, 49,=
2025-03-18 12:22:33.490,811, 368, 305, -3, 42, -29, -4, 4, 16, 914, 818, 36,=
2025-03-18 12:22:33.801,701, 559, 479, -3, -4, 1, -5, 3, 13, 850, 670, 44,≠
2025-03-18 12:22:33.850,686, 557, 481, 0, -4, 2, -4, 5, 12, 852, 681, 40,≠
2025-03-18 12:22:33.903,708, 544, 464, 6, -7, 5, -4, 4, 14, 864, 705, 47,≠
2025-03-18 12:22:33.957,712, 552, 456, 0, -3, 0, -5, 6, 13, 870, 733, 57,≠
2025-03-18 12:22:34.010,707, 558, 450, -1, -3, 1, -4, 7, 14, 874, 746, 47,≠
2025-03-18 12:22:34.064,710, 532, 447, -2, -3, -1, -4, 3, 14, 885, 766, 44,≠
2025-03-18 12:22:34.116,713, 545, 461, -4, -3, -3, -5, 5, 12, 888, 772, 28,≠
2025-03-18 12:22:34.170,662, 551, 452, -9, 0, -8, -4, 5, 14, 894, 736, 43,≠
2025-03-18 12:22:34.227,1020, 180, 449, -63, -13, -18, -3, 4, 15, 927, 812, 45,≠
2025-03-18 12:22:34.284,693, 694, 119, -34, -12, 33, -5, 5, 14, 970, 903, 55,≠
2025-03-18 12:22:34.337,671, 487, 603, 21, -3, 15, -6, 5, 17, 960, 883, 71,≠
2025-03-18 12:22:34.395,611, 468, 354, -23, 48, -14, -4, 7, 14, 925, 715, 38,≠
2025-03-18 12:22:34.452,895, -93, 443, 63, -16, -28, -4, 5, 15, 927, 767, 52,≠
2025-03-18 12:22:34.505,982, 878, 318, -30, -19, 49, -3, 3, 17, 966, 901, 74,≠
2025-03-18 12:22:34.562,808, 195, 338, -29, 29, -11, -4, 5, 15, 949, 876, 62,≠
2025-03-18 12:22:34.620,546, 676, 970, -6, -26, -10, -2, 4, 13, 937, 870, 24,≠
2025-03-18 12:22:34.673,686, 936, 554, -7, -20, -14, -7, 7, 14, 971, 906, 69,≠
2025-03-18 12:22:34.726,978, 762, 415, 19, 42, 24, -5, 6, 15, 977, 891, 45,≠
2025-03-18 12:22:34.779,985, 325, 269, 3, 39, -1, -3, 6, 14, 950, 796, 25,≠
2025-03-18 12:22:34.837,604, 668, 438, -41, 61, -63, -5, 6, 13, 882, 803, 78,≠
2025-03-18 12:22:35.123,697, 501, 534, 11, -15, 7, -4, 7, 10, 896, 767, 52,≈
2025-03-18 12:22:35.177,704, 524, 527, 10, -15, 7, -3, 7, 11, 896, 777, 73,≈
2025-03-18 12:22:35.231,737, 505, 462, 3, -6, 0, -3, 7, 11, 900, 776, 58,≈
2025-03-18 12:22:35.283,697, 494, 510, -5, 4, -7, -4, 6, 14, 899, 765, 23,≈
2025-03-18 12:22:35.337,658, 525, 535, -5, -1, -5, -3, 7, 10, 901, 747, 68,≈
2025-03-18 12:22:35.390,759, 435, 564, 14, -30, 0, -4, 7, 12, 916, 761, 45,≈
2025-03-18 12:22:35.443,757, 519, 372, -10, 9, 0, -4, 5, 14, 933, 854, 70,≈
2025-03-18 12:22:35.501,604, 621, 585, -12, -21, 13, -4, 7, 13, 958, 895, 29,≈
2025-03-18 12:22:35.554,588, 562, 376, -13, -5, 17, -6, 6, 13, 973, 907, 73,≈
2025-03-18 12:22:35.608,720, 452, 494, 13, -3, 9, -4, 8, 13, 973, 902, 43,≈
2025-03-18 12:22:35.661,675, 435, 382, -8, 43, -14, -3, 6, 14, 959, 838, 70,≈
2025-03-18 12:22:35.718,628, 562, 795, -1, -6, -1, -2, 6, 13, 941, 707, 55,≈
2025-03-18 12:22:35.771,750, 893, 363, -9, -5, -3, -4, 7, 13, 960, 874, 70,≈
2025-03-18 12:22:35.828,759, 655, 416, -11, -15, 20, -2, 6, 12, 975, 902, 69,≈
2025-03-18 12:22:35.878,735, 519, 432, 8, 4, 19, -5, 5, 14, 973, 890, 37,≈
2025-03-18 12:22:35.935,842, 302, 340, -21, 48, -36, -4, 6, 12, 952, 840, 74,≈
2025-03-18 12:22:35.989,574, 527, 838, -33, 27, -21, -3, 7, 9, 904, 743, 32,≈
2025-03-18 12:22:36.316,702, 520, 514, 2, -5, -2, -3, 6, 9, 865, 654, 48,<
2025-03-18 12:22:36.370,701, 527, 511, 2, -4, -1, -3, 6, 11, 864, 664, 69,<
2025-03-18 12:22:36.423,710, 531, 501, -3, -1, -2, -4, 5, 12, 872, 705, 70,<
2025-03-18 12:22:36.479,683, 513, 534, -2, -4, -1, -3, 4, 12, 886, 757, 45,<
2025-03-18 12:22:36.533,698, 531, 520, -4, -4, 0, -4, 7, 11, 898, 780, 73,<
2025-03-18 12:22:36.586,703, 530, 506, -3, -1, 0, -4, 6, 11, 897, 775, 27,<
2025-03-18 12:22:36.639,685, 518, 521, -4, -2, -2, -3, 5, 12, 906, 781, 69,<
2025-03-18 12:22:36.693,701, 515, 524, -3, -5, -1, -4, 6, 11, 910, 777, 47,<
2025-03-18 12:22:36.746,698, 509, 487, 1, -6, -1, -3, 6, 11, 916, 794, 74,<
2025-03-18 12:22:36.799,685, 524, 542, 6, -5, 0, -4, 5, 12, 914, 795, 39,<
2025-03-18 12:22:36.848,788, 515, 414, 8, -19, 3, -6, 5, 12, 918, 821, 64,<
2025-03-18 12:22:36.906,614, 578, 607, -16, -26, 3, -3, 6, 13, 928, 838, 44,<
2025-03-18 12:22:36.963,687, 588, 547, -14, -24, -9, -6, 5, 15, 960, 876, 58,<
2025-03-18 12:22:37.016,479, 477, 436, 35, 15, -2, -4, 6, 15, 972, 874, 37,<
2025-03-18 12:22:37.069,804, 602, 200, -17, 17, -2, -5, 5, 16, 968, 826, 52,<
2025-03-18 12:22:37.122,885, 192, 615, -35, 1, 46, -5, 7, 16, 978, 903, 38,<
2025-03-18 12:22:37.176,752, 367, 472, 16, 8, 7, -4, 7, 17, 966, 879, 51,<
2025-03-18 12:22:37.229,657, 556, 367, 2, 67, -69, -4, 5, 14, 896, 759, 43,<
2025-03-18 12:22:37.512,718, 512, 477, 1, -15, -1, -4, 5, 14, 935, 837, 71,≤
2025-03-18 12:22:37.566,723, 515, 481, 0, -16, -2, -5, 7, 13, 937, 838, 60,≤
2025-03-18 12:22:37.618,723, 522, 468, -6, -8, -3, -3, 5, 17, 941, 853, 70,≤
2025-03-18 12:22:37.676,723, 525, 474, 3, -18, -3, -5, 6, 16, 946, 868, 59,≤
2025-03-18 12:22:37.729,729, 537, 453, -10, -4, -1, -5, 7, 16, 955, 883, 59,≤
2025-03-18 12:22:37.783,522, 576, 408, 42, 5, -8, -6, 6, 16, 958, 856, 72,≤
2025-03-18 12:22:37.836,753, 656, 196, 1, 12, 11, -3, 5, 18, 958, 843, 47,≤
2025-03-18 12:22:37.889,585, 390, 592, -35, -3, 38, -4, 6, 17, 970, 910, 59,≤
2025-03-18 12:22:37.942,707, 428, 558, 49, 2, 9, -5, 6, 15, 943, 869, 50,≤
2025-03-18 12:22:37.994,525, 467, 624, -23, 47, 2, -5, 5, 13, 919, 682, 37,≤
2025-03-18 12:22:38.053,858, 839, 158, -23, -12, 18, -5, 6, 15, 965, 899, 55,≤
2025-03-18 12:22:38.101,838, 436, 436, 8, 9, 6, -4, 7, 12, 946, 876, 58,≤
2025-03-18 12:22:38.159,655, 484, 356, -26, 74, -60, -4, 7, 14, 838, 707, 70,≤
2025-03-18 12:22:38.421,693, 500, 481, -6, -9, -1, -4, 7, 14, 923, 828, 53,>
2025-03-18 12:22:38.473,693, 499, 489, -5, -10, 0, -4, 5, 15, 925, 827, 43,>
2025-03-18 12:22:38.531,729, 488, 490, -7, -23, -5, -5, 7, 15, 934, 842, 48,>
2025-03-18 12:22:38.585,782, 561, 426, -11, -6, -11, -5, 7, 18, 949, 864, 61,>
2025-03-18 12:22:38.641,1007, 694, 617, 22, -21, 8, -4, 4, 17, 965, 891, 43,>
2025-03-18 12:22:38.695,699, 341, 500, 6, -2, 12, -5, 6, 19, 971, 897, 68,>
2025-03-18 12:22:38.749,873, 431, 472, 31, 16, 5, -7, 6, 17, 970, 883, 36,>
2025-03-18 12:22:38.802,735, 435, 350, -30, 37, 5, -5, 6, 17, 960, 786, 77,>
2025-03-18 12:22:38.859,859, 344, 408, -19, 37, -21, -4, 7, 16, 929, 758, 57,>
2025-03-18 12:22:38.913,540, 552, 673, -22, 36, -13, -2, 7, 11, 908, 748, 44,>
2025-03-18 12:22:38.966,637, 504, 578, 15, -21, 8, -3, 8, 11, 908, 754, 72,>
2025-03-18 12:22:39.019,782, 515, 457, 5, -12, 1, -3, 5, 12, 904, 736, 76,>
2025-03-18 12:22:39.072,707, 503, 497, -5, 3, -1, -4, 6, 13, 899, 729, 53,>
2025-03-18 12:22:39.125,717, 520, 517, 2, -2, 0, -5, 7, 11, 900, 720, 62,>
2025-03-18 12:22:39.416,718, 504, 506, 0, -2, -1, -4, 7, 11, 869, 672, 43,≥
2025-03-18 12:22:39.470,715, 526, 500, -1, -1, 0, -4, 7, 11, 870, 671, 37,≥
2025-03-18 12:22:39.519,704, 513, 519, -2, 0, 0, -4, 7, 12, 871, 669, 29,≥
2025-03-18 12:22:39.572,708, 521, 510, -4, 1, -1, -3, 6, 12, 878, 678, 46,≥
2025-03-18 12:22:39.625,703, 516, 512, -3, 0, -2, -4, 6, 12, 878, 685, 72,≥
2025-03-18 12:22:39.682,703, 505, 511, -2, -1, -1, -3, 6, 12, 870, 682, 30,≥
2025-03-18 12:22:39.736,703, 512, 520, -2, -1, -2, -4, 7, 14, 874, 700, 66,≥
2025-03-18 12:22:39.788,704, 507, 508, -3, -2, -3, -4, 7, 13, 873, 696, 49,≥
2025-03-18 12:22:39.843,666, 508, 536, -8, -11, -6, -4, 6, 12, 885, 736, 43,≥
2025-03-18 12:22:39.900,545, 485, 717, 21, -53, 6, -5, 5, 14, 905, 798, 68,≥
2025-03-18 12:22:39.953,916, 474, 76, 20, -12, -5, -6, 6, 14, 962, 890, 65,≥
2025-03-18 12:22:40.002,556, 227, 578, 3, 6, 23, -5, 6, 18, 974, 906, 62,≥
2025-03-18 12:22:40.055,809, 617, 298, 34, 11, 7, -4, 5, 18, 975, 900, 76,≥
2025-03-18 12:22:40.112,1033, 351, 378, 0, 54, 13, -4, 5, 15, 949, 795, 29,≥
2025-03-18 12:22:40.166,385, 504, 716, 4, 24, -3, -4, 7, 10, 938, 702, 49,≥
2025-03-18 12:22:40.219,761, 1304, 518, 35, -31, -4, -4, 7, 15, 969, 895, 51,≥
2025-03-18 12:22:40.273,653, 337, 465, -3, 0, 33, -4, 7, 15, 973, 900, 58,≥
2025-03-18 12:22:40.325,827, 332, 264, 1, 68, -56, -3, 7, 12, 934, 792, 42,≥
2025-03-18 12:22:40.620,695, 541, 523, -10, -9, 0, -3, 6, 12, 888, 727, 57,±
2025-03-18 12:22:40.674,703, 519, 527, -9, -9, 1, -4, 7, 11, 891, 727, 43,±
2025-03-18 12:22:40.730,725, 513, 468, -3, -7, -2, -3, 6, 14, 896, 743, 57,±
2025-03-18 12:22:40.785,709, 494, 488, -4, -5, -3, -4, 7, 11, 903, 772, 57,±
2025-03-18 12:22:40.837,703, 509, 504, -7, 0, -3, -4, 6, 13, 905, 779, 61,±
2025-03-18 12:22:40.890,700, 515, 521, -8, -3, 0, -5, 8, 14, 915, 797, 79,±
2025-03-18 12:22:40.944,710, 492, 504, -4, -3, -1, -5, 7, 15, 914, 799, 34,±
2025-03-18 12:22:40.997,716, 496, 521, -4, -5, 2, -4, 4, 13, 922, 806, 71,±
2025-03-18 12:22:41.050,717, 507, 483, -6, -5, -2, -4, 6, 14, 926, 814, 33,±
2025-03-18 12:22:41.103,727, 479, 499, -1, -9, 0, -4, 6, 12, 934, 835, 71,±
2025-03-18 12:22:41.157,721, 505, 504, -4, -4, -3, -5, 6, 16, 932, 837, 37,±
2025-03-18 12:22:41.210,718, 528, 500, -5, 1, -1, -4, 5, 15, 936, 844, 57,±
2025-03-18 12:22:41.263,668, 475, 554, -4, -7, -1, -5, 6, 12, 939, 830, 53,±
2025-03-18 12:22:41.317,802, 531, 396, -2, -8, -6, -3, 5, 15, 939, 828, 62,±
2025-03-18 12:22:41.370,691, 493, 547, -6, 2, -7, -5, 6, 15, 940, 831, 61,±
2025-03-18 12:22:41.424,698, 454, 588, 3, -19, 2, -5, 7, 15, 946, 852, 52,±
2025-03-18 12:22:41.480,953, 795, 660, 19, -18, 23, -4, 5, 17, 973, 903, 53,±
2025-03-18 12:22:41.534,713, 485, 479, 13, 0, 30, -5, 7, 18, 969, 901, 51,±
2025-03-18 12:22:41.587,534, 443, 503, 2, 3, -37, -7, 7, 16, 958, 894, 73,±
2025-03-18 12:22:41.640,629, 537, 607, 15, -4, -8, -5, 6, 15, 970, 896, 37,±
2025-03-18 12:22:41.693,729, 535, 412, 11, 47, 52, -4, 7, 17, 970, 857, 63,±
2025-03-18 12:22:41.747,580, 481, 621, 22, 19, -23, -4, 6, 16, 945, 775, 50,±
2025-03-18 12:22:41.803,904, 809, 416, -36, -18, 24, -3, 7, 13, 975, 907, 70,±
2025-03-18 12:22:41.858,733, 355, 458, 2, 9, 26, -5, 8, 14, 970, 897, 56,±
2025-03-18 12:22:41.915,618, 482, 354, -13, 82, -60, -4, 7, 11, 927, 768, 69,±
2025-03-18 12:22:42.173,739, 519, 485, -7, -13, 0, -4, 7, 13, 924, 817, 81,∓
2025-03-18 12:22:42.227,745, 510, 479, -5, -12, 0, -3, 5, 14, 922, 818, 64,∓
2025-03-18 12:22:42.283,703, 485, 514, -3, -11, 3, -3, 7, 12, 932, 836, 73,∓
2025-03-18 12:22:42.336,740, 512, 477, -4, -6, -2, -5, 6, 15, 935, 843, 72,∓
2025-03-18 12:22:42.390,729, 507, 473, -8, -2, -4, -5, 7, 15, 938, 844, 60,∓
2025-03-18 12:22:42.443,704, 498, 504, -10, -1, -7, -4, 9, 15, 939, 844, 64,∓
2025-03-18 12:22:42.500,732, 477, 486, -12, -1, -7, -3, 5, 14, 939, 831, 51,∓
2025-03-18 12:22:42.554,664, 501, 527, -5, -8, -2, -4, 5, 15, 942, 828, 59,∓
2025-03-18 12:22:42.611,863, 452, 329, 25, -16, -11, -4, 4, 17, 965, 892, 53,∓
2025-03-18 12:22:42.664,659, 237, 504, 23, -5, 34, -6, 6, 15, 975, 905, 70,∓
2025-03-18 12:22:42.718,706, 453, 327, 38, 33, -1, -4, 7, 16, 963, 857, 63,∓
2025-03-18 12:22:42.775,620, 552, 712, -7, 23, -18, -4, 7, 14, 939, 670, 55,∓
2025-03-18 12:22:42.829,980, 651, 227, -7, -23, 23, -4, 5, 16, 971, 899, 76,∓
2025-03-18 12:22:42.881,676, 503, 547, -8, -3, 30, -5, 7, 15, 970, 896, 53,∓
2025-03-18 12:22:42.938,436, 379, 406, -1, 18, -65, -4, 6, 15, 955, 862, 79,∓
2025-03-18 12:22:42.992,788, 38, 518, 13, -17, -6, -5, 5, 17, 974, 885, 42,∓
2025-03-18 12:22:43.046,609, 633, 216, -16, 42, 49, -5, 6, 16, 972, 832, 66,∓
2025-03-18 12:22:43.102,837, 260, 438, 9, 60, -72, -3, 7, 12, 931, 697, 54,∓
2025-03-18 12:22:43.365,701, 536, 502, -1, -6, -1, -4, 7, 11, 898, 761, 77,∞
2025-03-18 12:22:43.422,700, 513, 497, -2, -5, -2, -4, 5, 13, 894, 757, 65,∞
2025-03-18 12:22:43.476,711, 528, 521, -9, -5, -5, -3, 4, 13, 893, 762, 86,∞
2025-03-18 12:22:43.528,679, 512, 508, -9, -1, -6, -2, 5, 13, 892, 737, 39,∞
2025-03-18 12:22:43.582,720, 528, 502, 2, -6, -4, -4, 6, 11, 888, 746, 70,∞
2025-03-18 12:22:43.634,698, 537, 516, -6, 1, -2, -4, 4, 15, 893, 779, 70,∞
2025-03-18 12:22:43.687,693, 518, 499, 1, -4, 1, -3, 5, 13, 904, 797, 80,∞
2025-03-18 12:22:43.741,714, 512, 501, -2, -5, 2, -4, 7, 11, 915, 812, 106,∞
2025-03-18 12:22:43.795,715, 529, 491, -4, -2, -3, -3, 6, 12, 917, 814, 96,∞
2025-03-18 12:22:43.848,703, 500, 519, 0, -1, -4, -4, 5, 13, 915, 817, 103,∞
2025-03-18 12:22:43.902,709, 518, 488, 4, -3, -3, -5, 6, 12, 912, 811, 90,∞
2025-03-18 12:22:43.954,713, 545, 493, -1, -2, 0, -4, 4, 15, 919, 820, 109,∞
2025-03-18 12:22:44.008,697, 526, 480, -2, 3, 1, -4, 4, 15, 919, 806, 72,∞
2025-03-18 12:22:44.061,704, 523, 495, -1, -2, -4, -4, 6, 13, 924, 816, 80,∞
2025-03-18 12:22:44.114,708, 529, 497, 4, 3, -2, -4, 5, 14, 919, 801, 47,∞
2025-03-18 12:22:44.168,798, 559, 466, 12, -10, 10, -3, 5, 14, 917, 833, 93,∞
2025-03-18 12:22:44.225,658, 489, 465, -7, -4, -5, -4, 5, 14, 923, 852, 77,∞
2025-03-18 12:22:44.278,743, 540, 545, -11, -19, 0, -5, 6, 14, 932, 867, 105,∞
2025-03-18 12:22:44.331,663, 476, 413, 2, 6, 2, -4, 5, 16, 933, 869, 65,∞
2025-03-18 12:22:44.380,699, 532, 483, 0, -2, 2, -4, 7, 14, 942, 871, 68,∞
2025-03-18 12:22:44.433,762, 491, 470, -1, 5, -4, -5, 6, 14, 937, 864, 77,∞
2025-03-18 12:22:44.487,730, 519, 511, -6, 4, 17, -3, 5, 17, 944, 858, 52,∞
2025-03-18 12:22:44.539,746, 511, 460, -3, 3, 1, -4, 7, 15, 947, 856, 102,∞
2025-03-18 12:22:44.598,703, 497, 518, -13, -9, 12, -3, 6, 16, 952, 866, 61,∞
2025-03-18 12:22:44.651,828, 333, 430, -40, -7, -16, -4, 6, 15, 966, 887, 90,∞
2025-03-18 12:22:44.703,611, 541, 510, 2, 33, 25, -4, 5, 16, 976, 880, 79,∞
2025-03-18 12:22:44.762,866, 483, 241, -42, 26, 3, -4, 7, 14, 956, 836, 107,∞
2025-03-18 12:22:44.818,854, 671, 776, 33, -42, -36, -5, 7, 14, 959, 889, 113,∞
2025-03-18 12:22:44.872,733, 502, 463, -13, -20, 29, -5, 7, 15, 979, 902, 70,∞
2025-03-18 12:22:44.930,692, 519, 504, -21, 5, 13, -5, 8, 16, 972, 898, 91,∞
2025-03-18 12:22:44.983,776, 687, 562, 8, -6, -19, -6, 8, 16, 966, 885, 86,∞
2025-03-18 12:22:45.036,479, 872, 192, 5, 43, 33, -5, 6, 16, 975, 868, 54,∞
2025-03-18 12:22:45.089,862, 609, 236, 1, 26, 14, -2, 6, 17, 960, 769, 116,∞
2025-03-18 12:22:45.146,681, 629, 349, -1, 64, -62, -4, 7, 11, 912, 711, 118,∞
2025-03-18 12:22:45.449,683, 510, 569, -1, -4, -1, -3, 6, 11, 859, 730, 107,∑
2025-03-18 12:22:45.503,687, 510, 567, -1, -6, -1, -4, 6, 12, 858, 729, 98,∑
2025-03-18 12:22:45.556,691, 501, 507, 6, -9, -1, -5, 7, 12, 855, 734, 47,∑
2025-03-18 12:22:45.609,716, 504, 507, 2, -3, -4, -4, 6, 14, 860, 743, 103,∑
2025-03-18 12:22:45.663,691, 502, 511, 1, 0, -7, -4, 7, 13, 861, 732, 58,∑
2025-03-18 12:22:45.717,696, 533, 518, 7, -3, -5, -5, 7, 13, 865, 753, 107,∑
2025-03-18 12:22:45.769,679, 521, 517, 8, 0, -1, -4, 6, 15, 874, 756, 109,∑
2025-03-18 12:22:45.822,732, 551, 478, 3, -5, -3, -2, 5, 16, 871, 754, 65,∑
2025-03-18 12:22:45.876,697, 526, 502, -7, -1, 0, -5, 5, 13, 895, 786, 116,∑
2025-03-18 12:22:45.929,676, 532, 492, -5, -2, -2, -3, 4, 14, 896, 788, 64,∑
2025-03-18 12:22:45.987,814, 588, 522, 3, -17, 14, -3, 6, 13, 914, 842, 112,∑
2025-03-18 12:22:46.040,631, 502, 437, -11, -3, -7, -4, 5, 15, 926, 847, 85,∑
2025-03-18 12:22:46.097,578, 515, 525, -19, 15, -14, -4, 3, 15, 930, 812, 51,∑
2025-03-18 12:22:46.150,647, 458, 668, 3, -34, 9, -3, 4, 16, 942, 804, 104,∑
2025-03-18 12:22:46.204,913, 1069, 460, 9, -26, 27, -3, 3, 18, 975, 908, 77,∑
2025-03-18 12:22:46.256,608, 369, 543, 9, 0, 20, -6, 7, 15, 975, 911, 72,∑
2025-03-18 12:22:46.310,608, 415, 327, 25, 31, -19, -5, 6, 16, 945, 853, 55,∑
2025-03-18 12:22:46.367,918, 649, 797, 18, -13, 1, -3, 6, 15, 949, 829, 107,∑
2025-03-18 12:22:46.424,806, 850, 318, -34, -5, 26, -4, 4, 18, 975, 905, 101,∑
2025-03-18 12:22:46.473,622, 317, 546, 0, 5, 17, -4, 6, 16, 970, 888, 54,∑
2025-03-18 12:22:46.531,851, 314, 463, -8, 30, -6, -5, 6, 14, 949, 770, 108,∑
2025-03-18 12:22:46.584,883, 807, 513, -42, 3, 39, -6, 6, 17, 965, 880, 47,∑
2025-03-18 12:22:46.637,771, 294, 519, 11, 2, 10, -6, 9, 14, 956, 871, 88,∑
2025-03-18 12:22:46.940,687, 541, 516, -8, -5, 4, -4, 3, 14, 868, 631, 61,∏
2025-03-18 12:22:46.994,688, 525, 513, -7, -6, 3, -3, 6, 13, 867, 630, 48,∏
2025-03-18 12:22:47.043,719, 516, 510, 0, -8, 3, -5, 6, 13, 880, 734, 86,∏
2025-03-18 12:22:47.100,708, 509, 504, -1, -4, 2, -3, 7, 13, 896, 772, 107,∏
2025-03-18 12:22:47.153,711, 504, 494, -6, -4, -2, -4, 4, 15, 895, 774, 59,∏
2025-03-18 12:22:47.206,692, 530, 512, -10, 1, 0, -3, 5, 14, 908, 785, 95,∏
2025-03-18 12:22:47.260,709, 501, 519, -5, -5, 1, -4, 7, 12, 908, 773, 40,∏
2025-03-18 12:22:47.313,729, 501, 472, -4, -4, 1, -4, 6, 15, 920, 788, 105,∏
2025-03-18 12:22:47.362,715, 516, 508, 0, -3, 0, -4, 6, 15, 922, 786, 79,∏
2025-03-18 12:22:47.416,708, 505, 508, 2, -1, 0, -4, 6, 16, 923, 781, 81,∏
2025-03-18 12:22:47.473,705, 495, 461, -5, -3, -11, -4, 7, 16, 922, 791, 69,∏
2025-03-18 12:22:47.527,651, 504, 523, 4, -10, -21, -4, 5, 13, 910, 790, 47,∏
2025-03-18 12:22:47.579,623, 579, 509, 9, 10, -8, -6, 6, 15, 903, 762, 106,∏
2025-03-18 12:22:47.636,764, 580, 517, -6, -2, -15, -5, 6, 15, 943, 846, 97,∏
2025-03-18 12:22:47.690,847, 941, 441, -30, -44, 53, -4, 3, 16, 981, 916, 82,∏
2025-03-18 12:22:47.748,586, 432, 550, -1, -1, 25, -4, 6, 18, 980, 916, 98,∏
2025-03-18 12:22:47.800,694, 366, 267, 39, 25, -23, -4, 6, 17, 951, 874, 54,∏
2025-03-18 12:22:47.853,876, 806, 802, 26, 7, -14, -4, 3, 15, 937, 819, 111,∏
2025-03-18 12:22:47.911,641, 662, 311, -40, -8, 18, -5, 4, 18, 976, 899, 83,∏
2025-03-18 12:22:47.965,710, 819, 186, -28, 36, 37, -6, 5, 18, 977, 866, 43,∏
2025-03-18 12:22:48.021,868, 273, 596, -2, -13, -23, -5, 7, 15, 945, 845, 96,∏
2025-03-18 12:22:48.079,518, 489, 635, -24, -27, 16, -7, 6, 14, 958, 897, 76,∏
2025-03-18 12:22:48.132,772, 895, 299, -2, 0, 19, -4, 5, 17, 981, 903, 66,∏
2025-03-18 12:22:48.186,732, 175, 383, 10, 26, 32, -3, 7, 18, 977, 872, 87,∏
2025-03-18 12:22:48.238,818, 262, 376, 16, 40, -72, -3, 7, 14, 935, 798, 48,∏
2025-03-18 12:22:48.296,545, 478, 824, -26, 27, -20, -4, 7, 9, 897, 803, 117,∏
2025-03-18 12:22:48.915,697, 502, 537, -1, 0, -2, -5, 7, 14, 850, 626, 67,√
2025-03-18 12:22:48.968,701, 500, 541, -1, 0, -2, -5, 7, 15, 853, 624, 64,√
2025-03-18 12:22:49.021,703, 500, 520, 0, -1, -2, -4, 7, 13, 858, 639, 84,√
2025-03-18 12:22:49.074,699, 495, 527, 5, -2, -4, -4, 7, 14, 859, 655, 44,√
2025-03-18 12:22:49.128,706, 507, 520, 4, -1, -3, -5, 6, 15, 857, 669, 104,√
2025-03-18 12:22:49.180,708, 546, 526, 4, -2, -3, -4, 4, 16, 849, 651, 66,√
2025-03-18 12:22:49.230,704, 497, 523, 1, -3, 0, -4, 7, 12, 861, 674, 60,√
2025-03-18 12:22:49.284,699, 521, 522, 1, -4, 0, -4, 7, 15, 877, 703, 81,√
2025-03-18 12:22:49.337,703, 518, 502, 3, -3, -1, -4, 5, 17, 881, 711, 62,√
2025-03-18 12:22:49.390,709, 520, 504, 2, -3, 2, -4, 6, 13, 888, 723, 69,√
2025-03-18 12:22:49.443,705, 512, 487, 8, -2, -5, -3, 5, 14, 890, 730, 77,√
2025-03-18 12:22:49.496,667, 502, 495, 24, 14, -9, -4, 7, 14, 875, 656, 59,√
2025-03-18 12:22:49.549,697, 573, 481, 8, -8, -4, -4, 3, 15, 897, 686, 78,√
2025-03-18 12:22:49.602,672, 527, 531, -10, -11, 6, -3, 5, 15, 938, 780, 89,√
2025-03-18 12:22:49.656,917, 750, 544, 23, -8, 5, -4, 7, 14, 970, 897, 104,√
2025-03-18 12:22:49.713,496, 303, 487, -8, -4, 21, -4, 5, 15, 974, 910, 109,√
2025-03-18 12:22:49.766,561, 638, 390, 17, 26, 35, -3, 5, 15, 977, 887, 35,√
2025-03-18 12:22:49.819,731, 575, 314, -49, 19, 28, -4, 7, 15, 978, 889, 77,√
2025-03-18 12:22:49.877,615, 323, 760, 5, -56, -57, -4, 7, 15, 962, 905, 39,√
2025-03-18 12:22:49.930,836, 321, 615, 12, -19, -2, -4, 7, 16, 978, 919, 97,√
2025-03-18 12:22:49.987,808, 332, 276, 9, 23, 18, -7, 7, 15, 975, 913, 120,√
2025-03-18 12:22:50.041,577, 530, 532, -2, 37, -39, -6, 8, 14, 948, 860, 91,√
2025-03-18 12:22:50.296,735, 545, 449, 0, 1, -3, -3, 5, 14, 868, 649, 76,∛
2025-03-18 12:22:50.348,716, 545, 441, -2, 4, -3, -5, 6, 14, 862, 633, 43,∛
2025-03-18 12:22:50.401,702, 518, 511, -7, 3, -5, -2, 6, 15, 847, 554, 49,∛
2025-03-18 12:22:50.455,719, 543, 489, 5, -4, 2, -4, 6, 15, 860, 573, 62,∛
2025-03-18 12:22:50.507,711, 543, 462, 2, -1, 1, -5, 4, 15, 862, 626, 65,∛
2025-03-18 12:22:50.557,700, 534, 485, 1, -2, 2, -4, 2, 16, 874, 674, 54,∛
2025-03-18 12:22:50.610,704, 523, 478, 0, -1, 0, -3, 6, 15, 891, 708, 107,∛
2025-03-18 12:22:50.664,708, 538, 485, 1, 2, -1, -5, 6, 15, 886, 695, 83,∛
2025-03-18 12:22:50.717,697, 520, 476, 2, 1, -2, -4, 6, 15, 880, 641, 56,∛
2025-03-18 12:22:50.766,672, 550, 480, -4, 5, 2, -4, 6, 13, 901, 691, 99,∛
2025-03-18 12:22:50.823,721, 478, 493, -12, -4, -2, -4, 5, 15, 915, 758, 67,∛
2025-03-18 12:22:50.876,769, 493, 408, -4, 4, -3, -4, 4, 16, 939, 864, 82,∛
2025-03-18 12:22:50.929,659, 479, 500, -3, -2, 14, -3, 6, 15, 964, 895, 76,∛
2025-03-18 12:22:50.983,596, 636, 314, 5, 17, 33, -4, 7, 14, 974, 882, 83,∛
2025-03-18 12:22:51.036,851, 647, 457, -44, 8, 15, -2, 7, 13, 968, 886, 87,∛
2025-03-18 12:22:51.093,903, 684, 387, -11, -38, -59, -6, 6, 14, 949, 903, 44,∛
2025-03-18 12:22:51.147,641, 660, 346, 6, -18, 15, -4, 6, 15, 969, 906, 40,∛
2025-03-18 12:22:51.204,709, 145, 372, 19, 19, -58, -4, 6, 16, 938, 885, 64,∛
2025-03-18 12:22:51.257,711, 728, 918, 4, -10, 5, -4, 3, 16, 923, 842, 58,∛
2025-03-18 12:22:51.310,796, 668, 127, -21, -8, -4, -5, 6, 17, 965, 906, 63,∛
2025-03-18 12:22:51.363,586, 497, 595, -6, 2, 6, -4, 6, 15, 967, 904, 58,∛
2025-03-18 12:22:51.417,800, 461, 405, -10, 6, 11, -5, 5, 16, 974, 905, 106,∛
2025-03-18 12:22:51.470,650, 518, 559, -10, 10, 8, -5, 7, 17, 971, 893, 38,∛
2025-03-18 12:22:51.528,730, 551, 406, 20, 17, 6, -4, 6, 16, 953, 848, 105,∛
2025-03-18 12:22:51.580,795, 525, 370, -17, 36, -24, -3, 5, 14, 895, 766, 59,∛
2025-03-18 12:22:51.634,541, 501, 792, -6, 11, -7, -4, 7, 11, 900, 769, 76,∛
2025-03-18 12:22:51.688,650, 578, 498, 5, -14, 6, -5, 6, 11, 900, 753, 74,∛
2025-03-18 12:22:51.741,723, 512, 511, 2, -7, 1, -4, 6, 15, 904, 768, 85,∛
2025-03-18 12:22:51.794,710, 524, 508, -3, -1, -2, -2, 5, 14, 888, 750, 47,∛
2025-03-18 12:22:52.068,687, 539, 513, 0, -2, 1, -4, 7, 13, 872, 710, 48,∜
2025-03-18 12:22:52.117,689, 534, 515, 1, -2, 2, -3, 5, 14, 882, 725, 98,∜
2025-03-18 12:22:52.171,694, 507, 524, 5, -5, 2, -4, 7, 13, 879, 720, 98,∜
2025-03-18 12:22:52.220,713, 532, 473, 3, 0, 2, -4, 5, 15, 856, 679, 66,∜
2025-03-18 12:22:52.273,692, 522, 515, 7, 2, 3, -3, 6, 15, 807, 580, 76,∜
2025-03-18 12:22:52.322,710, 537, 483, 5, 1, 0, -4, 5, 14, 807, 568, 91,∜
2025-03-18 12:22:52.376,715, 523, 497, 0, 4, 0, -4, 5, 15, 805, 586, 87,∜
2025-03-18 12:22:52.424,692, 520, 495, -2, 2, 1, -4, 7, 13, 821, 568, 73,∜
2025-03-18 12:22:52.478,711, 544, 480, -8, 1, 0, -4, 6, 14, 851, 570, 50,∜
2025-03-18 12:22:52.531,742, 507, 444, -3, -1, 1, -3, 6, 14, 902, 715, 83,∜
2025-03-18 12:22:52.584,776, 538, 530, -2, -6, -2, -3, 5, 13, 929, 839, 84,∜
2025-03-18 12:22:52.638,650, 434, 620, -3, -5, 11, -3, 4, 15, 957, 879, 75,∜
2025-03-18 12:22:52.695,846, 461, 436, -13, 19, 36, -4, 7, 12, 968, 863, 82,∜
2025-03-18 12:22:52.749,723, 571, 477, -41, 9, 17, -5, 8, 13, 965, 880, 93,∜
2025-03-18 12:22:52.805,645, 629, 549, -1, -44, -36, -3, 6, 15, 957, 908, 55,∜
2025-03-18 12:22:52.859,751, 662, 412, 25, -15, 13, -4, 7, 14, 968, 909, 62,∜
2025-03-18 12:22:52.916,711, 332, 432, -6, 24, -33, -4, 7, 15, 960, 891, 76,∜
2025-03-18 12:22:52.970,623, 529, 679, -9, -11, -31, -5, 6, 14, 944, 865, 65,∜
2025-03-18 12:22:53.027,772, 752, 457, -10, -18, -13, -5, 4, 14, 970, 902, 85,∜
2025-03-18 12:22:53.080,695, 562, 483, 6, -2, -2, -6, 4, 17, 977, 899, 69,∜
2025-03-18 12:22:53.133,701, 535, 426, -3, 7, -2, -4, 6, 16, 972, 862, 61,∜
2025-03-18 12:22:53.191,718, 697, 530, -24, -1, 23, -6, 7, 16, 978, 904, 84,∜
2025-03-18 12:22:53.243,692, 427, 522, 14, -9, 0, -4, 5, 17, 963, 899, 63,∜
2025-03-18 12:22:53.298,506, 698, 676, -2, 2, -19, -4, 6, 17, 947, 877, 80,∜
2025-03-18 12:22:53.351,711, 434, 214, 12, -7, 2, -5, 6, 15, 975, 891, 47,∜
2025-03-18 12:22:53.404,774, 536, 401, 6, 27, 26, -5, 6, 15, 964, 812, 111,∜
2025-03-18 12:22:53.650,702, 530, 492, -4, 0, -2, -5, 6, 17, 888, 694, 64,∫
2025-03-18 12:22:53.704,706, 542, 491, -4, 0, -2, -5, 7, 14, 885, 688, 64,∫
2025-03-18 12:22:53.756,727, 521, 481, -6, 4, -2, -4, 5, 16, 870, 655, 92,∫
2025-03-18 12:22:53.809,698, 504, 522, -3, 2, -2, -4, 7, 14, 859, 621, 40,∫
2025-03-18 12:22:53.863,704, 514, 511, -3, 1, -2, -4, 6, 13, 864, 649, 97,∫
2025-03-18 12:22:53.916,701, 519, 511, -5, 0, -1, -4, 6, 14, 854, 631, 68,∫
2025-03-18 12:22:53.970,700, 519, 511, 0, -2, 1, -3, 5, 14, 858, 645, 47,∫
2025-03-18 12:22:54.022,699, 538, 509, -2, -3, 3, -4, 7, 13, 871, 679, 65,∫
2025-03-18 12:22:54.071,719, 512, 502, 0, -3, 3, -4, 7, 14, 892, 722, 81,∫
2025-03-18 12:22:54.124,714, 529, 487, -3, 1, 3, -5, 7, 16, 901, 727, 56,∫
2025-03-18 12:22:54.177,721, 508, 515, 0, -1, 2, -4, 5, 14, 911, 754, 62,∫
2025-03-18 12:22:54.231,773, 595, 510, 15, -10, 14, -6, 6, 15, 923, 804, 78,∫
2025-03-18 12:22:54.288,633, 510, 495, -17, -6, -2, -4, 7, 15, 929, 837, 98,∫
2025-03-18 12:22:54.341,785, 487, 531, -20, -24, 15, -5, 7, 14, 950, 871, 41,∫
2025-03-18 12:22:54.398,654, 513, 612, -25, -3, -4, -4, 5, 16, 962, 893, 94,∫
2025-03-18 12:22:54.452,936, 322, 523, 16, -2, -25, -5, 7, 16, 973, 893, 97,∫
2025-03-18 12:22:54.506,606, 619, 384, 10, 38, 31, -6, 5, 18, 979, 887, 38,∫
2025-03-18 12:22:54.559,957, 477, 490, 0, 18, 12, -6, 8, 14, 975, 844, 71,∫
2025-03-18 12:22:54.616,1046, 186, 500, 41, 36, -48, -4, 7, 14, 878, 593, 62,∫
2025-03-18 12:22:54.673,399, 458, 868, -51, 54, -14, -3, 7, 10, 854, 681, 63,∫
2025-03-18 12:22:54.936,647, 408, 489, 9, -25, 14, -5, 6, 14, 931, 808, 104,∮
2025-03-18 12:22:54.990,653, 412, 455, 12, -22, 9, -4, 7, 15, 931, 808, 101,∮
2025-03-18 12:22:55.043,754, 507, 486, -3, -8, 3, -5, 6, 15, 937, 811, 66,∮
2025-03-18 12:22:55.095,736, 502, 469, -3, -5, 3, -5, 6, 15, 944, 827, 67,∮
2025-03-18 12:22:55.148,744, 478, 487, -1, -17, 4, -5, 7, 15, 950, 851, 99,∮
2025-03-18 12:22:55.206,732, 487, 466, -30, 3, -4, -5, 7, 14, 954, 872, 77,∮
2025-03-18 12:22:55.259,1032, 145, 433, 64, 0, -17, -5, 6, 18, 967, 874, 84,∮
2025-03-18 12:22:55.316,918, 1072, 158, 5, 35, 47, -5, 7, 16, 976, 886, 104,∮
2025-03-18 12:22:55.370,620, 298, 708, -18, -2, 12, -4, 7, 13, 960, 868, 47,∮
2025-03-18 12:22:55.427,919, 833, 250, -20, -20, -27, -6, 7, 15, 956, 891, 66,∮
2025-03-18 12:22:55.480,695, 911, 283, -9, 6, 30, -6, 7, 16, 976, 904, 73,∮
2025-03-18 12:22:55.533,738, 483, 377, -7, 31, 37, -5, 8, 15, 975, 896, 114,∮
2025-03-18 12:22:55.586,959, -14, 738, 6, 4, -27, -3, 9, 14, 951, 864, 69,∮
2025-03-18 12:22:55.643,569, 603, 441, -18, -31, -15, -4, 7, 16, 950, 890, 80,∮
2025-03-18 12:22:55.701,757, 309, 485, -11, -2, -10, -5, 7, 17, 966, 902, 99,∮
2025-03-18 12:22:55.755,762, 510, 205, -26, 30, 42, -5, 7, 16, 980, 899, 67,∮
2025-03-18 12:22:55.807,739, 333, 509, 6, 16, 22, -4, 9, 16, 968, 817, 64,∮
2025-03-18 12:22:55.865,1177, 360, 233, -7, 66, -53, -5, 9, 12, 927, 744, 75,∮
2025-03-18 12:22:56.185,531, 564, 634, -34, 35, -81, -3, 7, -1, 85, 114, 24,∂
2025-03-18 12:22:56.243,526, 553, 660, -39, 34, -82, -3, 7, -1, 26, 124, 26,∂
2025-03-18 12:22:56.295,514, 553, 740, -43, 28, -93, -2, 7, -5, 61, 171, 48,∂
2025-03-18 12:22:56.348,321, 548, 756, -57, 61, -87, -4, 7, -7, 21, 64, 149,∂
2025-03-18 12:22:56.406,32, 655, 1279, 29, 37, 52, -5, 9, -13, 562, 379, 87,∂
2025-03-18 12:22:56.458,7, 412, 954, 63, -49, 109, -2, 7, -9, 808, 628, 81,∂
2025-03-18 12:22:56.516,422, 512, 500, 83, -71, 119, -1, 5, -2, 864, 659, 96,∂
2025-03-18 12:22:56.570,580, 493, 500, 57, -105, 87, -2, 3, 2, 890, 703, 83,∂
2025-03-18 12:22:56.627,946, 515, 530, 64, -77, 31, -3, 5, 10, 893, 732, 86,∂
2025-03-18 12:22:56.680,665, 616, 146, -34, 9, 2, -4, 2, 12, 915, 776, 72,∂
2025-03-18 12:22:56.733,673, 539, 686, -5, -11, 3, -2, 3, 15, 925, 810, 88,∂
2025-03-18 12:22:56.786,684, 502, 534, 19, -21, 11, -4, 6, 11, 937, 820, 94,∂
2025-03-18 12:22:56.844,761, 583, 336, -4, -12, -7, -3, 4, 13, 945, 843, 100,∂
2025-03-18 12:22:56.897,627, 537, 535, -8, -1, 0, -4, 5, 13, 947, 850, 41,∂
2025-03-18 12:22:56.950,539, 547, 656, 2, -58, -3, -4, 3, 15, 955, 866, 84,∂
2025-03-18 12:22:57.004,927, 539, 204, 16, -13, -7, -3, 3, 17, 969, 902, 42,∂
2025-03-18 12:22:57.061,587, 572, 527, 27, 23, 38, -4, 4, 16, 977, 903, 67,∂
2025-03-18 12:22:57.114,611, 777, 270, -25, 30, 26, -5, 6, 15, 975, 880, 55,∂
2025-03-18 12:22:57.172,935, 445, 674, -21, 3, -11, -4, 6, 14, 968, 905, 77,∂
2025-03-18 12:22:57.225,814, 572, 210, 1, -20, 14, -5, 6, 16, 982, 921, 101,∂
2025-03-18 12:22:57.282,962, 262, 157, -31, 76, -46, -6, 7, 16, 969, 894, 49,∂
2025-03-18 12:22:57.561,483, 600, 650, -3, 6, -31, -2, 3, 5, 33, 439, 53,∇
2025-03-18 12:22:57.614,491, 598, 657, 2, 5, -30, -2, 3, 5, 43, 462, 33,∇
2025-03-18 12:22:57.668,513, 663, 675, 17, 0, -21, -2, 1, 2, 92, 498, 198,∇
2025-03-18 12:22:57.717,482, 629, 587, 14, 6, -7, -2, 1, 3, 30, 543, 270,∇
2025-03-18 12:22:57.774,449, 716, 637, 21, -12, 14, -2, -1, 5, 88, 618, 290,∇
2025-03-18 12:22:57.827,423, 555, 573, 12, -38, 30, -2, -2, 6, 62, 669, 74,∇
2025-03-18 12:22:57.880,578, 649, 488, 47, -67, 58, -4, 1, 9, 582, 705, 270,∇
2025-03-18 12:22:57.937,647, 646, 486, 20, -23, 51, -6, 2, 12, 827, 714, 245,∇
2025-03-18 12:22:57.994,766, 565, 369, 41, -23, 18, -4, 2, 15, 849, 694, 341,∇
2025-03-18 12:22:58.048,774, 619, 292, -9, 8, 1, -4, 2, 16, 871, 728, 265,∇
2025-03-18 12:22:58.102,611, 609, 513, -14, 7, 5, -4, 3, 14, 888, 762, 227,∇
2025-03-18 12:22:58.154,675, 587, 423, -10, 1, 7, -3, 1, 14, 914, 805, 242,∇
2025-03-18 12:22:58.207,750, 604, 365, -3, -6, 3, -4, 3, 15, 918, 810, 213,∇
2025-03-18 12:22:58.265,665, 632, 455, -12, 8, -1, -4, 4, 14, 929, 828, 252,∇
2025-03-18 12:22:58.319,666, 552, 461, -3, -12, 0, -3, 3, 14, 930, 834, 210,∇
2025-03-18 12:22:58.375,667, 561, 454, -17, -23, -2, -4, 2, 16, 934, 874, 69,∇
2025-03-18 12:22:58.432,714, 440, 519, -10, -14, -11, -4, 3, 17, 961, 898, 114,∇
2025-03-18 12:22:58.491,1014, 938, 256, -54, 33, 54, -5, 4, 16, 969, 864, 72,∇
2025-03-18 12:22:58.543,887, 720, 343, -64, 14, 32, -3, 7, 16, 965, 898, 91,∇
2025-03-18 12:22:58.601,407, 328, 634, -44, -30, -28, -3, 7, 14, 956, 915, 69,∇
2025-03-18 12:22:58.658,707, 518, 443, 10, -11, -6, -5, 5, 18, 961, 911, 79,∇
2025-03-18 12:22:58.708,739, 500, 354, 0, 21, 7, -5, 5, 17, 950, 878, 65,∇
2025-03-18 12:22:58.765,713, 547, 536, -13, 12, -19, -5, 7, 15, 946, 869, 90,∇
2025-03-18 12:22:58.819,685, 535, 498, -1, 3, -7, -5, 7, 15, 941, 855, 68,∇
2025-03-18 12:22:58.872,707, 532, 516, 5, -1, -8, -5, 5, 14, 936, 847, 106,∇
2025-03-18 12:22:58.924,634, 502, 505, 8, -5, -1, -6, 6, 17, 934, 841, 94,∇
2025-03-18 12:22:58.982,805, 733, 492, -24, -8, -6, -4, 5, 16, 952, 880, 68,∇
2025-03-18 12:22:59.034,889, 688, 446, -17, -19, 22, -4, 3, 17, 975, 911, 88,∇
2025-03-18 12:22:59.092,672, 531, 491, -4, -3, 14, -5, 5, 16, 977, 912, 30,∇
2025-03-18 12:22:59.142,748, 527, 484, 4, -2, -2, -4, 6, 16, 979, 917, 68,∇
2025-03-18 12:22:59.196,727, 481, 479, 15, 4, 2, -4, 6, 17, 964, 900, 63,∇
2025-03-18 12:22:59.252,846, 475, 266, -2, 34, -40, -5, 4, 16, 922, 843, 93,∇
2025-03-18 12:22:59.306,577, 552, 655, -24, 37, -17, -4, 5, 13, 885, 751, 58,∇
2025-03-18 12:22:59.359,631, 473, 613, 6, -6, 1, -3, 7, 10, 844, 602, 115,∇
2025-03-18 12:22:59.866,701, 549, 481, -3, -3, -2, -3, 5, 15, 823, 635, 73,∆
2025-03-18 12:22:59.920,701, 543, 484, -3, -3, -2, -5, 5, 14, 829, 649, 97,∆
2025-03-18 12:22:59.973,696, 540, 492, -2, -4, 0, -3, 4, 15, 831, 662, 60,∆
2025-03-18 12:23:00.027,707, 534, 492, -2, -5, 2, -3, 7, 14, 855, 704, 73,∆
2025-03-18 12:23:00.076,721, 543, 467, 4, -9, 5, -5, 4, 13, 883, 724, 49,∆
2025-03-18 12:23:00.131,717, 566, 465, -6, -10, 5, -4, 4, 15, 902, 758, 51,∆
2025-03-18 12:23:00.187,704, 514, 500, -17, -20, 8, -6, 5, 15, 932, 847, 63,∆
2025-03-18 12:23:00.240,723, 511, 377, -18, -9, -5, -5, 5, 17, 955, 888, 76,∆
2025-03-18 12:23:00.298,709, 392, 592, 11, -16, -8, -5, 5, 18, 963, 890, 62,∆
2025-03-18 12:23:00.350,2000, 587, 506, 22, 37, 9, -5, 4, 18, 964, 824, 77,∆
2025-03-18 12:23:00.403,919, 751, 194, -3, 19, 13, -3, 3, 18, 967, 865, 55,∆
2025-03-18 12:23:00.461,533, 317, 659, -2, -12, 28, -5, 6, 15, 975, 916, 108,∆
2025-03-18 12:23:00.514,770, 308, 398, 6, 3, -16, -6, 7, 15, 944, 880, 78,∆
2025-03-18 12:23:00.567,574, 676, 619, -2, 2, -41, -4, 6, 16, 928, 846, 72,∆
2025-03-18 12:23:00.621,923, 780, 342, -14, -3, 24, -5, 7, 16, 973, 900, 72,∆
2025-03-18 12:23:00.678,739, 378, 419, -11, 28, 52, -3, 7, 16, 971, 865, 59,∆
2025-03-18 12:23:00.734,784, 276, 278, -14, 78, -72, -4, 7, 13, 928, 715, 98,∆
2025-03-18 12:23:01.083,435, 631, 600, -22, -3, -65, -3, 0, 5, 54, 752, 550,π
2025-03-18 12:23:01.136,500, 575, 657, 20, 3, -43, -5, 3, 5, 438, 754, 574,π
2025-03-18 12:23:01.190,407, 542, 699, -10, 3, 20, -4, 0, 4, 873, 749, 697,π
2025-03-18 12:23:01.243,389, 738, 648, 45, -3, 62, -4, 1, 4, 862, 478, 689,π
2025-03-18 12:23:01.300,448, 563, 567, 97, -36, 102, -5, 1, 5, 845, 96, 691,π
2025-03-18 12:23:01.353,472, 303, 414, 57, -77, 36, -6, 2, 8, 787, 37, 493,π
2025-03-18 12:23:01.411,834, 632, 228, 116, -36, 33, -7, -2, 14, 809, 93, 478,π
2025-03-18 12:23:01.468,668, 914, 236, -7, 44, -28, -5, -2, 15, 860, 415, 554,π
2025-03-18 12:23:01.526,535, 732, 349, -65, 36, 21, -4, -1, 14, 890, 673, 542,π
2025-03-18 12:23:01.579,661, 646, 484, 6, -10, 23, -4, 1, 12, 904, 660, 481,π
2025-03-18 12:23:01.636,730, 584, 354, 45, -17, -1, -2, -1, 14, 909, 607, 502,π
2025-03-18 12:23:01.689,760, 707, 278, 8, 5, 12, -5, -1, 15, 929, 645, 547,π
2025-03-18 12:23:01.746,668, 695, 388, -25, 7, 17, -4, -1, 14, 936, 722, 553,π
2025-03-18 12:23:01.804,632, 613, 411, -41, -3, 8, -5, 4, 12, 946, 802, 557,π
2025-03-18 12:23:01.858,726, 573, 368, -27, -4, 6, -6, 2, 12, 950, 842, 540,π
2025-03-18 12:23:01.914,690, 615, 422, -24, -4, -1, -6, 4, 13, 942, 837, 486,π
2025-03-18 12:23:01.968,665, 574, 417, -30, -8, -4, -5, 5, 14, 947, 858, 358,π
2025-03-18 12:23:02.026,885, 332, 496, 42, -20, -16, -6, 3, 16, 968, 910, 79,π
2025-03-18 12:23:02.083,648, 554, 361, -5, 11, 30, -5, 5, 16, 977, 923, 335,π
2025-03-18 12:23:02.136,597, 364, 354, 2, 22, -27, -5, 3, 14, 957, 886, 389,π
2025-03-18 12:23:02.193,831, 309, 475, -33, -13, -7, -6, 4, 16, 965, 895, 375,π
2025-03-18 12:23:02.247,239, 451, 385, -63, 28, 32, -5, 4, 16, 974, 905, 97,π
2025-03-18 12:23:02.303,835, 482, 305, -37, 22, 10, -3, 7, 14, 955, 839, 65,π
2025-03-18 12:23:02.361,684, 637, 523, 1, -27, -20, -5, 6, 12, 946, 884, 209,π
2025-03-18 12:23:02.418,1334, 422, 479, 6, -10, -15, -6, 6, 13, 966, 911, 303,π
2025-03-18 12:23:02.468,636, 717, 249, 0, 18, 28, -7, 7, 15, 977, 906, 63,π
2025-03-18 12:23:02.525,708, 638, 303, -1, 23, 28, -5, 5, 14, 973, 907, 67,π
2025-03-18 12:23:02.578,835, 440, 202, -5, 52, -64, -3, 7, 12, 926, 876, 345,π
2025-03-18 12:23:02.889,685, 532, 495, 4, -9, -4, -4, 6, 11, 861, 583, 33,θ
2025-03-18 12:23:02.944,693, 544, 498, 5, -8, -4, -4, 5, 12, 864, 611, 73,θ
2025-03-18 12:23:02.996,689, 544, 488, -3, -6, -1, -6, 5, 11, 867, 665, 56,θ
2025-03-18 12:23:03.050,694, 541, 478, -4, 1, -2, -5, 7, 10, 875, 684, 75,θ
2025-03-18 12:23:03.104,656, 533, 542, -1, -1, 0, -6, 6, 10, 888, 704, 78,θ
2025-03-18 12:23:03.157,678, 548, 517, 2, -6, 2, -6, 5, 10, 893, 706, 76,θ
2025-03-18 12:23:03.209,697, 530, 490, 4, -6, 4, -4, 5, 13, 900, 720, 103,θ
2025-03-18 12:23:03.263,695, 552, 462, -1, -2, 3, -4, 7, 13, 898, 707, 45,θ
2025-03-18 12:23:03.311,714, 512, 515, 1, -3, 4, -3, 7, 11, 908, 737, 77,θ
2025-03-18 12:23:03.365,706, 535, 475, 2, 0, 4, -5, 5, 15, 909, 737, 66,θ
2025-03-18 12:23:03.418,714, 551, 475, -2, 0, 2, -6, 7, 11, 914, 754, 66,θ
2025-03-18 12:23:03.467,702, 521, 493, 0, 0, -2, -5, 7, 11, 908, 738, 57,θ
2025-03-18 12:23:03.520,700, 543, 507, -8, -7, 0, -4, 7, 14, 917, 778, 91,θ
2025-03-18 12:23:03.578,680, 477, 531, -5, -25, -3, -5, 7, 12, 920, 827, 55,θ
2025-03-18 12:23:03.630,506, 422, 558, 33, 1, -13, -5, 5, 14, 952, 848, 73,θ
2025-03-18 12:23:03.684,611, 721, 209, 0, 48, 46, -4, 4, 14, 968, 830, 40,θ
2025-03-18 12:23:03.737,742, 162, 672, 17, -2, -18, -4, 7, 12, 949, 832, 79,θ
2025-03-18 12:23:03.794,577, 995, 664, 14, -43, 6, -5, 5, 11, 906, 857, 330,θ
2025-03-18 12:23:03.848,753, 906, 105, -19, -8, 21, -5, 3, 15, 971, 904, 90,θ
2025-03-18 12:23:03.905,356, 613, 441, -60, 40, 49, -4, 5, 13, 975, 869, 103,θ
2025-03-18 12:23:03.963,792, 208, 413, -18, 26, -20, -2, 7, 12, 929, 624, 43,θ
2025-03-18 12:23:04.016,772, 356, 393, 5, -8, -21, -3, 7, 11, 951, 854, 80,θ
2025-03-18 12:23:04.070,656, 750, 229, -25, 4, 30, -5, 5, 13, 974, 909, 87,θ
2025-03-18 12:23:04.126,786, 282, 370, -11, 27, -38, -4, 6, 13, 941, 805, 117,θ
2025-03-18 12:23:04.413,662, 536, 520, -16, -2, -1, -5, 6, 11, 786, 345, 84,λ
2025-03-18 12:23:04.466,671, 520, 525, -11, -3, 0, -4, 5, 11, 788, 339, 49,λ
2025-03-18 12:23:04.520,679, 548, 495, 2, -11, 0, -3, 5, 11, 817, 556, 62,λ
2025-03-18 12:23:04.573,691, 557, 502, -1, -6, -1, -5, 5, 12, 843, 675, 70,λ
2025-03-18 12:23:04.626,689, 551, 496, -8, -8, 5, -4, 5, 12, 878, 714, 91,λ
2025-03-18 12:23:04.679,682, 542, 493, -5, -3, 4, -5, 7, 12, 896, 750, 64,λ
2025-03-18 12:23:04.733,699, 518, 511, 1, -11, 10, -4, 6, 11, 909, 778, 87,λ
2025-03-18 12:23:04.790,690, 551, 465, -8, -1, -1, -4, 5, 12, 919, 786, 104,λ
2025-03-18 12:23:04.843,722, 516, 488, -3, -7, 3, -5, 6, 13, 925, 807, 77,λ
2025-03-18 12:23:04.893,699, 510, 500, -5, 3, 3, -4, 7, 13, 928, 814, 88,λ
2025-03-18 12:23:04.945,730, 533, 485, 3, 0, -2, -5, 6, 10, 925, 799, 66,λ
2025-03-18 12:23:04.999,692, 553, 496, -4, 1, -1, -5, 6, 13, 926, 792, 72,λ
2025-03-18 12:23:05.056,637, 495, 509, -10, -1, -11, -5, 7, 12, 929, 791, 102,λ
2025-03-18 12:23:05.113,836, 582, 490, -12, -21, -8, -4, 6, 12, 939, 858, 96,λ
2025-03-18 12:23:05.167,925, 745, 529, -4, -25, 11, -5, 4, 14, 966, 909, 68,λ
2025-03-18 12:23:05.220,825, 674, 441, 22, 19, 36, -5, 7, 13, 977, 911, 45,λ
2025-03-18 12:23:05.277,901, 875, 342, -19, 27, 46, -6, 7, 14, 975, 905, 81,λ
2025-03-18 12:23:05.330,668, 193, 553, -15, 2, -89, -4, 7, 11, 952, 882, 58,λ
2025-03-18 12:23:05.384,829, 79, 678, 6, -40, 14, -4, 6, 14, 973, 908, 87,λ
2025-03-18 12:23:05.437,885, 600, 386, 3, 25, 20, -4, 6, 16, 973, 891, 52,λ
2025-03-18 12:23:05.494,1043, 464, 350, -12, 37, 4, -3, 7, 11, 954, 784, 76,λ
2025-03-18 12:23:05.810,670, 613, 508, 13, 12, -77, -5, 4, 7, 528, 423, 59,μ
2025-03-18 12:23:05.863,650, 642, 519, 10, 13, -80, -3, 3, 8, 541, 417, 65,μ
2025-03-18 12:23:05.917,550, 707, 531, -8, 10, -88, -4, 1, 6, 558, 385, 201,μ
2025-03-18 12:23:05.974,320, 826, 657, -19, 10, -28, -5, 0, 6, 716, 520, 226,μ
2025-03-18 12:23:06.027,176, 701, 697, 4, -39, 87, -5, -2, 5, 798, 680, 79,μ
2025-03-18 12:23:06.084,615, 498, 378, 54, -64, 106, -6, 1, 10, 793, 653, 105,μ
2025-03-18 12:23:06.142,823, 638, 382, 14, -11, 69, -6, 3, 13, 838, 715, 146,μ
2025-03-18 12:23:06.195,868, 624, 265, -8, -2, 0, -7, 5, 13, 869, 737, 213,μ
2025-03-18 12:23:06.248,617, 507, 593, -26, 17, 3, -4, 3, 13, 894, 749, 55,μ
2025-03-18 12:23:06.301,726, 627, 448, 1, -11, 14, -5, 4, 14, 902, 767, 66,μ
2025-03-18 12:23:06.358,707, 646, 403, -13, 4, -4, -6, 5, 14, 903, 789, 47,μ
2025-03-18 12:23:06.412,668, 577, 542, -11, 14, 1, -5, 5, 11, 911, 784, 66,μ
2025-03-18 12:23:06.465,723, 515, 436, -6, 9, -6, -4, 4, 13, 899, 746, 44,μ
2025-03-18 12:23:06.519,673, 582, 487, 1, 15, 10, -5, 5, 12, 907, 748, 101,μ
2025-03-18 12:23:06.572,665, 572, 505, 6, 13, 11, -3, 5, 12, 900, 726, 72,μ
2025-03-18 12:23:06.625,673, 565, 513, 2, 5, 30, -3, 7, 11, 894, 674, 58,μ
2025-03-18 12:23:06.673,759, 440, 396, -4, -9, 1, -4, 7, 11, 913, 757, 75,μ
2025-03-18 12:23:06.732,915, 655, 603, -27, -24, -5, -3, 6, 12, 940, 898, 46,μ
2025-03-18 12:23:06.793,1018, 407, 509, -46, -36, -27, -4, 6, 12, 952, 920, 100,μ
2025-03-18 12:23:06.846,719, 551, 509, 14, -19, -10, -6, 6, 15, 963, 913, 74,μ
2025-03-18 12:23:06.904,643, 608, 317, -18, 8, 26, -5, 7, 14, 975, 915, 106,μ
2025-03-18 12:23:06.957,750, 435, 608, -20, -7, 7, -4, 7, 15, 966, 904, 37,μ
2025-03-18 12:23:07.010,700, 385, 666, 18, -4, -4, -5, 7, 13, 972, 907, 69,μ
2025-03-18 12:23:07.063,778, 541, 334, -4, 9, 23, -4, 7, 15, 972, 900, 50,μ
2025-03-18 12:23:07.120,835, 221, 507, -6, -5, -16, -5, 7, 13, 964, 887, 112,μ
2025-03-18 12:23:07.178,632, 515, 617, -23, 57, -26, -6, 9, 10, 924, 834, 73,μ
2025-03-18 12:23:07.444,684, 478, 562, -13, -4, -4, -3, 9, 9, 862, 581, 47,ω
2025-03-18 12:23:07.502,689, 490, 559, -12, -4, -4, -3, 6, 12, 864, 575, 62,ω
2025-03-18 12:23:07.556,713, 504, 536, -8, -5, -3, -4, 7, 11, 872, 629, 87,ω
2025-03-18 12:23:07.612,727, 478, 541, -13, -3, -1, -4, 8, 10, 883, 684, 96,ω
2025-03-18 12:23:07.662,668, 489, 576, -6, 2, 0, -4, 7, 12, 896, 733, 78,ω
2025-03-18 12:23:07.714,700, 472, 550, -5, -3, 1, -2, 9, 11, 903, 738, 60,ω
2025-03-18 12:23:07.768,696, 467, 561, 0, -2, 3, -4, 8, 11, 910, 744, 55,ω
2025-03-18 12:23:07.821,688, 464, 556, 2, -3, 1, -2, 8, 13, 912, 756, 74,ω
2025-03-18 12:23:07.870,730, 495, 549, 4, -7, 1, -6, 9, 12, 911, 758, 68,ω
2025-03-18 12:23:07.924,680, 469, 542, -3, 7, -4, -5, 9, 12, 908, 747, 58,ω
2025-03-18 12:23:07.977,742, 482, 537, 1, -7, -6, -4, 7, 12, 898, 746, 66,ω
2025-03-18 12:23:08.034,567, 493, 583, -20, 14, -13, -4, 9, 12, 905, 700, 98,ω
2025-03-18 12:23:08.084,762, 461, 552, 2, -7, 5, -4, 8, 11, 898, 702, 61,ω
2025-03-18 12:23:08.141,777, 513, 577, 15, -9, 12, -5, 8, 11, 921, 805, 88,ω
2025-03-18 12:23:08.194,644, 471, 592, 1, -10, 8, -3, 7, 12, 926, 849, 77,ω
2025-03-18 12:23:08.248,673, 411, 600, -10, -20, 0, -5, 7, 12, 940, 869, 69,ω
2025-03-18 12:23:08.300,687, 155, 589, 13, -3, -20, -4, 7, 14, 963, 870, 68,ω
2025-03-18 12:23:08.353,875, 522, 347, 6, 21, 27, -2, 5, 16, 969, 870, 55,ω
2025-03-18 12:23:08.411,588, 477, 543, -34, -1, 22, -5, 9, 13, 965, 886, 70,ω
2025-03-18 12:23:08.464,661, 241, 761, 18, -7, -8, -5, 9, 12, 962, 883, 52,ω
2025-03-18 12:23:08.517,746, 723, 297, -24, 1, 22, -5, 8, 14, 972, 889, 87,ω
2025-03-18 12:23:08.574,638, 164, 682, -33, -21, -14, -3, 11, 13, 962, 892, 36,ω
2025-03-18 12:23:08.632,854, 590, 202, -22, 74, -14, -3, 8, 16, 930, 843, 78,ω
2025-03-18 12:23:08.935,699, 447, 560, 4, -9, 0, -5, 10, 11, 836, 616, 57,!
2025-03-18 12:23:09.010,694, 451, 562, 7, -9, -1, -4, 7, 12, 839, 624, 60,!
2025-03-18 12:23:09.041,712, 483, 535, 8, -11, 0, -5, 8, 11, 833, 630, 41,!
2025-03-18 12:23:09.094,729, 457, 508, -2, -4, 0, -4, 7, 12, 852, 670, 112,!
2025-03-18 12:23:09.148,710, 481, 529, -5, 2, -2, -4, 7, 11, 856, 659, 68,!
2025-03-18 12:23:09.202,695, 462, 566, -3, 1, -2, -5, 9, 11, 860, 651, 72,!
2025-03-18 12:23:09.255,701, 478, 554, -5, 2, 0, -4, 9, 12, 869, 606, 118,!
2025-03-18 12:23:09.308,711, 471, 527, -3, -3, -2, -4, 8, 13, 862, 519, 72,!
2025-03-18 12:23:09.361,730, 466, 530, -3, -5, 0, -4, 8, 13, 875, 630, 76,!
2025-03-18 12:23:09.414,701, 482, 550, 1, -1, -1, -2, 8, 12, 881, 642, 53,!
2025-03-18 12:23:09.468,716, 460, 503, -2, -6, -4, -5, 9, 14, 885, 692, 99,!
2025-03-18 12:23:09.521,690, 491, 565, -7, 0, -5, -5, 8, 12, 881, 683, 45,!
2025-03-18 12:23:09.574,723, 447, 524, -6, 0, -6, -4, 8, 12, 892, 692, 78,!
2025-03-18 12:23:09.626,745, 493, 524, -2, -3, -2, -5, 7, 13, 896, 719, 74,!
2025-03-18 12:23:09.680,720, 551, 515, 8, -13, 0, -5, 7, 12, 914, 802, 116,!
2025-03-18 12:23:09.738,650, 476, 619, -27, -16, -3, -5, 10, 12, 930, 859, 58,!
2025-03-18 12:23:09.795,730, 388, 632, -7, -14, -9, -4, 8, 15, 967, 901, 96,!
2025-03-18 12:23:09.848,729, 435, 499, 18, 2, 13, -8, 8, 14, 980, 907, 110,!
2025-03-18 12:23:09.902,905, 449, 407, 8, 26, 48, -5, 7, 15, 981, 892, 80,!
2025-03-18 12:23:09.955,820, 587, 421, -5, 22, 15, -3, 7, 15, 968, 872, 61,!
2025-03-18 12:23:10.008,786, 543, 432, 8, 13, -24, -4, 8, 11, 929, 817, 63,!
2025-03-18 12:23:10.062,586, 457, 701, -8, 17, 4, -4, 9, 10, 928, 786, 62,!
2025-03-18 12:23:10.114,705, 416, 535, -2, -5, 7, -4, 9, 12, 933, 770, 103,!
2025-03-18 12:23:10.168,730, 450, 537, -3, -5, 6, -3, 8, 13, 933, 771, 92,!
2025-03-18 12:23:10.221,744, 478, 510, -2, 0, 0, -5, 8, 12, 929, 770, 66,!
2025-03-18 12:23:10.274,700, 464, 563, -5, 4, -2, -3, 9, 11, 927, 759, 46,!
2025-03-18 12:23:10.328,729, 454, 541, -2, -2, 2, -4, 10, 11, 929, 734, 85,!
2025-03-18 12:23:10.381,712, 447, 564, -5, 1, -1, -4, 8, 11, 930, 711, 69,!
2025-03-18 12:23:10.434,727, 442, 539, -1, 0, 0, -4, 9, 13, 932, 714, 102,!
2025-03-18 12:23:10.487,735, 450, 531, -2, 6, -2, -5, 9, 11, 932, 700, 73,!
2025-03-18 12:23:10.541,677, 451, 573, -1, 12, 6, -5, 9, 9, 933, 693, 69,!
2025-03-18 12:23:10.595,558, 450, 765, 36, -37, 22, -3, 9, 12, 947, 757, 95,!
2025-03-18 12:23:10.647,735, 452, 339, -35, 18, 0, -3, 8, 12, 960, 824, 51,!
2025-03-18 12:23:10.700,775, 476, 580, 19, -3, 8, -4, 9, 12, 967, 850, 84,!
2025-03-18 12:23:10.758,865, 229, 336, -16, 48, -54, -2, 9, 12, 942, 698, 67,!
2025-03-18 12:23:10.815,590, 533, 729, -10, 48, -30, -2, 9, 8, 836, 604, 101,!
2025-03-18 12:23:11.122,683, 481, 601, -7, -13, 0, -4, 8, 8, 815, 609, 66,@
2025-03-18 12:23:11.176,687, 472, 585, -1, -13, 0, -2, 7, 9, 819, 619, 52,@
2025-03-18 12:23:11.229,695, 468, 556, -5, -9, -2, -2, 8, 11, 844, 670, 93,@
2025-03-18 12:23:11.282,685, 485, 578, -6, -7, -1, -4, 8, 8, 862, 711, 94,@
2025-03-18 12:23:11.336,701, 492, 558, -6, -8, 0, -3, 6, 11, 880, 746, 64,@
2025-03-18 12:23:11.388,691, 488, 585, -8, -4, 2, -5, 9, 10, 896, 771, 108,@
2025-03-18 12:23:11.442,710, 475, 522, -2, -5, 2, -6, 7, 11, 908, 771, 59,@
2025-03-18 12:23:11.494,683, 468, 591, -3, -4, 2, -4, 8, 11, 917, 784, 73,@
2025-03-18 12:23:11.544,635, 454, 633, 5, -31, 7, -5, 9, 8, 929, 818, 78,@
2025-03-18 12:23:11.603,1474, 503, 366, -45, -7, -16, -5, 8, 12, 944, 866, 72,@
2025-03-18 12:23:11.655,739, 671, 420, 50, 4, -8, -6, 7, 15, 966, 862, 52,@
2025-03-18 12:23:11.712,855, 683, 438, -31, 18, 34, -4, 8, 14, 975, 874, 94,@
2025-03-18 12:23:11.769,579, 255, 609, 20, -26, -36, -2, 7, 15, 964, 874, 71,@
2025-03-18 12:23:11.819,646, 566, 491, 29, 0, 3, -6, 8, 15, 973, 873, 82,@
2025-03-18 12:23:11.872,727, 662, 336, -17, 8, 26, -5, 7, 15, 974, 873, 67,@
2025-03-18 12:23:11.933,562, 328, 694, -3, -29, -51, -7, 10, 12, 954, 879, 105,@
2025-03-18 12:23:11.986,596, 243, 747, 25, 18, -7, -5, 9, 13, 954, 855, 92,@
2025-03-18 12:23:12.040,852, 734, -60, -20, 36, 64, -6, 8, 12, 966, 804, 66,@
2025-03-18 12:23:12.097,819, 80, 685, -15, 10, -13, -3, 8, 10, 948, 766, 73,@
2025-03-18 12:23:12.150,562, 616, 648, 4, 64, -47, -4, 7, 9, 830, 645, 92,@
2025-03-18 12:23:12.438,686, 472, 572, -12, -4, -1, -4, 9, 10, 863, 682, 65,#
2025-03-18 12:23:12.491,686, 469, 577, -10, -4, -1, -2, 9, 11, 867, 694, 63,#
2025-03-18 12:23:12.548,699, 458, 556, -8, -8, -3, -4, 8, 10, 889, 738, 94,#
2025-03-18 12:23:12.602,716, 478, 545, -10, -6, 0, -4, 9, 11, 901, 762, 103,#
2025-03-18 12:23:12.655,704, 464, 558, -2, -2, 0, -5, 8, 11, 901, 764, 40,#
2025-03-18 12:23:12.707,722, 462, 561, -1, -8, -5, -4, 9, 12, 910, 785, 94,#
2025-03-18 12:23:12.764,670, 472, 565, -8, -10, -6, -4, 8, 11, 908, 800, 71,#
2025-03-18 12:23:12.822,688, 482, 542, -21, -14, -11, -5, 9, 12, 922, 850, 104,#
2025-03-18 12:23:12.880,709, 267, 657, 19, -12, -13, -5, 7, 12, 951, 874, 69,#
2025-03-18 12:23:12.933,340, 698, 353, 64, 41, 41, -4, 7, 13, 972, 849, 83,#
2025-03-18 12:23:12.985,839, 601, 288, -16, 24, 34, -4, 9, 11, 953, 816, 105,#
2025-03-18 12:23:13.047,497, 572, 583, -14, -39, -61, -7, 10, 11, 927, 856, 77,#
2025-03-18 12:23:13.101,805, 371, 655, 11, -26, -11, -5, 8, 13, 969, 899, 99,#
2025-03-18 12:23:13.157,790, 587, 418, 15, 38, 58, -6, 9, 12, 971, 870, 33,#
2025-03-18 12:23:13.210,712, 71, 475, -9, 13, -32, -4, 10, 13, 945, 797, 66,#
2025-03-18 12:23:13.265,982, 744, 548, 2, -29, -8, -4, 7, 16, 936, 839, 82,#
2025-03-18 12:23:13.322,557, 907, 231, -18, -28, 35, -6, 7, 13, 975, 910, 82,#
2025-03-18 12:23:13.374,584, 474, 659, 31, -3, 22, -6, 7, 14, 963, 882, 75,#
2025-03-18 12:23:13.432,340, 495, 446, -8, 54, -64, -4, 7, 14, 891, 550, 44,#
2025-03-18 12:23:13.485,760, 1145, 540, -25, -36, 9, -6, 7, 13, 965, 897, 66,#
2025-03-18 12:23:13.543,633, 469, 416, -20, -1, 38, -6, 9, 14, 969, 899, 107,#
2025-03-18 12:23:13.596,657, 432, 212, 2, 93, -61, -3, 8, 12, 888, 672, 58,#
2025-03-18 12:23:13.896,678, 496, 565, -8, -1, -5, -4, 8, 10, 808, 557, 72,%
2025-03-18 12:23:13.953,676, 498, 555, -8, -2, -4, -2, 6, 11, 806, 562, 94,%
2025-03-18 12:23:14.001,685, 513, 564, 5, -7, 6, -3, 7, 11, 798, 643, 80,%
2025-03-18 12:23:14.055,723, 482, 505, 5, -8, 1, -4, 8, 11, 793, 675, 47,%
2025-03-18 12:23:14.108,693, 508, 550, -3, 2, 1, -4, 7, 11, 826, 721, 86,%
2025-03-18 12:23:14.161,700, 500, 524, -1, -5, 1, -4, 7, 10, 852, 741, 104,%
2025-03-18 12:23:14.214,699, 497, 520, -7, 0, -1, -6, 8, 11, 857, 730, 91,%
2025-03-18 12:23:14.268,716, 497, 554, 1, -5, -1, -5, 7, 11, 860, 711, 71,%
2025-03-18 12:23:14.321,701, 494, 493, 1, -3, -4, -5, 7, 11, 860, 718, 60,%
2025-03-18 12:23:14.370,738, 505, 529, 0, 0, -5, -4, 7, 13, 860, 716, 78,%
2025-03-18 12:23:14.427,682, 498, 517, -5, 0, -3, -5, 8, 12, 869, 717, 105,%
2025-03-18 12:23:14.481,744, 516, 505, 0, -10, -5, -2, 7, 12, 870, 740, 91,%
2025-03-18 12:23:14.534,623, 534, 564, -24, -14, -8, -6, 7, 11, 881, 783, 93,%
2025-03-18 12:23:14.592,549, 313, 506, -24, -9, -22, -4, 7, 14, 921, 859, 74,%
2025-03-18 12:23:14.648,794, 523, 512, 65, 5, -18, -4, 5, 15, 966, 870, 109,%
2025-03-18 12:23:14.702,652, 493, 505, -66, 17, 40, -5, 7, 14, 971, 888, 80,%
2025-03-18 12:23:14.759,777, 142, 609, 30, -29, -32, -4, 9, 11, 941, 874, 70,%
2025-03-18 12:23:14.812,580, 486, 503, -34, 18, 0, -6, 8, 11, 939, 870, 90,%
2025-03-18 12:23:14.870,891, 202, 564, 16, -22, -29, -6, 7, 14, 968, 889, 112,%
2025-03-18 12:23:14.923,847, 695, 271, 37, 36, 26, -7, 7, 15, 975, 857, 113,%
2025-03-18 12:23:14.981,974, 426, 380, 20, 17, 31, -4, 8, 14, 936, 738, 57,%
2025-03-18 12:23:15.034,324, 379, 813, -26, -28, 5, -4, 7, 13, 958, 872, 88,%
2025-03-18 12:23:15.087,662, 214, 573, 3, -4, -17, -5, 7, 16, 966, 893, 75,%
2025-03-18 12:23:15.141,875, 718, 193, -3, 11, 5, -6, 8, 13, 976, 883, 82,%
2025-03-18 12:23:15.197,702, 105, 751, -19, -12, 8, -7, 7, 15, 974, 878, 126,%
2025-03-18 12:23:15.730,592, 524, 648, -4, 0, 2, -3, 9, 4, 551, 79, 71,^
2025-03-18 12:23:15.780,605, 507, 653, 0, -1, 3, -2, 8, 3, 533, 68, 69,^
2025-03-18 12:23:15.832,615, 505, 615, 1, 0, 1, -4, 10, 3, 463, 64, 53,^
2025-03-18 12:23:15.882,592, 500, 653, -1, -1, 4, -5, 7, 2, 503, 81, 82,^
2025-03-18 12:23:15.931,636, 520, 599, 1, -2, 0, -4, 8, 4, 488, 69, 64,^
2025-03-18 12:23:15.980,610, 510, 623, 0, 1, -3, -6, 8, 4, 398, 28, 23,^
2025-03-18 12:23:16.033,593, 516, 641, 0, -1, -1, -5, 9, 3, 395, 54, 48,^
2025-03-18 12:23:16.082,627, 520, 614, 1, -2, 2, -5, 8, 3, 401, 73, 73,^
2025-03-18 12:23:16.132,607, 504, 620, -1, -2, 1, -5, 9, 4, 382, 60, 54,^
2025-03-18 12:23:16.185,629, 505, 622, 4, -3, 2, -3, 9, 4, 336, 67, 56,^
2025-03-18 12:23:16.234,639, 500, 608, 3, -2, -2, -4, 9, 3, 309, 71, 76,^
2025-03-18 12:23:16.282,626, 529, 605, -1, 0, -4, -3, 7, 4, 286, 68, 70,^
2025-03-18 12:23:16.336,613, 517, 611, 2, -2, -3, -3, 8, 4, 239, 39, 43,^
2025-03-18 12:23:16.386,626, 534, 607, 0, -1, -3, -3, 7, 4, 261, 81, 52,^
2025-03-18 12:23:16.435,606, 513, 602, 1, 1, -3, -3, 8, 4, 265, 89, 46,^
2025-03-18 12:23:16.488,611, 544, 608, 0, -1, 0, -4, 7, 3, 295, 115, 82,^
2025-03-18 12:23:16.537,619, 532, 604, 0, 0, 0, -4, 8, 4, 342, 139, 83,^
2025-03-18 12:23:16.590,617, 534, 608, 0, -2, 2, -4, 8, 4, 349, 134, 51,^
2025-03-18 12:23:16.639,611, 510, 626, 4, -6, 4, -3, 7, 3, 381, 176, 22,^
2025-03-18 12:23:16.688,622, 538, 583, 7, -9, 2, -5, 7, 4, 390, 256, 50,^
2025-03-18 12:23:16.742,641, 534, 606, 9, -10, 3, -4, 7, 5, 386, 277, 80,^
2025-03-18 12:23:16.794,674, 541, 524, 4, -5, 2, -4, 7, 6, 359, 256, 55,^
2025-03-18 12:23:16.844,638, 543, 565, -5, 3, -3, -4, 7, 6, 388, 248, 36,^
2025-03-18 12:23:16.897,630, 535, 589, 1, -1, 1, -2, 7, 6, 424, 263, 43,^
2025-03-18 12:23:16.947,648, 529, 566, 0, -3, 0, -4, 7, 6, 381, 273, 53,^
2025-03-18 12:23:16.996,637, 525, 592, 2, -4, 2, -5, 8, 7, 393, 288, 59,^
