Timestamp,Acc_X,Acc_Y,Acc_Z,Gyro_X,Gyro_Y,Gyro_Z,Mag_X,Mag_Y,Mag_Z,Force1,Force2,Force3,Letter
2025-03-12 13:06:26.781,553, 584, 505, -14, 1, -16, 0, -3, 0, 908, 762, 393,noise
2025-03-12 13:06:26.837,521, 575, 528, -13, -1, -13, -4, -1, -1, 906, 760, 385,noise
2025-03-12 13:06:26.889,868, 831, 999, 47, -37, 8, -1, 0, 0, 906, 755, 427,noise
2025-03-12 13:06:26.941,434, 497, 581, -7, 10, 2, 0, 0, 2, 913, 762, 388,noise
2025-03-12 13:06:26.997,710, 778, 477, -3, -10, 7, -2, -1, 2, 916, 773, 382,noise
2025-03-12 13:06:27.054,640, 651, 542, 6, -8, 0, -1, -1, 2, 917, 770, 356,noise
2025-03-12 13:06:27.107,623, 599, 532, -1, -5, 2, -1, -1, 2, 918, 768, 334,noise
2025-03-12 13:06:27.157,615, 607, 547, -2, -5, 4, -3, 0, 2, 917, 783, 308,noise
2025-03-12 13:06:27.207,633, 605, 547, 1, -7, 4, -1, -1, 3, 922, 792, 273,noise
2025-03-12 13:06:27.267,636, 607, 518, -1, -8, 4, -2, -3, 3, 928, 824, 277,noise
2025-03-12 13:06:27.320,627, 606, 517, -2, -6, 2, -2, -1, 1, 934, 855, 326,noise
2025-03-12 13:06:27.372,648, 603, 483, 3, -8, 2, -5, 1, 0, 938, 872, 424,noise
2025-03-12 13:06:27.422,652, 614, 470, 1, -5, 2, -2, -1, 3, 940, 877, 467,noise
2025-03-12 13:06:27.477,648, 608, 479, -1, 0, 1, -3, 0, 3, 938, 871, 446,noise
2025-03-12 13:06:27.527,648, 612, 494, -1, -1, 1, -1, -2, 3, 940, 877, 470,noise
2025-03-12 13:06:27.578,645, 598, 481, -1, 0, 1, -3, 0, 3, 940, 874, 473,noise
2025-03-12 13:06:27.633,657, 606, 477, -3, 1, 2, -1, 1, 3, 936, 871, 453,noise
2025-03-12 13:06:27.689,651, 595, 502, -3, 2, 0, -3, -1, 3, 937, 871, 470,noise
2025-03-12 13:06:27.741,644, 596, 489, -2, 2, 0, -2, 0, 3, 937, 872, 475,noise
2025-03-12 13:06:27.790,649, 604, 490, -2, 3, -1, -4, 0, 4, 936, 866, 457,noise
2025-03-12 13:06:27.841,642, 605, 488, -2, 2, 0, -2, 0, 2, 936, 868, 473,noise
2025-03-12 13:06:27.897,648, 597, 490, -3, 2, 0, -4, 0, 1, 939, 870, 490,noise
2025-03-12 13:06:27.947,648, 600, 497, -4, 2, -2, 1, 1, 2, 935, 865, 475,noise
2025-03-12 13:06:28.004,642, 591, 505, -4, 1, -2, -3, 1, 1, 937, 864, 487,noise
2025-03-12 13:06:28.058,640, 597, 508, -3, 0, -2, -1, -1, 4, 939, 865, 511,noise
2025-03-12 13:06:28.108,655, 605, 496, -3, 0, -1, -2, -1, 5, 939, 865, 510,noise
2025-03-12 13:06:28.749,623, 661, 451, -7, 4, 10, -2, -3, 5, 947, 893, 625,A
2025-03-12 13:06:28.803,636, 644, 469, -6, 2, 11, -2, 3, 7, 946, 893, 623,A
2025-03-12 13:06:28.856,664, 638, 412, -4, -4, 9, -4, -2, 6, 948, 893, 636,A
2025-03-12 13:06:28.910,679, 627, 412, -4, 0, 4, -5, -1, 8, 949, 900, 642,A
2025-03-12 13:06:28.960,673, 633, 425, -2, 1, 7, -5, -2, 4, 957, 912, 689,A
2025-03-12 13:06:29.007,688, 619, 411, -2, 2, 5, -1, 0, 6, 956, 918, 702,A
2025-03-12 13:06:29.069,672, 598, 436, -7, 3, 3, -5, -3, 6, 961, 922, 724,A
2025-03-12 13:06:29.123,673, 605, 458, -5, 2, 3, -4, -1, 5, 965, 928, 746,A
2025-03-12 13:06:29.175,668, 611, 426, -7, 3, 3, -2, -2, 5, 967, 933, 751,A
2025-03-12 13:06:29.227,675, 598, 459, -8, 2, 3, -4, -1, 4, 970, 936, 757,A
2025-03-12 13:06:29.278,671, 595, 462, -6, 1, 5, -4, 0, 5, 973, 937, 755,A
2025-03-12 13:06:29.327,682, 583, 451, -9, 3, 2, -6, -2, 7, 972, 937, 722,A
2025-03-12 13:06:29.378,670, 584, 482, -5, 3, 3, -4, 2, 4, 975, 941, 721,A
2025-03-12 13:06:29.437,679, 578, 455, 3, -5, 4, -5, 0, 5, 976, 941, 708,A
2025-03-12 13:06:29.487,707, 594, 424, 2, -3, 3, -3, 1, 6, 975, 937, 702,A
2025-03-12 13:06:29.539,709, 606, 424, -2, -7, 5, -4, 2, 5, 977, 939, 738,A
2025-03-12 13:06:29.590,696, 578, 482, 3, -21, 6, -4, 1, 7, 977, 940, 767,A
2025-03-12 13:06:29.647,625, 551, 596, 4, -38, 9, -6, 3, 5, 980, 945, 803,A
2025-03-12 13:06:29.706,732, 218, 277, 6, -21, -11, -6, 2, 8, 979, 949, 807,A
2025-03-12 13:06:29.761,707, 483, 580, 19, -23, -13, -4, -2, 11, 983, 952, 742,A
2025-03-12 13:06:29.815,1470, 664, 423, 28, 49, 33, -6, 1, 8, 984, 947, 672,A
2025-03-12 13:06:29.872,783, 319, 698, -37, -1, -11, -6, 1, 7, 980, 943, 724,A
2025-03-12 13:06:29.927,591, 444, 648, -27, -18, -11, -5, 3, 6, 983, 951, 761,A
2025-03-12 13:06:29.983,797, 749, 38, 26, 4, 16, -6, 1, 10, 987, 955, 757,A
2025-03-12 13:06:30.036,573, 607, 453, 5, 28, 15, -6, 2, 8, 985, 945, 741,A
2025-03-12 13:06:30.088,689, 516, 437, -30, -30, -20, -4, 1, 9, 979, 935, 686,A
2025-03-12 13:06:30.139,864, 616, 502, 28, -24, -2, -7, 1, 8, 983, 951, 645,A
2025-03-12 13:06:30.200,809, 458, 362, 31, 23, 18, -4, 2, 7, 983, 948, 790,A
2025-03-12 13:06:30.257,593, 569, 562, -30, 47, -48, -2, 1, 6, 978, 940, 766,A
2025-03-12 13:06:30.309,537, 650, 654, -13, -17, -6, -4, 1, 3, 971, 930, 717,A
2025-03-12 13:06:30.367,796, 616, 284, 9, -23, 15, -5, 1, 6, 971, 928, 718,A
2025-03-12 13:06:30.633,699, 572, 446, -14, -19, 13, -4, 1, 8, 974, 942, 772,B
2025-03-12 13:06:30.687,716, 548, 442, -12, -17, 15, -2, 6, 8, 974, 942, 776,B
2025-03-12 13:06:30.740,704, 480, 451, 30, -1, -4, -7, 3, 10, 979, 947, 735,B
2025-03-12 13:06:30.797,500, 444, 183, 29, 39, 29, -4, 2, 9, 979, 945, 671,B
2025-03-12 13:06:30.855,791, 191, 685, -26, -26, -43, -2, 1, 7, 977, 943, 714,B
2025-03-12 13:06:30.913,786, 571, 484, -17, -23, -8, -7, 4, 5, 981, 951, 743,B
2025-03-12 13:06:30.957,657, 827, 352, 5, 1, 11, -5, 2, 8, 984, 955, 766,B
2025-03-12 13:06:31.015,778, 420, 299, 13, 6, 8, -5, 1, 9, 982, 953, 707,B
2025-03-12 13:06:31.067,603, 545, 641, 0, 4, 0, -5, 5, 7, 984, 951, 726,B
2025-03-12 13:06:31.117,714, 542, 68, -5, 18, 5, -4, 2, 8, 983, 948, 640,B
2025-03-12 13:06:31.172,1017, 411, 229, -19, 36, -39, -5, 4, 6, 975, 931, 657,B
2025-03-12 13:06:31.227,538, 612, 693, -17, 8, -26, -4, 4, 3, 969, 934, 655,B
2025-03-12 13:06:31.497,709, 544, 463, -1, -15, 10, -6, 2, 7, 973, 939, 742,C
2025-03-12 13:06:31.555,702, 544, 464, 2, -16, 12, -6, 1, 8, 971, 938, 735,C
2025-03-12 13:06:31.608,716, 673, 353, -8, -8, -3, -5, 2, 7, 977, 943, 728,C
2025-03-12 13:06:31.657,745, 533, 536, 1, -7, -7, -6, 2, 8, 979, 943, 613,C
2025-03-12 13:06:31.719,1054, 702, 104, 60, 50, 17, -5, 2, 9, 979, 944, 539,C
2025-03-12 13:06:31.771,751, 925, 377, -14, 36, 41, -5, 4, 7, 983, 945, 538,C
2025-03-12 13:06:31.827,904, 403, 176, 14, -1, -37, -5, 3, 7, 979, 945, 741,C
2025-03-12 13:06:31.877,598, 598, 574, -34, 44, -32, -4, 2, 4, 971, 939, 699,C
2025-03-12 13:06:31.936,569, 594, 611, 3, -11, 8, -4, 1, 4, 967, 927, 657,C
2025-03-12 13:06:31.988,800, 512, 344, -1, -11, 4, -4, 2, 4, 966, 921, 648,C
2025-03-12 13:06:32.238,716, 553, 453, -7, -13, 4, -5, 4, 6, 968, 917, 654,D
2025-03-12 13:06:32.297,698, 551, 468, -8, -15, 6, -4, 2, 7, 967, 919, 668,D
2025-03-12 13:06:32.347,722, 612, 527, 4, -10, -2, -5, 3, 7, 972, 928, 669,D
2025-03-12 13:06:32.403,544, 697, 420, 45, 38, 39, -5, 2, 7, 978, 924, 577,D
2025-03-12 13:06:32.455,770, 666, 314, -6, 19, 15, -5, 3, 6, 977, 926, 535,D
2025-03-12 13:06:32.507,835, 510, 509, -27, -40, -26, -4, 5, 6, 976, 934, 677,D
2025-03-12 13:06:32.567,583, 600, 369, 19, -15, 5, -6, 3, 8, 982, 937, 690,D
2025-03-12 13:06:32.622,588, 1132, 27, -9, 41, 35, -5, 2, 7, 983, 933, 485,D
2025-03-12 13:06:32.678,1082, 155, 324, -12, 29, -30, -5, 4, 8, 977, 916, 581,D
2025-03-12 13:06:32.735,533, 553, 722, -43, 29, -42, -2, 1, 5, 973, 928, 577,D
2025-03-12 13:06:33.029,672, 549, 534, -2, -23, 7, -6, 4, 7, 971, 937, 696,E
2025-03-12 13:06:33.083,656, 536, 557, 2, -27, 9, -3, 3, 8, 970, 936, 702,E
2025-03-12 13:06:33.136,745, 545, 314, 19, 0, 0, -4, 3, 7, 975, 939, 668,E
2025-03-12 13:06:33.190,583, 1127, 261, 13, 32, 34, -5, 3, 6, 981, 936, 589,E
2025-03-12 13:06:33.246,681, 379, 573, -22, 1, -15, -3, 3, 7, 977, 936, 610,E
2025-03-12 13:06:33.295,480, 549, 878, -13, -62, 2, -4, 0, 6, 978, 944, 634,E
2025-03-12 13:06:33.353,796, 787, 34, 21, -5, 3, -7, 1, 8, 984, 951, 640,E
2025-03-12 13:06:33.404,730, 625, 544, 22, 14, 15, -5, 2, 10, 981, 948, 733,E
2025-03-12 13:06:33.456,552, 579, 567, 22, 3, -8, -6, 3, 8, 975, 934, 684,E
2025-03-12 13:06:33.513,795, 574, 254, -11, 4, 4, -5, 1, 7, 982, 942, 609,E
2025-03-12 13:06:33.563,774, 480, 444, 26, 8, 7, -5, 3, 6, 983, 942, 694,E
2025-03-12 13:06:33.619,561, 592, 599, 26, 15, -13, -5, 2, 7, 977, 921, 660,E
2025-03-12 13:06:33.673,793, 532, 203, -4, -3, -2, -4, 1, 9, 982, 938, 566,E
2025-03-12 13:06:33.723,814, 497, 424, 12, 6, 9, -5, 2, 6, 981, 940, 699,E
2025-03-12 13:06:33.783,697, 545, 373, -49, 65, -52, -2, 1, 5, 970, 924, 671,E
2025-03-12 13:06:34.057,702, 544, 437, -7, -12, 2, -6, 2, 7, 966, 930, 692,F
2025-03-12 13:06:34.113,695, 564, 436, -9, -15, 3, -6, 5, 8, 965, 931, 697,F
2025-03-12 13:06:34.169,742, 345, 565, 2, -5, -4, -4, 1, 8, 972, 942, 691,F
2025-03-12 13:06:34.220,595, 958, 201, 29, 29, 26, -3, 1, 8, 979, 940, 621,F
2025-03-12 13:06:34.273,758, 468, 253, 6, 18, 9, -6, 3, 7, 979, 941, 644,F
2025-03-12 13:06:34.328,605, 744, 509, -41, -34, -42, -5, -1, 7, 974, 937, 658,F
2025-03-12 13:06:34.385,756, 689, 135, 23, -29, 0, -5, 2, 9, 982, 952, 647,F
2025-03-12 13:06:34.437,687, 531, 499, 25, 9, 17, -6, 1, 8, 981, 950, 742,F
2025-03-12 13:06:34.486,535, 626, 528, 8, 10, -13, -5, 2, 6, 975, 933, 655,F
2025-03-12 13:06:34.543,860, 553, 262, -4, 3, 6, -8, 3, 6, 982, 947, 603,F
2025-03-12 13:06:34.598,684, 641, 472, 18, 10, 16, -5, 3, 7, 982, 945, 737,F
2025-03-12 13:06:34.654,604, 546, 439, -34, 54, -42, -4, 2, 4, 974, 934, 710,F
2025-03-12 13:06:34.930,718, 555, 439, -2, -5, 4, -4, 2, 6, 968, 928, 732,G
2025-03-12 13:06:34.986,716, 554, 437, -1, -7, 3, -2, 3, 6, 969, 926, 729,G
2025-03-12 13:06:35.038,729, 566, 395, -5, 1, -1, -4, 2, 6, 968, 926, 719,G
2025-03-12 13:06:35.089,703, 556, 452, 1, -3, 1, -5, 2, 5, 970, 928, 711,G
2025-03-12 13:06:35.143,735, 561, 375, -2, -2, 1, -2, -1, 8, 968, 928, 718,G
2025-03-12 13:06:35.193,715, 566, 421, -1, 0, 1, -6, 3, 5, 969, 930, 720,G
2025-03-12 13:06:35.244,747, 548, 404, -2, -2, 1, -4, 2, 6, 968, 928, 715,G
2025-03-12 13:06:35.303,726, 561, 423, -3, -3, -3, -5, 1, 8, 970, 931, 724,G
2025-03-12 13:06:35.354,645, 577, 490, 5, -15, 6, -6, 3, 6, 971, 932, 739,G
2025-03-12 13:06:35.408,687, 478, 324, 1, -4, -9, -5, 2, 6, 972, 934, 691,G
2025-03-12 13:06:35.459,1000, 697, 418, 32, 30, 10, -5, 3, 6, 980, 935, 607,G
2025-03-12 13:06:35.513,902, 455, 163, -4, 34, 28, -7, 3, 7, 983, 939, 567,G
2025-03-12 13:06:35.573,684, 554, 644, -12, -17, -11, -5, 2, 8, 980, 941, 662,G
2025-03-12 13:06:35.623,679, 742, 83, 16, 12, 16, -4, 3, 6, 982, 941, 641,G
2025-03-12 13:06:35.678,758, 553, 367, -12, 13, 2, -3, 4, 5, 981, 934, 638,G
2025-03-12 13:06:35.733,682, 595, 672, -6, -40, 2, -6, 2, 6, 978, 929, 623,G
2025-03-12 13:06:35.789,826, 494, 178, 14, -4, 14, -4, 1, 8, 985, 943, 558,G
2025-03-12 13:06:35.843,968, 319, 236, -2, 30, -22, -4, 5, 6, 981, 941, 704,G
2025-03-12 13:06:35.903,596, 592, 586, -30, 43, -43, -3, 2, 4, 971, 922, 624,G
2025-03-12 13:06:36.118,683, 566, 464, -3, -7, -2, -4, 0, 5, 957, 907, 625,H
2025-03-12 13:06:36.170,688, 565, 461, 1, -7, 0, -5, 2, 5, 956, 911, 639,H
2025-03-12 13:06:36.223,708, 587, 439, 2, -8, 3, -4, 1, 6, 955, 906, 629,H
2025-03-12 13:06:36.273,702, 578, 442, -4, -2, 1, -3, 1, 7, 950, 898, 621,H
2025-03-12 13:06:36.323,741, 574, 430, 2, -6, 5, -5, 1, 5, 949, 900, 633,H
2025-03-12 13:06:36.378,716, 578, 426, -5, -3, 2, -5, 3, 4, 950, 900, 632,H
2025-03-12 13:06:36.433,633, 591, 510, -2, -23, 9, -4, 3, 4, 951, 912, 655,H
2025-03-12 13:06:36.487,807, 488, 375, 6, -18, 5, -3, 1, 7, 956, 924, 701,H
2025-03-12 13:06:36.544,736, 563, 428, -2, -2, -4, -3, 0, 9, 959, 928, 639,H
2025-03-12 13:06:36.597,731, 569, 380, -3, 0, -1, -6, 2, 7, 965, 936, 628,H
2025-03-12 13:06:36.645,732, 580, 394, -3, 0, 0, -7, 5, 7, 967, 938, 627,H
2025-03-12 13:06:36.698,733, 528, 416, 0, 0, -1, -4, 2, 6, 968, 938, 626,H
2025-03-12 13:06:36.753,734, 562, 405, 0, -3, -2, -5, 3, 6, 967, 937, 630,H
2025-03-12 13:06:36.804,739, 583, 379, 2, 0, -1, -3, -2, 11, 969, 938, 633,H
2025-03-12 13:06:36.858,737, 569, 404, -1, 0, -1, -6, 3, 7, 967, 936, 656,H
2025-03-12 13:06:36.912,729, 556, 405, -2, 0, -1, -4, 0, 9, 966, 933, 640,H
2025-03-12 13:06:36.963,733, 580, 395, -1, -1, -1, -5, 1, 8, 967, 937, 655,H
2025-03-12 13:06:37.019,737, 551, 386, -2, 0, 0, -7, 1, 8, 965, 935, 650,H
2025-03-12 13:06:37.068,730, 542, 441, -6, 0, 0, -7, 3, 6, 968, 939, 650,H
2025-03-12 13:06:37.121,795, 594, 247, 34, -5, 0, -5, 2, 8, 977, 941, 622,H
2025-03-12 13:06:37.173,692, 294, 334, 9, 34, 21, -4, 2, 6, 980, 936, 521,H
2025-03-12 13:06:37.223,753, 489, 453, -15, 4, -44, -6, 3, 6, 972, 919, 504,H
2025-03-12 13:06:37.287,826, 368, 270, 13, -15, -10, -5, 2, 7, 976, 936, 567,H
2025-03-12 13:06:37.343,691, 525, 297, -1, 18, 20, -5, 2, 6, 978, 942, 640,H
2025-03-12 13:06:37.396,461, 574, 743, -6, -15, -21, -4, 1, 7, 973, 935, 700,H
2025-03-12 13:06:37.449,830, 666, 52, 28, 3, 5, -5, 3, 9, 979, 936, 652,H
2025-03-12 13:06:37.502,835, 490, 454, 12, 28, 14, -4, 1, 9, 978, 932, 670,H
2025-03-12 13:06:37.554,764, 578, 202, -40, 47, -47, -6, 0, 6, 968, 925, 661,H
2025-03-12 13:06:37.606,463, 670, 785, -14, -10, -8, -2, 0, 6, 959, 917, 631,H
2025-03-12 13:06:37.663,805, 594, 291, 8, -25, 9, -5, 2, 4, 961, 913, 632,H
2025-03-12 13:06:37.719,730, 554, 400, -2, -2, 4, -4, 3, 6, 963, 915, 635,H
2025-03-12 13:06:37.773,725, 578, 412, -1, -2, 3, -5, 1, 5, 961, 911, 613,H
2025-03-12 13:06:39.523,708, 579, 426, -2, -2, 0, -4, 1, 6, 961, 917, 643,I
2025-03-12 13:06:39.584,712, 577, 428, -3, -2, 0, -5, 1, 6, 962, 917, 640,I
2025-03-12 13:06:39.637,698, 587, 431, -5, -3, 0, -3, 1, 6, 960, 918, 639,I
2025-03-12 13:06:39.688,724, 564, 427, 0, -5, 2, -3, 0, 6, 964, 916, 634,I
2025-03-12 13:06:39.743,726, 567, 400, -1, -4, 0, -5, 3, 6, 962, 918, 627,I
2025-03-12 13:06:39.793,708, 575, 415, -1, -3, 0, -5, 3, 6, 963, 919, 623,I
2025-03-12 13:06:39.843,716, 567, 405, -1, -4, 0, -4, 0, 8, 962, 917, 620,I
2025-03-12 13:06:39.893,641, 574, 464, 4, -9, 2, -3, 0, 8, 964, 913, 569,I
2025-03-12 13:06:39.953,747, 696, 353, -5, -13, -12, -6, 1, 7, 967, 919, 390,I
2025-03-12 13:06:40.013,1020, 838, 354, 33, -22, 19, -5, -2, 8, 978, 942, 578,I
2025-03-12 13:06:40.067,669, 583, 394, 17, 10, 13, -5, 1, 10, 977, 942, 719,I
2025-03-12 13:06:40.123,522, 582, 538, -20, 7, -29, -3, 2, 7, 968, 930, 688,I
2025-03-12 13:06:40.173,676, 916, 215, 24, -9, 6, -4, 0, 7, 976, 935, 646,I
2025-03-12 13:06:40.224,692, 360, 332, 42, 43, 32, -5, 1, 9, 978, 933, 659,I
2025-03-12 13:06:40.284,524, 672, 470, 3, 17, -34, -4, 1, 7, 968, 903, 598,I
2025-03-12 13:06:40.337,825, 795, 323, 17, -20, 0, -5, 1, 7, 974, 929, 528,I
2025-03-12 13:06:40.393,742, 547, 290, 19, 18, 26, -6, 2, 7, 980, 944, 685,I
2025-03-12 13:06:40.443,710, 623, 158, -53, 68, -63, -5, 3, 5, 972, 930, 681,I
2025-03-12 13:06:40.504,469, 680, 833, -25, 10, -27, -4, 1, 2, 960, 899, 553,I
2025-03-12 13:06:40.733,708, 559, 414, -2, -3, -1, -4, 1, 7, 958, 906, 615,J
2025-03-12 13:06:40.794,727, 561, 397, -3, -3, -3, -5, 1, 6, 957, 905, 614,J
2025-03-12 13:06:40.843,691, 586, 441, -8, -4, -3, -3, 0, 7, 955, 894, 545,J
2025-03-12 13:06:40.903,666, 564, 463, -5, -22, 2, -5, 1, 7, 958, 901, 472,J
2025-03-12 13:06:40.960,909, 952, 278, 19, -27, 29, -5, 2, 8, 977, 941, 524,J
2025-03-12 13:06:41.011,679, 451, 274, 10, 8, 16, -5, 2, 9, 980, 949, 618,J
2025-03-12 13:06:41.068,776, 416, 234, -10, 18, -43, -5, 4, 6, 962, 927, 616,J
2025-03-12 13:06:41.123,732, 561, 630, 13, -12, 38, -5, 1, 5, 968, 933, 602,J
2025-03-12 13:06:41.173,739, 656, -126, -24, 47, 44, -6, 1, 8, 978, 939, 371,J
2025-03-12 13:06:41.236,569, 347, 699, -12, -1, -26, -6, 4, 3, 971, 924, 277,J
2025-03-12 13:06:41.287,804, 572, 254, -21, 55, -37, -4, 0, 6, 937, 880, 485,J
2025-03-12 13:06:41.343,471, 699, 695, -5, -1, 1, -3, 1, 5, 944, 883, 553,J
2025-03-12 13:06:41.393,750, 584, 392, 11, -25, 7, -3, 1, 4, 949, 882, 629,J
2025-03-12 13:06:41.647,737, 565, 359, -5, -8, -2, -4, 1, 5, 943, 892, 617,K
2025-03-12 13:06:41.701,735, 570, 355, -7, -7, -2, -4, 1, 5, 938, 886, 592,K
2025-03-12 13:06:41.753,688, 558, 479, -9, -15, 4, -3, 1, 6, 948, 910, 620,K
2025-03-12 13:06:41.804,725, 505, 507, 6, -7, -6, -5, 1, 7, 962, 917, 560,K
2025-03-12 13:06:41.853,914, 455, 515, 51, 20, 13, -4, 3, 6, 970, 908, 489,K
2025-03-12 13:06:41.915,802, 642, 138, -7, 12, 6, -5, 2, 8, 972, 927, 191,K
2025-03-12 13:06:41.970,628, 552, 247, -14, -10, 6, -2, -1, 10, 979, 950, 536,K
2025-03-12 13:06:42.023,656, 619, 305, 16, -4, -4, -6, 1, 8, 978, 952, 703,K
2025-03-12 13:06:42.074,596, 652, 404, -9, 39, -42, -6, 1, 8, 968, 932, 624,K
2025-03-12 13:06:42.139,985, 1016, 392, -16, -10, 22, -5, -1, 9, 977, 935, 573,K
2025-03-12 13:06:42.234,637, -1, 432, 21, 30, 32, -4, 3, 7, 983, 942, 568,K
2025-03-12 13:06:42.243,840, 658, 44, -37, 44, -71, -6, 2, 4, 973, 933, 635,K
2025-03-12 13:06:42.303,536, 755, 833, -26, 25, -29, -3, 0, 4, 951, 908, 581,K
2025-03-12 13:06:42.533,683, 575, 450, 1, -2, 1, -5, 1, 5, 955, 890, 637,L
2025-03-12 13:06:42.573,699, 577, 423, 0, -2, 1, -4, 6, 9, 955, 887, 633,L
2025-03-12 13:06:42.635,729, 558, 399, -5, 2, -3, -3, 1, 6, 952, 880, 616,L
2025-03-12 13:06:42.688,676, 588, 468, -3, 0, -2, -4, 1, 5, 954, 888, 638,L
2025-03-12 13:06:42.735,709, 598, 428, -2, -3, 0, -2, 3, 3, 952, 884, 609,L
2025-03-12 13:06:42.793,699, 570, 428, -2, -3, 0, -4, 3, 6, 951, 887, 612,L
2025-03-12 13:06:42.843,723, 561, 428, -3, -1, -2, -5, 0, 5, 948, 884, 597,L
2025-03-12 13:06:42.901,708, 592, 429, -2, -2, -2, -3, 0, 5, 948, 885, 610,L
2025-03-12 13:06:42.953,706, 583, 436, -3, -1, 0, -2, 2, 3, 947, 885, 602,L
2025-03-12 13:06:43.003,702, 574, 436, -4, -3, -1, -3, 2, 5, 948, 886, 606,L
2025-03-12 13:06:43.058,726, 571, 419, -4, 0, -2, -5, 1, 7, 948, 885, 589,L
2025-03-12 13:06:43.117,693, 595, 441, -1, -1, 1, -3, -1, 6, 951, 889, 610,L
2025-03-12 13:06:43.169,697, 569, 429, -1, -4, 0, -5, 0, 5, 948, 890, 611,L
2025-03-12 13:06:43.218,701, 575, 443, 0, -4, 1, -5, 1, 5, 949, 895, 610,L
2025-03-12 13:06:43.274,697, 578, 423, -2, -7, 1, -3, 1, 7, 950, 896, 617,L
2025-03-12 13:06:43.323,697, 579, 457, -6, -20, 0, -5, 1, 6, 952, 909, 610,L
2025-03-12 13:06:43.384,727, 416, 385, 18, -16, -10, -5, 2, 7, 963, 930, 596,L
2025-03-12 13:06:43.435,542, 969, 674, 29, 21, 7, -6, 4, 7, 975, 928, 561,L
2025-03-12 13:06:43.485,949, 674, 89, -11, 30, 35, -6, 1, 9, 980, 941, 418,L
2025-03-12 13:06:43.543,597, 558, 596, 2, -1, 18, -2, 2, 6, 984, 951, 622,L
2025-03-12 13:06:43.600,972, 434, 25, -20, 55, -39, -4, 1, 8, 976, 940, 718,L
2025-03-12 13:06:43.658,566, 618, 655, -37, 40, -35, -7, -2, 6, 962, 905, 568,L
2025-03-12 13:06:43.920,696, 579, 449, -8, -6, -7, -4, 2, 3, 942, 872, 557,M
2025-03-12 13:06:43.975,691, 586, 446, -8, -6, -7, -4, 0, 5, 941, 876, 557,M
2025-03-12 13:06:44.023,671, 584, 486, -8, -8, -3, -3, 1, 3, 942, 875, 557,M
2025-03-12 13:06:44.085,695, 581, 446, -3, -13, 3, -3, 1, 6, 944, 879, 567,M
2025-03-12 13:06:44.134,707, 566, 440, 0, -8, 3, -3, 0, 5, 946, 880, 584,M
2025-03-12 13:06:44.184,698, 566, 456, 0, -11, 2, -4, 2, 5, 942, 880, 585,M
2025-03-12 13:06:44.236,718, 563, 435, 4, -13, 2, -6, 0, 5, 944, 880, 580,M
2025-03-12 13:06:44.297,724, 572, 397, -6, -8, -4, -6, 1, 8, 944, 877, 539,M
2025-03-12 13:06:44.351,689, 564, 456, -3, -25, -1, -4, 1, 6, 948, 899, 543,M
2025-03-12 13:06:44.403,762, 448, 390, 1, -11, -8, -6, 1, 9, 962, 927, 519,M
2025-03-12 13:06:44.461,653, 553, 495, 40, 10, 10, -5, -1, 9, 973, 929, 508,M
2025-03-12 13:06:44.514,864, 448, 256, 20, 19, 13, -5, 1, 8, 977, 924, 234,M
2025-03-12 13:06:44.569,742, 520, 430, -13, 9, 8, -5, 2, 6, 972, 929, 421,M
2025-03-12 13:06:44.620,529, 628, 562, -42, 3, -40, -4, 1, 9, 965, 924, 523,M
2025-03-12 13:06:44.678,645, 548, 518, 11, -55, 30, -5, 2, 8, 969, 935, 586,M
2025-03-12 13:06:44.723,1003, 645, 222, 18, 16, 28, -5, 2, 9, 976, 938, 557,M
2025-03-12 13:06:44.786,713, 478, 326, -18, 15, 25, -5, 2, 6, 978, 940, 556,M
2025-03-12 13:06:44.843,735, 517, 491, 0, -19, -14, -5, 1, 7, 974, 942, 659,M
2025-03-12 13:06:44.894,811, 693, 141, 39, 26, 28, -5, 2, 8, 980, 938, 662,M
2025-03-12 13:06:44.948,896, 478, 271, -17, 27, 1, -5, 4, 7, 976, 933, 701,M
2025-03-12 13:06:45.007,672, 527, 575, -38, 26, -37, -5, 5, 4, 970, 932, 669,M
2025-03-12 13:06:45.273,748, 568, 362, 2, -5, 1, -4, 1, 7, 954, 904, 614,N
2025-03-12 13:06:45.328,754, 574, 375, 1, -3, 1, -3, 2, 5, 954, 906, 607,N
2025-03-12 13:06:45.383,730, 557, 400, -1, 0, -4, -4, 0, 8, 952, 900, 602,N
2025-03-12 13:06:45.437,736, 570, 388, -6, -2, -6, -3, 1, 7, 954, 903, 609,N
2025-03-12 13:06:45.489,722, 585, 407, -8, -7, -5, -5, 1, 7, 947, 895, 576,N
2025-03-12 13:06:45.547,750, 583, 349, -12, -12, -2, -5, 1, 7, 949, 913, 575,N
2025-03-12 13:06:45.603,727, 436, 648, 13, -14, -6, -5, 1, 6, 966, 928, 554,N
2025-03-12 13:06:45.653,1016, 562, 174, 26, 22, 23, -5, 0, 6, 969, 922, 505,N
2025-03-12 13:06:45.713,718, 287, 623, -25, -7, -22, -3, 4, 7, 961, 921, 589,N
2025-03-12 13:06:45.768,744, 490, 428, -24, -17, -11, -5, -2, 8, 963, 934, 615,N
2025-03-12 13:06:45.823,1014, 901, 119, 59, 39, 54, -3, 3, 9, 978, 940, 625,N
2025-03-12 13:06:45.883,716, 590, 610, -40, -7, 11, -5, 3, 7, 973, 939, 574,N
2025-03-12 13:06:45.934,948, 447, 112, -2, 18, -31, -3, 2, 7, 967, 935, 733,N
2025-03-12 13:06:45.993,593, 643, 559, -29, 52, -20, -4, 1, 6, 966, 926, 700,N
2025-03-12 13:06:46.283,707, 561, 449, 0, -5, 2, 0, 0, 4, 959, 902, 632,O
2025-03-12 13:06:46.334,700, 567, 457, 0, -6, 3, 0, 0, 4, 957, 902, 626,O
2025-03-12 13:06:46.386,744, 561, 369, -1, -7, 1, -5, 1, 5, 960, 905, 630,O
2025-03-12 13:06:46.436,708, 564, 429, -8, 1, -1, -4, 1, 6, 963, 911, 613,O
2025-03-12 13:06:46.493,727, 554, 421, 2, -7, 2, -5, 1, 8, 964, 911, 617,O
2025-03-12 13:06:46.543,749, 553, 392, 1, 1, 3, -5, 1, 5, 963, 909, 602,O
2025-03-12 13:06:46.593,715, 567, 427, 10, -4, 9, -3, 0, 8, 965, 916, 640,O
2025-03-12 13:06:46.653,674, 663, 341, -8, -6, -4, -4, 3, 7, 966, 922, 603,O
2025-03-12 13:06:46.703,684, 361, 474, 28, -24, -26, -6, 1, 8, 966, 927, 485,O
2025-03-12 13:06:46.753,706, 373, 99, 1, 34, 35, -5, 0, 8, 973, 930, 482,O
2025-03-12 13:06:46.811,698, 354, 687, -54, -9, 5, -4, 4, 6, 976, 944, 502,O
2025-03-12 13:06:46.869,915, 417, 166, 41, -15, -27, -5, 2, 5, 966, 933, 613,O
2025-03-12 13:06:46.923,701, 588, 440, -36, 68, -42, -5, 0, 6, 951, 910, 577,O
2025-03-12 13:06:46.973,487, 673, 637, -8, 12, 1, -3, -1, 5, 945, 876, 511,O
2025-03-12 13:06:47.233,735, 574, 363, 3, -7, 3, -5, 0, 8, 943, 879, 581,P
2025-03-12 13:06:47.283,737, 570, 363, 2, -6, 3, -2, 2, 3, 942, 879, 575,P
2025-03-12 13:06:47.335,714, 567, 410, -6, -7, 1, -4, 1, 7, 943, 889, 602,P
2025-03-12 13:06:47.393,714, 569, 431, -9, -9, -2, -5, 0, 8, 944, 903, 586,P
2025-03-12 13:06:47.447,743, 517, 459, -5, -9, -7, -6, 1, 6, 952, 916, 527,P
2025-03-12 13:06:47.501,734, 268, 516, 52, 44, 53, -3, 2, 8, 972, 922, 433,P
2025-03-12 13:06:47.553,729, 711, 42, -2, 16, 14, -5, 2, 6, 971, 928, 404,P
2025-03-12 13:06:47.611,699, 604, 265, -1, -42, -45, -5, 1, 9, 964, 933, 617,P
2025-03-12 13:06:47.663,547, 576, 560, 16, -24, 0, -5, 2, 10, 973, 946, 649,P
2025-03-12 13:06:47.718,614, 415, 395, 14, 23, 17, -5, 2, 9, 975, 942, 523,P
2025-03-12 13:06:47.775,1092, 260, 294, -22, 41, -40, -5, 2, 7, 970, 930, 583,P
2025-03-12 13:06:47.832,519, 640, 726, -29, 24, -26, -5, 1, 6, 964, 918, 513,P
2025-03-12 13:06:48.093,723, 570, 384, 7, -7, 9, -3, 3, 6, 959, 912, 613,Q
2025-03-12 13:06:48.148,719, 583, 387, 7, -7, 9, -5, 5, 9, 960, 916, 627,Q
2025-03-12 13:06:48.193,738, 553, 388, 5, -6, 10, -4, 2, 7, 960, 916, 610,Q
2025-03-12 13:06:48.254,958, 489, 296, -13, -1, -4, -5, 3, 6, 963, 924, 624,Q
2025-03-12 13:06:48.312,656, 640, 479, -20, -7, -14, -3, 1, 6, 964, 937, 545,Q
2025-03-12 13:06:48.365,895, 504, 283, 65, -7, -21, -7, 4, 7, 968, 930, 340,Q
2025-03-12 13:06:48.419,754, 595, 312, -31, 45, 62, -5, 1, 8, 978, 940, 437,Q
2025-03-12 13:06:48.473,526, 281, 844, -2, -34, -21, -6, 4, 5, 983, 956, 593,Q
2025-03-12 13:06:48.533,868, 551, 40, 22, 23, -26, -5, -1, 11, 969, 931, 562,Q
2025-03-12 13:06:48.584,491, 846, 714, -1, -24, 41, -5, 1, 7, 969, 931, 544,Q
2025-03-12 13:06:48.643,770, 606, 316, -10, 12, 40, -4, 1, 9, 976, 941, 380,Q
2025-03-12 13:06:48.701,910, 304, 243, -13, 32, -40, -5, 2, 8, 976, 929, 457,Q
2025-03-12 13:06:48.753,640, 569, 534, -15, 50, -52, -2, 2, 3, 947, 865, 456,Q
2025-03-12 13:06:49.025,737, 570, 381, -3, -2, -4, -4, 3, 5, 946, 894, 569,R
2025-03-12 13:06:49.074,720, 578, 393, -6, -1, -4, 0, 0, 6, 946, 896, 579,R
2025-03-12 13:06:49.131,682, 589, 488, -9, -17, 0, -5, 2, 5, 946, 906, 600,R
2025-03-12 13:06:49.186,1196, 410, 292, -20, -5, -9, -2, 3, 3, 949, 920, 547,R
2025-03-12 13:06:49.234,229, 820, 145, 41, 36, 45, -6, 0, 8, 974, 922, 493,R
2025-03-12 13:06:49.293,714, 628, 201, 13, 14, 17, -5, 2, 7, 979, 936, 420,R
2025-03-12 13:06:49.352,808, 670, 305, 6, -53, -65, -5, 2, 5, 968, 940, 605,R
2025-03-12 13:06:49.403,775, 579, 550, 3, -22, 7, -5, 2, 8, 977, 949, 603,R
2025-03-12 13:06:49.453,960, 1046, 245, 5, 42, 41, -5, 1, 8, 979, 944, 461,R
2025-03-12 13:06:49.511,874, 425, 502, -6, 16, 25, -7, 4, 5, 981, 943, 389,R
2025-03-12 13:06:49.566,850, 307, 318, 16, 15, -10, -3, 3, 7, 978, 940, 579,R
2025-03-12 13:06:49.622,613, 539, 437, -24, 54, -54, -4, 2, 4, 971, 922, 527,R
2025-03-12 13:06:49.896,762, 531, 395, 1, -7, 4, -4, 2, 7, 953, 900, 585,S
2025-03-12 13:06:49.943,766, 537, 396, 0, -5, 2, -3, 4, 6, 954, 899, 585,S
2025-03-12 13:06:49.999,719, 557, 476, 1, -7, 6, -5, 2, 5, 959, 909, 594,S
2025-03-12 13:06:50.053,668, 548, 420, 5, -21, 10, -5, 3, 5, 966, 925, 635,S
2025-03-12 13:06:50.103,644, 492, 527, -2, -7, -10, -7, 0, 11, 966, 932, 552,S
2025-03-12 13:06:50.163,829, 527, 174, 44, 11, -7, -6, 0, 9, 974, 942, 568,S
2025-03-12 13:06:50.216,256, 618, 186, 22, 42, 22, -5, 4, 6, 978, 939, 383,S
2025-03-12 13:06:50.268,521, 384, 416, -3, 22, 5, -5, 3, 5, 969, 932, 307,S
2025-03-12 13:06:50.323,971, 475, 217, -21, 49, -53, -2, 0, 6, 957, 897, 486,S
2025-03-12 13:06:50.374,520, 654, 692, -12, 6, -16, -2, 0, 2, 941, 877, 449,S
2025-03-12 13:06:50.644,719, 575, 389, -3, -7, -3, -3, 1, 7, 936, 886, 587,T
2025-03-12 13:06:50.703,699, 577, 406, -5, -6, -4, -2, 4, 8, 937, 884, 582,T
2025-03-12 13:06:50.760,720, 568, 437, -4, -7, -1, -3, 2, 6, 935, 870, 480,T
2025-03-12 13:06:50.814,668, 581, 431, -10, -11, -8, -4, 1, 6, 938, 866, 350,T
2025-03-12 13:06:50.869,854, 557, 393, -11, -13, -16, -4, 0, 7, 949, 888, 50,T
2025-03-12 13:06:50.923,581, 747, 212, -22, -18, 37, -6, 1, 9, 972, 943, 385,T
2025-03-12 13:06:50.982,590, 679, 445, 20, 8, 18, -6, 2, 6, 978, 943, 605,T
2025-03-12 13:06:51.034,641, 438, 332, -1, 10, -42, -5, 2, 6, 961, 919, 577,T
2025-03-12 13:06:51.086,780, 774, 399, 3, 3, 4, -6, 1, 8, 972, 930, 521,T
2025-03-12 13:06:51.140,339, 325, 207, 12, 45, 44, -5, 2, 7, 978, 935, 295,T
2025-03-12 13:06:51.193,897, 310, 422, -8, 20, -26, -4, 2, 8, 970, 919, 416,T
2025-03-12 13:06:51.253,625, 581, 537, -17, 19, -28, -4, 1, 6, 943, 896, 540,T
2025-03-12 13:06:51.547,725, 582, 394, -3, -14, -4, -6, 1, 8, 929, 855, 300,U
2025-03-12 13:06:51.603,742, 586, 394, -3, -15, -3, -6, 1, 8, 929, 858, 313,U
2025-03-12 13:06:51.653,718, 568, 455, -11, -16, -2, -4, 0, 8, 940, 886, 307,U
2025-03-12 13:06:51.715,724, 434, 532, 31, -18, -15, -9, -1, 9, 961, 906, 175,U
2025-03-12 13:06:51.765,715, 612, 136, 7, 19, 44, -4, 1, 8, 971, 926, 466,U
2025-03-12 13:06:51.824,469, 379, 437, -23, -13, -7, -5, 2, 7, 969, 935, 527,U
2025-03-12 13:06:51.883,734, 492, 663, 24, -22, -18, -3, -1, 11, 973, 943, 608,U
2025-03-12 13:06:51.933,607, 722, 163, 8, 31, 32, -3, 2, 6, 974, 933, 530,U
2025-03-12 13:06:51.993,851, 501, 143, -39, 31, -51, -4, 3, 4, 972, 932, 568,U
2025-03-12 13:06:52.049,535, 635, 675, -25, 24, -18, -4, 2, 5, 956, 918, 535,U
2025-03-12 13:06:52.313,693, 585, 435, 6, -5, 1, -6, 0, 8, 936, 845, 390,V
2025-03-12 13:06:52.363,701, 583, 425, 6, -5, 1, -5, 3, 4, 941, 850, 413,V
2025-03-12 13:06:52.416,699, 580, 412, 0, -8, -4, -5, 1, 5, 927, 836, 293,V
2025-03-12 13:06:52.468,743, 579, 429, -5, -23, 4, -3, 1, 7, 935, 872, 272,V
2025-03-12 13:06:52.523,723, 571, 458, -7, -7, -8, -5, 2, 6, 959, 927, 258,V
2025-03-12 13:06:52.573,765, 694, 367, 28, -11, 16, -5, 2, 6, 976, 939, 380,V
2025-03-12 13:06:52.633,783, 429, 226, -2, 18, 35, -5, 0, 6, 980, 932, 382,V
2025-03-12 13:06:52.683,1016, 249, 263, -22, -39, -24, -5, 1, 7, 979, 949, 503,V
2025-03-12 13:06:52.743,823, 729, 320, 27, 6, -5, -4, 1, 9, 974, 943, 693,V
2025-03-12 13:06:52.800,631, 572, 483, -17, 54, -23, -3, 2, 5, 966, 925, 603,V
2025-03-12 13:06:52.853,552, 594, 604, 4, -10, 9, -5, 1, 4, 965, 896, 543,V
2025-03-12 13:06:53.079,719, 561, 422, 1, -3, -1, -3, -1, 6, 944, 840, 526,W
2025-03-12 13:06:53.131,725, 574, 408, 0, -2, -1, -4, 1, 7, 944, 835, 520,W
2025-03-12 13:06:53.183,699, 591, 432, -3, 1, -3, -4, 1, 6, 938, 823, 484,W
2025-03-12 13:06:53.234,714, 571, 425, -2, -3, -6, -4, 2, 4, 931, 810, 449,W
2025-03-12 13:06:53.293,669, 561, 452, -2, -2, -3, -4, 2, 7, 917, 783, 403,W
2025-03-12 13:06:53.345,646, 607, 450, 0, -20, 4, -4, 0, 6, 925, 821, 391,W
2025-03-12 13:06:53.402,730, 504, 371, -12, -4, -7, -3, 2, 8, 952, 907, 342,W
2025-03-12 13:06:53.453,849, 857, 170, -11, 21, 44, -3, 0, 7, 971, 925, 428,W
2025-03-12 13:06:53.514,714, 524, 208, -20, 12, 13, -4, 2, 6, 975, 937, 415,W
2025-03-12 13:06:53.568,769, 503, 476, 11, -20, -16, -3, 2, 8, 977, 941, 541,W
2025-03-12 13:06:53.620,834, 720, 189, 7, 17, 32, -6, 3, 8, 978, 937, 551,W
2025-03-12 13:06:53.673,621, 229, 586, -13, -27, -8, -4, 3, 8, 971, 935, 538,W
2025-03-12 13:06:53.735,790, 534, 142, -34, 74, -39, -6, 2, 5, 963, 920, 625,W
2025-03-12 13:06:53.983,722, 570, 444, -1, -2, 0, -5, 1, 6, 948, 840, 523,X
2025-03-12 13:06:54.037,717, 568, 448, -2, -2, 1, -3, -2, 8, 945, 842, 516,X
2025-03-12 13:06:54.093,735, 561, 403, -2, 0, -3, -5, 1, 3, 946, 838, 512,X
2025-03-12 13:06:54.148,694, 555, 468, -4, -2, -1, -4, 1, 6, 946, 848, 523,X
2025-03-12 13:06:54.202,733, 570, 395, -2, -4, -3, -3, 0, 6, 942, 842, 512,X
2025-03-12 13:06:54.253,706, 569, 449, -2, -3, 1, -5, 1, 5, 951, 869, 567,X
2025-03-12 13:06:54.303,725, 575, 410, -1, -10, 2, 0, 0, 5, 949, 867, 570,X
2025-03-12 13:06:54.360,734, 554, 429, -2, -9, 4, -6, 4, 5, 952, 884, 585,X
2025-03-12 13:06:54.415,707, 560, 442, 4, -17, 11, -6, 1, 7, 957, 903, 609,X
2025-03-12 13:06:54.469,726, 609, 393, -27, -8, -3, -5, 3, 8, 965, 927, 540,X
2025-03-12 13:06:54.517,644, 802, 53, 51, 11, 4, -6, 3, 6, 973, 930, 195,X
2025-03-12 13:06:54.573,975, 503, 117, -13, 45, 10, -3, 2, 6, 973, 915, 190,X
2025-03-12 13:06:54.631,652, 433, 598, 12, -32, -38, -3, 1, 7, 961, 903, 247,X
2025-03-12 13:06:54.683,669, 847, 546, -2, -30, 15, -4, 0, 7, 980, 942, 373,X
2025-03-12 13:06:54.733,609, 360, 433, 13, 24, 22, -4, 3, 7, 976, 928, 529,X
2025-03-12 13:06:54.798,682, 561, 351, -32, 45, -44, -5, 2, 6, 970, 907, 471,X
2025-03-12 13:06:55.083,726, 583, 389, -5, 0, -1, -5, 1, 5, 944, 879, 515,Y
2025-03-12 13:06:55.133,721, 581, 401, -7, 1, -1, -4, 3, 6, 942, 882, 522,Y
2025-03-12 13:06:55.193,686, 582, 471, -4, -2, -1, -3, 2, 6, 941, 879, 500,Y
2025-03-12 13:06:55.246,694, 580, 464, -1, -6, 1, -3, 2, 5, 940, 878, 492,Y
2025-03-12 13:06:55.299,706, 569, 417, -3, -3, 0, -4, 1, 5, 941, 884, 528,Y
2025-03-12 13:06:55.349,666, 566, 478, -3, -8, 2, -4, 1, 7, 936, 877, 458,Y
2025-03-12 13:06:55.410,699, 571, 411, -7, -12, -6, -5, 2, 6, 939, 868, 316,Y
2025-03-12 13:06:55.463,729, 547, 462, -7, -15, 3, -5, 3, 7, 947, 900, 278,Y
2025-03-12 13:06:55.516,1033, 666, 493, 29, -9, 7, -5, 1, 8, 976, 934, 420,Y
2025-03-12 13:06:55.566,756, 761, 310, 18, 17, 36, -5, 3, 7, 980, 940, 556,Y
2025-03-12 13:06:55.623,642, 624, 393, -22, 4, -36, -4, 2, 8, 974, 936, 643,Y
2025-03-12 13:06:55.680,509, 479, 546, 27, -19, -12, -5, 3, 7, 978, 934, 613,Y
2025-03-12 13:06:55.733,1081, 662, 221, 23, 47, 30, -5, 2, 8, 982, 918, 466,Y
2025-03-12 13:06:55.793,976, 341, 397, -27, 34, -23, -3, 0, 9, 970, 867, 577,Y
2025-03-12 13:06:55.848,602, 515, 647, -52, 28, -42, -2, 3, 5, 953, 866, 480,Y
2025-03-12 13:06:56.093,702, 565, 425, -4, -8, 1, -5, 2, 4, 931, 848, 422,Z
2025-03-12 13:06:56.147,694, 574, 441, -3, -8, 2, -5, 3, 6, 931, 846, 420,Z
2025-03-12 13:06:56.200,738, 569, 414, -4, -2, 1, -4, 1, 6, 932, 847, 446,Z
2025-03-12 13:06:56.253,691, 571, 474, -6, -1, 1, -3, 1, 6, 933, 851, 460,Z
2025-03-12 13:06:56.304,708, 547, 447, -7, -7, -1, -5, 1, 4, 933, 851, 444,Z
2025-03-12 13:06:56.355,702, 573, 448, -4, -7, 3, -4, 1, 5, 935, 856, 446,Z
2025-03-12 13:06:56.413,768, 555, 381, -7, -6, -4, -4, 3, 7, 935, 858, 436,Z
2025-03-12 13:06:56.466,676, 584, 493, -6, -2, -3, -4, 2, 7, 938, 859, 381,Z
2025-03-12 13:06:56.524,723, 512, 449, -1, -24, -3, -4, 2, 8, 948, 883, 204,Z
2025-03-12 13:06:56.574,804, 755, 367, 19, -15, 27, -4, 1, 7, 968, 930, 567,Z
2025-03-12 13:06:56.631,667, 455, 564, 45, 3, 13, -5, 2, 9, 974, 929, 669,Z
2025-03-12 13:06:56.684,642, 428, 375, 23, 18, -11, -5, 1, 6, 977, 915, 492,Z
2025-03-12 13:06:56.733,781, 763, 402, -18, 17, 29, -3, 0, 9, 986, 941, 346,Z
2025-03-12 13:06:56.793,730, 380, 569, 12, -1, 14, -3, 1, 5, 983, 944, 462,Z
2025-03-12 13:06:56.851,485, 611, 436, -8, 15, -52, -5, 3, 5, 969, 912, 522,Z
2025-03-12 13:06:56.903,4366, -101, -166, 6, -27, -17, -5, 2, 6, 974, 931, 607,Z
2025-03-12 13:06:56.963,866, 333, 159, 6, 27, 29, -5, 3, 8, 982, 943, 685,Z
2025-03-12 13:06:57.017,720, 600, 260, -19, 45, -35, -5, 2, 6, 972, 916, 706,Z
2025-03-12 13:06:57.073,562, 651, 662, -17, 16, -16, -6, -1, 5, 954, 841, 583,Z
2025-03-12 13:06:57.343,712, 569, 400, -1, 0, -4, -2, 0, 6, 944, 824, 496,a
2025-03-12 13:06:57.397,720, 576, 408, -3, 0, -5, -4, 1, 7, 941, 816, 477,a
2025-03-12 13:06:57.449,702, 589, 424, -6, 0, -5, -3, 1, 6, 938, 825, 484,a
2025-03-12 13:06:57.500,686, 599, 430, -6, -1, -4, -3, 0, 5, 938, 828, 484,a
2025-03-12 13:06:57.553,689, 590, 458, -3, -4, 0, -4, 1, 4, 937, 834, 507,a
2025-03-12 13:06:57.609,728, 579, 425, -4, -8, -3, -6, 1, 5, 941, 834, 498,a
2025-03-12 13:06:57.667,741, 553, 465, 3, -11, -9, -4, 1, 5, 946, 855, 524,a
2025-03-12 13:06:57.718,755, 526, 370, 9, -16, -43, -5, 0, 5, 952, 866, 526,a
2025-03-12 13:06:57.777,579, 745, 356, 7, -12, -37, -3, -1, 7, 954, 856, 480,a
2025-03-12 13:06:57.831,549, 767, 324, 21, -13, 37, -5, -3, 9, 961, 876, 464,a
2025-03-12 13:06:57.883,772, 623, 270, 18, 5, 43, -5, 1, 8, 960, 893, 493,a
2025-03-12 13:06:57.933,669, 583, 432, -1, -1, 46, -5, 0, 9, 967, 906, 514,a
2025-03-12 13:06:57.994,699, 510, 418, -34, 1, -11, -6, 0, 10, 969, 923, 364,a
2025-03-12 13:06:58.050,790, 459, 381, 5, -14, -20, -6, 0, 9, 971, 932, 222,a
2025-03-12 13:06:58.103,831, 846, -16, -32, 43, 37, -5, 1, 7, 978, 935, 97,a
2025-03-12 13:06:58.153,631, 269, 647, -20, -10, -8, -4, 2, 9, 977, 934, 188,a
2025-03-12 13:06:58.214,840, 761, 218, 28, -2, 5, -5, 1, 8, 983, 943, 383,a
2025-03-12 13:06:58.265,765, 643, 365, 2, 20, 13, -4, 2, 10, 979, 936, 384,a
2025-03-12 13:06:58.315,727, 537, 392, -32, 48, -47, -3, 2, 5, 973, 933, 504,a
2025-03-12 13:06:58.624,520, 645, -103, 45, -42, 101, -5, -3, 6, 929, 639, 418,b
2025-03-12 13:06:58.683,608, 603, -34, 21, -17, 102, -3, -1, 7, 928, 630, 413,b
2025-03-12 13:06:58.733,770, 691, 446, 4, 28, 31, -4, -1, 7, 928, 660, 384,b
2025-03-12 13:06:58.783,863, 588, 253, -19, 2, -6, -3, 1, 6, 931, 757, 454,b
2025-03-12 13:06:58.846,580, 606, 579, -14, -22, -9, -4, 1, 8, 935, 842, 435,b
2025-03-12 13:06:58.899,893, 326, 467, -8, 0, -2, -5, 1, 8, 964, 896, 393,b
2025-03-12 13:06:58.953,1163, 266, 337, 13, 48, 37, -5, 0, 6, 970, 894, 410,b
2025-03-12 13:06:59.011,837, 373, 513, -1, -3, -17, -4, 2, 3, 962, 889, 468,b
2025-03-12 13:06:59.063,572, 582, 522, -17, -2, 11, -5, 1, 3, 973, 924, 461,b
2025-03-12 13:06:59.117,616, 615, 181, -13, 26, 21, -2, 1, 5, 978, 924, 254,b
2025-03-12 13:06:59.173,953, 359, 465, 16, 10, -19, -4, 1, 5, 957, 839, 417,b
2025-03-12 13:06:59.475,692, 578, 445, -7, -3, 0, -6, 3, 5, 951, 859, 347,c
2025-03-12 13:06:59.533,686, 572, 461, -6, -3, 0, -5, 2, 4, 947, 849, 304,c
2025-03-12 13:06:59.586,690, 563, 447, 1, -5, 3, -4, 2, 3, 950, 860, 364,c
2025-03-12 13:06:59.633,734, 582, 397, -2, -5, 2, -6, 1, 5, 954, 876, 403,c
2025-03-12 13:06:59.693,702, 551, 445, 1, -13, 7, -5, 1, 5, 961, 893, 407,c
2025-03-12 13:06:59.749,724, 570, 548, -26, -11, -10, -5, -1, 8, 966, 917, 87,c
2025-03-12 13:06:59.800,968, 589, 240, 47, 9, -6, -4, 1, 6, 975, 920, 79,c
2025-03-12 13:06:59.853,838, 522, 419, -16, 26, 34, -4, 1, 5, 978, 937, 88,c
2025-03-12 13:06:59.911,795, 667, 145, -26, 69, -50, -5, 3, 5, 968, 916, 370,c
2025-03-12 13:06:59.966,524, 659, 771, -23, 24, -16, -2, 1, 1, 946, 864, 453,c
2025-03-12 13:07:00.233,707, 569, 442, 0, -3, 2, -3, 3, 3, 946, 871, 428,d
2025-03-12 13:07:00.283,711, 568, 442, 1, -4, 2, -1, 0, 5, 947, 873, 426,d
2025-03-12 13:07:00.338,708, 570, 449, -1, -6, 6, -5, 2, 4, 949, 880, 435,d
2025-03-12 13:07:00.394,695, 542, 431, 2, -9, 6, -5, 1, 6, 959, 900, 504,d
2025-03-12 13:07:00.448,684, 600, 397, -27, -2, -7, -3, 3, 6, 961, 919, 338,d
2025-03-12 13:07:00.499,690, 451, 436, 12, -6, -17, -6, 4, 5, 966, 917, 41,d
2025-03-12 13:07:00.553,856, 592, 313, -31, 31, 38, -4, 1, 6, 977, 929, 75,d
2025-03-12 13:07:00.612,444, 292, 842, -29, -25, -11, -4, 3, 7, 976, 941, 39,d
2025-03-12 13:07:00.665,704, 316, 866, 12, -14, -15, -4, 2, 5, 973, 943, 151,d
2025-03-12 13:07:00.722,749, 476, 277, 16, 36, 31, -3, 3, 5, 979, 938, 69,d
2025-03-12 13:07:00.774,874, 255, 395, -17, 11, -27, -8, 1, 6, 974, 913, 246,d
2025-03-12 13:07:01.074,679, 553, 465, 8, -2, 6, -4, 1, 6, 948, 821, 323,e
2025-03-12 13:07:01.126,693, 546, 461, 10, -3, 7, -2, 1, 6, 947, 816, 305,e
2025-03-12 13:07:01.181,753, 561, 405, 4, -4, 1, -4, 4, 4, 944, 799, 294,e
2025-03-12 13:07:01.234,682, 544, 479, 6, -9, 4, -3, 0, 5, 955, 832, 302,e
2025-03-12 13:07:01.283,783, 488, 438, 11, 4, 3, -6, 4, 4, 975, 911, 338,e
2025-03-12 13:07:01.333,560, 491, 391, -26, 7, 17, -5, 3, 6, 983, 941, 405,e
2025-03-12 13:07:01.393,635, 333, 586, -8, -23, -28, -4, 3, 5, 973, 938, 343,e
2025-03-12 13:07:01.448,816, 623, 463, 45, 0, -17, -5, 3, 6, 979, 936, 308,e
2025-03-12 13:07:01.501,779, 286, 331, 7, 29, 23, -6, 2, 4, 980, 931, 262,e
2025-03-12 13:07:01.553,814, 335, 384, -12, 21, -38, -4, 1, 4, 975, 923, 377,e
2025-03-12 13:07:01.863,697, 562, 479, 3, 1, 6, -4, 3, 6, 963, 884, 394,f
2025-03-12 13:07:01.914,719, 543, 471, 4, 0, 5, 0, 1, 6, 965, 884, 411,f
2025-03-12 13:07:01.963,723, 563, 456, 0, 4, 6, -4, 2, 3, 964, 886, 400,f
2025-03-12 13:07:02.016,682, 538, 505, 0, -1, 13, -5, 3, 3, 965, 889, 307,f
2025-03-12 13:07:02.065,759, 541, 363, -21, 8, 5, -3, 2, 2, 974, 912, 127,f
2025-03-12 13:07:02.124,716, 421, 694, -25, -16, -14, -3, 4, 3, 976, 949, 122,f
2025-03-12 13:07:02.183,604, 445, 568, 10, -37, -11, -3, 1, 5, 982, 956, 393,f
2025-03-12 13:07:02.233,738, 687, 220, 32, 6, 8, -5, 1, 7, 981, 947, 474,f
2025-03-12 13:07:02.285,711, 368, 436, 12, 25, -33, -4, 2, 5, 975, 934, 413,f
2025-03-12 13:07:02.343,859, 954, 379, -28, -9, 5, -4, 1, 5, 980, 943, 392,f
2025-03-12 13:07:02.397,836, 646, 365, -1, 2, 12, -4, 2, 7, 983, 949, 379,f
2025-03-12 13:07:02.453,825, 525, 208, -6, 42, -34, -5, 3, 6, 975, 933, 448,f
2025-03-12 13:07:02.738,683, 566, 477, 0, -4, 7, -3, 2, 3, 956, 849, 425,g
2025-03-12 13:07:02.783,715, 558, 466, 2, -5, 8, -5, 3, 6, 954, 842, 415,g
2025-03-12 13:07:02.833,732, 556, 426, 1, -3, 7, -4, 0, 7, 956, 856, 419,g
2025-03-12 13:07:02.893,681, 554, 472, 7, -14, 9, -2, 0, 4, 969, 882, 485,g
2025-03-12 13:07:02.946,708, 592, 499, -28, -1, -6, -4, 2, 5, 970, 912, 239,g
2025-03-12 13:07:03.003,883, 314, 525, 13, -12, -17, -5, 2, 7, 972, 926, 77,g
2025-03-12 13:07:03.053,798, 570, 256, -28, 36, 41, -7, 4, 7, 982, 932, 99,g
2025-03-12 13:07:03.114,499, 359, 734, -5, -13, -8, -4, 4, 6, 982, 938, 282,g
2025-03-12 13:07:03.163,716, 623, 349, 17, 2, 5, -2, 1, 7, 980, 926, 181,g
2025-03-12 13:07:03.214,800, 622, 293, -21, 34, 31, -4, 2, 5, 981, 927, 114,g
2025-03-12 13:07:03.273,1004, 220, 509, 22, 8, -39, -4, 2, 5, 960, 839, 52,g
2025-03-12 13:07:03.330,645, 535, 711, -37, 26, -32, -3, 3, 2, 928, 852, 310,g
2025-03-12 13:07:03.543,733, 567, 395, -2, -6, 1, -3, 1, 5, 936, 816, 381,h
2025-03-12 13:07:03.597,736, 577, 404, -2, -3, 1, -3, 1, 5, 935, 818, 385,h
2025-03-12 13:07:03.648,696, 584, 473, 0, 1, 2, -2, 0, 6, 939, 823, 385,h
2025-03-12 13:07:03.704,725, 566, 435, -3, 1, -2, -6, 3, 1, 939, 827, 390,h
2025-03-12 13:07:03.753,691, 565, 448, -5, 1, 0, -4, 3, 4, 942, 837, 423,h
2025-03-12 13:07:03.806,705, 545, 454, -1, 0, 0, -5, 4, 5, 943, 846, 443,h
2025-03-12 13:07:03.882,683, 550, 468, -2, -2, -4, -5, 2, 3, 942, 844, 466,h
2025-03-12 13:07:03.916,691, 572, 473, -9, -8, -4, -3, 2, 6, 942, 851, 392,h
2025-03-12 13:07:03.970,690, 591, 470, -8, -25, -1, -5, 3, 4, 944, 873, 299,h
2025-03-12 13:07:04.021,728, 618, 570, -1, -9, -9, -5, 2, 5, 963, 920, 173,h
2025-03-12 13:07:04.080,1031, 750, 458, 23, 38, 40, -3, 1, 7, 982, 929, 79,h
2025-03-12 13:07:04.129,774, 546, 188, 2, 23, 12, -5, 4, 4, 982, 928, 101,h
2025-03-12 13:07:04.183,590, 612, 508, -10, -32, -22, -4, 3, 5, 980, 936, 280,h
2025-03-12 13:07:04.245,864, 492, 150, -17, 25, 31, -3, 3, 6, 986, 938, 203,h
2025-03-12 13:07:04.296,911, 355, 299, -33, 44, -38, -4, 3, 3, 979, 910, 306,h
2025-03-12 13:07:04.353,547, 503, 773, 2, 17, -24, -3, 2, 2, 962, 870, 395,h
2025-03-12 13:07:04.607,729, 520, 451, 0, -4, 3, -3, 3, 6, 965, 889, 446,i
2025-03-12 13:07:04.662,715, 521, 454, 0, -4, 2, -4, 4, 5, 964, 886, 444,i
2025-03-12 13:07:04.715,727, 516, 450, 3, -14, -1, -6, 2, 5, 965, 897, 449,i
2025-03-12 13:07:04.771,734, 582, 478, -23, -6, -8, -5, 4, 5, 969, 919, 196,i
2025-03-12 13:07:04.822,724, 562, 444, 6, -5, 3, -4, 2, 5, 981, 929, 124,i
2025-03-12 13:07:04.879,750, 794, 125, -14, 24, 27, -5, 3, 5, 981, 913, 74,i
2025-03-12 13:07:04.930,451, 643, 582, 0, -16, -57, -5, 3, 6, 970, 903, 226,i
2025-03-12 13:07:04.983,877, 633, 214, -48, -21, 2, -5, 2, 5, 976, 936, 28,i
2025-03-12 13:07:05.043,788, 617, 492, 22, 14, 23, -5, 1, 7, 973, 913, 347,i
2025-03-12 13:07:05.096,644, 501, 445, -15, 49, -15, -4, 1, 5, 969, 879, 236,i
2025-03-12 13:07:05.390,704, 524, 477, 2, -2, 8, -6, 4, 3, 971, 878, 460,j
2025-03-12 13:07:05.433,718, 513, 479, 4, -4, 7, -3, 3, 5, 968, 879, 464,j
2025-03-12 13:07:05.494,697, 538, 474, 1, -13, 6, -5, 3, 5, 964, 875, 444,j
2025-03-12 13:07:05.551,719, 598, 417, -30, -1, -3, -4, 5, 4, 962, 889, 304,j
2025-03-12 13:07:05.604,750, 427, 595, 0, -10, -6, -4, 4, 2, 973, 906, 67,j
2025-03-12 13:07:05.653,623, 168, 542, -57, 20, 30, -3, 2, 4, 983, 925, 99,j
2025-03-12 13:07:05.711,673, 227, 354, -27, 1, -21, -2, 6, 5, 978, 910, 93,j
2025-03-12 13:07:05.767,432, 818, 951, -17, -36, -31, -4, 3, 2, 975, 924, 85,j
2025-03-12 13:07:05.817,782, 567, 198, 18, -14, -8, -5, 3, 6, 981, 939, 89,j
2025-03-12 13:07:05.873,896, 326, 425, -3, 38, 10, -5, 3, 7, 974, 898, 225,j
2025-03-12 13:07:05.927,645, 501, 472, -6, 36, -10, -4, 4, 5, 970, 873, 48,j
2025-03-12 13:07:05.979,647, 502, 587, 8, -5, 6, -4, 2, 4, 968, 863, 46,j
2025-03-12 13:07:06.223,738, 525, 443, 5, -2, -4, -4, 3, 6, 953, 816, 149,k
2025-03-12 13:07:06.274,739, 538, 441, 4, -2, -3, -5, 6, 4, 954, 821, 181,k
2025-03-12 13:07:06.333,707, 537, 460, 1, -10, -3, -4, 4, 3, 946, 817, 155,k
2025-03-12 13:07:06.380,772, 535, 391, -5, 2, -3, -3, 2, 5, 955, 865, 271,k
2025-03-12 13:07:06.434,677, 545, 498, -5, -3, -3, -2, 1, 6, 954, 870, 259,k
2025-03-12 13:07:06.493,765, 415, 358, -18, -7, -10, -5, 4, 5, 966, 896, 118,k
2025-03-12 13:07:06.546,764, 388, 465, 24, 13, 8, -6, 5, 5, 980, 898, 118,k
2025-03-12 13:07:06.598,815, 476, 333, 19, 12, 11, -4, 3, 5, 983, 911, 102,k
2025-03-12 13:07:06.653,842, 543, 382, -30, -7, 18, -5, 5, 6, 984, 944, 93,k
2025-03-12 13:07:06.711,697, 590, 479, 42, 1, -9, -6, 4, 4, 975, 910, 170,k
2025-03-12 13:07:06.753,551, 667, 852, 1, -3, 2, -4, 2, 5, 965, 830, 36,k
2025-03-12 13:07:06.812,1016, 715, 32, -34, 13, 49, -5, 4, 5, 981, 924, 64,k
2025-03-12 13:07:06.863,756, 349, 662, 27, 9, 16, -5, 4, 3, 980, 909, 39,k
2025-03-12 13:07:06.919,604, 474, 484, -3, 46, -63, -3, 0, 4, 957, 830, 267,k
2025-03-12 13:07:07.168,687, 543, 483, -8, -7, -2, -4, 3, 5, 946, 838, 301,l
2025-03-12 13:07:07.223,681, 537, 498, -6, -10, -1, -2, 3, 8, 944, 841, 319,l
2025-03-12 13:07:07.279,741, 561, 400, -9, -16, -4, -4, 2, 4, 942, 853, 354,l
2025-03-12 13:07:07.333,734, 566, 418, -16, -16, -5, -4, 4, 5, 943, 880, 358,l
2025-03-12 13:07:07.383,722, 583, 527, -27, -5, -3, -4, 2, 5, 958, 912, 212,l
2025-03-12 13:07:07.444,810, 516, 489, 40, -7, 7, -5, 1, 7, 977, 920, 106,l
2025-03-12 13:07:07.495,761, 781, 378, -17, 24, 32, -4, 1, 6, 982, 908, 77,l
2025-03-12 13:07:07.545,875, 441, 548, -13, 11, -7, -4, 3, 4, 973, 876, 41,l
2025-03-12 13:07:07.603,580, 550, 589, -33, 33, -30, -3, 2, 4, 952, 873, 237,l
2025-03-12 13:07:07.661,590, 599, 575, -2, -10, 8, -4, 1, 4, 938, 853, 202,l
2025-03-12 13:07:07.918,744, 531, 420, 5, -4, 2, -4, 4, 4, 949, 866, 281,m
2025-03-12 13:07:07.971,753, 539, 408, 4, -3, 1, -4, 5, 8, 949, 867, 286,m
2025-03-12 13:07:08.025,719, 535, 449, 0, 2, -2, -4, 2, 6, 948, 868, 350,m
2025-03-12 13:07:08.078,679, 531, 446, 4, -10, -10, -3, 2, 6, 940, 859, 302,m
2025-03-12 13:07:08.131,742, 393, 593, -16, -7, -5, -4, 2, 6, 967, 914, 53,m
2025-03-12 13:07:08.183,756, 644, 335, -2, 30, 33, -4, 2, 6, 980, 924, 59,m
2025-03-12 13:07:08.233,788, 522, 490, -11, 9, 4, -3, 3, 4, 977, 925, 68,m
2025-03-12 13:07:08.296,749, 600, 562, -22, -16, -10, -4, 4, 4, 981, 937, 110,m
2025-03-12 13:07:08.347,781, 824, 148, -18, 19, 26, -4, 3, 7, 988, 941, 145,m
2025-03-12 13:07:08.403,858, 261, 637, 4, -14, -16, -3, 3, 5, 978, 926, 55,m
2025-03-12 13:07:08.453,646, 719, 329, 4, -1, 11, -5, 3, 5, 981, 931, 203,m
2025-03-12 13:07:08.504,827, 450, 327, -7, 21, 7, -5, 4, 4, 983, 929, 210,m
2025-03-12 13:07:08.564,639, 443, 559, -26, 58, -50, -3, 2, 4, 970, 890, 152,m
2025-03-12 13:07:08.843,720, 561, 464, 10, -9, 5, -3, 2, 3, 935, 807, 160,n
2025-03-12 13:07:08.895,723, 547, 473, 11, -10, 6, -5, 2, 6, 935, 810, 182,n
2025-03-12 13:07:08.944,726, 525, 470, 10, -8, 3, -4, 4, 5, 941, 819, 329,n
2025-03-12 13:07:09.003,715, 538, 437, 1, -7, -3, -4, 4, 3, 936, 822, 311,n
2025-03-12 13:07:09.053,727, 548, 448, -2, -17, -6, -4, 3, 5, 940, 851, 148,n
2025-03-12 13:07:09.110,721, 475, 571, -7, -14, -6, -5, 4, 4, 971, 905, 68,n
2025-03-12 13:07:09.163,769, 412, 384, 4, 14, 18, -3, 1, 5, 979, 913, 66,n
2025-03-12 13:07:09.213,728, 550, 500, -12, 10, 4, -2, -1, 9, 975, 919, 69,n
2025-03-12 13:07:09.274,920, 714, 472, -16, -30, -17, -5, 4, 4, 972, 929, 40,n
2025-03-12 13:07:09.328,679, 539, 585, -8, -5, 9, -5, 3, 5, 983, 940, 63,n
2025-03-12 13:07:09.381,934, 147, 362, 13, 22, 21, -4, 5, 8, 986, 936, 76,n
2025-03-12 13:07:09.433,926, 288, 341, -13, 31, -41, -5, 6, 5, 979, 923, 191,n
2025-03-12 13:07:09.483,564, 532, 669, -16, 33, -27, -2, 3, 3, 957, 883, 214,n
2025-03-12 13:07:09.773,728, 519, 498, 8, -11, 8, -5, 2, 5, 946, 861, 299,o
2025-03-12 13:07:09.827,750, 514, 454, 8, -10, 8, -2, 6, 4, 949, 867, 335,o
2025-03-12 13:07:09.880,704, 513, 479, 5, -5, 9, -4, 5, 6, 957, 879, 385,o
2025-03-12 13:07:09.933,715, 544, 427, -19, 3, 0, -3, 6, 5, 960, 893, 203,o
2025-03-12 13:07:09.983,781, 598, 435, -24, -6, -16, -4, 2, 6, 963, 927, 83,o
2025-03-12 13:07:10.034,917, 628, 149, 49, 13, 0, -3, 5, 4, 977, 921, 43,o
2025-03-12 13:07:10.094,811, 436, 518, -35, 23, 32, -3, 5, 4, 982, 939, 74,o
2025-03-12 13:07:10.146,654, 339, 524, 31, -26, -28, -4, 3, 7, 977, 939, 61,o
2025-03-12 13:07:10.204,900, 600, 199, -15, 61, -40, -3, 3, 5, 932, 886, 303,o
2025-03-12 13:07:10.253,543, 663, 670, -6, 10, -1, -3, 2, 5, 922, 850, 112,o
2025-03-12 13:07:10.514,658, 534, 505, -7, -11, -1, -3, 2, 6, 924, 826, 78,p
2025-03-12 13:07:10.563,691, 552, 513, -6, -14, 2, -5, 6, 2, 922, 832, 59,p
2025-03-12 13:07:10.620,751, 541, 394, -20, -6, 3, -6, 3, 6, 930, 867, 72,p
2025-03-12 13:07:10.673,725, 519, 524, -35, 4, 3, -5, 4, 6, 945, 892, 125,p
2025-03-12 13:07:10.728,718, 471, 525, 55, 16, 18, -5, 5, 3, 973, 907, 115,p
2025-03-12 13:07:10.779,843, 744, 142, -29, 63, 66, -5, 5, 5, 978, 907, 80,p
2025-03-12 13:07:10.839,868, 118, 613, 31, -45, -77, -4, 5, 3, 970, 916, 101,p
2025-03-12 13:07:10.885,692, 731, 697, -42, -25, -3, -4, 3, 5, 974, 944, 74,p
2025-03-12 13:07:10.945,572, 665, 258, -5, 24, 37, -3, 2, 6, 982, 946, 56,p
2025-03-12 13:07:10.996,830, 419, 264, 11, 23, 11, -4, 4, 6, 977, 918, 76,p
2025-03-12 13:07:11.293,718, 521, 456, 0, -3, 2, -4, 4, 4, 954, 863, 67,q
2025-03-12 13:07:11.347,720, 520, 458, 0, -4, 2, -6, 6, 2, 952, 867, 46,q
2025-03-12 13:07:11.395,716, 528, 470, 3, -9, 6, -4, 3, 5, 962, 889, 111,q
2025-03-12 13:07:11.449,731, 610, 416, -28, 1, -2, -4, 1, 6, 965, 913, 97,q
2025-03-12 13:07:11.504,661, 502, 607, 1, -17, -17, -5, 2, 5, 971, 931, 138,q
2025-03-12 13:07:11.553,898, 825, 69, 21, 7, -3, -6, 0, 8, 973, 904, 42,q
2025-03-12 13:07:11.609,801, 543, 288, -37, 23, 30, -3, 4, 4, 981, 933, 88,q
2025-03-12 13:07:11.666,763, 377, 452, 2, -18, -18, -4, 3, 7, 977, 943, 87,q
2025-03-12 13:07:11.713,961, 904, 275, 26, 30, 31, -4, 3, 6, 982, 930, 101,q
2025-03-12 13:07:11.773,775, 699, 335, -22, 19, 28, -4, 4, 3, 984, 941, 127,q
2025-03-12 13:07:11.826,930, 334, 325, 6, 18, -18, -4, 4, 3, 977, 934, 104,q
2025-03-12 13:07:12.105,743, 521, 441, 8, -27, -4, -4, 4, 4, 940, 860, 44,r
2025-03-12 13:07:12.155,768, 521, 402, 11, -26, -4, -4, 3, 7, 940, 863, 52,r
2025-03-12 13:07:12.212,716, 535, 442, 5, -3, -4, -5, 3, 5, 947, 880, 195,r
2025-03-12 13:07:12.264,721, 570, 441, -13, -1, -7, -5, 0, 7, 951, 896, 131,r
2025-03-12 13:07:12.313,722, 435, 582, 4, -10, -7, -4, 2, 5, 968, 929, 137,r
2025-03-12 13:07:12.373,862, 846, 353, -22, 39, 52, -6, 3, 5, 978, 923, 69,r
2025-03-12 13:07:12.428,804, 576, 484, -53, 14, 14, -5, 3, 5, 982, 941, 107,r
2025-03-12 13:07:12.478,705, 371, 560, 19, -8, -2, -5, 4, 5, 979, 947, 125,r
2025-03-12 13:07:12.538,839, 485, 326, -20, 76, -22, -5, 4, 5, 976, 928, 201,r
2025-03-12 13:07:12.583,471, 586, 799, -6, 6, -9, -4, 3, 1, 971, 911, 163,r
2025-03-12 13:07:12.866,733, 527, 439, 4, -8, 7, -6, 4, 4, 961, 900, 339,s
2025-03-12 13:07:12.913,748, 533, 436, 3, -7, 6, -4, 3, 6, 962, 900, 336,s
2025-03-12 13:07:12.967,737, 500, 470, 0, -1, 3, -5, 3, 5, 962, 899, 337,s
2025-03-12 13:07:13.026,699, 525, 469, -3, -12, 5, -4, 3, 8, 963, 907, 248,s
2025-03-12 13:07:13.078,649, 578, 539, -23, 1, -4, -4, 3, 7, 970, 931, 56,s
2025-03-12 13:07:13.133,851, 357, 391, 31, 1, -12, -5, 3, 7, 980, 942, 141,s
2025-03-12 13:07:13.183,818, 1025, 480, 8, 26, 33, -6, 1, 7, 987, 949, 171,s
2025-03-12 13:07:13.236,715, 249, 623, 0, 17, 7, -5, 6, 4, 984, 938, 125,s
2025-03-12 13:07:13.292,1115, 466, 122, 4, 56, -47, -3, 2, 5, 960, 870, 59,s
2025-03-12 13:07:13.345,488, 589, 820, 1, 12, -17, -3, 2, 4, 953, 874, 188,s
2025-03-12 13:07:13.616,755, 533, 404, -2, -20, 0, -5, 2, 3, 952, 892, 340,t
2025-03-12 13:07:13.673,767, 531, 397, -6, -17, -3, -3, 3, 7, 946, 884, 294,t
2025-03-12 13:07:13.727,719, 522, 468, -15, -14, -5, -5, 2, 7, 952, 904, 345,t
2025-03-12 13:07:13.783,717, 619, 456, -32, -7, -8, -1, 0, 7, 961, 928, 159,t
2025-03-12 13:07:13.837,611, 297, 712, 0, -20, -18, -5, 3, 8, 970, 937, 97,t
2025-03-12 13:07:13.894,744, 1006, -90, 33, 41, 34, -4, 3, 5, 983, 934, 104,t
2025-03-12 13:07:13.946,721, 335, 576, -8, 27, 25, -6, 1, 6, 982, 940, 59,t
2025-03-12 13:07:14.004,541, 714, 644, 15, -23, -45, -4, 3, 5, 971, 931, 332,t
2025-03-12 13:07:14.059,843, 315, 229, -7, -7, -14, -5, 1, 8, 981, 945, 88,t
2025-03-12 13:07:14.112,642, 637, 478, -6, 21, 35, -4, 1, 7, 986, 949, 389,t
2025-03-12 13:07:14.163,586, 537, 520, 1, 46, -36, -6, 4, 3, 973, 918, 383,t
2025-03-12 13:07:14.421,632, 560, 515, 0, -12, 5, -4, 3, 5, 951, 809, 197,u
2025-03-12 13:07:14.476,687, 558, 479, 0, -16, 5, -3, 1, 8, 953, 812, 202,u
2025-03-12 13:07:14.534,720, 558, 412, -11, -19, 5, -4, 1, 6, 958, 846, 186,u
2025-03-12 13:07:14.583,740, 448, 463, -10, -6, -8, -6, 5, 5, 968, 895, 36,u
2025-03-12 13:07:14.633,701, 768, 332, 10, 15, 19, -4, 3, 5, 977, 908, 70,u
2025-03-12 13:07:14.693,894, 737, 342, -31, 15, 37, -4, 4, 6, 982, 925, 85,u
2025-03-12 13:07:14.744,559, 524, 596, 4, -23, -24, -4, 4, 8, 980, 934, 187,u
2025-03-12 13:07:14.798,943, 863, 272, 25, 20, 19, -4, 2, 9, 984, 931, 315,u
2025-03-12 13:07:14.857,879, 479, 308, -10, 24, 1, -5, 3, 5, 981, 920, 346,u
2025-03-12 13:07:14.910,605, 491, 638, -5, 21, -25, -9, 0, 3, 970, 888, 304,u
2025-03-12 13:07:15.186,708, 558, 442, 4, -7, -2, -3, 2, 5, 945, 808, 21,v
2025-03-12 13:07:15.242,717, 552, 446, 2, -7, -2, -3, 2, 5, 946, 813, 36,v
2025-03-12 13:07:15.295,711, 548, 483, -3, -14, -2, -4, 3, 4, 946, 839, 50,v
2025-03-12 13:07:15.353,710, 479, 512, -19, -1, -9, -5, 2, 6, 961, 911, 114,v
2025-03-12 13:07:15.410,773, 394, 674, 27, -21, -10, -4, 3, 7, 978, 928, 111,v
2025-03-12 13:07:15.463,876, 765, 245, -18, 13, 39, -5, 2, 5, 984, 928, 97,v
2025-03-12 13:07:15.514,753, 276, 932, -33, -33, -1, -8, 6, 5, 985, 949, 138,v
2025-03-12 13:07:15.573,886, 456, 363, 40, 11, -9, -5, 3, 5, 971, 918, 355,v
2025-03-12 13:07:15.629,551, 515, 660, -12, 34, -18, -4, 3, 3, 967, 891, 349,v
2025-03-12 13:07:15.901,686, 533, 467, 16, -5, -1, -2, 2, 4, 939, 790, 84,w
2025-03-12 13:07:15.953,712, 535, 458, 18, -6, -2, -3, 3, 3, 940, 792, 137,w
2025-03-12 13:07:16.008,744, 574, 424, 14, -6, -8, -5, 3, 5, 932, 790, 294,w
2025-03-12 13:07:16.063,758, 426, 224, -51, -7, -9, -4, 3, 6, 937, 861, 90,w
2025-03-12 13:07:16.114,732, 459, 647, -7, -26, -6, -4, 2, 7, 971, 922, 112,w
2025-03-12 13:07:16.169,704, 578, 277, -8, 15, 21, -6, 1, 6, 982, 931, 126,w
2025-03-12 13:07:16.227,750, 378, 472, -28, -20, -14, -4, 3, 6, 980, 938, 215,w
2025-03-12 13:07:16.277,760, 729, 261, 35, -2, 14, -5, 4, 4, 984, 936, 405,w
2025-03-12 13:07:16.334,722, 586, 342, -52, 10, 24, -5, 4, 5, 985, 938, 104,w
2025-03-12 13:07:16.392,902, 368, 336, 29, 7, -19, -5, 4, 7, 979, 930, 304,w
2025-03-12 13:07:16.444,595, 538, 570, -13, 39, -24, -3, 4, 2, 973, 910, 357,w
2025-03-12 13:07:16.733,752, 523, 410, 3, -10, 3, -4, 4, 2, 965, 894, 382,x
2025-03-12 13:07:16.778,744, 524, 409, 2, -9, 3, -4, 4, 2, 968, 899, 408,x
2025-03-12 13:07:16.833,730, 495, 507, 2, -15, 5, -6, 2, 6, 965, 893, 396,x
2025-03-12 13:07:16.893,728, 529, 504, -21, -6, -4, -3, 3, 9, 975, 926, 311,x
2025-03-12 13:07:16.944,484, 479, 429, 51, 5, -10, -5, 4, 7, 974, 908, 62,x
2025-03-12 13:07:16.994,862, 569, 55, -2, 31, 8, -3, 2, 7, 971, 883, 95,x
2025-03-12 13:07:17.045,654, 374, 693, 27, -29, -53, -2, 2, 5, 960, 871, 91,x
2025-03-12 13:07:17.103,895, 906, 422, 6, -23, 15, -6, 5, 4, 982, 934, 228,x
2025-03-12 13:07:17.158,581, 276, 511, -14, 25, 33, -5, 3, 5, 988, 939, 104,x
2025-03-12 13:07:17.211,710, 583, 271, 5, 44, -69, -5, 4, 4, 972, 904, 253,x
2025-03-12 13:07:17.493,723, 545, 438, -1, -11, 0, -4, 2, 6, 951, 880, 334,y
2025-03-12 13:07:17.544,715, 560, 421, -3, -12, 0, -3, 4, 5, 952, 886, 353,y
2025-03-12 13:07:17.594,691, 644, 453, -24, -4, -8, -5, 2, 6, 956, 910, 70,y
2025-03-12 13:07:17.653,723, 423, 517, 25, -5, -11, -5, 2, 6, 973, 921, 80,y
2025-03-12 13:07:17.708,687, 635, 57, -9, 25, 36, -5, 3, 6, 981, 935, 57,y
2025-03-12 13:07:17.761,668, 231, 646, 4, -16, -22, -3, 4, 7, 975, 933, 366,y
2025-03-12 13:07:17.813,663, 630, 452, 7, -3, 5, -4, 3, 6, 979, 933, 344,y
2025-03-12 13:07:17.864,641, 598, 346, -11, 25, 31, -4, 5, 5, 981, 931, 56,y
2025-03-12 13:07:17.919,809, 269, 464, 9, 21, -15, -5, 5, 3, 969, 858, 90,y
2025-03-12 13:07:17.977,688, 504, 638, -48, 27, -42, -5, 2, 2, 948, 841, 167,y
2025-03-12 13:07:18.223,724, 542, 468, -4, 1, -4, -4, 3, 6, 942, 816, 304,z
2025-03-12 13:07:18.275,709, 547, 474, -5, 1, -4, -4, 1, 8, 943, 812, 297,z
2025-03-12 13:07:18.333,701, 528, 465, -6, -6, -8, -3, 3, 5, 940, 799, 132,z
2025-03-12 13:07:18.383,676, 509, 559, -8, -25, 1, -4, 2, 6, 942, 761, 82,z
2025-03-12 13:07:18.441,924, 534, 465, 24, -10, -2, -6, 3, 6, 967, 911, 90,z
2025-03-12 13:07:18.494,822, 432, 566, 24, -3, 17, -5, 3, 5, 980, 937, 84,z
2025-03-12 13:07:18.547,347, 545, 309, 18, 22, 9, -5, 3, 8, 974, 904, 47,z
2025-03-12 13:07:18.593,901, 578, 331, 0, 2, -2, -6, 4, 5, 974, 895, 27,z
2025-03-12 13:07:18.647,782, 533, 532, -9, -2, 33, -4, 3, 5, 981, 935, 37,z
2025-03-12 13:07:18.702,653, 425, 473, 24, 4, -2, -4, 4, 6, 975, 907, 100,z
2025-03-12 13:07:18.753,507, 529, 764, 5, -12, -44, -4, 2, 6, 960, 818, 236,z
2025-03-12 13:07:18.813,879, 579, 327, -32, -6, 11, -5, 2, 6, 979, 935, 108,z
2025-03-12 13:07:18.863,758, 502, 561, 20, 10, 26, -5, 3, 6, 980, 925, 155,z
2025-03-12 13:07:18.924,721, 559, 288, -13, 63, -46, -5, 4, 4, 963, 834, 232,z
2025-03-12 13:07:19.223,741, 548, 414, -6, -11, -1, -3, 1, 6, 934, 750, 383,0
2025-03-12 13:07:19.279,755, 550, 394, -7, -8, -1, -3, 2, 6, 934, 753, 377,0
2025-03-12 13:07:19.334,720, 558, 448, -18, 0, -5, -3, 2, 7, 939, 793, 366,0
2025-03-12 13:07:19.387,750, 564, 429, -3, -5, 3, -5, 1, 6, 941, 838, 403,0
2025-03-12 13:07:19.433,656, 572, 487, -3, -9, 11, -4, 5, 6, 951, 848, 431,0
2025-03-12 13:07:19.494,687, 660, 400, -44, -6, -8, -7, 4, 5, 954, 899, 222,0
2025-03-12 13:07:19.549,820, 329, 575, 15, -21, -34, -4, 3, 7, 962, 918, 75,0
2025-03-12 13:07:19.603,1572, 1205, -524, 9, 57, 67, -5, 2, 7, 981, 910, 53,0
2025-03-12 13:07:19.658,616, 600, 813, -72, -2, 20, -5, 7, 3, 983, 939, 42,0
2025-03-12 13:07:19.713,670, 446, 201, 73, -28, -41, -5, 3, 7, 967, 917, 287,0
2025-03-12 13:07:19.771,710, 581, 385, -11, 66, -29, -4, 0, 8, 922, 839, 360,0
2025-03-12 13:07:20.058,743, 556, 375, -3, -10, 0, -5, 0, 5, 934, 841, 330,1
2025-03-12 13:07:20.113,743, 541, 354, -3, -7, -2, -3, 2, 8, 932, 844, 314,1
2025-03-12 13:07:20.163,702, 579, 460, -4, -4, -3, -4, 2, 6, 935, 846, 257,1
2025-03-12 13:07:20.217,686, 569, 432, -3, -9, 0, -6, 1, 6, 944, 865, 188,1
2025-03-12 13:07:20.275,817, 641, 371, -22, -3, -6, -5, 1, 8, 953, 900, 100,1
2025-03-12 13:07:20.329,777, 693, 300, -15, -5, 6, -5, 0, 8, 968, 934, 107,1
2025-03-12 13:07:20.381,689, 446, 559, 5, -10, 1, -5, 2, 6, 973, 938, 366,1
2025-03-12 13:07:20.433,312, 791, 317, 53, 34, 33, -5, 2, 8, 981, 926, 327,1
2025-03-12 13:07:20.483,1026, 511, 402, 16, 34, 20, -4, 4, 6, 981, 920, 61,1
2025-03-12 13:07:20.542,424, 614, 703, 5, 0, -34, -4, 4, 6, 970, 884, 228,1
2025-03-12 13:07:20.593,872, 514, 283, -4, -4, 2, -5, 1, 6, 981, 933, 168,1
2025-03-12 13:07:20.643,621, 522, 494, -2, 4, 21, -6, 3, 4, 979, 928, 154,1
2025-03-12 13:07:20.954,723, 598, 424, 2, -9, 4, -5, 3, 5, 935, 829, 170,2
2025-03-12 13:07:21.008,753, 591, 382, -2, -8, 3, -4, 1, 7, 934, 823, 123,2
2025-03-12 13:07:21.061,666, 593, 480, -1, -20, 1, -6, 3, 5, 944, 860, 50,2
2025-03-12 13:07:21.113,936, 664, 437, 22, -23, -4, -5, 0, 9, 967, 924, 191,2
2025-03-12 13:07:21.163,650, 475, 534, 37, 2, 12, -4, 0, 9, 974, 922, 394,2
2025-03-12 13:07:21.218,1040, 661, 219, 8, 36, 15, -5, 2, 7, 972, 899, 22,2
2025-03-12 13:07:21.275,1207, 818, 283, 1, 23, 34, -5, 2, 5, 981, 936, 28,2
2025-03-12 13:07:21.324,646, 171, 453, 18, 6, 16, -6, 3, 7, 981, 931, 80,2
2025-03-12 13:07:21.377,754, 586, 194, 10, 54, -59, -5, 3, 6, 963, 865, 303,2
2025-03-12 13:07:21.664,686, 595, 432, -16, -17, -2, -5, -1, 11, 925, 808, 392,3
2025-03-12 13:07:21.713,708, 595, 411, -18, -16, -1, -6, 3, 6, 924, 806, 365,3
2025-03-12 13:07:21.768,705, 584, 405, -12, -1, 1, -5, 0, 8, 929, 821, 276,3
2025-03-12 13:07:21.828,618, 598, 513, -4, -29, 8, -5, 0, 8, 942, 849, 236,3
2025-03-12 13:07:21.878,872, 483, 392, 3, -5, -5, -5, 1, 8, 970, 918, 171,3
2025-03-12 13:07:21.933,651, 568, 540, 23, -4, 4, -5, 0, 8, 975, 925, 385,3
2025-03-12 13:07:21.984,888, 275, 522, 28, 2, 2, -4, 2, 7, 976, 925, 365,3
2025-03-12 13:07:22.033,706, 268, 462, 18, 20, 5, -5, 1, 8, 980, 926, 154,3
2025-03-12 13:07:22.091,833, 756, 262, -4, 20, 9, -4, 3, 6, 979, 925, 69,3
2025-03-12 13:07:22.144,1123, 311, 264, -7, 58, -27, -5, 2, 5, 952, 817, 280,3
2025-03-12 13:07:22.196,530, 536, 784, -31, 38, -28, -3, 2, 2, 926, 783, 297,3
2025-03-12 13:07:22.464,699, 579, 441, -9, -11, -2, -4, 1, 6, 923, 783, 111,4
2025-03-12 13:07:22.524,697, 563, 435, -8, -11, -2, -4, 3, 6, 924, 784, 107,4
2025-03-12 13:07:22.576,700, 581, 471, -2, -19, 3, -4, 0, 6, 926, 810, 187,4
2025-03-12 13:07:22.626,704, 529, 467, -5, -32, 7, -6, 2, 8, 943, 862, 207,4
2025-03-12 13:07:22.683,737, 461, 393, -13, -10, -7, -5, -1, 6, 965, 913, 62,4
2025-03-12 13:07:22.742,625, 526, 615, 34, -1, -4, -6, 1, 6, 974, 906, 74,4
2025-03-12 13:07:22.791,941, 632, 95, 7, 6, 0, -6, -1, 8, 978, 911, 53,4
2025-03-12 13:07:22.843,606, 211, 439, -39, 13, 33, -6, 0, 6, 984, 943, 91,4
2025-03-12 13:07:22.893,687, 458, 499, 17, 4, -2, -6, 2, 6, 977, 925, 361,4
2025-03-12 13:07:22.953,609, 637, 686, 13, -20, -13, -5, 1, 7, 970, 905, 400,4
2025-03-12 13:07:23.007,638, 776, 153, 13, 18, 19, -5, 2, 7, 985, 921, 293,4
2025-03-12 13:07:23.059,731, 222, 518, 16, 25, 12, -4, 3, 5, 983, 891, 246,4
2025-03-12 13:07:23.119,818, 625, 241, -19, 39, -50, -6, 4, 5, 955, 847, 234,4
2025-03-12 13:07:23.386,636, 548, 488, 1, -20, -1, -4, 1, 7, 960, 854, 288,5
2025-03-12 13:07:23.441,618, 569, 496, 1, -24, 2, -4, 5, 5, 962, 856, 224,5
2025-03-12 13:07:23.495,892, 501, 188, -31, 0, 2, -3, 2, 6, 975, 926, 79,5
2025-03-12 13:07:23.546,605, 544, 676, -12, -2, 14, -6, 3, 5, 980, 933, 77,5
2025-03-12 13:07:23.594,574, 264, 516, 63, -9, -25, -5, 2, 7, 978, 918, 321,5
2025-03-12 13:07:23.653,888, 487, 94, 23, 24, 4, -5, -1, 8, 980, 921, 242,5
2025-03-12 13:07:23.709,735, 931, 423, -6, 17, 24, -5, 2, 5, 984, 928, 89,5
2025-03-12 13:07:23.761,697, 281, 191, 31, 16, -6, -7, 3, 6, 973, 893, 46,5
2025-03-12 13:07:23.817,700, 597, 403, -41, 56, -32, -3, 1, 5, 955, 845, 284,5
2025-03-12 13:07:24.053,745, 555, 382, -8, 0, 1, -4, 0, 5, 934, 666, 85,6
2025-03-12 13:07:24.108,740, 565, 385, -9, 1, 1, -3, 1, 3, 933, 670, 96,6
2025-03-12 13:07:24.161,684, 570, 477, -5, 3, -1, -5, 2, 4, 932, 662, 72,6
2025-03-12 13:07:24.213,719, 559, 426, -5, -2, 0, -1, -1, 6, 929, 667, 55,6
2025-03-12 13:07:24.264,707, 564, 453, -6, -4, -3, -4, 3, 4, 935, 694, 86,6
2025-03-12 13:07:24.313,704, 575, 469, -2, -6, -1, -4, 1, 5, 932, 716, 62,6
2025-03-12 13:07:24.376,731, 571, 455, -10, -17, 10, -4, 1, 6, 938, 777, 215,6
2025-03-12 13:07:24.433,693, 547, 432, -18, -37, 7, -1, 0, 5, 951, 865, 196,6
2025-03-12 13:07:24.483,1032, 352, 551, 26, -10, -16, -5, 2, 8, 968, 913, 62,6
2025-03-12 13:07:24.540,650, 375, 103, -3, 71, 69, -5, 4, 7, 981, 911, 47,6
2025-03-12 13:07:24.593,638, 809, 779, -40, 20, 22, -3, 5, 5, 981, 930, 48,6
2025-03-12 13:07:24.643,931, 603, 57, 49, -17, -33, -5, 2, 5, 961, 897, 223,6
2025-03-12 13:07:24.707,655, 602, 555, -21, 58, -33, -3, 1, 5, 899, 792, 272,6
2025-03-12 13:07:24.993,683, 545, 477, -3, -30, 2, -4, 2, 5, 892, 733, 31,7
2025-03-12 13:07:25.043,676, 554, 462, -3, -32, 2, -3, 0, 8, 894, 735, 35,7
2025-03-12 13:07:25.106,832, 452, 282, -20, -6, -12, -5, 2, 6, 918, 798, 43,7
2025-03-12 13:07:25.162,1038, 504, 611, 33, -15, -1, -5, 2, 7, 953, 897, 40,7
2025-03-12 13:07:25.213,629, 302, 656, 18, 1, 21, -4, 3, 8, 973, 915, 258,7
2025-03-12 13:07:25.263,837, 583, 294, 41, 36, 33, -5, 2, 6, 978, 907, 97,7
2025-03-12 13:07:25.316,787, 629, 235, 2, 27, 10, -3, 3, 6, 972, 868, 66,7
2025-03-12 13:07:25.375,456, 575, 872, 8, -34, -30, -3, 3, 5, 965, 845, 89,7
2025-03-12 13:07:25.425,907, 652, 240, -9, -14, 20, -5, 4, 5, 979, 934, 80,7
2025-03-12 13:07:25.476,696, 554, 547, 32, 10, 18, -5, 3, 6, 978, 910, 185,7
2025-03-12 13:07:25.539,656, 573, 387, -19, 66, -50, -3, 1, 4, 957, 794, 231,7
2025-03-12 13:07:25.817,677, 574, 471, 6, -8, 9, -4, 2, 3, 934, 696, 45,8
2025-03-12 13:07:25.874,689, 567, 467, 7, -9, 10, -3, 1, 5, 938, 712, 117,8
2025-03-12 13:07:25.925,742, 556, 435, 7, -9, 16, -6, 3, 5, 941, 732, 216,8
2025-03-12 13:07:25.978,646, 507, 464, 4, -28, 14, -6, 2, 6, 952, 789, 229,8
2025-03-12 13:07:26.033,637, 511, 571, -37, -7, -11, -6, 0, 7, 965, 904, 90,8
2025-03-12 13:07:26.091,989, 661, 354, 46, 14, -3, -5, 3, 7, 980, 915, 128,8
2025-03-12 13:07:26.143,623, 792, 562, -21, 23, 29, -5, 4, 7, 982, 926, 82,8
2025-03-12 13:07:26.193,962, 163, 593, 4, -45, -59, -2, 4, 4, 978, 942, 68,8
2025-03-12 13:07:26.256,942, 337, 473, -10, -34, -19, -4, 1, 7, 979, 949, 136,8
2025-03-12 13:07:26.309,830, 713, 287, 9, 25, 26, -6, 4, 6, 983, 940, 84,8
2025-03-12 13:07:26.360,1004, 349, 171, 0, 36, 0, -5, 3, 6, 973, 901, 39,8
2025-03-12 13:07:26.667,714, 543, 451, 1, -10, 13, -4, 1, 6, 947, 822, 260,9
2025-03-12 13:07:26.723,706, 537, 465, 3, -11, 15, -4, 3, 5, 947, 822, 272,9
2025-03-12 13:07:26.775,937, 523, 238, -35, -4, -5, -4, 3, 5, 954, 852, 134,9
2025-03-12 13:07:26.833,565, 491, 576, -19, -17, -20, -5, 3, 8, 959, 909, 40,9
2025-03-12 13:07:26.883,842, 986, -7, 32, 22, 5, -5, 2, 8, 973, 911, 20,9
2025-03-12 13:07:26.940,778, 785, 436, -28, 30, 36, -4, 3, 5, 978, 924, 18,9
2025-03-12 13:07:26.994,794, 366, 502, 32, -11, -11, -5, 4, 6, 970, 913, 324,9
2025-03-12 13:07:27.043,486, 963, 200, 19, 20, 21, -4, 2, 5, 978, 909, 41,9
2025-03-12 13:07:27.099,665, 380, 342, 17, 19, -4, -4, 3, 5, 970, 895, 30,9
2025-03-12 13:07:27.157,939, 493, 259, -5, 55, -62, -4, 2, 6, 941, 753, 42,9
2025-03-12 13:07:27.472,664, 532, 475, 8, 2, -7, -3, 1, 4, 906, 775, 241,+
2025-03-12 13:07:27.524,650, 540, 485, 11, 0, -7, -4, 2, 6, 907, 782, 297,+
2025-03-12 13:07:27.578,701, 598, 421, 12, -2, -7, -4, -1, 7, 909, 786, 417,+
2025-03-12 13:07:27.627,740, 604, 397, -1, -6, 1, -5, -3, 8, 911, 793, 431,+
2025-03-12 13:07:27.684,699, 583, 446, 3, -4, 11, -6, 1, 5, 931, 826, 439,+
2025-03-12 13:07:27.733,716, 584, 354, -6, -2, 6, -4, 2, 7, 939, 835, 398,+
2025-03-12 13:07:27.791,729, 571, 426, -9, -6, -1, -3, 2, 7, 941, 846, 447,+
2025-03-12 13:07:27.843,717, 557, 429, -7, -2, -1, -4, 2, 5, 944, 859, 453,+
2025-03-12 13:07:27.894,719, 549, 459, -12, -1, 0, -3, 0, 5, 948, 869, 401,+
2025-03-12 13:07:27.956,721, 545, 422, -4, -6, -1, -5, 2, 6, 948, 878, 392,+
2025-03-12 13:07:28.008,677, 576, 488, -14, -18, -3, -5, 2, 6, 952, 891, 438,+
2025-03-12 13:07:28.063,699, 371, 612, -6, -6, -7, -5, 1, 6, 968, 922, 319,+
2025-03-12 13:07:28.118,886, 956, 254, 44, 39, 37, -2, 1, 6, 981, 921, 100,+
2025-03-12 13:07:28.172,650, 561, 321, -6, 26, 13, -2, 3, 6, 974, 895, 82,+
2025-03-12 13:07:28.225,522, 597, 690, 17, -43, -24, -5, 1, 6, 964, 883, 242,+
2025-03-12 13:07:28.283,752, 940, 187, -11, -14, 19, -5, 1, 6, 981, 940, 234,+
2025-03-12 13:07:28.333,665, 430, 506, 36, 1, 5, -2, 1, 6, 977, 914, 417,+
2025-03-12 13:07:28.393,595, 583, 449, -19, 51, -50, -3, 1, 6, 958, 861, 439,+
2025-03-12 13:07:28.650,713, 562, 432, 1, 1, 7, -1, 1, 4, 948, 838, 484,-
2025-03-12 13:07:28.693,710, 568, 431, 1, 1, 6, -4, 3, 6, 952, 849, 515,-
2025-03-12 13:07:28.753,737, 537, 434, -2, 1, 2, -5, 1, 9, 949, 833, 459,-
2025-03-12 13:07:28.807,716, 576, 423, -5, 0, -1, -4, 2, 5, 949, 838, 446,-
2025-03-12 13:07:28.858,716, 565, 433, -1, 2, 2, -3, 0, 8, 955, 859, 482,-
2025-03-12 13:07:28.909,724, 571, 420, -1, 3, 0, -5, 1, 6, 958, 862, 484,-
2025-03-12 13:07:28.959,717, 544, 437, 1, 1, 1, -2, 1, 5, 956, 856, 463,-
2025-03-12 13:07:29.010,721, 553, 429, 0, 0, 1, -3, 3, 7, 954, 848, 444,-
2025-03-12 13:07:29.063,711, 571, 422, 1, 2, -1, -5, 3, 5, 959, 853, 463,-
2025-03-12 13:07:29.116,697, 545, 438, -3, 1, -5, -4, 1, 7, 953, 844, 419,-
2025-03-12 13:07:29.169,687, 566, 456, 4, -2, -7, -2, 1, 8, 950, 795, 298,-
2025-03-12 13:07:29.225,860, 565, 436, -16, -7, -15, -5, 1, 5, 957, 856, 53,-
2025-03-12 13:07:29.281,652, 1025, 324, -45, -20, 47, -5, 1, 6, 980, 935, 270,-
2025-03-12 13:07:29.335,614, 608, 366, 24, 19, 28, -5, 4, 7, 978, 925, 377,-
2025-03-12 13:07:29.393,733, 561, 321, -17, 45, -50, -6, 3, 5, 958, 875, 536,-
2025-03-12 13:07:29.683,705, 563, 456, -1, -2, -1, -4, 1, 6, 914, 764, 384,÷
2025-03-12 13:07:29.733,705, 562, 443, 0, -2, 0, -3, 2, 6, 917, 770, 392,÷
2025-03-12 13:07:29.790,703, 571, 422, -1, 1, -1, -2, -1, 8, 925, 779, 445,÷
2025-03-12 13:07:29.843,696, 583, 438, -2, 1, 2, -4, 1, 5, 922, 769, 404,÷
2025-03-12 13:07:29.893,716, 563, 438, -3, 1, 2, -3, 2, 6, 931, 796, 436,÷
2025-03-12 13:07:29.943,714, 561, 413, -4, 1, 1, -5, 2, 5, 940, 822, 435,÷
2025-03-12 13:07:30.000,710, 576, 436, -3, -1, 0, -4, 0, 6, 942, 832, 418,÷
2025-03-12 13:07:30.053,716, 568, 438, -4, -1, 2, -5, 2, 7, 944, 839, 409,÷
2025-03-12 13:07:30.106,715, 565, 431, -3, 0, 0, -5, 2, 5, 951, 859, 479,÷
2025-03-12 13:07:30.159,709, 558, 442, -4, 0, -2, -3, 2, 5, 947, 852, 447,÷
2025-03-12 13:07:30.208,743, 550, 407, -4, 0, -2, -4, 2, 6, 950, 857, 444,÷
2025-03-12 13:07:30.260,638, 590, 537, 9, 2, 4, -4, 2, 5, 952, 860, 375,÷
2025-03-12 13:07:30.313,793, 527, 335, 6, -5, 0, -3, 1, 5, 956, 862, 431,÷
2025-03-12 13:07:30.368,699, 546, 490, -8, 7, -6, -5, -1, 5, 952, 863, 356,÷
2025-03-12 13:07:30.413,669, 588, 431, 5, -7, 0, -4, 1, 5, 956, 856, 351,÷
2025-03-12 13:07:30.474,810, 877, 452, -4, -13, -11, -3, 0, 5, 962, 902, 82,÷
2025-03-12 13:07:30.523,691, 628, 351, 7, 0, 1, -4, 3, 6, 973, 925, 76,÷
2025-03-12 13:07:30.575,719, 553, 433, 8, -2, -1, -6, 1, 7, 977, 929, 105,÷
2025-03-12 13:07:30.624,716, 560, 465, -4, -1, 0, -3, 3, 5, 971, 926, 168,÷
2025-03-12 13:07:30.683,698, 582, 394, 5, 0, -4, -5, 2, 5, 972, 932, 240,÷
2025-03-12 13:07:30.733,716, 447, 462, 24, -9, -11, -5, 0, 5, 975, 931, 295,÷
2025-03-12 13:07:30.790,707, 384, 352, -11, 8, 16, -4, 1, 7, 979, 935, 369,÷
2025-03-12 13:07:30.843,726, 384, 463, 12, 3, -8, -5, 0, 7, 972, 931, 370,÷
2025-03-12 13:07:30.894,811, 701, 345, -9, 74, 0, -5, 0, 6, 962, 902, 448,÷
2025-03-12 13:07:30.953,468, 673, 639, 24, -28, 38, -4, 1, 4, 967, 905, 293,÷
2025-03-12 13:07:31.007,791, 398, 473, -11, 1, -10, -5, 3, 5, 976, 932, 111,÷
2025-03-12 13:07:31.063,674, 559, 214, -23, 13, 27, -5, -2, 7, 982, 940, 79,÷
2025-03-12 13:07:31.113,735, 387, 530, -20, 1, -10, -4, 2, 8, 978, 932, 92,÷
2025-03-12 13:07:31.171,500, 536, 793, -3, -29, -13, -4, 2, 6, 966, 900, 191,÷
2025-03-12 13:07:31.224,873, 594, 474, -16, -6, 8, -5, 1, 5, 984, 944, 79,÷
2025-03-12 13:07:31.275,583, 367, 506, 10, 6, 14, -4, 0, 5, 983, 945, 76,÷
2025-03-12 13:07:31.325,941, 440, 218, 16, 51, -38, -5, 2, 5, 972, 908, 338,÷
2025-03-12 13:07:31.388,566, 570, 699, -19, 29, -18, -1, 0, 4, 939, 806, 375,÷
2025-03-12 13:07:31.667,706, 559, 448, -2, -10, 1, -6, 2, 3, 918, 770, 227,=
2025-03-12 13:07:31.723,711, 552, 440, -2, -9, 1, -2, 0, 5, 913, 770, 208,=
2025-03-12 13:07:31.773,710, 578, 436, -7, -2, 0, -2, 0, 7, 926, 800, 255,=
2025-03-12 13:07:31.824,710, 561, 437, -1, -3, 0, -4, 3, 4, 932, 815, 307,=
2025-03-12 13:07:31.883,698, 576, 470, -3, -3, -1, -3, 2, 6, 934, 829, 313,=
2025-03-12 13:07:31.933,719, 567, 441, 0, -3, 1, -4, 1, 6, 941, 843, 346,=
2025-03-12 13:07:31.990,715, 558, 451, -3, -4, 1, -3, 2, 6, 945, 851, 337,=
2025-03-12 13:07:32.043,699, 551, 433, -3, 0, -1, -4, 1, 5, 950, 865, 355,=
2025-03-12 13:07:32.096,706, 546, 454, -1, -1, -3, -3, 2, 6, 950, 870, 373,=
2025-03-12 13:07:32.143,734, 561, 437, -4, 1, 2, -6, 3, 5, 955, 867, 370,=
2025-03-12 13:07:32.195,683, 583, 467, -1, 5, -1, -5, 1, 6, 957, 869, 383,=
2025-03-12 13:07:32.256,671, 541, 461, 1, -6, -7, 0, -1, 1, 951, 854, 283,=
2025-03-12 13:07:32.307,739, 910, 624, 23, -20, -17, -4, 1, 5, 964, 903, 51,=
2025-03-12 13:07:32.357,770, 512, 172, 0, 4, 44, -4, 1, 8, 976, 931, 54,=
2025-03-12 13:07:32.413,462, 485, 383, 46, 17, -3, -4, 1, 9, 972, 895, 379,=
2025-03-12 13:07:32.467,789, 556, 415, 22, -10, -11, -3, 1, 8, 957, 825, 407,=
2025-03-12 13:07:32.523,820, 761, 224, -53, 10, 34, -5, 1, 6, 979, 931, 111,=
2025-03-12 13:07:32.573,852, 358, 380, 5, 10, -3, -2, 0, 9, 969, 889, 321,=
2025-03-12 13:07:32.883,711, 575, 420, -5, -2, -4, -5, 3, 7, 931, 802, 253,≠
2025-03-12 13:07:32.933,702, 590, 437, -4, -2, -2, -3, 2, 7, 918, 767, 133,≠
2025-03-12 13:07:32.989,713, 571, 437, 0, -2, 2, -1, 3, 4, 924, 794, 298,≠
2025-03-12 13:07:33.043,708, 597, 398, -1, -3, -3, -6, 0, 5, 924, 797, 339,≠
2025-03-12 13:07:33.093,705, 556, 418, -6, 0, -6, -5, 0, 7, 924, 792, 248,≠
2025-03-12 13:07:33.144,704, 593, 414, -1, 1, -5, -4, 1, 7, 914, 744, 128,≠
2025-03-12 13:07:33.196,712, 582, 416, -1, -1, 0, -5, 0, 6, 918, 760, 192,≠
2025-03-12 13:07:33.256,700, 576, 436, 2, -1, -1, -5, 2, 8, 915, 762, 181,≠
2025-03-12 13:07:33.308,711, 595, 406, -3, 0, -2, -3, 1, 5, 920, 779, 221,≠
2025-03-12 13:07:33.357,692, 587, 426, -3, -1, -3, -4, 0, 7, 920, 781, 180,≠
2025-03-12 13:07:33.415,706, 583, 441, -1, 0, 0, -4, 1, 7, 921, 771, 113,≠
2025-03-12 13:07:33.463,704, 590, 411, 2, 2, -3, -5, 1, 6, 923, 780, 182,≠
2025-03-12 13:07:33.515,661, 584, 451, 10, -5, -3, -6, 1, 7, 912, 796, 198,≠
2025-03-12 13:07:33.573,841, 526, 437, 7, -7, -17, -5, 1, 5, 935, 852, 123,≠
2025-03-12 13:07:33.623,1137, 1259, 229, -63, -47, 47, -1, 0, 6, 976, 935, 411,≠
2025-03-12 13:07:33.683,510, 366, 479, 23, 7, 10, -5, 1, 8, 978, 929, 398,≠
2025-03-12 13:07:33.739,675, 579, 399, 32, 33, -33, -4, 0, 8, 959, 870, 460,≠
2025-03-12 13:07:33.792,920, 420, 334, 48, -4, -21, 1, -1, 8, 960, 852, 83,≠
2025-03-12 13:07:33.843,639, 675, 189, -33, 1, 47, -5, 1, 5, 983, 935, 343,≠
2025-03-12 13:07:33.895,637, 487, 669, 6, -6, 10, -4, 4, 5, 976, 912, 350,≠
2025-03-12 13:07:33.955,434, 565, 838, 6, -27, -29, -3, 0, 6, 955, 892, 483,≠
2025-03-12 13:07:34.013,484, 1137, 479, -1, -27, -4, -5, 2, 6, 977, 924, 374,≠
2025-03-12 13:07:34.065,841, 526, 347, -1, 48, 27, -5, 0, 6, 981, 898, 64,≠
2025-03-12 13:07:34.115,795, 674, 389, 16, 42, 10, -2, -1, 8, 957, 767, 329,≠
2025-03-12 13:07:34.174,638, 655, 575, -56, 20, -25, -3, 1, 4, 916, 785, 343,≠
2025-03-12 13:07:34.466,709, 582, 417, -4, -1, -1, -4, 2, 5, 913, 743, 126,≈
2025-03-12 13:07:34.523,712, 575, 425, -3, -1, -1, -5, -1, 5, 911, 744, 129,≈
2025-03-12 13:07:34.579,707, 558, 444, 2, -3, 0, -2, -1, 7, 917, 754, 168,≈
2025-03-12 13:07:34.652,713, 588, 407, 0, 1, -2, -7, 1, 6, 921, 752, 250,≈
2025-03-12 13:07:34.682,701, 585, 423, 0, 0, 1, -3, 0, 5, 924, 748, 248,≈
2025-03-12 13:07:34.735,706, 584, 422, -6, 2, -1, -5, 2, 6, 921, 726, 116,≈
2025-03-12 13:07:34.788,720, 566, 414, -5, -1, 1, -5, -1, 6, 926, 732, 81,≈
2025-03-12 13:07:34.837,700, 581, 446, 1, 0, 1, -5, 0, 5, 935, 743, 93,≈
2025-03-12 13:07:34.889,716, 575, 412, 1, 1, -1, -4, 1, 6, 934, 754, 106,≈
2025-03-12 13:07:34.941,707, 588, 411, -4, 2, -1, -5, 0, 7, 937, 769, 114,≈
2025-03-12 13:07:34.991,684, 585, 451, -5, 1, -8, -3, 2, 6, 935, 750, 104,≈
2025-03-12 13:07:35.041,745, 570, 374, 2, 0, -4, -6, 4, 3, 930, 759, 74,≈
2025-03-12 13:07:35.091,626, 596, 500, 9, -6, -4, -5, 3, 5, 928, 798, 105,≈
2025-03-12 13:07:35.144,717, 582, 409, 4, 2, -6, -5, 0, 5, 913, 790, 90,≈
2025-03-12 13:07:35.191,672, 621, 376, 9, 2, -4, -5, 1, 6, 923, 797, 66,≈
2025-03-12 13:07:35.254,806, 685, 306, 18, -4, -6, -3, 0, 7, 943, 883, 55,≈
2025-03-12 13:07:35.307,958, 678, 245, -9, -26, 12, -5, 0, 8, 965, 932, 167,≈
2025-03-12 13:07:35.357,802, 772, 461, -21, -11, 23, -4, -1, 8, 979, 936, 226,≈
2025-03-12 13:07:35.416,630, 488, 494, -17, 14, 29, -5, 2, 7, 981, 932, 169,≈
2025-03-12 13:07:35.473,652, 469, 447, 41, 36, -21, -5, 2, 6, 971, 906, 347,≈
2025-03-12 13:07:35.523,905, 588, 333, 8, -14, -8, -3, 0, 6, 960, 865, 392,≈
2025-03-12 13:07:35.574,796, 734, 465, -28, -8, 7, -5, 0, 6, 975, 926, 330,≈
2025-03-12 13:07:35.641,741, 767, 409, -28, 0, 25, -5, 2, 7, 981, 936, 120,≈
2025-03-12 13:07:35.692,743, 598, 326, -5, 21, 20, -4, 3, 5, 980, 927, 182,≈
2025-03-12 13:07:35.746,730, 561, 317, -8, 53, -45, -2, 1, 5, 959, 866, 330,≈
2025-03-12 13:07:36.004,712, 573, 422, -8, 0, -1, -5, 1, 3, 921, 729, 54,<
2025-03-12 13:07:36.057,701, 563, 419, -7, 1, -1, -5, 3, 6, 925, 738, 77,<
2025-03-12 13:07:36.106,687, 579, 479, -5, 0, 0, -4, 0, 5, 921, 735, 76,<
2025-03-12 13:07:36.162,705, 570, 438, -3, -1, -3, -3, -1, 5, 918, 733, 48,<
2025-03-12 13:07:36.212,688, 583, 460, -4, -1, 1, -3, 0, 5, 919, 733, 49,<
2025-03-12 13:07:36.266,706, 565, 438, -3, 0, -1, -3, 0, 6, 916, 744, 52,<
2025-03-12 13:07:36.315,686, 556, 464, -5, 0, -2, -4, 1, 5, 913, 740, 26,<
2025-03-12 13:07:36.372,699, 561, 448, -4, -1, -3, -4, 1, 5, 918, 745, 31,<
2025-03-12 13:07:36.423,673, 582, 469, -7, -3, -3, -2, 1, 6, 923, 762, 61,<
2025-03-12 13:07:36.472,696, 594, 454, -8, -5, -1, -3, 0, 5, 922, 771, 30,<
2025-03-12 13:07:36.522,706, 532, 458, -1, -3, -4, -3, 1, 4, 926, 789, 64,<
2025-03-12 13:07:36.578,705, 580, 482, -1, 0, -1, -3, 2, 5, 928, 795, 46,<
2025-03-12 13:07:36.639,732, 591, 330, -12, -3, 15, -3, -1, 7, 938, 848, 425,<
2025-03-12 13:07:36.688,599, 592, 506, -7, -33, -4, -5, 1, 5, 946, 876, 455,<
2025-03-12 13:07:36.748,666, 715, 598, -9, -13, -6, -4, 1, 7, 971, 921, 214,<
2025-03-12 13:07:36.793,580, 395, 727, 21, 1, -3, -6, 1, 9, 977, 929, 43,<
2025-03-12 13:07:36.842,901, 374, 281, 8, 13, -15, -4, 2, 6, 976, 913, 65,<
2025-03-12 13:07:36.905,800, 1364, 103, -64, 35, 78, -5, 0, 8, 983, 933, 79,<
2025-03-12 13:07:36.956,655, 485, 365, 11, 11, 9, -5, 3, 7, 978, 910, 48,<
2025-03-12 13:07:37.015,644, 601, 392, -7, 51, -48, -4, 3, 4, 950, 824, 190,<
2025-03-12 13:07:37.265,676, 555, 461, 5, -11, 9, -4, 3, 5, 948, 826, 386,≤
2025-03-12 13:07:37.322,702, 522, 450, 5, -12, 5, -6, -2, 7, 947, 824, 376,≤
2025-03-12 13:07:37.372,760, 547, 366, -3, -4, 0, -4, 3, 6, 953, 843, 361,≤
2025-03-12 13:07:37.423,708, 571, 434, -2, -5, 1, -5, 4, 6, 953, 857, 386,≤
2025-03-12 13:07:37.482,712, 553, 412, -12, -3, -2, -5, 1, 7, 966, 893, 298,≤
2025-03-12 13:07:37.532,700, 514, 504, -3, -7, -3, -5, 1, 7, 973, 914, 55,≤
2025-03-12 13:07:37.588,430, 716, 303, 35, 13, -3, -5, 3, 5, 976, 891, 85,≤
2025-03-12 13:07:37.642,1065, 1203, 138, -30, 32, 44, -6, -1, 9, 983, 920, 55,≤
2025-03-12 13:07:37.697,635, 514, 627, 20, 4, 14, -4, 3, 6, 984, 933, 59,≤
2025-03-12 13:07:37.752,770, 483, 385, 54, 44, -19, -5, 2, 5, 969, 848, 269,≤
2025-03-12 13:07:37.806,837, -306, 388, -61, -2, -6, -4, 2, 5, 976, 876, 100,≤
2025-03-12 13:07:37.862,482, 477, 440, -16, 4, 25, -4, 2, 6, 981, 934, 60,≤
2025-03-12 13:07:37.916,856, 293, 310, 17, 27, -41, -5, 2, 6, 968, 867, 259,≤
2025-03-12 13:07:38.182,689, 551, 461, -14, -13, -4, -4, 2, 6, 935, 810, 62,>
2025-03-12 13:07:38.236,686, 541, 473, -7, -14, -3, -6, 0, 4, 934, 811, 58,>
2025-03-12 13:07:38.288,725, 562, 456, 1, -10, 2, -4, 1, 6, 939, 831, 182,>
2025-03-12 13:07:38.342,708, 569, 421, -1, -3, -2, -3, 3, 7, 942, 838, 262,>
2025-03-12 13:07:38.392,545, 563, 578, 14, -27, 2, -5, 0, 5, 945, 849, 240,>
2025-03-12 13:07:38.454,843, 426, 352, -18, -8, -8, -6, 1, 7, 969, 907, 54,>
2025-03-12 13:07:38.502,554, 533, 339, -4, 3, 42, -6, 1, 5, 981, 929, 38,>
2025-03-12 13:07:38.555,466, 484, 351, 24, 19, 4, -3, 2, 7, 981, 929, 66,>
2025-03-12 13:07:38.605,939, 524, 227, 4, 25, -6, -4, 1, 6, 976, 881, 63,>
2025-03-12 13:07:38.662,883, 494, 458, -20, 37, -12, -4, 2, 4, 965, 824, 51,>
2025-03-12 13:07:38.717,524, 563, 674, -16, 14, -14, -4, 2, 4, 948, 810, 79,>
2025-03-12 13:07:38.965,684, 564, 460, -8, -5, -4, -3, 2, 6, 923, 797, 72,≥
2025-03-12 13:07:39.021,692, 551, 475, -7, -7, -4, -3, -2, 5, 921, 798, 64,≥
2025-03-12 13:07:39.073,710, 564, 411, -3, -3, -3, -3, -2, 9, 922, 789, 55,≥
2025-03-12 13:07:39.127,669, 561, 476, -2, -10, -3, -5, 1, 7, 926, 790, 78,≥
2025-03-12 13:07:39.186,990, 495, 390, -41, -9, -16, -3, 0, 8, 947, 846, 79,≥
2025-03-12 13:07:39.238,886, 816, 350, 8, -24, 19, -6, 0, 6, 977, 918, 58,≥
2025-03-12 13:07:39.288,522, 509, 686, 10, -7, 4, -5, 1, 6, 980, 930, 49,≥
2025-03-12 13:07:39.340,768, 608, 171, 21, 42, 18, -3, 1, 8, 980, 915, 49,≥
2025-03-12 13:07:39.394,876, 463, 453, 37, 49, -11, -4, 0, 8, 964, 789, 308,≥
2025-03-12 13:07:39.452,553, 658, 683, 35, -30, 32, -3, 1, 6, 962, 739, 152,≥
2025-03-12 13:07:39.505,587, 764, 283, -63, -1, 53, -5, 1, 6, 981, 928, 59,≥
2025-03-12 13:07:39.555,831, 342, 337, 5, 15, -12, -3, 1, 4, 972, 871, 191,≥
2025-03-12 13:07:39.822,676, 583, 451, -13, -7, -5, -4, 1, 3, 903, 694, 56,±
2025-03-12 13:07:39.882,661, 583, 468, -11, -8, -2, -5, 1, 8, 905, 702, 68,±
2025-03-12 13:07:39.936,694, 580, 452, 2, -14, 6, -4, 1, 8, 919, 740, 157,±
2025-03-12 13:07:39.989,708, 589, 413, 4, -14, 2, -5, 2, 5, 922, 754, 179,±
2025-03-12 13:07:40.042,746, 586, 339, -6, 1, -5, -4, 1, 6, 932, 777, 192,±
2025-03-12 13:07:40.092,686, 585, 450, -3, -2, 0, -5, 2, 6, 936, 792, 204,±
2025-03-12 13:07:40.147,723, 581, 401, -4, -2, -2, -5, 0, 6, 940, 806, 219,±
2025-03-12 13:07:40.202,707, 574, 433, -2, -3, -1, -4, 0, 8, 941, 817, 224,±
2025-03-12 13:07:40.256,710, 585, 422, -4, -1, 0, -3, 0, 7, 943, 829, 238,±
2025-03-12 13:07:40.306,702, 587, 413, -5, 1, -2, -5, 2, 5, 943, 832, 224,±
2025-03-12 13:07:40.362,709, 571, 415, -3, 1, -2, -5, 0, 9, 946, 826, 221,±
2025-03-12 13:07:40.413,661, 585, 450, 9, -2, -9, -3, 0, 8, 943, 820, 167,±
2025-03-12 13:07:40.466,753, 605, 372, -6, -1, -1, -5, 0, 6, 944, 836, 34,±
2025-03-12 13:07:40.521,751, 633, 579, 1, -9, -13, -5, 2, 7, 959, 895, 46,±
2025-03-12 13:07:40.573,846, 1222, 62, -61, -4, 55, -6, 1, 9, 978, 931, 32,±
2025-03-12 13:07:40.622,669, 573, 545, 1, 6, 6, -5, 2, 9, 973, 924, 326,±
2025-03-12 13:07:40.672,421, 594, 773, 4, -15, -11, -5, 0, 6, 965, 913, 466,±
2025-03-12 13:07:40.725,630, 538, 285, 12, 9, 8, -6, 1, 6, 979, 926, 375,±
2025-03-12 13:07:40.787,766, 359, 394, 10, 32, 20, -5, 1, 7, 978, 886, 346,±
2025-03-12 13:07:40.838,526, 606, 511, 27, 8, -22, -5, 0, 6, 962, 781, 357,±
2025-03-12 13:07:40.892,893, 813, 387, -15, -3, 23, -4, 1, 7, 978, 919, 339,±
2025-03-12 13:07:40.942,596, 509, 456, -8, 13, 25, -5, 3, 6, 978, 920, 294,±
2025-03-12 13:07:41.004,597, 554, 443, -10, 54, -47, -1, 1, 4, 958, 819, 390,±
2025-03-12 13:07:41.267,707, 597, 416, -3, -6, 3, -6, 1, 6, 943, 841, 285,∓
2025-03-12 13:07:41.321,705, 600, 410, -3, -6, 4, -4, 1, 6, 943, 842, 287,∓
2025-03-12 13:07:41.374,730, 558, 398, -4, -5, -5, -5, 1, 6, 948, 854, 344,∓
2025-03-12 13:07:41.423,701, 575, 440, -8, -3, -8, -5, 4, 5, 947, 857, 330,∓
2025-03-12 13:07:41.483,624, 603, 458, -9, -7, -12, -5, 0, 6, 947, 852, 159,∓
2025-03-12 13:07:41.537,795, 602, 458, -9, -5, -14, -4, 1, 8, 954, 872, 80,∓
2025-03-12 13:07:41.588,955, 991, 345, -5, -36, 40, -5, 1, 8, 978, 933, 53,∓
2025-03-12 13:07:41.643,532, 426, 379, 29, 4, 29, -5, 3, 8, 981, 927, 291,∓
2025-03-12 13:07:41.693,717, 515, 376, 47, 40, -25, -6, 1, 7, 962, 853, 436,∓
2025-03-12 13:07:41.742,869, 726, 591, 7, -9, 13, -5, 1, 6, 954, 759, 127,∓
2025-03-12 13:07:41.805,962, 829, 127, -50, -6, 46, -5, 0, 8, 981, 929, 303,∓
2025-03-12 13:07:41.854,653, 455, 493, 8, 5, 13, -5, 1, 9, 977, 918, 302,∓
2025-03-12 13:07:41.912,538, 676, 531, 5, -4, -33, -4, 0, 8, 964, 864, 444,∓
2025-03-12 13:07:41.967,1275, 928, 29, -16, 31, 34, -5, 0, 8, 976, 892, 336,∓
2025-03-12 13:07:42.020,808, 479, 425, -6, 23, -8, -4, 4, 7, 969, 768, 298,∓
2025-03-12 13:07:42.293,702, 596, 430, -8, -3, -2, -4, 1, 5, 910, 667, 84,∞
2025-03-12 13:07:42.344,693, 587, 430, -6, -3, -2, -4, 1, 5, 911, 672, 86,∞
2025-03-12 13:07:42.402,692, 563, 465, -2, -3, -5, -4, 1, 7, 908, 670, 19,∞
2025-03-12 13:07:42.455,700, 565, 452, 9, -12, -8, -4, 1, 6, 913, 668, 39,∞
2025-03-12 13:07:42.512,749, 531, 456, 29, -22, -30, -5, -1, 6, 909, 659, 50,∞
2025-03-12 13:07:42.570,668, 702, 274, 33, -19, -20, -4, -2, 8, 923, 735, 255,∞
2025-03-12 13:07:42.623,644, 699, 255, -7, 9, 8, -4, -2, 8, 935, 801, 366,∞
2025-03-12 13:07:42.676,708, 637, 390, 8, -3, 13, -5, -2, 7, 945, 835, 397,∞
2025-03-12 13:07:42.723,719, 672, 226, -21, 13, 7, -6, 0, 8, 948, 852, 356,∞
2025-03-12 13:07:42.782,726, 650, 310, -9, 2, 3, -5, -1, 10, 951, 864, 373,∞
2025-03-12 13:07:42.837,786, 661, 317, -12, 3, -5, -3, 0, 7, 949, 866, 389,∞
2025-03-12 13:07:42.892,747, 614, 357, -18, 14, -1, -4, 0, 7, 952, 875, 398,∞
2025-03-12 13:07:42.942,633, 605, 464, 3, -4, 7, -5, 0, 7, 953, 873, 417,∞
2025-03-12 13:07:42.993,733, 584, 377, -6, -3, 14, -5, 1, 6, 954, 873, 440,∞
2025-03-12 13:07:43.052,745, 595, 377, -3, -3, 4, -5, 0, 6, 956, 881, 460,∞
2025-03-12 13:07:43.104,726, 563, 383, -14, 0, 9, -5, 0, 8, 963, 894, 384,∞
2025-03-12 13:07:43.154,633, 834, 321, 2, 22, 18, -4, 0, 8, 973, 911, 28,∞
2025-03-12 13:07:43.204,673, 412, 319, -2, 5, -12, -5, 2, 6, 971, 900, 44,∞
2025-03-12 13:07:43.264,793, 565, 485, 1, -22, -16, -4, 1, 7, 970, 911, 52,∞
2025-03-12 13:07:43.319,486, 605, 450, -20, -5, 23, -5, 0, 8, 983, 936, 47,∞
2025-03-12 13:07:43.373,613, 475, 469, -14, -15, -11, -5, 3, 6, 980, 934, 48,∞
2025-03-12 13:07:43.422,821, 567, 469, 19, -6, -17, -4, 2, 9, 976, 926, 40,∞
2025-03-12 13:07:43.477,520, 893, 189, 4, 24, 10, -5, 0, 8, 979, 890, 18,∞
2025-03-12 13:07:43.532,856, 473, 427, 9, 25, -13, -4, 1, 5, 961, 810, 68,∞
2025-03-12 13:07:43.825,715, 593, 393, -12, 6, -2, -5, 1, 6, 927, 774, 77,∑
2025-03-12 13:07:43.873,713, 589, 404, -9, 7, -1, -2, 1, 8, 928, 775, 105,∑
2025-03-12 13:07:43.928,682, 566, 457, 2, 2, 0, -5, 1, 5, 929, 775, 186,∑
2025-03-12 13:07:43.982,721, 592, 405, -1, 0, 0, -4, 0, 5, 934, 796, 314,∑
2025-03-12 13:07:44.033,686, 593, 428, 0, 1, 0, -4, 2, 7, 938, 806, 330,∑
2025-03-12 13:07:44.085,697, 581, 434, -1, -1, 4, -3, 1, 7, 944, 810, 319,∑
2025-03-12 13:07:44.137,707, 582, 417, -3, 0, 1, -4, 3, 7, 947, 819, 338,∑
2025-03-12 13:07:44.187,713, 574, 412, -4, -3, 3, -4, 0, 7, 950, 821, 316,∑
2025-03-12 13:07:44.242,686, 573, 433, -5, -2, -4, -3, -1, 6, 950, 829, 303,∑
2025-03-12 13:07:44.298,748, 553, 395, -3, 0, 0, -5, 1, 8, 956, 848, 293,∑
2025-03-12 13:07:44.352,690, 560, 464, -2, -1, -2, -5, 0, 6, 955, 839, 230,∑
2025-03-12 13:07:44.405,760, 599, 388, -4, -5, 3, -4, 0, 6, 956, 857, 304,∑
2025-03-12 13:07:44.463,726, 574, 439, -15, -1, -4, -6, 3, 6, 958, 857, 186,∑
2025-03-12 13:07:44.511,653, 499, 547, 23, -7, 5, -6, 2, 6, 960, 791, 55,∑
2025-03-12 13:07:44.562,954, 435, 291, 47, -1, -8, -5, 1, 6, 973, 896, 44,∑
2025-03-12 13:07:44.613,788, 744, 559, -3, 7, 38, -4, 1, 8, 981, 931, 49,∑
2025-03-12 13:07:44.669,511, 328, 460, 35, -2, -17, -4, 2, 6, 974, 906, 281,∑
2025-03-12 13:07:44.723,619, 611, 527, -14, 8, -30, -4, 1, 7, 958, 815, 241,∑
2025-03-12 13:07:44.776,749, 882, 304, -23, 9, 39, -3, 1, 6, 981, 923, 58,∑
2025-03-12 13:07:44.826,576, 758, 413, 0, 13, 17, -5, 5, 6, 980, 922, 32,∑
2025-03-12 13:07:44.886,702, 506, 490, 33, 11, -18, -4, 0, 5, 970, 795, 58,∑
2025-03-12 13:07:44.936,837, 834, 316, 4, 8, 18, -5, 0, 6, 979, 905, 26,∑
2025-03-12 13:07:44.986,717, 389, 345, 11, 8, 16, -3, 0, 5, 979, 912, 37,∑
2025-03-12 13:07:45.043,741, 517, 341, -13, 36, -46, -3, 2, 6, 958, 784, 261,∑
2025-03-12 13:07:45.315,698, 580, 458, -10, -5, 2, -4, 1, 6, 939, 766, 327,∏
2025-03-12 13:07:45.368,700, 571, 452, -10, -6, 3, -4, 1, 6, 939, 772, 332,∏
2025-03-12 13:07:45.420,725, 545, 444, 2, -8, 5, -5, 1, 9, 944, 781, 341,∏
2025-03-12 13:07:45.474,736, 541, 409, -2, -2, 1, -5, 1, 5, 947, 801, 352,∏
2025-03-12 13:07:45.522,715, 579, 434, -1, 0, 2, -4, 2, 6, 951, 816, 362,∏
2025-03-12 13:07:45.572,736, 548, 414, -2, -1, 0, -5, 1, 7, 952, 824, 369,∏
2025-03-12 13:07:45.633,726, 550, 448, -2, -1, -1, -4, 2, 8, 955, 841, 379,∏
2025-03-12 13:07:45.687,728, 557, 413, -3, 0, -1, -3, 1, 8, 958, 851, 364,∏
2025-03-12 13:07:45.736,730, 566, 420, -3, 2, 1, -3, 3, 5, 961, 851, 332,∏
2025-03-12 13:07:45.789,728, 538, 426, -6, 1, 1, -4, 1, 8, 962, 853, 318,∏
2025-03-12 13:07:45.843,708, 578, 410, -2, 0, -1, -6, 2, 6, 960, 850, 305,∏
2025-03-12 13:07:45.893,723, 527, 420, -10, -3, -15, -5, 2, 6, 959, 841, 297,∏
2025-03-12 13:07:45.953,618, 565, 489, 13, -5, -20, -5, 2, 6, 954, 812, 278,∏
2025-03-12 13:07:46.006,855, 583, 343, -12, -19, -15, -4, 0, 8, 969, 892, 26,∏
2025-03-12 13:07:46.063,486, 643, 84, -42, 15, 77, -4, 1, 8, 982, 935, 60,∏
2025-03-12 13:07:46.113,607, 507, 480, 34, -2, 5, -6, 3, 7, 981, 912, 137,∏
2025-03-12 13:07:46.170,737, 423, 459, 22, 24, -47, -4, 1, 7, 959, 849, 344,∏
2025-03-12 13:07:46.223,1568, 405, 291, -32, -12, -8, -5, 0, 7, 960, 871, 414,∏
2025-03-12 13:07:46.285,545, 1075, 459, -42, 18, 20, -4, 1, 7, 978, 914, 23,∏
2025-03-12 13:07:46.333,604, 311, 690, -2, 23, 8, -5, 3, 6, 976, 890, 39,∏
2025-03-12 13:07:46.386,857, 504, 333, 6, 7, -1, -5, 2, 6, 959, 861, 47,∏
2025-03-12 13:07:46.443,686, 618, 541, -30, -20, -13, -4, 2, 6, 961, 888, 152,∏
2025-03-12 13:07:46.493,746, 395, 363, -15, -6, 0, -4, 2, 6, 971, 922, 60,∏
2025-03-12 13:07:46.545,577, 788, 276, 6, 18, 30, -5, 2, 6, 984, 936, 44,∏
2025-03-12 13:07:46.593,926, 963, 206, -11, 31, 25, -5, 4, 7, 987, 928, 60,∏
2025-03-12 13:07:46.655,899, 171, 409, 16, 15, -36, -6, 3, 5, 967, 857, 32,∏
2025-03-12 13:07:46.705,553, 556, 717, -37, 50, -27, -4, 0, 2, 924, 794, 132,∏
2025-03-12 13:07:47.553,679, 690, 378, 2, -7, -40, -5, -2, 6, 845, 591, 12,√
2025-03-12 13:07:47.613,664, 711, 359, -2, -4, -38, -4, -4, 5, 847, 596, 16,√
2025-03-12 13:07:47.663,470, 665, 440, 1, -1, -1, -5, -4, 6, 863, 625, 17,√
2025-03-12 13:07:47.718,423, 682, 371, 1, 3, 74, -5, -4, 4, 876, 626, 25,√
2025-03-12 13:07:47.769,751, 486, 459, 7, -12, 72, -5, 0, 5, 849, 637, 281,√
2025-03-12 13:07:47.823,844, 601, 297, -8, 22, 11, -5, -1, 6, 860, 677, 359,√
2025-03-12 13:07:47.882,669, 531, 512, -15, 18, -5, -5, 1, 5, 881, 711, 346,√
2025-03-12 13:07:47.935,779, 628, 445, 0, 5, -5, -3, 2, 5, 902, 748, 356,√
2025-03-12 13:07:47.985,683, 587, 480, -2, -3, -4, -4, 1, 5, 914, 784, 359,√
2025-03-12 13:07:48.037,694, 617, 431, 4, 0, 14, -4, 0, 5, 930, 809, 410,√
2025-03-12 13:07:48.092,619, 587, 468, -6, -3, 5, -5, 1, 6, 937, 828, 397,√
2025-03-12 13:07:48.143,690, 530, 411, 12, 1, 6, -4, 1, 6, 941, 830, 414,√
2025-03-12 13:07:48.201,742, 546, 333, -5, 10, -4, -5, 3, 5, 945, 829, 345,√
2025-03-12 13:07:48.252,623, 585, 492, 1, -8, -10, -5, 2, 5, 943, 848, 296,√
2025-03-12 13:07:48.303,769, 457, 306, -10, -7, -9, -3, 1, 6, 961, 910, 26,√
2025-03-12 13:07:48.361,494, 540, 409, -26, -2, 27, -3, 2, 7, 976, 935, 313,√
2025-03-12 13:07:48.413,789, 538, 531, 25, 4, 7, -5, 3, 5, 977, 929, 374,√
2025-03-12 13:07:48.468,875, 582, 175, -15, 8, 7, -5, 2, 5, 980, 920, 21,√
2025-03-12 13:07:48.521,710, 544, 551, -54, -1, 13, -4, 3, 6, 981, 933, 24,√
2025-03-12 13:07:48.572,878, 159, 604, 11, -67, -55, -4, 4, 6, 979, 944, 10,√
2025-03-12 13:07:48.622,732, 633, 604, 18, -16, -3, -5, 3, 8, 982, 944, 37,√
2025-03-12 13:07:48.685,789, 625, 281, 25, 13, 13, -4, 2, 8, 980, 933, 19,√
2025-03-12 13:07:48.735,748, 547, 343, -6, 51, -34, -5, 4, 6, 974, 920, 103,√
2025-03-12 13:07:48.786,633, 555, 675, 4, -4, -21, -4, 3, 5, 959, 875, 146,√
2025-03-12 13:07:49.052,606, 586, 536, 27, -11, -4, -5, -1, 5, 914, 451, 234,∛
2025-03-12 13:07:49.118,588, 616, 538, 30, -13, -3, -4, -1, 5, 917, 459, 229,∛
2025-03-12 13:07:49.172,590, 713, 372, 24, -7, 30, -5, -3, 6, 940, 595, 255,∛
2025-03-12 13:07:49.222,758, 609, 280, 0, -5, 27, -5, -2, 5, 950, 745, 327,∛
2025-03-12 13:07:49.273,745, 501, 492, -8, -1, 13, -4, 1, 7, 953, 822, 405,∛
2025-03-12 13:07:49.337,719, 591, 413, -10, -2, -1, -5, 1, 6, 955, 864, 387,∛
2025-03-12 13:07:49.389,729, 544, 430, -3, -1, -4, -6, 2, 7, 956, 883, 400,∛
2025-03-12 13:07:49.443,708, 596, 418, 1, 1, 2, -5, 1, 8, 956, 888, 400,∛
2025-03-12 13:07:49.488,737, 572, 401, -2, 2, -3, -5, 0, 7, 953, 889, 394,∛
2025-03-12 13:07:49.543,702, 572, 419, -1, -1, -1, -2, 1, 6, 955, 891, 394,∛
2025-03-12 13:07:49.601,668, 613, 412, -1, 1, -3, -6, 2, 7, 954, 888, 385,∛
2025-03-12 13:07:49.651,648, 563, 475, 1, -4, 1, -4, 2, 6, 953, 884, 225,∛
2025-03-12 13:07:49.702,803, 686, 269, -17, 3, 0, -4, -1, 7, 962, 905, 24,∛
2025-03-12 13:07:49.753,670, 293, 617, 17, -9, 9, -5, 1, 6, 970, 923, 336,∛
2025-03-12 13:07:49.803,784, 849, 215, 16, 18, 21, -6, 3, 6, 976, 917, 83,∛
2025-03-12 13:07:49.863,787, 729, 427, -51, 21, 23, -3, 1, 4, 974, 922, 20,∛
2025-03-12 13:07:49.919,625, 491, 1086, -7, -50, -24, -5, 2, 6, 968, 932, 96,∛
2025-03-12 13:07:49.974,731, 446, 369, 19, -16, 5, -5, 1, 9, 977, 930, 113,∛
2025-03-12 13:07:50.022,652, 545, 397, 36, 8, 0, -6, 2, 8, 974, 924, 250,∛
2025-03-12 13:07:50.073,580, 569, 364, 1, 22, -43, -5, 1, 5, 966, 920, 363,∛
2025-03-12 13:07:50.135,625, 712, 672, 15, -40, 5, -7, 2, 6, 958, 894, 431,∛
2025-03-12 13:07:50.192,752, 441, 217, -14, -2, -7, -6, -1, 8, 973, 930, 277,∛
2025-03-12 13:07:50.243,658, 655, 511, -5, 1, 14, -5, 0, 7, 976, 936, 346,∛
2025-03-12 13:07:50.293,827, 607, 134, 3, 9, 2, -6, 0, 8, 977, 934, 391,∛
2025-03-12 13:07:50.343,669, 612, 518, 0, 5, 1, -5, 0, 7, 978, 937, 233,∛
2025-03-12 13:07:50.400,827, 644, 284, 13, 17, 3, -5, 0, 7, 968, 906, 362,∛
2025-03-12 13:07:50.453,788, 636, 411, -52, 53, -28, -4, 0, 6, 937, 860, 317,∛
2025-03-12 13:07:50.761,669, 600, 471, 5, 1, 5, -3, 1, 5, 930, 782, 380,∜
2025-03-12 13:07:50.813,664, 597, 480, 7, 1, 7, -4, 1, 6, 932, 785, 384,∜
2025-03-12 13:07:50.863,715, 577, 411, 5, -1, 5, -3, 1, 6, 930, 779, 376,∜
2025-03-12 13:07:50.917,646, 585, 457, 8, -1, 4, -4, 1, 5, 936, 804, 368,∜
2025-03-12 13:07:50.970,777, 531, 409, -4, -28, -3, -6, 2, 6, 943, 848, 94,∜
2025-03-12 13:07:51.023,1016, 687, 391, -15, -1, 8, -4, 0, 6, 963, 914, 198,∜
2025-03-12 13:07:51.075,464, 490, 741, 29, 10, 23, -5, 1, 6, 976, 918, 288,∜
2025-03-12 13:07:51.134,710, 666, 222, -21, 17, 21, -4, 4, 6, 977, 903, 37,∜
2025-03-12 13:07:51.188,582, -205, 697, -20, -38, -30, -3, 3, 5, 968, 924, 38,∜
2025-03-12 13:07:51.243,660, 375, 656, 12, -33, -5, -5, 2, 8, 975, 933, 85,∜
2025-03-12 13:07:51.294,704, 720, 172, 15, 6, 10, -5, 2, 8, 975, 915, 188,∜
2025-03-12 13:07:51.351,610, 610, 379, 5, 40, -67, -4, 1, 8, 966, 914, 349,∜
2025-03-12 13:07:51.405,658, 731, 621, 11, -41, 9, -6, -1, 9, 965, 911, 550,∜
2025-03-12 13:07:51.463,772, 503, 126, -26, -6, -7, -6, 0, 8, 976, 937, 494,∜
2025-03-12 13:07:51.519,726, 806, 300, -1, 18, 13, -7, -1, 9, 979, 935, 412,∜
2025-03-12 13:07:51.572,849, 686, 196, 0, 3, -1, -5, -1, 9, 981, 923, 147,∜
2025-03-12 13:07:51.622,753, 393, 247, -11, 3, 16, -4, -1, 9, 982, 944, 142,∜
2025-03-12 13:07:51.673,737, 423, 301, -2, -6, -20, -6, 0, 7, 978, 934, 440,∜
2025-03-12 13:07:51.736,598, 604, 609, 15, -20, 27, -4, 0, 7, 978, 933, 559,∜
2025-03-12 13:07:51.786,851, 461, 319, 1, 22, 18, -6, 1, 7, 984, 933, 371,∜
2025-03-12 13:07:51.845,860, 587, 263, -27, 38, -58, -6, 1, 6, 977, 914, 509,∜
2025-03-12 13:07:52.113,665, 577, 491, 1, 2, 5, -4, 0, 6, 947, 819, 363,∫
2025-03-12 13:07:52.173,672, 583, 493, 4, 0, 6, -3, 0, 6, 945, 824, 369,∫
2025-03-12 13:07:52.223,740, 574, 414, 3, -3, 6, -3, 0, 7, 946, 819, 405,∫
2025-03-12 13:07:52.275,688, 582, 459, 1, -2, 3, -5, 1, 8, 949, 828, 455,∫
2025-03-12 13:07:52.322,742, 581, 374, 3, -9, 2, -5, 0, 7, 950, 839, 473,∫
2025-03-12 13:07:52.382,711, 574, 414, -5, 1, -3, -5, 2, 5, 950, 842, 462,∫
2025-03-12 13:07:52.434,717, 563, 413, -3, -2, 1, -6, 1, 5, 952, 841, 447,∫
2025-03-12 13:07:52.486,690, 598, 440, -6, 3, -4, -5, 0, 8, 953, 843, 405,∫
2025-03-12 13:07:52.536,750, 555, 424, 1, -3, 3, -4, 0, 6, 953, 842, 386,∫
2025-03-12 13:07:52.592,719, 565, 413, -7, 4, -3, -5, 0, 5, 954, 845, 380,∫
2025-03-12 13:07:52.643,710, 579, 424, 0, -1, -1, -4, 0, 5, 954, 845, 381,∫
2025-03-12 13:07:52.693,692, 625, 391, -5, 4, -2, -4, 1, 6, 955, 840, 332,∫
2025-03-12 13:07:52.752,773, 550, 420, 7, -7, 7, -5, 2, 8, 954, 857, 393,∫
2025-03-12 13:07:52.802,647, 588, 416, -8, -10, 7, -4, 1, 6, 957, 870, 445,∫
2025-03-12 13:07:52.863,696, 550, 458, -24, -20, 9, -5, 3, 6, 963, 884, 223,∫
2025-03-12 13:07:52.913,673, 478, 553, -14, -7, -9, -6, 3, 7, 968, 909, 18,∫
2025-03-12 13:07:52.969,1101, 486, 360, 58, 6, -17, -4, 1, 9, 974, 912, 24,∫
2025-03-12 13:07:53.022,620, 710, 503, 3, 44, 32, -5, 0, 8, 979, 921, 16,∫
2025-03-12 13:07:53.069,646, 637, 300, 24, 1, 0, -5, 1, 6, 976, 901, 25,∫
2025-03-12 13:07:53.122,1060, 338, 474, -13, 43, -32, -4, 2, 5, 945, 824, 231,∫
2025-03-12 13:07:53.453,736, 552, 405, 0, -5, 4, -5, 3, 5, 939, 851, 133,∮
2025-03-12 13:07:53.505,745, 561, 407, -2, -4, 3, -5, 3, 7, 941, 851, 149,∮
2025-03-12 13:07:53.556,717, 579, 453, -2, -2, 1, -5, 1, 5, 941, 856, 135,∮
2025-03-12 13:07:53.606,720, 541, 399, -4, -5, 4, -6, 3, 6, 945, 865, 95,∮
2025-03-12 13:07:53.657,750, 561, 386, -7, 0, -1, -6, 3, 6, 947, 869, 47,∮
2025-03-12 13:07:53.713,708, 546, 513, -26, 5, 5, -5, 3, 7, 945, 869, 48,∮
2025-03-12 13:07:53.768,727, 577, 404, -21, 0, -4, -5, 2, 8, 946, 878, 20,∮
2025-03-12 13:07:53.818,592, 413, 559, -22, -10, -14, -5, 4, 7, 954, 906, 50,∮
2025-03-12 13:07:53.873,909, 838, 135, 68, 20, -8, -6, 2, 5, 971, 909, 28,∮
2025-03-12 13:07:53.923,763, 335, 491, -19, 45, 35, -3, 2, 7, 975, 917, 46,∮
2025-03-12 13:07:53.985,633, 484, 581, 50, -36, -47, -5, 1, 6, 962, 905, 46,∮
2025-03-12 13:07:54.037,637, 587, 503, -14, -11, 3, -4, 2, 6, 970, 914, 37,∮
2025-03-12 13:07:54.087,785, 635, 181, 6, 21, 30, -6, 1, 6, 980, 920, 47,∮
2025-03-12 13:07:54.143,794, 551, 68, -28, 34, 17, -4, 5, 6, 971, 886, 46,∮
2025-03-12 13:07:54.198,721, 522, 474, 5, -30, -52, -5, 2, 3, 930, 867, 174,∮
2025-03-12 13:07:54.253,865, 153, 373, -16, -5, -7, -5, 0, 7, 939, 907, 101,∮
2025-03-12 13:07:54.302,1084, 675, 358, -1, 13, 17, -5, 0, 8, 969, 923, 63,∮
2025-03-12 13:07:54.360,776, 144, 371, 23, 22, 7, -4, 3, 6, 976, 927, 55,∮
2025-03-12 13:07:54.411,714, 895, -178, 19, 8, -2, -3, 3, 5, 976, 928, 43,∮
2025-03-12 13:07:54.462,848, 471, 357, 3, 30, 8, -3, 3, 4, 967, 908, 70,∮
2025-03-12 13:07:54.517,970, 356, 387, 12, 31, -56, -4, 4, 3, 903, 838, 89,∮
2025-03-12 13:07:54.568,585, 588, 613, -47, 53, -36, 0, 0, 3, 769, 781, 82,∮
2025-03-12 13:07:55.513,539, 748, 628, -39, 25, -59, -2, -3, 2, 748, 462, 56,∂
2025-03-12 13:07:55.573,503, 748, 669, -27, 17, -46, -1, -3, 1, 764, 494, 70,∂
2025-03-12 13:07:55.635,394, 691, 596, 22, -33, 49, -3, -6, 0, 830, 602, 111,∂
2025-03-12 13:07:55.693,425, 630, 373, 40, -47, 118, -1, -4, 2, 832, 542, 133,∂
2025-03-12 13:07:55.750,695, 286, 494, 34, -31, 62, -6, -1, 6, 815, 545, 192,∂
2025-03-12 13:07:55.799,674, 521, 390, 18, 5, 21, -6, 1, 4, 805, 526, 230,∂
2025-03-12 13:07:55.856,741, 533, 360, 36, 10, -14, -5, 1, 4, 805, 524, 290,∂
2025-03-12 13:07:55.902,761, 596, 342, 5, 13, -34, -6, 2, 7, 804, 487, 260,∂
2025-03-12 13:07:55.967,773, 729, 515, 17, -11, -13, -5, -1, 5, 829, 510, 310,∂
2025-03-12 13:07:56.023,631, 564, 360, -22, -7, -18, -5, -1, 4, 864, 608, 325,∂
2025-03-12 13:07:56.082,736, 660, 489, -8, -23, -14, -5, -2, 7, 896, 666, 375,∂
2025-03-12 13:07:56.135,655, 650, 475, 27, -47, -16, -4, -3, 8, 901, 668, 375,∂
2025-03-12 13:07:56.192,806, 605, 266, 9, -32, -12, -4, -3, 8, 911, 655, 387,∂
2025-03-12 13:07:56.250,622, 784, 200, -25, 10, 3, -6, -3, 11, 924, 694, 352,∂
2025-03-12 13:07:56.303,667, 601, 506, 0, 6, 44, -6, 1, 8, 934, 763, 281,∂
2025-03-12 13:07:56.353,799, 574, 263, -1, 18, 45, -5, 0, 8, 949, 802, 306,∂
2025-03-12 13:07:56.413,619, 568, 461, -24, 14, -5, -2, -1, 7, 953, 847, 339,∂
2025-03-12 13:07:56.467,935, 415, 172, -33, -9, -26, -5, 0, 8, 963, 902, 348,∂
2025-03-12 13:07:56.523,690, 1060, 170, 34, 28, 34, -5, 0, 9, 976, 915, 172,∂
2025-03-12 13:07:56.573,598, 720, 233, -30, 34, 23, -5, 1, 6, 975, 899, 36,∂
2025-03-12 13:07:56.634,829, 280, 614, -14, -11, -16, -5, 1, 6, 974, 924, 49,∂
2025-03-12 13:07:56.687,645, 686, 389, 5, -4, 20, -3, 1, 5, 981, 938, 70,∂
2025-03-12 13:07:56.735,986, 400, 125, -14, 59, -52, -5, 4, 4, 974, 912, 146,∂
2025-03-12 13:07:56.799,579, 600, 633, -47, 59, -73, -4, 0, 1, 932, 757, 48,∂
2025-03-12 13:07:56.851,613, 611, 636, -7, -6, -21, -3, 0, 2, 880, 658, 54,∂
2025-03-12 13:07:56.908,659, 665, 402, 14, -11, -6, -3, -2, 2, 819, 567, 100,∂
2025-03-12 13:07:56.961,680, 673, 443, 16, -20, 12, -1, -3, 2, 702, 219, 59,∂
2025-03-12 13:07:57.018,623, 628, 354, -13, -35, 36, -4, -2, 3, 642, 106, 81,∂
2025-03-12 13:07:57.072,690, 478, 590, 45, -55, -43, -3, -1, 5, 537, 99, 76,∂
2025-03-12 13:07:57.122,610, 642, 424, -4, 16, -37, -4, 0, 3, 520, 136, 85,∂
2025-03-12 13:07:57.425,647, 672, 326, 17, -4, 30, -5, -3, 7, 744, 165, 123,∇
2025-03-12 13:07:57.473,673, 645, 323, 18, -4, 29, -6, -6, 8, 748, 150, 119,∇
2025-03-12 13:07:57.532,758, 664, 184, 5, -3, 3, -5, -5, 7, 795, 71, 101,∇
2025-03-12 13:07:57.586,678, 663, 444, -20, 3, 5, -5, -1, 7, 860, 250, 234,∇
2025-03-12 13:07:57.634,651, 618, 401, -24, 0, 14, -5, -1, 6, 919, 613, 374,∇
2025-03-12 13:07:57.692,737, 643, 314, -3, 6, -2, -5, -3, 6, 936, 771, 443,∇
2025-03-12 13:07:57.749,695, 633, 341, -12, 0, 8, -5, -1, 5, 951, 862, 493,∇
2025-03-12 13:07:57.800,700, 608, 433, -16, 4, 10, -4, -1, 6, 958, 898, 530,∇
2025-03-12 13:07:57.855,683, 609, 404, -3, -7, 15, -3, 1, 6, 966, 912, 534,∇
2025-03-12 13:07:57.908,752, 574, 384, -7, -2, 5, -6, 1, 6, 967, 917, 523,∇
2025-03-12 13:07:57.960,753, 593, 396, -5, -3, 7, -4, 1, 7, 972, 919, 512,∇
2025-03-12 13:07:58.012,717, 571, 421, 1, -3, 2, -3, 0, 7, 970, 913, 483,∇
2025-03-12 13:07:58.068,675, 561, 426, -5, 0, -5, -4, 1, 6, 971, 915, 471,∇
2025-03-12 13:07:58.124,675, 614, 360, -12, 6, -13, -5, -1, 6, 968, 921, 400,∇
2025-03-12 13:07:58.173,670, 533, 607, 10, -27, 5, -4, -1, 8, 969, 908, 357,∇
2025-03-12 13:07:58.234,1037, 997, 155, -15, -3, 35, -5, 0, 9, 977, 935, 108,∇
2025-03-12 13:07:58.284,528, 382, 756, 7, 14, 25, -4, 1, 8, 983, 929, 208,∇
2025-03-12 13:07:58.335,381, 787, 23, 9, 34, 27, -5, 1, 7, 980, 923, 74,∇
2025-03-12 13:07:58.393,814, 202, 365, -14, 24, -37, -4, 3, 6, 971, 883, 81,∇
2025-03-12 13:07:58.449,496, 762, 906, 28, -69, 13, -5, 1, 5, 960, 865, 349,∇
2025-03-12 13:07:58.501,913, 1124, 179, -34, -6, 38, -5, 1, 5, 981, 932, 98,∇
2025-03-12 13:07:58.553,660, 290, 564, 4, 25, 26, -5, 4, 4, 979, 895, 61,∇
2025-03-12 13:07:58.612,766, 567, 280, -22, 47, -62, -3, 1, 6, 951, 815, 84,∇
2025-03-12 13:07:58.891,732, 535, 436, -2, -1, 3, -4, 3, 4, 944, 815, 141,∆
2025-03-12 13:07:58.943,734, 521, 443, -3, -1, 0, -4, 0, 5, 943, 821, 180,∆
2025-03-12 13:07:59.002,680, 539, 477, -6, -7, -1, -4, 2, 5, 952, 843, 271,∆
2025-03-12 13:07:59.052,740, 569, 398, -2, -6, -3, -4, 1, 6, 960, 862, 318,∆
2025-03-12 13:07:59.108,710, 562, 465, 2, -12, 2, -3, 1, 7, 961, 864, 219,∆
2025-03-12 13:07:59.161,707, 483, 536, 4, -17, -10, -5, 2, 6, 973, 905, 142,∆
2025-03-12 13:07:59.216,693, 309, 725, 32, -6, -12, -5, 3, 6, 977, 912, 108,∆
2025-03-12 13:07:59.267,701, 664, 115, -2, 20, 5, -5, 0, 6, 981, 896, 88,∆
2025-03-12 13:07:59.316,912, 676, 549, -37, 4, 36, -4, 2, 6, 980, 936, 65,∆
2025-03-12 13:07:59.373,702, 472, 351, 17, 11, 10, -4, 4, 7, 976, 933, 45,∆
2025-03-12 13:07:59.431,576, 621, 336, 18, -3, -60, -4, 3, 5, 954, 884, 365,∆
2025-03-12 13:07:59.485,711, 694, 821, -12, -22, -6, -5, 2, 6, 973, 920, 210,∆
2025-03-12 13:07:59.535,741, 648, 235, -7, 39, 48, -5, 2, 6, 982, 930, 69,∆
2025-03-12 13:07:59.592,921, 299, 227, -16, 43, -39, -4, 2, 5, 967, 858, 145,∆
2025-03-12 13:07:59.903,685, 538, 490, -2, -4, 0, -3, 1, 5, 905, 661, 43,π
2025-03-12 13:07:59.955,689, 548, 494, -1, -6, 0, -5, 2, 5, 905, 665, 59,π
2025-03-12 13:08:00.002,690, 551, 479, -2, -7, 1, -4, 1, 5, 907, 693, 58,π
2025-03-12 13:08:00.062,717, 558, 439, 3, -5, 1, -5, 2, 4, 906, 702, 42,π
2025-03-12 13:08:00.111,702, 547, 469, -8, -2, 0, -5, 0, 3, 918, 750, 87,π
2025-03-12 13:08:00.165,720, 572, 461, -15, -2, 0, -3, 1, 3, 927, 764, 84,π
2025-03-12 13:08:00.217,709, 546, 496, -14, -2, 2, -4, 2, 3, 938, 794, 85,π
2025-03-12 13:08:00.267,729, 542, 463, 5, -8, 4, -6, 4, 3, 946, 828, 138,π
2025-03-12 13:08:00.317,740, 520, 462, 0, -4, 1, -4, 3, 6, 944, 846, 126,π
2025-03-12 13:08:00.373,711, 542, 463, 2, -1, 3, -5, 1, 6, 951, 862, 188,π
2025-03-12 13:08:00.423,710, 533, 463, 1, 0, 2, -2, 0, 6, 953, 868, 201,π
2025-03-12 13:08:00.481,698, 567, 444, -10, 2, -6, -5, 3, 5, 952, 869, 156,π
2025-03-12 13:08:00.534,633, 500, 520, 8, -11, -6, -5, 1, 6, 951, 860, 71,π
2025-03-12 13:08:00.584,779, 466, 245, 2, -4, -19, -5, 2, 6, 959, 879, 106,π
2025-03-12 13:08:00.634,820, 700, 527, 3, -13, 13, -5, 3, 6, 973, 917, 96,π
2025-03-12 13:08:00.693,463, 584, 431, 7, -10, 29, -2, 1, 7, 979, 927, 114,π
2025-03-12 13:08:00.743,702, 496, 496, 38, -7, 0, -5, 3, 7, 973, 901, 294,π
2025-03-12 13:08:00.799,587, 524, 438, 11, 15, -51, -5, 2, 5, 952, 858, 318,π
2025-03-12 13:08:00.853,918, 443, 332, 8, -5, -5, -6, 0, 6, 970, 908, 257,π
2025-03-12 13:08:00.911,731, 849, 247, -24, 29, 24, -5, 0, 7, 980, 926, 128,π
2025-03-12 13:08:00.964,896, 357, 361, -3, 12, -2, -5, 3, 4, 969, 881, 61,π
2025-03-12 13:08:01.016,685, 617, 578, -31, -9, -13, -6, 3, 4, 967, 907, 84,π
2025-03-12 13:08:01.073,828, 463, 502, 24, -26, -16, -6, 3, 7, 977, 923, 63,π
2025-03-12 13:08:01.123,791, 399, 390, 28, 5, 4, -4, 2, 6, 980, 917, 44,π
2025-03-12 13:08:01.173,672, 710, 361, -3, 10, 24, -7, 0, 6, 982, 924, 107,π
2025-03-12 13:08:01.231,769, 498, 396, 21, 5, -2, -4, 3, 6, 976, 905, 58,π
2025-03-12 13:08:01.284,696, 531, 472, -23, 60, -44, -4, 2, 4, 955, 802, 66,π
2025-03-12 13:08:01.545,702, 555, 467, -5, -7, 1, -5, 1, 4, 939, 772, 117,θ
2025-03-12 13:08:01.603,709, 547, 450, -3, -8, 1, -1, 1, 4, 935, 766, 89,θ
2025-03-12 13:08:01.653,731, 545, 410, -2, -4, -1, -5, 3, 3, 944, 795, 142,θ
2025-03-12 13:08:01.704,722, 552, 440, -2, -1, -1, -4, 1, 4, 942, 796, 65,θ
2025-03-12 13:08:01.763,723, 562, 437, -7, 1, -2, -5, 1, 6, 944, 819, 206,θ
2025-03-12 13:08:01.816,725, 539, 436, -4, -3, -4, -3, 1, 5, 942, 830, 213,θ
2025-03-12 13:08:01.870,726, 534, 437, -4, 0, -11, -4, 1, 6, 947, 835, 227,θ
2025-03-12 13:08:01.923,705, 571, 431, -10, -3, -20, -5, 0, 5, 946, 834, 195,θ
2025-03-12 13:08:01.984,729, 634, 467, -10, -13, -7, -4, 0, 4, 951, 832, 120,θ
2025-03-12 13:08:02.038,648, 574, 495, 10, -10, 15, -5, 1, 4, 954, 822, 91,θ
2025-03-12 13:08:02.086,704, 504, 355, 14, -9, 9, -4, 1, 5, 955, 842, 82,θ
2025-03-12 13:08:02.134,811, 620, 291, 0, 0, 3, -7, -2, 6, 956, 859, 63,θ
2025-03-12 13:08:02.193,781, 545, 420, -6, 5, 0, -4, 1, 7, 957, 874, 101,θ
2025-03-12 13:08:02.243,700, 536, 464, -2, 0, -3, -5, 2, 6, 957, 866, 68,θ
2025-03-12 13:08:02.293,750, 576, 402, -5, -4, 6, -6, 0, 5, 956, 878, 212,θ
2025-03-12 13:08:02.348,599, 546, 489, -3, -25, 4, -6, 3, 6, 959, 890, 204,θ
2025-03-12 13:08:02.402,458, 292, 476, 47, 5, -15, -6, 1, 8, 967, 896, 68,θ
2025-03-12 13:08:02.452,583, 635, -228, 17, 64, 56, -4, 2, 6, 976, 908, 96,θ
2025-03-12 13:08:02.512,705, 178, 705, 11, -20, -55, -3, 1, 5, 971, 903, 318,θ
2025-03-12 13:08:02.568,788, 613, 489, 6, -21, -11, -4, 1, 8, 969, 909, 450,θ
2025-03-12 13:08:02.623,469, 725, 374, -16, 8, 20, -3, 0, 8, 981, 922, 100,θ
2025-03-12 13:08:02.673,664, 506, 162, -26, 33, 23, -5, 4, 5, 978, 918, 81,θ
2025-03-12 13:08:02.733,899, 353, 530, -4, -10, -57, -4, 1, 6, 967, 896, 114,θ
2025-03-12 13:08:02.785,751, 851, 605, -4, -21, -7, -5, 2, 4, 977, 932, 120,θ
2025-03-12 13:08:02.835,661, 533, 425, 14, 5, 11, -6, 3, 5, 974, 930, 35,θ
2025-03-12 13:08:02.893,830, 441, 234, 8, 42, -38, -3, 2, 6, 967, 898, 228,θ
2025-03-12 13:08:03.175,718, 527, 500, 5, -11, -11, -6, 1, 3, 907, 715, 56,λ
2025-03-12 13:08:03.223,726, 545, 468, 7, -12, -12, -3, 2, 6, 910, 714, 80,λ
2025-03-12 13:08:03.283,729, 533, 478, 10, -16, -25, -5, 1, 4, 902, 697, 65,λ
2025-03-12 13:08:03.342,690, 583, 457, 21, -14, -20, -4, -1, 5, 913, 696, 154,λ
2025-03-12 13:08:03.398,636, 703, 296, 8, -6, -29, -6, -1, 5, 925, 742, 182,λ
2025-03-12 13:08:03.450,541, 728, 428, 5, -9, 19, -4, -2, 8, 944, 793, 228,λ
2025-03-12 13:08:03.503,738, 595, 490, 11, -8, 47, -3, -2, 8, 955, 830, 213,λ
2025-03-12 13:08:03.561,781, 519, 371, -10, 2, 16, -5, 1, 7, 954, 858, 258,λ
2025-03-12 13:08:03.614,743, 578, 428, -19, -2, 7, -6, 1, 6, 958, 879, 198,λ
2025-03-12 13:08:03.668,706, 578, 399, -12, 2, 2, -4, 2, 7, 957, 882, 125,λ
2025-03-12 13:08:03.717,727, 538, 439, -6, -1, 1, -3, 0, 8, 961, 889, 137,λ
2025-03-12 13:08:03.773,729, 566, 383, 2, 3, -2, -4, 1, 7, 962, 889, 167,λ
2025-03-12 13:08:03.823,682, 559, 426, -10, 2, -6, -4, 4, 5, 958, 888, 137,λ
2025-03-12 13:08:03.882,754, 514, 430, -14, -3, -10, -5, 1, 6, 963, 899, 110,λ
2025-03-12 13:08:03.934,845, 422, 587, -7, -1, -1, -5, 3, 7, 973, 931, 100,λ
2025-03-12 13:08:03.983,837, 523, 503, 27, -6, 24, -4, 1, 7, 981, 936, 91,λ
2025-03-12 13:08:04.043,739, 834, 231, 12, 19, 24, -3, 1, 8, 983, 934, 104,λ
2025-03-12 13:08:04.099,817, 233, 363, -18, 25, -25, -5, 2, 6, 976, 921, 115,λ
2025-03-12 13:08:04.152,604, 649, 642, -1, -35, 8, -5, 1, 6, 968, 917, 344,λ
2025-03-12 13:08:04.202,698, 289, 560, 16, 1, -4, -5, 3, 5, 979, 927, 47,λ
2025-03-12 13:08:04.253,812, 315, 210, 3, 32, 7, -4, 3, 5, 978, 916, 134,λ
2025-03-12 13:08:04.315,887, 406, 282, -34, 40, -43, -4, 3, 7, 963, 886, 110,λ
2025-03-12 13:08:04.613,726, 597, 403, -5, 4, -24, -5, 0, 5, 914, 746, 102,μ
2025-03-12 13:08:04.674,724, 613, 384, -6, 9, -21, -5, 0, 7, 915, 746, 125,μ
2025-03-12 13:08:04.723,642, 571, 566, -13, 10, -3, -7, 1, 6, 911, 734, 87,μ
2025-03-12 13:08:04.781,625, 574, 488, 13, -8, 12, -5, 1, 3, 909, 706, 83,μ
2025-03-12 13:08:04.833,745, 584, 369, 20, -9, 8, -4, 0, 6, 907, 685, 148,μ
2025-03-12 13:08:04.884,731, 621, 412, 16, -1, 7, -5, 1, 6, 910, 660, 198,μ
2025-03-12 13:08:04.935,713, 542, 437, 12, -3, 8, -6, 1, 5, 903, 640, 205,μ
2025-03-12 13:08:04.990,443, 585, 490, -2, 23, 41, -6, 0, 4, 891, 631, 67,μ
2025-03-12 13:08:05.048,1017, 557, 365, 24, -30, -10, -5, 1, 7, 867, 636, 94,μ
2025-03-12 13:08:05.101,679, 486, 479, -31, 20, -5, -6, 3, 3, 885, 689, 41,μ
2025-03-12 13:08:05.152,706, 621, 476, -5, 3, 7, -4, 2, 6, 907, 712, 126,μ
2025-03-12 13:08:05.203,750, 538, 423, -2, -4, 5, -3, 3, 5, 921, 732, 125,μ
2025-03-12 13:08:05.259,685, 561, 522, -5, -6, 1, -5, 1, 4, 932, 784, 171,μ
2025-03-12 13:08:05.313,729, 491, 442, -3, -5, -5, -5, 2, 5, 937, 809, 130,μ
2025-03-12 13:08:05.371,720, 523, 415, -11, -5, -27, -5, 1, 7, 937, 811, 85,μ
2025-03-12 13:08:05.423,813, 603, 361, 1, -14, -8, -2, -2, 10, 938, 831, 164,μ
2025-03-12 13:08:05.476,728, 577, 454, 18, 13, -2, -3, 2, 6, 944, 855, 267,μ
2025-03-12 13:08:05.533,688, 513, 484, 30, 26, 25, -4, 1, 6, 946, 820, 265,μ
2025-03-12 13:08:05.583,660, 660, 549, -6, 30, 42, -4, 3, 5, 950, 702, 41,μ
2025-03-12 13:08:05.632,708, 513, 413, 16, -1, 21, -4, 3, 4, 954, 684, 96,μ
2025-03-12 13:08:05.689,733, 512, 492, 0, -16, 9, -3, 3, 5, 958, 775, 76,μ
2025-03-12 13:08:05.743,768, 569, 334, -39, 4, 1, -5, 3, 4, 967, 890, 66,μ
2025-03-12 13:08:05.799,579, 447, 904, -39, -30, -13, -3, 4, 4, 971, 931, 88,μ
2025-03-12 13:08:05.853,743, 646, 571, -17, -18, -7, -2, 3, 5, 977, 939, 56,μ
2025-03-12 13:08:05.902,750, 429, 471, 19, -9, -12, -6, 3, 6, 976, 938, 56,μ
2025-03-12 13:08:05.960,934, 541, 395, 31, 21, 20, -6, 5, 6, 979, 935, 58,μ
2025-03-12 13:08:06.014,804, 606, 370, -14, 10, 13, -5, 2, 6, 980, 930, 46,μ
2025-03-12 13:08:06.066,692, 519, 460, -11, -3, 9, -3, 5, 6, 981, 932, 49,μ
2025-03-12 13:08:06.122,759, 536, 509, -21, -11, -10, -4, 4, 5, 977, 935, 62,μ
2025-03-12 13:08:06.178,759, 474, 529, 15, -7, -6, -5, 5, 5, 980, 934, 51,μ
2025-03-12 13:08:06.225,799, 659, 288, 3, 7, 14, -4, 4, 6, 981, 920, 94,μ
2025-03-12 13:08:06.283,758, 240, 684, -10, -12, -4, -5, 4, 5, 980, 927, 117,μ
2025-03-12 13:08:06.341,785, 470, 428, -33, 68, -29, -5, 4, 5, 971, 901, 94,μ
2025-03-12 13:08:06.393,521, 529, 738, -7, 28, -21, -3, 3, 2, 951, 808, 43,μ
2025-03-12 13:08:06.702,620, 620, 503, -5, 12, -43, -3, -3, 1, 837, 321, 52,ω
2025-03-12 13:08:06.753,554, 642, 503, -5, 11, -33, -2, -2, 1, 842, 364, 46,ω
2025-03-12 13:08:06.813,581, 679, 437, 30, -27, 22, -4, -3, 1, 840, 497, 135,ω
2025-03-12 13:08:06.866,475, 665, 327, 5, -2, 94, -5, -1, 2, 858, 516, 98,ω
2025-03-12 13:08:06.915,711, 422, 420, 27, -19, 37, -3, -1, 2, 816, 479, 66,ω
2025-03-12 13:08:06.972,818, 579, 390, 1, 1, -12, -4, -1, 6, 828, 493, 83,ω
2025-03-12 13:08:07.030,802, 537, 322, -14, -16, -45, -5, 0, 5, 871, 605, 48,ω
2025-03-12 13:08:07.082,651, 600, 487, -26, -11, -12, -5, 0, 4, 898, 712, 167,ω
2025-03-12 13:08:07.144,671, 606, 427, -16, -19, -7, -2, 0, 4, 913, 779, 207,ω
2025-03-12 13:08:07.197,761, 610, 330, -8, -11, 1, -2, 1, 5, 928, 828, 262,ω
2025-03-12 13:08:07.249,681, 615, 428, -13, 3, 7, -5, -1, 6, 939, 849, 288,ω
2025-03-12 13:08:07.303,669, 560, 411, -9, -2, 3, -2, -2, 9, 943, 874, 285,ω
2025-03-12 13:08:07.359,719, 537, 439, -12, -10, -3, -4, 0, 4, 950, 893, 317,ω
2025-03-12 13:08:07.415,712, 590, 361, -10, 4, 4, -4, -1, 7, 955, 903, 454,ω
2025-03-12 13:08:07.466,690, 601, 532, -1, -15, 8, -5, 1, 7, 960, 909, 416,ω
2025-03-12 13:08:07.516,686, 461, 470, -5, -8, -4, -4, 1, 6, 968, 921, 152,ω
2025-03-12 13:08:07.578,855, 1146, 278, -23, 37, 17, -5, 0, 6, 978, 919, 58,ω
2025-03-12 13:08:07.631,716, 450, 550, -31, 18, 38, -4, 2, 7, 980, 930, 96,ω
2025-03-12 13:08:07.682,688, 307, 570, -3, -21, -16, -6, 0, 8, 976, 928, 63,ω
2025-03-12 13:08:07.732,913, 813, 179, -4, 8, 19, -5, 1, 6, 977, 919, 78,ω
2025-03-12 13:08:07.782,749, 591, 443, -41, -3, 13, -4, 3, 6, 976, 920, 52,ω
2025-03-12 13:08:07.843,972, 429, 166, 44, 7, -34, -6, 2, 6, 963, 880, 72,ω
2025-03-12 13:08:07.899,669, 536, 526, -20, 72, -39, -4, 1, 5, 931, 770, 61,ω
2025-03-12 13:08:08.183,671, 667, 387, 7, -1, -3, -5, -2, 5, 878, 553, 109,!
2025-03-12 13:08:08.232,657, 666, 392, 3, 2, -1, -7, -2, 7, 881, 558, 93,!
2025-03-12 13:08:08.282,539, 621, 417, -1, 13, 11, -4, -1, 4, 890, 593, 82,!
2025-03-12 13:08:08.343,732, 528, 460, 17, -22, 24, -4, 1, 4, 905, 642, 112,!
2025-03-12 13:08:08.398,773, 590, 225, -18, 9, -7, -4, 0, 5, 929, 655, 95,!
2025-03-12 13:08:08.449,729, 587, 406, 3, -18, -29, -6, 2, 5, 937, 624, 128,!
2025-03-12 13:08:08.503,622, 653, 460, 10, -15, -14, -5, 0, 7, 942, 609, 98,!
2025-03-12 13:08:08.562,634, 654, 362, -6, 2, 19, -5, -1, 5, 945, 692, 87,!
2025-03-12 13:08:08.614,679, 605, 365, -16, 9, 17, -3, -2, 7, 950, 793, 200,!
2025-03-12 13:08:08.666,729, 597, 408, -5, -3, 11, -5, 0, 8, 955, 853, 243,!
2025-03-12 13:08:08.715,762, 606, 355, -1, 3, 10, -6, 0, 7, 958, 872, 285,!
2025-03-12 13:08:08.779,716, 579, 382, -12, 8, 2, -6, -1, 7, 962, 879, 318,!
2025-03-12 13:08:08.832,729, 588, 382, -16, 1, -1, -4, -1, 9, 957, 872, 295,!
2025-03-12 13:08:08.883,677, 586, 470, -24, -24, -5, -3, 0, 6, 962, 890, 341,!
2025-03-12 13:08:08.942,721, 605, 405, -37, -9, -3, -5, 2, 5, 967, 921, 148,!
2025-03-12 13:08:08.996,735, 613, 489, 8, -8, 4, -5, 1, 7, 978, 930, 79,!
2025-03-12 13:08:09.046,888, 524, 424, 9, 29, 27, -6, 1, 9, 985, 929, 89,!
2025-03-12 13:08:09.098,744, 551, 317, 2, 10, 7, -6, 3, 6, 979, 926, 100,!
2025-03-12 13:08:09.148,739, 436, 505, 21, -11, -19, -5, 2, 7, 968, 906, 83,!
2025-03-12 13:08:09.203,686, 529, 559, -10, 12, -5, -4, 3, 5, 964, 901, 81,!
2025-03-12 13:08:09.255,697, 561, 428, 1, 17, 11, -5, 1, 4, 968, 888, 62,!
2025-03-12 13:08:09.304,775, 505, 429, 0, 20, 2, -4, 5, 2, 966, 878, 89,!
2025-03-12 13:08:09.364,225, 559, 1016, 40, -42, 34, -2, 2, 5, 974, 888, 100,!
2025-03-12 13:08:09.415,873, 670, -42, -8, 10, 3, -4, 4, 4, 976, 925, 58,!
2025-03-12 13:08:09.465,822, 410, 647, -9, 2, 9, -4, 5, 5, 967, 888, 79,!
2025-03-12 13:08:09.523,518, 479, 648, -49, 61, -35, -4, 4, 2, 955, 875, 78,!
2025-03-12 13:08:09.574,481, 531, 745, 6, -22, 6, -3, 3, 0, 948, 868, 65,!
2025-03-12 13:08:09.861,701, 535, 481, -7, -9, -2, -6, 1, 5, 934, 827, 64,@
2025-03-12 13:08:09.913,697, 544, 489, -7, -10, -1, -6, 1, 5, 934, 830, 60,@
2025-03-12 13:08:09.965,730, 560, 428, -5, -7, -1, -3, 1, 5, 936, 836, 71,@
2025-03-12 13:08:10.015,716, 551, 459, -2, -3, -3, -4, 2, 5, 938, 847, 86,@
2025-03-12 13:08:10.073,717, 531, 493, -4, -2, -1, -4, 1, 7, 941, 852, 60,@
2025-03-12 13:08:10.123,727, 549, 450, -10, -4, -1, -4, 3, 6, 947, 865, 86,@
2025-03-12 13:08:10.180,706, 530, 480, -7, -3, 0, -4, 2, 3, 949, 869, 82,@
2025-03-12 13:08:10.233,748, 514, 448, -1, -4, 0, -4, 4, 4, 951, 879, 77,@
2025-03-12 13:08:10.282,702, 529, 478, 1, -2, 0, -3, 3, 6, 954, 881, 69,@
2025-03-12 13:08:10.330,748, 538, 420, 4, -2, 2, -5, 1, 4, 954, 884, 75,@
2025-03-12 13:08:10.382,696, 542, 460, 4, -1, 0, -7, 2, 5, 955, 876, 87,@
2025-03-12 13:08:10.434,755, 546, 436, 1, 3, 0, -6, 2, 5, 954, 863, 56,@
2025-03-12 13:08:10.482,796, 524, 466, 8, -3, 6, -2, 3, 5, 954, 862, 47,@
2025-03-12 13:08:10.533,666, 537, 446, 4, 4, -3, -5, 2, 5, 958, 871, 75,@
2025-03-12 13:08:10.584,663, 534, 467, 11, -6, -3, -3, 2, 6, 957, 867, 77,@
2025-03-12 13:08:10.642,770, 533, 450, 17, -26, 2, -4, 1, 6, 964, 895, 69,@
2025-03-12 13:08:10.689,729, 682, 408, 2, 0, 1, -3, 1, 8, 969, 911, 76,@
2025-03-12 13:08:10.745,745, 505, 550, 9, -6, -2, -5, 1, 6, 974, 924, 106,@
2025-03-12 13:08:10.792,713, 593, 413, -5, 1, 2, -6, 1, 8, 975, 927, 77,@
2025-03-12 13:08:10.853,724, 557, 414, -2, -1, -3, -6, -2, 7, 974, 926, 47,@
2025-03-12 13:08:10.905,642, 484, 556, -2, -5, -18, -5, 3, 6, 974, 922, 81,@
2025-03-12 13:08:10.953,957, 708, 233, 24, 12, 8, -5, 1, 8, 980, 913, 54,@
2025-03-12 13:08:11.010,635, 251, 604, -26, 17, 29, -5, 3, 6, 980, 934, 87,@
2025-03-12 13:08:11.063,657, 436, 491, 6, -29, -27, -4, 3, 6, 976, 933, 62,@
2025-03-12 13:08:11.114,753, 515, 435, 14, -10, -8, -5, 2, 7, 979, 936, 69,@
2025-03-12 13:08:11.164,871, 524, 288, -8, 9, 25, -5, 2, 7, 982, 930, 42,@
2025-03-12 13:08:11.224,572, 507, 503, -34, -10, 4, -5, 1, 8, 979, 933, 66,@
2025-03-12 13:08:11.281,613, 524, 540, -15, -20, -30, -4, 1, 7, 967, 932, 66,@
2025-03-12 13:08:11.333,692, 644, 188, 73, 18, -28, -5, 1, 9, 971, 903, 81,@
2025-03-12 13:08:11.382,1129, 1015, 53, -18, 56, 58, -6, 0, 9, 978, 901, 63,@
2025-03-12 13:08:11.432,665, 412, 680, 3, -16, 8, -3, 1, 5, 972, 901, 68,@
2025-03-12 13:08:11.492,596, 584, 494, -45, 79, -48, -4, 3, 5, 931, 817, 57,@
2025-03-12 13:08:11.793,717, 554, 474, -1, -1, 2, -4, 2, 6, 920, 776, 50,#
2025-03-12 13:08:11.842,723, 540, 467, 0, -3, 2, -4, 2, 5, 920, 779, 49,#
2025-03-12 13:08:11.896,718, 537, 476, -2, -7, 2, -5, 3, 5, 926, 799, 16,#
2025-03-12 13:08:11.949,723, 539, 450, -8, -3, -2, -5, 3, 7, 935, 835, 26,#
2025-03-12 13:08:12.002,716, 550, 434, -10, 0, 0, -5, 2, 5, 941, 853, 25,#
2025-03-12 13:08:12.051,738, 530, 447, -4, -2, 1, -4, 2, 5, 949, 867, 16,#
2025-03-12 13:08:12.103,704, 551, 455, -2, -1, 1, -5, 2, 6, 949, 870, 30,#
2025-03-12 13:08:12.152,746, 535, 436, -4, 0, 0, -3, 3, 6, 948, 869, 33,#
2025-03-12 13:08:12.203,719, 531, 472, -4, -3, -3, -5, 3, 6, 950, 875, 21,#
2025-03-12 13:08:12.252,737, 547, 427, -3, -2, 0, -5, 3, 6, 953, 880, 18,#
2025-03-12 13:08:12.314,752, 544, 455, -1, -1, -2, -4, 1, 6, 953, 879, 24,#
2025-03-12 13:08:12.364,635, 500, 503, 3, -14, 3, -3, 1, 8, 957, 891, 13,#
2025-03-12 13:08:12.415,741, 567, 571, -17, -12, -9, -5, 2, 7, 965, 907, 22,#
2025-03-12 13:08:12.473,684, 1014, 64, 21, 39, 37, -5, 1, 7, 977, 906, 23,#
2025-03-12 13:08:12.523,906, 607, 295, 1, 31, 34, -5, 3, 6, 973, 874, 20,#
2025-03-12 13:08:12.579,587, 687, 781, -8, -26, -16, -4, 1, 5, 962, 871, 25,#
2025-03-12 13:08:12.632,744, 553, 146, 21, -11, 6, -4, 2, 7, 973, 888, 27,#
2025-03-12 13:08:12.688,649, 562, 285, -6, 41, 38, -4, 3, 5, 972, 860, 18,#
2025-03-12 13:08:12.735,505, 449, 618, -5, 2, -61, -6, 3, 4, 952, 789, 17,#
2025-03-12 13:08:12.793,993, 685, 605, -30, -29, 0, -3, 0, 6, 963, 911, 27,#
2025-03-12 13:08:12.846,497, 551, 422, 34, 9, 22, -4, 3, 8, 972, 898, 34,#
2025-03-12 13:08:12.897,574, 461, 330, 14, 56, -49, -5, 1, 5, 940, 749, 23,#
2025-03-12 13:08:12.952,1784, -376, -32, 14, -12, -17, -4, 1, 8, 962, 888, 19,#
2025-03-12 13:08:13.002,799, 390, 572, 22, 15, 30, -4, 1, 6, 967, 907, 42,#
2025-03-12 13:08:13.064,620, 611, 251, -30, 78, -53, -3, 2, 6, 934, 751, 28,#
2025-03-12 13:08:13.343,703, 559, 463, -4, -5, 6, -4, 0, 6, 902, 740, 62,%
2025-03-12 13:08:13.395,703, 563, 440, -4, -5, 6, -4, 2, 7, 906, 745, 84,%
2025-03-12 13:08:13.448,742, 541, 385, -7, -3, 0, -3, 0, 7, 906, 726, 83,%
2025-03-12 13:08:13.498,716, 545, 433, -3, 0, 1, -4, 1, 6, 910, 733, 103,%
2025-03-12 13:08:13.552,724, 541, 436, -3, -1, 0, -5, 2, 6, 912, 744, 58,%
2025-03-12 13:08:13.603,720, 553, 430, -6, -4, -2, -5, 1, 5, 917, 768, 73,%
2025-03-12 13:08:13.652,715, 552, 442, -8, -3, -2, -6, 1, 6, 922, 791, 102,%
2025-03-12 13:08:13.710,717, 541, 458, -12, -2, 1, -6, 4, 3, 933, 809, 91,%
2025-03-12 13:08:13.764,706, 539, 465, -6, -3, 5, -6, 3, 5, 939, 821, 61,%
2025-03-12 13:08:13.817,808, 588, 401, 21, -1, 14, -5, 2, 7, 949, 865, 67,%
2025-03-12 13:08:13.865,673, 534, 490, 1, -4, -2, -3, 2, 6, 950, 872, 69,%
2025-03-12 13:08:13.918,725, 531, 395, -5, 4, -6, -5, 1, 6, 951, 873, 68,%
2025-03-12 13:08:13.968,728, 559, 441, 0, 5, 4, -4, 2, 6, 952, 851, 61,%
2025-03-12 13:08:14.014,663, 560, 499, -7, -13, 1, -3, 3, 5, 953, 861, 34,%
2025-03-12 13:08:14.079,873, 571, 482, -14, -15, -17, -5, 2, 8, 955, 894, 88,%
2025-03-12 13:08:14.128,968, 686, 26, 8, 21, 7, -5, 4, 4, 967, 890, 75,%
2025-03-12 13:08:14.181,422, 381, 674, -60, 9, 22, -5, 4, 5, 970, 912, 79,%
2025-03-12 13:08:14.234,970, 419, 229, 21, -4, -17, -4, 3, 6, 958, 901, 85,%
2025-03-12 13:08:14.284,394, 541, 943, -5, -15, -9, -4, 3, 4, 959, 893, 60,%
2025-03-12 13:08:14.341,576, 1198, 190, 8, -21, -6, -5, 3, 6, 972, 916, 60,%
2025-03-12 13:08:14.394,905, 731, 248, 24, 46, 27, -6, 3, 5, 973, 891, 51,%
2025-03-12 13:08:14.447,976, 487, 217, -18, 53, 7, -4, 4, 5, 963, 845, 83,%
2025-03-12 13:08:14.503,526, 423, 532, 11, -58, 11, -5, 6, 4, 971, 883, 47,%
2025-03-12 13:08:14.553,880, 518, 373, 18, -16, -23, -5, 3, 6, 971, 904, 78,%
2025-03-12 13:08:14.611,706, 631, 179, -37, 32, 35, -5, 3, 7, 977, 914, 141,%
