Timestamp,Acc_X,Acc_Y,Acc_Z,Gyro_X,Gyro_Y,Gyro_Z,Mag_X,Mag_Y,Mag_Z,Force1,Force2,Force3,Letter
2025-03-17 10:54:55.125,617, 684, 417, -1, 1, -1, 0, -1, 0, 884, 573, 303,noise
2025-03-17 10:54:55.177,619, 692, 419, -1, 1, -1, -2, 0, 3, 885, 572, 297,noise
2025-03-17 10:54:55.237,610, 687, 413, -1, 0, 0, -1, -1, -1, 884, 579, 302,noise
2025-03-17 10:54:55.285,617, 678, 417, 0, 0, 0, -2, -1, 1, 884, 572, 298,noise
2025-03-17 10:54:55.337,613, 686, 421, -1, 0, 0, 2, -2, 1, 885, 574, 309,noise
2025-03-17 10:54:55.392,615, 694, 417, -1, 0, 0, -1, -1, -1, 883, 574, 309,noise
2025-03-17 10:54:55.442,615, 680, 418, -2, 0, -1, 2, 0, 0, 884, 573, 309,noise
2025-03-17 10:54:55.497,610, 684, 421, -2, -1, -1, 0, 0, 1, 886, 576, 309,noise
2025-03-17 10:54:55.547,614, 687, 417, -2, 0, -1, 0, -2, 1, 883, 569, 294,noise
2025-03-17 10:54:55.597,618, 686, 421, -1, 0, 0, 1, 0, 1, 885, 577, 299,noise
2025-03-17 10:54:55.647,614, 679, 421, -1, 0, 0, 0, 1, 0, 884, 577, 303,noise
2025-03-17 10:54:55.698,615, 687, 420, -1, 0, 0, 2, -1, 2, 886, 577, 313,noise
2025-03-17 10:54:55.757,611, 683, 417, -1, 1, 0, -2, -2, 2, 886, 572, 318,noise
2025-03-17 10:54:55.810,617, 684, 418, -1, 0, 1, 0, -1, -1, 892, 584, 355,noise
2025-03-17 10:54:55.859,602, 677, 417, -1, 1, 1, 0, -2, 0, 900, 585, 373,noise
2025-03-17 10:54:55.916,619, 681, 419, -1, 0, 1, -1, 0, 0, 902, 587, 374,noise
2025-03-17 10:54:55.962,618, 686, 421, 0, 1, 0, 1, 0, 0, 901, 582, 377,noise
2025-03-17 10:54:56.014,618, 674, 406, -1, 0, 0, -1, 0, 0, 901, 584, 388,noise
2025-03-17 10:54:56.067,611, 677, 421, -2, 1, 0, 2, -2, 1, 898, 574, 373,noise
2025-03-17 10:54:56.117,622, 682, 414, -1, 0, 0, 2, -3, 3, 897, 573, 375,noise
2025-03-17 10:54:56.173,618, 686, 427, -2, 1, -1, -1, -1, -1, 896, 581, 375,noise
2025-03-17 10:54:56.227,625, 685, 412, -2, 0, 0, 1, 2, -1, 896, 574, 359,noise
2025-03-17 10:54:56.276,620, 679, 414, -2, 0, -1, 0, -1, 0, 895, 580, 371,noise
2025-03-17 10:54:56.332,614, 680, 413, -2, 0, -1, 0, -1, 1, 895, 578, 369,noise
2025-03-17 10:54:56.387,615, 677, 421, -1, -1, 0, 0, 1, -2, 896, 589, 379,noise
2025-03-17 10:54:56.440,616, 675, 428, -2, -1, 0, 0, -1, 0, 896, 590, 374,noise
2025-03-17 10:54:56.492,620, 677, 418, -2, 0, -1, 0, 0, -1, 894, 584, 372,noise
2025-03-17 10:54:57.087,643, 676, 448, -11, -4, -1, 1, 1, -1, 915, 689, 454,A
2025-03-17 10:54:57.146,628, 649, 455, -9, -5, -1, 2, -4, 0, 918, 696, 455,A
2025-03-17 10:54:57.197,607, 623, 431, -11, -2, 2, 0, -1, 1, 932, 751, 489,A
2025-03-17 10:54:57.256,637, 638, 436, -12, -5, 8, -1, 0, 0, 945, 835, 572,A
2025-03-17 10:54:57.309,620, 669, 474, -3, -3, 7, -1, 0, 1, 953, 879, 613,A
2025-03-17 10:54:57.360,630, 676, 448, 0, -1, 11, -1, 2, -1, 962, 905, 662,A
2025-03-17 10:54:57.407,613, 653, 462, 5, -2, 9, -3, 3, 0, 968, 925, 693,A
2025-03-17 10:54:57.467,654, 652, 445, 15, -2, 12, 0, -1, 2, 972, 939, 721,A
2025-03-17 10:54:57.522,676, 645, 448, 12, -7, 10, 0, 1, 2, 975, 952, 761,A
2025-03-17 10:54:57.566,672, 621, 402, 5, 0, 5, -1, 2, 0, 979, 959, 782,A
2025-03-17 10:54:57.624,638, 631, 423, 4, -1, 2, -1, 1, 1, 979, 960, 790,A
2025-03-17 10:54:57.676,670, 631, 398, 2, -2, 3, -2, 2, 0, 979, 963, 791,A
2025-03-17 10:54:57.726,669, 627, 418, 2, 1, 5, -1, 1, 2, 979, 963, 793,A
2025-03-17 10:54:57.777,665, 636, 402, 15, -9, 17, -1, 3, 0, 981, 962, 791,A
2025-03-17 10:54:57.834,753, 605, 342, 14, -4, 18, -4, 2, 0, 981, 959, 784,A
2025-03-17 10:54:57.885,703, 608, 367, 0, 16, 7, 0, 1, 3, 980, 955, 774,A
2025-03-17 10:54:57.941,672, 630, 430, -3, -11, 13, -3, 3, -1, 980, 952, 774,A
2025-03-17 10:54:57.996,648, 628, 483, -3, -29, 18, -3, 3, 1, 981, 958, 775,A
2025-03-17 10:54:58.052,686, 514, 476, -31, -29, -9, -6, 6, 1, 984, 963, 685,A
2025-03-17 10:54:58.107,656, 702, -100, 20, 46, 30, -3, 3, 4, 987, 964, 385,A
2025-03-17 10:54:58.158,832, 573, 370, -20, 38, 18, -3, 3, 2, 980, 956, 322,A
2025-03-17 10:54:58.217,634, 637, 614, -25, -51, -12, 1, 3, 2, 980, 963, 573,A
2025-03-17 10:54:58.274,753, 690, 253, 22, -20, 4, -3, 2, 4, 989, 969, 406,A
2025-03-17 10:54:58.326,698, 615, 208, -13, 48, 38, -3, 4, 5, 985, 965, 242,A
2025-03-17 10:54:58.377,469, 539, 739, 10, -9, -27, -1, 0, 6, 982, 955, 276,A
2025-03-17 10:54:58.438,787, 716, 184, -32, -12, -6, -4, 6, 4, 983, 969, 43,A
2025-03-17 10:54:58.490,886, 651, 134, 7, 7, 30, -5, 6, 3, 987, 974, 375,A
2025-03-17 10:54:58.541,889, 412, 50, -19, 51, -52, -2, 4, 2, 978, 964, 608,A
2025-03-17 10:54:58.599,503, 586, 681, -36, 42, -60, 0, 2, 0, 968, 944, 538,A
2025-03-17 10:54:58.655,583, 706, 524, 2, -12, -2, -2, 2, 0, 967, 920, 538,A
2025-03-17 10:54:58.707,701, 625, 388, 2, -14, 7, -2, 3, -1, 965, 917, 524,A
2025-03-17 10:54:58.757,699, 591, 423, 8, -12, 12, -3, 5, 0, 967, 925, 563,A
2025-03-17 10:54:58.807,729, 583, 382, 3, -5, 7, -2, 4, 0, 965, 928, 577,A
2025-03-17 10:54:58.857,734, 583, 397, -3, 2, 0, -3, 2, 3, 968, 929, 558,A
2025-03-17 10:54:58.916,666, 623, 449, -2, 2, 0, -1, 2, 1, 965, 925, 528,A
2025-03-17 10:54:58.971,717, 580, 386, 4, -4, 0, -3, 4, 0, 964, 922, 543,A
2025-03-17 10:54:59.831,699, 591, 416, -2, 0, 0, 0, 2, 2, 968, 940, 450,B
2025-03-17 10:54:59.885,695, 593, 416, -2, 0, 0, -2, 4, 0, 968, 940, 442,B
2025-03-17 10:54:59.937,701, 586, 432, -1, -2, 1, -3, 2, 1, 967, 941, 414,B
2025-03-17 10:54:59.988,714, 584, 405, -1, -1, 0, -1, 3, 0, 967, 942, 404,B
2025-03-17 10:55:00.041,705, 593, 421, -2, 0, 0, -3, 4, 1, 966, 941, 406,B
2025-03-17 10:55:00.091,707, 595, 415, -2, 0, 0, -4, 8, -1, 967, 942, 416,B
2025-03-17 10:55:00.147,702, 588, 423, -2, -1, -1, -3, 3, 3, 967, 944, 426,B
2025-03-17 10:55:00.200,715, 582, 407, -3, 0, 1, 1, 1, 3, 969, 943, 398,B
2025-03-17 10:55:00.247,703, 584, 422, -3, 1, -1, -3, 5, -2, 967, 943, 345,B
2025-03-17 10:55:00.307,709, 591, 418, -1, -5, 1, -2, 3, 2, 968, 943, 339,B
2025-03-17 10:55:00.358,698, 594, 433, -2, -6, 2, -3, 1, 3, 970, 945, 344,B
2025-03-17 10:55:00.408,686, 591, 438, -4, -20, 5, -1, 3, 4, 968, 946, 346,B
2025-03-17 10:55:00.466,732, 561, 392, -7, -28, 6, -1, 1, 4, 970, 952, 339,B
2025-03-17 10:55:00.524,749, 405, 395, 3, -12, -12, -3, 4, 2, 975, 960, 260,B
2025-03-17 10:55:00.576,-90, 822, 252, 14, 65, 45, -4, 4, 2, 981, 953, 47,B
2025-03-17 10:55:00.627,791, 469, 353, -19, 39, 26, -1, 4, 3, 979, 947, 46,B
2025-03-17 10:55:00.676,620, 665, 524, 4, -52, -52, -1, 6, 1, 975, 957, 318,B
2025-03-17 10:55:00.741,596, 577, 449, 16, -26, -11, -3, 3, 4, 983, 974, 505,B
2025-03-17 10:55:00.791,625, 795, 264, 16, 5, 19, -4, 2, 4, 986, 971, 464,B
2025-03-17 10:55:00.847,985, 511, 208, -2, 25, 23, -3, 4, 4, 985, 969, 196,B
2025-03-17 10:55:00.897,617, 414, 730, 12, 2, -3, -3, 5, 3, 984, 967, 278,B
2025-03-17 10:55:00.947,774, 656, 9, -3, 21, 8, -2, 4, 3, 983, 963, 50,B
2025-03-17 10:55:00.997,848, 435, 447, 0, 23, -12, -4, 5, 2, 969, 905, 94,B
2025-03-17 10:55:01.059,560, 557, 667, -29, 31, -37, -2, 3, -1, 964, 903, 234,B
2025-03-17 10:55:01.109,536, 667, 489, 2, -20, 3, -3, 2, 0, 963, 922, 366,B
2025-03-17 10:55:01.167,773, 564, 330, 7, -23, 14, -1, 2, 1, 964, 924, 395,B
2025-03-17 10:55:01.216,770, 582, 329, -18, 1, -6, -2, 4, 1, 964, 923, 315,B
2025-03-17 10:55:01.277,640, 597, 492, -3, -13, 6, -3, 1, 2, 964, 931, 311,B
2025-03-17 10:55:02.590,719, 580, 418, -3, -7, 2, -1, 3, 1, 967, 944, 319,C
2025-03-17 10:55:02.640,712, 583, 415, -2, -8, 2, -4, 5, 2, 970, 944, 321,C
2025-03-17 10:55:02.697,744, 575, 403, -1, -8, 4, 1, 5, 0, 970, 947, 326,C
2025-03-17 10:55:02.746,741, 573, 392, -2, -5, 1, -3, 4, 2, 971, 948, 356,C
2025-03-17 10:55:02.805,732, 566, 419, -2, -8, 3, -2, 4, 2, 971, 952, 373,C
2025-03-17 10:55:02.856,733, 539, 428, -1, -17, 4, -3, 5, 1, 972, 954, 382,C
2025-03-17 10:55:02.909,765, 582, 329, -5, -2, -2, -3, 4, 4, 974, 958, 359,C
2025-03-17 10:55:02.966,726, 557, 500, -13, -12, -11, -1, 1, 4, 974, 963, 248,C
2025-03-17 10:55:03.021,1304, 641, 267, 63, -1, -16, -3, 2, 7, 981, 959, 31,C
2025-03-17 10:55:03.077,612, 612, -33, 5, 55, 38, -1, 4, 4, 986, 968, 48,C
2025-03-17 10:55:03.129,784, 293, 566, 15, 12, 3, 0, 1, 6, 981, 969, 319,C
2025-03-17 10:55:03.178,642, 500, 614, -45, 59, -71, 0, 3, -2, 972, 962, 491,C
2025-03-17 10:55:03.239,463, 631, 729, -19, 3, -19, 3, 4, -5, 964, 944, 398,C
2025-03-17 10:55:03.290,651, 601, 486, 7, -26, 9, 1, 3, -2, 960, 917, 208,C
2025-03-17 10:55:03.579,680, 583, 449, -2, -2, -1, -1, 4, -2, 960, 919, 144,D
2025-03-17 10:55:03.626,681, 588, 452, -2, -2, 0, 2, 2, -1, 959, 918, 143,D
2025-03-17 10:55:03.679,672, 585, 463, 0, -7, 3, -1, 5, 0, 960, 917, 131,D
2025-03-17 10:55:03.727,697, 568, 416, 5, -11, 5, 2, 4, -1, 960, 919, 174,D
2025-03-17 10:55:03.788,715, 581, 415, 4, -9, 6, -2, 3, 2, 961, 924, 210,D
2025-03-17 10:55:03.838,725, 576, 400, 1, -8, 3, -2, 4, 1, 962, 926, 221,D
2025-03-17 10:55:03.891,705, 568, 393, -5, -8, -3, -1, 6, 0, 960, 928, 198,D
2025-03-17 10:55:03.947,591, 589, 537, -4, -40, 6, -3, 4, 2, 963, 936, 141,D
2025-03-17 10:55:03.997,799, 459, 427, 53, 5, -9, -5, 6, 3, 978, 948, 29,D
2025-03-17 10:55:04.054,553, 786, 118, -48, 53, 51, -3, 5, 2, 981, 947, 38,D
2025-03-17 10:55:04.108,600, 4, 622, 27, -44, -64, -3, 5, 0, 970, 945, 34,D
2025-03-17 10:55:04.157,917, 614, 564, -23, -43, -14, -3, 5, 3, 978, 971, 329,D
2025-03-17 10:55:04.216,469, 921, 237, 30, 15, 35, 0, 2, 4, 986, 969, 185,D
2025-03-17 10:55:04.271,758, 391, 229, -21, 38, 21, -3, 5, 4, 980, 955, 55,D
2025-03-17 10:55:04.324,986, 493, 175, -27, 51, -70, 1, 5, 2, 963, 882, 38,D
2025-03-17 10:55:04.376,528, 714, 652, -26, 18, -35, 0, 2, -1, 960, 899, 88,D
2025-03-17 10:55:04.665,672, 590, 460, 3, -7, 6, -1, 5, 0, 958, 900, 106,E
2025-03-17 10:55:04.717,697, 576, 449, 5, -8, 6, -1, 3, 2, 955, 901, 110,E
2025-03-17 10:55:04.771,736, 573, 394, -1, -1, 2, -2, 3, 2, 958, 900, 143,E
2025-03-17 10:55:04.823,717, 580, 425, -2, -4, 2, -3, 4, 1, 958, 907, 190,E
2025-03-17 10:55:04.876,707, 585, 401, -2, -3, -1, -2, 2, 2, 959, 914, 212,E
2025-03-17 10:55:04.927,690, 580, 437, -2, -11, 2, -4, 6, 2, 960, 919, 186,E
2025-03-17 10:55:04.988,664, 583, 475, -2, -25, 4, -3, 6, 2, 965, 931, 224,E
2025-03-17 10:55:05.040,785, 589, 445, 9, -14, -9, -1, 4, 4, 972, 950, 131,E
2025-03-17 10:55:05.090,915, 661, 483, -10, 40, 31, -2, 3, 4, 982, 948, 44,E
2025-03-17 10:55:05.147,789, 520, 242, -19, 27, 15, -3, 7, 2, 978, 938, 43,E
2025-03-17 10:55:05.205,542, 750, 616, -2, -42, -67, -3, 3, 1, 969, 939, 48,E
2025-03-17 10:55:05.257,799, 543, 298, 55, -42, -8, -4, 3, 5, 983, 973, 53,E
2025-03-17 10:55:05.310,832, 561, 404, -1, 17, 27, -3, 4, 6, 984, 970, 316,E
2025-03-17 10:55:05.365,693, 424, 384, 4, 51, -17, -5, 5, 4, 973, 942, 53,E
2025-03-17 10:55:05.417,774, 654, 518, 31, -43, 20, -3, 3, 5, 969, 915, 32,E
2025-03-17 10:55:05.471,851, 417, 185, -2, 4, 18, -2, 2, 3, 984, 967, 80,E
2025-03-17 10:55:05.524,715, 551, 494, 6, 16, 23, -3, 5, 2, 980, 959, 183,E
2025-03-17 10:55:05.577,560, 500, 510, 9, 44, -37, -2, 1, 4, 968, 914, 29,E
2025-03-17 10:55:05.633,857, -1071, 240, -114, -27, -14, -3, 3, 3, 977, 941, 46,E
2025-03-17 10:55:05.689,591, 242, 301, -21, 17, 28, -3, 6, 2, 985, 972, 71,E
2025-03-17 10:55:05.740,997, 299, 214, 2, 22, -33, -1, 7, 1, 975, 955, 39,E
2025-03-17 10:55:05.797,489, 588, 729, -42, 57, -62, -1, 2, 0, 959, 886, 45,E
2025-03-17 10:55:05.847,530, 579, 613, 10, -24, 3, 1, 4, -3, 956, 839, 54,E
2025-03-17 10:55:06.085,683, 589, 422, 1, -4, 4, -1, 1, 1, 951, 868, 116,F
2025-03-17 10:55:06.127,709, 583, 420, 2, -5, 3, -1, 1, 1, 949, 864, 111,F
2025-03-17 10:55:06.189,720, 590, 405, -7, 3, -1, -3, 4, 0, 948, 871, 129,F
2025-03-17 10:55:06.241,689, 588, 443, -2, -3, 2, -4, 8, -4, 949, 876, 104,F
2025-03-17 10:55:06.291,725, 576, 375, -6, 1, 0, -2, 2, 2, 950, 881, 112,F
2025-03-17 10:55:06.347,703, 587, 447, -3, 0, -1, -2, 5, 0, 951, 887, 110,F
2025-03-17 10:55:06.397,728, 596, 425, -4, -1, -1, -3, 4, 1, 953, 890, 108,F
2025-03-17 10:55:06.456,708, 591, 426, -5, -1, -2, -2, 5, 1, 951, 892, 102,F
2025-03-17 10:55:06.507,700, 586, 436, -1, -1, -3, -1, 3, 2, 950, 884, 79,F
2025-03-17 10:55:06.557,706, 582, 412, -3, 0, -2, -1, 5, 0, 952, 889, 95,F
2025-03-17 10:55:06.607,699, 586, 441, -1, -2, 0, 0, 2, 2, 953, 893, 68,F
2025-03-17 10:55:06.667,719, 593, 388, -1, -2, -1, -2, 4, -1, 953, 889, 71,F
2025-03-17 10:55:06.717,685, 593, 443, -1, -3, 0, -2, 4, 2, 954, 896, 74,F
2025-03-17 10:55:06.770,690, 581, 419, 0, -7, 1, 1, 3, 2, 956, 905, 117,F
2025-03-17 10:55:06.822,699, 591, 424, -6, -14, 2, -3, 5, 1, 958, 919, 174,F
2025-03-17 10:55:06.877,646, 568, 472, -4, -35, 2, -1, 1, 3, 960, 935, 246,F
2025-03-17 10:55:06.927,775, 614, 299, -8, -21, -11, -3, 4, 5, 969, 955, 49,F
2025-03-17 10:55:06.982,931, 684, 381, 7, 56, 45, -1, 4, 3, 982, 956, 39,F
2025-03-17 10:55:07.039,756, 405, 270, -14, 33, 23, -4, 6, 4, 981, 944, 46,F
2025-03-17 10:55:07.089,533, 706, 473, -4, -38, -59, -3, 4, 2, 970, 931, 31,F
2025-03-17 10:55:07.147,793, 589, 111, 44, -40, -9, -4, 4, 4, 981, 971, 75,F
2025-03-17 10:55:07.197,756, 738, 395, 6, 19, 26, -4, 5, 3, 983, 965, 274,F
2025-03-17 10:55:07.253,429, 485, 518, 16, 50, -34, -3, 3, 4, 970, 922, 41,F
2025-03-17 10:55:07.306,873, 748, 24, 42, -20, -11, -4, 4, 3, 976, 948, 31,F
2025-03-17 10:55:07.356,578, 481, 138, -5, 16, 21, -3, 5, 4, 983, 969, 67,F
2025-03-17 10:55:07.417,851, 442, 96, -21, 54, -48, -2, 5, 4, 966, 935, 223,F
2025-03-17 10:55:07.471,483, 643, 720, -33, 29, -40, -2, 4, 1, 953, 862, 42,F
2025-03-17 10:55:07.756,691, 595, 409, 0, -5, 2, -1, 4, 2, 956, 890, 116,G
2025-03-17 10:55:07.807,700, 603, 405, 0, -6, 3, -1, 3, 1, 955, 889, 121,G
2025-03-17 10:55:07.867,739, 579, 358, -6, -5, 1, -4, 5, 2, 955, 898, 122,G
2025-03-17 10:55:07.921,718, 604, 396, -5, -3, -1, -3, 2, 4, 957, 913, 191,G
2025-03-17 10:55:07.971,731, 585, 400, 2, -7, 4, 0, 4, 1, 959, 923, 205,G
2025-03-17 10:55:08.024,739, 600, 384, 0, -5, 6, -5, 5, 2, 962, 932, 304,G
2025-03-17 10:55:08.077,684, 571, 413, 4, -28, 8, -3, 3, 4, 968, 947, 313,G
2025-03-17 10:55:08.134,663, 437, 512, -15, -10, -12, -4, 5, 4, 971, 960, 31,G
2025-03-17 10:55:08.176,726, 928, -88, 61, 9, -5, -4, 3, 5, 978, 943, 49,G
2025-03-17 10:55:08.238,723, 778, 111, -40, 49, 39, -4, 3, 5, 983, 953, 31,G
2025-03-17 10:55:08.289,646, 399, 660, 8, -26, -5, -3, 5, 2, 978, 957, 42,G
2025-03-17 10:55:08.347,763, 608, 411, 34, -24, -16, -3, 4, 3, 978, 956, 41,G
2025-03-17 10:55:08.397,746, 782, 131, -27, 35, 32, -3, 4, 4, 980, 949, 40,G
2025-03-17 10:55:08.453,469, 428, 561, -2, -9, -52, -1, 5, 3, 972, 923, 28,G
2025-03-17 10:55:08.507,834, 950, 358, -11, -33, -2, -2, 5, 4, 982, 963, 42,G
2025-03-17 10:55:08.557,699, 639, 283, -3, 20, 36, -4, 5, 4, 984, 965, 58,G
2025-03-17 10:55:08.617,789, 461, 56, -32, 75, -59, -2, 4, 3, 967, 917, 47,G
2025-03-17 10:55:08.929,691, 581, 407, -6, -2, 0, -2, 3, 2, 954, 879, 51,H
2025-03-17 10:55:08.977,691, 574, 424, -5, -3, 0, -2, 5, 2, 957, 879, 50,H
2025-03-17 10:55:09.027,719, 583, 399, -3, -8, 0, 1, 5, 3, 954, 876, 32,H
2025-03-17 10:55:09.085,723, 579, 385, -5, -15, -5, -3, 3, 4, 954, 897, 46,H
2025-03-17 10:55:09.138,1251, 465, 317, -12, -6, -5, -3, 2, 3, 961, 936, 48,H
2025-03-17 10:55:09.191,769, 509, 535, 27, 0, -2, -4, 3, 3, 975, 939, 53,H
2025-03-17 10:55:09.242,470, 624, 69, -1, 40, 33, -4, 2, 3, 980, 926, 45,H
2025-03-17 10:55:09.297,705, 457, 507, -23, 15, 9, -3, 6, 2, 971, 861, 35,H
2025-03-17 10:55:09.347,438, 781, 783, 19, -59, -5, -3, 5, 2, 969, 914, 42,H
2025-03-17 10:55:09.404,966, 1126, -133, -7, -3, 50, -3, 2, 4, 984, 968, 48,H
2025-03-17 10:55:09.457,778, 289, 421, -8, 10, 6, -3, 3, 6, 981, 959, 300,H
2025-03-17 10:55:09.507,524, 623, 647, -3, -31, -18, -3, 5, 1, 975, 951, 335,H
2025-03-17 10:55:09.566,779, 840, 18, 27, -2, 22, -4, 4, 5, 984, 960, 52,H
2025-03-17 10:55:09.620,850, 507, 332, -15, 48, 38, -5, 4, 5, 985, 951, 26,H
2025-03-17 10:55:09.672,710, 464, 160, -4, 40, -70, -3, 5, 1, 962, 906, 224,H
2025-03-17 10:55:09.952,706, 586, 422, -11, 0, -3, -1, 4, 0, 955, 894, 130,I
2025-03-17 10:55:10.007,697, 572, 430, -11, -2, -3, -1, 4, 0, 957, 893, 82,I
2025-03-17 10:55:10.063,746, 587, 368, -12, -2, 0, -1, 3, 3, 957, 881, 47,I
2025-03-17 10:55:10.107,710, 586, 390, -5, 1, -3, -2, 3, 2, 954, 880, 41,I
2025-03-17 10:55:10.160,637, 571, 500, -5, -17, 4, -1, 2, 3, 960, 888, 30,I
2025-03-17 10:55:10.219,833, 500, 316, 11, -17, -7, -3, 4, 4, 972, 946, 45,I
2025-03-17 10:55:10.276,895, 347, 200, 21, -7, 31, -3, 4, 5, 981, 968, 252,I
2025-03-17 10:55:10.327,695, 450, 396, 18, 10, 12, -3, 5, 4, 977, 955, 559,I
2025-03-17 10:55:10.382,576, 690, 504, -15, -3, -31, -2, 3, 4, 968, 942, 459,I
2025-03-17 10:55:10.436,764, 370, 273, 18, 15, 21, -4, 2, 5, 984, 954, 89,I
2025-03-17 10:55:10.493,801, 439, 552, -21, 51, 38, -2, 1, 5, 981, 938, 29,I
2025-03-17 10:55:10.546,351, 502, 618, -6, -8, -51, -2, 2, 2, 966, 863, 49,I
2025-03-17 10:55:10.597,738, 493, 305, 43, -20, -4, -3, 3, 5, 981, 966, 28,I
2025-03-17 10:55:10.653,777, 460, 474, 0, 15, 28, -3, 4, 3, 980, 964, 101,I
2025-03-17 10:55:10.705,655, 570, 191, -45, 68, -72, -2, 4, 1, 960, 916, 31,I
2025-03-17 10:55:10.964,738, 583, 379, -15, 5, -1, -3, 4, 3, 954, 823, 44,J
2025-03-17 10:55:11.017,716, 562, 395, -12, 4, -2, -1, 6, 5, 954, 830, 58,J
2025-03-17 10:55:11.071,713, 563, 393, 1, -6, 2, -3, 5, 4, 954, 870, 42,J
2025-03-17 10:55:11.123,724, 607, 401, -2, -3, -2, -2, 2, 5, 955, 900, 149,J
2025-03-17 10:55:11.177,679, 572, 430, 2, -12, -1, -3, 3, 4, 956, 907, 39,J
2025-03-17 10:55:11.226,708, 597, 358, -7, -11, -13, -4, 3, 5, 963, 929, 46,J
2025-03-17 10:55:11.288,668, 1151, 265, 6, -30, 40, -5, 5, 2, 979, 965, 220,J
2025-03-17 10:55:11.342,633, 551, 459, -4, 10, 16, -3, 3, 5, 982, 964, 445,J
2025-03-17 10:55:11.398,636, 605, 412, -7, -4, -41, -3, 2, 6, 970, 943, 286,J
2025-03-17 10:55:11.452,712, 986, 163, -27, 52, 67, -4, 4, 2, 983, 958, 26,J
2025-03-17 10:55:11.505,743, 517, 259, -51, 27, 36, -4, 5, 5, 984, 960, 80,J
2025-03-17 10:55:11.557,321, 301, 516, 42, -9, -63, -3, 4, 4, 956, 849, 28,J
2025-03-17 10:55:11.617,697, 686, 350, -12, 60, -26, -2, 5, 1, 922, 801, 48,J
2025-03-17 10:55:11.665,524, 717, 536, 4, 5, 4, -1, 4, -1, 927, 801, 146,J
2025-03-17 10:55:11.927,730, 573, 415, -2, -4, -1, -4, 4, 2, 941, 851, 100,K
2025-03-17 10:55:11.980,716, 581, 404, -3, -4, 0, -3, 4, 5, 940, 852, 100,K
2025-03-17 10:55:12.033,704, 583, 406, -8, -8, -3, -2, 2, 2, 943, 858, 93,K
2025-03-17 10:55:12.086,712, 585, 445, -2, -18, 2, -3, 8, 3, 951, 888, 41,K
2025-03-17 10:55:12.137,736, 507, 413, -3, -17, -5, -1, 3, 6, 961, 928, 46,K
2025-03-17 10:55:12.189,702, 522, 471, 9, -11, -7, -4, 3, 5, 966, 939, 35,K
2025-03-17 10:55:12.246,942, 413, 650, 48, 13, 13, -4, 5, 4, 974, 864, 42,K
2025-03-17 10:55:12.298,874, 561, 246, -13, 21, 24, -5, 4, 3, 978, 934, 53,K
2025-03-17 10:55:12.353,603, 460, 122, -1, -42, -7, -3, 2, 4, 980, 970, 60,K
2025-03-17 10:55:12.406,736, 625, 309, 22, 2, -7, -3, 4, 5, 971, 943, 56,K
2025-03-17 10:55:12.456,428, 747, 830, 23, 20, -8, -1, 3, 5, 963, 828, 28,K
2025-03-17 10:55:12.507,849, 1039, -255, -4, 12, 48, -4, 3, 4, 984, 949, 71,K
2025-03-17 10:55:12.557,775, 478, 281, -7, 31, 37, -2, 5, 2, 980, 934, 133,K
2025-03-17 10:55:12.620,475, 568, 247, -26, 75, -98, -4, 2, 1, 937, 804, 50,K
2025-03-17 10:55:12.906,710, 608, 375, -7, -1, 0, -1, 2, 3, 921, 792, 48,L
2025-03-17 10:55:12.967,708, 610, 397, -8, -2, 0, -2, 4, 1, 921, 793, 52,L
2025-03-17 10:55:13.021,693, 605, 382, -1, -11, 6, -2, 2, 3, 926, 816, 47,L
2025-03-17 10:55:13.074,757, 592, 311, -8, -7, -2, -1, 5, 4, 929, 839, 29,L
2025-03-17 10:55:13.127,675, 599, 433, -9, -16, -2, -3, 4, 3, 936, 870, 145,L
2025-03-17 10:55:13.183,713, 647, 246, -23, -6, -7, -2, 2, 5, 949, 926, 30,L
2025-03-17 10:55:13.238,720, 466, 519, 38, -21, -16, -4, 3, 4, 969, 937, 37,L
2025-03-17 10:55:13.289,618, 788, 173, -18, 39, 34, -4, 3, 3, 980, 881, 43,L
2025-03-17 10:55:13.347,793, 964, 562, -14, 15, 51, -2, 3, 5, 985, 960, 63,L
2025-03-17 10:55:13.396,677, 502, 456, 15, -3, 10, -4, 5, 2, 980, 959, 58,L
2025-03-17 10:55:13.455,808, 565, 44, -44, 66, -62, -3, 4, 2, 955, 896, 145,L
2025-03-17 10:55:13.744,724, 588, 387, 1, -13, 0, -3, 3, 2, 943, 874, 39,M
2025-03-17 10:55:13.799,736, 597, 379, 3, -12, 1, -2, 3, 3, 942, 872, 44,M
2025-03-17 10:55:13.847,736, 600, 347, 1, -1, 4, -3, 3, 4, 946, 862, 53,M
2025-03-17 10:55:13.899,741, 602, 354, 7, -8, 1, -2, 3, 3, 947, 844, 52,M
2025-03-17 10:55:13.951,726, 547, 368, -3, -2, -9, -3, 4, 4, 942, 862, 55,M
2025-03-17 10:55:14.008,664, 687, 411, -13, -19, -5, -4, 2, 6, 944, 906, 76,M
2025-03-17 10:55:14.058,846, 645, 354, 26, -3, 4, -5, 2, 4, 972, 933, 51,M
2025-03-17 10:55:14.115,420, 862, 108, -33, 55, 49, -2, 4, 3, 980, 901, 28,M
2025-03-17 10:55:14.166,738, 220, 760, 15, -33, -35, -2, 2, 2, 966, 901, 39,M
2025-03-17 10:55:14.221,666, 632, 681, -4, -40, -20, -3, 5, 4, 969, 951, 107,M
2025-03-17 10:55:14.277,671, 705, 290, 59, -17, 4, -3, 3, 4, 981, 947, 136,M
2025-03-17 10:55:14.331,830, 474, 237, -16, 31, 30, -4, 4, 4, 982, 954, 40,M
2025-03-17 10:55:14.387,616, 521, 536, -6, -27, -17, -3, 3, 5, 977, 954, 218,M
2025-03-17 10:55:14.437,779, 717, 4, 10, 35, 31, -3, 3, 4, 983, 957, 63,M
2025-03-17 10:55:14.487,771, 477, 389, -10, 28, 12, -3, 3, 5, 980, 944, 40,M
2025-03-17 10:55:14.547,696, 506, 352, -22, 31, -54, -3, 4, 2, 959, 922, 57,M
2025-03-17 10:55:14.828,731, 578, 395, -2, -2, -2, -2, 4, 3, 949, 864, 35,N
2025-03-17 10:55:14.888,746, 569, 381, -2, -3, -3, 0, 4, 2, 949, 863, 39,N
2025-03-17 10:55:14.936,698, 600, 413, -3, -7, 0, -3, 3, 3, 949, 862, 43,N
2025-03-17 10:55:14.986,750, 572, 339, -3, -6, -2, -3, 3, 5, 946, 868, 33,N
2025-03-17 10:55:15.047,699, 582, 380, -13, -13, -13, -3, 2, 6, 943, 879, 43,N
2025-03-17 10:55:15.101,1184, 355, 301, -50, -9, -6, 2, 1, 7, 956, 929, 48,N
2025-03-17 10:55:15.153,495, 454, 286, 23, 37, 24, -4, 2, 5, 976, 927, 51,N
2025-03-17 10:55:15.207,693, 452, 271, -6, 29, 31, -3, 2, 4, 974, 901, 28,N
2025-03-17 10:55:15.257,509, 717, 535, 7, -44, -51, -2, 2, 4, 958, 929, 340,N
2025-03-17 10:55:15.318,787, 285, 376, 36, -34, -15, -4, 2, 5, 976, 954, 230,N
2025-03-17 10:55:15.371,445, 547, 148, -43, 58, 75, -3, 4, 3, 985, 943, 40,N
2025-03-17 10:55:15.427,536, 100, 870, -3, -34, -19, -3, 5, 3, 982, 958, 40,N
2025-03-17 10:55:15.486,958, 472, 170, 64, -3, -23, -3, 5, 2, 961, 923, 575,N
2025-03-17 10:55:15.538,601, 708, 450, -27, 67, -28, -2, 5, 2, 958, 863, 436,N
2025-03-17 10:55:15.813,745, 563, 383, -2, -2, 0, -3, 5, 3, 955, 900, 210,O
2025-03-17 10:55:15.857,766, 567, 372, 0, -2, 1, -4, 4, 5, 953, 900, 209,O
2025-03-17 10:55:15.917,742, 603, 374, -1, 2, 5, -4, 4, 3, 951, 891, 232,O
2025-03-17 10:55:15.970,757, 559, 376, 2, -5, 7, -3, 3, 4, 954, 895, 244,O
2025-03-17 10:55:16.019,770, 581, 321, -4, 1, 2, -4, 4, 4, 956, 905, 242,O
2025-03-17 10:55:16.072,728, 554, 423, -7, -8, 2, -5, 6, 4, 959, 924, 285,O
2025-03-17 10:55:16.127,759, 551, 391, -26, -3, -10, -3, 3, 5, 963, 948, 38,O
2025-03-17 10:55:16.176,924, 416, 507, 2, -19, -25, -3, 4, 6, 965, 943, 43,O
2025-03-17 10:55:16.235,1242, 1108, -114, 8, 51, 54, -4, 4, 5, 981, 930, 49,O
2025-03-17 10:55:16.288,797, 583, 443, -78, 0, 25, -2, 5, 3, 982, 969, 104,O
2025-03-17 10:55:16.346,1070, 392, 400, 65, -46, -44, -6, 3, 6, 967, 964, 39,O
2025-03-17 10:55:16.397,879, 625, 36, -9, 56, -35, -4, 4, 4, 933, 920, 110,O
2025-03-17 10:55:16.453,569, 686, 656, -17, 47, 0, -3, 4, 1, 931, 791, 50,O
2025-03-17 10:55:16.717,733, 567, 403, -8, -4, -2, -2, 4, 2, 910, 787, 51,P
2025-03-17 10:55:16.776,725, 591, 418, -10, -4, 0, -2, 5, 5, 913, 789, 47,P
2025-03-17 10:55:16.827,746, 591, 364, -18, -11, 8, -3, 4, 4, 933, 814, 43,P
2025-03-17 10:55:16.877,765, 541, 402, -18, -5, 1, -2, 5, 3, 944, 855, 30,P
2025-03-17 10:55:16.935,696, 523, 454, -15, -11, -4, -5, 5, 4, 947, 894, 50,P
2025-03-17 10:55:16.987,736, 508, 417, -1, -12, -10, -6, 6, 3, 965, 931, 35,P
2025-03-17 10:55:17.040,934, 670, 377, 5, 50, 49, -2, 4, 5, 978, 936, 46,P
2025-03-17 10:55:17.087,762, 656, 160, -3, 16, 12, -1, 6, 4, 976, 940, 38,P
2025-03-17 10:55:17.153,988, 800, 377, 41, -61, -52, -2, 3, 5, 966, 956, 231,P
2025-03-17 10:55:17.206,580, 624, 434, 29, -18, 6, -2, 0, 7, 981, 967, 331,P
2025-03-17 10:55:17.258,757, 395, 509, -13, 37, 23, -4, 5, 5, 984, 964, 42,P
2025-03-17 10:55:17.317,1093, 380, 266, -23, 39, -34, -4, 6, 3, 970, 933, 38,P
2025-03-17 10:55:17.370,570, 628, 673, -18, 25, -31, -1, 2, 3, 965, 932, 49,P
2025-03-17 10:55:17.658,751, 572, 366, -3, -2, 4, -3, 3, 6, 959, 921, 80,Q
2025-03-17 10:55:17.706,749, 561, 360, -4, -2, 4, -1, 6, 1, 960, 919, 63,Q
2025-03-17 10:55:17.756,736, 588, 386, -6, -8, 9, -5, 5, 3, 963, 930, 61,Q
2025-03-17 10:55:17.807,751, 579, 331, -3, -9, 4, -3, 5, 3, 965, 940, 74,Q
2025-03-17 10:55:17.866,750, 522, 365, -6, -5, -11, -3, 3, 6, 967, 950, 54,Q
2025-03-17 10:55:17.920,776, 613, 363, -6, -1, -3, -5, 5, 5, 971, 958, 37,Q
2025-03-17 10:55:17.973,731, 576, 378, -8, -1, -1, -4, 5, 5, 971, 961, 45,Q
2025-03-17 10:55:18.022,636, 475, 443, 2, -9, -16, -3, 4, 4, 975, 961, 40,Q
2025-03-17 10:55:18.077,958, 892, -45, 48, 37, 32, -4, 3, 7, 981, 951, 59,Q
2025-03-17 10:55:18.127,448, 314, 365, -43, 29, 43, -3, 4, 5, 984, 968, 87,Q
2025-03-17 10:55:18.187,539, 344, 560, 17, -52, -48, -1, 4, 4, 980, 971, 42,Q
2025-03-17 10:55:18.236,952, 533, 209, 31, 1, -26, -3, 5, 4, 971, 948, 57,Q
2025-03-17 10:55:18.291,392, 724, 767, 8, 7, 14, -1, 5, 2, 973, 926, 40,Q
2025-03-17 10:55:18.345,869, 364, 105, -21, 2, 15, -3, 5, 3, 984, 961, 61,Q
2025-03-17 10:55:18.397,901, 548, 223, 26, 18, 31, -4, 6, 2, 989, 964, 260,Q
2025-03-17 10:55:18.454,970, 230, 121, -21, 47, -54, -4, 6, 2, 979, 945, 46,Q
2025-03-17 10:55:18.507,598, 615, 816, -6, 38, -62, -1, 1, 0, 958, 870, 30,Q
2025-03-17 10:55:18.806,714, 551, 415, 0, -15, 7, -4, 4, 2, 949, 864, 39,R
2025-03-17 10:55:18.861,757, 557, 414, 0, -13, 6, 3, 5, 0, 950, 867, 40,R
2025-03-17 10:55:18.908,757, 583, 352, 1, -2, -1, -2, 4, 2, 949, 874, 53,R
2025-03-17 10:55:18.956,728, 565, 415, -2, -3, -2, -3, 3, 3, 949, 886, 48,R
2025-03-17 10:55:19.019,671, 574, 433, -7, -12, -7, -3, 6, 2, 949, 906, 49,R
2025-03-17 10:55:19.070,751, 514, 439, 1, -9, -11, -3, 2, 5, 961, 935, 54,R
2025-03-17 10:55:19.121,880, 943, 36, 13, 58, 60, -3, 3, 5, 977, 932, 34,R
2025-03-17 10:55:19.176,760, 295, 398, -30, 23, 20, -2, 7, 0, 975, 929, 52,R
2025-03-17 10:55:19.234,862, 215, 629, 89, -79, -103, -1, 3, 4, 960, 949, 39,R
2025-03-17 10:55:19.286,727, 729, 536, 17, -30, 5, -3, 3, 4, 980, 970, 48,R
2025-03-17 10:55:19.339,827, 745, 295, -27, 46, 50, -5, 5, 4, 984, 962, 29,R
2025-03-17 10:55:19.387,811, 490, 350, 2, 19, 43, -2, 4, 4, 986, 963, 65,R
2025-03-17 10:55:19.447,916, 258, 150, 10, 17, -46, -2, 6, 3, 977, 951, 36,R
2025-03-17 10:55:19.503,522, 607, 657, -19, 53, -75, -1, 4, 0, 947, 885, 48,R
2025-03-17 10:55:19.775,689, 561, 445, -5, -8, 4, -5, 5, 0, 958, 914, 53,S
2025-03-17 10:55:19.827,683, 559, 465, -3, -11, 3, -3, 4, 3, 959, 916, 48,S
2025-03-17 10:55:19.877,706, 562, 460, 12, -22, 6, -3, 4, 3, 961, 928, 47,S
2025-03-17 10:55:19.935,706, 585, 321, -6, -2, -8, -3, 5, 4, 962, 944, 39,S
2025-03-17 10:55:19.984,680, 389, 461, 13, 9, -10, -2, 6, 2, 964, 941, 32,S
2025-03-17 10:55:20.037,928, 794, -32, 17, 44, 38, -3, 4, 3, 976, 944, 55,S
2025-03-17 10:55:20.087,540, 716, 552, -7, 18, 23, -3, 3, 3, 981, 958, 49,S
2025-03-17 10:55:20.143,804, 381, 235, 2, 18, -6, -2, 6, 2, 967, 932, 43,S
2025-03-17 10:55:20.200,1182, 529, 61, -32, 49, -57, -2, 6, 1, 935, 824, 39,S
2025-03-17 10:55:20.251,433, 649, 816, -15, 7, -33, 1, 3, -1, 937, 887, 51,S
2025-03-17 10:55:20.307,558, 593, 557, 17, -41, 13, -2, 2, -2, 940, 906, 47,S
2025-03-17 10:55:20.541,689, 568, 405, -9, -3, -6, -3, 2, 4, 934, 853, 39,T
2025-03-17 10:55:20.594,684, 562, 429, -9, -4, -6, -1, 6, 4, 934, 847, 37,T
2025-03-17 10:55:20.647,680, 558, 441, -10, -15, 0, -2, 4, 3, 935, 825, 51,T
2025-03-17 10:55:20.700,747, 580, 305, -12, -2, -10, -2, 3, 4, 952, 875, 38,T
2025-03-17 10:55:20.757,690, 606, 342, -18, -16, 49, -4, 4, 6, 975, 959, 39,T
2025-03-17 10:55:20.807,650, 510, 467, 21, 1, 14, 0, 4, 5, 975, 952, 192,T
2025-03-17 10:55:20.857,542, 443, 418, -15, 21, -41, -5, 5, 3, 961, 916, 50,T
2025-03-17 10:55:20.916,781, 332, 250, 15, -12, -9, -5, 4, 4, 972, 936, 26,T
2025-03-17 10:55:20.969,1062, 708, 438, -23, 33, 36, -3, 3, 4, 984, 949, 61,T
2025-03-17 10:55:21.019,722, 511, 386, -5, 24, 10, -4, 6, 3, 973, 895, 42,T
2025-03-17 10:55:21.077,718, 651, 233, -1, 31, -63, 0, 5, 3, 931, 831, 47,T
2025-03-17 10:55:21.127,544, 663, 653, -4, -18, -1, 0, 2, 3, 923, 850, 41,T
2025-03-17 10:55:21.404,725, 583, 401, -4, -4, -5, -4, 3, 5, 932, 806, 50,U
2025-03-17 10:55:21.457,721, 572, 395, -4, -5, -7, -1, 6, 0, 931, 811, 48,U
2025-03-17 10:55:21.506,722, 573, 425, -16, -9, -10, -3, 5, 3, 928, 829, 37,U
2025-03-17 10:55:21.568,828, 498, 414, -16, -10, -7, -3, 3, 3, 947, 894, 50,U
2025-03-17 10:55:21.617,764, 675, 356, 45, 12, 5, -3, 5, 4, 970, 886, 36,U
2025-03-17 10:55:21.669,878, 580, 265, -2, 29, 45, -1, 1, 5, 976, 935, 42,U
2025-03-17 10:55:21.727,791, 268, 543, 2, -30, -19, -3, 6, 2, 970, 950, 50,U
2025-03-17 10:55:21.777,708, 298, 668, 19, -21, -21, -2, 6, 3, 968, 952, 90,U
2025-03-17 10:55:21.834,623, 666, 179, -26, 42, 40, -3, 3, 4, 981, 945, 42,U
2025-03-17 10:55:21.887,836, 533, 553, -21, 14, 10, -3, 5, 2, 975, 929, 36,U
2025-03-17 10:55:21.946,722, 481, 547, -18, 33, -52, -2, 5, 1, 942, 891, 31,U
2025-03-17 10:55:21.997,555, 565, 590, -5, -10, -5, -1, 3, 0, 935, 859, 49,U
2025-03-17 10:55:22.248,714, 557, 448, 0, -2, -2, -3, 5, 0, 921, 667, 33,V
2025-03-17 10:55:22.302,718, 563, 436, 1, -3, -2, -1, 4, 2, 919, 657, 25,V
2025-03-17 10:55:22.355,703, 549, 438, 14, -1, -3, -1, 4, 2, 913, 650, 34,V
2025-03-17 10:55:22.405,708, 584, 444, 5, -6, -3, -2, 3, 2, 906, 663, 50,V
2025-03-17 10:55:22.457,687, 566, 443, 0, -8, -2, -2, 4, 2, 907, 713, 45,V
2025-03-17 10:55:22.506,686, 579, 440, -4, -17, -5, -2, 2, 3, 905, 769, 28,V
2025-03-17 10:55:22.567,780, 549, 395, -22, -7, -11, -4, 2, 3, 936, 888, 40,V
2025-03-17 10:55:22.618,942, 939, 417, 24, 2, 38, -4, 2, 5, 973, 914, 39,V
2025-03-17 10:55:22.671,813, 354, 207, 9, 11, 33, -3, 4, 5, 979, 932, 45,V
2025-03-17 10:55:22.721,799, 77, 457, 23, -52, -34, -3, 6, 0, 976, 962, 40,V
2025-03-17 10:55:22.776,981, 594, 187, 45, 10, -19, -4, 6, 4, 958, 923, 42,V
2025-03-17 10:55:22.834,619, 673, 482, -44, 74, -17, -3, 4, 1, 947, 671, 42,V
2025-03-17 10:55:23.140,672, 574, 458, 1, 2, -11, -1, 2, 4, 897, 618, 40,W
2025-03-17 10:55:23.195,685, 574, 475, 0, -1, -11, -3, 2, 4, 897, 600, 25,W
2025-03-17 10:55:23.241,703, 603, 438, 5, -9, -7, -4, 3, 4, 878, 626, 29,W
2025-03-17 10:55:23.297,682, 612, 441, 3, -24, 4, -3, 5, 1, 880, 774, 49,W
2025-03-17 10:55:23.350,789, 566, 392, -27, -2, -3, -3, 5, 4, 928, 904, 42,W
2025-03-17 10:55:23.401,912, 567, 571, 48, -19, -4, -3, 5, 3, 967, 921, 39,W
2025-03-17 10:55:23.457,509, 515, 230, -28, 25, 44, -3, 5, 4, 978, 941, 40,W
2025-03-17 10:55:23.511,633, 247, 552, -28, -30, -16, -3, 5, 3, 974, 962, 42,W
2025-03-17 10:55:23.568,687, 243, 627, 32, -16, -20, -4, 7, 2, 974, 964, 39,W
2025-03-17 10:55:23.620,1214, 594, 394, -21, 40, 52, -4, 6, 3, 979, 948, 40,W
2025-03-17 10:55:23.677,689, 368, 560, -58, -13, 3, -3, 6, 3, 980, 964, 42,W
2025-03-17 10:55:23.727,933, 517, 99, 21, 16, -18, -3, 6, 3, 964, 949, 49,W
2025-03-17 10:55:23.787,616, 519, 558, -10, 61, -26, -3, 7, 2, 960, 918, 40,W
2025-03-17 10:55:24.057,750, 535, 402, -3, -12, 1, -3, 4, 2, 948, 875, 40,X
2025-03-17 10:55:24.117,748, 521, 404, -2, -10, 0, 0, 6, 3, 950, 877, 42,X
2025-03-17 10:55:24.166,737, 554, 444, 2, -8, 2, -6, 8, 1, 947, 884, 34,X
2025-03-17 10:55:24.207,759, 542, 381, 3, -6, 2, -3, 6, 2, 949, 890, 38,X
2025-03-17 10:55:24.268,757, 535, 404, -4, -2, -7, -4, 6, 4, 947, 895, 42,X
2025-03-17 10:55:24.321,735, 557, 417, -11, -11, -4, -4, 6, 3, 949, 914, 37,X
2025-03-17 10:55:24.373,727, 510, 512, -6, -9, 1, -4, 4, 4, 962, 941, 41,X
2025-03-17 10:55:24.427,636, 460, 411, 26, 11, 0, -4, 6, 1, 976, 950, 37,X
2025-03-17 10:55:24.477,530, 556, -10, -9, 41, 13, -5, 6, 2, 976, 939, 51,X
2025-03-17 10:55:24.534,777, 669, 597, -56, 36, 7, -3, 6, 2, 958, 886, 51,X
2025-03-17 10:55:24.587,414, 846, 887, 61, -61, -14, -1, 4, 3, 935, 912, 28,X
2025-03-17 10:55:24.645,1109, 997, -120, -59, 18, 77, -3, 4, 3, 982, 960, 50,X
2025-03-17 10:55:24.697,702, 348, 609, 14, 18, 42, -2, 7, 2, 976, 944, 38,X
2025-03-17 10:55:24.751,747, 472, 262, -11, 62, -68, -2, 7, 1, 937, 868, 57,X
2025-03-17 10:55:25.047,721, 544, 455, -5, -1, -2, 1, 5, 3, 922, 854, 34,Y
2025-03-17 10:55:25.099,709, 552, 463, -5, -2, -1, 1, 5, 3, 926, 855, 36,Y
2025-03-17 10:55:25.153,728, 572, 423, 0, -5, -1, -1, 6, 2, 927, 868, 38,Y
2025-03-17 10:55:25.202,717, 558, 417, -4, -1, -2, -6, 8, 2, 927, 870, 32,Y
2025-03-17 10:55:25.257,682, 558, 436, -14, -5, -5, -2, 3, 4, 928, 874, 39,Y
2025-03-17 10:55:25.306,846, 520, 456, -21, -18, -11, -4, 6, 2, 947, 904, 25,Y
2025-03-17 10:55:25.370,885, 1088, 333, 55, -7, 34, -4, 5, 3, 974, 951, 53,Y
2025-03-17 10:55:25.419,840, 656, 203, 26, 20, 31, -5, 6, 1, 977, 947, 54,Y
2025-03-17 10:55:25.476,575, 501, 515, -11, 0, -48, -3, 5, 4, 961, 927, 245,Y
2025-03-17 10:55:25.533,713, -767, 593, -23, -28, -23, -6, 6, 4, 976, 945, 54,Y
2025-03-17 10:55:25.589,631, 775, 115, 49, 48, 32, -4, 2, 7, 984, 930, 58,Y
2025-03-17 10:55:25.636,772, 603, 176, 8, 29, 5, -3, 5, 3, 961, 861, 47,Y
2025-03-17 10:55:25.687,708, 668, 297, -49, 37, -56, -3, 6, 2, 933, 861, 46,Y
2025-03-17 10:55:25.743,467, 690, 740, -11, -17, -2, -1, 5, -1, 936, 878, 52,Y
2025-03-17 10:55:26.017,709, 552, 422, -12, -2, -4, -3, 3, 2, 928, 817, 25,Z
2025-03-17 10:55:26.068,714, 548, 426, -13, -2, -5, 0, 6, -1, 929, 817, 42,Z
2025-03-17 10:55:26.118,732, 565, 427, -5, -5, 2, -5, 7, 2, 929, 816, 26,Z
2025-03-17 10:55:26.169,718, 543, 425, -2, 0, 0, -2, 4, 3, 933, 832, 50,Z
2025-03-17 10:55:26.218,721, 556, 423, -1, -8, 2, -4, 6, 1, 936, 854, 42,Z
2025-03-17 10:55:26.277,729, 541, 427, -5, -2, -1, -3, 4, 5, 941, 869, 44,Z
2025-03-17 10:55:26.332,708, 549, 432, -5, -5, -1, -1, 4, 5, 941, 885, 41,Z
2025-03-17 10:55:26.385,693, 561, 430, -9, -10, -1, -2, 4, 3, 947, 891, 38,Z
2025-03-17 10:55:26.439,750, 424, 434, -8, -7, -17, -3, 4, 3, 957, 911, 40,Z
2025-03-17 10:55:26.487,965, 710, 639, 77, -25, 5, -3, 5, 3, 974, 959, 46,Z
2025-03-17 10:55:26.537,721, 671, 433, 70, -7, 18, -1, 4, 3, 980, 946, 122,Z
2025-03-17 10:55:26.599,801, 534, 208, -14, 46, 9, -4, 5, 4, 975, 918, 52,Z
2025-03-17 10:55:26.652,851, 560, 325, 4, 5, -6, -2, 3, 5, 979, 944, 35,Z
2025-03-17 10:55:26.703,677, 658, 216, -6, -4, 34, -3, 4, 4, 985, 966, 137,Z
2025-03-17 10:55:26.753,694, 524, 376, 9, 1, 5, -4, 5, 4, 979, 953, 40,Z
2025-03-17 10:55:26.807,397, 545, 392, -33, 29, -89, -1, 6, 2, 961, 906, 36,Z
2025-03-17 10:55:26.856,848, 699, 308, 60, -35, -8, -4, 5, 5, 980, 959, 40,Z
2025-03-17 10:55:26.918,974, 495, 287, 8, 13, 31, -4, 2, 8, 984, 965, 61,Z
2025-03-17 10:55:26.967,863, 422, 89, 2, 41, -42, -3, 5, 4, 967, 927, 53,Z
2025-03-17 10:55:27.020,574, 623, 734, -29, 46, -31, -1, 3, 0, 949, 817, 52,Z
2025-03-17 10:55:27.077,583, 557, 485, 24, -32, 10, -2, 4, 1, 940, 758, 33,Z
2025-03-17 10:55:27.127,785, 540, 248, 1, -12, 3, -3, 3, 1, 939, 785, 41,Z
2025-03-17 10:55:27.184,697, 596, 448, -4, -1, -1, -4, 7, -1, 935, 801, 35,Z
2025-03-17 10:55:28.192,732, 571, 418, -1, -2, 0, -5, 5, 3, 944, 844, 52,a
2025-03-17 10:55:28.241,727, 562, 394, -2, -2, 0, -2, 7, 3, 943, 843, 43,a
2025-03-17 10:55:28.294,725, 563, 401, -1, 1, 0, -3, 5, 2, 944, 848, 24,a
2025-03-17 10:55:28.347,739, 566, 399, -2, -1, 0, -3, 5, 2, 945, 848, 40,a
2025-03-17 10:55:28.397,727, 563, 420, 2, 0, 2, -1, 2, 3, 950, 853, 49,a
2025-03-17 10:55:28.440,733, 553, 408, 2, 1, 2, -4, 4, 4, 952, 859, 40,a
2025-03-17 10:55:28.499,748, 557, 375, 0, 1, -1, -3, 4, 5, 953, 865, 49,a
2025-03-17 10:55:28.548,719, 568, 411, 3, -1, 2, -4, 4, 2, 953, 868, 39,a
2025-03-17 10:55:28.601,670, 552, 427, 3, -5, 5, -3, 1, 6, 957, 886, 49,a
2025-03-17 10:55:28.651,684, 629, 368, -15, -9, -10, -2, 1, 5, 963, 923, 49,a
2025-03-17 10:55:28.707,483, 527, 311, 8, -11, -26, -3, 6, 3, 973, 929, 32,a
2025-03-17 10:55:28.757,972, 436, 349, -25, 37, 30, -4, 3, 6, 981, 938, 44,a
2025-03-17 10:55:28.817,587, 327, 604, -25, -5, 16, -4, 5, 5, 977, 953, 29,a
2025-03-17 10:55:28.868,656, 525, 597, 7, -18, -19, -5, 6, 4, 973, 954, 44,a
2025-03-17 10:55:28.918,713, 926, -28, -13, 40, 26, -1, 4, 4, 981, 950, 31,a
2025-03-17 10:55:28.981,851, 338, 386, -29, 36, -28, -2, 4, 3, 975, 921, 46,a
2025-03-17 10:55:29.031,580, 481, 722, -5, 7, -39, -2, 3, 2, 951, 889, 40,a
2025-03-17 10:55:29.322,705, 551, 456, -2, -2, 2, -3, 6, 1, 941, 854, 44,b
2025-03-17 10:55:29.368,704, 549, 462, 0, -3, 2, -3, 5, 2, 940, 854, 55,b
2025-03-17 10:55:29.419,735, 556, 410, 2, -6, 3, -4, 5, 2, 943, 854, 39,b
2025-03-17 10:55:29.469,726, 555, 418, 2, -4, 0, -2, 5, 3, 943, 860, 42,b
2025-03-17 10:55:29.527,699, 555, 429, 4, -7, -2, -3, 4, 3, 939, 865, 38,b
2025-03-17 10:55:29.577,727, 597, 384, -10, -7, -3, -3, 1, 3, 937, 876, 33,b
2025-03-17 10:55:29.633,727, 539, 416, -10, -7, -1, -4, 5, 4, 947, 904, 49,b
2025-03-17 10:55:29.688,724, 302, 579, 29, -10, -13, -5, 5, 3, 968, 925, 34,b
2025-03-17 10:55:29.736,1142, 161, 764, -16, 68, 65, -3, 3, 4, 980, 921, 47,b
2025-03-17 10:55:29.797,747, 538, 444, -13, 17, 9, -3, 6, 1, 970, 916, 38,b
2025-03-17 10:55:29.852,1047, 607, 491, 20, -29, -22, -4, 6, 3, 973, 952, 46,b
2025-03-17 10:55:29.906,653, 854, 217, -14, 11, 36, -3, 5, 3, 984, 956, 67,b
2025-03-17 10:55:29.957,684, 368, 394, -32, 24, 12, -2, 7, 2, 977, 920, 35,b
2025-03-17 10:55:30.018,1112, 434, 144, -1, 46, -58, -3, 6, 0, 951, 771, 51,b
2025-03-17 10:55:30.067,481, 641, 885, 2, 4, -25, -1, 3, 0, 944, 832, 39,b
2025-03-17 10:55:30.331,737, 516, 422, -1, -1, 0, -3, 7, 0, 947, 838, 49,c
2025-03-17 10:55:30.387,725, 531, 431, 0, -1, 0, -4, 3, 2, 948, 835, 29,c
2025-03-17 10:55:30.437,743, 540, 436, 0, -3, 1, -4, 4, 2, 950, 843, 49,c
2025-03-17 10:55:30.487,725, 544, 440, -4, 0, -2, 0, 5, 2, 948, 845, 37,c
2025-03-17 10:55:30.536,728, 551, 430, -2, -4, 4, -4, 5, 5, 951, 855, 49,c
2025-03-17 10:55:30.592,750, 540, 416, -6, -1, 2, -3, 5, 1, 954, 865, 41,c
2025-03-17 10:55:30.641,716, 556, 441, 0, -8, 3, -2, 5, 1, 958, 884, 33,c
2025-03-17 10:55:30.698,1016, 445, 356, -23, -12, -10, -1, 6, 1, 964, 915, 25,c
2025-03-17 10:55:30.751,711, 345, 569, -11, -13, -17, -4, 6, 2, 973, 945, 31,c
2025-03-17 10:55:30.807,786, 615, 29, -9, 44, 33, -2, 4, 3, 985, 945, 41,c
2025-03-17 10:55:30.857,734, 510, 565, 6, 1, 21, -2, 7, 2, 983, 953, 33,c
2025-03-17 10:55:30.907,797, 588, 70, -13, 62, -60, -6, 6, 3, 961, 924, 34,c
2025-03-17 10:55:30.968,479, 649, 789, -13, 4, -14, -1, 4, 0, 938, 874, 46,c
2025-03-17 10:55:31.237,699, 542, 456, 3, -7, 5, -2, 4, 1, 944, 864, 51,d
2025-03-17 10:55:31.288,712, 533, 442, 5, -7, 5, 0, 5, 3, 944, 864, 41,d
2025-03-17 10:55:31.337,727, 523, 419, 2, -5, 4, -4, 5, 0, 948, 863, 25,d
2025-03-17 10:55:31.386,731, 533, 436, 4, -8, 3, -3, 6, 2, 951, 868, 35,d
2025-03-17 10:55:31.443,738, 549, 437, -4, -12, 5, -2, 3, 3, 956, 887, 39,d
2025-03-17 10:55:31.497,765, 619, 482, -26, -2, -9, -3, 6, 2, 962, 930, 49,d
2025-03-17 10:55:31.550,889, 523, 569, -12, -9, -16, -4, 7, 2, 968, 930, 55,d
2025-03-17 10:55:31.600,651, 665, 202, 17, 29, 32, -2, 5, 3, 982, 917, 28,d
2025-03-17 10:55:31.657,735, 573, 433, -52, 13, 23, -4, 6, 2, 979, 952, 52,d
2025-03-17 10:55:31.714,504, 576, 381, -8, -53, -52, -4, 5, 3, 970, 957, 47,d
2025-03-17 10:55:31.767,795, 847, 175, 37, -7, -6, -4, 3, 4, 980, 951, 44,d
2025-03-17 10:55:31.817,737, 753, 6, -14, 42, 41, -2, 8, 3, 983, 943, 45,d
2025-03-17 10:55:31.873,938, 119, 384, 9, 11, -64, -5, 8, 0, 974, 909, 38,d
2025-03-17 10:55:31.918,592, 565, 708, 8, 24, -35, -2, 4, 1, 942, 882, 55,d
2025-03-17 10:55:32.192,726, 541, 455, 1, -2, 1, -5, 2, 2, 937, 827, 37,e
2025-03-17 10:55:32.237,747, 535, 443, 1, -2, 2, -5, 2, 2, 939, 828, 32,e
2025-03-17 10:55:32.293,731, 535, 424, -4, 1, 0, -2, 6, 1, 939, 835, 49,e
2025-03-17 10:55:32.341,728, 530, 431, -1, -3, 0, -3, 5, 3, 942, 837, 50,e
2025-03-17 10:55:32.398,696, 553, 444, -3, -5, 1, -2, 2, 6, 944, 832, 36,e
2025-03-17 10:55:32.450,739, 525, 428, -2, -2, -1, -3, 6, -1, 945, 816, 42,e
2025-03-17 10:55:32.503,718, 518, 440, 2, -11, 3, -2, 5, 2, 951, 840, 30,e
2025-03-17 10:55:32.549,989, 642, 505, 28, 0, 9, -2, 7, 3, 971, 924, 45,e
2025-03-17 10:55:32.607,664, 532, 446, -8, -1, 10, -4, 4, 3, 976, 949, 48,e
2025-03-17 10:55:32.664,761, 273, 572, 21, -23, -35, -4, 5, 3, 971, 952, 42,e
2025-03-17 10:55:32.707,590, 839, 271, 22, 14, 0, -3, 6, 3, 981, 946, 48,e
2025-03-17 10:55:32.767,825, 411, 422, -3, 31, 35, -4, 5, 3, 984, 950, 53,e
2025-03-17 10:55:32.816,817, 364, 242, -1, 32, -53, -1, 5, 4, 971, 917, 40,e
2025-03-17 10:55:33.117,734, 533, 422, 1, -1, 5, -2, 5, 3, 952, 863, 40,f
2025-03-17 10:55:33.169,727, 533, 431, 1, 0, 5, 1, 8, 2, 952, 865, 45,f
2025-03-17 10:55:33.222,735, 527, 447, -1, -1, 4, -3, 7, -1, 952, 865, 28,f
2025-03-17 10:55:33.271,735, 521, 456, 3, -5, 3, -2, 4, 1, 955, 873, 41,f
2025-03-17 10:55:33.318,737, 526, 447, 3, -6, 8, -4, 6, 2, 960, 877, 43,f
2025-03-17 10:55:33.377,754, 588, 359, -28, 12, 11, -1, 6, 1, 969, 889, 41,f
2025-03-17 10:55:33.433,637, 302, 582, -62, -21, -26, -2, 9, 2, 973, 949, 42,f
2025-03-17 10:55:33.487,819, 476, 341, 19, -22, -23, -1, 2, 5, 979, 966, 36,f
2025-03-17 10:55:33.537,691, 530, 282, 29, -15, 8, -4, 6, 3, 984, 962, 155,f
2025-03-17 10:55:33.598,832, 292, 136, -27, 56, -23, -1, 6, 5, 977, 949, 36,f
2025-03-17 10:55:33.651,534, 683, 928, 14, -40, 18, -3, 5, 2, 972, 922, 45,f
2025-03-17 10:55:33.701,976, 1055, 297, -8, 0, 33, -2, 2, 5, 986, 969, 58,f
2025-03-17 10:55:33.751,586, 430, 559, 11, 0, 17, -4, 6, 4, 982, 954, 53,f
2025-03-17 10:55:33.807,663, 559, 311, -24, 60, -61, -3, 6, 0, 965, 899, 35,f
2025-03-17 10:55:34.086,726, 544, 453, -1, -1, 11, -5, 7, -1, 960, 810, 26,g
2025-03-17 10:55:34.136,728, 526, 436, -1, 0, 10, -1, 2, 3, 961, 797, 26,g
2025-03-17 10:55:34.191,697, 527, 508, -1, -8, 13, -6, 7, 0, 960, 701, 36,g
2025-03-17 10:55:34.240,725, 542, 393, 1, -26, 10, -1, 6, 3, 963, 776, 40,g
2025-03-17 10:55:34.298,707, 509, 445, -46, -1, -10, -3, 6, 2, 970, 917, 42,g
2025-03-17 10:55:34.348,893, 369, 510, 7, -11, -21, -3, 4, 2, 973, 925, 41,g
2025-03-17 10:55:34.398,1006, 623, 413, -12, 42, 56, 1, 6, 2, 983, 934, 31,g
2025-03-17 10:55:34.457,675, 412, 511, 0, 12, 17, -3, 7, 2, 977, 943, 42,g
2025-03-17 10:55:34.515,729, 539, 445, 27, -15, -25, -2, 7, 2, 972, 937, 48,g
2025-03-17 10:55:34.567,511, 859, 200, -34, 41, 47, -3, 4, 4, 980, 932, 60,g
2025-03-17 10:55:34.617,715, 314, 270, -61, 36, 20, -3, 8, 3, 973, 877, 30,g
2025-03-17 10:55:34.675,1036, 356, 208, 52, 32, -81, -4, 9, 0, 910, 685, 50,g
2025-03-17 10:55:34.977,739, 556, 432, 5, -13, 9, -4, 2, 3, 918, 800, 50,h
2025-03-17 10:55:35.031,752, 539, 410, 5, -13, 9, -1, 8, 3, 919, 801, 44,h
2025-03-17 10:55:35.081,743, 535, 415, 3, 0, 2, -2, 3, 4, 922, 767, 41,h
2025-03-17 10:55:35.135,726, 543, 417, 3, -13, -1, -2, 4, 3, 926, 740, 42,h
2025-03-17 10:55:35.187,744, 600, 430, -18, -13, -6, -4, 4, 3, 938, 833, 45,h
2025-03-17 10:55:35.236,732, 456, 475, -3, -9, -9, -2, 4, 4, 964, 912, 43,h
2025-03-17 10:55:35.298,211, 694, 560, -42, 43, 47, -4, 6, 4, 978, 910, 43,h
2025-03-17 10:55:35.348,752, 492, 158, -13, 9, 8, -3, 6, 3, 975, 910, 50,h
2025-03-17 10:55:35.403,467, 332, 727, 36, -36, -33, -4, 7, 1, 972, 941, 46,h
2025-03-17 10:55:35.453,710, 873, 25, 7, 14, 29, -4, 7, 1, 979, 928, 51,h
2025-03-17 10:55:35.507,919, 414, 416, -2, 21, 5, -3, 5, 5, 970, 856, 44,h
2025-03-17 10:55:35.557,733, 460, 522, -31, 39, -59, -2, 5, 2, 948, 759, 49,h
2025-03-17 10:55:35.841,750, 514, 437, 0, -9, 1, -1, 6, 0, 938, 731, 35,i
2025-03-17 10:55:35.897,760, 516, 418, 0, -9, 0, -1, 6, 0, 939, 730, 47,i
2025-03-17 10:55:35.937,755, 555, 387, -7, 1, -2, -3, 6, 3, 942, 712, 54,i
2025-03-17 10:55:35.999,668, 545, 534, 3, -14, 6, -1, 6, 1, 946, 726, 35,i
2025-03-17 10:55:36.052,807, 513, 336, -7, -11, 1, -6, 7, 3, 950, 809, 30,i
2025-03-17 10:55:36.102,788, 531, 434, -17, -4, -6, -3, 6, 2, 957, 891, 38,i
2025-03-17 10:55:36.157,749, 438, 487, -2, -5, -8, -3, 9, 3, 967, 918, 26,i
2025-03-17 10:55:36.207,937, 757, 505, 2, 25, 40, -4, 5, 3, 982, 918, 69,i
2025-03-17 10:55:36.257,943, 561, 336, 5, 16, 15, -3, 9, 1, 974, 890, 39,i
2025-03-17 10:55:36.317,341, 836, 1019, 1, -29, -53, -3, 9, 0, 959, 931, 31,i
2025-03-17 10:55:36.367,919, 397, -139, 26, -21, -11, -3, 4, 5, 973, 956, 54,i
2025-03-17 10:55:36.427,929, 480, 401, -23, 34, 24, -4, 5, 4, 965, 896, 50,i
2025-03-17 10:55:36.482,679, 572, 423, -39, 48, -21, -2, 4, 3, 956, 813, 35,i
2025-03-17 10:55:36.740,713, 534, 473, 6, -3, 7, -2, 5, 2, 953, 813, 40,j
2025-03-17 10:55:36.787,733, 529, 462, 6, -3, 7, -3, 6, 5, 952, 807, 34,j
2025-03-17 10:55:36.837,741, 546, 424, 4, -3, 3, -3, 5, 3, 953, 799, 32,j
2025-03-17 10:55:36.889,751, 541, 408, -1, -5, 1, -4, 4, 2, 951, 801, 34,j
2025-03-17 10:55:36.944,746, 542, 411, -1, 3, 0, -2, 5, 3, 953, 808, 51,j
2025-03-17 10:55:36.992,720, 548, 439, 0, 1, 2, -3, 4, 2, 952, 804, 54,j
2025-03-17 10:55:37.041,752, 535, 412, -3, 0, 2, -4, 5, 2, 951, 802, 38,j
2025-03-17 10:55:37.097,734, 556, 430, -1, -1, 1, -4, 7, -2, 952, 801, 31,j
2025-03-17 10:55:37.149,749, 539, 428, -1, -2, 1, -3, 6, 3, 953, 808, 50,j
2025-03-17 10:55:37.198,729, 531, 420, 5, -3, 3, -4, 6, 2, 952, 800, 39,j
2025-03-17 10:55:37.255,742, 519, 418, -1, -2, 2, -3, 4, 3, 954, 807, 31,j
2025-03-17 10:55:37.304,682, 542, 469, -5, -10, 5, -3, 5, 3, 955, 846, 43,j
2025-03-17 10:55:37.356,811, 548, 343, -3, 2, 4, -3, 6, 2, 971, 902, 41,j
2025-03-17 10:55:37.407,320, 988, 103, -13, 40, 46, -2, 6, 3, 984, 928, 82,j
2025-03-17 10:55:37.464,728, 411, 157, -88, 37, 21, -3, 8, 2, 977, 910, 40,j
2025-03-17 10:55:37.517,846, 828, 127, -18, -28, -106, -2, 6, 3, 963, 934, 35,j
2025-03-17 10:55:37.567,635, 922, 877, 47, -44, -17, -3, 5, 4, 982, 964, 39,j
2025-03-17 10:55:37.627,859, 610, 548, 29, 28, 27, -3, 5, 6, 977, 941, 49,j
2025-03-17 10:55:37.682,732, 550, 329, -13, 62, -36, -4, 6, 1, 968, 893, 44,j
2025-03-17 10:55:37.737,447, 647, 797, -7, 9, -9, -3, 4, -1, 965, 883, 50,j
2025-03-17 10:55:38.007,721, 536, 474, 5, -7, 7, -4, 6, 2, 948, 785, 39,k
2025-03-17 10:55:38.063,722, 534, 459, 5, -8, 7, -1, 6, 5, 950, 787, 48,k
2025-03-17 10:55:38.115,768, 541, 411, 3, -4, 5, -6, 8, 2, 950, 784, 37,k
2025-03-17 10:55:38.164,750, 509, 428, 0, 1, 0, -2, 6, 3, 949, 783, 44,k
2025-03-17 10:55:38.214,733, 538, 439, 3, -3, 0, -4, 4, 3, 951, 783, 50,k
2025-03-17 10:55:38.266,767, 524, 397, -5, 0, -5, -4, 6, 2, 948, 779, 50,k
2025-03-17 10:55:38.317,718, 539, 452, -4, -3, -4, -4, 4, 4, 947, 783, 35,k
2025-03-17 10:55:38.371,689, 557, 477, -8, -16, 0, -3, 6, 3, 949, 821, 46,k
2025-03-17 10:55:38.431,852, 487, 360, -25, -5, -14, -3, 7, 3, 961, 912, 38,k
2025-03-17 10:55:38.482,674, 460, 516, 73, -14, -17, -5, 6, 2, 972, 887, 46,k
2025-03-17 10:55:38.537,618, 399, 221, -28, 25, 29, -4, 6, 1, 971, 829, 38,k
2025-03-17 10:55:38.592,728, 430, 881, -22, -23, 20, -3, 6, 4, 975, 950, 65,k
2025-03-17 10:55:38.648,796, 429, 313, 44, -13, -6, -1, 5, 6, 970, 942, 36,k
2025-03-17 10:55:38.698,620, 468, 193, -15, 41, -37, -2, 6, 4, 953, 811, 42,k
2025-03-17 10:55:38.748,944, 617, 333, 35, -16, -2, -1, 5, 3, 974, 913, 55,k
2025-03-17 10:55:38.807,964, 845, 426, 36, 9, 39, -4, 7, 2, 981, 945, 205,k
2025-03-17 10:55:38.864,751, 195, 294, -10, 38, -59, -3, 8, 2, 964, 862, 42,k
2025-03-17 10:55:39.141,752, 538, 426, 0, -3, 3, -2, 6, 2, 937, 788, 44,l
2025-03-17 10:55:39.197,755, 510, 403, -3, -3, 1, -1, 7, 1, 935, 789, 36,l
2025-03-17 10:55:39.247,748, 540, 436, -6, -1, -5, -3, 4, 1, 936, 799, 40,l
2025-03-17 10:55:39.298,719, 538, 447, 3, -7, 0, -2, 4, 3, 937, 805, 46,l
2025-03-17 10:55:39.348,762, 532, 381, -1, -4, -6, -3, 4, 4, 932, 812, 50,l
2025-03-17 10:55:39.406,731, 550, 447, -4, -8, -4, -5, 5, 2, 930, 836, 35,l
2025-03-17 10:55:39.457,745, 537, 391, -6, -5, -4, -4, 8, 1, 928, 848, 34,l
2025-03-17 10:55:39.512,738, 529, 423, -8, -14, -7, -3, 4, 4, 930, 874, 53,l
2025-03-17 10:55:39.567,1147, 522, 272, -51, -8, -7, -4, 5, 5, 952, 929, 48,l
2025-03-17 10:55:39.617,600, 818, 239, 87, 17, 15, -4, 4, 4, 980, 922, 39,l
2025-03-17 10:55:39.674,1021, 240, 314, -10, 45, 35, -2, 4, 4, 981, 902, 58,l
2025-03-17 10:55:39.730,936, 203, 508, -3, 9, -31, -3, 7, 2, 960, 831, 35,l
2025-03-17 10:55:39.781,633, 563, 667, -15, 8, -38, -3, 4, 1, 918, 847, 55,l
2025-03-17 10:55:40.077,726, 523, 437, 2, -4, 1, -3, 6, 2, 928, 825, 49,m
2025-03-17 10:55:40.131,733, 527, 423, 5, -3, 2, 0, 6, 4, 928, 823, 43,m
2025-03-17 10:55:40.181,752, 539, 412, 6, -4, 2, -3, 7, 1, 925, 811, 32,m
2025-03-17 10:55:40.231,732, 545, 412, 4, -1, 1, -2, 3, 4, 929, 801, 33,m
2025-03-17 10:55:40.283,737, 535, 394, -1, -3, -1, -4, 4, 2, 929, 821, 39,m
2025-03-17 10:55:40.337,744, 541, 405, -24, -5, -7, -5, 5, 3, 946, 886, 37,m
2025-03-17 10:55:40.387,660, 669, 355, 23, -1, 6, -2, 4, 4, 974, 912, 52,m
2025-03-17 10:55:40.446,822, 480, 246, -12, 18, 22, -4, 6, 2, 979, 913, 39,m
2025-03-17 10:55:40.500,770, 125, 682, 4, -31, -21, -2, 6, 4, 971, 932, 41,m
2025-03-17 10:55:40.549,728, 430, 496, 25, -22, -14, -4, 7, 2, 980, 948, 39,m
2025-03-17 10:55:40.607,764, 422, 624, -4, 25, 22, -4, 6, 2, 983, 942, 61,m
2025-03-17 10:55:40.657,750, 117, 768, 2, -25, -24, -2, 5, 4, 977, 944, 33,m
2025-03-17 10:55:40.717,672, 685, 549, 31, -18, -1, -3, 5, 5, 981, 951, 60,m
2025-03-17 10:55:40.765,788, 467, 365, -1, 30, 27, -4, 7, 3, 980, 931, 28,m
2025-03-17 10:55:40.817,699, 491, 395, -23, 42, -44, -3, 5, 3, 967, 886, 57,m
2025-03-17 10:55:41.097,713, 544, 480, -5, 4, -3, -4, 6, 1, 945, 817, 50,n
2025-03-17 10:55:41.148,705, 535, 490, -4, 2, -2, -1, 8, 7, 946, 818, 51,n
2025-03-17 10:55:41.199,731, 518, 433, -1, -6, 0, -5, 8, 0, 944, 813, 35,n
2025-03-17 10:55:41.250,738, 531, 416, -2, -1, -2, -3, 4, 4, 946, 815, 51,n
2025-03-17 10:55:41.307,743, 521, 447, 2, -3, -2, -4, 5, 1, 945, 808, 35,n
2025-03-17 10:55:41.351,755, 541, 406, -3, -2, -2, -2, 6, 0, 943, 810, 43,n
2025-03-17 10:55:41.407,755, 523, 414, -3, 1, -2, -4, 6, 2, 943, 820, 39,n
2025-03-17 10:55:41.461,711, 536, 478, -4, -7, -3, -4, 4, 3, 943, 843, 36,n
2025-03-17 10:55:41.516,801, 497, 360, -14, -8, -11, -3, 5, 5, 960, 903, 37,n
2025-03-17 10:55:41.567,711, 553, 418, 9, 19, 25, -6, 6, 3, 976, 915, 32,n
2025-03-17 10:55:41.617,750, 387, 487, -9, 7, 13, -4, 8, 1, 980, 919, 44,n
2025-03-17 10:55:41.671,790, 224, 623, 11, -46, -28, -3, 7, 3, 975, 953, 37,n
2025-03-17 10:55:41.732,664, 605, 603, 33, -27, -2, -2, 10, 0, 982, 956, 57,n
2025-03-17 10:55:41.781,901, 674, 154, -28, 40, 36, -3, 6, 5, 983, 948, 58,n
2025-03-17 10:55:41.837,846, 309, 342, -8, 29, -41, -3, 5, 3, 973, 913, 48,n
2025-03-17 10:55:41.895,659, 547, 598, -22, 16, -41, -3, 6, 0, 954, 884, 47,n
2025-03-17 10:55:42.157,716, 540, 489, -1, -3, 2, -3, 5, 1, 946, 832, 50,o
2025-03-17 10:55:42.216,716, 538, 479, -1, -5, 2, -2, 5, 3, 946, 831, 40,o
2025-03-17 10:55:42.270,751, 529, 447, -1, -6, 2, -2, 5, 3, 947, 823, 37,o
2025-03-17 10:55:42.318,751, 512, 423, -5, 1, -2, -3, 6, 0, 950, 836, 48,o
2025-03-17 10:55:42.368,716, 512, 464, -3, -2, 1, -4, 8, 1, 950, 843, 39,o
2025-03-17 10:55:42.417,731, 524, 436, 0, -3, 1, -5, 11, -2, 950, 849, 33,o
2025-03-17 10:55:42.468,739, 503, 441, 2, -5, 0, -3, 4, 3, 949, 856, 51,o
2025-03-17 10:55:42.527,741, 521, 444, 0, -1, 0, -3, 6, 2, 949, 857, 50,o
2025-03-17 10:55:42.580,740, 517, 454, -1, -5, 0, -6, 5, 4, 950, 860, 40,o
2025-03-17 10:55:42.629,746, 514, 443, 0, -5, 2, -3, 5, 4, 952, 871, 41,o
2025-03-17 10:55:42.678,781, 519, 418, 7, -5, 6, -4, 7, 3, 955, 882, 38,o
2025-03-17 10:55:42.731,706, 493, 477, 0, -12, 5, -3, 6, 4, 961, 906, 37,o
2025-03-17 10:55:42.787,709, 508, 504, -34, -9, -10, -2, 8, 4, 966, 944, 31,o
2025-03-17 10:55:42.841,766, 495, 207, 87, -10, -25, -4, 5, 5, 973, 933, 49,o
2025-03-17 10:55:42.896,726, 749, 164, -48, 43, 60, -3, 5, 3, 982, 947, 74,o
2025-03-17 10:55:42.948,911, 234, 589, -16, -39, -21, -3, 7, 2, 976, 956, 40,o
2025-03-17 10:55:43.007,1053, 641, -73, 13, 31, -39, -4, 7, 3, 924, 909, 55,o
2025-03-17 10:55:43.063,474, 617, 861, -1, 35, -13, -1, 5, 1, 922, 832, 23,o
2025-03-17 10:55:43.318,708, 535, 486, -1, -3, -1, -6, 9, -3, 909, 785, 50,p
2025-03-17 10:55:43.366,702, 534, 486, 1, -4, 0, 0, 6, 2, 909, 781, 35,p
2025-03-17 10:55:43.417,738, 536, 443, 4, -6, 1, -4, 3, 4, 906, 784, 29,p
2025-03-17 10:55:43.467,724, 519, 450, 0, -4, 2, -4, 5, 1, 908, 794, 28,p
2025-03-17 10:55:43.517,741, 544, 443, 2, -7, 4, -3, 6, 1, 910, 806, 40,p
2025-03-17 10:55:43.567,735, 509, 454, -2, 0, 1, -3, 5, 3, 912, 811, 38,p
2025-03-17 10:55:43.622,749, 536, 447, 2, -7, 2, -3, 4, 3, 915, 811, 38,p
2025-03-17 10:55:43.671,742, 527, 430, -2, -4, 0, 0, 6, 2, 916, 821, 24,p
2025-03-17 10:55:43.726,716, 538, 455, 0, -12, 0, -3, 5, 3, 922, 840, 37,p
2025-03-17 10:55:43.780,989, 418, 287, -27, -8, -12, -2, 4, 5, 937, 897, 45,p
2025-03-17 10:55:43.830,687, 632, 306, 68, 3, 2, -4, 7, 3, 969, 913, 38,p
2025-03-17 10:55:43.882,278, 389, 449, -5, 27, 40, -3, 6, 3, 976, 892, 53,p
2025-03-17 10:55:43.940,651, 145, 963, -17, -5, -3, -2, 7, 2, 966, 915, 47,p
2025-03-17 10:55:43.990,928, 725, 601, -26, -47, -21, 0, 5, 3, 970, 962, 39,p
2025-03-17 10:55:44.045,631, 758, 276, 5, -3, 22, -3, 5, 6, 982, 958, 166,p
2025-03-17 10:55:44.097,862, 285, 370, -18, 37, 10, -4, 5, 4, 975, 931, 43,p
2025-03-17 10:55:44.157,722, 562, 378, -37, 66, -37, -3, 6, 0, 961, 896, 44,p
2025-03-17 10:55:44.456,724, 525, 463, -1, -3, 0, -3, 5, 1, 937, 786, 52,q
2025-03-17 10:55:44.497,730, 535, 447, 0, -3, 0, -4, 8, 2, 937, 785, 50,q
2025-03-17 10:55:44.557,732, 532, 432, 0, -4, -1, -3, 5, 1, 934, 782, 25,q
2025-03-17 10:55:44.607,736, 528, 458, -2, -1, 0, -3, 8, 2, 934, 786, 42,q
2025-03-17 10:55:44.661,731, 538, 452, -1, -3, 0, -3, 4, 4, 935, 788, 50,q
2025-03-17 10:55:44.707,739, 522, 445, 3, -8, 3, -6, 6, 5, 936, 804, 31,q
2025-03-17 10:55:44.763,745, 540, 433, 1, -5, 9, -4, 9, -2, 943, 834, 42,q
2025-03-17 10:55:44.816,695, 566, 449, -2, -22, 11, -4, 5, 4, 952, 877, 41,q
2025-03-17 10:55:44.868,695, 507, 617, -38, -5, -12, 0, 5, 4, 962, 930, 27,q
2025-03-17 10:55:44.928,1133, 642, 104, 71, 3, -18, -3, 5, 4, 972, 912, 41,q
2025-03-17 10:55:44.980,831, 645, 447, -34, 29, 41, -1, 6, 2, 981, 945, 31,q
2025-03-17 10:55:45.037,680, 263, 799, -10, -32, -22, -4, 8, 2, 978, 961, 45,q
2025-03-17 10:55:45.090,998, 862, 345, 55, 17, 10, -3, 6, 3, 981, 945, 50,q
2025-03-17 10:55:45.140,630, 576, 0, -35, 31, 35, -1, 6, 2, 983, 951, 104,q
2025-03-17 10:55:45.197,740, 234, 505, 33, -11, -3, -5, 11, 2, 977, 954, 35,q
2025-03-17 10:55:45.248,641, 445, 511, -42, 97, -51, -3, 6, 0, 959, 919, 53,q
2025-03-17 10:55:45.537,746, 505, 468, 0, -5, -3, -1, 9, 0, 947, 847, 34,r
2025-03-17 10:55:45.589,737, 519, 463, -1, -5, -3, -3, 10, 0, 946, 848, 35,r
2025-03-17 10:55:45.645,736, 520, 458, 4, -11, -2, -5, 7, -1, 944, 839, 32,r
2025-03-17 10:55:45.698,773, 534, 397, -1, -7, 0, -4, 5, 3, 943, 841, 37,r
2025-03-17 10:55:45.748,758, 520, 436, -5, 2, -1, -1, 6, 1, 944, 849, 35,r
2025-03-17 10:55:45.797,750, 517, 462, -1, -3, -1, 0, 6, 2, 947, 855, 47,r
2025-03-17 10:55:45.847,757, 508, 413, -6, 2, -6, -3, 8, 2, 947, 853, 44,r
2025-03-17 10:55:45.899,627, 510, 550, -4, -13, -5, -2, 4, 3, 944, 851, 38,r
2025-03-17 10:55:45.963,755, 550, 331, -30, -6, -10, -1, 5, 4, 953, 907, 41,r
2025-03-17 10:55:46.017,786, 981, 209, 35, 17, 10, -4, 6, 3, 972, 905, 38,r
2025-03-17 10:55:46.067,716, 428, 260, -10, 7, 11, -4, 7, 3, 975, 909, 45,r
2025-03-17 10:55:46.117,666, 221, 341, 10, -39, -32, -3, 7, 2, 974, 962, 41,r
2025-03-17 10:55:46.169,911, 662, 160, 9, 5, 2, -5, 8, 1, 973, 951, 44,r
2025-03-17 10:55:46.230,564, 582, 636, -32, 66, -17, -2, 6, 1, 968, 889, 50,r
2025-03-17 10:55:46.527,762, 515, 410, -2, -6, 1, -3, 5, 3, 960, 877, 52,s
2025-03-17 10:55:46.578,762, 517, 408, -3, -4, 0, -3, 5, 2, 962, 878, 43,s
2025-03-17 10:55:46.631,730, 497, 460, -3, -2, -1, -6, 7, 3, 964, 887, 29,s
2025-03-17 10:55:46.681,756, 507, 426, 0, -4, 2, -3, 6, 3, 965, 896, 45,s
2025-03-17 10:55:46.732,760, 512, 422, -2, 1, 2, -4, 7, 1, 965, 899, 44,s
2025-03-17 10:55:46.787,748, 513, 444, -1, -3, 2, -3, 6, 3, 967, 904, 44,s
2025-03-17 10:55:46.837,769, 503, 439, -1, 1, 0, 0, 6, 3, 967, 903, 26,s
2025-03-17 10:55:46.887,755, 513, 439, -1, -4, 2, -3, 7, 4, 968, 908, 51,s
2025-03-17 10:55:46.937,733, 508, 465, 0, -8, 4, -3, 6, 4, 968, 914, 37,s
2025-03-17 10:55:46.991,740, 594, 413, -27, -4, -2, -3, 6, 3, 972, 932, 36,s
2025-03-17 10:55:47.045,735, 303, 513, 8, -4, -11, -3, 7, 2, 975, 940, 36,s
2025-03-17 10:55:47.097,996, 851, 127, 1, 24, 8, -4, 8, 4, 979, 937, 67,s
2025-03-17 10:55:47.147,679, 570, 531, 4, 5, 10, -3, 5, 4, 980, 942, 64,s
2025-03-17 10:55:47.197,968, 241, 374, -2, 13, 1, -3, 6, 5, 968, 884, 35,s
2025-03-17 10:55:47.247,896, 486, 223, -19, 51, -39, -4, 8, 2, 947, 802, 44,s
2025-03-17 10:55:47.577,770, 514, 389, 3, -6, 2, -4, 7, 3, 943, 864, 39,t
2025-03-17 10:55:47.627,769, 517, 392, 2, -4, 2, -5, 8, 0, 943, 862, 38,t
2025-03-17 10:55:47.668,727, 503, 482, 2, -3, 0, -3, 7, 1, 946, 873, 26,t
2025-03-17 10:55:47.729,757, 518, 419, 1, -3, -1, -2, 5, 4, 947, 876, 28,t
2025-03-17 10:55:47.780,754, 509, 426, -4, -2, -6, -2, 6, 4, 948, 893, 45,t
2025-03-17 10:55:47.829,737, 529, 447, -12, -6, -7, -3, 6, 1, 951, 904, 33,t
2025-03-17 10:55:47.888,718, 548, 474, -12, -9, -7, -2, 5, 2, 955, 922, 38,t
2025-03-17 10:55:47.938,741, 517, 431, -2, -8, -5, -3, 8, 2, 956, 927, 29,t
2025-03-17 10:55:47.997,691, 474, 510, -9, -22, -8, -5, 6, 3, 960, 941, 50,t
2025-03-17 10:55:48.046,746, 282, 582, 30, -12, -19, -5, 5, 5, 970, 945, 52,t
2025-03-17 10:55:48.097,686, 1037, -61, 18, 60, 61, -3, 3, 3, 982, 939, 58,t
2025-03-17 10:55:48.156,736, 504, 608, -10, 28, 42, -3, 6, 0, 977, 939, 26,t
2025-03-17 10:55:48.216,363, 725, 653, -2, -27, -51, -4, 6, 2, 966, 929, 41,t
2025-03-17 10:55:48.267,822, 317, -45, -1, -3, -8, -2, 7, 2, 981, 964, 37,t
2025-03-17 10:55:48.317,731, 621, 501, 14, 16, 40, -4, 6, 5, 983, 963, 56,t
2025-03-17 10:55:48.369,756, 468, 124, -7, 57, -42, -1, 5, 3, 970, 912, 43,t
2025-03-17 10:55:48.429,492, 658, 841, -17, 17, -21, -2, 3, 1, 949, 767, 56,t
2025-03-17 10:55:48.687,704, 540, 479, 1, -9, 0, -3, 5, 2, 949, 752, 42,u
2025-03-17 10:55:48.736,733, 544, 451, 1, -11, 1, 0, 6, 0, 951, 761, 50,u
2025-03-17 10:55:48.780,756, 532, 420, 3, -4, 0, -1, 4, 2, 952, 793, 41,u
2025-03-17 10:55:48.837,730, 546, 440, -1, -5, -1, -2, 5, 4, 951, 801, 41,u
2025-03-17 10:55:48.895,725, 542, 442, -11, -6, -2, -2, 4, 5, 951, 823, 39,u
2025-03-17 10:55:48.947,813, 287, 345, -51, -12, -11, -3, 4, 5, 964, 886, 49,u
2025-03-17 10:55:48.997,767, 547, 463, 18, 15, 14, -1, 0, 7, 976, 895, 38,u
2025-03-17 10:55:49.047,712, 586, 366, -10, 6, 25, -4, 6, 2, 978, 934, 42,u
2025-03-17 10:55:49.111,584, 342, 667, -5, -29, -31, -4, 7, 3, 972, 945, 36,u
2025-03-17 10:55:49.161,773, 672, 306, 33, 0, -6, -3, 4, 4, 978, 939, 54,u
2025-03-17 10:55:49.211,796, 743, 121, -17, 25, 23, -3, 6, 3, 982, 936, 39,u
2025-03-17 10:55:49.269,837, 260, 421, -2, 7, -33, -3, 6, 2, 972, 894, 41,u
2025-03-17 10:55:49.576,711, 525, 462, -1, -4, 2, -2, 6, 1, 933, 791, 43,v
2025-03-17 10:55:49.618,713, 506, 467, 2, -5, 2, -3, 9, 2, 935, 791, 39,v
2025-03-17 10:55:49.679,766, 515, 433, 6, -10, 2, -4, 4, 3, 931, 788, 47,v
2025-03-17 10:55:49.730,759, 517, 392, -3, 5, -4, -3, 3, 1, 931, 768, 45,v
2025-03-17 10:55:49.780,751, 542, 449, 2, -2, -3, -3, 7, 1, 929, 734, 31,v
2025-03-17 10:55:49.837,725, 534, 458, -10, -1, -8, -4, 6, 2, 930, 743, 43,v
2025-03-17 10:55:49.890,780, 549, 403, -14, -12, -5, -3, 6, 4, 944, 863, 49,v
2025-03-17 10:55:49.944,786, 423, 564, 19, -9, -11, -2, 4, 6, 968, 927, 41,v
2025-03-17 10:55:49.997,871, 642, 415, 6, 19, 38, -4, 6, 4, 979, 924, 39,v
2025-03-17 10:55:50.047,674, 393, 580, -43, -18, 8, -4, 9, 2, 980, 949, 31,v
2025-03-17 10:55:50.097,1004, 590, 227, 11, -6, -16, -3, 6, 5, 960, 947, 39,v
2025-03-17 10:55:50.162,566, 562, 759, -32, 71, -23, -3, 7, 2, 953, 922, 55,v
2025-03-17 10:55:50.214,583, 457, 626, 4, -12, 13, -1, 5, 2, 946, 843, 32,v
2025-03-17 10:55:50.457,750, 524, 448, 6, -2, -4, -4, 6, 1, 920, 753, 23,w
2025-03-17 10:55:50.513,738, 529, 434, 6, -2, -4, -4, 6, 1, 918, 742, 31,w
2025-03-17 10:55:50.562,753, 528, 441, 7, 1, -3, -2, 6, 3, 911, 692, 50,w
2025-03-17 10:55:50.612,727, 541, 440, 0, 0, -1, -3, 5, 2, 914, 673, 32,w
2025-03-17 10:55:50.663,720, 527, 475, -1, -1, -1, -1, 5, 3, 915, 694, 45,w
2025-03-17 10:55:50.722,686, 545, 452, -4, -11, -2, -3, 6, 2, 917, 725, 44,w
2025-03-17 10:55:50.776,699, 539, 465, -11, -17, -5, -6, 5, 5, 924, 790, 28,w
2025-03-17 10:55:50.829,745, 530, 363, -23, 2, -6, -3, 5, 4, 941, 888, 54,w
2025-03-17 10:55:50.879,874, 520, 576, 80, -12, 2, -3, 6, 3, 963, 904, 27,w
2025-03-17 10:55:50.930,610, 235, 498, -8, 18, 28, -4, 6, 3, 969, 911, 43,w
2025-03-17 10:55:50.989,476, 56, 482, -28, -29, -21, -2, 7, 3, 969, 949, 38,w
2025-03-17 10:55:51.046,723, 356, 599, 41, -17, -17, -3, 6, 3, 971, 948, 43,w
2025-03-17 10:55:51.097,750, 646, 209, -5, 20, 31, -2, 8, 3, 973, 925, 40,w
2025-03-17 10:55:51.153,728, 281, 541, -14, -21, -4, -4, 6, 3, 970, 945, 49,w
2025-03-17 10:55:51.211,750, 402, 350, -32, 74, -39, -2, 6, 4, 948, 920, 46,w
2025-03-17 10:55:51.487,767, 492, 440, 2, -6, 3, -4, 8, 2, 946, 874, 51,x
2025-03-17 10:55:51.543,766, 495, 436, 2, -6, 2, -1, 5, 4, 944, 874, 44,x
2025-03-17 10:55:51.589,758, 506, 445, 4, -2, 0, -2, 6, 5, 946, 873, 40,x
2025-03-17 10:55:51.645,755, 515, 452, 3, -2, 0, -3, 5, 4, 945, 864, 34,x
2025-03-17 10:55:51.694,762, 500, 441, 0, -2, 1, -4, 8, 5, 944, 869, 44,x
2025-03-17 10:55:51.747,770, 510, 421, 1, -2, -1, -2, 6, 3, 945, 875, 52,x
2025-03-17 10:55:51.797,752, 507, 444, -3, -1, -2, -4, 7, 2, 946, 876, 50,x
2025-03-17 10:55:51.847,752, 498, 417, 0, -3, -3, -3, 6, 2, 948, 880, 46,x
2025-03-17 10:55:51.902,751, 497, 455, -1, 0, -2, -4, 5, 3, 949, 884, 53,x
2025-03-17 10:55:51.947,736, 514, 437, 7, -4, 6, -3, 6, 4, 952, 899, 40,x
2025-03-17 10:55:52.002,736, 571, 455, -27, 2, 0, -3, 2, 9, 959, 932, 25,x
2025-03-17 10:55:52.062,1078, 292, 551, 61, 0, -24, -4, 7, 4, 972, 937, 44,x
2025-03-17 10:55:52.112,742, 576, -116, -30, 35, 14, -3, 6, 4, 966, 885, 43,x
2025-03-17 10:55:52.167,610, 29, 778, 16, -26, -60, -3, 6, 4, 940, 889, 54,x
2025-03-17 10:55:52.217,856, 676, 463, 36, -30, -7, -4, 6, 2, 976, 951, 39,x
2025-03-17 10:55:52.278,699, 536, 233, -25, 33, 54, -3, 6, 2, 982, 953, 51,x
2025-03-17 10:55:52.329,756, 370, 223, -6, 40, -50, -2, 9, 1, 972, 941, 43,x
2025-03-17 10:55:52.643,749, 529, 425, 0, -1, -2, -2, 6, 3, 938, 883, 30,y
2025-03-17 10:55:52.692,751, 539, 421, -3, 0, -2, -3, 6, 1, 938, 884, 36,y
2025-03-17 10:55:52.745,728, 522, 467, -1, -4, 1, -2, 7, 4, 940, 893, 47,y
2025-03-17 10:55:52.799,742, 528, 418, 0, -1, 1, -3, 8, 4, 943, 892, 25,y
2025-03-17 10:55:52.847,741, 509, 452, -1, 0, 0, -2, 5, 5, 947, 897, 36,y
2025-03-17 10:55:52.897,720, 518, 454, -1, -6, -1, -3, 7, 2, 946, 901, 39,y
2025-03-17 10:55:52.951,776, 523, 393, 0, -3, -8, -2, 6, 2, 948, 911, 51,y
2025-03-17 10:55:53.007,700, 535, 469, -4, -1, -6, -2, 4, 4, 945, 904, 30,y
2025-03-17 10:55:53.061,774, 479, 458, -10, -3, -11, -4, 6, 5, 958, 923, 49,y
2025-03-17 10:55:53.112,719, 946, 144, -5, 34, 43, -4, 5, 2, 976, 938, 32,y
2025-03-17 10:55:53.167,680, 534, 465, 4, 17, 25, -2, 7, 3, 978, 937, 53,y
2025-03-17 10:55:53.221,582, 471, 512, 33, -18, -35, -1, 6, 2, 959, 922, 35,y
2025-03-17 10:55:53.268,609, 904, 141, 1, 16, 18, -4, 5, 3, 974, 932, 42,y
2025-03-17 10:55:53.328,1611, 332, 319, 7, 36, 33, -4, 8, 3, 973, 921, 50,y
2025-03-17 10:55:53.379,865, 84, 625, -3, 13, -21, -4, 8, 2, 938, 838, 37,y
2025-03-17 10:55:53.429,635, 608, 428, -65, 28, -59, -1, 5, 0, 859, 841, 43,y
2025-03-17 10:55:53.487,452, 620, 598, 16, -40, 4, 2, 4, 1, 886, 859, 41,y
2025-03-17 10:55:53.738,728, 506, 522, 3, -12, 6, -3, 6, 1, 915, 838, 49,z
2025-03-17 10:55:53.786,713, 511, 502, 5, -15, 6, -1, 6, 3, 915, 839, 40,z
2025-03-17 10:55:53.839,746, 508, 426, 4, -10, 2, -3, 6, 2, 919, 845, 40,z
2025-03-17 10:55:53.893,762, 527, 416, 0, -3, -2, -2, 5, 3, 924, 847, 46,z
2025-03-17 10:55:53.947,694, 551, 471, -11, 1, -4, -3, 8, 4, 926, 829, 38,z
2025-03-17 10:55:53.999,760, 511, 436, -15, -13, -2, -2, 5, 2, 936, 819, 45,z
2025-03-17 10:55:54.049,778, 544, 461, -21, -2, -7, -3, 7, 2, 951, 888, 38,z
2025-03-17 10:55:54.107,667, 516, -77, 8, -15, 32, -3, 6, 3, 973, 948, 52,z
2025-03-17 10:55:54.159,610, 612, 503, 27, 5, 16, -2, 4, 5, 976, 937, 45,z
2025-03-17 10:55:54.213,734, 330, 474, -57, 30, -10, -3, 5, 4, 971, 889, 53,z
2025-03-17 10:55:54.267,930, 798, 483, 20, -7, 12, -3, 6, 3, 980, 952, 62,z
2025-03-17 10:55:54.317,706, 532, 444, 3, 2, 20, -3, 7, 4, 981, 957, 175,z
2025-03-17 10:55:54.367,741, 320, 310, -2, 19, -56, -4, 6, 3, 965, 910, 40,z
2025-03-17 10:55:54.426,777, 753, 971, 48, -53, 14, -4, 4, 2, 958, 864, 24,z
2025-03-17 10:55:54.479,1072, 781, 530, -8, -12, 43, -3, 7, 3, 982, 964, 78,z
2025-03-17 10:55:54.537,730, 334, 474, 36, -1, 6, -5, 6, 2, 977, 940, 42,z
2025-03-17 10:55:54.588,675, 567, 144, -23, 59, -66, -4, 6, 1, 944, 846, 52,z
2025-03-17 10:55:54.872,692, 548, 487, -5, 1, -3, -4, 5, 3, 905, 516, 31,0
2025-03-17 10:55:54.929,699, 551, 487, -3, -1, -2, -4, 8, 2, 902, 514, 28,0
2025-03-17 10:55:54.977,708, 562, 437, 0, -4, 0, -3, 4, 3, 890, 502, 32,0
2025-03-17 10:55:55.027,720, 559, 426, -2, -3, -2, -4, 4, 1, 885, 563, 33,0
2025-03-17 10:55:55.084,720, 558, 454, -3, 0, 0, -2, 5, 1, 889, 612, 39,0
2025-03-17 10:55:55.133,734, 543, 443, -5, 0, 0, -3, 4, 3, 889, 603, 31,0
2025-03-17 10:55:55.187,697, 544, 479, -4, -1, 1, -4, 5, 1, 896, 604, 26,0
2025-03-17 10:55:55.237,729, 537, 440, -4, -7, 4, -4, 3, 0, 912, 688, 44,0
2025-03-17 10:55:55.287,733, 532, 450, -1, -4, 7, -1, 4, 3, 926, 733, 52,0
2025-03-17 10:55:55.343,739, 549, 429, 0, -5, 7, -2, 4, 2, 937, 764, 31,0
2025-03-17 10:55:55.392,737, 517, 433, 2, -4, 5, -4, 7, 2, 941, 790, 31,0
2025-03-17 10:55:55.443,714, 516, 481, 2, -8, 5, -4, 6, 1, 947, 813, 44,0
2025-03-17 10:55:55.493,775, 526, 408, 3, -3, 2, -3, 4, 3, 948, 817, 51,0
2025-03-17 10:55:55.547,730, 545, 416, -1, -1, 3, -4, 7, 3, 951, 824, 49,0
2025-03-17 10:55:55.597,740, 521, 418, -2, 0, 3, -4, 8, 2, 951, 840, 26,0
2025-03-17 10:55:55.647,770, 507, 425, -1, -2, 2, -3, 4, 4, 954, 861, 36,0
2025-03-17 10:55:55.702,766, 532, 409, -2, 0, -3, -4, 7, 2, 955, 864, 43,0
2025-03-17 10:55:55.757,756, 519, 437, -1, -1, -3, -3, 4, 4, 953, 859, 51,0
2025-03-17 10:55:55.803,746, 533, 419, -3, 0, -5, -3, 7, 2, 952, 847, 42,0
2025-03-17 10:55:55.860,741, 548, 394, -3, 0, -2, -4, 7, 3, 953, 850, 50,0
2025-03-17 10:55:55.912,733, 520, 446, -1, -1, 1, -4, 5, 2, 952, 851, 38,0
2025-03-17 10:55:55.961,756, 518, 429, -3, 0, -1, -2, 7, 2, 952, 855, 33,0
2025-03-17 10:55:56.013,756, 519, 436, -3, 0, -1, -4, 4, 4, 953, 859, 51,0
2025-03-17 10:55:56.067,757, 532, 412, -3, 0, -2, -4, 5, 3, 953, 862, 42,0
2025-03-17 10:55:56.117,738, 518, 438, -2, -2, 0, -5, 4, 3, 953, 862, 25,0
2025-03-17 10:55:56.167,763, 536, 403, -5, 0, 0, -1, 6, 5, 955, 868, 51,0
2025-03-17 10:55:56.217,750, 520, 422, -2, -1, -1, -3, 8, 3, 953, 870, 44,0
2025-03-17 10:55:56.268,740, 554, 416, -5, 0, 0, -3, 6, 4, 954, 870, 26,0
2025-03-17 10:55:56.325,761, 517, 399, -5, -2, -1, -3, 7, 3, 956, 878, 35,0
2025-03-17 10:55:56.378,750, 536, 431, -8, -3, -4, -3, 4, 4, 957, 887, 55,0
2025-03-17 10:55:56.427,728, 540, 448, -17, -12, -3, -5, 5, 5, 958, 908, 31,0
2025-03-17 10:55:56.489,659, 372, 642, -41, -14, -23, -5, 6, 3, 966, 950, 52,0
2025-03-17 10:55:56.544,195, 619, 124, 139, 4, -36, -5, 5, 5, 975, 933, 48,0
2025-03-17 10:55:56.597,582, 908, 52, -28, 70, 74, -3, 3, 4, 983, 932, 41,0
2025-03-17 10:55:56.649,644, 249, 876, 7, 3, 15, -2, 7, 2, 973, 936, 41,0
2025-03-17 10:55:56.697,940, 641, 233, 3, -19, -46, -1, 4, 2, 949, 926, 42,0
2025-03-17 10:55:56.757,617, 545, 544, -26, 17, -10, -1, 5, 3, 955, 921, 24,0
2025-03-17 10:55:56.809,673, 578, 422, 5, -21, 17, -4, 6, 4, 959, 920, 50,0
2025-03-17 10:55:56.863,810, 485, 306, -8, -2, -2, -5, 8, 1, 959, 919, 26,0
2025-03-17 10:55:56.912,708, 525, 481, -7, -5, -3, -2, 5, 4, 960, 924, 52,0
2025-03-17 10:55:56.967,787, 508, 429, -1, -9, -3, -4, 7, 1, 960, 930, 34,0
2025-03-17 10:55:57.017,739, 513, 467, -2, 0, -7, -3, 5, 3, 956, 925, 41,0
2025-03-17 10:55:57.072,698, 528, 444, 3, -6, -8, -2, 3, 4, 954, 924, 43,0
2025-03-17 10:55:57.126,782, 523, 449, -7, -16, -2, -3, 5, 3, 958, 930, 41,0
2025-03-17 10:55:57.177,885, 619, 576, 29, -8, 5, -3, 3, 4, 971, 952, 49,0
2025-03-17 10:55:57.227,664, 523, 478, 27, 1, 16, -5, 6, 4, 978, 946, 38,0
2025-03-17 10:55:57.284,429, 466, 521, 6, 32, 28, -2, 8, 3, 978, 920, 37,0
2025-03-17 10:55:57.337,738, 584, 216, -57, 27, -2, -1, 3, 6, 963, 872, 55,0
2025-03-17 10:55:57.391,1102, 571, 296, -5, 20, -22, -3, 7, 1, 936, 772, 41,0
2025-03-17 10:55:57.447,634, 501, 611, -24, 46, -33, -3, 6, 0, 921, 789, 40,0
2025-03-17 10:55:57.497,502, 491, 666, 1, -9, 0, 0, 6, -1, 909, 702, 28,0
2025-03-17 10:55:57.549,718, 547, 469, 7, -11, -2, -3, 8, -2, 870, 471, 35,0
2025-03-17 10:55:57.597,717, 552, 476, -8, 4, -7, 0, 4, -1, 848, 389, 35,0
2025-03-17 10:55:57.657,670, 551, 521, -2, -5, -4, -3, 3, 2, 846, 402, 41,0
2025-03-17 10:55:57.914,689, 535, 502, -2, 2, -1, -3, 6, -1, 867, 487, 50,1
2025-03-17 10:55:57.967,688, 549, 512, -2, 1, -1, -3, 8, 1, 867, 490, 48,1
2025-03-17 10:55:58.017,703, 537, 496, -3, -3, -1, -1, 5, -1, 867, 502, 52,1
2025-03-17 10:55:58.075,689, 530, 501, -6, 1, -4, -2, 6, 0, 860, 475, 52,1
2025-03-17 10:55:58.125,686, 540, 520, 0, -4, 2, -3, 8, -2, 866, 513, 22,1
2025-03-17 10:55:58.177,696, 542, 500, 0, -6, 1, -2, 5, 0, 873, 575, 43,1
2025-03-17 10:55:58.227,686, 553, 489, -6, -6, 2, -2, 5, 0, 887, 648, 41,1
2025-03-17 10:55:58.278,696, 540, 500, 1, -11, 4, -3, 5, 2, 902, 698, 36,1
2025-03-17 10:55:58.329,721, 523, 469, 4, -10, 3, -1, 6, 1, 912, 734, 38,1
2025-03-17 10:55:58.387,736, 538, 433, -5, -6, 2, -4, 5, 2, 921, 772, 39,1
2025-03-17 10:55:58.434,652, 529, 535, 0, -9, 2, -3, 5, 1, 931, 811, 41,1
2025-03-17 10:55:58.487,612, 498, 595, 24, -54, 15, 1, 5, 2, 945, 850, 33,1
2025-03-17 10:55:58.541,1044, 448, 437, 21, 2, 7, -2, 5, 5, 968, 948, 40,1
2025-03-17 10:55:58.594,517, 405, 719, 18, -11, 10, -2, 5, 2, 977, 955, 49,1
2025-03-17 10:55:58.647,843, 663, 123, 34, 33, 32, -4, 6, 3, 983, 946, 96,1
2025-03-17 10:55:58.702,790, 790, 300, -34, 55, 31, -3, 6, 4, 973, 887, 41,1
2025-03-17 10:55:58.746,411, 586, 1044, 28, -15, -2, -3, 7, 0, 963, 821, 36,1
2025-03-17 10:55:58.810,971, 903, 468, -19, -32, 51, -4, 5, 2, 981, 962, 77,1
2025-03-17 10:55:58.860,841, 295, 566, 17, 3, 6, -3, 8, 2, 976, 912, 46,1
2025-03-17 10:55:58.917,599, 509, 394, -61, 94, -75, -3, 6, 0, 939, 659, 42,1
2025-03-17 10:55:59.172,721, 553, 450, -2, -10, 2, -6, 5, 2, 902, 669, 24,2
2025-03-17 10:55:59.226,716, 543, 475, -3, -10, 3, -6, 5, 2, 901, 671, 31,2
2025-03-17 10:55:59.279,719, 515, 451, 5, -13, 5, -1, 5, 2, 911, 708, 32,2
2025-03-17 10:55:59.328,750, 543, 426, -2, -8, 2, -4, 4, 2, 916, 749, 48,2
2025-03-17 10:55:59.378,719, 540, 439, -7, -1, 0, -2, 6, 3, 922, 767, 41,2
2025-03-17 10:55:59.428,707, 512, 471, -7, -4, -1, -2, 7, 1, 926, 767, 39,2
2025-03-17 10:55:59.492,644, 526, 491, -18, -12, -4, -3, 6, 2, 932, 777, 39,2
2025-03-17 10:55:59.545,796, 573, 489, 10, -17, -28, -2, 5, 4, 954, 897, 34,2
2025-03-17 10:55:59.597,827, 532, 304, 15, -20, 21, -2, 3, 4, 971, 946, 53,2
2025-03-17 10:55:59.647,356, 721, 442, -3, 33, 25, -3, 2, 5, 972, 888, 45,2
2025-03-17 10:55:59.699,829, 570, 323, 1, 2, 0, -2, 5, 3, 968, 900, 49,2
2025-03-17 10:55:59.758,450, 650, 104, -7, 12, 44, -2, 6, 3, 977, 954, 78,2
2025-03-17 10:55:59.812,882, 397, 248, 16, 15, -21, -3, 9, -1, 964, 908, 42,2
2025-03-17 10:56:00.113,708, 541, 478, -8, -7, 1, -2, 4, -2, 925, 830, 29,3
2025-03-17 10:56:00.167,709, 526, 459, -6, -9, 0, -2, 4, -2, 925, 830, 29,3
2025-03-17 10:56:00.217,717, 562, 441, -7, -10, -1, -1, 5, 4, 931, 846, 37,3
2025-03-17 10:56:00.278,687, 546, 451, -14, -22, -3, -4, 5, 5, 938, 861, 55,3
2025-03-17 10:56:00.329,869, 422, 274, -8, -3, -8, -5, 6, 4, 959, 928, 29,3
2025-03-17 10:56:00.379,621, 502, 440, -2, -3, 20, -4, 4, 5, 972, 950, 53,3
2025-03-17 10:56:00.434,659, 516, 345, 4, 2, 8, -5, 5, 3, 974, 940, 35,3
2025-03-17 10:56:00.487,846, 296, 294, 17, 12, -8, -1, 3, 5, 974, 937, 29,3
2025-03-17 10:56:00.537,705, 627, 488, 18, 9, 13, -3, 6, 4, 977, 947, 65,3
2025-03-17 10:56:00.587,777, 251, 620, 5, 19, 12, -4, 5, 3, 976, 939, 54,3
2025-03-17 10:56:00.637,876, 525, 343, 3, 31, 8, -1, 1, 7, 948, 819, 29,3
2025-03-17 10:56:00.695,658, 483, 478, -45, 65, -49, -3, 8, -1, 912, 800, 42,3
2025-03-17 10:56:00.747,358, 654, 800, -1, -23, 4, -1, 2, 0, 919, 831, 27,3
2025-03-17 10:56:00.997,715, 563, 562, 1, -15, 2, -2, 4, 4, 934, 871, 52,4
2025-03-17 10:56:01.047,731, 551, 397, 3, -14, 2, 0, 3, 5, 935, 872, 50,4
2025-03-17 10:56:01.098,716, 524, 472, -3, -12, 0, -4, 6, 3, 938, 888, 29,4
2025-03-17 10:56:01.149,766, 555, 380, -3, -6, -2, -3, 5, 3, 943, 903, 49,4
2025-03-17 10:56:01.208,695, 542, 485, -4, -12, 1, -4, 5, 4, 950, 919, 44,4
2025-03-17 10:56:01.260,738, 536, 388, -1, -9, -7, -3, 3, 6, 962, 938, 30,4
2025-03-17 10:56:01.315,714, 443, 529, 19, -7, -10, -5, 6, 4, 967, 938, 49,4
2025-03-17 10:56:01.367,842, 816, 209, 10, 23, 0, -2, 5, 4, 969, 874, 33,4
2025-03-17 10:56:01.417,945, 494, 246, 38, 13, 3, -3, 4, 5, 977, 937, 41,4
2025-03-17 10:56:01.467,853, 558, 446, 6, 5, 26, -4, 6, 5, 979, 950, 83,4
2025-03-17 10:56:01.524,803, 304, 320, 0, 15, -28, -4, 6, 4, 961, 900, 33,4
2025-03-17 10:56:01.577,500, 728, 900, 20, -27, 11, -3, 4, 3, 962, 889, 42,4
2025-03-17 10:56:01.627,844, 747, 33, 56, 49, 35, -3, 4, 4, 982, 896, 63,4
2025-03-17 10:56:01.677,747, 583, 504, -21, 45, 35, -4, 7, 3, 969, 780, 38,4
2025-03-17 10:56:01.977,713, 541, 458, -11, -3, -1, -2, 4, 3, 940, 862, 41,5
2025-03-17 10:56:02.027,704, 528, 461, -10, -3, 0, -1, 6, 2, 938, 862, 44,5
2025-03-17 10:56:02.087,721, 574, 417, -9, -7, -1, -4, 5, 4, 944, 851, 50,5
2025-03-17 10:56:02.142,686, 537, 488, -15, -17, -1, -2, 1, 5, 949, 827, 28,5
2025-03-17 10:56:02.195,858, 447, 305, 9, -4, -6, -4, 6, 2, 970, 926, 50,5
2025-03-17 10:56:02.247,628, 622, 142, -12, 5, 24, -4, 4, 8, 979, 951, 49,5
2025-03-17 10:56:02.297,597, 300, 597, 18, -10, -3, -4, 5, 6, 972, 941, 52,5
2025-03-17 10:56:02.349,1564, 392, 212, 64, 5, -24, -4, 5, 5, 972, 917, 40,5
2025-03-17 10:56:02.408,567, 662, 390, -28, 40, 39, -3, 5, 6, 983, 946, 81,5
2025-03-17 10:56:02.462,859, 479, 523, -24, 18, 20, -2, 6, 4, 979, 936, 45,5
2025-03-17 10:56:02.519,1009, 274, 420, 24, 18, -33, -4, 7, 0, 937, 820, 55,5
2025-03-17 10:56:02.576,574, 568, 758, -19, 27, -29, -3, 9, -3, 924, 825, 30,5
2025-03-17 10:56:02.847,763, 540, 410, 0, -11, -1, -2, 4, 2, 936, 811, 29,6
2025-03-17 10:56:02.898,781, 542, 398, 1, -10, -1, -3, 3, 5, 937, 813, 47,6
2025-03-17 10:56:02.947,698, 553, 462, -6, -7, -1, -1, 4, 4, 939, 822, 33,6
2025-03-17 10:56:02.997,727, 549, 400, 0, -21, 4, -4, 5, 2, 945, 849, 40,6
2025-03-17 10:56:03.049,716, 548, 418, -11, -21, 7, -4, 5, 3, 955, 892, 43,6
2025-03-17 10:56:03.111,742, 526, 491, -24, -2, -9, -4, 8, 1, 962, 929, 31,6
2025-03-17 10:56:03.165,493, 323, 590, 50, -1, -25, -3, 6, 4, 970, 926, 41,6
2025-03-17 10:56:03.217,819, 788, 230, -21, 53, 55, -1, 5, 3, 979, 931, 48,6
2025-03-17 10:56:03.267,734, 499, 851, -43, 18, 23, -2, 5, 2, 978, 950, 58,6
2025-03-17 10:56:03.327,582, 420, 394, 52, -22, -43, -2, 4, 4, 945, 924, 40,6
2025-03-17 10:56:03.377,991, 595, 192, -39, 63, -31, -4, 5, 3, 904, 820, 57,6
2025-03-17 10:56:03.677,729, 526, 419, -2, -4, -4, -3, 5, 3, 931, 838, 42,7
2025-03-17 10:56:03.734,711, 540, 453, -3, -5, -4, -1, 4, 4, 931, 841, 42,7
2025-03-17 10:56:03.789,643, 552, 520, -1, -23, 3, -3, 3, 2, 937, 856, 43,7
2025-03-17 10:56:03.842,814, 557, 369, -39, -7, -1, -4, 6, 3, 964, 934, 35,7
2025-03-17 10:56:03.892,651, 548, 453, 3, -4, 23, -4, 7, 3, 978, 957, 38,7
2025-03-17 10:56:03.947,618, 560, 486, 53, 11, 12, -3, 5, 5, 981, 947, 67,7
2025-03-17 10:56:03.997,564, 816, -149, -5, 30, 29, -5, 3, 8, 983, 927, 74,7
2025-03-17 10:56:04.054,671, 53, 852, -13, -4, -37, -3, 8, 2, 970, 885, 35,7
2025-03-17 10:56:04.109,797, 727, 454, -3, -15, -22, -3, 6, 3, 974, 936, 29,7
2025-03-17 10:56:04.159,482, 877, 211, -9, -1, 47, -3, 6, 3, 984, 956, 191,7
2025-03-17 10:56:04.217,805, 229, 237, -1, 22, -28, -3, 7, 3, 974, 922, 46,7
2025-03-17 10:56:04.267,565, 601, 740, -45, 62, -56, -1, 3, 1, 949, 814, 45,7
2025-03-17 10:56:04.537,732, 549, 429, -2, -1, 1, -3, 5, 0, 935, 732, 50,8
2025-03-17 10:56:04.591,718, 548, 433, -4, 0, 1, -2, 6, 0, 935, 729, 46,8
2025-03-17 10:56:04.645,712, 547, 465, -2, 0, 1, -3, 4, 2, 935, 737, 31,8
2025-03-17 10:56:04.694,710, 562, 454, -2, -2, 1, -4, 5, 2, 935, 741, 36,8
2025-03-17 10:56:04.747,728, 547, 419, 0, 0, 4, -3, 5, 3, 940, 738, 38,8
2025-03-17 10:56:04.794,718, 536, 460, 1, -4, 5, -4, 6, 1, 940, 743, 43,8
2025-03-17 10:56:04.847,721, 541, 434, 11, -8, 8, -1, 4, 4, 944, 764, 51,8
2025-03-17 10:56:04.897,748, 541, 396, 4, -4, 6, -3, 3, 4, 945, 787, 27,8
2025-03-17 10:56:04.947,696, 541, 471, 4, -12, 11, -3, 6, 0, 952, 818, 36,8
2025-03-17 10:56:04.998,754, 654, 313, -22, -3, -5, -2, 6, 3, 961, 883, 50,8
2025-03-17 10:56:05.060,662, 588, 520, -17, -17, -22, -2, 7, 3, 965, 926, 48,8
2025-03-17 10:56:05.109,831, 679, -146, 53, 17, 0, -3, 5, 4, 979, 924, 38,8
2025-03-17 10:56:05.167,394, 419, 452, -15, 18, 27, -4, 6, 2, 982, 950, 54,8
2025-03-17 10:56:05.223,332, -29, 658, 29, -47, -58, -5, 8, 2, 975, 962, 31,8
2025-03-17 10:56:05.277,868, 379, 386, 12, -30, -30, -3, 4, 4, 976, 967, 49,8
2025-03-17 10:56:05.327,605, 699, 98, 11, 18, 21, -3, 6, 5, 984, 960, 60,8
2025-03-17 10:56:05.386,823, 529, 226, -15, 28, 15, -2, 4, 4, 973, 926, 46,8
2025-03-17 10:56:05.439,705, 549, 450, -36, 46, -40, -2, 3, 4, 948, 898, 30,8
2025-03-17 10:56:05.687,717, 543, 460, 4, -4, 8, -2, 3, 1, 938, 803, 38,9
2025-03-17 10:56:05.747,723, 534, 446, 5, -5, 7, -3, 6, 3, 938, 803, 38,9
2025-03-17 10:56:05.793,733, 545, 417, 2, -1, 5, -2, 5, 1, 938, 813, 43,9
2025-03-17 10:56:05.847,735, 525, 453, 2, -4, 3, -1, 6, 3, 941, 822, 36,9
2025-03-17 10:56:05.897,757, 534, 425, 0, -6, 3, -3, 6, 4, 944, 830, 35,9
2025-03-17 10:56:05.947,718, 537, 461, 2, -7, 5, -1, 2, 5, 947, 848, 53,9
2025-03-17 10:56:05.997,731, 545, 414, -1, -11, 3, -3, 6, 4, 948, 861, 52,9
2025-03-17 10:56:06.049,707, 513, 452, -7, -27, 3, -3, 6, 5, 956, 907, 34,9
2025-03-17 10:56:06.109,865, 474, 587, -5, -14, -16, -5, 6, 5, 965, 944, 40,9
2025-03-17 10:56:06.160,912, 854, -47, 40, 29, 20, -5, 4, 4, 980, 938, 33,9
2025-03-17 10:56:06.217,587, 367, 398, -20, 28, 34, -4, 7, 2, 980, 951, 41,9
2025-03-17 10:56:06.267,750, 506, 510, 12, -19, -26, -3, 6, 4, 971, 944, 31,9
2025-03-17 10:56:06.323,361, 696, 343, 1, 43, 39, -4, 6, 3, 978, 935, 68,9
2025-03-17 10:56:06.377,921, 462, 366, -38, 41, 15, -3, 7, 3, 970, 907, 57,9
2025-03-17 10:56:06.434,1081, 332, 225, 20, 34, -67, -2, 6, 2, 851, 796, 56,9
2025-03-17 10:56:06.729,713, 542, 442, 4, -12, 4, -3, 5, 1, 905, 760, 40,+
2025-03-17 10:56:06.780,724, 541, 429, 3, -11, 4, -2, 8, 0, 905, 760, 40,+
2025-03-17 10:56:06.827,715, 540, 462, 0, -6, 4, -1, 6, 1, 908, 766, 39,+
2025-03-17 10:56:06.882,743, 537, 436, 2, -6, 3, -3, 5, 1, 914, 783, 38,+
2025-03-17 10:56:06.934,740, 557, 418, 3, -5, 2, -3, 3, 3, 918, 786, 32,+
2025-03-17 10:56:06.987,740, 524, 417, -5, 2, -1, -2, 3, 5, 923, 797, 24,+
2025-03-17 10:56:07.041,725, 541, 458, -3, -2, -1, -5, 7, 1, 926, 805, 37,+
2025-03-17 10:56:07.090,738, 546, 404, -2, -1, -3, -3, 4, 4, 926, 808, 43,+
2025-03-17 10:56:07.143,712, 532, 477, 1, -3, 1, -4, 6, 4, 925, 794, 47,+
2025-03-17 10:56:07.197,747, 541, 416, -1, -2, 0, -3, 6, 3, 929, 813, 46,+
2025-03-17 10:56:07.247,721, 529, 458, -4, 0, -3, -3, 6, 2, 933, 822, 46,+
2025-03-17 10:56:07.297,742, 536, 414, -8, -3, -6, -1, 5, 3, 930, 820, 29,+
2025-03-17 10:56:07.347,750, 545, 446, -10, -5, -3, -4, 5, 5, 933, 836, 52,+
2025-03-17 10:56:07.410,723, 566, 416, -10, -18, -3, -4, 3, 5, 937, 865, 36,+
2025-03-17 10:56:07.460,749, 520, 625, -22, -11, -7, -3, 8, 2, 959, 930, 35,+
2025-03-17 10:56:07.511,696, 879, 239, 52, 46, 35, -1, 3, 4, 980, 934, 45,+
2025-03-17 10:56:07.567,869, 523, 154, -18, 29, 24, -2, 6, 3, 978, 898, 36,+
2025-03-17 10:56:07.627,624, 103, 824, 9, -35, -72, -3, 6, 3, 954, 858, 36,+
2025-03-17 10:56:07.679,933, 316, 625, 61, -34, -13, -3, 5, 3, 979, 961, 37,+
2025-03-17 10:56:07.728,457, 278, 484, -12, 14, 48, -1, 5, 5, 982, 954, 149,+
2025-03-17 10:56:07.790,744, 463, 69, -20, 65, -73, -4, 7, 3, 961, 907, 42,+
2025-03-17 10:56:08.087,709, 545, 474, 1, 0, 2, -1, 3, 2, 934, 783, 51,-
2025-03-17 10:56:08.147,704, 546, 450, -1, -1, 2, -3, 7, 0, 933, 780, 41,-
2025-03-17 10:56:08.196,721, 538, 439, 2, 2, -4, -1, 4, 2, 924, 743, 46,-
2025-03-17 10:56:08.247,711, 560, 441, 7, -2, -3, -3, 3, 6, 904, 687, 34,-
2025-03-17 10:56:08.297,735, 567, 458, 5, -11, 4, -3, 4, 3, 886, 720, 47,-
2025-03-17 10:56:08.355,715, 534, 399, -11, -3, -8, -2, 4, 3, 898, 809, 37,-
2025-03-17 10:56:08.408,771, 532, 439, -5, -7, -13, -1, 5, 3, 934, 854, 34,-
2025-03-17 10:56:08.459,714, 1114, 147, -32, -34, 55, -4, 5, 3, 977, 952, 60,-
2025-03-17 10:56:08.517,661, 498, 600, 14, -3, 14, -3, 5, 4, 982, 952, 278,-
2025-03-17 10:56:08.572,703, 381, 303, 9, 15, -17, -4, 6, 6, 961, 916, 36,-
2025-03-17 10:56:08.624,737, 612, 479, -27, 49, -34, -3, 6, 3, 934, 819, 49,-
2025-03-17 10:56:08.677,665, 536, 453, 4, -13, 4, -6, 6, 5, 925, 768, 41,-
2025-03-17 10:56:08.937,731, 542, 413, -5, -4, -1, -4, 4, 4, 926, 798, 48,÷
2025-03-17 10:56:08.990,731, 535, 416, -5, -3, -2, -2, 7, 3, 927, 802, 49,÷
2025-03-17 10:56:09.047,726, 552, 444, -7, 0, -2, -3, 6, 4, 928, 806, 38,÷
2025-03-17 10:56:09.097,716, 564, 440, -11, 1, -3, -2, 5, 5, 926, 770, 22,÷
2025-03-17 10:56:09.147,737, 512, 479, -2, -1, 4, -1, 4, 5, 923, 734, 42,÷
2025-03-17 10:56:09.197,716, 552, 438, 3, -6, 6, -2, 6, 2, 933, 787, 37,÷
2025-03-17 10:56:09.257,658, 535, 470, -1, -12, 8, -3, 5, 5, 943, 839, 22,÷
2025-03-17 10:56:09.310,831, 527, 346, -33, -8, -13, -5, 5, 3, 960, 935, 41,÷
2025-03-17 10:56:09.367,804, 330, 498, 25, -9, -16, -3, 1, 8, 971, 946, 25,÷
2025-03-17 10:56:09.417,745, 770, 423, -54, 25, 48, -3, 5, 4, 980, 952, 36,÷
2025-03-17 10:56:09.467,849, 397, 470, 20, 8, 13, 0, 2, 3, 969, 929, 25,÷
2025-03-17 10:56:09.527,503, 601, 544, -12, 79, 26, -2, 8, 0, 964, 865, 40,÷
2025-03-17 10:56:09.577,561, 298, 553, 53, -80, 32, -2, 6, 3, 968, 905, 38,÷
2025-03-17 10:56:09.629,779, 384, 470, -9, 17, 5, -2, 6, 2, 973, 945, 36,÷
2025-03-17 10:56:09.683,693, 497, 407, -8, -1, 14, -3, 8, 1, 972, 929, 47,÷
2025-03-17 10:56:09.733,483, 471, 656, -8, 9, -37, 1, 5, 2, 962, 912, 23,÷
2025-03-17 10:56:09.790,848, 275, 416, 24, -23, -22, -3, 5, 2, 975, 952, 54,÷
2025-03-17 10:56:09.841,791, 314, 417, 3, -8, 35, -3, 6, 5, 983, 966, 123,÷
2025-03-17 10:56:09.893,770, 425, 402, 22, 4, 6, -5, 7, 2, 975, 942, 48,÷
2025-03-17 10:56:09.947,634, 495, 404, -22, 69, -59, -3, 7, 2, 941, 820, 51,÷
2025-03-17 10:56:10.219,695, 534, 496, -9, 1, -10, -3, 5, 3, 859, 628, 44,=
2025-03-17 10:56:10.277,715, 544, 486, -9, 0, -9, -3, 10, 6, 855, 600, 38,=
2025-03-17 10:56:10.329,743, 535, 471, -2, 0, -6, -2, 5, 2, 817, 502, 49,=
2025-03-17 10:56:10.377,709, 551, 484, 6, -4, 4, -3, 5, 2, 833, 608, 34,=
2025-03-17 10:56:10.431,731, 531, 455, 5, -1, 5, -2, 5, 0, 844, 650, 24,=
2025-03-17 10:56:10.477,691, 538, 476, -1, 1, 4, -3, 6, 2, 863, 672, 41,=
2025-03-17 10:56:10.531,731, 527, 446, 0, -5, 3, -1, 4, 3, 883, 702, 41,=
2025-03-17 10:56:10.583,722, 545, 446, -5, 0, -2, -3, 5, 2, 895, 737, 46,=
2025-03-17 10:56:10.637,712, 535, 456, -5, -3, 1, -3, 5, -1, 914, 751, 26,=
2025-03-17 10:56:10.689,743, 542, 468, -4, -2, 0, -3, 7, 2, 921, 774, 53,=
2025-03-17 10:56:10.739,714, 525, 454, 2, -7, 3, -3, 5, 3, 929, 786, 41,=
2025-03-17 10:56:10.792,742, 548, 426, -1, -9, -1, -5, 5, 1, 929, 811, 28,=
2025-03-17 10:56:10.840,713, 510, 465, -7, -4, 0, -3, 5, 3, 938, 826, 49,=
2025-03-17 10:56:10.897,937, 489, 463, -71, -15, -18, -3, 5, 5, 953, 868, 43,=
2025-03-17 10:56:10.956,886, 844, 477, 18, -32, 29, -2, 5, 4, 976, 956, 54,=
2025-03-17 10:56:11.007,645, 321, 596, 55, -1, 4, -3, 8, 3, 976, 935, 40,=
2025-03-17 10:56:11.057,533, 523, 459, 8, 44, -22, -4, 8, 0, 956, 827, 34,=
2025-03-17 10:56:11.107,948, 716, 255, 6, -20, -2, -2, 4, 5, 972, 938, 52,=
2025-03-17 10:56:11.158,713, 477, 258, 1, 7, 42, -3, 6, 3, 982, 955, 221,=
2025-03-17 10:56:11.217,887, 207, 230, 3, 24, -39, -3, 6, 4, 965, 893, 55,=
2025-03-17 10:56:11.271,658, 515, 712, -23, 67, -57, -3, 6, 0, 915, 635, 48,=
2025-03-17 10:56:11.550,723, 549, 456, -5, 0, -3, 1, 3, 2, 897, 571, 42,≠
2025-03-17 10:56:11.597,703, 539, 465, -3, -1, -4, 2, 5, 4, 895, 592, 29,≠
2025-03-17 10:56:11.657,732, 547, 442, 14, -12, -7, -3, 5, 2, 887, 694, 40,≠
2025-03-17 10:56:11.707,752, 548, 388, 0, -4, -1, -4, 6, 1, 897, 770, 41,≠
2025-03-17 10:56:11.760,671, 577, 455, -2, 3, -3, -3, 3, 3, 901, 788, 36,≠
2025-03-17 10:56:11.814,669, 530, 499, -6, -11, -2, -2, 2, 7, 911, 814, 34,≠
2025-03-17 10:56:11.867,766, 568, 300, -16, -8, -14, -2, 4, 2, 939, 869, 49,≠
2025-03-17 10:56:11.917,716, 597, 482, 0, -4, -5, -1, 3, 4, 954, 907, 35,≠
2025-03-17 10:56:11.973,729, 562, 363, 0, -2, -1, -3, 2, 4, 955, 911, 36,≠
2025-03-17 10:56:12.026,726, 551, 455, 4, 0, -2, -4, 3, 4, 956, 913, 45,≠
2025-03-17 10:56:12.074,725, 588, 412, -5, 1, 1, -3, 5, 5, 958, 916, 29,≠
2025-03-17 10:56:12.127,722, 561, 407, 7, -1, -3, -3, 6, 3, 958, 916, 34,≠
2025-03-17 10:56:12.177,719, 556, 425, -5, 1, 0, -2, 4, 5, 956, 917, 55,≠
2025-03-17 10:56:12.226,722, 581, 415, 1, 0, -1, -3, 3, 4, 957, 919, 52,≠
2025-03-17 10:56:12.277,720, 525, 440, -3, 0, -1, -2, 4, 5, 959, 921, 42,≠
2025-03-17 10:56:12.327,724, 515, 419, -3, 0, -3, -1, 2, 6, 960, 934, 36,≠
2025-03-17 10:56:12.385,874, 968, 327, -22, -34, 46, -3, 4, 5, 975, 953, 54,≠
2025-03-17 10:56:12.440,568, 487, 343, 12, -7, 11, -4, 7, 3, 973, 940, 198,≠
2025-03-17 10:56:12.491,692, 462, 106, -3, 48, -12, -4, 5, 5, 958, 901, 47,≠
2025-03-17 10:56:12.540,571, 615, 855, 20, 28, -6, 3, 4, 3, 931, 733, 35,≠
2025-03-17 10:56:12.597,1061, 808, 85, 12, -19, 22, -4, 4, 4, 972, 947, 47,≠
2025-03-17 10:56:12.655,648, 605, 223, -15, 6, 43, -3, 7, 3, 977, 950, 40,≠
2025-03-17 10:56:12.707,589, 399, 234, -19, 20, -80, -3, 4, 4, 963, 924, 44,≠
2025-03-17 10:56:12.757,573, 567, 533, 20, -61, 31, -1, 5, 0, 970, 933, 35,≠
2025-03-17 10:56:12.807,750, 1042, 120, 22, 52, 20, -3, 4, 6, 982, 930, 82,≠
2025-03-17 10:56:12.873,758, 403, -87, -24, 49, 15, -4, 5, 3, 969, 799, 31,≠
2025-03-17 10:56:12.927,869, 353, 319, -38, 47, -65, -3, 7, 4, 921, 823, 49,≠
2025-03-17 10:56:13.227,706, 540, 492, 5, -6, 2, 2, 5, 3, 903, 765, 28,≈
2025-03-17 10:56:13.277,714, 547, 470, 5, -8, 2, 2, 5, 3, 905, 767, 38,≈
2025-03-17 10:56:13.327,731, 550, 430, 4, -6, 3, -3, 5, 3, 910, 777, 35,≈
2025-03-17 10:56:13.380,745, 531, 433, 2, -3, 1, -3, 4, 3, 915, 796, 38,≈
2025-03-17 10:56:13.435,731, 560, 414, -4, 1, 0, -3, 6, 1, 913, 797, 35,≈
2025-03-17 10:56:13.479,694, 550, 453, -2, 1, -1, -2, 4, 4, 910, 771, 24,≈
2025-03-17 10:56:13.537,761, 544, 406, -3, 0, -1, 0, 3, 4, 910, 766, 44,≈
2025-03-17 10:56:13.585,713, 564, 456, 2, 1, 0, -3, 6, 2, 907, 743, 37,≈
2025-03-17 10:56:13.639,753, 528, 431, -1, -1, -1, -3, 4, 3, 909, 750, 44,≈
2025-03-17 10:56:13.688,723, 552, 456, -3, 0, 1, -2, 5, 5, 913, 770, 39,≈
2025-03-17 10:56:13.741,713, 504, 438, -8, 0, -8, -2, 4, 5, 925, 815, 46,≈
2025-03-17 10:56:13.790,773, 546, 376, -14, -3, -6, -3, 6, 3, 943, 900, 44,≈
2025-03-17 10:56:13.847,749, 614, 354, 22, -17, 14, -6, 3, 5, 967, 927, 31,≈
2025-03-17 10:56:13.897,659, 467, 478, -8, 1, 23, -4, 4, 3, 974, 927, 45,≈
2025-03-17 10:56:13.954,724, 488, 548, -17, -9, 9, -5, 7, 3, 973, 943, 44,≈
2025-03-17 10:56:14.007,802, 492, 383, 19, 6, -7, -3, 3, 4, 961, 910, 48,≈
2025-03-17 10:56:14.059,553, 561, 514, -22, 52, -25, -3, 6, 4, 948, 830, 36,≈
2025-03-17 10:56:14.107,657, 567, 637, 20, -29, 13, -2, 5, 1, 940, 711, 40,≈
2025-03-17 10:56:14.167,838, 516, 282, 2, 5, -4, -4, 5, 2, 965, 931, 44,≈
2025-03-17 10:56:14.221,710, 576, 513, 1, -11, 14, -3, 6, 2, 973, 945, 39,≈
2025-03-17 10:56:14.274,632, 498, 367, -10, 8, 20, -4, 5, 2, 976, 932, 40,≈
2025-03-17 10:56:14.327,693, 629, 227, -37, 7, 16, -2, 7, 4, 978, 947, 53,≈
2025-03-17 10:56:14.373,916, 423, 291, 11, 5, -13, 0, 5, 5, 965, 926, 38,≈
2025-03-17 10:56:14.432,599, 568, 625, -42, 68, -37, -3, 8, 0, 955, 878, 53,≈
2025-03-17 10:56:14.717,700, 533, 498, -3, -5, 0, -1, 4, 2, 928, 792, 29,<
2025-03-17 10:56:14.772,692, 533, 502, -1, -7, 1, -4, 8, -1, 930, 798, 44,<
2025-03-17 10:56:14.823,755, 521, 437, 2, -10, 0, -2, 5, 2, 929, 818, 36,<
2025-03-17 10:56:14.877,750, 529, 440, -2, -1, -1, 1, 5, 1, 932, 825, 28,<
2025-03-17 10:56:14.927,719, 524, 461, -1, -1, -2, -3, 5, 3, 937, 836, 52,<
2025-03-17 10:56:14.977,730, 538, 446, 2, -2, -2, -2, 4, 5, 940, 846, 44,<
2025-03-17 10:56:15.028,737, 529, 448, 4, -1, 2, -1, 9, -2, 941, 851, 39,<
2025-03-17 10:56:15.085,738, 530, 436, 1, -2, -1, -4, 7, 2, 940, 852, 43,<
2025-03-17 10:56:15.138,726, 539, 445, -1, -3, 0, -3, 5, 3, 941, 853, 35,<
2025-03-17 10:56:15.189,745, 511, 423, -2, -1, -1, -2, 5, 2, 940, 856, 36,<
2025-03-17 10:56:15.240,735, 541, 444, -4, -1, 1, -3, 4, 3, 944, 858, 39,<
2025-03-17 10:56:15.293,761, 535, 435, -1, -3, 3, -4, 6, 1, 949, 868, 49,<
2025-03-17 10:56:15.341,705, 540, 480, 3, -9, 3, 0, 8, 2, 951, 882, 37,<
2025-03-17 10:56:15.390,796, 495, 371, -10, -8, -3, -2, 2, 6, 957, 904, 29,<
2025-03-17 10:56:15.454,745, 529, 487, -14, -6, -8, -2, 6, 4, 966, 940, 43,<
2025-03-17 10:56:15.497,717, 460, 520, 5, -19, -8, -3, 6, 5, 975, 957, 32,<
2025-03-17 10:56:15.556,773, 617, 255, 23, 11, -8, -4, 5, 5, 979, 941, 37,<
2025-03-17 10:56:15.607,729, 574, 297, -9, 17, 13, -4, 5, 5, 979, 921, 37,<
2025-03-17 10:56:15.667,441, 408, 542, -20, -2, 37, -3, 4, 7, 985, 964, 72,<
2025-03-17 10:56:15.711,701, 462, 472, 11, 2, 6, -4, 9, 3, 981, 960, 85,<
2025-03-17 10:56:15.767,795, 449, 395, 19, 13, -11, -7, 4, 4, 967, 908, 29,<
2025-03-17 10:56:15.822,731, 468, 537, -14, 19, -8, -2, 5, 4, 962, 830, 44,<
2025-03-17 10:56:15.873,724, 503, 478, 1, -3, -6, -4, 5, 3, 958, 805, 31,<
2025-03-17 10:56:15.927,782, 532, 381, -5, 3, -13, -3, 6, 2, 949, 766, 48,<
2025-03-17 10:56:15.977,701, 522, 503, -4, 5, -7, -4, 6, 1, 942, 708, 40,<
2025-03-17 10:56:16.287,739, 510, 472, -2, -1, -2, -2, 4, 3, 942, 749, 40,≤
2025-03-17 10:56:16.338,731, 530, 467, -1, -1, -1, -2, 5, 2, 941, 751, 39,≤
2025-03-17 10:56:16.392,731, 529, 455, -3, -1, -3, 3, 7, 2, 936, 749, 33,≤
2025-03-17 10:56:16.448,726, 526, 452, -1, -3, -1, -3, 6, 2, 937, 767, 49,≤
2025-03-17 10:56:16.497,729, 526, 442, 0, -4, -2, -2, 6, 2, 936, 784, 29,≤
2025-03-17 10:56:16.547,722, 533, 468, -3, -5, -1, -3, 7, 1, 939, 804, 39,≤
2025-03-17 10:56:16.605,734, 532, 437, 0, -9, 1, -2, 5, 4, 942, 821, 41,≤
2025-03-17 10:56:16.658,763, 518, 397, -2, -5, -2, -2, 6, 1, 943, 828, 38,≤
2025-03-17 10:56:16.707,726, 522, 444, -8, -8, -5, -3, 5, 4, 948, 854, 43,≤
2025-03-17 10:56:16.757,684, 497, 528, 3, -26, 4, -4, 5, 4, 956, 905, 50,≤
2025-03-17 10:56:16.817,727, 487, 430, -10, -8, -8, -3, 6, 4, 967, 938, 38,≤
2025-03-17 10:56:16.867,635, 645, 341, 26, 25, 7, -4, 5, 3, 972, 894, 51,≤
2025-03-17 10:56:16.920,835, 551, 122, 7, 14, 3, -3, 5, 4, 978, 924, 39,≤
2025-03-17 10:56:16.967,450, 391, 515, 6, -6, 35, -3, 6, 3, 983, 962, 83,≤
2025-03-17 10:56:17.022,624, 582, 171, 30, 17, 7, -3, 5, 3, 974, 914, 42,≤
2025-03-17 10:56:17.073,743, 502, 850, 25, 3, 15, -3, 7, 1, 965, 778, 50,≤
2025-03-17 10:56:17.127,697, 602, 472, -23, -6, 28, -2, 6, 5, 981, 961, 72,≤
2025-03-17 10:56:17.177,702, 495, 503, 23, 3, 10, -3, 7, 4, 975, 932, 60,≤
2025-03-17 10:56:17.477,736, 551, 417, -10, -3, 1, -3, 4, 3, 934, 812, 37,>
2025-03-17 10:56:17.527,727, 530, 441, -10, -2, -1, -1, 7, 2, 935, 816, 42,>
2025-03-17 10:56:17.577,698, 533, 493, 1, -16, 2, -3, 7, 2, 938, 821, 48,>
2025-03-17 10:56:17.637,793, 542, 349, -5, -7, -3, -3, 6, 3, 943, 830, 36,>
2025-03-17 10:56:17.689,743, 512, 465, -10, -3, -7, -3, 5, 3, 945, 838, 37,>
2025-03-17 10:56:17.739,542, 570, 656, 9, -34, 10, -3, 5, 3, 951, 848, 54,>
2025-03-17 10:56:17.789,873, 452, 225, -20, 3, -2, -6, 5, 8, 964, 908, 32,>
2025-03-17 10:56:17.847,657, 557, 374, 15, -6, 32, -2, 4, 6, 975, 942, 54,>
2025-03-17 10:56:17.897,785, 480, 517, 47, -5, 2, -4, 6, 4, 979, 934, 154,>
2025-03-17 10:56:17.952,1073, 346, 165, -8, 27, 0, -3, 7, 4, 977, 905, 59,>
2025-03-17 10:56:18.007,954, 298, 689, -21, 7, -11, -3, 5, 4, 964, 852, 43,>
2025-03-17 10:56:18.057,621, 534, 563, -25, 27, -27, -2, 8, 2, 951, 857, 47,>
2025-03-17 10:56:18.337,721, 540, 459, -2, -6, 0, -3, 3, 4, 939, 788, 30,≥
2025-03-17 10:56:18.392,731, 535, 451, -1, -6, -1, 1, 4, 2, 939, 786, 52,≥
2025-03-17 10:56:18.447,723, 533, 460, -5, -7, -3, -3, 3, 4, 940, 807, 47,≥
2025-03-17 10:56:18.497,722, 517, 457, -1, -8, 2, -1, 7, 4, 943, 818, 26,≥
2025-03-17 10:56:18.547,682, 538, 473, -5, -9, -3, -3, 5, 3, 943, 833, 50,≥
2025-03-17 10:56:18.607,891, 446, 472, -89, -19, -23, -3, 6, 6, 954, 871, 36,≥
2025-03-17 10:56:18.660,1020, 820, 430, 43, -16, 17, -3, 5, 5, 970, 945, 47,≥
2025-03-17 10:56:18.717,552, 666, 806, 25, -6, 16, -4, 6, 3, 975, 942, 138,≥
2025-03-17 10:56:18.772,1609, 349, 536, 15, 25, 13, -4, 4, 6, 978, 936, 157,≥
2025-03-17 10:56:18.824,849, 529, 518, -25, 56, 31, -1, 5, 5, 967, 875, 48,≥
2025-03-17 10:56:18.877,273, 657, 858, 11, 24, -2, -4, 5, 2, 962, 739, 48,≥
2025-03-17 10:56:18.946,955, 958, 129, -15, -16, 1, -5, 6, 3, 972, 921, 34,≥
2025-03-17 10:56:18.989,563, 408, 361, -10, -4, 28, -3, 6, 4, 983, 954, 319,≥
2025-03-17 10:56:19.038,717, 449, 346, 16, 8, 5, -2, 6, 4, 974, 923, 88,≥
2025-03-17 10:56:19.089,696, 526, 360, -49, 86, -62, -2, 5, 2, 939, 774, 52,≥
2025-03-17 10:56:19.387,718, 532, 482, 2, -8, 2, -4, 5, 2, 927, 743, 35,±
2025-03-17 10:56:19.443,727, 530, 472, 2, -9, 2, -1, 3, 1, 926, 745, 30,±
2025-03-17 10:56:19.497,752, 541, 399, -1, -8, -3, -2, 5, 3, 924, 767, 44,±
2025-03-17 10:56:19.540,739, 525, 441, -3, -5, -5, -3, 6, 2, 922, 781, 28,±
2025-03-17 10:56:19.597,729, 526, 425, -8, 1, -4, -3, 5, 2, 925, 798, 49,±
2025-03-17 10:56:19.647,737, 534, 460, 3, -5, -2, -3, 4, 4, 920, 810, 39,±
2025-03-17 10:56:19.705,743, 527, 436, 6, -6, -2, -6, 7, 3, 921, 820, 29,±
2025-03-17 10:56:19.753,726, 553, 424, -1, -4, 1, -2, 6, 3, 924, 828, 48,±
2025-03-17 10:56:19.808,761, 569, 384, -1, 0, 0, -3, 6, 4, 925, 833, 40,±
2025-03-17 10:56:19.857,729, 528, 450, 1, 0, 0, -3, 5, 2, 928, 839, 32,±
2025-03-17 10:56:19.907,741, 518, 400, -6, 0, -5, -5, 5, 4, 927, 842, 38,±
2025-03-17 10:56:19.957,674, 546, 480, -4, 3, -4, -5, 5, 4, 923, 820, 40,±
2025-03-17 10:56:20.007,808, 529, 352, -1, -4, -9, -1, 3, 4, 921, 818, 41,±
2025-03-17 10:56:20.061,737, 557, 432, -9, 12, -8, -4, 2, 4, 922, 822, 35,±
2025-03-17 10:56:20.117,688, 574, 492, 5, -9, 2, -4, 6, 1, 927, 816, 45,±
2025-03-17 10:56:20.172,645, 563, 467, -1, -16, -1, -3, 4, 4, 932, 845, 48,±
2025-03-17 10:56:20.221,951, 662, 456, 58, -19, -12, 0, 4, 5, 968, 938, 37,±
2025-03-17 10:56:20.277,675, 395, 381, -13, 12, 37, -5, 6, 5, 975, 950, 47,±
2025-03-17 10:56:20.327,721, 313, 383, 1, -2, -38, -2, 3, 7, 953, 908, 41,±
2025-03-17 10:56:20.388,1079, -232, 575, 5, -17, -15, -3, 5, 5, 969, 923, 37,±
2025-03-17 10:56:20.438,405, 585, -81, 3, 59, 49, -4, 5, 6, 980, 929, 68,±
2025-03-17 10:56:20.489,728, 428, 472, 8, 30, 4, -3, 5, 4, 962, 822, 41,±
2025-03-17 10:56:20.538,661, 683, 855, 26, -16, 4, -4, 5, 1, 947, 775, 37,±
2025-03-17 10:56:20.597,856, 984, 534, -59, -25, 45, -3, 7, 2, 978, 960, 49,±
2025-03-17 10:56:20.647,626, 451, 485, 13, 1, 23, -4, 5, 4, 974, 949, 40,±
2025-03-17 10:56:20.704,706, 536, 265, -21, 80, -61, 1, 9, 2, 944, 866, 36,±
2025-03-17 10:56:20.998,713, 538, 484, -8, -4, -3, -2, 4, 3, 892, 752, 46,∓
2025-03-17 10:56:21.057,705, 544, 486, -8, -5, -3, -1, 10, 4, 893, 755, 36,∓
2025-03-17 10:56:21.107,715, 530, 480, 0, -13, -1, -3, 5, 2, 896, 785, 38,∓
2025-03-17 10:56:21.157,716, 549, 447, 1, -15, 2, -3, 7, 2, 892, 800, 44,∓
2025-03-17 10:56:21.207,746, 530, 430, -1, -11, 4, -1, 5, 3, 904, 826, 32,∓
2025-03-17 10:56:21.260,723, 529, 444, -6, 3, -1, -4, 5, 4, 916, 834, 51,∓
2025-03-17 10:56:21.319,735, 520, 455, -4, -3, 0, -2, 5, 3, 922, 843, 31,∓
2025-03-17 10:56:21.367,722, 527, 462, -5, 0, -2, -2, 7, 2, 927, 853, 39,∓
2025-03-17 10:56:21.421,704, 521, 448, -5, 0, -5, -5, 8, 3, 927, 857, 51,∓
2025-03-17 10:56:21.470,776, 537, 429, -6, 0, 0, -3, 4, 3, 923, 843, 47,∓
2025-03-17 10:56:21.521,733, 511, 473, -3, 2, -1, -3, 6, 5, 925, 845, 29,∓
2025-03-17 10:56:21.572,712, 535, 459, -3, 0, 0, -3, 6, 2, 931, 849, 39,∓
2025-03-17 10:56:21.621,602, 527, 491, -6, -8, 0, -3, 6, 5, 936, 845, 40,∓
2025-03-17 10:56:21.682,918, 310, 268, 10, -12, -13, -4, 5, 3, 959, 930, 48,∓
2025-03-17 10:56:21.737,701, 438, 240, 16, -10, 38, -4, 5, 5, 976, 950, 226,∓
2025-03-17 10:56:21.789,697, 423, 495, 39, -2, 2, -3, 5, 5, 970, 923, 98,∓
2025-03-17 10:56:21.838,564, 541, 452, -25, 73, -37, -3, 6, 4, 947, 829, 46,∓
2025-03-17 10:56:21.898,794, 219, 406, 37, -25, -23, -4, 4, 1, 963, 898, 35,∓
2025-03-17 10:56:21.953,763, 541, 302, -15, -7, 38, -1, 5, 5, 978, 960, 85,∓
2025-03-17 10:56:22.007,712, 533, 488, 11, 3, 12, -4, 5, 3, 970, 934, 33,∓
2025-03-17 10:56:22.059,403, 591, 672, -8, 19, -47, -3, 5, 3, 954, 892, 49,∓
2025-03-17 10:56:22.107,791, 812, 167, -25, -21, 2, 0, 3, 4, 976, 936, 34,∓
2025-03-17 10:56:22.167,778, 717, 132, -7, 43, 40, -3, 5, 5, 979, 896, 66,∓
2025-03-17 10:56:22.220,950, 297, 313, -3, 41, -19, -3, 7, 3, 953, 734, 50,∓
2025-03-17 10:56:22.271,612, 602, 633, -38, 46, -39, -2, 5, 0, 888, 790, 54,∓
2025-03-17 10:56:22.327,508, 495, 705, 4, -19, 0, -3, 7, -1, 899, 803, 28,∓
2025-03-17 10:56:22.377,737, 507, 437, 6, -31, 9, -2, 6, -1, 909, 818, 55,∓
2025-03-17 10:56:22.427,766, 523, 445, 2, -3, 0, -1, 5, 2, 914, 818, 48,∓
2025-03-17 10:56:22.485,706, 520, 473, -10, 8, -10, -2, 0, 6, 891, 756, 38,∓
2025-03-17 10:56:23.127,713, 539, 484, -3, -1, -1, -3, 5, 1, 888, 649, 46,∞
2025-03-17 10:56:23.179,712, 527, 484, -3, -1, -2, 0, 6, 2, 887, 647, 35,∞
2025-03-17 10:56:23.227,690, 529, 501, -6, -1, -1, -2, 7, 0, 893, 652, 44,∞
2025-03-17 10:56:23.285,718, 538, 485, -4, -5, -1, -2, 6, 0, 900, 661, 40,∞
2025-03-17 10:56:23.338,726, 551, 455, 6, -10, 2, -4, 5, 2, 903, 725, 37,∞
2025-03-17 10:56:23.387,737, 520, 448, 4, -2, -1, -3, 5, 3, 904, 747, 41,∞
2025-03-17 10:56:23.437,703, 537, 490, 5, -5, 0, -3, 5, 1, 904, 762, 38,∞
2025-03-17 10:56:23.487,721, 528, 456, 1, -2, -1, -3, 6, 1, 904, 775, 31,∞
2025-03-17 10:56:23.538,738, 540, 453, -7, -3, -2, -3, 6, 2, 910, 786, 47,∞
2025-03-17 10:56:23.588,709, 533, 482, -9, -4, -3, -3, 7, 3, 917, 797, 38,∞
2025-03-17 10:56:23.638,722, 525, 459, 0, 0, 3, -3, 2, 8, 922, 807, 31,∞
2025-03-17 10:56:23.703,723, 536, 455, -1, -1, 0, -4, 10, -1, 924, 814, 36,∞
2025-03-17 10:56:23.752,719, 534, 459, 1, -3, -8, -2, 4, 3, 922, 819, 47,∞
2025-03-17 10:56:23.805,725, 520, 515, 11, -7, -8, -6, 6, 4, 914, 780, 39,∞
2025-03-17 10:56:23.858,757, 542, 421, 5, -3, 3, -4, 6, 2, 912, 758, 50,∞
2025-03-17 10:56:23.907,718, 537, 461, -6, 4, -1, -3, 4, 3, 916, 773, 46,∞
2025-03-17 10:56:23.961,751, 549, 439, 2, -5, 0, -2, 5, 3, 914, 804, 39,∞
2025-03-17 10:56:24.007,713, 539, 454, 0, -3, 5, -2, 4, 4, 923, 841, 36,∞
2025-03-17 10:56:24.057,737, 583, 449, 7, -10, 5, -3, 5, 5, 933, 855, 47,∞
2025-03-17 10:56:24.110,667, 555, 463, 2, -6, 3, -3, 3, 4, 938, 872, 41,∞
2025-03-17 10:56:24.164,738, 536, 417, -3, -5, -1, -4, 5, 4, 940, 879, 44,∞
2025-03-17 10:56:24.219,700, 426, 574, 12, -16, 8, -4, 6, 4, 957, 910, 46,∞
2025-03-17 10:56:24.272,790, 758, 425, 9, 31, 22, -3, 5, 5, 971, 912, 43,∞
2025-03-17 10:56:24.327,789, 519, 262, -53, 22, 6, -3, 6, 4, 964, 904, 34,∞
2025-03-17 10:56:24.379,940, 390, 612, 32, -27, -43, -3, 6, 2, 961, 939, 36,∞
2025-03-17 10:56:24.427,565, 535, 272, -8, -26, 25, -4, 6, 6, 979, 956, 39,∞
2025-03-17 10:56:24.485,659, 635, 412, -24, 5, 9, -4, 7, 4, 979, 954, 48,∞
2025-03-17 10:56:24.537,794, 634, 436, 13, -7, -14, -4, 6, 6, 973, 951, 46,∞
2025-03-17 10:56:24.588,405, 814, 61, 31, 43, 23, -3, 4, 7, 978, 940, 52,∞
2025-03-17 10:56:24.638,893, 515, 229, -12, 29, 4, -3, 5, 3, 966, 872, 44,∞
2025-03-17 10:56:24.965,736, 555, 395, 0, -1, 1, -3, 6, 4, 919, 777, 40,∑
2025-03-17 10:56:25.017,730, 536, 429, 0, 1, 1, -2, 7, 2, 919, 778, 47,∑
2025-03-17 10:56:25.067,719, 523, 481, 2, -1, 2, -5, 5, 3, 922, 777, 37,∑
2025-03-17 10:56:25.120,725, 532, 444, 5, -1, -2, 0, 4, 3, 921, 787, 44,∑
2025-03-17 10:56:25.169,721, 524, 469, 4, -5, 1, -3, 3, 3, 924, 805, 50,∑
2025-03-17 10:56:25.220,734, 531, 439, -2, 2, -2, -4, 4, 3, 925, 811, 43,∑
2025-03-17 10:56:25.272,716, 542, 466, -3, -2, -1, -3, 5, 4, 927, 819, 39,∑
2025-03-17 10:56:25.322,735, 543, 450, 1, -3, 2, -2, 7, 2, 931, 833, 46,∑
2025-03-17 10:56:25.373,736, 541, 443, 2, -2, 1, -1, 4, 5, 934, 841, 45,∑
2025-03-17 10:56:25.427,734, 539, 453, 1, -1, 3, -5, 5, 3, 940, 850, 43,∑
2025-03-17 10:56:25.477,736, 519, 454, -1, 0, 1, -3, 4, 4, 942, 854, 33,∑
2025-03-17 10:56:25.527,737, 543, 419, -5, 1, -3, 0, 5, 6, 941, 849, 31,∑
2025-03-17 10:56:25.577,734, 534, 463, -6, -5, -2, -2, 5, 4, 943, 860, 42,∑
2025-03-17 10:56:25.636,728, 550, 415, -14, -4, -9, -3, 6, 4, 944, 865, 40,∑
2025-03-17 10:56:25.687,628, 527, 527, -6, -15, -3, -4, 6, 3, 949, 866, 43,∑
2025-03-17 10:56:25.746,958, 383, 372, -10, -11, -18, -3, 5, 4, 960, 916, 43,∑
2025-03-17 10:56:25.797,751, 645, 272, -23, -9, 44, -3, 5, 5, 975, 959, 76,∑
2025-03-17 10:56:25.852,642, 492, 532, 39, -4, 2, -3, 2, 5, 966, 934, 32,∑
2025-03-17 10:56:25.904,548, 546, 409, -10, 31, -44, -3, 5, 6, 948, 901, 40,∑
2025-03-17 10:56:25.957,834, 692, 224, -4, -16, -6, -4, 3, 5, 969, 938, 27,∑
2025-03-17 10:56:26.007,595, 607, 416, -1, 11, 35, -4, 3, 5, 977, 959, 64,∑
2025-03-17 10:56:26.058,670, 534, 628, 26, 0, 4, -4, 5, 3, 973, 946, 31,∑
2025-03-17 10:56:26.110,457, 508, 362, 0, 25, -9, -2, 8, 2, 959, 854, 33,∑
2025-03-17 10:56:26.170,833, 1127, 341, -65, -1, 44, -2, 5, 5, 975, 951, 82,∑
2025-03-17 10:56:26.220,725, 523, 389, 14, -8, 9, -3, 3, 7, 973, 948, 65,∑
2025-03-17 10:56:26.270,790, 499, 94, -9, 45, -55, -5, 6, 3, 944, 855, 43,∑
2025-03-17 10:56:26.529,700, 557, 471, -6, -2, 0, -2, 6, 3, 922, 807, 33,∏
2025-03-17 10:56:26.577,708, 547, 472, -4, -3, 1, -7, 4, 6, 922, 810, 45,∏
2025-03-17 10:56:26.627,752, 520, 417, -4, -3, 2, -4, 5, 3, 924, 810, 50,∏
2025-03-17 10:56:26.684,727, 518, 473, -4, -3, 1, -6, 4, 4, 929, 824, 40,∏
2025-03-17 10:56:26.732,739, 531, 426, -2, -6, 0, -4, 5, 4, 934, 830, 32,∏
2025-03-17 10:56:26.787,743, 510, 442, -4, -4, 0, -4, 5, 3, 940, 846, 42,∏
2025-03-17 10:56:26.835,711, 521, 455, 0, -5, 2, -3, 5, 4, 945, 861, 40,∏
2025-03-17 10:56:26.887,761, 546, 402, -5, -1, 0, -5, 7, 1, 947, 871, 35,∏
2025-03-17 10:56:26.939,729, 533, 429, 3, -5, -1, -3, 4, 5, 949, 881, 43,∏
2025-03-17 10:56:26.996,741, 547, 425, 0, -2, -3, -4, 5, 4, 951, 885, 40,∏
2025-03-17 10:56:27.037,714, 520, 449, -2, -3, -6, -1, 6, 3, 951, 887, 34,∏
2025-03-17 10:56:27.102,749, 523, 379, -14, 2, -13, -4, 4, 5, 947, 887, 40,∏
2025-03-17 10:56:27.151,657, 581, 507, 5, -7, -2, -5, 6, 4, 944, 872, 21,∏
2025-03-17 10:56:27.207,798, 364, 270, -7, -13, -13, -6, 5, 3, 964, 934, 45,∏
2025-03-17 10:56:27.257,579, 679, -13, -36, -12, 86, -4, 3, 8, 981, 965, 189,∏
2025-03-17 10:56:27.308,578, 371, 494, 25, -5, 3, -3, 6, 5, 976, 946, 194,∏
2025-03-17 10:56:27.372,647, 536, 263, -14, 38, -68, -3, 9, 2, 960, 908, 26,∏
2025-03-17 10:56:27.420,738, 567, 610, -7, -25, 19, -3, 4, 5, 962, 930, 51,∏
2025-03-17 10:56:27.477,553, 606, 426, 9, 25, 28, -4, 4, 6, 979, 948, 54,∏
2025-03-17 10:56:27.527,668, 453, 260, 0, 28, 20, -4, 7, 3, 972, 918, 45,∏
2025-03-17 10:56:27.581,532, 394, 466, 2, -6, -47, -2, 6, 4, 958, 918, 39,∏
2025-03-17 10:56:27.637,844, -249, 20, -13, -23, -16, -3, 5, 5, 972, 953, 48,∏
2025-03-17 10:56:27.687,478, 742, 141, -26, 50, 41, -6, 7, 4, 982, 950, 70,∏
2025-03-17 10:56:27.746,827, 578, 251, -2, 19, 1, -4, 6, 2, 971, 904, 47,∏
2025-03-17 10:56:27.797,760, 626, 444, -39, 55, -53, -4, 5, 3, 927, 880, 47,∏
2025-03-17 10:56:28.097,749, 527, 434, 1, -7, 4, -3, 6, 2, 923, 822, 41,√
2025-03-17 10:56:28.151,749, 535, 432, 2, -6, 4, -2, 6, 3, 923, 824, 50,√
2025-03-17 10:56:28.204,729, 518, 470, 0, -1, -1, -2, 9, 0, 925, 821, 30,√
2025-03-17 10:56:28.254,725, 532, 459, 1, -6, -2, -2, 6, 2, 925, 821, 41,√
2025-03-17 10:56:28.308,754, 512, 432, -1, 1, -3, -3, 6, 3, 929, 817, 46,√
2025-03-17 10:56:28.354,733, 558, 487, 1, 5, -2, -6, 8, 2, 926, 750, 32,√
2025-03-17 10:56:28.407,714, 534, 500, 2, -7, 2, -4, 7, 3, 928, 721, 49,√
2025-03-17 10:56:28.457,778, 526, 382, 7, -6, 3, -2, 4, 4, 930, 775, 53,√
2025-03-17 10:56:28.507,708, 533, 461, -1, 4, 2, -4, 7, 4, 933, 815, 50,√
2025-03-17 10:56:28.558,741, 533, 426, 2, -5, 1, -4, 5, 4, 935, 819, 38,√
2025-03-17 10:56:28.607,780, 531, 410, -4, -2, -2, -5, 7, 3, 935, 820, 37,√
2025-03-17 10:56:28.658,727, 533, 423, 3, -1, 1, -4, 5, 3, 941, 827, 43,√
2025-03-17 10:56:28.709,743, 516, 458, 2, 3, -1, -4, 6, 4, 936, 821, 40,√
2025-03-17 10:56:28.765,723, 562, 446, -6, 4, 0, -4, 5, 3, 936, 792, 27,√
2025-03-17 10:56:28.818,705, 546, 414, -11, 8, 3, -6, 4, 6, 937, 770, 30,√
2025-03-17 10:56:28.869,737, 428, 537, -2, -11, 5, -4, 6, 3, 942, 827, 47,√
2025-03-17 10:56:28.919,905, 691, 308, 3, 6, 0, -3, 5, 5, 962, 929, 37,√
2025-03-17 10:56:28.970,697, 488, 701, 20, -7, 14, -3, 6, 2, 971, 945, 41,√
2025-03-17 10:56:29.027,645, 820, 516, -4, 21, 36, -4, 7, 3, 978, 933, 47,√
2025-03-17 10:56:29.077,878, 536, 366, -48, 25, 35, -3, 6, 4, 978, 940, 51,√
2025-03-17 10:56:29.138,869, 643, 292, -13, -58, -60, -4, 7, 3, 970, 964, 33,√
2025-03-17 10:56:29.187,727, 429, 730, 36, -32, -8, -3, 7, 5, 977, 967, 52,√
2025-03-17 10:56:29.243,713, 536, 332, 18, 11, 18, -4, 5, 6, 973, 954, 52,√
2025-03-17 10:56:29.297,672, 489, 332, -12, 59, -48, -4, 6, 4, 954, 931, 42,√
2025-03-17 10:56:29.353,682, 604, 734, 15, -13, -2, -2, 6, 1, 942, 888, 53,√
2025-03-17 10:56:29.942,724, 542, 424, -1, 1, -1, -3, 5, 1, 909, 749, 32,∛
2025-03-17 10:56:29.994,722, 544, 437, -2, 1, -1, -4, 6, 4, 910, 754, 49,∛
2025-03-17 10:56:30.047,720, 533, 464, -1, -1, 1, -4, 5, 2, 911, 757, 49,∛
2025-03-17 10:56:30.100,727, 546, 435, -2, 0, -1, -3, 6, 3, 913, 764, 31,∛
2025-03-17 10:56:30.147,717, 528, 465, 1, 0, 0, -4, 6, 3, 915, 768, 31,∛
2025-03-17 10:56:30.197,725, 549, 439, 4, -1, 2, -2, 3, 7, 913, 771, 46,∛
2025-03-17 10:56:30.248,737, 534, 452, 0, 0, 1, -4, 6, 2, 915, 776, 52,∛
2025-03-17 10:56:30.301,732, 539, 439, -4, 1, 1, -3, 5, 5, 916, 764, 48,∛
2025-03-17 10:56:30.352,706, 547, 458, -3, -4, 2, -4, 7, 2, 914, 758, 44,∛
2025-03-17 10:56:30.402,754, 541, 413, 2, -4, -2, -3, 4, 3, 906, 753, 32,∛
2025-03-17 10:56:30.457,725, 527, 465, -4, 4, 1, -3, 5, 4, 908, 757, 37,∛
2025-03-17 10:56:30.503,727, 529, 447, -1, 2, 2, -3, 6, 4, 908, 768, 45,∛
2025-03-17 10:56:30.557,732, 535, 445, -1, 1, 2, -3, 6, 3, 910, 772, 41,∛
2025-03-17 10:56:30.607,748, 524, 461, 1, 3, 3, -5, 5, 3, 911, 772, 28,∛
2025-03-17 10:56:30.657,667, 519, 505, 3, -3, 2, -1, 6, 4, 905, 769, 34,∛
2025-03-17 10:56:30.707,797, 576, 260, -8, 6, -8, -6, 9, 1, 911, 823, 48,∛
2025-03-17 10:56:30.757,859, 515, 722, 35, -25, -2, -3, 5, 3, 940, 903, 50,∛
2025-03-17 10:56:30.817,745, 713, 401, 34, 23, 39, 0, 6, 3, 967, 896, 41,∛
2025-03-17 10:56:30.870,780, 684, 179, -27, 27, 33, -4, 6, 3, 969, 896, 40,∛
2025-03-17 10:56:30.927,139, -19, 1055, -19, -57, -52, -2, 8, 2, 963, 948, 24,∛
2025-03-17 10:56:30.977,707, 333, 286, 48, -33, -18, -5, 7, 4, 972, 957, 40,∛
2025-03-17 10:56:31.034,752, 646, 249, 24, 2, 15, -5, 6, 5, 970, 932, 49,∛
2025-03-17 10:56:31.087,619, 411, 315, -19, 47, -55, -3, 4, 5, 956, 922, 48,∛
2025-03-17 10:56:31.145,697, 670, 775, 4, -20, -14, -2, 2, 6, 945, 889, 42,∛
2025-03-17 10:56:31.197,828, 547, -66, -25, 3, -6, -3, 6, 3, 968, 949, 31,∛
2025-03-17 10:56:31.247,586, 653, 520, 0, 0, 9, -3, 4, 5, 974, 957, 47,∛
2025-03-17 10:56:31.297,729, 362, 517, 13, 1, 3, -3, 4, 5, 973, 953, 47,∛
2025-03-17 10:56:31.350,779, 286, 374, 3, 1, -3, -3, 4, 6, 974, 955, 50,∛
2025-03-17 10:56:31.397,728, 464, 616, 1, 9, 8, -5, 6, 5, 975, 949, 43,∛
2025-03-17 10:56:31.447,726, 503, 314, -5, 14, 7, -4, 5, 5, 957, 897, 28,∛
2025-03-17 10:56:31.503,875, 529, 214, -30, 55, -36, -6, 7, 2, 915, 860, 37,∛
2025-03-17 10:56:31.557,430, 569, 820, -3, 9, -5, -2, 6, 0, 924, 839, 53,∛
2025-03-17 10:56:31.792,698, 520, 470, -2, 4, -2, -1, 6, 0, 907, 762, 53,∜
2025-03-17 10:56:31.842,700, 532, 491, -2, 3, -3, -1, 8, 2, 906, 759, 49,∜
2025-03-17 10:56:31.888,697, 541, 509, 0, -4, 1, -2, 5, 2, 904, 745, 44,∜
2025-03-17 10:56:31.938,708, 530, 470, 6, -7, 0, -2, 4, 3, 894, 732, 44,∜
2025-03-17 10:56:31.997,712, 535, 460, 7, -5, 1, -3, 6, 2, 885, 686, 40,∜
2025-03-17 10:56:32.051,752, 554, 400, -1, -1, 2, -3, 5, 1, 894, 713, 31,∜
2025-03-17 10:56:32.099,677, 562, 521, 5, 0, 5, -2, 3, 4, 908, 745, 45,∜
2025-03-17 10:56:32.147,695, 523, 446, 4, 0, 4, -3, 6, 2, 911, 747, 41,∜
2025-03-17 10:56:32.201,669, 525, 520, 8, -24, 8, -3, 5, 4, 914, 753, 40,∜
2025-03-17 10:56:32.251,845, 558, 138, -4, 9, -1, -4, 4, 2, 945, 870, 38,∜
2025-03-17 10:56:32.304,579, 351, 518, 10, -6, 13, -3, 4, 6, 964, 925, 36,∜
2025-03-17 10:56:32.357,328, 559, 254, 9, 16, 19, -4, 8, 3, 974, 913, 37,∜
2025-03-17 10:56:32.407,806, 803, 314, -51, 16, 30, -2, 6, 5, 972, 924, 47,∜
2025-03-17 10:56:32.468,1028, 458, 708, -5, -48, -37, -2, 8, 2, 967, 956, 46,∜
2025-03-17 10:56:32.518,679, 459, 360, 35, -31, -10, -1, 7, 3, 972, 958, 77,∜
2025-03-17 10:56:32.569,828, 440, 246, 7, 9, 10, -3, 8, 6, 964, 936, 46,∜
2025-03-17 10:56:32.627,541, 465, 484, -27, 49, -63, -2, 6, 4, 953, 924, 42,∜
2025-03-17 10:56:32.677,712, 708, 711, -1, -31, -7, -4, 5, 3, 948, 904, 50,∜
2025-03-17 10:56:32.737,795, 734, 270, 21, -10, -14, -5, 6, 4, 966, 950, 42,∜
2025-03-17 10:56:32.787,717, 529, 602, 12, -11, -6, -3, 4, 6, 972, 958, 42,∜
2025-03-17 10:56:32.837,942, 693, 439, 3, 7, -8, -4, 5, 7, 971, 930, 26,∜
2025-03-17 10:56:32.887,869, 589, 488, -5, 6, 13, -4, 5, 3, 978, 957, 37,∜
2025-03-17 10:56:32.941,396, 442, 382, 3, 0, 14, -4, 5, 6, 981, 967, 84,∜
2025-03-17 10:56:33.001,798, 232, 337, 22, -2, -43, -4, 6, 4, 966, 945, 41,∜
2025-03-17 10:56:33.053,1920, -59, 591, -6, -15, -9, -4, 4, 5, 975, 954, 43,∜
2025-03-17 10:56:33.107,779, 372, 239, 6, 39, 38, -4, 7, 5, 981, 946, 47,∜
2025-03-17 10:56:33.157,988, 153, 420, -2, 25, -38, -3, 7, 3, 963, 862, 39,∜
2025-03-17 10:56:33.208,615, 603, 587, -37, 54, -47, -2, 4, 2, 910, 854, 41,∜
2025-03-17 10:56:33.498,683, 532, 530, 4, -6, 2, -3, 4, 2, 921, 737, 51,∫
2025-03-17 10:56:33.552,680, 553, 514, 4, -7, 3, -3, 5, 0, 920, 739, 47,∫
2025-03-17 10:56:33.602,725, 548, 463, 1, -4, 3, -3, 6, 2, 917, 754, 39,∫
2025-03-17 10:56:33.653,698, 532, 505, 1, -2, 2, -1, 4, 3, 913, 757, 41,∫
2025-03-17 10:56:33.703,707, 546, 472, -1, -3, 3, -3, 3, 3, 916, 756, 49,∫
2025-03-17 10:56:33.757,713, 520, 482, -2, -4, 4, -4, 7, 1, 917, 740, 40,∫
2025-03-17 10:56:33.807,728, 536, 451, 3, -3, 1, -2, 5, 2, 918, 757, 29,∫
2025-03-17 10:56:33.860,726, 526, 459, 0, 1, -1, -2, 8, 1, 916, 760, 24,∫
2025-03-17 10:56:33.907,714, 555, 479, -4, -2, 0, -4, 5, 1, 915, 769, 36,∫
2025-03-17 10:56:33.958,729, 528, 467, -1, -2, 1, -2, 6, 2, 918, 773, 45,∫
2025-03-17 10:56:34.016,726, 526, 448, -4, 3, -1, -1, 5, 3, 918, 760, 36,∫
2025-03-17 10:56:34.057,701, 527, 502, 1, -2, 2, -3, 4, 3, 920, 750, 32,∫
2025-03-17 10:56:34.119,774, 521, 443, 7, -4, 4, -5, 5, 3, 926, 775, 38,∫
2025-03-17 10:56:34.170,721, 547, 508, 10, -9, 10, -2, 5, 5, 939, 801, 38,∫
2025-03-17 10:56:34.219,722, 551, 466, 10, -22, 20, -2, 6, 3, 948, 837, 38,∫
2025-03-17 10:56:34.277,706, 591, 430, -16, -6, -1, -5, 6, 4, 959, 896, 53,∫
2025-03-17 10:56:34.327,589, 387, 623, 7, -6, -17, -4, 5, 4, 966, 929, 33,∫
2025-03-17 10:56:34.385,644, 473, 113, 29, 28, 2, -3, 4, 5, 973, 930, 45,∫
2025-03-17 10:56:34.437,578, 729, 476, -9, 33, 27, -2, 6, 3, 978, 933, 54,∫
2025-03-17 10:56:34.487,779, 379, 503, -10, 13, 13, -3, 7, 3, 968, 873, 46,∫
2025-03-17 10:56:34.547,1125, 245, 263, -26, 54, -46, -4, 8, 0, 893, 755, 51,∫
2025-03-17 10:56:34.843,726, 500, 470, -2, -4, -1, -3, 6, 2, 906, 729, 49,∮
2025-03-17 10:56:34.897,728, 504, 464, -2, -3, -3, -1, 7, 1, 904, 724, 39,∮
2025-03-17 10:56:34.950,701, 527, 485, -3, -1, -2, -3, 6, 1, 900, 736, 51,∮
2025-03-17 10:56:35.002,706, 503, 494, -7, -3, -1, -3, 6, 0, 903, 735, 45,∮
2025-03-17 10:56:35.052,717, 508, 486, -2, 0, 2, 0, 7, 2, 905, 733, 26,∮
2025-03-17 10:56:35.102,702, 498, 507, 0, -2, 1, -3, 6, 1, 908, 741, 44,∮
2025-03-17 10:56:35.152,715, 517, 499, -1, -5, 1, -3, 7, 2, 913, 761, 50,∮
2025-03-17 10:56:35.207,741, 523, 445, 4, -4, 1, -3, 5, 2, 914, 769, 40,∮
2025-03-17 10:56:35.257,712, 527, 499, 0, -2, 1, -2, 6, 1, 918, 776, 32,∮
2025-03-17 10:56:35.307,743, 504, 465, -2, -3, 0, -2, 4, 4, 924, 787, 28,∮
2025-03-17 10:56:35.357,721, 527, 479, -5, -6, 0, -3, 6, 2, 930, 803, 38,∮
2025-03-17 10:56:35.407,754, 513, 455, 3, -8, 4, -2, 5, 3, 941, 818, 50,∮
2025-03-17 10:56:35.466,594, 507, 586, 9, -24, 9, -4, 6, 2, 948, 834, 40,∮
2025-03-17 10:56:35.519,669, 634, 381, -23, -9, -11, -4, 7, 2, 957, 895, 40,∮
2025-03-17 10:56:35.572,361, 325, 676, 37, -15, -32, -3, 5, 5, 967, 922, 40,∮
2025-03-17 10:56:35.627,1020, 1069, -64, 18, 55, 61, -4, 5, 5, 979, 916, 49,∮
2025-03-17 10:56:35.682,626, 122, 822, 4, -12, -6, -3, 7, 2, 968, 918, 31,∮
2025-03-17 10:56:35.735,661, 641, 732, 23, -57, -1, 0, 5, 4, 955, 938, 47,∮
2025-03-17 10:56:35.785,623, 588, 368, -6, 1, 20, -3, 6, 4, 978, 952, 31,∮
2025-03-17 10:56:35.837,1369, 794, 145, -29, 38, 45, -3, 8, 2, 980, 932, 63,∮
2025-03-17 10:56:35.900,1009, 136, 563, -10, 10, -15, -3, 6, 3, 955, 846, 46,∮
2025-03-17 10:56:35.951,464, 429, 869, -34, -30, -18, -2, 5, 2, 961, 929, 50,∮
2025-03-17 10:56:36.007,979, 368, 90, -36, -19, -20, -4, 6, 4, 967, 947, 41,∮
2025-03-17 10:56:36.057,1133, 526, 246, 6, 20, 10, -4, 7, 3, 976, 946, 39,∮
2025-03-17 10:56:36.108,201, 512, 703, 5, 29, 17, -4, 7, 3, 983, 944, 49,∮
2025-03-17 10:56:36.166,688, 520, 276, -1, 23, 10, -3, 8, 3, 969, 891, 49,∮
2025-03-17 10:56:36.218,1130, 276, 277, -11, 52, -43, -5, 8, 1, 899, 774, 22,∮
2025-03-17 10:56:36.277,522, 486, 869, -32, 45, -39, 0, 6, -1, 885, 781, 43,∮
2025-03-17 10:56:36.560,673, 513, 561, -2, -1, -1, 1, 9, -4, 896, 660, 34,∂
2025-03-17 10:56:36.617,677, 508, 565, -2, -2, 0, 1, 9, -4, 894, 668, 36,∂
2025-03-17 10:56:36.667,704, 502, 511, 2, -8, 1, -3, 9, 0, 887, 661, 45,∂
2025-03-17 10:56:36.719,706, 477, 528, -2, -4, -3, -2, 7, 2, 886, 651, 29,∂
2025-03-17 10:56:36.769,702, 514, 492, -3, 0, -2, -2, 6, 1, 887, 653, 36,∂
2025-03-17 10:56:36.818,691, 473, 560, -1, -1, 0, -2, 8, -1, 888, 661, 48,∂
2025-03-17 10:56:36.877,666, 502, 531, 2, -3, -1, -2, 9, -3, 886, 663, 31,∂
2025-03-17 10:56:36.927,700, 497, 514, 0, -4, -1, -2, 8, 0, 881, 663, 46,∂
2025-03-17 10:56:36.982,707, 506, 502, -3, -1, 0, -2, 6, 1, 883, 685, 31,∂
2025-03-17 10:56:37.034,694, 484, 542, 2, -4, -1, -2, 7, 0, 886, 715, 41,∂
2025-03-17 10:56:37.084,695, 516, 537, 0, -5, 0, -3, 8, -1, 894, 736, 51,∂
2025-03-17 10:56:37.137,700, 504, 526, 7, -10, 3, -3, 5, 2, 904, 744, 38,∂
2025-03-17 10:56:37.187,705, 499, 530, 12, -17, 2, 0, 7, 2, 912, 757, 34,∂
2025-03-17 10:56:37.237,786, 499, 417, 13, -13, 4, -4, 7, 2, 922, 784, 50,∂
2025-03-17 10:56:37.291,725, 513, 524, 3, 1, -2, -3, 7, 3, 924, 784, 39,∂
2025-03-17 10:56:37.344,705, 516, 471, 2, -6, -9, -2, 7, 3, 927, 804, 28,∂
2025-03-17 10:56:37.400,637, 522, 565, 11, -28, -12, -4, 6, 2, 930, 811, 48,∂
2025-03-17 10:56:37.452,840, 620, 253, -6, -5, -8, -3, 5, 3, 950, 906, 32,∂
2025-03-17 10:56:37.502,531, 459, 403, 45, -6, 23, -4, 6, 3, 969, 931, 52,∂
2025-03-17 10:56:37.557,500, 756, 372, 1, 33, 27, -3, 5, 4, 975, 912, 45,∂
2025-03-17 10:56:37.607,641, 418, 272, -57, 31, -7, -7, 7, 3, 955, 849, 34,∂
2025-03-17 10:56:37.665,846, 503, 764, -9, -53, -7, -2, 6, 2, 971, 963, 51,∂
2025-03-17 10:56:37.719,708, 541, 401, 9, -6, 13, -4, 6, 2, 975, 963, 63,∂
2025-03-17 10:56:37.769,938, 329, 151, -3, 40, -38, -3, 4, 4, 960, 921, 49,∂
2025-03-17 10:56:38.088,737, 523, 463, 0, -4, 3, -2, 5, 2, 899, 723, 29,∇
2025-03-17 10:56:38.138,729, 513, 458, 0, -2, 2, -5, 6, -1, 900, 723, 39,∇
2025-03-17 10:56:38.189,705, 508, 519, -1, 1, -1, -2, 5, 3, 899, 720, 39,∇
2025-03-17 10:56:38.243,703, 516, 488, 0, -6, 0, -2, 6, 1, 901, 737, 50,∇
2025-03-17 10:56:38.291,735, 530, 473, 0, -4, 1, -2, 5, 1, 902, 739, 34,∇
2025-03-17 10:56:38.345,716, 520, 488, -3, -1, 1, -4, 8, 0, 905, 746, 48,∇
2025-03-17 10:56:38.394,718, 524, 468, 0, -2, 0, -2, 5, 3, 906, 755, 43,∇
2025-03-17 10:56:38.447,719, 532, 494, -1, -2, -1, -3, 7, 0, 910, 763, 40,∇
2025-03-17 10:56:38.500,722, 507, 472, -2, -3, 0, -6, 8, -1, 916, 771, 38,∇
2025-03-17 10:56:38.553,707, 516, 491, -2, -3, 0, -3, 5, 4, 918, 778, 37,∇
2025-03-17 10:56:38.603,733, 524, 474, 1, -5, 1, -2, 6, 1, 923, 796, 41,∇
2025-03-17 10:56:38.657,677, 517, 549, 1, -12, -3, -3, 7, -1, 927, 809, 35,∇
2025-03-17 10:56:38.707,618, 494, 501, 13, -46, -7, -4, 7, 5, 934, 836, 48,∇
2025-03-17 10:56:38.768,815, 435, 260, -7, 1, -9, -3, 9, 2, 962, 923, 35,∇
2025-03-17 10:56:38.819,611, 495, 328, -11, -4, 38, -4, 3, 4, 973, 949, 61,∇
2025-03-17 10:56:38.869,602, 567, 591, 40, -15, 2, -5, 8, 3, 976, 941, 50,∇
2025-03-17 10:56:38.927,1081, 731, 149, -1, 38, 10, -4, 4, 5, 978, 919, 87,∇
2025-03-17 10:56:38.977,744, 590, 443, -39, 51, 17, -4, 5, 4, 961, 841, 41,∇
2025-03-17 10:56:39.037,413, 640, 623, 19, -18, -75, -1, 4, 3, 928, 847, 49,∇
2025-03-17 10:56:39.087,927, 847, 829, 38, -28, 7, 2, 4, 4, 972, 946, 34,∇
2025-03-17 10:56:39.143,1186, 1031, 290, -32, 40, 66, -3, 4, 4, 981, 945, 39,∇
2025-03-17 10:56:39.198,863, 160, 353, -8, 32, -41, -2, 10, 0, 965, 861, 40,∇
2025-03-17 10:56:39.252,722, 519, 576, -7, 48, -57, -3, 6, 0, 848, 771, 43,∇
2025-03-17 10:56:39.538,744, 537, 416, 2, -14, 3, -6, 6, 3, 890, 749, 32,∆
2025-03-17 10:56:39.587,754, 530, 409, 0, -11, 2, -2, 7, 2, 890, 750, 26,∆
2025-03-17 10:56:39.637,731, 506, 446, -3, -1, 1, -4, 6, 2, 901, 734, 38,∆
2025-03-17 10:56:39.690,746, 510, 484, -2, 0, 3, -5, 5, 3, 904, 710, 34,∆
2025-03-17 10:56:39.749,735, 498, 474, -2, -1, -2, -2, 5, 1, 907, 726, 49,∆
2025-03-17 10:56:39.799,731, 517, 470, -1, -7, 2, -2, 5, 3, 913, 785, 40,∆
2025-03-17 10:56:39.851,721, 517, 444, -2, 1, -4, -2, 7, 1, 921, 799, 35,∆
2025-03-17 10:56:39.901,719, 518, 478, -2, -13, -2, -3, 6, 1, 927, 824, 56,∆
2025-03-17 10:56:39.957,775, 521, 434, 2, -26, 2, -4, 6, 4, 945, 873, 41,∆
2025-03-17 10:56:40.010,696, 459, 479, 20, -3, -11, -2, 6, 4, 961, 893, 38,∆
2025-03-17 10:56:40.060,630, 498, 355, 5, 16, 5, -4, 7, 6, 959, 815, 37,∆
2025-03-17 10:56:40.114,1020, 815, 662, -15, 5, 34, -5, 8, 5, 974, 944, 71,∆
2025-03-17 10:56:40.168,573, 451, 480, 7, 1, 21, -5, 7, 1, 976, 955, 65,∆
2025-03-17 10:56:40.219,698, 150, 369, 31, -10, -43, -3, 5, 5, 953, 898, 44,∆
2025-03-17 10:56:40.268,768, 727, 852, 4, -23, 7, -4, 7, 2, 952, 886, 42,∆
2025-03-17 10:56:40.327,802, 1061, 241, -26, 13, 83, -5, 6, 2, 982, 949, 86,∆
2025-03-17 10:56:40.381,714, 166, 595, 4, 17, 26, -2, 9, 1, 976, 898, 38,∆
2025-03-17 10:56:40.434,739, 405, 186, -2, 61, -75, -4, 9, 4, 934, 744, 50,∆
2025-03-17 10:56:40.727,695, 496, 551, -9, 2, -4, -4, 5, -1, 852, 416, 24,π
2025-03-17 10:56:40.783,688, 492, 542, -7, 0, -5, -4, 5, -1, 846, 383, 23,π
2025-03-17 10:56:40.837,713, 548, 508, 1, -6, 0, -4, 8, 1, 849, 342, 34,π
2025-03-17 10:56:40.887,702, 508, 508, 0, 1, 0, 1, 6, 1, 863, 423, 45,π
2025-03-17 10:56:40.938,719, 516, 503, 2, -4, 1, -1, 4, 1, 860, 497, 41,π
2025-03-17 10:56:40.992,710, 500, 505, -5, 1, 0, -3, 6, -2, 865, 536, 40,π
2025-03-17 10:56:41.043,701, 505, 515, -5, -1, -1, -1, 5, 2, 871, 560, 40,π
2025-03-17 10:56:41.092,693, 517, 529, -4, -5, 0, -4, 5, 2, 881, 561, 27,π
2025-03-17 10:56:41.148,709, 497, 501, 2, -9, 1, -2, 8, 0, 887, 580, 41,π
2025-03-17 10:56:41.200,740, 501, 474, -2, -6, 0, -3, 6, 2, 901, 667, 35,π
2025-03-17 10:56:41.249,685, 526, 522, -1, -1, 0, -3, 6, 1, 907, 698, 35,π
2025-03-17 10:56:41.300,676, 501, 489, -2, -10, -1, -1, 6, 1, 910, 741, 47,π
2025-03-17 10:56:41.350,739, 518, 464, -4, -4, -2, -2, 8, 2, 916, 762, 51,π
2025-03-17 10:56:41.407,607, 509, 544, 2, -3, -5, -2, 6, 2, 920, 759, 42,π
2025-03-17 10:56:41.457,692, 506, 557, 28, -45, 3, -3, 5, 4, 925, 788, 51,π
2025-03-17 10:56:41.515,791, 377, 346, 17, 2, -13, -4, 6, 3, 958, 899, 30,π
2025-03-17 10:56:41.567,634, 79, 373, 12, -16, 65, -3, 6, 4, 980, 953, 131,π
