Timestamp,Acc_X,Acc_Y,Acc_Z,Gyro_X,Gyro_Y,Gyro_Z,Mag_X,Mag_Y,Mag_Z,Force1,Force2,Force3,Letter
2025-03-10 12:57:15.324,572, 634, 564, 2, -2, 2, 1, -1, -1, 887, 690, 597,noise
2025-03-10 12:57:15.378,578, 633, 553, 4, -3, 4, 0, -1, -2, 886, 687, 588,noise
2025-03-10 12:57:15.426,622, 612, 496, 6, -3, 5, 1, 0, 0, 887, 691, 599,noise
2025-03-10 12:57:15.484,668, 628, 434, -3, 0, -3, -1, -1, -1, 888, 691, 602,noise
2025-03-10 12:57:15.534,588, 635, 532, -8, 2, -6, 0, 0, -1, 887, 692, 594,noise
2025-03-10 12:57:15.585,578, 627, 556, 3, -2, 2, 0, 0, -1, 887, 692, 598,noise
2025-03-10 12:57:15.637,617, 624, 487, 6, -4, 4, 0, -1, -2, 887, 692, 603,noise
2025-03-10 12:57:15.693,657, 630, 443, -4, 1, -4, 0, 0, 1, 888, 685, 594,noise
2025-03-10 12:57:15.746,597, 635, 517, -6, 2, -5, -1, -1, 0, 886, 692, 596,noise
2025-03-10 12:57:15.797,583, 622, 546, 3, -2, 3, -1, 1, -1, 887, 689, 592,noise
2025-03-10 12:57:15.846,629, 613, 485, 4, -2, 2, 1, -1, 2, 889, 699, 611,noise
2025-03-10 12:57:15.904,648, 631, 454, -8, 2, -6, 0, 0, -1, 888, 695, 598,noise
2025-03-10 12:57:15.959,587, 641, 529, -7, 2, -4, 0, 0, 0, 886, 702, 600,noise
2025-03-10 12:57:16.008,584, 643, 529, 5, -2, 5, 1, -1, 0, 890, 712, 609,noise
2025-03-10 12:57:16.062,622, 612, 493, 5, -3, 5, 0, -1, 1, 891, 705, 606,noise
2025-03-10 12:57:16.114,662, 645, 438, -14, 3, -4, -1, 0, -1, 891, 699, 603,noise
2025-03-10 12:57:16.164,589, 619, 539, -9, 4, -4, -2, 0, -2, 893, 710, 611,noise
2025-03-10 12:57:16.217,585, 625, 535, 3, -2, 4, -2, 0, 0, 892, 704, 600,noise
2025-03-10 12:57:16.274,619, 607, 506, 4, -2, 3, 0, 0, 0, 893, 708, 617,noise
2025-03-10 12:57:16.328,637, 642, 463, -2, 1, -3, -1, 0, -2, 893, 708, 617,noise
2025-03-10 12:57:16.379,593, 640, 577, -2, 0, -3, 0, 0, 0, 892, 701, 605,noise
2025-03-10 12:57:16.429,597, 609, 562, 1, -3, 2, 0, 0, 0, 893, 709, 616,noise
2025-03-10 12:57:16.478,634, 605, 502, 1, -1, -1, 0, -2, 1, 893, 692, 619,noise
2025-03-10 12:57:16.529,605, 626, 496, 1, 0, -5, 0, 0, 0, 893, 671, 597,noise
2025-03-10 12:57:16.585,611, 631, 492, 1, -1, -5, 2, 0, 0, 892, 676, 597,noise
2025-03-10 12:57:16.635,592, 644, 504, 1, -1, -1, 0, -2, -1, 892, 683, 596,noise
2025-03-10 12:57:16.693,614, 637, 488, 2, -2, 0, 1, -1, 0, 895, 685, 581,noise
2025-03-10 12:57:16.746,595, 640, 518, -4, -2, 1, 0, -1, 1, 896, 697, 591,noise
2025-03-10 12:57:16.796,608, 667, 485, 4, -10, 3, 0, -1, 0, 896, 692, 589,noise
2025-03-10 12:57:16.845,636, 626, 468, 2, -6, 0, 0, -1, 1, 899, 697, 592,noise
2025-03-10 12:57:16.905,628, 660, 451, -3, 2, -3, -2, -1, 1, 899, 691, 586,noise
2025-03-10 12:57:16.959,610, 641, 485, -2, 1, -5, 0, -1, 3, 898, 686, 577,noise
2025-03-10 12:57:17.007,611, 649, 485, -2, 0, 0, 0, 0, 1, 898, 693, 590,noise
2025-03-10 12:57:17.061,619, 638, 481, -1, 0, 0, 0, -1, 2, 898, 691, 588,noise
2025-03-10 12:57:17.110,603, 638, 487, 0, 0, 1, -1, -2, 2, 898, 689, 579,noise
2025-03-10 12:57:17.162,627, 640, 470, 0, 1, 1, -1, -1, 1, 897, 688, 575,noise
2025-03-10 12:57:17.211,612, 642, 481, 0, 0, 1, 0, 0, 3, 898, 688, 574,noise
2025-03-10 12:57:17.264,621, 640, 480, 0, -1, 0, 0, -2, 2, 898, 695, 586,noise
2025-03-10 12:57:17.314,619, 647, 468, -1, -1, 0, 0, 1, 2, 898, 690, 569,noise
2025-03-10 12:57:17.364,619, 643, 475, -3, 0, -1, -1, -2, 3, 898, 689, 571,noise
2025-03-10 12:57:17.426,626, 643, 471, -3, 0, -2, -3, 1, 2, 896, 692, 572,noise
2025-03-10 12:57:17.479,628, 625, 474, -2, -1, -2, -1, -1, 3, 896, 688, 568,noise
2025-03-10 12:57:17.530,624, 631, 487, -4, 0, -3, -2, -2, 3, 896, 688, 570,noise
2025-03-10 12:57:17.585,610, 635, 477, -3, -1, -3, -2, -1, 2, 895, 685, 569,noise
2025-03-10 12:57:17.643,611, 646, 482, -2, 0, -2, -1, -1, 1, 895, 683, 565,noise
2025-03-10 12:57:17.692,610, 641, 481, 0, 0, 1, 0, -2, 3, 894, 685, 566,noise
2025-03-10 12:57:17.745,625, 639, 471, -1, 0, 1, -1, -1, 2, 894, 685, 569,noise
2025-03-10 12:57:17.796,622, 636, 483, -1, 1, 0, 0, -1, 1, 894, 680, 564,noise
2025-03-10 12:57:17.846,621, 635, 475, -1, 0, 0, 0, 0, 3, 894, 685, 576,noise
2025-03-10 12:57:17.897,625, 642, 479, -1, 0, -1, 0, 0, 1, 896, 689, 581,noise
2025-03-10 12:57:17.954,616, 643, 480, -2, 1, -1, 0, 0, 1, 894, 682, 569,noise
2025-03-10 12:57:18.005,624, 639, 478, -3, 0, -1, -1, 0, 1, 896, 679, 574,noise
2025-03-10 12:57:18.060,609, 632, 489, -1, 0, 0, 1, -1, 1, 895, 688, 596,noise
2025-03-10 12:57:18.109,617, 638, 470, -1, 1, 0, 0, -1, 1, 894, 683, 588,noise
2025-03-10 12:57:18.162,626, 638, 468, -3, 2, -1, -1, -1, 1, 896, 681, 588,noise
2025-03-10 12:57:18.214,613, 639, 476, -1, 1, -1, 0, 0, 3, 894, 683, 590,noise
2025-03-10 12:57:19.418,553, 745, 506, -6, -5, 0, 2, 0, 1, 499, 31, 30,A
2025-03-10 12:57:19.464,570, 694, 513, -2, -7, 5, 0, -2, 2, 526, 73, 31,A
2025-03-10 12:57:19.520,623, 611, 512, 12, -10, 21, 2, 0, 1, 597, 399, 31,A
2025-03-10 12:57:19.575,572, 788, 497, 20, -1, 15, 1, -1, 3, 620, 578, 46,A
2025-03-10 12:57:19.628,498, 541, 598, 34, -2, 5, 1, 1, 4, 658, 581, 30,A
2025-03-10 12:57:19.678,615, 781, 408, -15, -10, 26, 0, 0, 3, 737, 643, 24,A
2025-03-10 12:57:19.734,666, 645, 520, -65, 3, 35, 0, -1, 2, 695, 633, 138,A
2025-03-10 12:57:19.784,626, 538, 633, -25, 8, -2, 0, 3, 0, 41, 638, 210,A
2025-03-10 12:57:19.842,538, 637, 609, 26, 10, -6, -1, 2, 0, 45, 638, 209,A
2025-03-10 12:57:19.896,557, 569, 583, -14, -8, -2, -1, 0, 1, 54, 633, 199,A
2025-03-10 12:57:19.948,548, 671, 478, 19, -1, 33, 0, 0, 3, 820, 634, 341,A
2025-03-10 12:57:19.998,561, 463, 466, -6, -7, 49, -4, 0, 3, 914, 600, 465,A
2025-03-10 12:57:20.060,678, 518, 559, -15, -18, 46, -5, 1, 2, 936, 656, 687,A
2025-03-10 12:57:20.113,719, 529, 395, -24, 17, 20, -5, 0, 2, 953, 792, 753,A
2025-03-10 12:57:20.165,693, 456, 695, 12, -11, 13, -5, 2, 2, 956, 849, 790,A
2025-03-10 12:57:20.219,685, 489, 554, 12, -17, 3, -6, 1, 3, 965, 870, 799,A
2025-03-10 12:57:20.277,706, 503, 464, 7, -18, 2, -7, 2, 5, 966, 871, 794,A
2025-03-10 12:57:20.331,802, 505, 390, 6, -3, -8, -6, 1, 5, 965, 874, 798,A
2025-03-10 12:57:20.380,645, 548, 598, 15, -34, 0, -6, 0, 7, 967, 885, 812,A
2025-03-10 12:57:20.434,749, 469, 386, 20, -16, -14, -6, 0, 7, 973, 893, 815,A
2025-03-10 12:57:20.494,861, 403, 522, 55, -15, -24, -6, 1, 9, 967, 884, 717,A
2025-03-10 12:57:20.548,851, 792, -58, -19, 33, 10, -7, -1, 10, 968, 856, 723,A
2025-03-10 12:57:20.609,571, 624, 653, -24, -19, -33, -8, 0, 8, 965, 880, 792,A
2025-03-10 12:57:20.664,703, 661, 509, 28, -35, -2, -6, 1, 9, 970, 899, 766,A
2025-03-10 12:57:20.714,760, 658, 285, -6, 49, 42, -8, 0, 10, 971, 891, 764,A
2025-03-10 12:57:20.776,667, 427, 550, -20, -3, -43, -7, 2, 9, 961, 843, 741,A
2025-03-10 12:57:20.829,812, 416, 546, 22, -11, -7, -8, 1, 8, 967, 890, 729,A
2025-03-10 12:57:20.884,635, 117, 234, -10, 24, 26, -8, 0, 9, 969, 903, 797,A
2025-03-10 12:57:20.935,805, 538, 141, -49, 80, -56, -7, 0, 8, 965, 891, 798,A
2025-03-10 12:57:20.996,648, 577, 635, -37, 76, -62, -4, 1, 5, 941, 775, 696,A
2025-03-10 12:57:21.054,552, 544, 725, -15, 33, -51, -1, 2, 1, 894, 604, 456,A
2025-03-10 12:57:21.384,936, 544, 626, 32, -6, 28, -5, -1, 10, 943, 848, 798,B
2025-03-10 12:57:21.440,1272, 690, 795, 48, -7, 9, -5, -1, 10, 943, 852, 802,B
2025-03-10 12:57:21.494,523, 502, 395, -10, 32, -8, -6, -1, 9, 952, 867, 819,B
2025-03-10 12:57:21.544,531, 647, 439, -1, 0, 2, -4, 1, 9, 949, 873, 833,B
2025-03-10 12:57:21.604,694, 591, 434, 6, -18, 5, -6, -1, 9, 959, 883, 843,B
2025-03-10 12:57:21.654,733, 595, 378, 2, -13, -3, -6, 0, 11, 958, 883, 845,B
2025-03-10 12:57:21.714,695, 606, 380, -5, -9, -8, -5, -1, 9, 958, 879, 847,B
2025-03-10 12:57:21.769,640, 628, 492, -4, -22, 7, -6, -2, 10, 959, 883, 855,B
2025-03-10 12:57:21.825,762, 514, 320, -9, -10, -2, -7, -1, 10, 962, 893, 849,B
2025-03-10 12:57:21.878,466, 785, 110, 56, 39, 22, -7, -1, 12, 967, 893, 816,B
2025-03-10 12:57:21.934,700, 607, 282, -10, 22, 13, -6, -1, 12, 964, 889, 836,B
2025-03-10 12:57:21.996,620, 657, 638, -37, -45, -11, -7, -1, 11, 967, 900, 861,B
2025-03-10 12:57:22.054,708, 671, 401, -2, -15, -3, -6, 0, 9, 975, 910, 850,B
2025-03-10 12:57:22.110,607, 622, 369, -1, 12, 18, -7, -1, 10, 971, 908, 841,B
2025-03-10 12:57:22.164,878, 539, 163, 16, 9, 2, -7, -1, 10, 970, 907, 833,B
2025-03-10 12:57:22.215,530, 762, 582, -1, 0, 4, -8, -1, 10, 976, 907, 846,B
2025-03-10 12:57:22.269,727, 705, 30, -6, 15, 8, -6, 0, 11, 972, 900, 785,B
2025-03-10 12:57:22.327,1086, 417, 473, -18, 29, 0, -7, 0, 10, 962, 866, 818,B
2025-03-10 12:57:22.377,526, 546, 705, -41, 30, -38, -6, 2, 7, 960, 869, 803,B
2025-03-10 12:57:22.435,481, 627, 638, -3, -15, 3, -6, 0, 7, 958, 870, 798,B
2025-03-10 12:57:22.724,648, 604, 455, 5, -2, 6, -5, 0, 8, 958, 865, 780,C
2025-03-10 12:57:22.777,642, 604, 456, 7, -3, 7, -5, 0, 8, 957, 867, 783,C
2025-03-10 12:57:22.834,695, 599, 418, 7, -5, 14, -5, 0, 8, 961, 869, 787,C
2025-03-10 12:57:22.884,734, 580, 421, 2, -2, 6, -6, 0, 8, 959, 874, 796,C
2025-03-10 12:57:22.942,709, 566, 431, -2, -1, 2, -7, -1, 8, 961, 876, 801,C
2025-03-10 12:57:22.994,712, 573, 416, -3, -1, 2, -6, -1, 9, 962, 877, 806,C
2025-03-10 12:57:23.044,673, 601, 472, -5, -14, 10, -5, 0, 8, 964, 884, 817,C
2025-03-10 12:57:23.104,698, 836, 401, 2, -12, -13, -6, 0, 10, 962, 895, 814,C
2025-03-10 12:57:23.160,625, 524, 479, 4, -9, -17, -7, 1, 9, 971, 900, 718,C
2025-03-10 12:57:23.211,1063, 689, 85, 36, 26, 2, -8, 0, 11, 971, 893, 687,C
2025-03-10 12:57:23.270,769, 885, 374, -13, 41, 38, -6, -1, 10, 975, 904, 783,C
2025-03-10 12:57:23.326,954, 370, 105, -22, 43, -46, -5, 1, 8, 971, 903, 843,C
2025-03-10 12:57:23.384,587, 603, 606, -40, 31, -35, -6, 1, 8, 965, 885, 816,C
2025-03-10 12:57:23.434,603, 582, 601, 0, -13, -1, -5, 0, 5, 962, 866, 782,C
2025-03-10 12:57:23.719,690, 558, 462, 5, -9, 3, -5, 0, 7, 957, 855, 756,D
2025-03-10 12:57:23.769,697, 559, 448, 6, -9, 2, -6, 2, 6, 956, 855, 756,D
2025-03-10 12:57:23.824,703, 565, 437, 5, -6, 1, -6, 1, 7, 957, 858, 758,D
2025-03-10 12:57:23.877,696, 581, 426, 2, -5, 0, -6, -1, 8, 955, 863, 770,D
2025-03-10 12:57:23.930,694, 578, 436, -1, -11, 1, -6, 2, 8, 958, 867, 779,D
2025-03-10 12:57:23.984,726, 555, 452, -9, -25, -1, -7, 1, 8, 959, 880, 790,D
2025-03-10 12:57:24.041,707, 461, 521, 22, -7, -6, -6, 1, 8, 966, 900, 763,D
2025-03-10 12:57:24.094,625, 378, 323, 21, 43, 31, -5, -1, 10, 972, 900, 672,D
2025-03-10 12:57:24.155,664, 464, 626, -20, -4, -11, -6, -1, 10, 972, 899, 761,D
2025-03-10 12:57:24.210,759, 597, 564, -23, -35, -26, -6, 0, 8, 970, 909, 802,D
2025-03-10 12:57:24.264,850, 626, 356, 3, -15, 5, -5, 0, 9, 972, 919, 801,D
2025-03-10 12:57:24.314,653, 531, 464, 12, 8, 12, -6, -1, 10, 972, 917, 773,D
2025-03-10 12:57:24.367,742, 677, 261, 2, 29, 20, -8, 0, 10, 976, 901, 686,D
2025-03-10 12:57:24.425,845, 582, 382, 4, 26, 2, -7, 1, 10, 965, 847, 694,D
2025-03-10 12:57:24.477,625, 550, 480, -57, 65, -57, -5, 0, 8, 955, 842, 664,D
2025-03-10 12:57:24.541,413, 674, 745, -32, 18, -22, -2, 1, 4, 951, 850, 656,D
2025-03-10 12:57:24.593,583, 600, 584, 11, -28, 13, -2, 2, 5, 948, 840, 669,D
2025-03-10 12:57:24.914,681, 559, 509, 4, -11, 7, -5, 2, 6, 954, 861, 728,E
2025-03-10 12:57:24.968,685, 541, 499, 4, -11, 7, -5, 1, 6, 953, 859, 723,E
2025-03-10 12:57:25.024,721, 563, 436, 5, -12, 4, -5, 2, 7, 955, 865, 730,E
2025-03-10 12:57:25.077,711, 551, 449, -1, -6, 0, -5, 0, 8, 956, 872, 751,E
2025-03-10 12:57:25.129,692, 547, 455, -1, -8, -1, -5, 0, 7, 962, 879, 739,E
2025-03-10 12:57:25.184,703, 544, 461, 0, -20, -1, -6, 0, 8, 959, 888, 736,E
2025-03-10 12:57:25.241,721, 449, 581, 12, -16, -13, -7, 0, 7, 969, 909, 703,E
2025-03-10 12:57:25.294,1008, 648, 439, 56, 26, 27, -6, 0, 9, 972, 912, 624,E
2025-03-10 12:57:25.346,711, 547, 191, -9, 27, 10, -8, 0, 10, 970, 910, 603,E
2025-03-10 12:57:25.408,534, 655, 565, -21, -16, -36, -5, 0, 11, 973, 906, 740,E
2025-03-10 12:57:25.460,836, 767, 343, 20, -21, -1, -6, 1, 9, 977, 928, 732,E
2025-03-10 12:57:25.514,700, 645, 414, 3, 13, 16, -6, 2, 11, 976, 930, 787,E
2025-03-10 12:57:25.564,711, 398, 524, 10, 25, -11, -7, 0, 9, 971, 913, 771,E
2025-03-10 12:57:25.625,837, 940, 395, 5, -12, -2, -7, 0, 13, 970, 906, 688,E
2025-03-10 12:57:25.680,686, 618, 362, -2, 3, 21, -7, -1, 11, 975, 923, 711,E
2025-03-10 12:57:25.734,629, 603, 392, 8, 19, 5, -6, 0, 11, 970, 913, 771,E
2025-03-10 12:57:25.785,689, 708, 616, 25, -14, 16, -7, 1, 11, 967, 857, 739,E
2025-03-10 12:57:25.846,858, 663, 150, 2, 0, 22, -7, -1, 13, 975, 920, 722,E
2025-03-10 12:57:25.900,738, 573, 424, -6, 13, 13, -8, -1, 11, 972, 918, 806,E
2025-03-10 12:57:25.957,681, 548, 425, -67, 82, -52, -4, 0, 8, 961, 850, 700,E
2025-03-10 12:57:26.014,487, 622, 713, -28, 11, -27, -4, 1, 7, 945, 735, 622,E
2025-03-10 12:57:26.304,696, 560, 439, -3, -4, 1, -5, 0, 8, 952, 871, 746,F
2025-03-10 12:57:26.354,695, 567, 445, -2, -4, 1, -5, 1, 6, 950, 871, 751,F
2025-03-10 12:57:26.408,683, 567, 453, 1, -9, 2, -5, 1, 7, 951, 874, 749,F
2025-03-10 12:57:26.461,685, 571, 433, -2, -13, 1, -5, 2, 9, 951, 875, 744,F
2025-03-10 12:57:26.514,717, 568, 415, -10, -16, -3, -6, 0, 8, 953, 874, 738,F
2025-03-10 12:57:26.569,872, 279, 220, 0, -6, -11, -7, 1, 8, 955, 892, 716,F
2025-03-10 12:57:26.626,718, 512, 535, 23, -16, -11, -6, 1, 10, 967, 906, 661,F
2025-03-10 12:57:26.684,880, 550, 274, 52, 43, 35, -6, 0, 10, 969, 895, 573,F
2025-03-10 12:57:26.740,774, 575, 685, -21, -5, -9, -8, 0, 12, 964, 889, 655,F
2025-03-10 12:57:26.795,350, 756, 953, -10, -52, -2, -7, 0, 10, 966, 901, 727,F
2025-03-10 12:57:26.854,750, 775, 178, 17, -14, 15, -7, 0, 11, 973, 928, 706,F
2025-03-10 12:57:26.908,656, 557, 538, 12, 22, 18, -6, 1, 11, 969, 922, 798,F
2025-03-10 12:57:26.964,467, 757, 517, 1, -2, -7, -6, -1, 13, 962, 855, 712,F
2025-03-10 12:57:27.018,811, 597, 398, 8, -11, 1, -6, -2, 12, 975, 911, 651,F
2025-03-10 12:57:27.075,774, 579, 294, -11, 24, 29, -6, 0, 12, 971, 917, 774,F
2025-03-10 12:57:27.130,622, 616, 195, -51, 85, -61, -7, 0, 9, 960, 855, 760,F
2025-03-10 12:57:27.444,711, 583, 410, 3, -5, 8, -3, 0, 9, 953, 830, 761,G
2025-03-10 12:57:27.494,729, 587, 404, 2, -3, 7, -7, 0, 9, 952, 838, 765,G
2025-03-10 12:57:27.544,686, 585, 440, -1, -1, 5, -4, 0, 9, 956, 852, 773,G
2025-03-10 12:57:27.598,698, 572, 439, 0, -3, 3, -6, 0, 9, 959, 862, 777,G
2025-03-10 12:57:27.654,701, 581, 414, -1, -3, 5, -6, 0, 8, 963, 871, 786,G
2025-03-10 12:57:27.707,702, 569, 459, 3, -10, 10, -5, 2, 9, 960, 882, 799,G
2025-03-10 12:57:27.764,749, 261, 133, -5, -3, -9, -5, 0, 9, 962, 899, 799,G
2025-03-10 12:57:27.814,710, 447, 560, 2, -12, -10, -7, 1, 10, 964, 912, 747,G
2025-03-10 12:57:27.875,646, 711, 287, 45, 1, -8, -7, 0, 11, 973, 903, 610,G
2025-03-10 12:57:27.927,957, 686, -77, -28, 44, 36, -6, 0, 11, 975, 911, 656,G
2025-03-10 12:57:27.984,557, 487, 560, -12, -28, -20, -7, -1, 9, 972, 922, 756,G
2025-03-10 12:57:28.035,806, 854, 161, 9, -3, 6, -7, 0, 10, 974, 924, 742,G
2025-03-10 12:57:28.094,701, 499, 394, -7, 13, 10, -8, 1, 12, 971, 908, 741,G
2025-03-10 12:57:28.151,422, 639, 668, -5, -27, -22, -8, 0, 10, 970, 888, 731,G
2025-03-10 12:57:28.204,889, 642, 291, -1, -11, 9, -7, 0, 10, 978, 923, 609,G
2025-03-10 12:57:28.258,616, 359, 406, -10, 18, 19, -6, 0, 10, 974, 922, 732,G
2025-03-10 12:57:28.318,702, 608, 268, -32, 62, -45, -8, 1, 9, 965, 884, 722,G
2025-03-10 12:57:28.373,524, 605, 721, -11, 10, -12, -6, 2, 7, 959, 848, 697,G
2025-03-10 12:57:28.674,706, 577, 444, 0, -5, 0, -7, 1, 8, 951, 833, 694,H
2025-03-10 12:57:28.723,708, 557, 428, 2, -5, 0, -5, 0, 7, 949, 835, 699,H
2025-03-10 12:57:28.775,707, 579, 439, 0, -2, 2, -6, 2, 8, 948, 846, 714,H
2025-03-10 12:57:28.827,718, 571, 433, -1, -1, 3, -6, 0, 9, 950, 853, 721,H
2025-03-10 12:57:28.877,701, 581, 433, -1, -9, 4, -6, -1, 8, 952, 863, 744,H
2025-03-10 12:57:28.934,994, 501, 313, -5, 1, -5, -5, 0, 8, 954, 879, 747,H
2025-03-10 12:57:28.992,704, 481, 581, 15, -13, -10, -5, 0, 8, 966, 900, 711,H
2025-03-10 12:57:29.044,669, 816, 94, 39, 25, 18, -6, 2, 11, 968, 895, 607,H
2025-03-10 12:57:29.094,699, 504, 268, -5, 23, 7, -7, 0, 10, 966, 885, 633,H
2025-03-10 12:57:29.156,592, 698, 547, -21, 9, -32, -7, 0, 10, 963, 868, 644,H
2025-03-10 12:57:29.209,795, 641, 305, -2, -13, 1, -6, 1, 10, 970, 909, 638,H
2025-03-10 12:57:29.267,498, 588, 332, -14, 19, 32, -5, 1, 9, 969, 921, 755,H
2025-03-10 12:57:29.316,645, 578, 539, -8, -16, -17, -6, 1, 8, 966, 916, 803,H
2025-03-10 12:57:29.377,688, 541, 324, 21, -7, 0, -8, 0, 10, 970, 913, 767,H
2025-03-10 12:57:29.425,930, 653, 308, 0, 29, 29, -7, 1, 10, 978, 903, 696,H
2025-03-10 12:57:29.484,811, 348, 652, -10, 0, -16, -7, -1, 10, 963, 881, 769,H
2025-03-10 12:57:29.544,594, 552, 600, -38, 13, -37, -5, 0, 8, 958, 881, 754,H
2025-03-10 12:57:29.840,718, 545, 436, -2, -1, -3, -7, 2, 7, 953, 849, 680,I
2025-03-10 12:57:29.891,706, 551, 442, -1, -1, -4, -6, 2, 7, 951, 850, 683,I
2025-03-10 12:57:29.945,702, 581, 462, -3, -3, -2, -5, 2, 6, 955, 855, 676,I
2025-03-10 12:57:30.004,674, 563, 434, -3, -2, -2, -5, 1, 7, 953, 854, 659,I
2025-03-10 12:57:30.051,652, 561, 486, 4, -6, 1, -7, 1, 7, 954, 833, 572,I
2025-03-10 12:57:30.106,768, 496, 372, 8, -5, -9, -6, 2, 8, 957, 876, 563,I
2025-03-10 12:57:30.164,395, 606, 272, 1, -10, 29, -5, 0, 11, 971, 927, 667,I
2025-03-10 12:57:30.214,673, 429, 473, 7, 23, 17, -8, 0, 9, 973, 928, 773,I
2025-03-10 12:57:30.267,643, 543, 467, -14, 14, -39, -7, 0, 8, 965, 912, 784,I
2025-03-10 12:57:30.327,755, 590, 432, 0, -11, -3, -5, -1, 9, 969, 911, 737,I
2025-03-10 12:57:30.377,843, 592, 315, 24, 36, 31, -7, -1, 8, 972, 909, 704,I
2025-03-10 12:57:30.434,672, 494, 417, 10, 13, -29, -6, 0, 9, 966, 866, 705,I
2025-03-10 12:57:30.491,893, 737, 440, 5, -13, -3, -5, -1, 9, 968, 901, 656,I
2025-03-10 12:57:30.544,567, 629, 307, -9, -2, 28, -7, 0, 10, 972, 927, 753,I
2025-03-10 12:57:30.606,935, 260, 169, -36, 35, -51, -5, 0, 11, 960, 907, 790,I
2025-03-10 12:57:30.658,630, 613, 638, -14, 18, -38, -5, 0, 8, 945, 839, 732,I
2025-03-10 12:57:30.944,668, 575, 472, -2, -3, 0, -5, 0, 9, 950, 855, 722,J
2025-03-10 12:57:30.998,687, 587, 463, -2, -3, 0, -5, 0, 6, 950, 856, 721,J
2025-03-10 12:57:31.044,702, 561, 438, -3, -5, 0, -6, 1, 7, 949, 860, 721,J
2025-03-10 12:57:31.106,648, 580, 463, -2, -8, -1, -6, 1, 8, 951, 859, 691,J
2025-03-10 12:57:31.158,661, 536, 524, 1, -36, 4, -7, 2, 9, 954, 858, 617,J
2025-03-10 12:57:31.208,680, 846, 466, 19, -25, 15, -6, 0, 9, 970, 917, 619,J
2025-03-10 12:57:31.264,566, 463, 360, 2, 14, 23, -7, 0, 9, 973, 927, 746,J
2025-03-10 12:57:31.323,695, 391, 347, -2, 12, -38, -7, 2, 9, 964, 907, 763,J
2025-03-10 12:57:31.376,793, 281, 433, 16, -3, -13, -7, 1, 10, 967, 895, 722,J
2025-03-10 12:57:31.425,700, 380, 348, 15, 20, 26, -6, -1, 10, 976, 914, 666,J
2025-03-10 12:57:31.490,697, 552, 238, -38, 23, 11, -8, 2, 9, 973, 905, 561,J
2025-03-10 12:57:31.542,985, 405, 382, 7, 7, -14, -6, 1, 8, 958, 837, 639,J
2025-03-10 12:57:31.595,512, 548, 764, -19, 37, -16, -5, 1, 7, 953, 822, 661,J
2025-03-10 12:57:31.919,683, 549, 475, 0, -9, 2, -5, 2, 7, 948, 818, 636,K
2025-03-10 12:57:31.965,677, 561, 484, 1, -11, 2, -5, 1, 8, 949, 817, 633,K
2025-03-10 12:57:32.026,713, 557, 435, -1, -12, 4, -7, 3, 8, 950, 824, 627,K
2025-03-10 12:57:32.076,714, 561, 425, -4, -12, 0, -7, 1, 8, 951, 836, 620,K
2025-03-10 12:57:32.134,716, 496, 476, -11, -7, -9, -7, 0, 8, 958, 867, 564,K
2025-03-10 12:57:32.191,698, 455, 582, 25, -15, -10, -7, 1, 7, 966, 886, 526,K
2025-03-10 12:57:32.244,967, 585, 243, 17, 21, 25, -7, 0, 10, 972, 871, 402,K
2025-03-10 12:57:32.294,947, 351, 552, -5, 2, 8, -8, 0, 8, 973, 926, 595,K
2025-03-10 12:57:32.344,741, 563, 476, 4, -16, -3, -7, 0, 8, 972, 931, 732,K
2025-03-10 12:57:32.404,681, 561, 291, 3, 27, -2, -8, 1, 9, 966, 901, 731,K
2025-03-10 12:57:32.458,733, 712, 287, -35, -8, -21, -6, 0, 8, 965, 879, 656,K
2025-03-10 12:57:32.517,1047, 702, 304, -12, 17, 42, -6, -1, 10, 979, 925, 681,K
2025-03-10 12:57:32.572,694, 522, 493, 2, 11, 6, -8, 0, 8, 974, 918, 767,K
2025-03-10 12:57:32.625,584, 553, 469, -33, 40, -54, -6, 2, 8, 958, 862, 695,K
2025-03-10 12:57:32.924,694, 561, 463, 4, -12, 5, -5, 0, 8, 947, 823, 662,L
2025-03-10 12:57:32.977,703, 551, 454, 6, -13, 5, -6, 1, 8, 949, 826, 664,L
2025-03-10 12:57:33.034,742, 562, 375, 0, -3, 2, -5, 0, 9, 949, 830, 670,L
2025-03-10 12:57:33.084,710, 579, 435, -3, 2, -2, -5, 1, 9, 948, 843, 662,L
2025-03-10 12:57:33.142,691, 562, 435, -1, -8, -1, -6, 0, 7, 951, 862, 654,L
2025-03-10 12:57:33.194,766, 382, 272, -3, -3, -10, -7, 0, 8, 953, 883, 673,L
2025-03-10 12:57:33.244,713, 529, 544, 8, -11, -8, -9, 1, 9, 966, 904, 629,L
2025-03-10 12:57:33.294,782, 721, 347, 45, 25, 12, -8, 0, 8, 970, 896, 559,L
2025-03-10 12:57:33.358,762, 524, 267, 16, 5, -1, -7, 0, 11, 977, 897, 419,L
2025-03-10 12:57:33.409,477, 723, 348, -7, -1, 28, -6, 1, 10, 976, 928, 656,L
2025-03-10 12:57:33.465,718, 513, 407, 0, 12, 4, -8, 0, 9, 973, 922, 744,L
2025-03-10 12:57:33.518,679, 599, 321, -53, 55, -50, -7, 1, 9, 959, 875, 682,L
2025-03-10 12:57:33.844,716, 573, 445, 3, -11, 4, -5, 1, 7, 948, 835, 605,M
2025-03-10 12:57:33.894,720, 566, 420, 2, -9, 4, -5, 1, 7, 946, 836, 607,M
2025-03-10 12:57:33.947,707, 561, 422, -2, -6, 1, -6, 1, 8, 945, 840, 613,M
2025-03-10 12:57:34.007,708, 566, 425, -1, -7, -1, -7, 1, 8, 947, 845, 621,M
2025-03-10 12:57:34.061,718, 560, 404, -5, -10, -2, -5, 2, 7, 946, 850, 627,M
2025-03-10 12:57:34.115,712, 595, 430, -11, -4, -8, -6, 2, 8, 949, 875, 644,M
2025-03-10 12:57:34.174,683, 439, 667, 15, -21, -12, -6, 2, 9, 963, 893, 540,M
2025-03-10 12:57:34.227,1052, 673, 151, 47, 25, 28, -5, 1, 11, 969, 889, 399,M
2025-03-10 12:57:34.284,720, 783, 429, -30, 24, 14, -6, 0, 9, 964, 877, 542,M
2025-03-10 12:57:34.342,712, 591, 537, -20, -25, -17, -6, 0, 10, 963, 903, 650,M
2025-03-10 12:57:34.394,687, 666, 374, 21, -12, 1, -5, 0, 10, 972, 923, 646,M
2025-03-10 12:57:34.444,752, 175, 336, 12, 15, 14, -7, 1, 11, 973, 922, 662,M
2025-03-10 12:57:34.506,683, 407, 624, -3, -9, -7, -6, 1, 11, 968, 925, 776,M
2025-03-10 12:57:34.559,716, 567, 500, 20, -16, -5, -7, 1, 9, 971, 927, 779,M
2025-03-10 12:57:34.614,860, 620, 217, 2, 26, 21, -8, -1, 9, 973, 920, 736,M
2025-03-10 12:57:34.673,899, 386, 300, -29, 11, -35, -7, 1, 10, 965, 908, 772,M
2025-03-10 12:57:34.727,626, 562, 542, -34, 21, -30, -5, 0, 7, 958, 897, 744,M
2025-03-10 12:57:35.004,710, 555, 427, 1, -2, -1, -7, 1, 9, 948, 842, 583,N
2025-03-10 12:57:35.058,713, 553, 428, 1, -3, -2, -6, 1, 10, 951, 844, 582,N
2025-03-10 12:57:35.111,711, 563, 447, -3, -5, -2, -6, 0, 7, 947, 845, 599,N
2025-03-10 12:57:35.164,704, 569, 450, 0, -8, -5, -7, 1, 7, 947, 842, 613,N
2025-03-10 12:57:35.222,701, 527, 446, -3, -18, -15, -5, 1, 10, 950, 854, 610,N
2025-03-10 12:57:35.275,721, 468, 610, 19, -11, -9, -7, 1, 9, 961, 877, 566,N
2025-03-10 12:57:35.332,600, 690, 224, 36, 29, 21, -6, 1, 10, 966, 861, 539,N
2025-03-10 12:57:35.391,653, 423, 627, -19, -13, -10, -6, 0, 11, 958, 860, 705,N
2025-03-10 12:57:35.444,488, 641, 718, -11, -51, 1, -6, 0, 10, 957, 885, 763,N
2025-03-10 12:57:35.494,703, 768, 70, 31, 12, 16, -4, 0, 10, 970, 893, 730,N
2025-03-10 12:57:35.557,679, 592, 226, -2, 17, 26, -8, 0, 12, 969, 891, 703,N
2025-03-10 12:57:35.614,860, 412, 365, -11, -25, -15, -7, 1, 10, 969, 910, 729,N
2025-03-10 12:57:35.669,867, 608, 305, -3, 16, 8, -8, 0, 9, 954, 871, 805,N
2025-03-10 12:57:35.725,626, 580, 551, -30, 48, -27, -6, -1, 8, 950, 838, 785,N
2025-03-10 12:57:36.047,686, 577, 467, 0, -7, 3, -6, 0, 9, 944, 798, 658,O
2025-03-10 12:57:36.106,689, 578, 460, 0, -8, 4, -5, 0, 7, 941, 800, 660,O
2025-03-10 12:57:36.156,708, 566, 421, 2, -7, 2, -5, 2, 8, 940, 803, 661,O
2025-03-10 12:57:36.207,701, 561, 452, 0, -6, 2, -7, 1, 8, 944, 813, 655,O
2025-03-10 12:57:36.259,714, 584, 410, 3, -9, 7, -7, 1, 8, 945, 826, 671,O
2025-03-10 12:57:36.314,685, 565, 462, 4, -12, 6, -6, 0, 9, 949, 839, 686,O
2025-03-10 12:57:36.369,784, 561, 398, 0, -7, -15, -7, -1, 9, 951, 869, 617,O
2025-03-10 12:57:36.424,782, 426, 486, 43, -5, -15, -5, -1, 10, 960, 853, 501,O
2025-03-10 12:57:36.479,303, 552, 218, -9, 41, 42, -6, -1, 11, 973, 894, 649,O
2025-03-10 12:57:36.540,471, 350, 785, -19, -26, -17, -7, 0, 9, 966, 915, 760,O
2025-03-10 12:57:36.598,794, 566, 383, -9, -9, -20, -8, 0, 9, 949, 892, 798,O
2025-03-10 12:57:36.646,770, 570, 349, -26, 54, -32, -5, 0, 8, 940, 833, 762,O
2025-03-10 12:57:36.707,584, 653, 582, -13, 27, -9, -4, 0, 7, 937, 768, 677,O
2025-03-10 12:57:36.757,626, 621, 524, 3, -6, 1, -5, 1, 6, 937, 741, 644,O
2025-03-10 12:57:36.974,670, 596, 489, -3, 0, 1, -4, 0, 5, 928, 723, 596,P
2025-03-10 12:57:37.028,657, 599, 490, -3, -1, 1, -4, 0, 5, 929, 721, 593,P
2025-03-10 12:57:37.074,679, 597, 458, 2, -4, 1, -6, 0, 6, 930, 735, 598,P
2025-03-10 12:57:37.134,667, 570, 475, -3, -1, 1, -4, 1, 6, 930, 743, 598,P
2025-03-10 12:57:37.184,653, 591, 493, 2, -5, 2, -4, 0, 6, 933, 745, 587,P
2025-03-10 12:57:37.237,681, 591, 478, 2, -8, 4, -4, 0, 5, 932, 761, 597,P
2025-03-10 12:57:37.291,682, 590, 453, 0, -5, 3, -5, 0, 7, 932, 767, 597,P
2025-03-10 12:57:37.340,688, 572, 464, 1, -6, 3, -4, 1, 7, 932, 769, 587,P
2025-03-10 12:57:37.392,692, 577, 448, 1, -7, 2, -5, 0, 7, 934, 786, 597,P
2025-03-10 12:57:37.444,709, 570, 438, -2, -2, 0, -6, 1, 7, 937, 797, 607,P
2025-03-10 12:57:37.494,680, 588, 456, -3, -2, 0, -5, 0, 8, 939, 797, 602,P
2025-03-10 12:57:37.547,691, 575, 485, 2, -9, 3, -5, 0, 6, 938, 808, 633,P
2025-03-10 12:57:37.606,663, 586, 426, 3, -12, 3, -6, 0, 8, 941, 812, 628,P
2025-03-10 12:57:37.658,715, 517, 385, 5, -35, -21, -6, 0, 8, 946, 846, 584,P
2025-03-10 12:57:37.714,723, 509, 477, 22, -9, -9, -6, -1, 8, 962, 880, 543,P
2025-03-10 12:57:37.766,241, 418, 255, 38, 47, 46, -4, 1, 9, 973, 889, 512,P
2025-03-10 12:57:37.825,664, 343, 746, -10, -20, -24, -7, 1, 10, 966, 894, 654,P
2025-03-10 12:57:37.884,931, 561, 604, -10, -29, -8, -5, -1, 11, 968, 923, 766,P
2025-03-10 12:57:37.940,691, 901, 241, -16, 0, 23, -8, 0, 11, 974, 930, 715,P
2025-03-10 12:57:37.994,810, 488, 248, 2, 23, -1, -7, 0, 11, 969, 895, 629,P
2025-03-10 12:57:38.044,817, 558, 211, -44, 69, -48, -5, 0, 10, 960, 857, 658,P
2025-03-10 12:57:38.105,472, 677, 732, -12, 7, -11, -4, 0, 6, 954, 845, 666,P
2025-03-10 12:57:38.157,643, 603, 508, 20, -32, 13, -5, 0, 5, 949, 820, 647,P
2025-03-10 12:57:38.214,745, 559, 355, 4, -16, 5, -5, 0, 9, 946, 804, 613,P
2025-03-10 12:57:38.265,717, 593, 398, -6, 7, -3, -6, 1, 7, 944, 800, 589,P
2025-03-10 12:57:38.638,702, 571, 418, 3, -7, 4, -6, 1, 8, 946, 812, 603,Q
2025-03-10 12:57:38.689,699, 576, 422, 3, -6, 4, -4, 1, 7, 946, 814, 609,Q
2025-03-10 12:57:38.740,697, 576, 443, 1, -5, 4, -5, 1, 8, 948, 822, 618,Q
2025-03-10 12:57:38.790,719, 586, 414, 3, -6, 4, -6, 2, 9, 949, 827, 635,Q
2025-03-10 12:57:38.844,717, 581, 415, 2, 0, 4, -6, -1, 7, 950, 837, 657,Q
2025-03-10 12:57:38.895,709, 582, 433, 5, -2, 10, -8, 0, 9, 952, 854, 692,Q
2025-03-10 12:57:38.954,657, 579, 487, 8, -15, 16, -6, 1, 8, 954, 870, 718,Q
2025-03-10 12:57:39.007,618, 464, 395, -10, -16, -17, -6, 0, 10, 958, 899, 655,Q
2025-03-10 12:57:39.066,1383, 358, 654, 48, -21, -24, -6, 0, 10, 965, 901, 535,Q
2025-03-10 12:57:39.124,936, 414, -37, -2, 65, 55, -6, -1, 13, 974, 908, 610,Q
2025-03-10 12:57:39.174,429, 357, 773, -16, -28, -16, -8, 0, 9, 973, 922, 726,Q
2025-03-10 12:57:39.240,860, 552, 243, 3, 11, -16, -7, -1, 11, 963, 894, 734,Q
2025-03-10 12:57:39.290,691, 596, 588, 0, -25, -15, -6, 0, 11, 965, 878, 636,Q
2025-03-10 12:57:39.344,682, 508, 416, -17, 13, 37, -8, -1, 9, 975, 917, 614,Q
2025-03-10 12:57:39.404,806, 384, 436, -5, 15, 1, -8, 0, 9, 970, 904, 692,Q
2025-03-10 12:57:39.457,610, 501, 462, -39, 57, -63, -5, 1, 7, 954, 826, 610,Q
2025-03-10 12:57:39.744,697, 554, 462, 1, -10, 4, -6, 0, 9, 935, 806, 590,R
2025-03-10 12:57:39.794,700, 563, 467, 3, -10, 4, -6, 0, 9, 935, 808, 593,R
2025-03-10 12:57:39.846,693, 580, 426, 5, -13, 4, -7, 0, 8, 938, 814, 593,R
2025-03-10 12:57:39.904,680, 584, 422, 0, -20, 1, -6, 1, 8, 938, 826, 615,R
2025-03-10 12:57:39.957,836, 583, 376, -18, -4, -9, -7, 0, 9, 947, 859, 503,R
2025-03-10 12:57:40.014,813, 704, 336, 64, 18, 21, -7, 0, 10, 967, 884, 558,R
2025-03-10 12:57:40.064,687, 507, 45, -4, 27, 20, -7, 1, 11, 970, 885, 559,R
2025-03-10 12:57:40.124,537, 644, 196, -2, -55, -69, -6, -1, 10, 959, 891, 660,R
2025-03-10 12:57:40.174,771, 521, 606, -1, -33, -5, -5, 1, 9, 972, 928, 708,R
2025-03-10 12:57:40.234,631, 753, 253, -6, 32, 33, -6, 0, 11, 978, 928, 592,R
2025-03-10 12:57:40.288,769, 534, 388, 2, 26, 20, -8, 0, 9, 975, 917, 523,R
2025-03-10 12:57:40.340,759, 622, 473, -9, 16, 28, -8, 2, 10, 978, 923, 683,R
2025-03-10 12:57:40.394,528, 492, 612, -44, 69, -52, -5, 3, 6, 964, 891, 631,R
2025-03-10 12:57:40.694,744, 544, 417, 9, -20, 14, -5, 1, 9, 948, 864, 708,S
2025-03-10 12:57:40.744,739, 545, 403, 7, -19, 12, -5, 2, 8, 949, 866, 711,S
2025-03-10 12:57:40.794,708, 562, 436, 2, -16, 7, -7, 0, 8, 953, 884, 738,S
2025-03-10 12:57:40.854,709, 585, 354, -14, -2, -7, -7, 0, 8, 953, 902, 703,S
2025-03-10 12:57:40.906,631, 443, 493, 27, -2, -11, -6, 2, 7, 962, 903, 569,S
2025-03-10 12:57:40.964,847, 631, 224, 38, 27, 22, -6, 0, 9, 970, 911, 634,S
2025-03-10 12:57:41.016,614, 648, 450, -9, 23, 19, -7, 0, 9, 977, 919, 606,S
2025-03-10 12:57:41.074,912, 429, 464, 16, 10, -12, -7, 1, 10, 963, 856, 526,S
2025-03-10 12:57:41.124,840, 513, 193, -42, 66, -46, -8, 1, 9, 946, 783, 573,S
2025-03-10 12:57:41.184,501, 661, 709, -15, 18, -22, -5, 1, 6, 942, 792, 574,S
2025-03-10 12:57:41.485,698, 567, 429, -1, -12, 3, -6, 1, 8, 933, 822, 580,T
2025-03-10 12:57:41.539,696, 559, 437, -1, -13, 3, -6, 1, 8, 935, 823, 575,T
2025-03-10 12:57:41.594,718, 556, 410, -3, -7, -2, -6, 2, 8, 937, 815, 531,T
2025-03-10 12:57:41.644,689, 548, 458, 1, -9, -3, -6, 1, 8, 937, 795, 511,T
2025-03-10 12:57:41.695,791, 434, 355, 5, -7, -17, -7, 0, 10, 946, 806, 417,T
2025-03-10 12:57:41.757,733, 925, 599, 20, -31, 21, -6, 2, 10, 970, 913, 552,T
2025-03-10 12:57:41.806,687, 518, 427, 12, 10, 12, -7, 0, 9, 972, 928, 725,T
2025-03-10 12:57:41.870,726, 423, 406, 2, 10, -21, -8, 0, 10, 962, 900, 746,T
2025-03-10 12:57:41.923,703, 563, 685, 13, -11, -15, -7, 1, 9, 965, 899, 701,T
2025-03-10 12:57:41.974,364, 732, 170, 26, 27, 23, -6, 0, 9, 974, 907, 597,T
2025-03-10 12:57:42.024,814, 627, 195, -6, 29, 5, -7, 1, 9, 965, 881, 655,T
2025-03-10 12:57:42.087,670, 557, 462, -48, 72, -46, -5, 0, 8, 953, 862, 667,T
2025-03-10 12:57:42.394,724, 559, 423, -3, -6, -1, -6, 0, 7, 938, 813, 549,U
2025-03-10 12:57:42.446,721, 563, 431, -3, -6, -2, -6, 0, 9, 938, 812, 550,U
2025-03-10 12:57:42.504,671, 575, 472, -3, -14, -3, -6, 0, 8, 939, 809, 534,U
2025-03-10 12:57:42.556,651, 620, 535, -13, -10, -14, -6, 2, 9, 946, 851, 459,U
2025-03-10 12:57:42.614,1020, 808, 465, 78, 26, 29, -5, 1, 9, 971, 885, 523,U
2025-03-10 12:57:42.664,640, 654, 58, -5, 19, 22, -8, 0, 11, 970, 907, 631,U
2025-03-10 12:57:42.724,381, 523, 459, -20, -26, -26, -7, 1, 9, 963, 918, 736,U
2025-03-10 12:57:42.774,688, 569, 300, 31, -13, -6, -8, 1, 9, 969, 920, 728,U
2025-03-10 12:57:42.837,794, 570, 40, -5, 27, 19, -8, 1, 9, 970, 913, 724,U
2025-03-10 12:57:42.889,886, 516, 21, -44, 38, -53, -6, 1, 10, 963, 906, 733,U
2025-03-10 12:57:43.184,687, 562, 488, 2, -4, -2, -6, 2, 7, 941, 801, 540,V
2025-03-10 12:57:43.244,716, 561, 463, 1, -5, -1, -6, 2, 7, 938, 803, 529,V
2025-03-10 12:57:43.294,671, 581, 480, -1, -10, -3, -5, 0, 6, 934, 804, 510,V
2025-03-10 12:57:43.354,1617, 307, 234, -20, -10, -13, -6, 0, 8, 938, 828, 491,V
2025-03-10 12:57:43.404,725, 603, 406, 19, 9, 9, -5, 1, 9, 960, 883, 517,V
2025-03-10 12:57:43.464,1164, 912, 429, 15, 23, 42, -8, 1, 8, 969, 899, 515,V
2025-03-10 12:57:43.521,522, 260, 300, -7, -43, -21, -7, 1, 9, 966, 933, 664,V
2025-03-10 12:57:43.574,761, 631, 346, -3, 10, 7, -8, 1, 8, 960, 927, 796,V
2025-03-10 12:57:43.624,662, 579, 533, -43, 67, -34, -8, 0, 7, 948, 896, 738,V
2025-03-10 12:57:43.684,537, 597, 720, -13, 2, -5, -5, 0, 5, 944, 847, 650,V
2025-03-10 12:57:43.985,668, 569, 466, 12, -2, -2, -5, 0, 8, 924, 690, 455,W
2025-03-10 12:57:44.040,670, 570, 464, 11, -3, -2, -5, 2, 6, 925, 694, 451,W
2025-03-10 12:57:44.094,660, 578, 466, 8, -15, -2, -5, 2, 7, 923, 724, 448,W
2025-03-10 12:57:44.144,696, 577, 469, 5, -27, 7, -8, 1, 7, 927, 756, 460,W
2025-03-10 12:57:44.204,750, 493, 426, 18, -6, -6, -5, 1, 9, 956, 852, 380,W
2025-03-10 12:57:44.257,940, 363, 440, 11, 23, 46, -5, 1, 8, 965, 893, 514,W
2025-03-10 12:57:44.307,709, 481, 415, -25, -12, 4, -6, 1, 8, 963, 921, 604,W
2025-03-10 12:57:44.364,628, 491, 505, 0, -13, -6, -6, 1, 8, 964, 926, 682,W
2025-03-10 12:57:44.422,693, 554, 354, 18, 19, 31, -7, 1, 9, 968, 919, 681,W
2025-03-10 12:57:44.475,777, 306, 717, -26, -15, -3, -8, 2, 9, 970, 934, 674,W
2025-03-10 12:57:44.524,818, 652, 184, 5, 18, 11, -8, 2, 8, 963, 930, 799,W
2025-03-10 12:57:44.584,616, 453, 623, -41, 83, -42, -6, 1, 4, 963, 922, 748,W
2025-03-10 12:57:44.638,448, 575, 768, -9, 11, -10, -3, 1, 1, 951, 870, 674,W
2025-03-10 12:57:44.929,678, 547, 504, 4, -16, 6, -5, 1, 4, 944, 803, 512,X
2025-03-10 12:57:44.987,679, 556, 505, 6, -18, 7, -5, 1, 5, 944, 812, 510,X
2025-03-10 12:57:45.038,706, 548, 486, 15, -24, 9, -5, 1, 7, 945, 848, 606,X
2025-03-10 12:57:45.089,691, 544, 501, 28, -35, 19, -6, 1, 8, 953, 899, 735,X
2025-03-10 12:57:45.144,676, 522, 448, 1, -18, -11, -6, 0, 9, 959, 926, 658,X
2025-03-10 12:57:45.204,928, 712, 207, 26, 15, -2, -7, -1, 10, 967, 915, 409,X
2025-03-10 12:57:45.256,899, 475, 238, -19, 33, 8, -6, 0, 8, 960, 872, 393,X
2025-03-10 12:57:45.314,703, 657, 371, -14, -19, -25, -5, 1, 9, 953, 875, 617,X
2025-03-10 12:57:45.372,724, 656, 498, 26, -23, 10, -7, -1, 8, 969, 923, 608,X
2025-03-10 12:57:45.424,741, 647, 120, 2, 28, 31, -7, 1, 9, 977, 928, 609,X
2025-03-10 12:57:45.474,772, 290, 582, -13, -20, -32, -7, 0, 9, 961, 899, 687,X
2025-03-10 12:57:45.538,579, 585, 625, -23, 1, -28, -5, 2, 7, 945, 876, 592,X
2025-03-10 12:57:45.834,711, 561, 421, -1, 3, -1, -6, 1, 8, 944, 844, 519,Y
2025-03-10 12:57:45.884,713, 549, 439, 1, 4, -1, -7, 0, 9, 943, 842, 511,Y
2025-03-10 12:57:45.937,696, 581, 424, 3, -3, -2, -6, 0, 7, 944, 849, 519,Y
2025-03-10 12:57:45.994,743, 464, 491, 0, -7, -13, -5, 1, 9, 952, 879, 467,Y
2025-03-10 12:57:46.044,720, 628, 217, 9, 12, 34, -7, 1, 8, 972, 925, 525,Y
2025-03-10 12:57:46.094,684, 559, 312, -3, 22, 21, -7, 0, 8, 971, 929, 682,Y
2025-03-10 12:57:46.154,453, 657, 912, -8, 5, -18, -7, 1, 6, 964, 927, 737,Y
2025-03-10 12:57:46.204,919, 1031, 309, 2, -19, 6, -8, 1, 9, 973, 936, 696,Y
2025-03-10 12:57:46.256,721, 551, 364, 7, 21, 17, -6, 0, 9, 975, 924, 486,Y
2025-03-10 12:57:46.312,776, 507, 292, -1, 30, 4, -7, 1, 12, 962, 877, 543,Y
2025-03-10 12:57:46.371,645, 623, 415, -52, 44, -45, -6, 0, 7, 950, 864, 596,Y
2025-03-10 12:57:46.424,520, 671, 714, -6, -21, 2, -6, 2, 8, 952, 882, 548,Y
2025-03-10 12:57:46.724,697, 578, 442, -6, -1, -3, -5, 0, 7, 947, 851, 515,Z
2025-03-10 12:57:46.775,682, 571, 457, -7, -2, -4, -8, 2, 8, 947, 847, 512,Z
2025-03-10 12:57:46.834,624, 571, 539, 6, -26, 4, -7, 2, 8, 948, 838, 482,Z
2025-03-10 12:57:46.886,830, 403, 354, 18, 0, -2, -8, 2, 8, 958, 906, 445,Z
2025-03-10 12:57:46.939,508, 423, 451, 26, 0, 19, -6, 1, 10, 970, 942, 672,Z
2025-03-10 12:57:46.988,773, 577, 590, 15, 22, 11, -6, 0, 9, 976, 933, 640,Z
2025-03-10 12:57:47.044,595, 519, 257, -15, 1, -9, -7, 1, 11, 973, 870, 297,Z
2025-03-10 12:57:47.104,821, 618, 392, 11, -1, 31, -7, -1, 11, 977, 940, 545,Z
2025-03-10 12:57:47.156,622, 311, 276, 2, 14, 9, -9, 1, 9, 980, 948, 658,Z
2025-03-10 12:57:47.214,826, 349, 106, -29, 16, -63, -7, 0, 10, 965, 898, 655,Z
2025-03-10 12:57:47.270,645, 746, 748, 25, -66, 26, -5, 1, 11, 964, 858, 621,Z
2025-03-10 12:57:47.324,533, 1089, 119, -8, -14, 35, -6, -1, 10, 977, 949, 631,Z
2025-03-10 12:57:47.376,647, 536, 351, 1, 14, 10, -8, 0, 10, 973, 946, 740,Z
2025-03-10 12:57:47.437,992, 363, 156, -37, 54, -41, -7, 0, 9, 958, 894, 714,Z
2025-03-10 12:57:47.494,562, 594, 654, -26, 24, -23, -5, 1, 7, 949, 767, 636,Z
2025-03-10 12:57:47.759,735, 562, 403, -1, -6, 7, -7, 0, 9, 944, 795, 584,a
2025-03-10 12:57:47.814,729, 562, 394, -2, -5, 6, -6, 1, 9, 944, 802, 587,a
2025-03-10 12:57:47.870,719, 571, 394, -11, 3, 1, -6, 3, 9, 948, 823, 578,a
2025-03-10 12:57:47.922,703, 560, 434, -5, -4, -1, -7, -1, 9, 948, 837, 575,a
2025-03-10 12:57:47.974,735, 554, 412, -1, 4, 1, -7, 0, 9, 948, 846, 584,a
2025-03-10 12:57:48.025,719, 575, 414, 6, 2, 1, -7, -1, 10, 952, 850, 589,a
2025-03-10 12:57:48.077,732, 571, 422, 4, 2, 5, -8, 0, 10, 952, 861, 598,a
2025-03-10 12:57:48.130,704, 558, 449, 2, -1, 5, -6, 1, 9, 954, 870, 609,a
2025-03-10 12:57:48.190,784, 312, 249, 17, -3, -7, -7, 1, 10, 960, 887, 610,a
2025-03-10 12:57:48.238,711, 502, 456, -10, 2, -5, -6, 0, 10, 958, 896, 582,a
2025-03-10 12:57:48.294,643, 448, 554, 5, -15, -21, -6, 0, 10, 961, 913, 472,a
2025-03-10 12:57:48.357,666, 653, 329, -9, 24, 12, -7, 1, 10, 970, 911, 337,a
2025-03-10 12:57:48.405,750, 572, 398, -17, 9, 15, -7, 2, 9, 970, 924, 370,a
2025-03-10 12:57:48.468,783, 596, 421, 11, -14, -16, -7, -1, 11, 969, 929, 595,a
2025-03-10 12:57:48.521,661, 750, 170, 8, 25, 22, -7, 0, 9, 973, 932, 607,a
2025-03-10 12:57:48.574,913, 323, 249, -30, 19, -26, -7, -1, 10, 964, 915, 691,a
2025-03-10 12:57:48.636,607, 611, 639, -23, -3, -23, -7, 1, 6, 960, 910, 674,a
2025-03-10 12:57:48.860,694, 581, 437, -9, -1, -6, -6, 1, 8, 947, 863, 545,b
2025-03-10 12:57:48.914,680, 581, 438, -9, -2, -5, -6, 2, 8, 946, 859, 537,b
2025-03-10 12:57:48.967,720, 541, 426, -4, -4, -2, -6, 0, 8, 945, 846, 523,b
2025-03-10 12:57:49.021,667, 585, 519, 2, -17, 6, -7, 1, 7, 947, 863, 553,b
2025-03-10 12:57:49.074,748, 426, 578, 8, -2, -5, -8, 0, 8, 954, 892, 525,b
2025-03-10 12:57:49.124,646, 555, 389, 42, 47, 45, -8, -1, 9, 967, 872, 419,b
2025-03-10 12:57:49.174,765, 657, 165, -8, 15, 3, -7, 0, 10, 958, 865, 459,b
2025-03-10 12:57:49.237,791, 718, 555, -20, -25, -7, -8, 1, 10, 967, 911, 630,b
2025-03-10 12:57:49.287,665, 677, 295, -3, -6, 6, -8, 1, 8, 973, 929, 581,b
2025-03-10 12:57:49.344,655, 415, 473, -27, 21, 9, -7, 1, 9, 966, 872, 383,b
2025-03-10 12:57:49.402,993, 475, 158, -6, 30, -36, -7, 0, 7, 947, 786, 568,b
2025-03-10 12:57:49.454,557, 604, 635, -11, 10, -22, -6, 1, 6, 942, 827, 595,b
2025-03-10 12:57:49.724,722, 557, 408, 6, -6, 8, -5, 1, 7, 946, 852, 627,c
2025-03-10 12:57:49.774,731, 567, 417, 6, -5, 9, -8, 0, 8, 948, 853, 629,c
2025-03-10 12:57:49.833,705, 544, 425, 4, -8, 4, -6, 1, 10, 950, 868, 643,c
2025-03-10 12:57:49.890,726, 531, 376, -3, -6, -10, -6, 1, 8, 952, 893, 593,c
2025-03-10 12:57:49.941,952, 477, 604, 5, -16, -16, -7, 0, 8, 962, 910, 440,c
2025-03-10 12:57:49.994,1039, 497, 377, 19, 16, 14, -6, 0, 10, 970, 916, 398,c
2025-03-10 12:57:50.053,661, 432, 617, 0, 18, 12, -8, 0, 8, 966, 931, 717,c
2025-03-10 12:57:50.105,651, 598, 422, -41, 79, -49, -5, 0, 8, 960, 909, 701,c
2025-03-10 12:57:50.164,483, 645, 768, -25, 12, -9, -4, 1, 6, 944, 856, 637,c
2025-03-10 12:57:50.471,691, 548, 471, 9, -19, 12, -7, 1, 8, 948, 865, 619,d
2025-03-10 12:57:50.524,695, 546, 468, 10, -22, 13, -8, 0, 7, 952, 872, 624,d
2025-03-10 12:57:50.575,651, 520, 522, -8, -9, -16, -7, 1, 9, 950, 909, 536,d
2025-03-10 12:57:50.637,799, 468, 463, 9, -21, -20, -5, 2, 8, 962, 917, 366,d
2025-03-10 12:57:50.687,816, 1109, 41, -13, 38, 39, -6, 0, 9, 971, 908, 296,d
2025-03-10 12:57:50.744,923, 614, 520, -47, 19, 26, -8, 1, 8, 968, 933, 444,d
2025-03-10 12:57:50.804,776, 322, 855, -10, -30, -21, -8, 1, 8, 961, 938, 642,d
2025-03-10 12:57:50.854,807, 445, 336, 31, 32, 18, -7, 0, 11, 967, 929, 535,d
2025-03-10 12:57:50.913,744, 494, 365, -1, 13, 9, -7, 1, 12, 967, 919, 590,d
2025-03-10 12:57:50.970,724, 588, 303, -38, 52, -39, -8, 1, 8, 958, 911, 641,d
2025-03-10 12:57:51.268,718, 536, 437, -1, 1, 0, -7, 2, 9, 946, 869, 547,e
2025-03-10 12:57:51.320,722, 536, 447, 0, 0, -1, -5, 1, 9, 946, 870, 556,e
2025-03-10 12:57:51.372,703, 572, 454, -1, 0, -1, -7, 0, 8, 946, 867, 546,e
2025-03-10 12:57:51.425,724, 544, 428, -3, 0, -1, -6, 0, 8, 945, 861, 528,e
2025-03-10 12:57:51.474,693, 564, 452, -3, -1, -3, -6, 0, 6, 946, 839, 485,e
2025-03-10 12:57:51.536,717, 550, 436, -5, -2, -2, -6, 0, 8, 940, 833, 493,e
2025-03-10 12:57:51.585,731, 571, 439, -2, -3, 1, -7, 0, 8, 946, 837, 490,e
2025-03-10 12:57:51.636,721, 560, 426, 0, -1, 0, -7, 1, 7, 945, 842, 492,e
2025-03-10 12:57:51.687,706, 553, 465, 3, -7, 5, -7, 2, 9, 947, 854, 511,e
2025-03-10 12:57:51.745,746, 561, 396, 2, -2, 0, -7, 1, 8, 949, 860, 521,e
2025-03-10 12:57:51.794,712, 552, 438, -1, 0, -1, -7, 1, 9, 947, 862, 536,e
2025-03-10 12:57:51.844,724, 571, 422, 0, -1, -1, -9, 1, 9, 948, 867, 532,e
2025-03-10 12:57:51.901,728, 558, 444, -1, -2, 0, -7, 0, 8, 951, 870, 527,e
2025-03-10 12:57:51.954,719, 547, 435, 0, -1, 0, -6, 1, 8, 949, 868, 533,e
2025-03-10 12:57:52.004,716, 546, 438, -1, -2, -6, -9, 2, 9, 951, 877, 497,e
2025-03-10 12:57:52.054,730, 557, 392, -2, -2, -3, -6, 1, 8, 955, 882, 489,e
2025-03-10 12:57:52.112,852, 715, 467, 18, 0, 14, -6, 1, 9, 964, 919, 559,e
2025-03-10 12:57:52.164,668, 560, 417, 4, 7, 7, -8, 1, 9, 968, 938, 728,e
2025-03-10 12:57:52.224,678, 528, 483, -10, -14, -21, -8, 1, 8, 966, 938, 707,e
2025-03-10 12:57:52.274,753, 370, 477, 42, 5, -6, -6, 1, 9, 970, 927, 544,e
2025-03-10 12:57:52.324,721, 712, 128, -3, 29, 25, -7, 0, 11, 971, 937, 646,e
2025-03-10 12:57:52.386,839, 393, 368, -15, 17, -21, -7, 1, 10, 964, 930, 750,e
2025-03-10 12:57:52.684,729, 538, 417, -2, 0, 0, -8, 0, 8, 950, 876, 605,f
2025-03-10 12:57:52.744,731, 530, 428, -1, 0, 0, -8, -1, 9, 950, 877, 599,f
2025-03-10 12:57:52.794,720, 546, 431, -3, 1, -1, -6, 0, 9, 950, 876, 606,f
2025-03-10 12:57:52.844,714, 556, 453, -1, 0, 1, -8, 1, 9, 951, 877, 598,f
2025-03-10 12:57:52.894,704, 554, 455, 0, 1, 6, -7, 1, 9, 958, 881, 597,f
2025-03-10 12:57:52.953,697, 672, 362, -14, 2, -1, -7, 1, 10, 958, 891, 483,f
2025-03-10 12:57:53.004,905, 664, 464, -16, -24, -31, -8, 0, 7, 964, 934, 474,f
2025-03-10 12:57:53.064,785, 541, 493, 14, -31, 2, -7, 1, 8, 967, 948, 682,f
2025-03-10 12:57:53.119,589, 548, 263, 12, 20, 16, -8, 0, 11, 966, 941, 707,f
2025-03-10 12:57:53.174,477, 821, 510, -10, 38, -45, -7, 0, 9, 959, 903, 610,f
2025-03-10 12:57:53.224,717, 1249, 727, 22, -17, -3, -8, 0, 10, 965, 929, 636,f
2025-03-10 12:57:53.286,897, 395, 314, -2, 16, 23, -7, 1, 10, 971, 945, 685,f
2025-03-10 12:57:53.337,855, 352, 284, -4, 19, -17, -8, 0, 11, 964, 923, 737,f
2025-03-10 12:57:53.624,734, 560, 406, -2, -1, 3, -7, 0, 9, 949, 871, 663,g
2025-03-10 12:57:53.674,730, 556, 424, -3, -2, 2, -6, 0, 9, 947, 873, 663,g
2025-03-10 12:57:53.727,670, 553, 471, 2, -10, 5, -7, 1, 11, 952, 883, 675,g
2025-03-10 12:57:53.785,654, 628, 477, -3, -10, -19, -6, 1, 9, 958, 919, 524,g
2025-03-10 12:57:53.839,860, 495, 278, 21, 2, -1, -7, 0, 12, 965, 916, 392,g
2025-03-10 12:57:53.895,681, 478, 341, -19, 35, 25, -7, 1, 10, 968, 924, 441,g
2025-03-10 12:57:53.953,696, 379, 458, 1, -15, -20, -7, 2, 10, 965, 929, 652,g
2025-03-10 12:57:54.005,742, 553, 530, 14, -13, -6, -8, -1, 11, 971, 935, 654,g
2025-03-10 12:57:54.067,463, 584, 131, -28, 37, 34, -6, 1, 11, 969, 923, 433,g
2025-03-10 12:57:54.120,734, 116, 628, -16, -1, -37, -8, 2, 7, 958, 856, 374,g
2025-03-10 12:57:54.174,712, 521, 603, -48, 20, -65, -5, 1, 5, 944, 859, 358,g
2025-03-10 12:57:54.236,383, 686, 779, -17, -15, -9, -3, 2, 4, 943, 876, 385,g
2025-03-10 12:57:54.512,701, 548, 409, 6, -7, 4, -5, 1, 7, 938, 852, 499,h
2025-03-10 12:57:54.561,709, 547, 416, 6, -7, 3, -6, 2, 8, 940, 852, 497,h
2025-03-10 12:57:54.614,677, 567, 464, 0, -14, 0, -5, 0, 8, 940, 858, 515,h
2025-03-10 12:57:54.669,742, 484, 453, -6, -7, -8, -6, 1, 8, 949, 887, 481,h
2025-03-10 12:57:54.724,630, 583, 599, 9, 33, 31, -6, 1, 10, 964, 893, 379,h
2025-03-10 12:57:54.774,775, 527, 201, -2, 12, 9, -7, 0, 8, 966, 892, 157,h
2025-03-10 12:57:54.825,916, 638, 344, 20, -28, -16, -8, 1, 8, 962, 920, 504,h
2025-03-10 12:57:54.885,627, 583, 428, 6, 4, 11, -8, 2, 11, 969, 932, 570,h
2025-03-10 12:57:54.936,804, 614, 230, -10, 25, 15, -8, 0, 10, 969, 920, 615,h
2025-03-10 12:57:55.001,690, 501, 521, -39, 55, -43, -6, 1, 6, 953, 881, 555,h
2025-03-10 12:57:55.300,729, 548, 433, 1, -5, 2, -7, 2, 7, 942, 839, 479,i
2025-03-10 12:57:55.353,725, 531, 442, 1, -4, 2, -7, 2, 7, 943, 839, 480,i
2025-03-10 12:57:55.404,685, 533, 469, 6, -11, 2, -6, 0, 7, 945, 847, 490,i
2025-03-10 12:57:55.454,773, 536, 425, 9, -10, -16, -8, 3, 9, 946, 877, 499,i
2025-03-10 12:57:55.512,732, 581, 459, 9, -2, -1, -7, 2, 9, 963, 909, 455,i
2025-03-10 12:57:55.567,682, 562, 391, 13, 16, 23, -7, 2, 10, 965, 907, 368,i
2025-03-10 12:57:55.624,866, 162, 455, -12, -47, -75, -7, 3, 8, 962, 909, 558,i
2025-03-10 12:57:55.678,797, 583, 257, 5, -15, -26, -6, 1, 10, 963, 937, 546,i
2025-03-10 12:57:55.734,824, 657, 387, 3, 14, 15, -6, 1, 8, 962, 929, 543,i
2025-03-10 12:57:55.787,749, 439, 359, -4, 37, -15, -7, 2, 7, 958, 911, 577,i
2025-03-10 12:57:56.091,724, 530, 452, 3, -5, 4, -7, 2, 7, 951, 876, 504,j
2025-03-10 12:57:56.144,730, 533, 441, 4, -4, 3, -8, 2, 7, 949, 876, 514,j
2025-03-10 12:57:56.192,723, 547, 453, 1, 0, 1, -8, 2, 7, 949, 879, 539,j
2025-03-10 12:57:56.244,729, 550, 436, 2, -3, 2, -6, 1, 7, 951, 883, 558,j
2025-03-10 12:57:56.300,721, 552, 457, 0, -1, 2, -8, 2, 7, 953, 886, 567,j
2025-03-10 12:57:56.344,728, 533, 444, 1, -3, 1, -6, 2, 10, 953, 887, 572,j
2025-03-10 12:57:56.402,728, 548, 416, 1, -4, 3, -6, 1, 8, 951, 887, 587,j
2025-03-10 12:57:56.454,732, 534, 434, -1, -1, 1, -8, 1, 9, 953, 891, 575,j
2025-03-10 12:57:56.504,728, 531, 422, 0, 0, 0, -6, 1, 9, 951, 889, 583,j
2025-03-10 12:57:56.554,728, 548, 432, -2, 0, -1, -9, 2, 8, 951, 890, 588,j
2025-03-10 12:57:56.604,729, 530, 434, -1, 0, -1, -5, 2, 8, 956, 893, 587,j
2025-03-10 12:57:56.664,729, 532, 430, -3, 0, -3, -9, 1, 8, 952, 897, 587,j
2025-03-10 12:57:56.717,704, 583, 498, 9, -1, 4, -7, 1, 8, 967, 917, 591,j
2025-03-10 12:57:56.771,643, 775, 83, -20, 23, 27, -8, 1, 8, 968, 919, 317,j
2025-03-10 12:57:56.824,747, 267, 490, -30, 14, -12, -8, 3, 8, 964, 873, 49,j
2025-03-10 12:57:56.882,422, 702, 822, -25, 2, -33, -7, 2, 7, 958, 904, 365,j
2025-03-10 12:57:56.934,789, 627, 279, -3, -26, 1, -6, 2, 8, 969, 935, 390,j
2025-03-10 12:57:56.986,826, 559, 646, 19, 13, 11, -7, 2, 8, 960, 906, 562,j
2025-03-10 12:57:57.044,750, 541, 250, -5, 47, -31, -6, 1, 9, 956, 887, 503,j
2025-03-10 12:57:57.329,729, 548, 425, -3, 1, 0, -7, 2, 7, 947, 869, 520,k
2025-03-10 12:57:57.385,727, 554, 420, -4, 1, -1, -7, 1, 8, 945, 868, 525,k
2025-03-10 12:57:57.436,708, 544, 466, -2, 0, 0, -7, 2, 9, 945, 867, 510,k
2025-03-10 12:57:57.486,724, 551, 431, -1, -1, 1, -6, 2, 8, 947, 870, 510,k
2025-03-10 12:57:57.537,722, 539, 448, -1, 0, 2, -7, 2, 8, 948, 870, 511,k
2025-03-10 12:57:57.594,723, 550, 459, 0, -1, 1, -6, 3, 8, 944, 870, 512,k
2025-03-10 12:57:57.644,729, 547, 431, -2, -1, -1, -6, 1, 8, 948, 871, 511,k
2025-03-10 12:57:57.701,733, 547, 436, -1, -2, 0, -8, 0, 10, 950, 875, 512,k
2025-03-10 12:57:57.753,727, 553, 435, -2, 1, -1, -7, 1, 8, 947, 873, 497,k
2025-03-10 12:57:57.804,741, 543, 421, -2, 0, -1, -7, 1, 7, 946, 873, 493,k
2025-03-10 12:57:57.854,725, 554, 438, -2, -2, -3, -6, 0, 9, 948, 874, 497,k
2025-03-10 12:57:57.917,716, 544, 452, -3, -1, -3, -8, 1, 9, 952, 878, 479,k
2025-03-10 12:57:57.970,698, 432, 385, -11, -7, -14, -7, 1, 8, 948, 885, 447,k
2025-03-10 12:57:58.025,703, 410, 534, 10, -13, -10, -6, 2, 8, 953, 894, 365,k
2025-03-10 12:57:58.076,845, 706, 332, 17, 23, 19, -6, 0, 9, 969, 878, 262,k
2025-03-10 12:57:58.134,945, 782, 336, 6, 5, 16, -7, 2, 9, 963, 918, 414,k
2025-03-10 12:57:58.186,633, 476, 600, 1, -9, -1, -8, 1, 10, 961, 931, 635,k
2025-03-10 12:57:58.237,686, 491, 310, -5, 4, -12, -9, 1, 9, 955, 883, 569,k
2025-03-10 12:57:58.294,614, 602, 599, 14, -25, 17, -6, 0, 10, 959, 867, 381,k
2025-03-10 12:57:58.351,715, 597, 349, 3, 14, 38, -6, 2, 9, 968, 927, 571,k
2025-03-10 12:57:58.404,900, 164, 260, -23, 16, -52, -7, 0, 9, 961, 910, 648,k
2025-03-10 12:57:58.460,630, 602, 521, -45, 33, -61, -5, 3, 5, 939, 855, 405,k
2025-03-10 12:57:58.728,706, 555, 437, -1, -6, 2, -6, 1, 7, 937, 867, 583,l
2025-03-10 12:57:58.775,714, 551, 431, 0, -6, 3, -7, 2, 8, 939, 868, 582,l
2025-03-10 12:57:58.836,726, 550, 415, -2, -4, -2, -6, 0, 9, 941, 875, 583,l
2025-03-10 12:57:58.886,679, 566, 484, -3, -13, -2, -7, 1, 8, 936, 881, 604,l
2025-03-10 12:57:58.945,730, 674, 519, -4, -8, -7, -8, 1, 9, 951, 911, 582,l
2025-03-10 12:57:58.999,703, 714, 260, 41, 23, 20, -5, 0, 8, 965, 921, 543,l
2025-03-10 12:57:59.054,688, 563, 102, 5, 20, 15, -6, 1, 10, 970, 913, 382,l
2025-03-10 12:57:59.113,986, 217, 420, -25, 18, -22, -7, 0, 10, 954, 891, 606,l
2025-03-10 12:57:59.167,573, 541, 680, -45, 36, -43, -4, 0, 6, 936, 856, 435,l
2025-03-10 12:57:59.224,484, 534, 727, -4, -10, 4, -3, 2, 5, 929, 839, 432,l
2025-03-10 12:57:59.574,708, 558, 463, 6, -10, 4, -6, 1, 7, 927, 806, 423,m
2025-03-10 12:57:59.629,712, 566, 457, 6, -10, 3, -5, -1, 7, 925, 806, 430,m
2025-03-10 12:57:59.682,721, 557, 433, 5, -7, 0, -7, 3, 7, 925, 809, 471,m
2025-03-10 12:57:59.735,710, 557, 439, 2, -2, -1, -7, 2, 9, 926, 803, 468,m
2025-03-10 12:57:59.784,667, 564, 474, 3, -10, -1, -7, 2, 8, 928, 805, 474,m
2025-03-10 12:57:59.845,2200, 272, 138, -14, -14, -18, -7, 1, 8, 936, 851, 473,m
2025-03-10 12:57:59.899,666, 907, 392, 14, 9, 9, -7, 0, 9, 956, 895, 437,m
2025-03-10 12:57:59.951,650, 600, 133, -13, 15, 15, -7, 2, 9, 971, 904, 350,m
2025-03-10 12:58:00.010,682, 300, 603, 16, -37, -24, -7, 0, 9, 959, 913, 511,m
2025-03-10 12:58:00.061,708, 657, 466, 2, -7, 0, -7, 2, 10, 966, 929, 573,m
2025-03-10 12:58:00.117,658, 504, 428, -11, 21, 18, -6, 0, 8, 970, 926, 494,m
2025-03-10 12:58:00.174,769, 371, 605, 8, -28, -20, -8, 2, 9, 964, 925, 585,m
2025-03-10 12:58:00.224,657, 519, 533, 14, -8, 1, -9, 1, 11, 975, 940, 654,m
2025-03-10 12:58:00.284,746, 478, 301, -15, 28, 24, -8, -1, 10, 971, 935, 668,m
2025-03-10 12:58:00.335,755, 523, 362, -44, 53, -38, -5, 2, 7, 960, 906, 610,m
2025-03-10 12:58:00.394,526, 591, 743, -22, 17, -18, -5, 1, 6, 955, 885, 552,m
2025-03-10 12:58:00.698,705, 558, 441, 5, -7, 1, -5, 1, 7, 939, 808, 475,n
2025-03-10 12:58:00.754,727, 575, 453, 5, -7, 1, -7, 1, 8, 939, 808, 475,n
2025-03-10 12:58:00.804,700, 559, 423, 8, -10, 3, -8, 0, 8, 941, 817, 481,n
2025-03-10 12:58:00.860,976, 244, 137, -17, -7, -12, -8, 0, 8, 942, 857, 515,n
2025-03-10 12:58:00.919,737, 596, 475, 9, -3, -1, -8, 1, 10, 959, 900, 484,n
2025-03-10 12:58:00.969,965, 654, 414, -2, 15, 26, -7, 2, 9, 971, 908, 410,n
2025-03-10 12:58:01.024,757, 277, 754, 10, -22, -19, -7, 1, 9, 966, 920, 544,n
2025-03-10 12:58:01.084,727, 520, 605, 3, -16, -4, -8, 0, 10, 966, 934, 729,n
2025-03-10 12:58:01.137,772, 585, 133, 2, 25, 21, -7, 0, 11, 978, 940, 696,n
2025-03-10 12:58:01.194,790, 487, 553, -13, 15, 7, -8, 1, 10, 968, 923, 715,n
2025-03-10 12:58:01.244,709, 572, 513, -32, 35, -36, -7, 0, 7, 956, 889, 678,n
2025-03-10 12:58:01.554,698, 552, 439, 4, -6, 6, -7, 0, 8, 945, 847, 580,o
2025-03-10 12:58:01.607,705, 565, 445, 5, -7, 7, -6, 1, 8, 946, 852, 599,o
2025-03-10 12:58:01.659,706, 551, 446, 5, -12, 7, -6, 1, 10, 947, 866, 632,o
2025-03-10 12:58:01.714,699, 561, 399, -7, -8, -13, -8, 1, 9, 950, 901, 523,o
2025-03-10 12:58:01.768,1136, 468, 539, 15, -14, -16, -7, 0, 8, 955, 916, 399,o
2025-03-10 12:58:01.824,1083, 673, 25, 14, 25, 28, -6, 1, 11, 966, 914, 407,o
2025-03-10 12:58:01.882,701, 433, 610, -27, 1, 6, -8, 0, 8, 967, 937, 534,o
2025-03-10 12:58:01.939,701, 524, 468, 14, -18, -20, -8, 0, 10, 952, 924, 601,o
2025-03-10 12:58:01.989,936, 480, 165, -31, 44, -20, -7, 1, 9, 924, 843, 587,o
2025-03-10 12:58:02.050,572, 648, 591, -18, 26, -11, -5, 0, 8, 921, 766, 462,o
2025-03-10 12:58:02.376,689, 575, 462, 4, -17, 4, -7, 1, 9, 924, 818, 537,p
2025-03-10 12:58:02.428,697, 572, 438, 4, -18, 4, -6, 0, 9, 925, 822, 538,p
2025-03-10 12:58:02.487,722, 504, 384, -12, -3, -10, -7, 1, 8, 933, 860, 462,p
2025-03-10 12:58:02.541,800, 761, 278, 22, 5, 19, -6, 2, 9, 958, 882, 402,p
2025-03-10 12:58:02.594,381, 872, 282, -30, 40, 35, -8, -1, 8, 966, 879, 65,p
2025-03-10 12:58:02.644,737, 376, 581, -28, 4, 1, -8, 1, 9, 957, 871, 176,p
2025-03-10 12:58:02.704,766, 750, 416, -6, -35, -28, -7, 0, 9, 954, 910, 543,p
2025-03-10 12:58:02.754,606, 829, 278, -5, -3, 10, -8, 1, 9, 967, 936, 583,p
2025-03-10 12:58:02.809,661, 391, 593, -31, 28, 19, -8, 1, 10, 967, 921, 345,p
2025-03-10 12:58:02.868,1057, 320, 187, -20, 28, -30, -7, 2, 7, 955, 880, 364,p
2025-03-10 12:58:02.924,484, 635, 685, -8, 5, -12, -6, 2, 6, 952, 883, 435,p
2025-03-10 12:58:03.194,725, 546, 453, 1, -5, 2, -6, 1, 9, 942, 856, 445,q
2025-03-10 12:58:03.238,722, 550, 444, 1, -4, 2, -8, 2, 7, 942, 859, 456,q
2025-03-10 12:58:03.295,719, 535, 470, 8, -14, 4, -8, 3, 9, 944, 878, 520,q
2025-03-10 12:58:03.353,686, 594, 453, 1, -5, -11, -8, 2, 9, 951, 907, 408,q
2025-03-10 12:58:03.404,592, 527, 329, 24, -2, -10, -7, 0, 9, 960, 909, 259,q
2025-03-10 12:58:03.462,595, 599, 11, -16, 36, 25, -8, 2, 10, 970, 914, 229,q
2025-03-10 12:58:03.517,704, 371, 458, -1, -17, -15, -7, 2, 10, 965, 934, 513,q
2025-03-10 12:58:03.574,733, 441, 585, 20, -13, -11, -9, 3, 8, 966, 932, 538,q
2025-03-10 12:58:03.632,824, 602, 174, 11, 23, 23, -9, 0, 11, 969, 912, 394,q
2025-03-10 12:58:03.684,876, 487, 629, -4, -7, 7, -7, 0, 10, 967, 939, 528,q
2025-03-10 12:58:03.736,880, 430, 284, -16, 23, -15, -7, 1, 11, 959, 931, 702,q
2025-03-10 12:58:04.101,735, 544, 423, 1, -2, 1, -9, 0, 8, 944, 863, 483,r
2025-03-10 12:58:04.154,733, 549, 422, 1, -2, 1, -8, 1, 7, 944, 864, 482,r
2025-03-10 12:58:04.205,709, 532, 444, -2, -2, -4, -8, 1, 9, 946, 869, 469,r
2025-03-10 12:58:04.259,740, 552, 448, -3, -8, -2, -6, 1, 8, 948, 879, 464,r
2025-03-10 12:58:04.315,724, 517, 479, -5, 0, -6, -8, 2, 9, 952, 904, 451,r
2025-03-10 12:58:04.368,668, 637, 393, 23, 12, 11, -6, 2, 8, 961, 908, 438,r
2025-03-10 12:58:04.424,743, 622, 253, -10, 17, 15, -6, 1, 9, 966, 910, 349,r
2025-03-10 12:58:04.482,572, 308, 721, -6, -36, -33, -5, 1, 7, 966, 936, 329,r
2025-03-10 12:58:04.533,784, 639, 377, 9, -4, 7, -7, 2, 8, 969, 949, 583,r
2025-03-10 12:58:04.587,860, 362, 277, -17, 35, -19, -8, 2, 7, 965, 939, 594,r
2025-03-10 12:58:04.636,625, 579, 625, -2, 2, -8, -5, 1, 6, 960, 919, 511,r
2025-03-10 12:58:04.934,727, 520, 453, 2, -3, 5, -7, 2, 8, 956, 904, 594,s
2025-03-10 12:58:04.994,726, 510, 454, 2, -5, 5, -7, 2, 8, 953, 904, 592,s
2025-03-10 12:58:05.048,748, 504, 424, -2, -2, 0, -8, 2, 7, 955, 911, 589,s
2025-03-10 12:58:05.102,722, 516, 445, -3, -1, -2, -8, 1, 8, 957, 918, 581,s
2025-03-10 12:58:05.155,702, 565, 473, -12, -2, -6, -7, 1, 8, 964, 935, 479,s
2025-03-10 12:58:05.204,619, 355, 448, 17, -9, -13, -8, 2, 8, 962, 929, 323,s
2025-03-10 12:58:05.266,806, 666, 475, 6, 26, 32, -7, 3, 9, 967, 936, 357,s
2025-03-10 12:58:05.319,634, 674, 391, -12, 15, 18, -7, 2, 9, 970, 932, 336,s
2025-03-10 12:58:05.370,973, 330, 269, 1, 18, -19, -7, 2, 9, 954, 844, 246,s
2025-03-10 12:58:05.424,555, 489, 703, -17, 31, -27, -6, 3, 5, 942, 819, 251,s
2025-03-10 12:58:05.726,726, 531, 448, -1, -1, 6, -7, 2, 7, 947, 885, 587,t
2025-03-10 12:58:05.784,727, 512, 450, -1, -1, 6, -7, 2, 7, 946, 885, 588,t
2025-03-10 12:58:05.838,737, 546, 434, -1, 1, 0, -6, 1, 9, 947, 888, 596,t
2025-03-10 12:58:05.889,733, 513, 442, -2, -4, -3, -8, 0, 8, 946, 892, 607,t
2025-03-10 12:58:05.944,710, 517, 464, -8, -9, -5, -7, 2, 8, 948, 901, 607,t
2025-03-10 12:58:06.003,697, 487, 519, -10, -6, -12, -6, 2, 8, 954, 922, 536,t
2025-03-10 12:58:06.054,676, 546, 470, 58, 9, -4, -7, 1, 9, 973, 929, 442,t
2025-03-10 12:58:06.109,679, 710, 39, 2, 37, 33, -8, 1, 8, 970, 930, 535,t
2025-03-10 12:58:06.158,487, 260, 760, -20, -33, -33, -8, 1, 8, 965, 931, 656,t
2025-03-10 12:58:06.218,647, 601, 687, -1, -55, -3, -7, 0, 8, 962, 909, 383,t
2025-03-10 12:58:06.266,899, 951, 276, 3, 3, 21, -8, 2, 7, 974, 943, 454,t
2025-03-10 12:58:06.324,559, 541, 533, 9, 11, 19, -7, 0, 8, 971, 942, 674,t
2025-03-10 12:58:06.383,662, 600, 398, -18, 40, -29, -7, 1, 10, 960, 910, 590,t
2025-03-10 12:58:06.695,728, 536, 406, -2, 1, 0, -8, 1, 10, 946, 863, 493,u
2025-03-10 12:58:06.748,736, 541, 426, -1, 1, 0, -8, 2, 8, 944, 864, 496,u
2025-03-10 12:58:06.802,717, 545, 453, -1, -2, 0, -8, 0, 8, 945, 865, 501,u
2025-03-10 12:58:06.854,731, 538, 416, -2, 0, 0, -6, 2, 10, 945, 866, 499,u
2025-03-10 12:58:06.912,728, 548, 441, -4, -2, -2, -5, 0, 10, 953, 872, 457,u
2025-03-10 12:58:06.965,710, 510, 470, -12, -5, -10, -8, 1, 8, 953, 886, 366,u
2025-03-10 12:58:07.017,714, 477, 440, 3, -13, -11, -8, 1, 8, 962, 908, 36,u
2025-03-10 12:58:07.074,782, 585, 162, 17, 23, 30, -7, 1, 9, 973, 927, 330,u
2025-03-10 12:58:07.124,621, 499, 490, -25, 0, 10, -7, 0, 8, 968, 934, 416,u
2025-03-10 12:58:07.185,716, 365, 650, -2, -15, -12, -8, 0, 8, 965, 938, 512,u
2025-03-10 12:58:07.235,670, 754, 254, 4, 21, 22, -9, 1, 10, 970, 936, 499,u
2025-03-10 12:58:07.292,831, 408, 458, -14, 4, -11, -7, 1, 10, 964, 926, 566,u
2025-03-10 12:58:07.350,654, 539, 564, -24, 19, -30, -7, 2, 8, 959, 905, 490,u
2025-03-10 12:58:07.634,742, 525, 410, 4, -7, 2, -8, 2, 8, 948, 870, 375,v
2025-03-10 12:58:07.694,741, 530, 404, 3, -5, 1, -7, 2, 7, 946, 869, 373,v
2025-03-10 12:58:07.748,716, 539, 438, -6, 2, -3, -7, 2, 8, 942, 863, 374,v
2025-03-10 12:58:07.801,728, 545, 433, -2, 2, -3, -6, 2, 8, 944, 843, 320,v
2025-03-10 12:58:07.850,710, 554, 454, 3, 1, 0, -7, 1, 7, 944, 844, 317,v
2025-03-10 12:58:07.904,745, 553, 419, -1, -2, -1, -7, 2, 7, 942, 842, 342,v
2025-03-10 12:58:07.958,710, 542, 453, 0, -2, -2, -8, 1, 8, 940, 844, 378,v
2025-03-10 12:58:08.014,690, 541, 436, 0, -6, -4, -6, 2, 7, 944, 853, 370,v
2025-03-10 12:58:08.066,732, 567, 395, -13, -2, -6, -7, 1, 8, 949, 885, 331,v
2025-03-10 12:58:08.118,752, 523, 524, 6, -4, -6, -6, 1, 8, 957, 910, 252,v
2025-03-10 12:58:08.174,480, 441, 272, 29, 26, 35, -6, 3, 9, 963, 911, 380,v
2025-03-10 12:58:08.231,807, 810, 228, -37, 15, 20, -8, 2, 9, 965, 930, 367,v
2025-03-10 12:58:08.284,596, 316, 941, 12, -21, -11, -9, 0, 8, 963, 943, 579,v
2025-03-10 12:58:08.341,953, 335, 97, -32, 44, -16, -9, 1, 7, 955, 918, 608,v
2025-03-10 12:58:08.394,619, 550, 559, -18, 47, -25, -6, 2, 6, 950, 888, 443,v
2025-03-10 12:58:08.684,737, 542, 445, 2, 0, -2, -7, 2, 8, 941, 826, 384,w
2025-03-10 12:58:08.737,735, 544, 444, 3, 0, -2, -7, 2, 8, 941, 824, 389,w
2025-03-10 12:58:08.784,725, 552, 431, 0, 1, 0, -5, 1, 7, 940, 822, 401,w
2025-03-10 12:58:08.844,684, 559, 472, 2, -4, -1, -6, 2, 8, 940, 825, 401,w
2025-03-10 12:58:08.899,652, 579, 533, 2, -27, 7, -7, 3, 9, 946, 868, 351,w
2025-03-10 12:58:08.953,752, 475, 448, 17, -17, -11, -6, 3, 9, 953, 910, 287,w
2025-03-10 12:58:09.004,488, 705, 458, -1, 34, 42, -8, 2, 10, 967, 921, 416,w
2025-03-10 12:58:09.059,722, 638, 376, -22, 14, 13, -7, 0, 9, 968, 929, 422,w
2025-03-10 12:58:09.118,633, 570, 589, -19, -18, -14, -9, 1, 8, 966, 941, 553,w
2025-03-10 12:58:09.174,744, 119, 418, -3, 23, 26, -9, 0, 10, 968, 937, 557,w
2025-03-10 12:58:09.231,743, 570, 490, -51, -11, 8, -9, 4, 8, 974, 951, 458,w
2025-03-10 12:58:09.284,904, 467, 159, 0, 15, 1, -8, 3, 9, 960, 937, 658,w
2025-03-10 12:58:09.336,633, 428, 574, -19, 72, -32, -7, 2, 6, 957, 923, 563,w
2025-03-10 12:58:09.628,727, 540, 432, -1, -6, 3, -7, 3, 7, 947, 870, 516,x
2025-03-10 12:58:09.681,717, 550, 433, -2, -6, 4, -7, 0, 8, 945, 873, 524,x
2025-03-10 12:58:09.732,723, 532, 458, 0, -7, 3, -7, 2, 8, 944, 887, 572,x
2025-03-10 12:58:09.784,744, 539, 441, -1, -8, 4, -9, 0, 7, 945, 897, 598,x
2025-03-10 12:58:09.834,705, 511, 477, 4, -15, 6, -8, 2, 8, 952, 918, 618,x
2025-03-10 12:58:09.893,709, 535, 546, 4, -11, -4, -8, 1, 9, 959, 932, 498,x
2025-03-10 12:58:09.947,408, 777, 57, 20, 37, 20, -8, 1, 9, 966, 925, 306,x
2025-03-10 12:58:09.998,764, 541, 314, -27, 20, 0, -9, 0, 8, 952, 891, 378,x
2025-03-10 12:58:10.049,550, 749, 701, 10, -28, -10, -5, 1, 8, 952, 903, 474,x
2025-03-10 12:58:10.109,1050, 708, 276, -3, -3, 30, -8, 1, 9, 969, 944, 544,x
2025-03-10 12:58:10.164,698, 210, 451, -1, 20, 19, -9, 1, 10, 970, 942, 622,x
2025-03-10 12:58:10.217,834, 632, 140, -25, 17, -53, -9, 0, 8, 956, 919, 597,x
2025-03-10 12:58:10.524,727, 534, 435, -3, -2, 0, -9, 2, 9, 941, 892, 507,y
2025-03-10 12:58:10.574,724, 528, 436, -2, -2, 0, -8, 1, 7, 942, 894, 509,y
2025-03-10 12:58:10.635,716, 547, 439, -1, -2, -1, -6, 1, 8, 942, 896, 533,y
2025-03-10 12:58:10.684,713, 542, 451, 0, -8, 0, -8, 0, 8, 944, 902, 540,y
2025-03-10 12:58:10.734,682, 589, 434, -2, -6, -11, -8, 1, 8, 954, 913, 488,y
2025-03-10 12:58:10.794,756, 593, 258, 17, -3, -2, -6, 0, 9, 963, 920, 372,y
2025-03-10 12:58:10.848,698, 350, 440, 13, 16, 29, -7, 0, 10, 969, 939, 585,y
2025-03-10 12:58:10.904,726, 412, 661, -3, -21, -18, -8, 2, 9, 963, 937, 718,y
2025-03-10 12:58:10.959,725, 555, 480, 9, -5, -1, -6, 2, 8, 965, 940, 698,y
2025-03-10 12:58:11.007,697, 677, 254, 11, 25, 26, -8, 2, 8, 970, 937, 511,y
2025-03-10 12:58:11.065,727, 307, 308, -42, 27, 3, -7, 2, 8, 961, 897, 300,y
2025-03-10 12:58:11.117,980, 518, 178, -37, 39, -50, -8, 2, 7, 938, 740, 252,y
2025-03-10 12:58:11.449,717, 527, 462, 4, -6, 3, -6, 1, 7, 932, 839, 500,z
2025-03-10 12:58:11.504,724, 532, 443, 5, -6, 3, -7, 2, 8, 932, 841, 517,z
2025-03-10 12:58:11.554,720, 533, 457, -1, -1, 0, -7, 0, 7, 932, 844, 540,z
2025-03-10 12:58:11.605,705, 538, 449, 0, -5, 0, -7, 0, 8, 937, 850, 535,z
2025-03-10 12:58:11.664,691, 541, 505, 0, -9, -1, -6, 0, 8, 938, 851, 505,z
2025-03-10 12:58:11.716,806, 623, 374, -15, -7, -10, -9, 0, 9, 942, 860, 375,z
2025-03-10 12:58:11.770,859, 515, 500, 46, -9, -5, -9, 2, 8, 963, 925, 419,z
2025-03-10 12:58:11.824,476, 571, 559, 16, 1, 13, -10, 1, 9, 973, 948, 662,z
2025-03-10 12:58:11.880,693, 675, 384, -18, 21, 8, -7, 2, 9, 967, 918, 509,z
2025-03-10 12:58:11.934,797, 456, 351, 40, -2, -5, -7, 0, 10, 977, 933, 467,z
2025-03-10 12:58:11.984,712, 277, 393, 12, 6, 14, -9, 0, 11, 971, 946, 672,z
2025-03-10 12:58:12.044,689, 483, 498, -14, 3, -8, -9, -1, 9, 968, 928, 690,z
2025-03-10 12:58:12.097,672, 604, 719, 12, -29, 2, -7, 0, 9, 955, 845, 424,z
2025-03-10 12:58:12.154,722, 833, 289, 5, -13, 25, -7, 2, 11, 968, 940, 638,z
2025-03-10 12:58:12.204,666, 192, 209, 7, 11, 2, -8, 1, 9, 972, 946, 712,z
2025-03-10 12:58:12.258,843, 449, 245, -28, 28, -16, -8, 0, 10, 958, 892, 674,z
2025-03-10 12:58:12.577,721, 540, 454, -3, -1, -24, -6, 0, 8, 937, 831, 461,0
2025-03-10 12:58:12.634,701, 545, 461, 1, -2, -26, -7, -1, 10, 938, 832, 445,0
2025-03-10 12:58:12.687,706, 592, 443, -1, -12, -39, -6, 1, 9, 938, 833, 429,0
2025-03-10 12:58:12.749,569, 732, 410, -4, -18, -18, -4, -2, 8, 941, 836, 431,0
2025-03-10 12:58:12.801,618, 644, 388, -3, -5, 21, -5, 1, 9, 945, 856, 411,0
2025-03-10 12:58:12.855,693, 581, 401, 1, -8, 17, -8, 0, 8, 953, 871, 421,0
2025-03-10 12:58:12.904,731, 578, 431, 6, 0, 13, -7, -1, 8, 948, 882, 435,0
2025-03-10 12:58:12.958,724, 591, 392, 4, -4, 11, -7, 2, 10, 955, 894, 472,0
2025-03-10 12:58:13.015,630, 635, 469, 3, -17, 22, -5, -1, 9, 954, 910, 575,0
2025-03-10 12:58:13.065,693, 457, 268, -29, -7, -13, -7, 0, 10, 959, 932, 544,0
2025-03-10 12:58:13.131,918, 499, 431, 34, -13, -15, -7, -1, 11, 965, 928, 463,0
2025-03-10 12:58:13.184,794, 890, -71, -16, 58, 60, -6, 0, 10, 973, 939, 425,0
2025-03-10 12:58:13.244,403, 218, 761, -11, -35, -25, -8, 2, 8, 966, 945, 647,0
2025-03-10 12:58:13.297,977, 602, 54, 7, 16, -7, -8, 1, 9, 950, 906, 724,0
2025-03-10 12:58:13.354,596, 539, 571, -28, 39, -27, -6, 0, 9, 945, 877, 623,0
2025-03-10 12:58:13.684,733, 574, 390, -7, -5, -2, -7, 1, 9, 943, 857, 410,1
2025-03-10 12:58:13.734,738, 575, 380, -6, -3, -2, -6, 3, 10, 944, 857, 404,1
2025-03-10 12:58:13.794,687, 577, 436, 0, -4, -3, -7, 1, 10, 945, 864, 383,1
2025-03-10 12:58:13.847,693, 548, 459, 8, -21, 0, -8, 2, 9, 946, 872, 352,1
2025-03-10 12:58:13.898,781, 614, 192, -1, 1, -2, -8, 1, 9, 959, 908, 179,1
2025-03-10 12:58:13.957,615, 267, 289, -5, -2, 12, -6, 1, 10, 961, 940, 590,1
2025-03-10 12:58:14.006,700, 534, 510, 29, -6, -1, -7, 0, 9, 971, 942, 604,1
2025-03-10 12:58:14.064,706, 954, -76, 0, 36, 29, -8, -1, 11, 969, 931, 435,1
2025-03-10 12:58:14.115,735, 555, 588, -24, 12, 1, -9, 1, 10, 965, 915, 493,1
2025-03-10 12:58:14.174,590, 630, 529, 1, 2, -18, -7, 0, 10, 951, 848, 432,1
2025-03-10 12:58:14.224,862, 620, 367, 17, -13, 4, -6, 1, 11, 964, 913, 358,1
2025-03-10 12:58:14.284,754, 489, 354, -3, 3, 21, -7, 0, 10, 968, 943, 504,1
2025-03-10 12:58:14.334,765, 460, 385, 2, 9, -5, -8, 0, 9, 960, 921, 640,1
2025-03-10 12:58:14.384,670, 516, 474, -33, 42, -44, -7, 1, 8, 938, 802, 480,1
2025-03-10 12:58:14.673,728, 550, 417, -4, -3, 1, -8, 1, 9, 931, 799, 426,2
2025-03-10 12:58:14.725,724, 555, 414, -3, -2, 1, -6, 0, 7, 931, 802, 424,2
2025-03-10 12:58:14.780,723, 550, 455, -3, -3, 2, -8, 2, 8, 932, 817, 434,2
2025-03-10 12:58:14.830,728, 565, 413, -3, 0, -2, -6, 2, 7, 937, 828, 422,2
2025-03-10 12:58:14.885,691, 565, 453, -4, -4, -3, -6, 2, 8, 936, 839, 425,2
2025-03-10 12:58:14.944,1101, 180, 148, -30, -15, -15, -6, 2, 8, 942, 866, 369,2
2025-03-10 12:58:14.997,736, 615, 407, -6, 0, -4, -5, 1, 8, 948, 889, 283,2
2025-03-10 12:58:15.050,805, 746, 441, 36, -18, 6, -7, 0, 8, 960, 933, 488,2
2025-03-10 12:58:15.098,656, 678, 436, 19, 5, 10, -6, 0, 12, 963, 939, 618,2
2025-03-10 12:58:15.156,734, 749, 417, 1, 23, 2, -8, 0, 12, 963, 909, 474,2
2025-03-10 12:58:15.207,829, 462, 217, 18, 8, -3, -8, 0, 11, 965, 923, 352,2
2025-03-10 12:58:15.264,756, 143, 339, 11, 11, 20, -8, 0, 12, 974, 950, 589,2
2025-03-10 12:58:15.324,872, 420, 350, -20, 20, -13, -9, 0, 11, 964, 931, 690,2
2025-03-10 12:58:15.628,709, 562, 436, -4, 0, 4, -6, 1, 8, 938, 878, 598,3
2025-03-10 12:58:15.684,711, 547, 442, -3, 0, 3, -7, 1, 9, 937, 879, 596,3
2025-03-10 12:58:15.734,718, 581, 394, -7, 0, 1, -6, 1, 8, 937, 881, 575,3
2025-03-10 12:58:15.784,627, 576, 534, -8, -12, -1, -6, 0, 8, 938, 888, 540,3
2025-03-10 12:58:15.847,648, 770, 422, 9, -17, -11, -7, 1, 8, 947, 903, 459,3
2025-03-10 12:58:15.898,791, 557, 298, 1, 16, 26, -6, 0, 10, 960, 934, 579,3
2025-03-10 12:58:15.947,578, 539, 434, 3, 7, 6, -6, 2, 9, 958, 929, 617,3
2025-03-10 12:58:16.004,839, 521, 291, 10, 8, -2, -7, 0, 8, 958, 921, 516,3
2025-03-10 12:58:16.057,670, 391, 522, 17, 8, 7, -8, 1, 9, 969, 932, 555,3
2025-03-10 12:58:16.107,716, 700, 130, 3, 13, 17, -7, 3, 9, 962, 922, 485,3
2025-03-10 12:58:16.164,812, 448, 350, 5, 12, -1, -7, 1, 9, 954, 859, 482,3
2025-03-10 12:58:16.215,589, 532, 572, -27, 38, -33, -6, 0, 9, 940, 843, 504,3
2025-03-10 12:58:16.529,731, 564, 409, 3, -10, 5, -7, -1, 10, 938, 871, 496,4
2025-03-10 12:58:16.584,730, 564, 398, 2, -9, 4, -6, 0, 11, 938, 869, 498,4
2025-03-10 12:58:16.634,746, 540, 412, -1, -6, 0, -6, 2, 10, 940, 877, 520,4
2025-03-10 12:58:16.685,738, 564, 407, -3, -4, -4, -7, 1, 8, 948, 887, 520,4
2025-03-10 12:58:16.747,717, 551, 415, -4, -5, -3, -7, -1, 8, 943, 891, 547,4
2025-03-10 12:58:16.799,722, 536, 524, -8, -5, -7, -7, 0, 8, 950, 913, 526,4
2025-03-10 12:58:16.858,703, 550, 445, 4, -20, -10, -7, 1, 9, 959, 931, 450,4
2025-03-10 12:58:16.914,904, 727, 111, 25, 21, 8, -6, 0, 11, 960, 907, 263,4
2025-03-10 12:58:16.965,762, 427, 237, 5, 17, -1, -7, 1, 10, 963, 910, 44,4
2025-03-10 12:58:17.015,577, 246, 357, 13, 9, 18, -7, 0, 10, 970, 946, 499,4
2025-03-10 12:58:17.074,739, 537, 402, -4, 3, 3, -7, 2, 9, 961, 934, 624,4
2025-03-10 12:58:17.131,589, 615, 619, -10, -10, -19, -8, 2, 10, 959, 918, 657,4
2025-03-10 12:58:17.184,769, 497, 408, 25, 4, 14, -8, 0, 11, 969, 931, 560,4
2025-03-10 12:58:17.234,811, 637, 54, -3, 36, 26, -7, -1, 11, 966, 913, 497,4
2025-03-10 12:58:17.295,875, 583, 22, -29, 47, -63, -7, 1, 10, 948, 885, 576,4
2025-03-10 12:58:17.614,730, 546, 417, 3, -6, 3, -5, 1, 10, 935, 879, 523,5
2025-03-10 12:58:17.667,723, 555, 406, 2, -5, 2, -7, 2, 9, 942, 886, 518,5
2025-03-10 12:58:17.715,698, 563, 440, 3, -1, 0, -8, 1, 10, 948, 890, 542,5
2025-03-10 12:58:17.774,729, 577, 411, 2, -5, -2, -6, 1, 8, 943, 896, 581,5
2025-03-10 12:58:17.828,714, 557, 428, -4, 0, -3, -6, 2, 8, 947, 901, 578,5
2025-03-10 12:58:17.880,698, 583, 434, -4, -5, -4, -5, 1, 8, 950, 902, 541,5
2025-03-10 12:58:17.933,774, 560, 379, 2, -11, 0, -7, 0, 9, 949, 900, 544,5
2025-03-10 12:58:17.984,960, 391, 330, 2, -6, -12, -6, 0, 9, 955, 916, 533,5
2025-03-10 12:58:18.034,722, 612, 157, 1, -1, 14, -7, 2, 9, 964, 939, 622,5
2025-03-10 12:58:18.094,670, 588, 469, -3, 1, 2, -6, 0, 9, 968, 946, 660,5
2025-03-10 12:58:18.149,728, 454, 383, 30, 1, -19, -7, 0, 10, 960, 923, 635,5
2025-03-10 12:58:18.204,962, 794, 167, 17, 14, 15, -6, 0, 12, 966, 928, 636,5
2025-03-10 12:58:18.254,502, 719, 419, 1, 16, 9, -7, 2, 12, 963, 929, 578,5
2025-03-10 12:58:18.314,551, 582, 491, -13, 12, -2, -7, 2, 10, 965, 907, 470,5
2025-03-10 12:58:18.366,997, 458, 132, -39, 44, -36, -7, 0, 10, 946, 825, 445,5
2025-03-10 12:58:18.424,540, 651, 638, -11, 4, -11, -5, 2, 8, 947, 874, 431,5
2025-03-10 12:58:18.684,724, 563, 384, 0, -7, 3, -7, 1, 8, 944, 898, 621,6
2025-03-10 12:58:18.745,716, 554, 394, 2, -6, 2, -7, 1, 10, 946, 900, 627,6
2025-03-10 12:58:18.797,730, 567, 398, -2, 1, 1, -7, 1, 10, 949, 907, 639,6
2025-03-10 12:58:18.847,751, 548, 407, -1, -3, 2, -8, 1, 9, 947, 909, 652,6
2025-03-10 12:58:18.904,688, 567, 437, 2, -7, 10, -8, 1, 9, 951, 916, 673,6
2025-03-10 12:58:18.961,723, 594, 365, -12, -8, -8, -9, 1, 9, 953, 927, 617,6
2025-03-10 12:58:19.014,619, 473, 532, 15, -8, -15, -8, -1, 11, 957, 929, 486,6
2025-03-10 12:58:19.074,1178, 679, 215, 30, 42, 30, -6, -1, 11, 962, 922, 451,6
2025-03-10 12:58:19.130,538, 521, 457, -26, 23, 11, -7, 1, 10, 962, 936, 492,6
2025-03-10 12:58:19.184,732, 717, 212, 5, -21, -29, -6, 0, 11, 955, 923, 576,6
2025-03-10 12:58:19.245,974, 564, 139, -35, 45, -29, -8, 1, 10, 948, 873, 513,6
2025-03-10 12:58:19.297,577, 658, 583, -26, 26, -15, -4, 0, 8, 938, 825, 447,6
2025-03-10 12:58:19.555,727, 572, 396, -6, -3, 5, -8, 1, 9, 937, 842, 480,7
2025-03-10 12:58:19.613,724, 552, 407, -5, -2, 4, -6, 0, 9, 938, 843, 478,7
2025-03-10 12:58:19.664,698, 554, 427, -1, -2, 0, -6, 2, 10, 943, 854, 466,7
2025-03-10 12:58:19.714,694, 581, 448, -6, -8, -2, -5, 1, 9, 947, 868, 471,7
2025-03-10 12:58:19.764,781, 668, 302, 5, -9, -13, -7, 0, 8, 950, 888, 399,7
2025-03-10 12:58:19.830,852, 852, 365, 18, -2, 19, -7, 1, 8, 961, 931, 499,7
2025-03-10 12:58:19.879,605, 549, 589, 24, -4, 8, -8, 1, 9, 963, 938, 613,7
2025-03-10 12:58:19.934,597, 483, 362, 32, 26, 18, -8, -1, 11, 970, 936, 475,7
2025-03-10 12:58:19.994,723, 514, 301, -19, 25, 2, -9, -1, 10, 963, 926, 388,7
2025-03-10 12:58:20.047,495, 664, 620, -5, -23, -22, -7, 0, 10, 953, 905, 439,7
2025-03-10 12:58:20.107,1104, 1094, 271, 25, -14, 21, -8, 0, 11, 966, 941, 399,7
2025-03-10 12:58:20.162,701, 531, 544, 4, 15, 21, -10, 0, 11, 967, 944, 567,7
2025-03-10 12:58:20.214,707, 581, 274, -36, 58, -50, -7, 1, 11, 954, 907, 522,7
2025-03-10 12:58:20.505,711, 556, 417, -1, -2, 2, -8, -1, 11, 953, 892, 466,8
2025-03-10 12:58:20.563,716, 557, 411, -1, -3, 3, -6, 2, 10, 953, 892, 463,8
2025-03-10 12:58:20.617,703, 534, 410, 1, -10, 6, -8, 0, 8, 951, 901, 513,8
2025-03-10 12:58:20.674,634, 543, 492, -11, -12, -16, -8, 0, 10, 953, 925, 421,8
2025-03-10 12:58:20.732,381, 523, 509, 17, -1, -16, -8, 0, 11, 960, 921, 246,8
2025-03-10 12:58:20.784,542, 578, 144, -33, 43, 39, -7, 0, 10, 963, 931, 44,8
2025-03-10 12:58:20.834,569, 199, 672, 5, -38, -32, -8, 0, 9, 972, 952, 357,8
2025-03-10 12:58:20.899,1148, 471, 361, -27, -39, -26, -6, 0, 10, 962, 952, 596,8
2025-03-10 12:58:20.951,546, 583, 399, 6, 11, 17, -6, 0, 10, 968, 950, 527,8
2025-03-10 12:58:21.008,721, 501, 267, -9, 28, 19, -9, 2, 10, 963, 933, 417,8
2025-03-10 12:58:21.063,862, 570, 249, -38, 54, -40, -7, 0, 9, 959, 911, 456,8
2025-03-10 12:58:21.344,741, 548, 401, -2, -7, 6, -7, 1, 9, 944, 900, 556,9
2025-03-10 12:58:21.401,728, 526, 411, -2, -7, 5, -6, 1, 10, 949, 902, 553,9
2025-03-10 12:58:21.454,723, 575, 380, -9, -2, -5, -6, 2, 9, 950, 917, 536,9
2025-03-10 12:58:21.514,805, 576, 464, -4, -10, -12, -7, 0, 9, 952, 928, 462,9
2025-03-10 12:58:21.566,769, 530, 219, 39, 18, 2, -8, 1, 10, 960, 924, 390,9
2025-03-10 12:58:21.624,824, 625, 75, -10, 40, 33, -7, 1, 10, 969, 937, 376,9
2025-03-10 12:58:21.678,659, 339, 589, 3, -24, -26, -7, 1, 8, 961, 934, 564,9
2025-03-10 12:58:21.734,791, 617, 435, 29, -13, -7, -7, 0, 9, 959, 928, 657,9
2025-03-10 12:58:21.788,324, 544, 259, -12, 39, 31, -8, -1, 9, 966, 928, 462,9
2025-03-10 12:58:21.845,859, 375, 379, -26, 17, -12, -7, 0, 8, 955, 851, 243,9
2025-03-10 12:58:21.896,744, 533, 307, -36, 70, -54, -6, 1, 6, 927, 731, 332,9
2025-03-10 12:58:21.954,494, 706, 661, -5, 2, -13, -4, 1, 7, 910, 705, 321,9
2025-03-10 12:58:22.224,680, 585, 474, -1, -8, 1, -6, 1, 8, 905, 693, 281,+
2025-03-10 12:58:22.284,668, 571, 491, 0, -10, 2, -6, 0, 8, 906, 695, 285,+
2025-03-10 12:58:22.335,707, 538, 457, 5, -11, 1, -5, 0, 7, 910, 719, 332,+
2025-03-10 12:58:22.386,722, 582, 399, -2, -2, -1, -6, 0, 7, 911, 734, 368,+
2025-03-10 12:58:22.443,701, 563, 447, -1, -2, -4, -7, 2, 7, 918, 741, 354,+
2025-03-10 12:58:22.496,713, 574, 447, -2, -4, 1, -5, 1, 9, 916, 754, 370,+
2025-03-10 12:58:22.546,742, 578, 397, -3, 0, 1, -6, -1, 8, 926, 762, 381,+
2025-03-10 12:58:22.597,711, 567, 452, 2, -2, 1, -5, 0, 9, 932, 807, 421,+
2025-03-10 12:58:22.656,707, 585, 435, 1, -2, -1, -6, 1, 8, 933, 816, 427,+
2025-03-10 12:58:22.705,700, 559, 442, -2, 0, -3, -7, 1, 8, 934, 825, 432,+
2025-03-10 12:58:22.762,723, 573, 437, 0, -2, -4, -7, 1, 8, 931, 826, 438,+
2025-03-10 12:58:22.811,663, 592, 458, 0, 1, -5, -5, 2, 7, 935, 798, 415,+
2025-03-10 12:58:22.864,766, 568, 352, -4, -8, -10, -5, -1, 8, 931, 788, 423,+
2025-03-10 12:58:22.927,515, 605, 679, 11, -52, 15, -6, -1, 8, 934, 859, 524,+
2025-03-10 12:58:22.980,751, 521, 413, 15, -21, -2, -8, 0, 10, 959, 917, 505,+
2025-03-10 12:58:23.034,927, 603, 511, 3, 48, 41, -6, -1, 9, 968, 916, 400,+
2025-03-10 12:58:23.085,717, 633, 358, -32, 25, 1, -6, -1, 11, 962, 881, 442,+
2025-03-10 12:58:23.146,809, 531, 520, -1, -9, -19, -6, -1, 10, 952, 882, 337,+
2025-03-10 12:58:23.204,830, 697, 188, -21, 3, 37, -6, -2, 10, 965, 943, 457,+
2025-03-10 12:58:23.262,652, 566, 522, -6, 13, 14, -8, -1, 10, 965, 927, 647,+
2025-03-10 12:58:23.574,711, 565, 401, -5, -1, 5, -6, 2, 9, 941, 850, 502,-
2025-03-10 12:58:23.630,732, 557, 394, -5, 0, 6, -6, 0, 8, 941, 851, 505,-
2025-03-10 12:58:23.681,714, 556, 446, -5, 1, 2, -6, 1, 8, 943, 859, 511,-
2025-03-10 12:58:23.734,724, 580, 409, -4, 0, 2, -7, 1, 9, 944, 868, 518,-
2025-03-10 12:58:23.784,711, 551, 440, -5, 1, 1, -5, 1, 9, 947, 874, 525,-
2025-03-10 12:58:23.840,727, 553, 412, -2, -1, -1, -6, 0, 8, 945, 874, 518,-
2025-03-10 12:58:23.894,700, 565, 438, -9, -1, -4, -6, 0, 9, 948, 878, 478,-
2025-03-10 12:58:23.946,658, 552, 497, -3, -14, 4, -6, 0, 9, 947, 872, 428,-
2025-03-10 12:58:24.004,745, 425, 405, -6, -12, -12, -5, 1, 8, 961, 909, 36,-
2025-03-10 12:58:24.057,618, 737, 219, 3, -2, 52, -7, 1, 10, 967, 950, 478,-
2025-03-10 12:58:24.106,685, 541, 426, 3, 4, 8, -9, 2, 9, 970, 950, 633,-
2025-03-10 12:58:24.164,669, 539, 446, -3, 12, -13, -8, 2, 8, 954, 923, 663,-
2025-03-10 12:58:24.214,704, 633, 448, -19, 17, -19, -7, 2, 8, 948, 876, 555,-
2025-03-10 12:58:24.508,712, 573, 435, 0, 0, 0, -6, 1, 9, 939, 850, 483,÷
2025-03-10 12:58:24.564,707, 561, 438, 1, -1, 1, -7, 2, 8, 941, 853, 486,÷
2025-03-10 12:58:24.614,717, 573, 414, -1, 0, -1, -6, 1, 9, 943, 865, 504,÷
2025-03-10 12:58:24.668,705, 572, 421, -1, -1, -1, -6, 0, 8, 942, 868, 520,÷
2025-03-10 12:58:24.724,702, 572, 435, -2, -1, 0, -6, 0, 8, 946, 876, 518,÷
2025-03-10 12:58:24.778,718, 564, 414, -2, -1, -1, -7, 2, 6, 939, 878, 524,÷
2025-03-10 12:58:24.827,701, 579, 423, -3, -1, -2, -5, 1, 8, 943, 883, 516,÷
2025-03-10 12:58:24.884,722, 556, 430, -1, -2, -1, -6, 1, 8, 943, 882, 522,÷
2025-03-10 12:58:24.934,721, 577, 424, 0, -1, -2, -7, 0, 9, 946, 880, 503,÷
2025-03-10 12:58:24.995,737, 574, 420, -3, 0, -2, -5, 1, 8, 941, 875, 499,÷
2025-03-10 12:58:25.044,684, 579, 447, 2, 0, -1, -7, 0, 7, 940, 876, 502,÷
2025-03-10 12:58:25.097,720, 578, 391, -1, -1, -2, -7, 1, 8, 946, 873, 464,÷
2025-03-10 12:58:25.154,650, 601, 464, -5, 0, -8, -5, 0, 10, 940, 854, 409,÷
2025-03-10 12:58:25.211,1222, 262, 155, 9, -16, -21, -6, 1, 12, 949, 868, 323,÷
2025-03-10 12:58:25.260,751, 599, 320, -3, -1, -4, -7, 1, 9, 954, 881, 36,÷
2025-03-10 12:58:25.314,706, 613, 474, 4, -6, -4, -6, 0, 10, 958, 899, 36,÷
2025-03-10 12:58:25.364,715, 592, 340, -1, 0, -2, -6, 1, 11, 953, 904, 67,÷
2025-03-10 12:58:25.414,706, 589, 420, -2, 0, -1, -6, 1, 10, 962, 909, 37,÷
2025-03-10 12:58:25.474,714, 605, 395, 0, 0, -1, -6, 0, 10, 955, 904, 46,÷
2025-03-10 12:58:25.527,718, 588, 387, 8, -2, -1, -6, 2, 10, 954, 891, 199,÷
2025-03-10 12:58:25.584,868, 458, 208, -27, 23, -11, -7, 1, 9, 944, 870, 392,÷
2025-03-10 12:58:25.634,437, 651, 711, 8, -16, 16, -4, 1, 9, 950, 900, 476,÷
2025-03-10 12:58:25.695,824, 982, 289, -4, -17, -8, -5, 0, 10, 953, 915, 463,÷
2025-03-10 12:58:25.745,766, 465, 559, 6, -4, -12, -6, 0, 9, 961, 928, 333,÷
2025-03-10 12:58:25.800,740, 662, 301, 4, 1, 0, -7, 0, 10, 969, 941, 337,÷
2025-03-10 12:58:25.854,715, 511, 409, 8, 13, 9, -5, -1, 10, 968, 940, 407,÷
2025-03-10 12:58:25.905,684, 636, 552, 1, 3, 2, -6, 0, 8, 958, 936, 541,÷
2025-03-10 12:58:25.961,771, 593, 265, -3, -12, -9, -6, 0, 10, 968, 943, 506,÷
2025-03-10 12:58:26.014,735, 536, 431, -7, 42, 36, -6, 0, 10, 958, 930, 600,÷
2025-03-10 12:58:26.064,314, 639, 804, 12, 18, 18, -4, 2, 8, 964, 923, 524,÷
2025-03-10 12:58:26.124,849, 551, 99, 32, -14, -26, -7, 0, 10, 962, 928, 546,÷
2025-03-10 12:58:26.178,837, 788, 304, 1, 3, 9, -8, 1, 11, 963, 938, 473,÷
2025-03-10 12:58:26.234,689, 366, 580, -24, -3, -9, -7, 0, 10, 965, 937, 553,÷
2025-03-10 12:58:26.287,428, 591, 680, 1, -21, -15, -5, 0, 10, 954, 905, 449,÷
2025-03-10 12:58:26.344,776, 364, 258, 12, -17, -8, -6, 0, 10, 971, 944, 330,÷
2025-03-10 12:58:26.394,754, 520, 105, 12, 8, 18, -7, 1, 9, 973, 953, 418,÷
2025-03-10 12:58:26.447,714, 580, 403, -6, 13, 5, -7, 0, 10, 967, 943, 561,÷
2025-03-10 12:58:26.510,942, 588, 129, -44, 81, -49, -6, 1, 10, 952, 888, 564,÷
2025-03-10 12:58:26.564,465, 623, 796, -27, 29, -12, -2, 1, 6, 939, 766, 386,÷
2025-03-10 12:58:26.865,680, 581, 464, 6, -8, 4, -4, 2, 6, 927, 747, 324,=
2025-03-10 12:58:26.914,679, 593, 444, 5, -7, 4, -5, 1, 7, 926, 752, 331,=
2025-03-10 12:58:26.964,696, 571, 458, 2, -5, 3, -5, 1, 7, 924, 782, 376,=
2025-03-10 12:58:27.014,691, 561, 470, 0, -5, 4, -6, 0, 7, 928, 803, 379,=
2025-03-10 12:58:27.076,700, 561, 463, 4, -5, 3, -6, 0, 8, 936, 810, 394,=
2025-03-10 12:58:27.129,713, 569, 428, 4, -6, 1, -6, 0, 8, 929, 814, 417,=
2025-03-10 12:58:27.181,707, 570, 434, -2, 0, -1, -6, 0, 8, 930, 819, 431,=
2025-03-10 12:58:27.232,710, 569, 436, 1, -2, 0, -6, 2, 8, 936, 828, 415,=
2025-03-10 12:58:27.284,715, 573, 434, -4, 0, -1, -6, 1, 8, 931, 829, 432,=
2025-03-10 12:58:27.334,693, 565, 464, -3, -3, 0, -7, 1, 7, 933, 833, 423,=
2025-03-10 12:58:27.384,713, 566, 441, -2, -3, -1, -6, 0, 8, 934, 840, 426,=
2025-03-10 12:58:27.444,709, 555, 446, 0, -6, 1, -7, 1, 7, 934, 846, 431,=
2025-03-10 12:58:27.499,720, 582, 432, 4, -11, 1, -6, 2, 9, 940, 851, 411,=
2025-03-10 12:58:27.547,819, 577, 432, -5, -5, -16, -6, 0, 8, 940, 871, 357,=
2025-03-10 12:58:27.604,980, 826, 651, 70, -35, 4, -6, 1, 9, 963, 932, 367,=
2025-03-10 12:58:27.661,668, 641, 321, 13, 13, 17, -7, 0, 10, 961, 938, 600,=
2025-03-10 12:58:27.714,613, 559, 445, 10, 31, -6, -6, 2, 11, 958, 885, 553,=
2025-03-10 12:58:27.765,904, 502, 386, 32, -3, -8, -6, 1, 10, 963, 905, 375,=
2025-03-10 12:58:27.826,529, 528, 275, -1, 19, 38, -6, 2, 11, 966, 936, 618,=
2025-03-10 12:58:27.881,978, 291, 209, -24, 33, -29, -7, 0, 11, 957, 910, 669,=
2025-03-10 12:58:27.934,583, 579, 628, -27, 32, -38, -6, -1, 8, 937, 794, 513,=
2025-03-10 12:58:28.207,708, 580, 442, 0, -7, 4, -6, 0, 8, 931, 801, 441,≠
2025-03-10 12:58:28.264,707, 578, 437, 0, -7, 4, -6, 0, 9, 929, 803, 458,≠
2025-03-10 12:58:28.315,717, 575, 431, 1, -5, 1, -6, 1, 8, 932, 813, 459,≠
2025-03-10 12:58:28.366,721, 571, 416, -4, -2, -1, -6, 1, 10, 932, 824, 442,≠
2025-03-10 12:58:28.424,685, 587, 453, 0, -6, 0, -5, 3, 9, 935, 829, 434,≠
2025-03-10 12:58:28.476,725, 580, 401, -3, -3, -2, -5, 0, 9, 938, 830, 428,≠
2025-03-10 12:58:28.530,720, 579, 412, 2, -4, 2, -5, 1, 8, 940, 835, 415,≠
2025-03-10 12:58:28.583,680, 589, 444, 0, -1, 2, -7, 1, 11, 941, 849, 449,≠
2025-03-10 12:58:28.634,708, 685, 375, -10, 0, -5, -6, 0, 11, 953, 866, 381,≠
2025-03-10 12:58:28.684,753, 590, 357, -4, 1, -4, -6, 0, 10, 952, 889, 316,≠
2025-03-10 12:58:28.742,746, 728, 415, 11, -6, -4, -6, 0, 9, 960, 926, 487,≠
2025-03-10 12:58:28.796,740, 475, 368, 13, -2, 2, -7, 1, 10, 965, 938, 642,≠
2025-03-10 12:58:28.849,722, 583, 375, -8, 1, 2, -7, 1, 11, 966, 941, 638,≠
2025-03-10 12:58:28.896,725, 578, 404, -6, 3, 0, -7, 0, 9, 961, 939, 625,≠
2025-03-10 12:58:28.954,719, 600, 398, 2, -2, -2, -7, 0, 8, 962, 940, 631,≠
2025-03-10 12:58:29.009,735, 597, 375, -2, -2, -3, -8, 1, 9, 959, 934, 633,≠
2025-03-10 12:58:29.064,720, 575, 391, -1, -1, -1, -6, -1, 10, 963, 935, 616,≠
2025-03-10 12:58:29.114,702, 595, 416, 4, -6, -1, -8, 1, 11, 956, 923, 649,≠
2025-03-10 12:58:29.176,551, 629, 460, -12, 14, -20, -3, 0, 9, 957, 896, 508,≠
2025-03-10 12:58:29.234,771, 1019, 541, 30, -13, -14, -6, 0, 10, 958, 912, 465,≠
2025-03-10 12:58:29.284,219, 666, 61, -23, 8, 44, -6, 0, 12, 971, 951, 570,≠
2025-03-10 12:58:29.334,584, 419, 427, 7, 8, 8, -7, 0, 11, 971, 950, 659,≠
2025-03-10 12:58:29.395,610, 606, 236, 15, 31, -2, -8, -1, 10, 964, 929, 683,≠
2025-03-10 12:58:29.451,571, 702, 648, 19, 2, -13, -6, 1, 11, 951, 786, 467,≠
2025-03-10 12:58:29.509,927, 1068, 448, -5, -13, 25, -5, 0, 13, 972, 936, 523,≠
2025-03-10 12:58:29.565,166, 180, 112, -15, 5, 19, -8, -1, 11, 973, 947, 631,≠
2025-03-10 12:58:29.619,746, 224, 424, -17, -11, -45, -8, 0, 11, 963, 930, 717,≠
2025-03-10 12:58:29.677,434, 715, 916, -6, -63, 35, -7, 0, 10, 960, 922, 763,≠
2025-03-10 12:58:29.728,868, 615, 20, 22, 5, 12, -7, 1, 10, 975, 937, 629,≠
2025-03-10 12:58:29.784,1148, 401, 365, 7, 30, 8, -6, 0, 11, 970, 905, 466,≠
2025-03-10 12:58:29.844,1177, 311, 584, -42, 26, -28, -6, 1, 11, 956, 804, 571,≠
2025-03-10 12:58:29.895,594, 521, 628, -63, 44, -46, -3, 1, 6, 943, 830, 535,≠
2025-03-10 12:58:30.204,696, 546, 459, 9, -14, 6, -6, 0, 7, 931, 768, 384,≈
2025-03-10 12:58:30.254,720, 565, 452, 10, -13, 6, -5, 1, 8, 933, 772, 387,≈
2025-03-10 12:58:30.312,730, 573, 404, 2, -4, 2, -6, 1, 8, 933, 788, 408,≈
2025-03-10 12:58:30.364,686, 565, 478, 0, -1, -1, -5, 1, 6, 935, 809, 425,≈
2025-03-10 12:58:30.414,709, 568, 431, 5, -10, 3, -6, 1, 9, 940, 815, 414,≈
2025-03-10 12:58:30.464,716, 572, 423, 2, -6, 2, -6, 0, 9, 938, 818, 431,≈
2025-03-10 12:58:30.520,715, 558, 422, 1, -6, 2, -6, 1, 8, 943, 824, 424,≈
2025-03-10 12:58:30.574,760, 558, 390, -2, -1, -1, -6, 0, 8, 944, 826, 422,≈
2025-03-10 12:58:30.627,708, 562, 435, 1, -2, 0, -7, 0, 9, 943, 831, 429,≈
2025-03-10 12:58:30.680,726, 576, 421, -2, -2, -2, -8, 1, 8, 941, 832, 437,≈
2025-03-10 12:58:30.730,727, 575, 417, -3, 0, -1, -6, 1, 8, 941, 826, 421,≈
2025-03-10 12:58:30.784,712, 567, 430, -2, 0, -3, -5, 0, 8, 943, 810, 388,≈
2025-03-10 12:58:30.839,706, 570, 412, 3, -3, -2, -6, 0, 9, 942, 801, 370,≈
2025-03-10 12:58:30.893,725, 580, 416, -3, 0, -2, -6, 1, 8, 943, 807, 344,≈
2025-03-10 12:58:30.946,710, 588, 403, -4, 1, -2, -7, 2, 9, 945, 824, 319,≈
2025-03-10 12:58:30.994,708, 548, 379, -10, -4, -6, -5, 1, 9, 949, 859, 155,≈
2025-03-10 12:58:31.044,725, 577, 405, 2, -3, -4, -5, 0, 10, 952, 871, 40,≈
2025-03-10 12:58:31.104,710, 582, 422, 6, -1, -4, -5, 1, 8, 955, 883, 140,≈
2025-03-10 12:58:31.159,719, 441, 538, 13, -10, -9, -7, 1, 9, 953, 913, 242,≈
2025-03-10 12:58:31.214,685, 703, 376, 14, -18, 4, -6, -1, 11, 965, 942, 613,≈
2025-03-10 12:58:31.268,568, 526, 315, 6, -3, 9, -8, 0, 11, 974, 947, 683,≈
2025-03-10 12:58:31.320,734, 547, 449, 6, 11, 16, -7, 0, 11, 971, 946, 683,≈
2025-03-10 12:58:31.377,750, 507, 558, -3, -4, 0, -8, 0, 11, 976, 949, 728,≈
2025-03-10 12:58:31.434,802, 494, 215, -5, 24, -19, -8, 1, 12, 964, 931, 716,≈
2025-03-10 12:58:31.491,584, 604, 501, 0, 17, -21, -6, 0, 10, 952, 868, 551,≈
2025-03-10 12:58:31.545,1805, -344, 105, 17, -10, -22, -5, -1, 11, 959, 853, 382,≈
2025-03-10 12:58:31.604,937, 560, 448, -14, -15, 21, -6, 0, 12, 972, 935, 596,≈
2025-03-10 12:58:31.659,719, 499, 392, 9, 2, 12, -8, 0, 12, 976, 946, 672,≈
2025-03-10 12:58:31.712,830, 742, 211, 2, 13, 25, -9, 0, 13, 971, 937, 634,≈
2025-03-10 12:58:31.768,756, 452, 509, -10, -3, -3, -8, -1, 11, 968, 939, 672,≈
2025-03-10 12:58:31.827,761, 523, 334, -43, 78, -39, -7, 0, 10, 961, 929, 717,≈
2025-03-10 12:58:31.884,472, 634, 762, -21, 28, -14, -6, 2, 6, 951, 869, 630,≈
2025-03-10 12:58:32.694,674, 674, 398, 8, -8, -11, -4, 0, 10, 928, 754, 348,<
2025-03-10 12:58:32.756,652, 679, 417, 7, -9, -9, -3, -1, 11, 927, 755, 354,<
2025-03-10 12:58:32.810,635, 742, 379, 1, -17, 3, -3, -2, 10, 928, 740, 356,<
2025-03-10 12:58:32.864,583, 694, 315, -11, -12, 17, -5, -2, 10, 926, 742, 329,<
2025-03-10 12:58:32.924,651, 577, 366, -5, -2, 32, -6, -1, 11, 924, 719, 274,<
2025-03-10 12:58:32.976,660, 632, 365, 0, 6, 21, -7, -1, 10, 925, 718, 257,<
2025-03-10 12:58:33.034,703, 578, 334, -4, 3, 20, -6, 0, 11, 932, 732, 248,<
2025-03-10 12:58:33.084,884, 642, 407, 5, -2, 6, -7, 0, 10, 927, 760, 352,<
2025-03-10 12:58:33.142,654, 533, 429, -12, 19, -2, -6, 0, 11, 936, 791, 371,<
2025-03-10 12:58:33.194,716, 611, 382, 3, -5, 1, -5, 0, 11, 931, 816, 412,<
2025-03-10 12:58:33.245,754, 589, 333, -4, 2, -2, -7, 0, 10, 942, 828, 406,<
2025-03-10 12:58:33.304,688, 587, 402, -5, 5, -3, -5, 0, 11, 938, 838, 417,<
2025-03-10 12:58:33.359,719, 595, 424, -2, -3, 3, -6, -1, 9, 944, 852, 438,<
2025-03-10 12:58:33.411,761, 564, 400, 2, -11, 2, -6, 1, 10, 943, 864, 473,<
2025-03-10 12:58:33.464,722, 560, 402, -6, -9, 1, -7, 1, 11, 946, 887, 531,<
2025-03-10 12:58:33.519,632, 560, 593, -3, -5, -7, -7, 0, 11, 956, 916, 544,<
2025-03-10 12:58:33.575,496, 788, 256, -5, 7, -6, -5, 0, 10, 965, 922, 376,<
2025-03-10 12:58:33.627,915, 612, 248, -12, 5, 2, -6, 0, 10, 966, 904, 40,<
2025-03-10 12:58:33.682,569, 30, 387, -13, 26, 46, -8, 1, 10, 969, 935, 176,<
2025-03-10 12:58:33.734,691, 553, 463, 0, 8, 1, -5, 1, 9, 964, 924, 396,<
2025-03-10 12:58:33.784,789, 595, 193, -38, 57, -47, -7, 1, 8, 947, 832, 431,<
2025-03-10 12:58:34.068,684, 587, 442, -1, -9, 3, -5, 0, 8, 943, 874, 452,≤
2025-03-10 12:58:34.119,682, 570, 444, 2, -8, 4, -6, 1, 9, 943, 878, 467,≤
2025-03-10 12:58:34.174,699, 591, 396, 3, -7, 3, -6, 1, 9, 945, 886, 495,≤
2025-03-10 12:58:34.227,739, 588, 370, -4, -1, -2, -6, -1, 9, 947, 893, 505,≤
2025-03-10 12:58:34.278,692, 581, 442, -2, -2, -2, -6, 0, 8, 945, 893, 526,≤
2025-03-10 12:58:34.334,718, 565, 401, -1, -4, 2, -6, 1, 11, 948, 901, 520,≤
2025-03-10 12:58:34.391,758, 768, 501, 17, -8, -7, -6, 1, 9, 952, 910, 565,≤
2025-03-10 12:58:34.444,679, 540, 424, -6, -6, -5, -8, 1, 8, 963, 925, 420,≤
2025-03-10 12:58:34.494,1204, 576, 181, 22, 21, -1, -6, 1, 11, 960, 900, 55,≤
2025-03-10 12:58:34.554,1053, 788, 236, 14, 23, 23, -6, 0, 10, 965, 916, 57,≤
2025-03-10 12:58:34.610,741, 1001, 416, -14, 8, 28, -6, -1, 11, 971, 943, 418,≤
2025-03-10 12:58:34.664,556, 363, 403, 29, 13, -9, -6, 0, 9, 962, 902, 517,≤
2025-03-10 12:58:34.718,528, 639, 649, 21, 6, -5, -5, 1, 9, 955, 735, 324,≤
2025-03-10 12:58:34.776,837, 856, 311, 21, -12, 19, -7, 0, 11, 967, 915, 467,≤
2025-03-10 12:58:34.827,466, 447, 342, -2, 7, 16, -9, 0, 11, 970, 937, 513,≤
2025-03-10 12:58:34.884,794, 549, 358, -13, 16, -7, -7, 2, 11, 954, 860, 567,≤
2025-03-10 12:58:34.934,667, 536, 532, -47, 54, -48, -6, 0, 8, 912, 474, 312,≤
2025-03-10 12:58:35.234,724, 583, 396, 3, -10, 3, -6, 1, 8, 926, 752, 406,>
2025-03-10 12:58:35.278,728, 586, 382, 1, -8, 2, -6, 1, 9, 927, 758, 413,>
2025-03-10 12:58:35.334,722, 608, 373, -1, 2, 0, -6, 2, 8, 927, 761, 414,>
2025-03-10 12:58:35.394,705, 579, 432, -6, -2, -4, -5, -1, 8, 929, 754, 400,>
2025-03-10 12:58:35.444,705, 598, 409, -3, -4, -2, -6, 1, 10, 930, 754, 396,>
2025-03-10 12:58:35.494,696, 586, 436, -6, -2, -4, -5, 0, 8, 930, 754, 368,>
2025-03-10 12:58:35.558,728, 574, 379, 1, -3, -1, -6, 2, 10, 930, 779, 398,>
2025-03-10 12:58:35.611,686, 611, 423, -2, -2, -4, -5, 1, 11, 933, 784, 391,>
2025-03-10 12:58:35.664,657, 616, 399, -4, -10, -1, -5, 1, 9, 932, 806, 386,>
2025-03-10 12:58:35.719,708, 597, 381, -8, -14, -15, -5, 0, 11, 948, 870, 179,>
2025-03-10 12:58:35.775,799, 637, 278, 7, 9, 37, -5, 0, 12, 966, 931, 547,>
2025-03-10 12:58:35.827,662, 690, 566, 10, -6, 2, -6, 0, 13, 967, 931, 624,>
2025-03-10 12:58:35.884,471, 312, 636, -18, 22, 5, -7, -1, 12, 970, 906, 317,>
2025-03-10 12:58:35.934,847, 603, 554, -1, 19, 6, -6, 0, 11, 957, 847, 447,>
2025-03-10 12:58:35.994,502, 629, 599, -36, 46, -29, -5, -1, 9, 944, 841, 505,>
2025-03-10 12:58:36.284,714, 580, 413, -1, -4, -1, -7, 1, 10, 939, 830, 436,≥
2025-03-10 12:58:36.336,717, 565, 405, -2, -3, -2, -6, 0, 9, 937, 831, 448,≥
2025-03-10 12:58:36.391,702, 588, 405, -7, -1, -5, -7, 1, 9, 936, 833, 433,≥
2025-03-10 12:58:36.443,695, 588, 425, -5, -1, -5, -6, 2, 9, 936, 816, 386,≥
2025-03-10 12:58:36.497,713, 574, 406, -6, -4, -3, -7, 2, 9, 934, 810, 351,≥
2025-03-10 12:58:36.554,553, 582, 566, 12, -25, 3, -6, 0, 10, 938, 825, 353,≥
2025-03-10 12:58:36.611,834, 481, 284, 18, -9, -10, -6, 2, 11, 955, 892, 255,≥
2025-03-10 12:58:36.664,792, 595, 351, 27, 0, 23, -6, 0, 11, 967, 936, 624,≥
2025-03-10 12:58:36.714,823, 671, 254, 26, 7, 2, -7, -1, 11, 971, 938, 581,≥
2025-03-10 12:58:36.768,819, 709, -64, -4, 40, 9, -6, -1, 13, 966, 902, 426,≥
2025-03-10 12:58:36.827,851, 312, 277, -17, 60, -37, -6, 0, 11, 958, 798, 436,≥
2025-03-10 12:58:36.886,588, 761, 595, 41, -60, 40, -6, 0, 11, 963, 843, 358,≥
2025-03-10 12:58:36.942,598, 737, 112, -14, 8, 33, -8, -1, 13, 972, 937, 483,≥
2025-03-10 12:58:36.994,680, 544, 387, -3, 12, 15, -7, 1, 11, 972, 941, 605,≥
2025-03-10 12:58:37.054,902, 503, 84, -45, 75, -59, -7, -1, 10, 952, 848, 600,≥
2025-03-10 12:58:37.344,686, 559, 488, -11, -4, 5, -6, 1, 8, 928, 669, 339,±
2025-03-10 12:58:37.394,700, 558, 489, -6, -4, 6, -6, 1, 8, 929, 677, 343,±
2025-03-10 12:58:37.444,703, 576, 435, -5, -3, 3, -6, 0, 8, 934, 707, 339,±
2025-03-10 12:58:37.503,706, 586, 435, -6, 1, 1, -6, 1, 8, 934, 761, 391,±
2025-03-10 12:58:37.556,681, 582, 450, -7, -3, 0, -6, 0, 9, 939, 802, 399,±
2025-03-10 12:58:37.609,715, 555, 440, -5, -2, 2, -7, 0, 9, 942, 817, 411,±
2025-03-10 12:58:37.659,689, 581, 464, -4, 1, 0, -7, 0, 8, 942, 830, 417,±
2025-03-10 12:58:37.710,704, 581, 462, -4, -2, 2, -5, 1, 8, 945, 837, 413,±
2025-03-10 12:58:37.764,701, 572, 463, -6, -3, 3, -5, 1, 8, 946, 839, 405,±
2025-03-10 12:58:37.818,710, 560, 504, 5, -10, 3, -6, 1, 8, 945, 845, 404,±
2025-03-10 12:58:37.869,728, 552, 389, 1, -5, -1, -6, 3, 7, 949, 856, 399,±
2025-03-10 12:58:37.925,719, 561, 436, -6, 1, -5, -7, 1, 9, 949, 860, 400,±
2025-03-10 12:58:37.977,698, 572, 484, 1, -4, -1, -6, 2, 9, 949, 850, 353,±
2025-03-10 12:58:38.026,676, 545, 425, 3, 0, -4, -5, 0, 8, 948, 853, 353,±
2025-03-10 12:58:38.084,790, 436, 485, -31, -19, -25, -6, 2, 10, 954, 872, 258,±
2025-03-10 12:58:38.144,947, 588, 300, 59, -17, -10, -7, -1, 10, 967, 932, 168,±
2025-03-10 12:58:38.194,586, 677, 410, -3, 14, 33, -7, 0, 11, 975, 952, 553,±
2025-03-10 12:58:38.257,845, 236, 270, -19, 8, -45, -8, 0, 10, 970, 933, 674,±
2025-03-10 12:58:38.314,1480, 200, 473, 7, -19, -14, -8, 0, 9, 967, 929, 629,±
2025-03-10 12:58:38.364,579, 438, 311, 18, 27, 15, -8, 1, 10, 975, 933, 489,±
2025-03-10 12:58:38.418,697, 607, 399, -4, 16, -2, -7, 0, 9, 965, 875, 525,±
2025-03-10 12:58:38.476,497, 619, 788, 23, -21, 15, -6, 1, 11, 959, 806, 409,±
2025-03-10 12:58:38.534,832, 1059, 152, -8, 4, 34, -6, 0, 11, 975, 937, 445,±
2025-03-10 12:58:38.590,665, 567, 461, -3, 14, 20, -6, 2, 10, 977, 944, 626,±
2025-03-10 12:58:38.644,797, 530, 177, -38, 66, -50, -7, 1, 9, 959, 874, 594,±
2025-03-10 12:58:38.694,525, 611, 804, -12, 18, -19, -5, 2, 6, 941, 703, 340,±
2025-03-10 12:58:38.968,706, 552, 452, -11, -6, -5, -5, 1, 8, 934, 755, 411,∓
2025-03-10 12:58:39.023,693, 563, 441, -11, -7, -6, -7, 2, 7, 935, 756, 408,∓
2025-03-10 12:58:39.076,698, 566, 469, -7, -4, -2, -6, 1, 9, 939, 775, 378,∓
2025-03-10 12:58:39.126,700, 583, 453, -5, -6, 4, -5, 2, 7, 938, 801, 372,∓
2025-03-10 12:58:39.184,717, 544, 412, -2, -4, -2, -6, 1, 8, 944, 828, 380,∓
2025-03-10 12:58:39.241,677, 564, 459, -8, -3, -11, -5, 3, 7, 946, 837, 393,∓
2025-03-10 12:58:39.295,525, 555, 703, 15, -36, -4, -6, 0, 8, 946, 817, 314,∓
2025-03-10 12:58:39.345,789, 201, 326, 31, -13, -13, -8, 3, 8, 966, 911, 35,∓
2025-03-10 12:58:39.404,427, 686, 292, 5, 0, 28, -5, 0, 9, 975, 952, 587,∓
2025-03-10 12:58:39.457,639, 565, 317, 25, 16, 7, -7, 1, 8, 972, 936, 670,∓
2025-03-10 12:58:39.512,640, 458, 405, 15, 25, -27, -7, 0, 10, 953, 785, 578,∓
2025-03-10 12:58:39.564,760, 702, 397, 18, -13, -17, -7, 1, 10, 958, 818, 260,∓
2025-03-10 12:58:39.625,577, 494, 243, -15, 2, 36, -7, 1, 11, 974, 940, 589,∓
2025-03-10 12:58:39.677,640, 574, 443, 4, 8, 4, -8, -1, 10, 969, 929, 679,∓
2025-03-10 12:58:39.725,610, 659, 552, 1, -12, -15, -7, 0, 12, 956, 882, 665,∓
2025-03-10 12:58:39.784,656, 557, 312, 1, 2, 8, -6, 0, 11, 972, 905, 526,∓
2025-03-10 12:58:39.841,834, 593, 262, -18, 42, 23, -7, -1, 11, 968, 861, 474,∓
2025-03-10 12:58:39.895,850, 574, 72, -31, 47, -51, -6, 0, 8, 943, 683, 536,∓
2025-03-10 12:58:40.187,695, 567, 464, -10, -1, 2, -7, 0, 8, 916, 614, 208,∞
2025-03-10 12:58:40.240,685, 576, 469, -10, -2, 2, -5, 2, 6, 918, 620, 200,∞
2025-03-10 12:58:40.292,689, 566, 472, -5, 0, 1, -6, 3, 7, 920, 671, 248,∞
2025-03-10 12:58:40.344,692, 576, 464, -3, -1, 3, -5, 1, 6, 922, 697, 297,∞
2025-03-10 12:58:40.394,697, 569, 463, -2, -3, 4, -5, 1, 6, 927, 713, 322,∞
2025-03-10 12:58:40.444,711, 555, 462, -2, -1, 0, -6, 2, 7, 927, 733, 369,∞
2025-03-10 12:58:40.506,681, 556, 484, -2, -3, 1, -6, 0, 7, 933, 739, 346,∞
2025-03-10 12:58:40.559,708, 560, 457, 1, -7, 0, -7, 2, 7, 932, 763, 369,∞
2025-03-10 12:58:40.610,721, 562, 425, -2, -5, -1, -6, 2, 7, 933, 758, 337,∞
2025-03-10 12:58:40.660,692, 558, 458, 1, 1, -1, -5, 2, 7, 938, 779, 340,∞
2025-03-10 12:58:40.714,729, 559, 442, 2, -2, -2, -8, 2, 7, 940, 786, 344,∞
2025-03-10 12:58:40.764,737, 578, 413, 0, -3, -1, -6, 0, 9, 940, 804, 368,∞
2025-03-10 12:58:40.817,672, 560, 491, 4, 3, -2, -6, 2, 9, 941, 826, 386,∞
2025-03-10 12:58:40.867,703, 556, 440, 8, 5, 0, -6, 2, 8, 941, 800, 398,∞
2025-03-10 12:58:40.923,753, 596, 391, 1, 0, -1, -7, 2, 8, 944, 800, 399,∞
2025-03-10 12:58:40.977,640, 561, 494, -8, -2, -4, -6, 1, 8, 944, 826, 399,∞
2025-03-10 12:58:41.034,755, 576, 394, 6, -17, 16, -7, 1, 8, 949, 873, 539,∞
2025-03-10 12:58:41.084,689, 566, 450, 1, -2, -1, -6, 2, 9, 951, 886, 567,∞
2025-03-10 12:58:41.141,674, 511, 634, 6, -17, -11, -8, 0, 10, 963, 905, 448,∞
2025-03-10 12:58:41.194,556, 592, 345, -25, 24, 16, -7, 1, 10, 970, 899, 63,∞
2025-03-10 12:58:41.244,658, 559, 336, -29, 15, -19, -6, 3, 10, 964, 894, 27,∞
2025-03-10 12:58:41.309,976, 705, 705, 24, -36, 0, -5, 1, 8, 968, 931, 319,∞
2025-03-10 12:58:41.359,520, 475, 433, 20, -4, 17, -8, 2, 9, 977, 941, 442,∞
2025-03-10 12:58:41.414,649, 450, 572, -22, -8, -2, -8, 1, 9, 970, 939, 496,∞
2025-03-10 12:58:41.469,736, 530, 510, 0, -9, -18, -6, 1, 9, 967, 931, 459,∞
2025-03-10 12:58:41.522,832, 618, 406, -9, 30, 18, -8, 1, 9, 971, 907, 71,∞
2025-03-10 12:58:41.578,773, 602, 157, -17, 36, 10, -6, 1, 9, 963, 805, 54,∞
2025-03-10 12:58:41.626,833, 518, 157, -43, 82, -44, -6, 3, 7, 933, 737, 233,∞
2025-03-10 12:58:41.910,675, 578, 476, 7, -7, 3, -6, 1, 6, 922, 696, 248,∑
2025-03-10 12:58:41.958,682, 571, 470, 7, -8, 3, -7, 1, 8, 924, 697, 237,∑
2025-03-10 12:58:42.007,696, 570, 443, 5, -6, 1, -6, 1, 7, 926, 721, 294,∑
2025-03-10 12:58:42.064,683, 558, 471, 4, -6, 5, -6, 0, 7, 929, 754, 316,∑
2025-03-10 12:58:42.117,708, 570, 445, 9, -11, 5, -6, 1, 7, 933, 784, 374,∑
2025-03-10 12:58:42.168,733, 562, 390, 0, -5, 2, -6, 0, 6, 936, 811, 393,∑
2025-03-10 12:58:42.222,713, 571, 432, -3, 2, -2, -7, 1, 9, 939, 830, 382,∑
2025-03-10 12:58:42.277,703, 574, 460, -4, -1, 1, -7, 1, 8, 940, 840, 407,∑
2025-03-10 12:58:42.324,718, 567, 432, -6, -2, -2, -5, 2, 8, 947, 850, 379,∑
2025-03-10 12:58:42.376,706, 579, 444, -3, -1, 0, -6, 1, 8, 945, 854, 377,∑
2025-03-10 12:58:42.434,716, 561, 428, -4, 2, 1, -7, 0, 8, 946, 860, 386,∑
2025-03-10 12:58:42.489,691, 554, 455, -4, -4, -2, -7, 2, 8, 947, 864, 389,∑
2025-03-10 12:58:42.542,761, 569, 414, -6, -4, -6, -8, 3, 8, 945, 869, 364,∑
2025-03-10 12:58:42.594,749, 572, 489, 4, -4, 5, -5, 1, 8, 948, 881, 428,∑
2025-03-10 12:58:42.644,692, 522, 471, 5, -15, 12, -7, 0, 7, 951, 894, 507,∑
2025-03-10 12:58:42.694,776, 496, 427, 8, -7, -1, -7, 1, 9, 959, 900, 551,∑
2025-03-10 12:58:42.754,599, 625, 467, 7, 12, -12, -7, 2, 8, 952, 881, 422,∑
2025-03-10 12:58:42.809,651, 754, 497, -12, -8, -25, -8, 0, 8, 955, 881, 187,∑
2025-03-10 12:58:42.868,516, 1211, 355, 12, -25, 48, -7, 1, 12, 971, 944, 440,∑
2025-03-10 12:58:42.922,645, 514, 415, 8, 7, 16, -9, -1, 10, 973, 950, 630,∑
2025-03-10 12:58:42.975,612, 557, 400, 1, 5, -35, -8, 2, 11, 964, 919, 652,∑
2025-03-10 12:58:43.025,799, 610, 565, -2, 0, -14, -6, 0, 11, 959, 901, 466,∑
2025-03-10 12:58:43.084,859, 546, 553, -11, 14, 17, -6, 0, 9, 973, 929, 442,∑
2025-03-10 12:58:43.140,749, 619, 485, 4, 13, 24, -7, 2, 10, 974, 943, 549,∑
2025-03-10 12:58:43.194,534, 482, 344, -3, 17, 3, -8, -1, 10, 968, 923, 502,∑
2025-03-10 12:58:43.254,696, 467, 379, -15, 12, -10, -6, 1, 10, 963, 808, 39,∑
2025-03-10 12:58:43.307,601, 761, 335, -1, -2, 36, -7, 1, 10, 973, 933, 356,∑
2025-03-10 12:58:43.358,637, 401, 399, 7, 9, 10, -7, 0, 12, 972, 941, 527,∑
2025-03-10 12:58:43.418,892, 426, 346, -18, 18, -37, -8, 0, 10, 953, 847, 560,∑
2025-03-10 12:58:43.734,725, 565, 439, 2, -14, 6, -6, 1, 9, 928, 716, 329,∏
2025-03-10 12:58:43.784,730, 562, 425, 2, -14, 6, -5, 1, 8, 930, 717, 326,∏
2025-03-10 12:58:43.841,731, 540, 425, -1, -1, -1, -7, 1, 7, 938, 758, 375,∏
2025-03-10 12:58:43.894,702, 577, 457, -3, -1, 0, -7, 0, 7, 936, 785, 400,∏
2025-03-10 12:58:43.945,716, 555, 443, -2, -3, 0, -8, 1, 10, 938, 813, 406,∏
2025-03-10 12:58:43.997,713, 546, 435, -3, 0, -1, -8, 0, 10, 941, 823, 426,∏
2025-03-10 12:58:44.054,721, 558, 438, 0, -2, 0, -8, 2, 8, 944, 831, 414,∏
2025-03-10 12:58:44.107,699, 558, 444, -3, -2, -1, -7, 1, 8, 942, 839, 432,∏
2025-03-10 12:58:44.161,724, 560, 434, -2, -1, 1, -6, 2, 8, 946, 848, 416,∏
2025-03-10 12:58:44.210,715, 551, 420, -2, -2, -3, -6, 1, 8, 946, 852, 415,∏
2025-03-10 12:58:44.269,712, 563, 450, -12, 3, -10, -7, 1, 7, 945, 849, 403,∏
2025-03-10 12:58:44.323,661, 550, 444, -1, -1, -14, -8, 0, 8, 940, 788, 232,∏
2025-03-10 12:58:44.374,609, 642, 513, 7, -23, 3, -7, 1, 8, 939, 777, 185,∏
2025-03-10 12:58:44.434,925, 235, 373, 42, -24, -12, -5, -1, 11, 964, 916, 49,∏
2025-03-10 12:58:44.484,622, 583, 322, 2, -1, 50, -9, 2, 10, 977, 955, 528,∏
2025-03-10 12:58:44.540,636, 591, 381, 10, 6, 8, -9, 1, 11, 974, 948, 652,∏
2025-03-10 12:58:44.594,750, 426, 344, -17, 27, -61, -8, 0, 10, 957, 886, 605,∏
2025-03-10 12:58:44.654,685, 649, 642, 13, -39, 19, -6, 1, 11, 953, 861, 420,∏
2025-03-10 12:58:44.707,658, 515, 82, 7, 22, 22, -6, 0, 11, 971, 916, 398,∏
2025-03-10 12:58:44.758,728, 577, 224, -1, 26, 16, -6, 2, 9, 967, 889, 426,∏
2025-03-10 12:58:44.818,747, 643, 262, -18, -6, -26, -5, 1, 10, 954, 895, 601,∏
2025-03-10 12:58:44.872,756, 717, 614, -16, -15, 5, -7, 0, 9, 965, 927, 573,∏
2025-03-10 12:58:44.924,1053, 373, 335, 5, 27, 25, -8, 0, 10, 974, 916, 370,∏
2025-03-10 12:58:44.982,931, 356, 316, -20, 7, -27, -7, 2, 8, 957, 835, 531,∏
2025-03-10 12:58:45.039,609, 554, 627, -48, 50, -39, -6, 1, 7, 926, 751, 360,∏
2025-03-10 12:58:45.300,728, 543, 455, -4, -8, 0, -7, 0, 8, 924, 627, 50,√
2025-03-10 12:58:45.344,743, 541, 421, -5, -6, 0, -8, 0, 5, 924, 630, 34,√
2025-03-10 12:58:45.400,705, 540, 459, -2, 0, -2, -6, 2, 7, 925, 653, 79,√
2025-03-10 12:58:45.455,689, 538, 500, 0, 1, -1, -6, 0, 8, 925, 688, 170,√
2025-03-10 12:58:45.507,704, 554, 465, -2, -1, 0, -6, 1, 5, 929, 708, 188,√
2025-03-10 12:58:45.559,717, 551, 465, -5, -1, -1, -5, 2, 7, 931, 711, 139,√
2025-03-10 12:58:45.614,703, 554, 481, -2, -2, 0, -7, 2, 6, 933, 741, 128,√
2025-03-10 12:58:45.664,690, 548, 477, 5, -14, 4, -7, 3, 7, 934, 763, 41,√
2025-03-10 12:58:45.718,753, 543, 377, 3, -9, 3, -6, 1, 8, 940, 781, 126,√
2025-03-10 12:58:45.772,721, 539, 452, -4, 1, -4, -7, 1, 8, 940, 795, 150,√
2025-03-10 12:58:45.823,738, 524, 492, 2, 5, 2, -7, 1, 8, 941, 805, 105,√
2025-03-10 12:58:45.876,661, 560, 491, 16, 2, -2, -6, 2, 7, 945, 812, 164,√
2025-03-10 12:58:45.929,763, 560, 386, 2, -2, -11, -7, 2, 9, 941, 809, 256,√
2025-03-10 12:58:45.984,647, 610, 490, 15, -4, -10, -6, 0, 8, 943, 798, 245,√
2025-03-10 12:58:46.040,822, 495, 311, 31, -6, -10, -5, 1, 11, 958, 901, 179,√
2025-03-10 12:58:46.094,599, 503, 597, -1, 3, 22, -7, 1, 10, 968, 934, 452,√
2025-03-10 12:58:46.145,554, 376, 427, 41, 19, 12, -6, 0, 11, 971, 920, 462,√
2025-03-10 12:58:46.208,766, 616, 275, -35, 16, 18, -7, -1, 10, 968, 915, 176,√
2025-03-10 12:58:46.264,979, 503, 331, -9, -50, -53, -8, 1, 8, 963, 943, 372,√
2025-03-10 12:58:46.319,718, 662, 518, 22, -28, 1, -7, 0, 8, 976, 957, 463,√
2025-03-10 12:58:46.371,760, 779, 222, 18, 15, 19, -8, -1, 9, 972, 952, 579,√
2025-03-10 12:58:46.424,870, 483, 205, -15, 51, -45, -8, 0, 10, 964, 926, 623,√
2025-03-10 12:58:46.725,691, 587, 441, -9, 2, 0, -7, 2, 10, 928, 688, 323,∛
2025-03-10 12:58:46.774,689, 582, 441, -8, 1, 0, -6, 0, 9, 925, 684, 310,∛
2025-03-10 12:58:46.824,722, 584, 388, -5, 1, 1, -5, 0, 8, 928, 690, 284,∛
2025-03-10 12:58:46.874,704, 583, 447, -3, 1, 1, -6, 1, 9, 931, 712, 280,∛
2025-03-10 12:58:46.934,705, 588, 432, -4, -1, 1, -4, 2, 8, 931, 722, 280,∛
2025-03-10 12:58:46.990,713, 591, 424, -5, -1, 3, -6, 0, 10, 931, 737, 330,∛
2025-03-10 12:58:47.041,715, 550, 423, -1, -3, 1, -6, 0, 11, 931, 758, 351,∛
2025-03-10 12:58:47.094,715, 575, 424, 1, 0, 0, -6, 1, 10, 934, 767, 367,∛
2025-03-10 12:58:47.144,693, 569, 419, 3, 2, 0, -6, 1, 8, 935, 768, 360,∛
2025-03-10 12:58:47.194,732, 578, 427, -2, 1, 0, -5, 0, 9, 935, 778, 380,∛
2025-03-10 12:58:47.246,718, 548, 431, 1, 2, -2, -6, 0, 8, 935, 790, 378,∛
2025-03-10 12:58:47.304,708, 589, 428, 1, 0, -3, -6, 2, 8, 937, 784, 354,∛
2025-03-10 12:58:47.357,724, 566, 417, -1, 2, -2, -6, 0, 11, 937, 785, 359,∛
2025-03-10 12:58:47.407,675, 588, 459, 4, 1, -1, -6, 2, 8, 935, 780, 342,∛
2025-03-10 12:58:47.459,716, 577, 375, 0, -3, -2, -5, 0, 9, 936, 785, 336,∛
2025-03-10 12:58:47.515,755, 476, 397, 4, -3, -17, -5, 1, 9, 941, 832, 183,∛
2025-03-10 12:58:47.574,1002, 672, 534, 23, -11, 13, -6, 0, 10, 958, 908, 331,∛
2025-03-10 12:58:47.624,467, 321, 551, 21, 22, 20, -8, 0, 10, 964, 908, 486,∛
2025-03-10 12:58:47.684,731, 652, 219, -29, 19, 16, -9, 2, 10, 965, 890, 274,∛
2025-03-10 12:58:47.739,743, 418, 438, 11, -56, -44, -6, 1, 8, 956, 921, 393,∛
2025-03-10 12:58:47.794,879, 454, 528, 24, -39, 0, -7, -1, 9, 966, 946, 556,∛
2025-03-10 12:58:47.844,684, 649, 289, 7, 16, 7, -8, 2, 11, 961, 934, 630,∛
2025-03-10 12:58:47.894,496, 688, 463, -16, 30, -66, -7, 0, 9, 955, 915, 597,∛
2025-03-10 12:58:47.957,689, 771, 629, 28, -59, 22, -4, 1, 11, 946, 888, 616,∛
2025-03-10 12:58:48.017,843, 768, 214, 11, -3, -3, -5, -1, 11, 962, 940, 601,∛
2025-03-10 12:58:48.071,615, 681, 463, 2, -1, 8, -6, -2, 12, 970, 945, 667,∛
2025-03-10 12:58:48.124,748, 552, 231, 3, 11, 5, -6, 0, 12, 966, 940, 642,∛
2025-03-10 12:58:48.174,615, 606, 392, -9, 11, 4, -5, 0, 11, 968, 940, 544,∛
2025-03-10 12:58:48.234,700, 543, 293, -9, 15, 2, -5, -1, 10, 959, 901, 487,∛
2025-03-10 12:58:48.290,688, 606, 350, -48, 70, -32, -5, -1, 7, 942, 873, 440,∛
2025-03-10 12:58:48.344,455, 658, 679, -12, 11, 6, -3, 1, 8, 934, 809, 416,∛
2025-03-10 12:58:48.624,682, 602, 438, 6, -5, 5, -5, 1, 10, 927, 712, 264,∜
2025-03-10 12:58:48.674,693, 595, 429, 6, -5, 5, -6, 0, 9, 927, 715, 264,∜
2025-03-10 12:58:48.734,728, 589, 410, 7, -3, 4, -7, 0, 10, 931, 726, 300,∜
2025-03-10 12:58:48.787,681, 573, 454, 2, 3, 2, -6, 1, 9, 931, 741, 346,∜
2025-03-10 12:58:48.840,732, 601, 371, 5, -4, 0, -5, 0, 11, 933, 760, 369,∜
2025-03-10 12:58:48.894,659, 583, 459, 3, 0, -3, -6, 1, 10, 936, 771, 298,∜
2025-03-10 12:58:48.944,745, 662, 305, -3, -5, -7, -7, -1, 11, 944, 837, 62,∜
2025-03-10 12:58:49.005,825, 603, 576, 11, -4, 15, -7, -1, 11, 963, 914, 385,∜
2025-03-10 12:58:49.057,1251, 480, 210, 28, 22, 36, -8, -1, 11, 966, 902, 492,∜
2025-03-10 12:58:49.114,716, 775, 342, -57, 25, 21, -6, 0, 11, 963, 898, 317,∜
2025-03-10 12:58:49.174,1144, 634, 462, -6, -57, -40, -6, 1, 11, 954, 923, 413,∜
2025-03-10 12:58:49.224,468, 823, 218, 20, -27, 16, -7, 0, 10, 969, 946, 565,∜
2025-03-10 12:58:49.278,729, 616, 466, 1, 7, 3, -7, 0, 11, 970, 943, 677,∜
2025-03-10 12:58:49.338,532, 647, 362, -20, 40, -77, -6, 0, 11, 955, 914, 651,∜
2025-03-10 12:58:49.394,584, 756, 736, 23, -44, 20, -3, 0, 10, 943, 881, 575,∜
2025-03-10 12:58:49.444,718, 468, 60, -4, 4, -6, -3, -1, 13, 959, 934, 586,∜
2025-03-10 12:58:49.504,664, 686, 394, 2, -2, 3, -5, 0, 11, 961, 942, 580,∜
2025-03-10 12:58:49.558,696, 587, 329, 0, -1, 1, -6, -2, 13, 964, 945, 523,∜
2025-03-10 12:58:49.606,687, 639, 384, 2, -5, -5, -5, 0, 12, 967, 946, 487,∜
2025-03-10 12:58:49.665,675, 661, 436, 4, -12, 0, -5, -1, 12, 971, 943, 489,∜
2025-03-10 12:58:49.721,811, 640, 328, 12, 20, 0, -4, -1, 12, 967, 906, 61,∜
2025-03-10 12:58:49.774,961, 808, 562, -9, 7, 12, -6, -1, 14, 975, 943, 192,∜
2025-03-10 12:58:49.824,448, 485, 186, -14, 4, 14, -6, 0, 14, 973, 951, 606,∜
2025-03-10 12:58:49.890,729, 559, 256, -4, -16, -35, -5, -2, 12, 961, 929, 677,∜
2025-03-10 12:58:49.944,800, 255, 537, 22, -8, -16, -4, 0, 11, 969, 933, 644,∜
2025-03-10 12:58:49.994,624, 565, 108, -14, 52, 39, -4, 0, 13, 974, 937, 512,∜
2025-03-10 12:58:50.056,856, 400, 423, -31, 16, -18, -5, 1, 10, 960, 880, 516,∜
2025-03-10 12:58:50.114,631, 608, 577, -47, 45, -33, -4, 1, 8, 932, 846, 418,∜
2025-03-10 12:58:50.390,659, 586, 464, -2, -3, 4, -3, -1, 7, 925, 759, 362,∫
2025-03-10 12:58:50.439,669, 599, 464, -2, -4, 5, -3, 2, 8, 925, 763, 369,∫
2025-03-10 12:58:50.490,706, 584, 436, -4, 0, 1, -4, 0, 8, 927, 767, 356,∫
2025-03-10 12:58:50.544,683, 574, 469, -1, -3, 3, -4, 0, 7, 930, 778, 339,∫
2025-03-10 12:58:50.594,681, 588, 466, 1, -2, 4, -5, 1, 8, 934, 790, 358,∫
2025-03-10 12:58:50.645,695, 567, 433, -2, 0, 2, -6, 0, 7, 934, 802, 364,∫
2025-03-10 12:58:50.696,693, 579, 457, -3, 2, 2, -5, 2, 7, 939, 812, 341,∫
2025-03-10 12:58:50.754,683, 586, 447, 1, 0, 3, -4, 2, 8, 942, 810, 317,∫
2025-03-10 12:58:50.804,724, 563, 447, 3, 1, 0, -4, 1, 8, 942, 809, 299,∫
2025-03-10 12:58:50.856,689, 572, 451, 8, 5, -1, -6, 1, 8, 942, 809, 305,∫
2025-03-10 12:58:50.905,700, 606, 443, 1, -3, 3, -4, 1, 9, 945, 813, 337,∫
2025-03-10 12:58:50.959,672, 580, 427, -1, 2, 0, -5, 2, 8, 946, 838, 395,∫
2025-03-10 12:58:51.014,754, 568, 460, 7, -10, 15, -6, 1, 7, 946, 849, 437,∫
2025-03-10 12:58:51.064,712, 544, 445, 2, -11, 14, -6, 0, 8, 951, 862, 467,∫
2025-03-10 12:58:51.123,855, 223, 29, -30, -10, -9, -6, 2, 10, 955, 890, 497,∫
2025-03-10 12:58:51.174,570, 615, 553, 2, -6, -15, -5, 1, 9, 961, 911, 387,∫
2025-03-10 12:58:51.224,310, 530, 191, 48, 8, -5, -7, 0, 10, 969, 918, 262,∫
2025-03-10 12:58:51.284,838, 753, 430, -8, 37, 23, -6, 1, 10, 973, 911, 35,∫
2025-03-10 12:58:51.338,1029, 529, 457, 3, 23, -3, -7, 0, 9, 961, 815, 50,∫
2025-03-10 12:58:51.394,958, 552, 165, -35, 45, -35, -5, -1, 10, 918, 691, 273,∫
2025-03-10 12:58:51.684,651, 547, 480, -1, -8, 2, -7, 2, 8, 908, 746, 281,∮
2025-03-10 12:58:51.724,664, 540, 507, 1, -10, 3, -5, 1, 8, 909, 750, 285,∮
2025-03-10 12:58:51.787,729, 540, 421, 0, -5, 1, -6, 2, 9, 913, 769, 309,∮
2025-03-10 12:58:51.840,704, 577, 434, -3, 1, -2, -8, 2, 8, 920, 787, 307,∮
2025-03-10 12:58:51.892,717, 550, 447, -1, -6, 0, -6, 1, 9, 928, 814, 349,∮
2025-03-10 12:58:51.944,697, 560, 466, -4, 0, 0, -6, 1, 6, 935, 827, 341,∮
2025-03-10 12:58:51.994,723, 560, 418, -1, -2, 1, -5, 0, 8, 941, 839, 347,∮
2025-03-10 12:58:52.047,707, 554, 467, -2, -2, -1, -6, 1, 7, 938, 848, 362,∮
2025-03-10 12:58:52.105,704, 555, 414, 1, -3, -1, -5, 2, 8, 941, 855, 354,∮
2025-03-10 12:58:52.158,723, 543, 437, 1, -2, -2, -5, 0, 8, 940, 858, 370,∮
2025-03-10 12:58:52.206,709, 572, 448, -2, 0, -1, -5, 0, 8, 941, 861, 372,∮
2025-03-10 12:58:52.264,724, 571, 414, -2, -3, -1, -6, 0, 9, 947, 869, 373,∮
2025-03-10 12:58:52.322,658, 527, 525, -12, -7, -12, -5, 0, 7, 950, 894, 360,∮
2025-03-10 12:58:52.374,514, 338, 681, 33, -21, -24, -7, 1, 9, 960, 917, 32,∮
2025-03-10 12:58:52.429,843, 1038, -61, -1, 41, 33, -7, 0, 10, 975, 915, 31,∮
2025-03-10 12:58:52.487,690, 271, 820, -19, 1, -4, -5, 1, 9, 961, 916, 447,∮
2025-03-10 12:58:52.544,761, 418, 331, -13, -29, -25, -6, 1, 10, 955, 929, 604,∮
2025-03-10 12:58:52.594,539, 764, 337, 6, -1, 17, -7, 0, 12, 975, 947, 555,∮
2025-03-10 12:58:52.654,682, 606, 155, -24, 31, 16, -6, 0, 11, 972, 935, 348,∮
2025-03-10 12:58:52.707,759, 349, 431, -40, 10, -22, -6, 1, 8, 955, 848, 52,∮
2025-03-10 12:58:52.764,458, 653, 885, -13, -36, -31, -6, 0, 8, 941, 882, 452,∮
2025-03-10 12:58:52.822,764, 637, 323, -17, -24, 20, -6, 0, 8, 967, 938, 523,∮
2025-03-10 12:58:52.874,541, 838, 302, -19, 55, 47, -7, 1, 9, 975, 930, 38,∮
2025-03-10 12:58:52.924,799, 448, 347, -1, 40, 8, -7, 3, 7, 964, 833, 31,∮
2025-03-10 12:58:52.974,839, 603, 268, -39, 69, -50, -5, 1, 5, 910, 748, 257,∮
2025-03-10 12:58:53.264,679, 558, 501, 3, -12, 5, -4, 2, 5, 889, 707, 161,∂
2025-03-10 12:58:53.322,691, 557, 491, 2, -11, 4, -5, 1, 5, 889, 708, 160,∂
2025-03-10 12:58:53.374,706, 547, 487, -8, -1, 0, -3, 2, 5, 896, 723, 42,∂
2025-03-10 12:58:53.424,662, 569, 546, -4, -1, 1, -3, 1, 4, 907, 739, 52,∂
2025-03-10 12:58:53.474,673, 553, 528, -3, -1, 2, -4, 2, 3, 913, 756, 61,∂
2025-03-10 12:58:53.524,657, 553, 562, -1, -9, 4, -5, 2, 5, 922, 765, 36,∂
2025-03-10 12:58:53.584,697, 553, 474, -1, -10, 8, -4, 3, 5, 930, 779, 42,∂
2025-03-10 12:58:53.627,717, 504, 485, -1, -2, 2, -7, 3, 5, 935, 810, 38,∂
2025-03-10 12:58:53.687,675, 533, 517, 2, -2, 1, -5, 1, 6, 941, 836, 144,∂
2025-03-10 12:58:53.740,701, 535, 510, 4, -4, 4, -5, 2, 3, 943, 855, 190,∂
2025-03-10 12:58:53.790,695, 535, 483, -1, -2, -1, -5, 2, 6, 947, 866, 217,∂
2025-03-10 12:58:53.844,720, 533, 472, 0, -2, 0, -6, 4, 6, 948, 870, 266,∂
2025-03-10 12:58:53.898,669, 530, 533, 7, -1, -2, -5, 2, 5, 950, 873, 233,∂
2025-03-10 12:58:53.944,701, 541, 460, 0, -3, -5, -6, 2, 6, 948, 870, 214,∂
2025-03-10 12:58:54.006,638, 581, 532, -4, -14, -6, -5, 1, 6, 946, 867, 190,∂
2025-03-10 12:58:54.057,655, 901, 517, -8, -13, -15, -6, 0, 7, 953, 900, 39,∂
2025-03-10 12:58:54.115,1068, 797, 458, 43, -7, 14, -6, 2, 8, 966, 932, 436,∂
2025-03-10 12:58:54.169,556, 721, 507, 46, 18, 19, -6, 1, 9, 968, 931, 522,∂
2025-03-10 12:58:54.223,434, 576, 390, -44, 16, 5, -6, 0, 8, 968, 907, 31,∂
2025-03-10 12:58:54.274,934, 332, 663, 29, -17, -20, -7, 1, 8, 968, 927, 43,∂
2025-03-10 12:58:54.324,706, 771, 452, 10, -15, 18, -6, 0, 8, 976, 953, 382,∂
2025-03-10 12:58:54.387,672, 504, 400, -14, 23, 12, -7, 0, 9, 970, 940, 567,∂
2025-03-10 12:58:54.684,701, 567, 469, -6, -6, 1, -6, 0, 5, 934, 783, 379,∇
2025-03-10 12:58:54.740,686, 568, 465, -7, -5, 1, -5, 3, 6, 935, 783, 363,∇
2025-03-10 12:58:54.793,695, 549, 491, 1, -4, 4, -6, 3, 7, 939, 801, 369,∇
2025-03-10 12:58:54.842,711, 553, 457, 3, -4, 5, -5, 2, 7, 940, 836, 412,∇
2025-03-10 12:58:54.894,713, 540, 474, 1, 0, 2, -6, 1, 7, 944, 856, 437,∇
2025-03-10 12:58:54.944,706, 541, 476, 0, -2, 2, -6, 1, 7, 947, 867, 460,∇
2025-03-10 12:58:54.995,712, 551, 464, -4, 0, 0, -6, 2, 7, 948, 874, 470,∇
2025-03-10 12:58:55.044,709, 556, 470, -6, -1, -1, -6, 2, 7, 949, 873, 452,∇
2025-03-10 12:58:55.104,725, 541, 469, -3, -4, 2, -6, 3, 7, 957, 879, 399,∇
2025-03-10 12:58:55.158,701, 548, 479, 4, -4, 0, -6, 1, 6, 950, 882, 436,∇
2025-03-10 12:58:55.205,760, 542, 433, 1, -3, 0, -6, 3, 7, 951, 888, 460,∇
2025-03-10 12:58:55.256,672, 562, 507, -15, 5, -10, -6, 2, 7, 959, 890, 416,∇
2025-03-10 12:58:55.314,650, 552, 507, -5, -11, -8, -6, 2, 7, 953, 863, 167,∇
2025-03-10 12:58:55.374,677, 682, 460, 46, -13, -29, -6, 2, 8, 955, 885, 54,∇
2025-03-10 12:58:55.431,977, 862, 211, -11, -15, 56, -5, 1, 10, 978, 945, 416,∇
2025-03-10 12:58:55.484,420, 511, 543, -2, 0, 20, -8, 3, 9, 975, 950, 551,∇
2025-03-10 12:58:55.538,749, 423, 447, 0, 3, -10, -8, 2, 9, 971, 948, 540,∇
2025-03-10 12:58:55.588,718, 551, 497, 19, -7, -8, -7, 1, 10, 974, 944, 601,∇
2025-03-10 12:58:55.644,1092, 685, 554, 37, 18, -7, -9, 0, 12, 973, 932, 538,∇
2025-03-10 12:58:55.695,784, 574, 211, -33, 45, 9, -7, 0, 10, 968, 903, 408,∇
2025-03-10 12:58:55.756,642, 603, 337, -53, 11, -66, -6, 2, 10, 946, 865, 403,∇
2025-03-10 12:58:55.805,589, 647, 517, 1, -60, 25, -6, 0, 8, 955, 909, 465,∇
2025-03-10 12:58:55.869,584, 1025, 176, -14, 6, 39, -6, 1, 8, 978, 939, 425,∇
2025-03-10 12:58:55.921,436, 352, 419, -13, 25, 30, -7, 2, 7, 970, 910, 325,∇
2025-03-10 12:58:55.974,770, 541, 175, -28, 35, -59, -7, 2, 7, 947, 809, 330,∇
2025-03-10 12:58:56.037,597, 520, 702, -15, 20, -33, -4, 2, 5, 880, 701, 167,∇
2025-03-10 12:58:56.294,709, 536, 473, -1, -3, 1, -7, 1, 6, 903, 698, 165,∆
2025-03-10 12:58:56.352,705, 554, 488, -2, -1, 2, -4, 2, 6, 904, 702, 176,∆
2025-03-10 12:58:56.405,693, 559, 496, 0, -3, 1, -5, 2, 6, 908, 717, 173,∆
2025-03-10 12:58:56.456,689, 545, 489, -3, -5, 0, -6, 2, 7, 913, 732, 48,∆
2025-03-10 12:58:56.505,700, 557, 465, -4, -8, 2, -5, 1, 6, 921, 749, 41,∆
2025-03-10 12:58:56.556,720, 537, 456, -3, -7, 1, -5, 2, 6, 927, 772, 54,∆
2025-03-10 12:58:56.605,722, 546, 465, -3, 0, 0, -6, 2, 6, 931, 785, 95,∆
2025-03-10 12:58:56.664,709, 547, 473, -1, -2, -2, -7, 2, 5, 931, 794, 119,∆
2025-03-10 12:58:56.714,710, 528, 480, -2, -1, 0, -6, 2, 6, 933, 811, 159,∆
2025-03-10 12:58:56.771,709, 541, 478, 1, -1, -3, -6, 4, 7, 935, 814, 155,∆
2025-03-10 12:58:56.824,701, 533, 486, 2, 0, -3, -5, 1, 7, 935, 812, 173,∆
2025-03-10 12:58:56.874,741, 534, 451, 0, -3, -5, -7, 2, 7, 938, 816, 226,∆
2025-03-10 12:58:56.924,659, 597, 509, -5, -10, -3, -7, 1, 6, 937, 848, 328,∆
2025-03-10 12:58:56.988,1013, 431, 297, -15, -8, -3, -6, 1, 7, 948, 896, 421,∆
2025-03-10 12:58:57.039,639, 522, 682, 0, -21, -12, -6, 2, 6, 963, 926, 344,∆
2025-03-10 12:58:57.094,1352, 760, 343, 53, 18, 0, -5, 1, 10, 967, 914, 54,∆
2025-03-10 12:58:57.152,882, 643, 190, -36, 39, 10, -5, 2, 9, 958, 858, 59,∆
2025-03-10 12:58:57.204,611, 510, 377, 11, -28, -18, -5, 2, 8, 947, 888, 375,∆
2025-03-10 12:58:57.254,895, 553, 451, 30, -9, 14, -7, 2, 8, 969, 933, 523,∆
2025-03-10 12:58:57.315,442, 564, 322, 18, 18, 12, -7, -1, 9, 971, 928, 476,∆
2025-03-10 12:58:57.371,395, 577, 333, -13, 23, -8, -6, 1, 10, 967, 917, 361,∆
2025-03-10 12:58:57.424,928, 696, 359, 13, 9, -16, -6, 0, 10, 950, 858, 20,∆
2025-03-10 12:58:57.474,866, 548, 133, -44, 83, -24, -6, 1, 9, 930, 816, 371,∆
2025-03-10 12:58:57.536,440, 701, 732, -23, 24, -3, -2, 0, 5, 922, 731, 380,∆
2025-03-10 12:58:57.815,683, 569, 481, -7, -2, 2, -5, 2, 6, 924, 697, 177,π
2025-03-10 12:58:57.869,693, 562, 467, -7, -2, 2, -4, 1, 7, 921, 700, 185,π
2025-03-10 12:58:57.921,685, 548, 499, -6, -1, 0, -4, 1, 5, 923, 714, 186,π
2025-03-10 12:58:57.974,702, 553, 469, -3, -3, -1, -6, 1, 6, 925, 751, 181,π
2025-03-10 12:58:58.024,701, 546, 465, -3, -2, 0, -4, 2, 7, 927, 774, 206,π
2025-03-10 12:58:58.086,699, 537, 487, -2, -2, -1, -6, 3, 6, 928, 781, 245,π
2025-03-10 12:58:58.138,702, 558, 480, -1, -4, 0, -6, 2, 7, 929, 794, 325,π
2025-03-10 12:58:58.188,702, 521, 546, 1, -9, 2, -5, 1, 7, 935, 810, 308,π
2025-03-10 12:58:58.240,713, 549, 433, 1, -6, 1, -6, 2, 6, 932, 814, 331,π
2025-03-10 12:58:58.294,708, 525, 451, -3, 2, -1, -7, 3, 6, 935, 827, 344,π
2025-03-10 12:58:58.344,703, 553, 427, -4, 0, -3, -6, 2, 8, 939, 833, 348,π
2025-03-10 12:58:58.394,672, 527, 508, -9, 7, -8, -6, 2, 6, 937, 815, 276,π
2025-03-10 12:58:58.454,698, 573, 413, -2, -9, -9, -6, 2, 7, 941, 792, 103,π
2025-03-10 12:58:58.505,630, 556, 530, 17, -10, -14, -6, 2, 7, 934, 793, 195,π
2025-03-10 12:58:58.564,923, 683, 447, -19, -25, -10, -5, 2, 9, 956, 888, 49,π
2025-03-10 12:58:58.621,950, 917, 122, -29, -18, 69, -6, 1, 10, 975, 948, 419,π
2025-03-10 12:58:58.674,490, 477, 602, 11, 2, 19, -9, 1, 9, 974, 945, 578,π
2025-03-10 12:58:58.724,742, 490, 355, -4, 18, -56, -8, 1, 9, 965, 916, 585,π
2025-03-10 12:58:58.786,732, 733, 735, 22, -29, 14, -5, 1, 10, 958, 907, 568,π
2025-03-10 12:58:58.844,594, 749, 235, -9, 13, 14, -8, 1, 11, 970, 930, 405,π
2025-03-10 12:58:58.894,714, 384, 236, -39, 26, 8, -5, 2, 8, 973, 913, 25,π
2025-03-10 12:58:58.944,958, 529, 286, 12, -28, -21, -6, 3, 8, 959, 912, 386,π
2025-03-10 12:58:59.005,1603, 148, 281, 16, -21, -13, -6, 1, 9, 972, 931, 538,π
2025-03-10 12:58:59.064,678, 833, 250, 9, 18, 15, -6, -1, 11, 980, 925, 374,π
2025-03-10 12:58:59.118,823, 577, 411, 4, 14, 25, -7, 2, 9, 974, 926, 395,π
2025-03-10 12:58:59.170,609, 437, 331, 6, -2, 12, -7, 2, 10, 981, 949, 509,π
2025-03-10 12:58:59.224,885, 453, 279, -16, 26, -8, -6, 0, 11, 969, 925, 622,π
2025-03-10 12:58:59.517,711, 554, 459, -8, -2, -4, -5, 2, 7, 943, 754, 359,θ
2025-03-10 12:58:59.571,716, 556, 453, -10, -1, -4, -5, 1, 6, 941, 751, 348,θ
2025-03-10 12:58:59.624,682, 561, 479, -6, 0, -2, -5, 1, 7, 940, 750, 305,θ
2025-03-10 12:58:59.674,724, 542, 466, -4, 0, 0, -6, 1, 7, 944, 737, 222,θ
2025-03-10 12:58:59.725,701, 553, 485, -3, 2, 0, -3, 2, 6, 938, 731, 206,θ
2025-03-10 12:58:59.785,694, 547, 471, -1, -1, -1, -4, 2, 7, 936, 732, 253,θ
2025-03-10 12:58:59.834,697, 543, 460, -3, 1, 0, -5, 2, 6, 935, 731, 252,θ
2025-03-10 12:58:59.887,684, 544, 483, 0, 0, -1, -6, 3, 7, 934, 726, 248,θ
2025-03-10 12:58:59.939,687, 542, 486, 2, -3, 0, -6, 0, 7, 936, 731, 260,θ
2025-03-10 12:58:59.994,716, 564, 471, -3, -2, 0, -7, 1, 6, 940, 742, 280,θ
2025-03-10 12:59:00.044,696, 549, 489, -4, -3, 1, -6, 0, 6, 940, 788, 333,θ
2025-03-10 12:59:00.094,700, 553, 432, 1, -5, 4, -6, 2, 7, 950, 819, 356,θ
2025-03-10 12:59:00.144,696, 544, 491, 3, -14, 7, -6, 1, 7, 949, 849, 397,θ
2025-03-10 12:59:00.202,755, 523, 379, 1, -3, -1, -8, 2, 8, 951, 864, 450,θ
2025-03-10 12:59:00.254,731, 544, 428, -5, 8, -3, -8, 2, 8, 952, 855, 435,θ
2025-03-10 12:59:00.310,690, 541, 488, -1, -3, -2, -5, 1, 8, 950, 851, 446,θ
2025-03-10 12:59:00.364,684, 538, 475, -5, -17, 2, -6, 1, 9, 956, 873, 468,θ
2025-03-10 12:59:00.420,687, 511, 396, -19, -6, -12, -6, 2, 5, 954, 897, 414,θ
2025-03-10 12:59:00.474,846, 399, 636, 60, -16, -31, -7, 1, 8, 966, 923, 38,θ
2025-03-10 12:59:00.524,860, 785, 9, -10, 56, 47, -7, 0, 11, 978, 931, 143,θ
2025-03-10 12:59:00.586,612, 209, 780, 5, -38, -21, -7, 0, 10, 968, 931, 535,θ
2025-03-10 12:59:00.638,775, 526, 611, -5, -18, -12, -6, 1, 9, 966, 939, 657,θ
2025-03-10 12:59:00.694,579, 614, 361, 5, -1, 13, -5, 1, 8, 974, 943, 550,θ
2025-03-10 12:59:00.751,1068, 598, 318, -39, 37, 23, -8, 1, 9, 974, 929, 164,θ
2025-03-10 12:59:00.804,864, 342, 462, 9, -14, -42, -6, 1, 8, 960, 878, 310,θ
2025-03-10 12:59:00.862,588, 570, 718, 25, -26, -32, -8, 2, 7, 962, 918, 379,θ
2025-03-10 12:59:00.914,643, 401, 188, 18, -4, 36, -7, 2, 9, 973, 947, 536,θ
2025-03-10 12:59:01.680,648, 638, 476, 2, -6, -25, -1, 1, 7, 871, 486, 270,λ
2025-03-10 12:59:01.735,635, 631, 484, 1, -7, -27, -1, 1, 7, 872, 483, 285,λ
2025-03-10 12:59:01.788,668, 666, 458, -1, -5, -25, -2, -1, 6, 874, 542, 356,λ
2025-03-10 12:59:01.844,604, 657, 455, -3, -6, -14, -3, 1, 6, 880, 553, 349,λ
2025-03-10 12:59:01.894,580, 682, 453, -8, -12, 9, -3, -1, 7, 881, 597, 358,λ
2025-03-10 12:59:01.955,587, 615, 454, -2, -10, 23, -4, -1, 7, 876, 646, 337,λ
2025-03-10 12:59:02.006,622, 550, 364, 13, -28, 24, -4, 0, 7, 870, 669, 299,λ
2025-03-10 12:59:02.064,660, 586, 393, 14, -4, 27, -4, 0, 9, 873, 646, 181,λ
2025-03-10 12:59:02.114,711, 607, 359, 6, 7, 14, -5, 0, 9, 894, 652, 165,λ
2025-03-10 12:59:02.170,654, 564, 529, -12, 22, 18, -5, 1, 7, 911, 728, 250,λ
2025-03-10 12:59:02.224,692, 610, 385, -19, 12, -1, -5, 1, 6, 930, 785, 315,λ
2025-03-10 12:59:02.274,693, 601, 502, -3, -5, -1, -6, 1, 8, 935, 808, 293,λ
2025-03-10 12:59:02.336,562, 578, 591, 20, -34, 10, -6, 0, 7, 942, 819, 235,λ
2025-03-10 12:59:02.394,857, 459, 295, 33, -12, -12, -6, 1, 10, 956, 908, 50,λ
2025-03-10 12:59:02.444,935, 708, 498, 14, 2, 34, -4, 1, 11, 969, 927, 446,λ
2025-03-10 12:59:02.501,678, 450, 410, 18, 22, 19, -6, 2, 11, 976, 919, 471,λ
2025-03-10 12:59:02.554,732, 569, 332, -24, 20, 13, -7, 1, 10, 962, 888, 510,λ
