Timestamp,Acc_X,Acc_Y,Acc_Z,Gyro_X,Gyro_Y,Gyro_Z,Mag_X,Mag_Y,Mag_Z,Force1,Force2,Force3,Letter
2025-03-17 13:55:38.632,620, 684, 356, 12, -6, 5, -1, 0, 1, 739, 375, 509,noise
2025-03-17 13:55:38.683,630, 693, 336, 11, -6, 4, -2, 1, 1, 736, 365, 496,noise
2025-03-17 13:55:38.738,654, 728, 277, -8, 1, -5, 1, -1, 1, 742, 384, 516,noise
2025-03-17 13:55:38.792,604, 715, 391, -13, 5, -6, -2, 1, 0, 738, 369, 503,noise
2025-03-17 13:55:38.841,583, 688, 465, 1, -1, 2, 0, -1, -3, 736, 367, 499,noise
2025-03-17 13:55:38.899,620, 690, 358, 10, -6, 6, -2, 0, 0, 742, 376, 521,noise
2025-03-17 13:55:38.949,658, 735, 279, -6, 0, -3, 0, 2, -1, 726, 327, 489,noise
2025-03-17 13:55:39.004,603, 708, 382, -14, 6, -6, -1, 0, -1, 740, 388, 516,noise
2025-03-17 13:55:39.058,592, 691, 462, 0, 0, 1, 0, 1, -1, 724, 355, 486,noise
2025-03-17 13:55:39.108,608, 697, 376, 10, -7, 6, -1, 1, -1, 729, 386, 494,noise
2025-03-17 13:55:39.165,658, 737, 282, -11, -3, 2, 1, 0, 2, 746, 450, 509,noise
2025-03-17 13:55:39.219,619, 716, 358, -22, 4, -13, -1, -1, 1, 767, 517, 537,noise
2025-03-17 13:55:39.271,624, 688, 448, -19, -4, -4, -1, 1, -2, 783, 601, 548,noise
2025-03-17 13:55:39.332,598, 683, 436, -10, -2, -1, -2, 1, -1, 800, 639, 586,noise
2025-03-17 13:55:39.388,650, 701, 368, -4, -3, -10, -2, 1, -1, 772, 648, 582,noise
2025-03-17 13:55:39.442,592, 731, 351, -18, 8, -13, -1, 1, 0, 693, 670, 571,noise
2025-03-17 13:55:39.496,609, 721, 394, -15, 5, -2, -4, 1, 0, 578, 698, 565,noise
2025-03-17 13:55:39.553,666, 685, 337, 2, -13, 6, -4, -1, -2, 344, 683, 524,noise
2025-03-17 13:55:39.608,518, 583, 530, -12, 11, 3, -2, -2, -3, 51, 681, 515,noise
2025-03-17 13:55:39.658,491, 658, 479, 6, 1, 15, -3, -1, -3, 78, 678, 515,noise
2025-03-17 13:55:39.714,628, 707, 456, 15, 0, 15, -3, 2, -4, 39, 629, 476,noise
2025-03-17 13:55:39.767,702, 701, 397, 14, -2, 9, -3, 3, -4, 50, 609, 475,noise
2025-03-17 13:55:39.820,690, 672, 358, 0, 4, -1, 0, 0, -2, 55, 553, 473,noise
2025-03-17 13:55:39.870,629, 677, 369, -5, 2, -2, -2, 3, -3, 35, 520, 449,noise
2025-03-17 13:55:39.921,598, 683, 448, -6, 2, -2, -2, 2, -3, 46, 517, 453,noise
2025-03-17 13:55:39.971,618, 658, 458, -1, -1, 3, -1, 2, -3, 60, 518, 465,noise
2025-03-17 13:55:40.030,654, 677, 406, 1, -2, 3, -1, 3, -2, 184, 509, 458,noise
2025-03-17 13:55:40.083,640, 680, 397, -2, 1, -2, 0, 2, -1, 300, 513, 476,noise
2025-03-17 13:55:40.134,610, 670, 420, -5, 0, 0, 0, 0, -3, 302, 503, 468,noise
2025-03-17 13:55:40.189,629, 668, 430, -1, -1, 0, -2, 2, -2, 331, 500, 480,noise
2025-03-17 13:55:40.242,637, 671, 416, 0, -1, 0, 0, 1, -2, 391, 502, 479,noise
2025-03-17 13:55:40.288,637, 670, 399, 0, 0, -3, 0, 2, -2, 400, 482, 464,noise
2025-03-17 13:55:41.318,655, 641, 401, -3, -4, 12, -3, 1, -2, 757, 656, 552,A
2025-03-17 13:55:41.381,656, 634, 407, -3, -4, 11, -2, 0, -1, 746, 664, 558,A
2025-03-17 13:55:41.435,635, 637, 446, -7, -5, 5, -2, 2, -3, 564, 728, 561,A
2025-03-17 13:55:41.484,673, 571, 393, 6, -15, -7, -4, 4, -4, 40, 774, 575,A
2025-03-17 13:55:41.538,714, 802, 354, -1, -2, 2, -1, 1, 0, 42, 789, 598,A
2025-03-17 13:55:41.593,703, 647, 414, -19, -6, -7, -3, 2, 0, 53, 800, 623,A
2025-03-17 13:55:41.647,595, 766, 373, -3, -1, 20, -2, 3, 1, 656, 825, 663,A
2025-03-17 13:55:41.700,706, 638, 390, -4, -9, 20, -3, 4, 1, 868, 852, 703,A
2025-03-17 13:55:41.751,743, 613, 409, -8, -2, 3, -1, 3, 1, 909, 872, 740,A
2025-03-17 13:55:41.808,836, 712, 475, -14, 15, -12, -3, 4, 2, 918, 874, 757,A
2025-03-17 13:55:41.865,551, 660, 568, 3, 61, -16, -2, 4, 2, 925, 881, 770,A
2025-03-17 13:55:41.916,421, 549, 265, 7, 41, 20, -3, 2, 5, 923, 882, 761,A
2025-03-17 13:55:41.968,583, 530, 294, 2, -6, 48, -1, 3, 4, 929, 885, 758,A
2025-03-17 13:55:42.018,850, 594, 463, 18, -30, 38, -2, 6, 5, 933, 887, 767,A
2025-03-17 13:55:42.081,477, 606, 225, -23, 16, -5, 0, 7, 6, 933, 894, 776,A
2025-03-17 13:55:42.134,665, 654, 596, 5, -65, 0, -1, 9, 5, 938, 908, 795,A
2025-03-17 13:55:42.188,842, 335, 417, 26, -40, -9, 0, 7, 9, 950, 921, 802,A
2025-03-17 13:55:42.233,900, 573, 0, 68, 47, 10, 0, 5, 10, 959, 904, 725,A
2025-03-17 13:55:42.290,858, 737, 151, -27, 38, 23, 0, 6, 9, 956, 898, 703,A
2025-03-17 13:55:42.349,704, 620, 482, -32, -28, -22, -1, 6, 9, 949, 911, 759,A
2025-03-17 13:55:42.399,724, 664, 214, 3, -5, 19, -3, 7, 8, 959, 928, 748,A
2025-03-17 13:55:42.458,654, 552, 323, -10, 42, 32, -2, 7, 10, 957, 900, 689,A
2025-03-17 13:55:42.515,466, 559, 685, 13, -18, -44, 0, 7, 7, 934, 858, 670,A
2025-03-17 13:55:42.568,897, 577, 446, -42, -19, 16, -2, 7, 8, 954, 939, 656,A
2025-03-17 13:55:42.618,647, 389, 518, -9, 18, 32, 1, 6, 8, 957, 938, 698,A
2025-03-17 13:55:42.679,629, 553, 342, -1, 76, -52, 0, 10, 4, 936, 905, 731,A
2025-03-17 13:55:42.968,679, 581, 467, 8, -7, 17, 0, 6, 3, 876, 842, 676,B
2025-03-17 13:55:43.019,699, 560, 471, 9, -7, 16, 2, 7, 5, 877, 847, 676,B
2025-03-17 13:55:43.068,716, 574, 426, 9, -6, 12, -1, 7, 5, 880, 849, 688,B
2025-03-17 13:55:43.120,681, 568, 447, -3, -3, -2, 2, 7, 4, 885, 864, 711,B
2025-03-17 13:55:43.182,634, 593, 501, -9, -27, -2, -1, 6, 6, 891, 889, 729,B
2025-03-17 13:55:43.232,698, 508, 532, -3, -23, 2, 0, 6, 5, 914, 917, 721,B
2025-03-17 13:55:43.282,761, 549, 443, 16, -2, 3, -1, 7, 7, 934, 917, 715,B
2025-03-17 13:55:43.338,694, 646, 412, 53, 47, 37, 0, 8, 6, 945, 890, 697,B
2025-03-17 13:55:43.392,791, 653, 213, -16, 26, 3, 1, 6, 7, 939, 884, 709,B
2025-03-17 13:55:43.448,779, 650, 455, -30, -37, -22, 0, 8, 5, 922, 897, 743,B
2025-03-17 13:55:43.499,916, 574, 296, 1, -23, -3, -2, 7, 6, 943, 931, 776,B
2025-03-17 13:55:43.549,637, 643, 490, 17, 1, 12, -1, 8, 7, 947, 923, 773,B
2025-03-17 13:55:43.608,795, 598, 194, 21, 12, 5, 1, 5, 8, 943, 916, 756,B
2025-03-17 13:55:43.662,666, 587, 454, 7, 15, 7, -1, 7, 7, 952, 920, 739,B
2025-03-17 13:55:43.712,694, 570, 337, 7, 13, 1, 0, 7, 6, 943, 899, 713,B
2025-03-17 13:55:43.764,930, 504, 335, -15, 19, -34, 1, 7, 4, 895, 843, 694,B
2025-03-17 13:55:43.818,613, 572, 634, -31, 16, -28, 1, 7, 3, 886, 849, 671,B
2025-03-17 13:55:44.118,706, 482, 315, -14, 20, 17, -2, 5, 8, 818, 640, 506,C
2025-03-17 13:55:44.168,705, 542, 325, -17, 27, 13, -1, 5, 5, 820, 642, 505,C
2025-03-17 13:55:44.220,817, 667, 486, -5, 6, -2, 0, 5, 4, 835, 674, 498,C
2025-03-17 13:55:44.281,648, 566, 466, -21, 11, -7, 1, 6, 3, 857, 720, 496,C
2025-03-17 13:55:44.330,675, 604, 477, -2, -19, 12, 1, 4, 4, 878, 763, 540,C
2025-03-17 13:55:44.381,747, 611, 329, -5, -1, 2, 1, 5, 5, 898, 805, 550,C
2025-03-17 13:55:44.441,708, 604, 450, -1, -11, -1, 0, 9, 4, 909, 843, 576,C
2025-03-17 13:55:44.490,726, 532, 473, -7, -15, -6, 0, 5, 7, 929, 887, 466,C
2025-03-17 13:55:44.547,669, 571, 236, 61, 9, -18, 1, 5, 8, 945, 870, 336,C
2025-03-17 13:55:44.598,724, 885, 248, -31, 47, 62, 0, 7, 6, 949, 911, 287,C
2025-03-17 13:55:44.648,706, 479, 513, -13, 25, -20, 1, 7, 2, 942, 910, 630,C
2025-03-17 13:55:44.715,581, 560, 613, -30, 41, -36, 0, 6, -1, 913, 873, 607,C
2025-03-17 13:55:45.018,700, 588, 431, 2, -13, 5, 0, 6, 2, 880, 806, 536,D
2025-03-17 13:55:45.068,703, 580, 425, 2, -13, 5, 1, 6, 2, 879, 809, 538,D
2025-03-17 13:55:45.118,709, 598, 406, 0, -12, 2, 1, 5, 5, 886, 834, 565,D
2025-03-17 13:55:45.178,645, 534, 489, -1, -18, -6, 0, 8, 3, 890, 875, 612,D
2025-03-17 13:55:45.230,750, 418, 489, 23, -20, -6, 0, 7, 5, 935, 906, 607,D
2025-03-17 13:55:45.284,294, 519, 358, 20, 67, 61, -1, 7, 6, 950, 906, 248,D
2025-03-17 13:55:45.331,779, 556, 246, -22, 28, 16, 0, 7, 4, 951, 903, 119,D
2025-03-17 13:55:45.395,740, 589, 444, 16, -41, -54, 1, 6, 5, 916, 895, 575,D
2025-03-17 13:55:45.447,828, 579, 486, 10, -35, -6, 2, 5, 6, 950, 941, 654,D
2025-03-17 13:55:45.498,545, 439, 276, 35, 29, 35, 1, 8, 4, 959, 934, 440,D
2025-03-17 13:55:45.548,883, 383, 338, 6, 28, 6, 0, 7, 4, 950, 910, 260,D
2025-03-17 13:55:45.598,907, 452, 288, -23, 51, -42, 1, 7, 4, 919, 832, 469,D
2025-03-17 13:55:45.890,679, 592, 443, -4, -18, 0, 1, 7, 1, 872, 853, 489,E
2025-03-17 13:55:45.947,683, 592, 436, -3, -18, 1, 2, 5, 3, 870, 853, 510,E
2025-03-17 13:55:45.999,737, 585, 398, -9, -14, -4, -2, 7, 2, 881, 869, 544,E
2025-03-17 13:55:46.058,709, 557, 452, 2, -11, -2, -1, 6, 3, 896, 889, 559,E
2025-03-17 13:55:46.112,727, 554, 499, 26, -19, -5, -1, 8, 4, 933, 912, 565,E
2025-03-17 13:55:46.168,689, 602, 347, 38, 43, 27, -1, 6, 7, 956, 908, 360,E
2025-03-17 13:55:46.219,702, 577, 145, -25, 23, 16, 1, 8, 4, 952, 885, 114,E
2025-03-17 13:55:46.268,646, 748, 335, -2, -40, -57, 1, 7, 6, 923, 872, 533,E
2025-03-17 13:55:46.331,1074, 549, 310, 7, -38, -10, 0, 5, 8, 954, 943, 646,E
2025-03-17 13:55:46.380,744, 687, 272, -10, 17, 29, -1, 7, 7, 956, 944, 672,E
2025-03-17 13:55:46.439,540, 435, 472, 25, 42, -17, -1, 8, 5, 931, 906, 647,E
2025-03-17 13:55:46.496,883, 666, 285, 23, -29, 5, -1, 6, 5, 946, 905, 559,E
2025-03-17 13:55:46.548,736, 725, 458, -14, 4, 23, 1, 6, 7, 957, 939, 528,E
2025-03-17 13:55:46.598,627, 442, 329, 14, 54, -1, -1, 5, 6, 943, 901, 466,E
2025-03-17 13:55:46.648,846, 581, 322, 35, -31, 15, 0, 7, 5, 938, 847, 402,E
2025-03-17 13:55:46.703,768, 424, 318, 0, 8, 15, 0, 7, 5, 953, 928, 472,E
2025-03-17 13:55:46.763,820, 404, 243, -10, 52, -34, 0, 6, 4, 930, 884, 590,E
2025-03-17 13:55:47.058,689, 601, 435, -6, -4, 6, 2, 4, 4, 898, 810, 506,F
2025-03-17 13:55:47.111,680, 607, 438, -5, -5, 8, 0, 7, 1, 900, 812, 502,F
2025-03-17 13:55:47.158,693, 599, 412, 1, -10, 5, 1, 4, 4, 902, 819, 509,F
2025-03-17 13:55:47.214,717, 585, 378, -7, -11, -1, 0, 8, 4, 906, 827, 502,F
2025-03-17 13:55:47.268,691, 598, 415, -16, -25, -6, -1, 5, 4, 907, 855, 550,F
2025-03-17 13:55:47.318,776, 547, 415, -4, -18, 1, 0, 6, 8, 930, 904, 562,F
2025-03-17 13:55:47.378,615, 734, 387, 50, 27, 27, -2, 6, 7, 951, 898, 433,F
2025-03-17 13:55:47.430,541, 638, -1, -12, 31, 26, 0, 7, 8, 959, 860, 33,F
2025-03-17 13:55:47.488,693, 110, 732, -17, -27, -63, -1, 6, 5, 924, 826, 218,F
2025-03-17 13:55:47.540,699, 505, 725, -4, -48, 2, 0, 4, 7, 937, 918, 475,F
2025-03-17 13:55:47.594,719, 556, 18, 1, -6, 16, -3, 6, 8, 954, 943, 495,F
2025-03-17 13:55:47.647,697, 375, 563, 22, 13, 13, 0, 5, 7, 948, 924, 594,F
2025-03-17 13:55:47.698,485, 553, 619, 36, 28, -23, 0, 4, 8, 929, 843, 504,F
2025-03-17 13:55:47.749,890, 1226, 41, -51, 6, 35, -3, 5, 7, 954, 927, 274,F
2025-03-17 13:55:47.802,760, 527, 415, -1, 14, 14, -1, 7, 6, 951, 931, 406,F
2025-03-17 13:55:47.863,716, 554, 201, -10, 82, -56, 0, 8, 4, 905, 830, 585,F
2025-03-17 13:55:48.155,682, 619, 449, -4, -7, 6, 1, 5, 4, 849, 737, 411,G
2025-03-17 13:55:48.208,693, 593, 430, -4, -11, 4, 0, 6, 3, 851, 739, 428,G
2025-03-17 13:55:48.262,711, 581, 390, -9, -12, 0, 1, 4, 5, 864, 778, 452,G
2025-03-17 13:55:48.315,692, 598, 423, -7, -12, 3, 1, 5, 6, 877, 813, 514,G
2025-03-17 13:55:48.368,717, 544, 364, -5, -17, 0, 0, 7, 4, 891, 854, 554,G
2025-03-17 13:55:48.418,759, 527, 453, 2, -21, -3, 0, 5, 8, 915, 898, 497,G
2025-03-17 13:55:48.479,426, 472, 322, 75, 14, -15, -2, 6, 8, 936, 859, 365,G
2025-03-17 13:55:48.530,773, 867, -22, -26, 47, 37, -2, 7, 7, 954, 873, 39,G
2025-03-17 13:55:48.580,686, 551, 618, -47, 3, 20, 0, 6, 7, 949, 920, 66,G
2025-03-17 13:55:48.638,750, 593, 411, 19, -14, -12, 0, 7, 5, 948, 928, 278,G
2025-03-17 13:55:48.688,832, 475, 217, -10, 32, 28, 0, 8, 5, 958, 927, 210,G
2025-03-17 13:55:48.748,647, 472, 432, -37, 17, -22, 0, 7, 5, 953, 901, 144,G
2025-03-17 13:55:48.798,760, 647, 615, -10, -35, 8, 0, 6, 5, 945, 891, 233,G
2025-03-17 13:55:48.848,779, 830, 157, -29, 3, 32, -1, 8, 7, 966, 945, 188,G
2025-03-17 13:55:48.908,794, 445, 445, 2, 27, -7, 0, 8, 5, 949, 923, 373,G
2025-03-17 13:55:49.228,699, 572, 456, 3, -12, 3, -1, 6, 4, 838, 702, 368,H
2025-03-17 13:55:49.279,717, 572, 455, 2, -13, 3, 1, 8, 2, 838, 706, 362,H
2025-03-17 13:55:49.335,718, 588, 381, 0, -13, -3, 0, 6, 4, 841, 720, 370,H
2025-03-17 13:55:49.388,681, 581, 423, -3, -13, -7, -2, 7, 3, 848, 766, 425,H
2025-03-17 13:55:49.438,732, 604, 402, 2, -19, -5, 0, 7, 5, 869, 832, 521,H
2025-03-17 13:55:49.498,779, 471, 443, 18, -20, -10, -2, 5, 9, 928, 891, 511,H
2025-03-17 13:55:49.548,562, 1136, 163, -9, 54, 28, -1, 6, 7, 954, 858, 166,H
2025-03-17 13:55:49.598,709, 630, 227, -32, 15, 6, 2, 7, 7, 943, 786, 50,H
2025-03-17 13:55:49.658,660, 768, 385, 13, -32, -30, 0, 5, 6, 926, 788, 287,H
2025-03-17 13:55:49.712,755, 1021, 216, -8, -13, 35, 0, 8, 6, 952, 933, 534,H
2025-03-17 13:55:49.768,807, 324, 398, -23, 18, 12, -2, 8, 5, 954, 939, 541,H
2025-03-17 13:55:49.827,609, 600, 633, -1, -20, -26, -2, 8, 3, 941, 927, 672,H
2025-03-17 13:55:49.879,1052, 935, 321, 31, 3, 15, 0, 5, 9, 959, 923, 598,H
2025-03-17 13:55:49.928,820, 691, 202, 15, 33, 27, -2, 7, 5, 955, 898, 427,H
2025-03-17 13:55:49.988,834, 419, 220, -20, 43, -54, -1, 8, 4, 921, 794, 516,H
2025-03-17 13:55:50.218,683, 588, 442, -4, 8, -2, -1, 7, 2, 858, 769, 507,I
2025-03-17 13:55:50.268,671, 604, 455, -3, 5, -2, 1, 6, 5, 856, 766, 514,I
2025-03-17 13:55:50.318,709, 588, 427, -6, -2, 0, -1, 6, 2, 854, 755, 488,I
2025-03-17 13:55:50.374,706, 586, 415, -8, 1, -5, 0, 5, 5, 854, 750, 472,I
2025-03-17 13:55:50.429,678, 602, 430, -14, 0, -5, 0, 8, 2, 851, 727, 388,I
2025-03-17 13:55:50.481,687, 594, 426, -15, -4, -5, -1, 8, 1, 846, 696, 315,I
2025-03-17 13:55:50.539,673, 570, 458, -11, -11, -4, -2, 8, 4, 859, 726, 254,I
2025-03-17 13:55:50.590,606, 578, 500, 3, -23, 4, 1, 7, 5, 880, 772, 179,I
2025-03-17 13:55:50.648,951, 440, 172, -10, -17, -18, -1, 8, 7, 934, 878, 36,I
2025-03-17 13:55:50.698,338, 795, 154, -32, -1, 44, 0, 6, 8, 957, 939, 390,I
2025-03-17 13:55:50.748,681, 472, 452, 9, 9, 3, -2, 7, 7, 949, 931, 523,I
2025-03-17 13:55:50.808,620, 610, 464, 11, -3, -40, -2, 7, 6, 928, 903, 621,I
2025-03-17 13:55:50.862,835, 900, 413, 33, 0, 10, -1, 7, 6, 961, 923, 532,I
2025-03-17 13:55:50.915,1133, 192, 503, -2, 38, 36, 0, 7, 7, 953, 907, 258,I
2025-03-17 13:55:50.968,504, 465, 528, 22, 26, -37, 0, 6, 7, 934, 769, 365,I
2025-03-17 13:55:51.027,1729, 287, 288, 3, -10, -10, 0, 7, 5, 941, 886, 424,I
2025-03-17 13:55:51.079,592, 587, 194, -41, 17, 34, -1, 7, 5, 956, 933, 439,I
2025-03-17 13:55:51.131,827, 404, 177, -17, 56, -50, 1, 8, 4, 931, 871, 573,I
2025-03-17 13:55:51.419,688, 577, 482, -4, -11, 0, 0, 7, 2, 860, 803, 504,J
2025-03-17 13:55:51.468,695, 570, 467, -1, -12, 1, 2, 5, 5, 864, 810, 509,J
2025-03-17 13:55:51.518,729, 573, 397, 8, -9, -1, -1, 7, 3, 872, 839, 540,J
2025-03-17 13:55:51.571,687, 578, 419, 6, -6, -5, 0, 5, 5, 878, 860, 568,J
2025-03-17 13:55:51.629,632, 559, 481, 7, -14, -7, 0, 7, 6, 875, 864, 546,J
2025-03-17 13:55:51.682,1337, 437, 302, 10, -19, -14, -1, 5, 6, 924, 899, 352,J
2025-03-17 13:55:51.738,572, 556, 378, 0, -4, 34, -2, 4, 10, 953, 922, 554,J
2025-03-17 13:55:51.793,689, 508, 401, 16, 4, -3, -1, 6, 8, 935, 883, 630,J
2025-03-17 13:55:51.846,675, 693, 337, 7, 1, -33, -3, 5, 7, 886, 814, 617,J
2025-03-17 13:55:51.899,861, 353, 320, 36, 28, 32, -1, 5, 7, 951, 881, 563,J
2025-03-17 13:55:51.948,692, 535, 117, -7, 40, 37, 0, 5, 8, 953, 895, 51,J
2025-03-17 13:55:51.998,688, 210, 531, 39, 9, -50, -2, 9, 4, 905, 776, 289,J
2025-03-17 13:55:52.063,811, 574, 229, -39, 48, -23, 1, 7, 4, 833, 667, 452,J
2025-03-17 13:55:52.360,726, 613, 354, -10, -7, -4, 0, 5, 6, 861, 755, 516,K
2025-03-17 13:55:52.419,726, 613, 334, -11, -6, -4, -2, 7, 5, 862, 761, 512,K
2025-03-17 13:55:52.468,700, 579, 391, -12, -7, -6, 1, 7, 6, 878, 793, 521,K
2025-03-17 13:55:52.524,688, 617, 416, -9, -8, -5, -2, 6, 5, 894, 834, 558,K
2025-03-17 13:55:52.579,712, 580, 408, -5, -11, 1, 0, 5, 5, 906, 867, 542,K
2025-03-17 13:55:52.629,732, 554, 397, -2, -10, -4, -1, 7, 7, 926, 890, 451,K
2025-03-17 13:55:52.688,710, 540, 445, 42, 36, 18, -1, 6, 6, 934, 817, 293,K
2025-03-17 13:55:52.743,691, 648, 125, -27, 22, 14, 0, 5, 7, 944, 756, 43,K
2025-03-17 13:55:52.795,743, 508, 636, -21, -37, 17, 0, 6, 7, 948, 926, 57,K
2025-03-17 13:55:52.848,490, 425, 399, 13, -26, -6, -2, 8, 5, 956, 940, 207,K
2025-03-17 13:55:52.899,654, 507, 190, 49, 20, -31, -3, 8, 6, 922, 886, 509,K
2025-03-17 13:55:52.960,787, 717, 500, 14, -10, 9, -1, 6, 5, 933, 867, 474,K
2025-03-17 13:55:53.012,742, 819, 151, -36, 29, 60, 0, 7, 7, 953, 925, 68,K
2025-03-17 13:55:53.062,790, 309, 407, -9, 25, 6, 0, 8, 4, 957, 904, 48,K
2025-03-17 13:55:53.112,645, 562, 340, -1, 53, -65, 0, 6, 2, 908, 793, 356,K
2025-03-17 13:55:53.404,696, 581, 416, 5, -16, 0, 1, 6, 6, 894, 811, 521,L
2025-03-17 13:55:53.460,713, 584, 398, 4, -16, 0, -1, 7, 4, 891, 809, 530,L
2025-03-17 13:55:53.512,763, 599, 299, -6, -5, -4, 0, 5, 7, 896, 814, 529,L
2025-03-17 13:55:53.562,716, 613, 392, -11, 1, -3, 1, 6, 6, 902, 821, 512,L
2025-03-17 13:55:53.619,681, 605, 453, -3, -17, 2, -2, 7, 5, 903, 859, 522,L
2025-03-17 13:55:53.668,766, 544, 397, 9, -12, -7, -1, 5, 5, 930, 895, 520,L
2025-03-17 13:55:53.726,1076, 742, 348, 54, 33, 9, 0, 5, 8, 939, 825, 492,L
2025-03-17 13:55:53.779,627, 716, 257, -24, 28, 22, -1, 5, 7, 959, 777, 41,L
2025-03-17 13:55:53.829,726, 444, 521, 5, 0, 35, -2, 6, 6, 954, 920, 460,L
2025-03-17 13:55:53.879,847, 472, 333, 13, 22, -5, 0, 9, 3, 935, 890, 680,L
2025-03-17 13:55:53.938,614, 604, 401, -30, 51, -47, 0, 6, 0, 897, 781, 619,L
2025-03-17 13:55:54.225,703, 598, 395, -8, -14, -5, 1, 5, 3, 857, 724, 456,M
2025-03-17 13:55:54.278,708, 604, 392, -9, -14, -6, -1, 7, 6, 864, 722, 441,M
2025-03-17 13:55:54.329,710, 592, 370, 1, -5, -9, 0, 5, 5, 851, 723, 442,M
2025-03-17 13:55:54.389,656, 609, 418, -1, -17, -10, -1, 6, 4, 855, 767, 492,M
2025-03-17 13:55:54.443,728, 595, 428, 7, -16, 2, -1, 5, 5, 880, 850, 564,M
2025-03-17 13:55:54.492,709, 652, 386, 34, 5, 3, 1, 4, 7, 937, 864, 578,M
2025-03-17 13:55:54.545,1076, 747, 177, 11, 46, 26, 1, 5, 8, 951, 797, 434,M
2025-03-17 13:55:54.598,802, 552, 388, -22, 6, -16, 1, 6, 6, 923, 764, 475,M
2025-03-17 13:55:54.648,607, 690, 537, -41, -26, -5, 2, 5, 5, 914, 881, 658,M
2025-03-17 13:55:54.708,687, 669, 298, 16, -4, 18, 1, 5, 8, 942, 909, 702,M
2025-03-17 13:55:54.761,674, 747, 169, -15, 24, 32, 0, 7, 7, 947, 906, 678,M
2025-03-17 13:55:54.818,645, 512, 498, -2, -18, -10, -2, 5, 8, 935, 903, 717,M
2025-03-17 13:55:54.868,645, 730, 156, 18, 34, 32, 0, 5, 6, 944, 892, 706,M
2025-03-17 13:55:54.926,888, 507, 190, -13, 30, -6, -3, 6, 5, 947, 869, 685,M
2025-03-17 13:55:55.220,698, 622, 371, -4, -6, -8, 1, 6, 5, 880, 759, 510,N
2025-03-17 13:55:55.278,703, 621, 381, -6, -6, -7, 0, 6, 5, 882, 759, 507,N
2025-03-17 13:55:55.329,749, 579, 376, -4, -12, -7, 0, 7, 6, 885, 799, 517,N
2025-03-17 13:55:55.385,726, 646, 370, -12, -5, -3, 0, 7, 6, 893, 840, 546,N
2025-03-17 13:55:55.442,706, 605, 461, -5, -21, -1, -1, 7, 5, 907, 869, 465,N
2025-03-17 13:55:55.495,802, 525, 354, 68, 2, -2, -2, 6, 6, 945, 861, 398,N
2025-03-17 13:55:55.543,791, 734, 96, 2, 31, 22, 1, 5, 9, 938, 750, 142,N
2025-03-17 13:55:55.598,741, 453, 490, -24, -2, -32, -1, 7, 6, 903, 754, 449,N
2025-03-17 13:55:55.648,629, 613, 574, -28, -30, 0, -2, 6, 7, 905, 878, 593,N
2025-03-17 13:55:55.708,913, 909, 186, 7, 11, 26, -1, 6, 7, 949, 900, 543,N
2025-03-17 13:55:55.761,768, 647, 314, -45, 32, 49, 0, 8, 7, 949, 876, 39,N
2025-03-17 13:55:55.819,534, 253, 690, 16, -38, -36, -1, 7, 6, 930, 901, 341,N
2025-03-17 13:55:55.868,828, 572, 335, 16, 14, -9, -2, 5, 6, 896, 819, 682,N
2025-03-17 13:55:55.928,639, 568, 421, -20, 60, -27, -1, 6, 4, 882, 739, 594,N
2025-03-17 13:55:56.208,694, 585, 447, -14, 2, -1, 1, 7, 3, 845, 591, 36,O
2025-03-17 13:55:56.261,693, 576, 451, -12, 1, 0, 1, 7, 3, 849, 589, 31,O
2025-03-17 13:55:56.311,696, 578, 444, -5, -2, 4, 1, 8, 1, 868, 617, 45,O
2025-03-17 13:55:56.361,711, 580, 413, -4, -2, 2, 1, 9, 3, 881, 652, 91,O
2025-03-17 13:55:56.414,688, 573, 466, 5, -5, 9, -1, 9, 3, 898, 708, 238,O
2025-03-17 13:55:56.464,657, 583, 473, 17, -21, 16, 0, 7, 6, 903, 794, 417,O
2025-03-17 13:55:56.518,772, 598, 399, 14, -23, -13, -1, 8, 4, 911, 891, 450,O
2025-03-17 13:55:56.577,507, 463, 452, 64, -1, -29, -2, 7, 4, 916, 885, 463,O
2025-03-17 13:55:56.630,1366, 1010, 136, 10, 51, 40, 0, 6, 6, 939, 862, 403,O
2025-03-17 13:55:56.680,743, 674, 532, -62, 11, 37, 1, 7, 6, 953, 918, 121,O
2025-03-17 13:55:56.744,558, 407, 523, 30, -42, -46, 0, 7, 5, 921, 911, 477,O
2025-03-17 13:55:56.794,953, 556, 97, -14, 45, -29, 0, 7, 5, 862, 849, 631,O
2025-03-17 13:55:56.848,502, 651, 656, -21, 45, -22, 1, 5, 2, 856, 762, 491,O
2025-03-17 13:55:57.128,700, 593, 403, 0, -12, 4, 0, 5, 4, 828, 726, 245,P
2025-03-17 13:55:57.178,714, 604, 389, 0, -11, 3, 2, 6, 3, 831, 730, 229,P
2025-03-17 13:55:57.228,717, 587, 391, -3, -6, -1, 1, 7, 3, 834, 739, 228,P
2025-03-17 13:55:57.288,665, 568, 455, -2, -14, -4, 0, 5, 5, 840, 758, 275,P
2025-03-17 13:55:57.342,699, 640, 406, 3, -17, -6, 0, 8, 6, 856, 825, 340,P
2025-03-17 13:55:57.396,781, 456, 441, 11, -17, -6, 0, 7, 7, 914, 883, 296,P
2025-03-17 13:55:57.449,602, -31, 495, 14, 63, 65, 0, 5, 8, 942, 880, 154,P
2025-03-17 13:55:57.499,723, 482, 220, -12, 15, 10, 0, 7, 7, 946, 887, 108,P
2025-03-17 13:55:57.560,645, 722, 341, 31, -66, -84, 0, 8, 3, 911, 881, 627,P
2025-03-17 13:55:57.613,721, 604, 481, -26, -28, 5, -1, 7, 6, 935, 926, 671,P
2025-03-17 13:55:57.661,454, 718, 150, 6, 25, 29, -2, 4, 9, 954, 937, 565,P
2025-03-17 13:55:57.718,993, 446, 199, 0, 25, -15, 0, 7, 6, 931, 891, 512,P
2025-03-17 13:55:57.768,626, 554, 448, -57, 66, -41, 0, 7, 4, 909, 845, 461,P
2025-03-17 13:55:57.825,464, 666, 661, 2, -11, 4, 0, 7, 1, 895, 814, 464,P
2025-03-17 13:55:58.073,678, 586, 451, -4, -1, 3, 0, 7, 6, 873, 776, 440,Q
2025-03-17 13:55:58.118,678, 586, 451, -3, -3, 3, -1, 7, 3, 876, 777, 441,Q
2025-03-17 13:55:58.178,700, 592, 405, 2, -7, 5, 2, 4, 5, 885, 799, 485,Q
2025-03-17 13:55:58.227,721, 578, 415, 7, -9, 8, 0, 7, 5, 891, 821, 509,Q
2025-03-17 13:55:58.278,690, 597, 402, 0, -4, 2, 0, 6, 5, 899, 846, 535,Q
2025-03-17 13:55:58.328,689, 555, 435, 0, -19, -6, -1, 6, 5, 914, 886, 531,Q
2025-03-17 13:55:58.386,648, 472, 496, 6, -14, -24, -2, 6, 8, 916, 901, 169,Q
2025-03-17 13:55:58.444,938, 1198, -40, 31, 52, 27, 0, 6, 7, 951, 882, 184,Q
2025-03-17 13:55:58.495,695, 524, 535, -51, 26, 38, -1, 8, 5, 953, 924, 50,Q
2025-03-17 13:55:58.548,480, 434, 563, 21, -35, -28, -1, 8, 2, 945, 938, 242,Q
2025-03-17 13:55:58.608,748, 689, 197, 11, 27, -18, 1, 7, 7, 908, 881, 483,Q
2025-03-17 13:55:58.661,764, 653, 438, -2, -12, 18, 0, 5, 7, 933, 891, 331,Q
2025-03-17 13:55:58.711,721, 329, 315, -25, 8, 42, 0, 8, 3, 954, 928, 45,Q
2025-03-17 13:55:58.761,742, 518, 436, 3, 18, -17, 0, 9, 2, 945, 892, 121,Q
2025-03-17 13:55:58.812,574, 522, 492, 0, 49, -62, 1, 5, 2, 883, 735, 406,Q
2025-03-17 13:55:59.083,692, 593, 440, -9, -7, -2, -1, 7, 2, 810, 715, 375,R
2025-03-17 13:55:59.138,692, 581, 441, -12, -8, -1, 2, 6, 5, 812, 712, 361,R
2025-03-17 13:55:59.193,682, 581, 441, -5, -10, -1, -1, 8, 3, 814, 699, 200,R
2025-03-17 13:55:59.244,696, 600, 457, 12, -17, 3, -2, 7, 4, 822, 705, 152,R
2025-03-17 13:55:59.298,725, 609, 346, 6, -9, -4, 1, 6, 5, 824, 708, 69,R
2025-03-17 13:55:59.348,700, 630, 356, -3, -13, -14, 1, 5, 6, 800, 710, 37,R
2025-03-17 13:55:59.399,697, 600, 489, -21, -11, 2, -1, 5, 6, 861, 782, 64,R
2025-03-17 13:55:59.460,790, 768, 246, 76, 18, 17, 1, 6, 8, 932, 820, 175,R
2025-03-17 13:55:59.511,751, 550, 329, -6, 43, 40, -1, 7, 3, 948, 825, 45,R
2025-03-17 13:55:59.568,652, 240, 662, -3, -25, -45, 1, 7, 3, 927, 822, 364,R
2025-03-17 13:55:59.618,865, 617, 561, -23, -33, -2, 1, 5, 6, 927, 914, 606,R
2025-03-17 13:55:59.677,691, 710, 296, -11, 9, 25, 1, 5, 6, 949, 930, 608,R
2025-03-17 13:55:59.728,653, 562, 352, 13, 20, 11, -1, 8, 4, 942, 925, 524,R
2025-03-17 13:55:59.778,930, 581, 326, 2, 8, 3, -1, 7, 5, 945, 914, 397,R
2025-03-17 13:55:59.828,799, 304, 471, -40, 23, 45, 1, 7, 5, 945, 914, 66,R
2025-03-17 13:55:59.888,709, 389, 324, -12, 35, -45, 2, 9, 3, 940, 898, 156,R
2025-03-17 13:56:00.178,705, 554, 443, -3, -7, 1, 0, 7, 3, 894, 847, 561,S
2025-03-17 13:56:00.228,704, 561, 443, -3, -7, 2, 0, 5, 4, 895, 845, 567,S
2025-03-17 13:56:00.286,712, 583, 417, -3, -6, 0, -1, 8, 2, 900, 851, 573,S
2025-03-17 13:56:00.338,746, 537, 406, -1, -3, 0, -1, 7, 6, 908, 864, 570,S
2025-03-17 13:56:00.394,728, 563, 422, -1, -2, 1, -2, 8, 4, 906, 860, 565,S
2025-03-17 13:56:00.442,662, 555, 425, 0, -8, 3, -2, 7, 5, 921, 871, 543,S
2025-03-17 13:56:00.498,689, 501, 442, -3, -15, -5, -1, 6, 6, 929, 891, 405,S
2025-03-17 13:56:00.548,829, 390, 465, 58, -4, -24, -2, 6, 5, 921, 868, 378,S
2025-03-17 13:56:00.598,563, 676, 312, -27, 52, 53, -2, 7, 5, 944, 900, 42,S
2025-03-17 13:56:00.660,768, 539, 528, -19, 18, 19, 0, 7, 5, 943, 901, 46,S
2025-03-17 13:56:00.711,960, 376, 257, 32, 23, -31, 0, 7, 6, 909, 769, 257,S
2025-03-17 13:56:00.768,590, 500, 523, -44, 61, -43, 1, 8, 1, 835, 683, 409,S
2025-03-17 13:56:01.022,688, 616, 422, -2, -10, 4, -3, 6, 4, 809, 721, 176,T
2025-03-17 13:56:01.075,686, 623, 457, -3, -12, 5, -1, 6, 4, 813, 728, 194,T
2025-03-17 13:56:01.128,696, 581, 404, -8, -7, -3, 0, 7, 4, 822, 739, 219,T
2025-03-17 13:56:01.178,707, 590, 419, -11, -11, -7, -1, 8, 4, 845, 747, 96,T
2025-03-17 13:56:01.237,676, 588, 426, -3, -9, -7, 0, 4, 6, 842, 746, 133,T
2025-03-17 13:56:01.291,693, 574, 409, -3, -8, -6, -2, 5, 7, 862, 766, 117,T
2025-03-17 13:56:01.344,702, 587, 448, -1, -13, -4, 0, 6, 7, 867, 807, 41,T
2025-03-17 13:56:01.401,823, 432, 324, 14, -14, -11, -1, 7, 7, 930, 886, 39,T
2025-03-17 13:56:01.448,690, 517, 341, -47, 3, 42, 0, 7, 8, 939, 920, 305,T
2025-03-17 13:56:01.508,681, 450, 438, 8, 19, -2, -1, 8, 5, 943, 915, 474,T
2025-03-17 13:56:01.559,536, 699, 604, 21, -6, -19, 0, 5, 7, 921, 891, 564,T
2025-03-17 13:56:01.610,843, 811, 299, 14, 23, 26, -3, 8, 6, 948, 914, 462,T
2025-03-17 13:56:01.661,958, 605, 168, 13, 29, 26, -1, 7, 7, 941, 896, 271,T
2025-03-17 13:56:01.724,875, 433, 424, -8, 21, -48, -1, 8, 4, 911, 822, 481,T
2025-03-17 13:56:02.020,716, 580, 394, 1, -2, -3, 0, 7, 4, 854, 778, 288,U
2025-03-17 13:56:02.068,717, 580, 417, 2, -2, -3, 1, 7, 4, 859, 781, 313,U
2025-03-17 13:56:02.122,675, 581, 458, 2, -1, -1, 0, 7, 4, 875, 789, 318,U
2025-03-17 13:56:02.176,693, 591, 436, 4, -3, -2, 1, 6, 5, 870, 787, 386,U
2025-03-17 13:56:02.229,680, 595, 416, 8, -8, -2, -1, 7, 4, 867, 783, 394,U
2025-03-17 13:56:02.282,678, 586, 408, 7, -10, -12, 0, 7, 5, 876, 790, 321,U
2025-03-17 13:56:02.328,730, 632, 430, -10, -15, 0, 0, 5, 6, 898, 830, 172,U
2025-03-17 13:56:02.388,792, 454, 467, 49, 1, -6, -1, 5, 8, 934, 829, 153,U
2025-03-17 13:56:02.442,935, 601, 307, 18, 27, 32, 0, 6, 7, 931, 838, 342,U
2025-03-17 13:56:02.492,714, 498, 436, -43, 4, 26, -1, 8, 6, 939, 881, 341,U
2025-03-17 13:56:02.552,763, 594, 552, -18, -24, -26, 0, 8, 5, 906, 872, 568,U
2025-03-17 13:56:02.598,760, 896, 119, 8, 34, 33, -1, 6, 6, 933, 863, 379,U
2025-03-17 13:56:02.658,797, 526, 252, -13, 16, 16, -1, 7, 6, 935, 858, 217,U
2025-03-17 13:56:02.969,717, 595, 415, -1, -3, -1, 0, 6, 3, 811, 629, 57,V
2025-03-17 13:56:03.024,723, 594, 409, 2, -2, -1, 0, 6, 5, 812, 637, 60,V
2025-03-17 13:56:03.073,694, 586, 441, 4, -1, -6, 1, 6, 4, 807, 664, 192,V
2025-03-17 13:56:03.126,679, 592, 425, 5, -3, -5, -1, 8, 4, 810, 699, 317,V
2025-03-17 13:56:03.178,681, 618, 439, 9, -7, 1, 2, 5, 5, 804, 730, 402,V
2025-03-17 13:56:03.228,707, 635, 384, 9, -10, 5, 1, 5, 5, 776, 762, 474,V
2025-03-17 13:56:03.281,702, 570, 398, 0, 1, -2, 0, 7, 4, 774, 785, 491,V
2025-03-17 13:56:03.334,661, 623, 402, -1, -7, -7, 1, 4, 6, 779, 787, 496,V
2025-03-17 13:56:03.388,721, 658, 423, -3, -21, -4, 0, 6, 8, 846, 856, 435,V
2025-03-17 13:56:03.442,774, 576, 377, -17, -4, -2, -1, 6, 6, 915, 893, 255,V
2025-03-17 13:56:03.498,613, 643, 436, -41, 45, 57, -1, 7, 5, 936, 889, 61,V
2025-03-17 13:56:03.548,709, 686, 334, -56, 8, 20, 0, 10, 4, 941, 913, 64,V
2025-03-17 13:56:03.598,804, 677, 527, 11, -21, -15, -2, 8, 4, 944, 936, 24,V
2025-03-17 13:56:03.659,879, 602, 145, -15, 50, -10, 1, 7, 5, 894, 881, 392,V
2025-03-17 13:56:03.708,528, 634, 703, -11, 39, -19, 1, 6, 0, 875, 817, 339,V
2025-03-17 13:56:04.375,693, 600, 424, 9, -1, -4, 1, 4, 2, 823, 692, 345,W
2025-03-17 13:56:04.428,683, 608, 431, 8, -1, -3, 1, 4, 2, 823, 695, 352,W
2025-03-17 13:56:04.478,687, 613, 446, 8, -1, -1, -2, 5, 3, 833, 696, 397,W
2025-03-17 13:56:04.528,682, 598, 416, 6, -1, 2, 2, 5, 4, 852, 723, 426,W
2025-03-17 13:56:04.578,669, 600, 431, 8, -4, 1, 0, 7, 2, 851, 728, 437,W
2025-03-17 13:56:04.636,672, 600, 418, 10, -10, -3, 0, 5, 4, 844, 734, 433,W
2025-03-17 13:56:04.690,691, 613, 383, 17, -23, -13, 1, 5, 7, 829, 751, 294,W
2025-03-17 13:56:04.743,774, 562, 383, -2, -14, -8, -1, 6, 5, 888, 828, 189,W
2025-03-17 13:56:04.793,682, 703, 234, 1, 34, 49, 0, 6, 7, 929, 856, 449,W
2025-03-17 13:56:04.848,724, 764, 301, -27, 19, 22, 0, 5, 5, 924, 862, 301,W
2025-03-17 13:56:04.907,794, 585, 314, 1, -29, -28, 0, 5, 6, 917, 895, 507,W
2025-03-17 13:56:04.959,878, 893, 236, 12, 16, 28, -2, 6, 4, 927, 881, 531,W
2025-03-17 13:56:05.009,706, 669, 203, -33, 2, 14, -1, 6, 6, 938, 898, 223,W
2025-03-17 13:56:05.060,944, 513, 247, 8, -6, -15, -1, 9, 5, 915, 885, 440,W
2025-03-17 13:56:05.125,667, 511, 416, -35, 74, -32, 0, 7, 1, 898, 817, 425,W
2025-03-17 13:56:05.176,514, 598, 726, -7, 11, -7, 1, 5, 0, 880, 727, 375,W
2025-03-17 13:56:05.440,716, 559, 447, -6, -4, -1, 0, 6, 1, 829, 622, 60,X
2025-03-17 13:56:05.488,713, 559, 444, -4, -3, 0, 1, 8, 1, 831, 623, 44,X
2025-03-17 13:56:05.542,684, 566, 468, -5, -1, -1, -1, 7, 2, 830, 657, 54,X
2025-03-17 13:56:05.592,696, 555, 491, -1, -5, -1, 1, 7, 0, 834, 669, 48,X
2025-03-17 13:56:05.642,686, 580, 460, -1, -7, 0, 0, 8, 1, 836, 680, 43,X
2025-03-17 13:56:05.698,693, 560, 461, -8, -4, -2, 0, 9, 1, 838, 694, 33,X
2025-03-17 13:56:05.743,690, 580, 462, -1, -7, 1, 0, 6, 2, 839, 714, 62,X
2025-03-17 13:56:05.798,701, 550, 459, 2, -9, 1, -1, 9, 2, 852, 732, 59,X
2025-03-17 13:56:05.848,706, 582, 456, 12, -17, 8, 0, 8, 5, 877, 801, 258,X
2025-03-17 13:56:05.900,747, 539, 442, 2, -23, 2, 1, 7, 6, 907, 858, 383,X
2025-03-17 13:56:05.958,789, 440, 435, 19, -22, -11, 0, 8, 5, 932, 891, 245,X
2025-03-17 13:56:06.009,1149, 867, 44, 80, 45, 6, 0, 7, 7, 940, 859, 49,X
2025-03-17 13:56:06.059,769, 570, 112, -34, 42, 14, -2, 5, 6, 929, 814, 58,X
2025-03-17 13:56:06.118,536, 479, 569, 20, -43, -68, 0, 7, 3, 892, 817, 445,X
2025-03-17 13:56:06.173,893, 268, 403, -6, -20, -8, 1, 4, 6, 930, 903, 528,X
2025-03-17 13:56:06.226,742, 340, 327, -49, 49, 63, 0, 6, 6, 950, 919, 349,X
2025-03-17 13:56:06.278,718, 450, 428, -7, 21, -30, -1, 8, 4, 924, 877, 512,X
2025-03-17 13:56:06.336,663, 570, 573, -17, 30, -38, 1, 7, 1, 799, 742, 447,X
2025-03-17 13:56:06.608,706, 581, 440, -6, -10, -1, -1, 7, 5, 842, 789, 255,Y
2025-03-17 13:56:06.658,703, 576, 426, -5, -9, -1, -1, 5, 4, 840, 788, 265,Y
2025-03-17 13:56:06.712,708, 597, 404, -3, -4, -4, 1, 7, 5, 852, 808, 332,Y
2025-03-17 13:56:06.758,700, 580, 452, -3, -5, -5, 2, 5, 6, 861, 829, 405,Y
2025-03-17 13:56:06.819,676, 592, 442, 3, -5, -5, 0, 8, 4, 865, 836, 395,Y
2025-03-17 13:56:06.873,664, 536, 460, -5, -9, -3, 1, 6, 7, 876, 851, 306,Y
2025-03-17 13:56:06.927,723, 608, 443, 0, -14, -1, 0, 6, 7, 908, 877, 237,Y
2025-03-17 13:56:06.976,955, 633, 422, 44, -2, 7, -1, 6, 6, 934, 912, 470,Y
2025-03-17 13:56:07.033,847, 579, 405, -9, 19, 34, -2, 6, 5, 951, 916, 570,Y
2025-03-17 13:56:07.084,727, 484, 453, -13, 12, -8, 0, 6, 5, 931, 900, 637,Y
2025-03-17 13:56:07.140,621, 657, 553, -14, -16, 0, -1, 6, 4, 922, 896, 665,Y
2025-03-17 13:56:07.192,731, 685, 347, 59, 15, 9, 0, 5, 6, 942, 888, 595,Y
2025-03-17 13:56:07.242,1061, 675, 174, 25, 31, 22, 0, 5, 6, 952, 875, 333,Y
2025-03-17 13:56:07.298,919, 542, 482, -18, 26, -17, -1, 7, 4, 918, 811, 482,Y
2025-03-17 13:56:07.356,599, 490, 599, -47, 32, -33, 2, 7, 0, 879, 800, 474,Y
2025-03-17 13:56:07.639,682, 537, 458, -8, -9, -10, 0, 6, 2, 802, 741, 279,Z
2025-03-17 13:56:07.691,717, 560, 462, -10, -8, -8, 2, 6, 1, 807, 745, 277,Z
2025-03-17 13:56:07.742,655, 577, 483, 3, -13, 0, 0, 6, 3, 832, 761, 332,Z
2025-03-17 13:56:07.798,697, 592, 458, 3, -16, 4, -1, 7, 3, 851, 785, 380,Z
2025-03-17 13:56:07.848,733, 567, 396, 0, -6, -3, 0, 8, 4, 870, 796, 371,Z
2025-03-17 13:56:07.899,692, 560, 466, -3, -8, -2, 0, 5, 6, 893, 811, 169,Z
2025-03-17 13:56:07.948,779, 600, 347, -8, -9, -9, -2, 7, 5, 921, 862, 43,Z
2025-03-17 13:56:08.007,755, 583, 276, -4, -4, 22, 0, 6, 7, 941, 913, 547,Z
2025-03-17 13:56:08.059,659, 556, 498, 46, 12, 9, 0, 6, 7, 940, 879, 632,Z
2025-03-17 13:56:08.109,757, 616, 320, -4, 13, -16, -1, 8, 6, 938, 814, 316,Z
2025-03-17 13:56:08.168,772, 855, 266, -27, 14, 32, 0, 7, 6, 951, 904, 168,Z
2025-03-17 13:56:08.225,634, 342, 366, -9, 10, 16, -1, 7, 5, 949, 917, 303,Z
2025-03-17 13:56:08.278,679, 339, 406, 22, 2, -57, -1, 8, 4, 926, 867, 543,Z
2025-03-17 13:56:08.326,895, 632, 512, 4, -41, 6, 0, 5, 5, 926, 851, 507,Z
2025-03-17 13:56:08.384,841, 704, 140, -16, -6, 19, -1, 4, 7, 960, 937, 542,Z
2025-03-17 13:56:08.438,692, 456, 489, -4, 16, 17, -2, 9, 4, 950, 917, 607,Z
2025-03-17 13:56:08.491,654, 576, 363, -15, 62, -47, -1, 7, 3, 906, 806, 575,Z
2025-03-17 13:56:08.758,689, 587, 454, -11, -2, 2, 2, 6, 5, 886, 734, 468,a
2025-03-17 13:56:08.808,690, 570, 443, -10, -1, 3, 0, 7, 1, 883, 732, 471,a
2025-03-17 13:56:08.862,709, 602, 427, -8, 1, 4, 0, 6, 5, 893, 683, 385,a
2025-03-17 13:56:08.918,690, 585, 439, -4, -1, 2, -1, 8, 3, 893, 678, 360,a
2025-03-17 13:56:08.968,699, 574, 443, 0, -2, 5, 0, 7, 1, 898, 696, 359,a
2025-03-17 13:56:09.018,717, 561, 434, 0, -3, 4, 0, 5, 5, 901, 719, 375,a
2025-03-17 13:56:09.073,725, 565, 405, -2, -1, 4, -2, 8, 3, 904, 737, 364,a
2025-03-17 13:56:09.122,712, 544, 464, 1, 1, 7, 0, 7, 4, 918, 764, 324,a
2025-03-17 13:56:09.168,667, 615, 436, 2, -6, 5, -1, 7, 6, 917, 808, 339,a
2025-03-17 13:56:09.229,723, 567, 440, 10, -16, -13, 0, 8, 4, 918, 878, 387,a
2025-03-17 13:56:09.278,820, 496, 346, 26, 2, -18, 0, 8, 6, 941, 896, 147,a
2025-03-17 13:56:09.334,602, 716, 258, -48, 32, 42, -1, 7, 4, 944, 902, 158,a
2025-03-17 13:56:09.391,565, 335, 721, -6, -23, -13, 0, 7, 6, 955, 930, 217,a
2025-03-17 13:56:09.441,728, 375, 509, 21, -9, -10, 0, 7, 5, 947, 924, 540,a
2025-03-17 13:56:09.498,763, 693, 282, -21, 20, 21, 1, 7, 4, 954, 924, 404,a
2025-03-17 13:56:09.556,710, 482, 477, -20, 17, -30, -1, 8, 3, 939, 881, 441,a
2025-03-17 13:56:09.818,667, 581, 500, 0, -12, 0, 0, 6, 4, 872, 785, 428,b
2025-03-17 13:56:09.868,674, 568, 485, 1, -14, 1, 0, 9, 1, 871, 790, 451,b
2025-03-17 13:56:09.921,724, 587, 396, 6, -7, 3, -1, 7, 4, 876, 798, 498,b
2025-03-17 13:56:09.973,725, 557, 431, 3, 1, -3, 1, 6, 3, 874, 791, 506,b
2025-03-17 13:56:10.023,686, 596, 437, 4, -3, -8, 0, 7, 3, 871, 790, 506,b
2025-03-17 13:56:10.078,722, 570, 430, 15, -23, -14, 0, 7, 5, 861, 807, 560,b
2025-03-17 13:56:10.133,771, 484, 450, 26, -11, 1, 0, 7, 5, 925, 872, 571,b
2025-03-17 13:56:10.186,1108, 845, 239, 39, 37, 41, 0, 7, 4, 944, 860, 454,b
2025-03-17 13:56:10.235,719, 629, 409, 5, 10, 1, 1, 7, 6, 930, 847, 454,b
2025-03-17 13:56:10.291,919, 666, 329, -7, -16, -6, 0, 6, 5, 945, 906, 654,b
2025-03-17 13:56:10.342,538, 568, 436, 4, 6, 19, 0, 5, 5, 954, 920, 628,b
2025-03-17 13:56:10.392,756, 479, 374, -3, 19, 9, -1, 7, 4, 951, 897, 467,b
2025-03-17 13:56:10.448,962, 566, 359, -12, 20, -43, 0, 7, 2, 917, 791, 494,b
2025-03-17 13:56:10.507,575, 591, 629, -24, 8, -26, 1, 6, 2, 907, 796, 480,b
2025-03-17 13:56:10.755,676, 588, 445, 1, -6, 7, 1, 6, 4, 914, 813, 453,c
2025-03-17 13:56:10.808,676, 582, 451, 2, -7, 8, -1, 7, 3, 912, 815, 456,c
2025-03-17 13:56:10.859,737, 558, 391, 6, -9, 3, 0, 6, 5, 919, 821, 478,c
2025-03-17 13:56:10.909,729, 553, 412, -4, -1, 1, -1, 7, 4, 923, 828, 490,c
2025-03-17 13:56:10.959,686, 582, 433, -2, -10, 4, 0, 6, 5, 922, 847, 491,c
2025-03-17 13:56:11.018,719, 519, 430, -3, -17, -3, -1, 8, 7, 932, 880, 364,c
2025-03-17 13:56:11.072,755, 371, 527, 62, 0, -21, -1, 7, 6, 943, 873, 131,c
2025-03-17 13:56:11.125,827, 879, 32, -24, 36, 43, 0, 7, 5, 948, 894, 60,c
2025-03-17 13:56:11.180,636, 390, 549, -17, 4, 13, 0, 7, 6, 944, 905, 149,c
2025-03-17 13:56:11.234,738, 543, 288, -13, 39, -35, 1, 7, 3, 918, 869, 300,c
2025-03-17 13:56:11.518,704, 587, 407, 10, -3, 0, -2, 6, 2, 912, 826, 251,d
2025-03-17 13:56:11.574,708, 599, 428, 10, -3, 1, 0, 6, 5, 908, 820, 266,d
2025-03-17 13:56:11.628,730, 586, 392, 10, -6, 5, -1, 7, 3, 910, 819, 319,d
2025-03-17 13:56:11.682,694, 575, 433, 4, -2, 4, -1, 7, 3, 919, 822, 305,d
2025-03-17 13:56:11.734,701, 611, 380, -1, -11, 3, 0, 6, 5, 922, 847, 266,d
2025-03-17 13:56:11.789,779, 490, 414, 4, -14, -20, -1, 7, 4, 933, 899, 246,d
2025-03-17 13:56:11.841,610, 461, 449, 29, -11, -21, -2, 5, 6, 938, 907, 157,d
2025-03-17 13:56:11.900,544, 556, 244, -51, 43, 38, -2, 5, 5, 950, 904, 48,d
2025-03-17 13:56:11.948,749, 429, 599, -65, -7, 13, 0, 9, 3, 949, 923, 62,d
2025-03-17 13:56:12.008,800, 661, 621, -25, -25, -19, 0, 9, 3, 941, 930, 273,d
2025-03-17 13:56:12.058,913, 765, 170, 21, 44, 43, -1, 6, 6, 961, 920, 138,d
2025-03-17 13:56:12.108,844, 488, 174, -12, 20, 5, 0, 6, 6, 949, 903, 125,d
2025-03-17 13:56:12.168,697, 623, 382, -23, 28, -36, 1, 8, 2, 929, 888, 230,d
2025-03-17 13:56:12.438,683, 650, 379, -2, -5, 2, 0, 5, 2, 914, 821, 353,e
2025-03-17 13:56:12.489,649, 637, 381, -3, -3, 7, 0, 5, 3, 914, 821, 366,e
2025-03-17 13:56:12.543,691, 514, 476, 0, -8, -4, -2, 7, 2, 920, 825, 438,e
2025-03-17 13:56:12.593,628, 569, 447, 14, -13, 9, 0, 5, 6, 926, 838, 399,e
2025-03-17 13:56:12.649,806, 691, 357, 16, -8, 6, -2, 7, 3, 928, 849, 452,e
2025-03-17 13:56:12.702,725, 569, 393, -7, 6, 2, -2, 8, 5, 934, 862, 413,e
2025-03-17 13:56:12.748,691, 554, 444, 5, -8, 5, 0, 5, 6, 940, 884, 345,e
2025-03-17 13:56:12.808,931, 745, 203, -40, 17, 38, -1, 7, 4, 953, 916, 252,e
2025-03-17 13:56:12.858,535, 439, 642, -23, -17, -1, -1, 8, 5, 949, 925, 252,e
2025-03-17 13:56:12.918,802, 471, 431, 37, -5, -29, 0, 7, 5, 951, 924, 440,e
2025-03-17 13:56:12.968,915, 938, 52, -22, 33, 36, 0, 9, 6, 962, 921, 220,e
2025-03-17 13:56:13.023,787, 359, 468, -34, 18, -3, 0, 9, 3, 954, 908, 263,e
2025-03-17 13:56:13.308,692, 553, 463, 2, 1, 7, 0, 7, 2, 932, 798, 370,f
2025-03-17 13:56:13.358,695, 555, 453, 3, 0, 7, -2, 8, 3, 929, 797, 380,f
2025-03-17 13:56:13.408,739, 547, 411, 2, -2, 2, 0, 7, 2, 928, 804, 412,f
2025-03-17 13:56:13.468,719, 563, 436, -1, 0, 2, 0, 7, 2, 930, 813, 398,f
2025-03-17 13:56:13.512,717, 531, 441, 5, -2, 4, 0, 7, 4, 932, 822, 381,f
2025-03-17 13:56:13.563,749, 522, 418, 4, 3, 12, 0, 9, 2, 943, 832, 289,f
2025-03-17 13:56:13.618,752, 492, 375, -30, 7, 9, 0, 9, 3, 949, 865, 31,f
2025-03-17 13:56:13.673,868, 280, 647, 9, -45, -58, 0, 7, 3, 944, 931, 195,f
2025-03-17 13:56:13.723,637, 449, 735, -2, -36, -3, -1, 8, 4, 954, 945, 476,f
2025-03-17 13:56:13.778,765, 595, 257, 39, -2, 5, -3, 7, 5, 951, 925, 616,f
2025-03-17 13:56:13.833,541, 643, 555, 23, 32, -53, 0, 7, 5, 938, 918, 577,f
2025-03-17 13:56:13.890,3387, 301, -35, -54, -23, -13, 0, 6, 6, 951, 935, 557,f
2025-03-17 13:56:13.941,784, 362, 433, -17, 11, 28, -1, 7, 6, 957, 940, 443,f
2025-03-17 13:56:13.998,714, 499, 234, 2, 38, -35, -1, 7, 6, 944, 910, 596,f
2025-03-17 13:56:14.286,694, 575, 456, -7, -2, 10, 0, 7, 5, 920, 793, 383,g
2025-03-17 13:56:14.340,700, 558, 457, -5, -3, 10, 0, 8, 2, 920, 793, 369,g
2025-03-17 13:56:14.389,717, 569, 419, -9, -3, 16, 0, 8, 4, 925, 790, 265,g
2025-03-17 13:56:14.441,685, 561, 428, -4, -9, 6, -2, 8, 4, 933, 822, 218,g
2025-03-17 13:56:14.490,738, 552, 390, -8, -18, 1, 0, 7, 5, 940, 888, 149,g
2025-03-17 13:56:14.549,867, 590, 461, 19, -2, -18, -1, 7, 7, 946, 912, 33,g
2025-03-17 13:56:14.606,982, 791, 210, -3, 41, 30, -2, 10, 7, 956, 915, 57,g
2025-03-17 13:56:14.659,681, 432, 547, -29, 21, 27, -2, 9, 3, 961, 930, 33,g
2025-03-17 13:56:14.713,711, 501, 426, 36, -21, -25, 1, 9, 4, 949, 923, 236,g
2025-03-17 13:56:14.758,504, 670, 312, -1, 30, 42, 0, 7, 6, 955, 915, 155,g
2025-03-17 13:56:14.818,757, 414, 362, -5, 24, 23, -1, 8, 3, 955, 900, 49,g
2025-03-17 13:56:14.872,937, 561, 138, -7, 31, -70, 0, 9, 1, 923, 835, 305,g
2025-03-17 13:56:15.168,688, 606, 433, 8, -7, 11, -1, 8, 2, 893, 799, 440,h
2025-03-17 13:56:15.223,686, 596, 448, 9, -8, 12, 0, 6, 3, 896, 801, 447,h
2025-03-17 13:56:15.278,728, 567, 360, 4, -8, 2, -2, 6, 3, 905, 815, 473,h
2025-03-17 13:56:15.328,699, 570, 395, 4, -16, -13, 0, 5, 4, 904, 849, 555,h
2025-03-17 13:56:15.384,735, 552, 478, -11, -15, 5, 0, 6, 5, 933, 902, 546,h
2025-03-17 13:56:15.438,657, 674, 348, 35, 36, 34, -1, 7, 5, 956, 904, 496,h
2025-03-17 13:56:15.489,576, 746, 113, -33, 23, 23, 0, 7, 5, 961, 894, 33,h
2025-03-17 13:56:15.548,755, 412, 579, -9, -13, -12, 0, 7, 4, 945, 906, 219,h
2025-03-17 13:56:15.598,678, 464, 498, -13, -7, 12, 0, 8, 3, 957, 932, 325,h
2025-03-17 13:56:15.655,708, 711, 229, -12, 32, 37, 0, 7, 6, 959, 927, 214,h
2025-03-17 13:56:15.708,807, 325, 381, -17, 21, -40, 0, 8, 5, 945, 889, 352,h
2025-03-17 13:56:16.015,729, 554, 431, -5, 0, -1, 0, 8, 3, 920, 798, 207,i
2025-03-17 13:56:16.058,725, 558, 439, -6, 0, -2, 1, 7, 4, 922, 796, 204,i
2025-03-17 13:56:16.118,696, 538, 478, -2, -4, -1, 0, 8, 2, 926, 793, 194,i
2025-03-17 13:56:16.171,720, 521, 433, 1, -14, -2, 1, 6, 3, 922, 821, 248,i
2025-03-17 13:56:16.224,733, 523, 461, 2, -17, -2, -1, 5, 5, 936, 873, 233,i
2025-03-17 13:56:16.278,735, 560, 404, 3, -1, -1, -2, 9, 5, 948, 897, 157,i
2025-03-17 13:56:16.328,641, 530, 341, 0, 17, 17, 0, 9, 4, 964, 892, 26,i
2025-03-17 13:56:16.383,817, 110, 583, -26, -6, -48, 0, 8, 5, 942, 869, 36,i
2025-03-17 13:56:16.440,287, 577, 1096, -4, -73, 15, -1, 8, 3, 943, 913, 370,i
2025-03-17 13:56:16.491,798, 584, 96, 12, 4, 2, 0, 7, 6, 956, 926, 330,i
2025-03-17 13:56:16.541,754, 474, 463, -20, 35, -5, 0, 8, 4, 945, 892, 284,i
2025-03-17 13:56:16.599,610, 582, 558, -20, 31, -15, -1, 9, 1, 937, 817, 24,i
2025-03-17 13:56:16.850,680, 560, 493, 3, 1, 2, 0, 8, 2, 891, 585, 57,j
2025-03-17 13:56:16.905,682, 545, 495, 4, -1, 2, 0, 7, 1, 889, 583, 57,j
2025-03-17 13:56:16.957,709, 557, 448, 5, -4, 3, 0, 7, 1, 891, 631, 152,j
2025-03-17 13:56:17.007,705, 554, 434, 4, -2, 3, 0, 8, 3, 900, 674, 227,j
2025-03-17 13:56:17.056,695, 558, 472, 3, -2, 5, 0, 8, 3, 899, 698, 254,j
2025-03-17 13:56:17.108,690, 558, 468, 7, -9, 10, 2, 8, 2, 906, 725, 257,j
2025-03-17 13:56:17.158,766, 480, 351, 7, -10, 3, 0, 7, 5, 914, 764, 270,j
2025-03-17 13:56:17.208,737, 533, 469, 4, -10, 2, 0, 9, 4, 927, 829, 289,j
2025-03-17 13:56:17.262,726, 596, 359, 17, 9, 17, -1, 7, 6, 949, 870, 212,j
2025-03-17 13:56:17.322,733, 685, 314, -28, 39, 49, -1, 9, 5, 957, 885, 57,j
2025-03-17 13:56:17.373,656, -131, 638, -51, 3, -29, -1, 13, 3, 944, 862, 53,j
2025-03-17 13:56:17.428,416, 734, 856, -46, -34, -41, 0, 7, 3, 949, 918, 164,j
2025-03-17 13:56:17.482,740, 797, 128, -3, -31, 0, -1, 6, 7, 958, 938, 215,j
2025-03-17 13:56:17.540,882, 521, 452, 1, 24, 15, -1, 7, 4, 950, 912, 319,j
2025-03-17 13:56:17.590,716, 522, 361, -7, 49, -26, 0, 8, 3, 941, 874, 265,j
2025-03-17 13:56:17.878,727, 592, 442, 19, -12, -19, 0, 4, 7, 885, 639, 354,k
2025-03-17 13:56:17.928,732, 574, 431, 18, -13, -21, -2, 5, 5, 886, 646, 367,k
2025-03-17 13:56:17.983,671, 645, 351, 9, -7, -17, 0, 3, 6, 904, 696, 403,k
2025-03-17 13:56:18.038,594, 725, 353, -14, 4, 6, -2, 4, 7, 921, 760, 401,k
2025-03-17 13:56:18.090,637, 655, 372, -5, -4, 26, 0, 6, 6, 931, 810, 326,k
2025-03-17 13:56:18.145,737, 569, 392, -3, -13, 6, 0, 6, 6, 937, 851, 392,k
2025-03-17 13:56:18.198,714, 602, 375, -4, -7, 3, -2, 6, 7, 936, 868, 422,k
2025-03-17 13:56:18.248,696, 669, 366, -12, -5, 7, 0, 7, 7, 943, 892, 459,k
2025-03-17 13:56:18.305,744, 523, 413, -16, 4, 2, 0, 6, 7, 949, 916, 358,k
2025-03-17 13:56:18.358,689, 910, 243, 65, 41, 25, -1, 7, 7, 950, 873, 388,k
2025-03-17 13:56:18.408,852, 745, 77, -19, 15, 19, -1, 8, 5, 950, 865, 47,k
2025-03-17 13:56:18.458,785, 500, 446, -42, -18, 13, 0, 8, 7, 954, 927, 39,k
2025-03-17 13:56:18.518,642, 536, 531, 21, -6, -10, -2, 8, 6, 945, 896, 265,k
2025-03-17 13:56:18.573,649, 664, 514, 1, 14, -15, -1, 7, 7, 930, 788, 176,k
2025-03-17 13:56:18.623,708, 799, 347, -63, 12, 48, 0, 6, 7, 958, 907, 37,k
2025-03-17 13:56:18.678,798, 259, 440, -1, 18, 3, 0, 10, 5, 944, 870, 60,k
2025-03-17 13:56:18.968,713, 598, 467, -5, -9, -8, 1, 5, 4, 893, 730, 423,l
2025-03-17 13:56:19.028,720, 628, 423, -7, -8, -5, -2, 5, 3, 896, 731, 432,l
2025-03-17 13:56:19.082,648, 570, 500, -4, -3, 5, -1, 8, 4, 909, 744, 392,l
2025-03-17 13:56:19.133,686, 556, 422, 3, -16, 9, -2, 8, 5, 921, 778, 374,l
2025-03-17 13:56:19.189,694, 602, 379, -3, -15, -1, 0, 7, 5, 922, 825, 412,l
2025-03-17 13:56:19.243,730, 510, 452, -14, -14, 9, -1, 8, 5, 939, 901, 310,l
2025-03-17 13:56:19.298,475, 778, 250, 41, 42, 29, -3, 9, 6, 960, 909, 239,l
2025-03-17 13:56:19.354,878, 613, 396, 17, 18, 19, -2, 8, 4, 956, 895, 35,l
2025-03-17 13:56:19.398,886, 427, 450, 1, -4, -32, 1, 8, 5, 933, 852, 451,l
2025-03-17 13:56:19.458,568, 494, 676, -32, 32, -34, 1, 5, 3, 900, 823, 503,l
2025-03-17 13:56:19.759,700, 560, 431, 0, -2, 0, 0, 7, 5, 896, 776, 269,m
2025-03-17 13:56:19.808,700, 560, 434, 2, -2, 0, -1, 7, 1, 893, 773, 275,m
2025-03-17 13:56:19.858,715, 567, 427, 7, -3, 1, 1, 7, 5, 891, 768, 285,m
2025-03-17 13:56:19.913,698, 560, 415, 8, -2, -2, -2, 7, 2, 897, 772, 377,m
2025-03-17 13:56:19.968,671, 563, 427, 15, -12, -8, 0, 9, 4, 896, 785, 404,m
2025-03-17 13:56:20.021,736, 613, 398, 5, -18, -2, 0, 6, 7, 911, 838, 408,m
2025-03-17 13:56:20.072,773, 576, 403, 10, -7, -1, -1, 6, 7, 948, 891, 430,m
2025-03-17 13:56:20.128,1012, 738, 392, -9, 24, 18, 0, 7, 4, 954, 892, 277,m
2025-03-17 13:56:20.178,761, 609, 578, -34, 2, 8, 0, 7, 5, 955, 915, 245,m
2025-03-17 13:56:20.238,904, 568, 428, -32, -24, -4, -1, 6, 5, 950, 928, 439,m
2025-03-17 13:56:20.288,741, 523, 239, 8, 20, 16, -1, 9, 5, 965, 929, 305,m
2025-03-17 13:56:20.341,729, 567, 248, -2, 7, 4, -1, 7, 7, 958, 922, 185,m
2025-03-17 13:56:20.398,726, 627, 428, -8, -32, -14, -2, 7, 5, 965, 936, 357,m
2025-03-17 13:56:20.448,691, 867, 139, 1, 15, 22, -2, 8, 7, 959, 928, 152,m
2025-03-17 13:56:20.504,825, 423, 349, -10, 26, 0, -1, 8, 5, 966, 918, 136,m
2025-03-17 13:56:20.558,644, 536, 514, -8, 22, -33, -1, 8, 5, 946, 884, 417,m
2025-03-17 13:56:20.838,739, 576, 389, 1, -1, -3, 0, 7, 4, 929, 787, 467,n
2025-03-17 13:56:20.888,737, 581, 383, 0, 0, -5, 1, 6, 8, 932, 787, 458,n
2025-03-17 13:56:20.939,713, 590, 427, -3, 0, -8, 0, 5, 5, 920, 786, 471,n
2025-03-17 13:56:20.989,677, 553, 465, 5, -13, -4, 1, 7, 5, 928, 809, 465,n
2025-03-17 13:56:21.048,750, 583, 434, -4, -20, 3, -1, 7, 4, 940, 886, 373,n
2025-03-17 13:56:21.103,689, 849, 401, 11, 16, 15, -1, 8, 6, 962, 906, 178,n
2025-03-17 13:56:21.156,748, 709, 169, -11, 14, 14, -1, 8, 6, 962, 896, 45,n
2025-03-17 13:56:21.208,674, 244, 625, -1, -35, -19, 0, 7, 6, 956, 916, 21,n
2025-03-17 13:56:21.258,656, 648, 567, -22, -23, 5, -1, 8, 6, 960, 931, 171,n
2025-03-17 13:56:21.312,776, 653, 177, 4, 25, 23, -2, 8, 6, 962, 920, 39,n
2025-03-17 13:56:21.372,875, 450, 376, -17, 27, -14, -1, 10, 4, 951, 876, 179,n
2025-03-17 13:56:21.428,629, 539, 658, -18, 27, -32, 0, 8, 1, 923, 799, 389,n
2025-03-17 13:56:21.688,508, 695, 520, 0, -2, 0, -1, 5, 3, 917, 645, 332,o
2025-03-17 13:56:21.739,492, 665, 524, 5, -2, 10, 0, 5, 4, 919, 659, 325,o
2025-03-17 13:56:21.798,740, 613, 467, 22, -10, 33, -1, 5, 3, 927, 723, 333,o
2025-03-17 13:56:21.856,782, 558, 299, -6, 11, 15, -2, 6, 4, 931, 775, 333,o
2025-03-17 13:56:21.908,666, 554, 521, -8, 10, 16, -2, 8, 4, 938, 810, 357,o
2025-03-17 13:56:21.958,690, 576, 440, 4, -5, 18, -1, 6, 5, 937, 838, 340,o
2025-03-17 13:56:22.008,701, 644, 417, 3, -12, 10, -1, 7, 5, 943, 859, 330,o
2025-03-17 13:56:22.071,808, 515, 397, -18, -10, -20, -2, 8, 5, 944, 897, 49,o
2025-03-17 13:56:22.122,916, 863, 21, 32, 30, 10, -1, 8, 4, 952, 883, 31,o
2025-03-17 13:56:22.172,847, 654, 423, -78, 31, 46, 0, 8, 6, 961, 918, 39,o
2025-03-17 13:56:22.228,752, 232, 552, 15, -42, -45, 0, 9, 3, 951, 929, 43,o
2025-03-17 13:56:22.286,941, 572, 215, 29, 24, -22, -1, 7, 4, 916, 862, 482,o
2025-03-17 13:56:22.577,719, 552, 449, -5, 1, 5, 1, 7, 3, 903, 680, 52,p
2025-03-17 13:56:22.622,705, 558, 454, -5, 0, 4, 1, 7, 3, 904, 678, 24,p
2025-03-17 13:56:22.678,714, 547, 442, -1, -6, 1, 0, 8, 2, 902, 701, 53,p
2025-03-17 13:56:22.729,726, 542, 437, 4, -4, 0, -1, 7, 4, 908, 733, 139,p
2025-03-17 13:56:22.778,720, 553, 427, 2, -3, -6, 0, 8, 3, 905, 746, 173,p
2025-03-17 13:56:22.833,728, 578, 428, -2, -3, -4, 0, 8, 4, 904, 769, 233,p
2025-03-17 13:56:22.888,681, 568, 437, -3, -10, -5, 1, 8, 4, 905, 803, 195,p
2025-03-17 13:56:22.939,753, 491, 437, -4, -15, 0, -2, 7, 4, 929, 862, 27,p
2025-03-17 13:56:22.991,302, 821, 226, -9, 40, 37, -1, 6, 5, 953, 878, 30,p
2025-03-17 13:56:23.048,695, 532, 343, -18, 36, 37, 0, 10, 5, 955, 854, 36,p
2025-03-17 13:56:23.099,700, 20, 708, 7, -36, -62, 0, 10, 2, 935, 852, 50,p
2025-03-17 13:56:23.158,813, 424, 533, -29, -18, -11, 1, 6, 5, 948, 925, 135,p
2025-03-17 13:56:23.208,661, 490, 551, -1, -1, 13, -1, 9, 5, 960, 932, 57,p
2025-03-17 13:56:23.258,1007, 385, 399, 1, 18, 12, 0, 10, 4, 961, 904, 25,p
2025-03-17 13:56:23.318,864, 513, 428, -1, 20, -22, 0, 9, 4, 934, 821, 46,p
2025-03-17 13:56:23.608,707, 528, 483, 0, -3, 2, 0, 9, 1, 919, 772, 53,q
2025-03-17 13:56:23.661,702, 530, 478, 0, -4, 4, 1, 7, 4, 920, 773, 51,q
2025-03-17 13:56:23.708,730, 582, 413, -4, -2, -1, 0, 9, 2, 928, 783, 21,q
2025-03-17 13:56:23.760,717, 527, 470, -5, -2, 2, 0, 9, 4, 928, 797, 32,q
2025-03-17 13:56:23.818,689, 536, 513, -2, -16, 2, -1, 9, 3, 935, 850, 28,q
2025-03-17 13:56:23.871,599, 517, 470, -10, -5, -15, 0, 9, 5, 940, 889, 34,q
2025-03-17 13:56:23.922,729, 603, 320, 42, 15, 1, 0, 8, 4, 952, 882, 56,q
2025-03-17 13:56:23.978,822, 614, 410, -17, 21, 32, 2, 8, 5, 955, 902, 52,q
2025-03-17 13:56:24.029,627, 352, 606, 1, -20, -16, 0, 8, 4, 961, 923, 23,q
2025-03-17 13:56:24.078,641, 551, 405, 43, 2, -1, -1, 8, 3, 953, 900, 52,q
2025-03-17 13:56:24.132,809, 710, 164, 31, 14, 22, 1, 8, 4, 961, 881, 36,q
2025-03-17 13:56:24.187,763, 396, 537, -32, 4, 15, 0, 10, 3, 966, 926, 21,q
2025-03-17 13:56:24.239,877, 471, 249, 5, 41, -25, 0, 11, 2, 942, 894, 61,q
2025-03-17 13:56:24.534,681, 535, 508, 3, -9, 3, 0, 10, 0, 897, 774, 117,r
2025-03-17 13:56:24.587,697, 523, 508, 5, -10, 2, 0, 7, 2, 897, 777, 121,r
2025-03-17 13:56:24.638,721, 537, 466, 5, -9, -1, 0, 10, 1, 904, 791, 174,r
2025-03-17 13:56:24.688,687, 553, 492, 8, -11, 1, 1, 8, 2, 908, 800, 151,r
2025-03-17 13:56:24.739,727, 560, 418, 9, -11, 1, 0, 7, 3, 912, 807, 170,r
2025-03-17 13:56:24.797,692, 527, 447, 3, -12, -8, 0, 8, 0, 918, 834, 233,r
2025-03-17 13:56:24.854,1342, 394, 420, -33, -9, -10, -2, 7, 4, 940, 897, 20,r
2025-03-17 13:56:24.905,484, 457, 505, -4, 47, 50, 0, 9, 5, 954, 887, 53,r
2025-03-17 13:56:24.958,742, 725, 209, -30, 16, 11, 1, 11, 4, 957, 902, 37,r
2025-03-17 13:56:25.008,803, 635, 186, -5, -32, -20, 2, 8, 5, 947, 926, 54,r
2025-03-17 13:56:25.071,865, 580, 168, -10, 47, 21, -1, 7, 7, 946, 902, 161,r
2025-03-17 13:56:25.124,516, 550, 644, -28, 35, -23, 1, 10, 0, 932, 854, 37,r
2025-03-17 13:56:25.422,707, 517, 472, 1, -6, 5, -1, 8, 1, 902, 744, 53,s
2025-03-17 13:56:25.473,710, 510, 481, 2, -6, 5, -1, 8, 2, 902, 742, 51,s
2025-03-17 13:56:25.525,739, 529, 456, 5, -9, 7, -1, 8, 2, 908, 756, 55,s
2025-03-17 13:56:25.573,708, 518, 439, 3, -7, 4, -2, 9, 3, 918, 773, 32,s
2025-03-17 13:56:25.628,692, 533, 499, -2, -10, 3, -1, 8, 4, 923, 819, 51,s
2025-03-17 13:56:25.678,726, 528, 434, -5, -17, 3, -1, 10, 2, 934, 867, 35,s
2025-03-17 13:56:25.735,702, 458, 524, 13, -6, -16, 1, 8, 3, 944, 904, 34,s
2025-03-17 13:56:25.788,547, 480, 341, 67, 12, -3, 0, 8, 7, 946, 894, 51,s
2025-03-17 13:56:25.841,651, 573, 346, -37, 33, 42, 0, 9, 4, 960, 920, 33,s
2025-03-17 13:56:25.888,658, 579, 474, -7, 4, 9, 0, 9, 3, 957, 917, 46,s
2025-03-17 13:56:25.940,1023, 393, 354, 31, 17, -31, 0, 9, 4, 921, 797, 42,s
2025-03-17 13:56:25.995,654, 466, 500, -32, 46, -31, 0, 7, 1, 887, 787, 26,s
2025-03-17 13:56:26.268,733, 525, 454, -8, -16, 4, 1, 6, 4, 905, 769, 27,t
2025-03-17 13:56:26.319,730, 535, 423, -8, -16, 2, 1, 6, 4, 904, 773, 29,t
2025-03-17 13:56:26.370,742, 536, 398, -6, -9, -12, -1, 9, 2, 906, 807, 29,t
2025-03-17 13:56:26.431,708, 548, 449, -8, -7, -9, 0, 7, 3, 910, 832, 31,t
2025-03-17 13:56:26.478,672, 571, 482, -14, -23, -10, -1, 9, 4, 914, 876, 37,t
2025-03-17 13:56:26.538,671, 352, 508, 55, -10, -12, -2, 9, 6, 933, 901, 48,t
2025-03-17 13:56:26.594,918, 798, 295, 16, 53, 46, -2, 6, 6, 959, 904, 16,t
2025-03-17 13:56:26.648,764, 414, 321, -39, 39, 25, 0, 8, 5, 950, 906, 53,t
2025-03-17 13:56:26.702,553, 608, 391, 23, -15, -82, -2, 8, 2, 929, 880, 377,t
2025-03-17 13:56:26.758,1000, 639, 282, -3, -21, -21, -1, 7, 6, 945, 922, 383,t
2025-03-17 13:56:26.808,836, 687, 310, -33, 16, 40, -2, 8, 5, 959, 938, 156,t
2025-03-17 13:56:26.869,735, 527, 293, 2, 36, -23, 0, 7, 4, 954, 918, 290,t
2025-03-17 13:56:27.178,719, 561, 429, -7, -3, 3, 0, 7, 6, 905, 637, 37,u
2025-03-17 13:56:27.232,724, 541, 431, -6, -3, 2, -2, 9, 4, 902, 640, 33,u
2025-03-17 13:56:27.278,702, 576, 415, -6, -1, -2, 1, 8, 5, 906, 662, 48,u
2025-03-17 13:56:27.336,665, 547, 439, -3, -8, -5, 0, 8, 4, 912, 725, 52,u
2025-03-17 13:56:27.388,717, 578, 455, -7, -19, 1, 0, 8, 4, 933, 820, 19,u
2025-03-17 13:56:27.442,853, 732, 257, 15, 22, 19, -1, 7, 6, 955, 862, 37,u
2025-03-17 13:56:27.495,723, 753, 252, -15, 15, 36, 0, 7, 5, 956, 890, 37,u
2025-03-17 13:56:27.548,704, 314, 544, -7, -23, -9, -1, 7, 5, 951, 911, 52,u
2025-03-17 13:56:27.603,735, 464, 611, 8, -11, -9, -1, 8, 4, 949, 910, 50,u
2025-03-17 13:56:27.654,763, 785, 306, -11, 28, 33, -2, 11, 4, 968, 913, 36,u
2025-03-17 13:56:27.708,891, 432, 427, -23, 21, -10, -1, 8, 4, 958, 884, 32,u
2025-03-17 13:56:27.759,653, 485, 596, -17, 37, -34, 0, 7, 2, 928, 838, 56,u
2025-03-17 13:56:27.814,604, 510, 581, 4, -5, -6, 2, 9, 0, 918, 800, 59,u
2025-03-17 13:56:28.048,717, 536, 459, -5, 0, 0, 0, 8, 0, 886, 525, 28,v
2025-03-17 13:56:28.103,713, 530, 458, -4, 0, 0, -1, 8, 1, 887, 531, 46,v
2025-03-17 13:56:28.154,693, 555, 478, 1, -2, -1, -1, 10, 1, 884, 596, 31,v
2025-03-17 13:56:28.208,689, 535, 492, 11, -5, -1, 1, 8, 3, 871, 616, 53,v
2025-03-17 13:56:28.258,710, 560, 440, 10, -10, -2, 1, 7, 2, 865, 640, 23,v
2025-03-17 13:56:28.309,729, 538, 424, 4, 0, -7, 0, 9, 2, 869, 673, 48,v
2025-03-17 13:56:28.360,680, 566, 469, 5, -2, -8, 2, 7, 4, 879, 688, 34,v
2025-03-17 13:56:28.408,707, 551, 458, 6, -19, -5, -2, 7, 2, 891, 743, 31,v
2025-03-17 13:56:28.460,776, 542, 376, -10, -19, -4, 0, 8, 4, 931, 868, 35,v
2025-03-17 13:56:28.520,708, 564, 458, 16, -4, -7, 0, 7, 5, 950, 911, 48,v
2025-03-17 13:56:28.573,944, 629, 266, 18, 31, 32, 0, 6, 4, 962, 901, 37,v
2025-03-17 13:56:28.622,783, 533, 325, -25, 13, 27, 1, 7, 5, 960, 913, 40,v
2025-03-17 13:56:28.679,676, 547, 332, -23, -27, -14, 0, 10, 3, 956, 933, 48,v
2025-03-17 13:56:28.733,928, 584, 241, 4, 26, -1, -2, 9, 5, 947, 912, 147,v
2025-03-17 13:56:28.786,564, 552, 588, -20, 57, -29, 0, 8, 3, 932, 876, 87,v
2025-03-17 13:56:29.088,687, 566, 468, 7, -4, -4, 1, 7, 1, 876, 580, 17,w
2025-03-17 13:56:29.138,698, 571, 459, 9, -3, -3, 1, 7, 2, 872, 583, 52,w
2025-03-17 13:56:29.188,676, 589, 477, 15, -8, -1, 0, 7, 2, 870, 598, 160,w
2025-03-17 13:56:29.249,710, 561, 410, 12, -11, -2, 1, 7, 0, 870, 652, 276,w
2025-03-17 13:56:29.302,658, 616, 449, -2, -13, -3, 2, 8, 6, 882, 749, 244,w
2025-03-17 13:56:29.354,1271, 403, 250, -26, -6, -5, 1, 8, 4, 932, 876, 32,w
2025-03-17 13:56:29.408,654, 803, 281, -15, 31, 54, 0, 7, 4, 954, 898, 50,w
2025-03-17 13:56:29.459,792, 702, 279, -28, 15, 25, 1, 7, 5, 960, 905, 32,w
2025-03-17 13:56:29.510,618, 368, 330, -4, -24, -19, 1, 9, 5, 950, 923, 52,w
2025-03-17 13:56:29.569,783, 561, 535, 35, -8, 2, -1, 8, 3, 952, 909, 164,w
2025-03-17 13:56:29.621,765, 686, 323, -38, 4, 34, -1, 9, 4, 959, 907, 26,w
2025-03-17 13:56:29.678,659, 387, 643, -11, -21, -1, 1, 11, 5, 952, 907, 51,w
2025-03-17 13:56:29.728,737, 463, 295, -21, 78, -34, 0, 10, 2, 920, 780, 31,w
2025-03-17 13:56:30.018,731, 521, 463, 7, -7, 7, 0, 9, 1, 905, 733, 46,x
2025-03-17 13:56:30.070,723, 517, 463, 6, -7, 7, -1, 9, 1, 911, 735, 42,x
2025-03-17 13:56:30.120,753, 543, 436, 6, -7, 1, 0, 7, 1, 917, 745, 38,x
2025-03-17 13:56:30.170,740, 532, 463, -5, -2, 0, 1, 9, 3, 916, 767, 50,x
2025-03-17 13:56:30.228,741, 541, 449, -4, -3, -2, -1, 8, 3, 919, 792, 35,x
2025-03-17 13:56:30.276,712, 540, 436, -3, -5, 0, -1, 9, 4, 928, 810, 39,x
2025-03-17 13:56:30.328,694, 523, 513, -5, -19, 4, -1, 8, 3, 937, 854, 50,x
2025-03-17 13:56:30.384,642, 472, 464, 29, 11, -7, 0, 9, 4, 954, 879, 20,x
2025-03-17 13:56:30.437,980, 646, 184, 30, 29, 8, 1, 8, 6, 944, 805, 35,x
2025-03-17 13:56:30.486,782, 251, 634, 4, -3, -47, -1, 9, 4, 917, 669, 33,x
2025-03-17 13:56:30.538,798, 418, 637, -6, -9, -15, 0, 5, 5, 942, 882, 35,x
2025-03-17 13:56:30.588,836, 520, 293, -11, 19, 53, 0, 8, 5, 965, 917, 42,x
2025-03-17 13:56:30.638,803, 272, 458, 8, 12, -15, 0, 9, 3, 954, 861, 40,x
2025-03-17 13:56:30.698,673, 550, 406, -2, 34, -56, 1, 8, 1, 912, 708, 173,x
2025-03-17 13:56:30.968,649, 566, 510, -8, -11, 1, 0, 9, 3, 917, 789, 166,y
2025-03-17 13:56:31.028,649, 545, 526, -7, -15, 2, 3, 7, 3, 917, 798, 142,y
2025-03-17 13:56:31.082,711, 508, 477, -5, -19, -3, 1, 7, 4, 924, 859, 54,y
2025-03-17 13:56:31.137,817, 440, 416, 21, -2, -11, 1, 7, 5, 951, 898, 34,y
2025-03-17 13:56:31.188,632, 911, 178, -13, 33, 49, 1, 8, 5, 960, 917, 31,y
2025-03-17 13:56:31.242,669, 379, 670, -11, -4, 2, 1, 9, 1, 954, 916, 147,y
2025-03-17 13:56:31.288,728, 560, 555, 13, -7, -9, 1, 9, 3, 944, 916, 477,y
2025-03-17 13:56:31.348,604, 741, 384, 33, 32, 43, -1, 9, 3, 956, 906, 257,y
2025-03-17 13:56:31.403,644, 549, 422, -23, 30, 30, 1, 8, 4, 957, 890, 50,y
2025-03-17 13:56:31.456,954, 403, 493, 16, 9, -53, 1, 8, 4, 931, 767, 252,y
2025-03-17 13:56:31.508,607, 464, 713, -31, 24, -26, 2, 10, 0, 899, 785, 240,y
2025-03-17 13:56:31.780,698, 545, 480, -6, -8, 0, 1, 10, 1, 852, 682, 141,z
2025-03-17 13:56:31.836,697, 539, 479, -6, -8, 0, 0, 9, 1, 854, 686, 137,z
2025-03-17 13:56:31.889,696, 505, 463, 1, -7, -4, 0, 10, 1, 867, 718, 155,z
2025-03-17 13:56:31.940,686, 519, 483, 2, -10, -2, 1, 8, 3, 880, 750, 150,z
2025-03-17 13:56:31.993,753, 490, 448, 2, -17, -4, 1, 8, 5, 899, 790, 33,z
2025-03-17 13:56:32.048,760, 538, 424, -5, -20, -6, -2, 10, 3, 927, 854, 50,z
2025-03-17 13:56:32.103,714, 764, 459, 12, -14, 12, 0, 8, 4, 951, 920, 46,z
2025-03-17 13:56:32.153,578, 330, 559, 49, -1, 7, -1, 8, 6, 959, 911, 128,z
2025-03-17 13:56:32.204,1001, 442, 525, 2, 35, -1, 0, 9, 6, 958, 852, 20,z
2025-03-17 13:56:32.258,811, 620, 289, -6, 9, 5, -2, 8, 6, 960, 887, 34,z
2025-03-17 13:56:32.309,761, 524, 464, -11, 2, 26, -2, 9, 4, 965, 923, 39,z
2025-03-17 13:56:32.358,787, 304, 417, 13, 9, -26, -1, 10, 3, 952, 885, 34,z
2025-03-17 13:56:32.419,628, 662, 614, 7, -15, -27, 0, 6, 5, 939, 816, 228,z
2025-03-17 13:56:32.473,845, 550, 220, -37, -5, 17, 0, 8, 5, 965, 928, 36,z
2025-03-17 13:56:32.520,676, 253, 462, -3, 8, 29, -2, 10, 3, 962, 920, 34,z
2025-03-17 13:56:32.570,814, 469, 211, 2, 56, -45, 1, 8, 4, 946, 852, 73,z
2025-03-17 13:56:32.879,676, 551, 492, -2, -7, 3, 0, 9, 1, 898, 599, 39,0
2025-03-17 13:56:32.929,680, 558, 498, 1, -8, 4, 1, 5, 1, 897, 616, 147,0
2025-03-17 13:56:32.985,701, 559, 451, 7, -11, 10, -1, 9, 2, 903, 693, 290,0
2025-03-17 13:56:33.038,708, 553, 445, 9, -8, 7, 0, 6, 3, 912, 726, 286,0
2025-03-17 13:56:33.087,732, 557, 427, 3, -6, 7, 0, 7, 4, 921, 754, 338,0
2025-03-17 13:56:33.136,732, 541, 417, 0, 0, 0, 0, 7, 1, 919, 776, 337,0
2025-03-17 13:56:33.188,720, 553, 453, -2, -1, 0, -1, 7, 4, 919, 790, 324,0
2025-03-17 13:56:33.238,726, 542, 432, 0, -2, 0, -1, 8, 4, 924, 810, 314,0
2025-03-17 13:56:33.288,721, 544, 443, -1, 0, 1, 0, 8, 1, 926, 818, 312,0
2025-03-17 13:56:33.338,729, 542, 427, 0, 1, 1, 0, 9, 2, 925, 819, 325,0
2025-03-17 13:56:33.389,743, 573, 415, -4, -1, -2, 0, 8, 2, 928, 825, 321,0
2025-03-17 13:56:33.447,704, 540, 458, 0, -1, 0, 0, 8, 2, 926, 832, 319,0
2025-03-17 13:56:33.501,750, 559, 440, -3, -5, 0, -1, 10, 2, 930, 845, 300,0
2025-03-17 13:56:33.555,745, 540, 444, -1, -3, 1, 1, 6, 4, 932, 852, 316,0
2025-03-17 13:56:33.603,734, 552, 427, 1, 0, -2, 0, 9, 1, 929, 849, 321,0
2025-03-17 13:56:33.652,733, 545, 429, 0, 0, 0, -1, 8, 4, 934, 852, 304,0
2025-03-17 13:56:33.702,722, 574, 423, -3, 0, 0, -1, 8, 4, 931, 851, 250,0
2025-03-17 13:56:33.759,737, 528, 430, -3, 0, 0, 0, 8, 3, 929, 856, 250,0
2025-03-17 13:56:33.809,728, 541, 443, -3, -1, 0, -1, 9, 5, 931, 862, 248,0
2025-03-17 13:56:33.859,728, 545, 428, -3, -1, 1, 0, 8, 3, 940, 867, 221,0
2025-03-17 13:56:33.908,734, 554, 425, -5, -8, 1, 0, 8, 4, 935, 878, 216,0
2025-03-17 13:56:33.967,719, 557, 422, -8, -11, 1, -1, 9, 3, 936, 893, 187,0
2025-03-17 13:56:34.019,761, 558, 455, -7, -2, -5, -1, 8, 3, 938, 908, 122,0
2025-03-17 13:56:34.069,660, 450, 444, -2, -3, -12, 0, 7, 5, 943, 919, 53,0
2025-03-17 13:56:34.119,777, 458, 444, 21, 2, -18, 1, 7, 4, 952, 922, 30,0
2025-03-17 13:56:34.178,1131, 550, 421, 41, 20, 0, 0, 7, 6, 956, 914, 40,0
2025-03-17 13:56:34.234,898, 1035, 223, -1, 38, 39, 0, 8, 6, 958, 916, 50,0
2025-03-17 13:56:34.285,687, 457, 483, -55, 8, 36, 1, 10, 2, 961, 930, 37,0
2025-03-17 13:56:34.338,850, 350, 550, 14, -37, -36, 0, 10, 2, 942, 913, 53,0
2025-03-17 13:56:34.394,833, 533, 275, 33, -1, -29, 0, 6, 4, 903, 822, 175,0
2025-03-17 13:56:34.445,717, 593, 427, -20, 30, -22, 0, 7, 2, 890, 777, 42,0
2025-03-17 13:56:34.723,731, 583, 377, 5, -8, 0, 0, 9, 3, 897, 794, 158,1
2025-03-17 13:56:34.778,733, 588, 376, 5, -5, -1, 1, 7, 5, 898, 791, 159,1
2025-03-17 13:56:34.828,709, 589, 402, 4, -3, -3, -1, 7, 6, 899, 800, 209,1
2025-03-17 13:56:34.885,694, 594, 440, 6, -12, -1, 0, 7, 6, 904, 807, 51,1
2025-03-17 13:56:34.934,827, 643, 188, 16, 2, -5, -2, 5, 6, 928, 876, 37,1
2025-03-17 13:56:34.986,642, 530, 445, -28, 1, 14, 0, 7, 7, 944, 907, 42,1
2025-03-17 13:56:35.038,658, 604, 416, 45, 6, 13, -1, 9, 4, 947, 881, 49,1
2025-03-17 13:56:35.089,708, 542, 264, 16, 43, 38, 0, 7, 6, 954, 872, 37,1
2025-03-17 13:56:35.145,741, 458, 427, -12, 25, -17, -1, 8, 2, 950, 798, 25,1
2025-03-17 13:56:35.195,749, 667, 488, 2, -28, 9, 0, 9, 4, 944, 843, 52,1
2025-03-17 13:56:35.250,584, 464, 261, -41, 1, 35, 1, 7, 5, 959, 920, 47,1
2025-03-17 13:56:35.299,812, 349, 391, 3, 7, -17, 0, 8, 4, 953, 877, 42,1
2025-03-17 13:56:35.578,714, 586, 421, -3, -5, 1, 1, 6, 5, 850, 757, 54,2
2025-03-17 13:56:35.628,725, 589, 406, -3, -5, 1, 0, 7, 2, 853, 759, 52,2
2025-03-17 13:56:35.684,704, 552, 405, -3, -4, -5, -1, 5, 4, 855, 766, 42,2
2025-03-17 13:56:35.737,659, 599, 437, 7, -11, -9, -2, 7, 4, 854, 771, 151,2
2025-03-17 13:56:35.794,718, 596, 445, 16, -23, -1, 0, 8, 6, 894, 843, 165,2
2025-03-17 13:56:35.838,827, 695, 170, -24, -8, 37, 1, 6, 8, 945, 909, 142,2
2025-03-17 13:56:35.901,436, 653, 405, 46, 22, 23, -1, 7, 6, 955, 883, 65,2
2025-03-17 13:56:35.952,1020, 652, 276, -12, 8, -9, -1, 7, 6, 944, 848, 51,2
2025-03-17 13:56:36.003,685, 567, 465, -59, 12, 45, 1, 7, 5, 964, 931, 33,2
2025-03-17 13:56:36.058,823, 390, 376, -14, 24, 15, 0, 10, 3, 959, 916, 36,2
2025-03-17 13:56:36.361,707, 550, 472, -7, -7, -3, 0, 8, 2, 918, 835, 32,3
2025-03-17 13:56:36.417,700, 552, 462, -6, -9, -5, -2, 8, 2, 917, 835, 48,3
2025-03-17 13:56:36.469,699, 586, 407, -8, -7, -10, 1, 7, 2, 922, 840, 41,3
2025-03-17 13:56:36.522,708, 586, 455, -3, -11, -5, 0, 7, 2, 922, 840, 54,3
2025-03-17 13:56:36.568,711, 522, 455, 4, -19, -1, -2, 8, 3, 939, 878, 22,3
2025-03-17 13:56:36.618,796, 747, 309, 16, -9, -2, 0, 6, 5, 943, 909, 52,3
2025-03-17 13:56:36.679,716, 451, 427, -4, 7, 19, 0, 8, 5, 952, 921, 37,3
2025-03-17 13:56:36.728,792, 305, 602, 14, 8, 3, -2, 6, 5, 955, 916, 35,3
2025-03-17 13:56:36.778,893, 617, 166, 1, 14, -3, 0, 7, 7, 950, 909, 50,3
2025-03-17 13:56:36.835,664, 629, 438, -4, 21, 29, -1, 9, 4, 956, 916, 53,3
2025-03-17 13:56:36.884,724, 567, 380, 10, 14, 10, 0, 8, 5, 958, 888, 37,3
2025-03-17 13:56:36.937,952, 344, 364, -2, 39, -29, 1, 8, 4, 926, 735, 35,3
2025-03-17 13:56:37.248,749, 550, 394, 8, -21, 0, 1, 7, 6, 912, 769, 35,4
2025-03-17 13:56:37.302,765, 559, 386, 8, -19, -1, -1, 7, 5, 915, 780, 33,4
2025-03-17 13:56:37.358,711, 581, 430, -1, -13, -1, -1, 8, 5, 920, 827, 27,4
2025-03-17 13:56:37.408,716, 535, 459, 9, -19, 1, -1, 7, 5, 933, 861, 37,4
2025-03-17 13:56:37.460,710, 572, 373, 1, -4, -4, -1, 6, 8, 941, 874, 52,4
2025-03-17 13:56:37.508,614, 668, 328, 36, 14, 1, -2, 5, 7, 943, 830, 26,4
2025-03-17 13:56:37.560,837, 523, 321, -17, 6, 0, 0, 5, 8, 945, 807, 37,4
2025-03-17 13:56:37.617,564, 578, 318, -62, 7, 38, -1, 7, 6, 951, 909, 53,4
2025-03-17 13:56:37.668,747, 519, 404, -2, 9, 14, -1, 7, 9, 953, 904, 122,4
2025-03-17 13:56:37.718,583, 552, 389, -3, 3, -48, -1, 6, 6, 933, 864, 433,4
2025-03-17 13:56:37.779,713, 569, 542, 25, -26, 24, -2, 7, 4, 946, 888, 479,4
2025-03-17 13:56:37.834,541, 473, 310, 58, 48, 44, -3, 8, 5, 955, 809, 280,4
2025-03-17 13:56:37.884,873, 348, 270, -24, 21, -38, 0, 8, 6, 944, 743, 243,4
2025-03-17 13:56:38.188,708, 566, 405, -12, -4, -6, -1, 7, 3, 900, 803, 226,5
2025-03-17 13:56:38.243,707, 560, 436, -9, -4, -6, 1, 6, 4, 904, 803, 222,5
2025-03-17 13:56:38.293,697, 591, 438, 0, -4, -3, -1, 9, 4, 906, 807, 237,5
2025-03-17 13:56:38.350,677, 579, 451, 2, -8, -4, -1, 8, 4, 901, 801, 172,5
2025-03-17 13:56:38.402,1822, 325, 250, 19, -11, -15, 1, 7, 6, 936, 874, 53,5
2025-03-17 13:56:38.451,577, 513, 215, -14, 3, 19, 0, 8, 7, 952, 914, 146,5
2025-03-17 13:56:38.508,671, 555, 496, 4, -1, 2, -2, 8, 4, 950, 917, 167,5
2025-03-17 13:56:38.564,520, 515, 457, 54, 5, -27, -1, 6, 6, 944, 885, 423,5
2025-03-17 13:56:38.617,980, 897, 160, 18, 26, 23, -1, 7, 6, 953, 901, 379,5
2025-03-17 13:56:38.668,645, 680, 427, -14, 29, 31, -1, 8, 5, 963, 911, 101,5
2025-03-17 13:56:38.718,767, 539, 325, 15, 22, -3, 1, 7, 5, 940, 795, 236,5
2025-03-17 13:56:38.778,833, 592, 345, -38, 40, -29, 2, 6, 4, 888, 605, 375,5
2025-03-17 13:56:39.078,699, 585, 465, -3, -12, 9, -1, 8, 4, 913, 809, 38,6
2025-03-17 13:56:39.132,691, 587, 447, -3, -11, 9, -2, 9, 4, 913, 810, 52,6
2025-03-17 13:56:39.184,734, 536, 416, -2, -14, 10, 0, 7, 3, 917, 826, 41,6
2025-03-17 13:56:39.238,680, 525, 436, -6, -10, 6, -1, 6, 6, 930, 860, 43,6
2025-03-17 13:56:39.288,702, 586, 504, -5, -8, -9, -2, 9, 4, 937, 889, 34,6
2025-03-17 13:56:39.343,653, 349, 471, 47, 13, -14, -2, 8, 5, 945, 884, 40,6
2025-03-17 13:56:39.399,808, 537, 11, 19, 41, 37, -1, 5, 7, 953, 873, 52,6
2025-03-17 13:56:39.452,637, 514, 566, -45, 15, 13, 0, 9, 5, 958, 918, 34,6
2025-03-17 13:56:39.508,1066, 537, 303, 52, -18, -33, 0, 7, 3, 943, 911, 36,6
2025-03-17 13:56:39.560,884, 535, 217, -35, 60, -32, 1, 7, 3, 922, 887, 41,6
2025-03-17 13:56:39.615,495, 615, 738, -28, 34, -11, 2, 7, 0, 914, 858, 61,6
2025-03-17 13:56:39.888,686, 551, 458, 2, -17, 1, 1, 5, 5, 908, 765, 52,7
2025-03-17 13:56:39.943,686, 541, 460, 4, -18, 1, -1, 7, 4, 909, 764, 46,7
2025-03-17 13:56:39.993,698, 574, 445, -2, -24, 0, 0, 7, 7, 920, 795, 33,7
2025-03-17 13:56:40.044,822, 378, 227, 19, 5, -5, -1, 9, 6, 939, 883, 37,7
2025-03-17 13:56:40.100,586, 655, 575, -20, 2, 25, -2, 8, 7, 949, 909, 25,7
2025-03-17 13:56:40.152,598, 758, 321, 48, 27, 23, 0, 8, 6, 953, 875, 38,7
2025-03-17 13:56:40.202,786, 405, 134, 2, 28, 18, 0, 8, 6, 955, 830, 42,7
2025-03-17 13:56:40.253,596, 210, 695, -18, 2, -38, 1, 9, 3, 945, 698, 15,7
2025-03-17 13:56:40.308,874, 363, 129, 32, -6, -13, -1, 9, 3, 942, 876, 50,7
2025-03-17 13:56:40.358,679, 536, 294, -19, 10, 34, 1, 7, 4, 952, 907, 53,7
2025-03-17 13:56:40.419,837, 368, 221, -9, 36, -45, -2, 9, 4, 939, 818, 145,7
2025-03-17 13:56:40.688,693, 556, 442, -2, -5, 7, 1, 6, 1, 826, 307, 55,8
2025-03-17 13:56:40.742,696, 557, 477, 2, -6, 8, -1, 8, 3, 834, 334, 41,8
2025-03-17 13:56:40.788,719, 542, 433, 4, -9, 9, 0, 8, 2, 851, 489, 51,8
2025-03-17 13:56:40.839,713, 572, 408, 4, -4, 6, -2, 6, 4, 872, 545, 27,8
2025-03-17 13:56:40.888,717, 561, 431, 1, -1, 5, 1, 7, 5, 886, 587, 79,8
2025-03-17 13:56:40.943,681, 563, 462, -2, -7, 8, -2, 9, 2, 899, 689, 68,8
2025-03-17 13:56:40.993,787, 574, 395, -15, -13, -8, 1, 8, 4, 921, 804, 37,8
2025-03-17 13:56:41.050,567, 449, 464, 11, -3, -21, -1, 8, 5, 935, 855, 29,8
2025-03-17 13:56:41.101,930, 947, 187, -18, 43, 50, 0, 9, 5, 952, 878, 56,8
2025-03-17 13:56:41.158,717, 639, 441, -42, 16, 33, 0, 11, 3, 963, 919, 29,8
2025-03-17 13:56:41.208,727, 541, 518, 40, -51, -58, 0, 9, 3, 949, 928, 44,8
2025-03-17 13:56:41.266,710, 500, 332, -17, -24, -16, 0, 8, 5, 955, 947, 19,8
2025-03-17 13:56:41.318,594, 725, 331, 4, 18, 22, 0, 8, 5, 959, 943, 48,8
2025-03-17 13:56:41.368,671, 466, 352, 13, 24, 13, 0, 8, 4, 954, 931, 45,8
2025-03-17 13:56:41.418,903, 506, 286, -18, 46, -37, -1, 10, 2, 940, 895, 152,8
2025-03-17 13:56:41.648,698, 575, 471, -4, -2, -1, 0, 9, 1, 894, 730, 48,9
2025-03-17 13:56:41.701,703, 571, 457, -4, -3, -1, 0, 8, 3, 897, 723, 54,9
2025-03-17 13:56:41.758,710, 569, 485, -2, -6, 2, 0, 7, 4, 898, 713, 45,9
2025-03-17 13:56:41.801,716, 541, 440, -1, -6, 1, 0, 7, 2, 897, 729, 35,9
2025-03-17 13:56:41.858,718, 552, 430, -4, -1, -3, -1, 7, 3, 898, 737, 23,9
2025-03-17 13:56:41.909,705, 555, 460, -3, -5, 2, 1, 7, 3, 895, 746, 50,9
2025-03-17 13:56:41.958,711, 553, 482, 2, -10, 6, 0, 10, 2, 902, 779, 52,9
2025-03-17 13:56:42.016,742, 570, 406, -2, -8, 8, 0, 8, 5, 917, 827, 53,9
2025-03-17 13:56:42.068,780, 544, 457, -14, -24, -1, -1, 8, 6, 936, 883, 35,9
2025-03-17 13:56:42.118,659, 467, 505, 19, -11, -22, -1, 10, 4, 941, 907, 35,9
2025-03-17 13:56:42.178,1015, 983, 60, 16, 30, 21, -2, 8, 6, 952, 905, 52,9
2025-03-17 13:56:42.233,620, 509, 457, -42, 20, 34, -1, 7, 5, 960, 923, 33,9
2025-03-17 13:56:42.288,747, 460, 417, 29, -17, -22, -1, 9, 4, 949, 912, 143,9
2025-03-17 13:56:42.344,623, 1092, 125, 15, 38, 49, -1, 9, 4, 957, 902, 34,9
2025-03-17 13:56:42.392,762, 594, 394, 0, 28, 27, 0, 8, 4, 949, 849, 49,9
2025-03-17 13:56:42.450,1002, 515, 233, -7, 37, -53, 0, 9, 2, 907, 724, 163,9
2025-03-17 13:56:42.822,707, 551, 444, 4, -12, -8, 1, 7, 1, 589, 311, 18,+
2025-03-17 13:56:42.872,722, 545, 446, 4, -11, -10, 0, 8, 2, 590, 334, 40,+
2025-03-17 13:56:42.922,711, 543, 494, 17, -11, -18, 0, 7, 0, 599, 334, 31,+
2025-03-17 13:56:42.982,698, 547, 458, 25, -15, -21, 0, 7, 2, 644, 397, 35,+
2025-03-17 13:56:43.034,670, 583, 420, 15, -14, -23, 1, 5, 4, 701, 476, 54,+
2025-03-17 13:56:43.084,693, 649, 382, 15, -8, -32, 0, 3, 4, 768, 520, 272,+
2025-03-17 13:56:43.142,627, 741, 284, -3, 8, -1, -2, 5, 3, 818, 596, 352,+
2025-03-17 13:56:43.199,656, 709, 388, -6, -8, 23, -1, 5, 4, 862, 667, 351,+
2025-03-17 13:56:43.249,721, 602, 360, -16, 0, 15, 0, 5, 7, 888, 748, 307,+
2025-03-17 13:56:43.302,714, 609, 397, -9, 0, 10, -1, 5, 5, 898, 791, 274,+
2025-03-17 13:56:43.352,678, 613, 392, -7, -2, 4, 1, 7, 6, 907, 801, 312,+
2025-03-17 13:56:43.407,711, 616, 384, -16, -7, 2, 0, 7, 5, 912, 834, 294,+
2025-03-17 13:56:43.465,626, 618, 476, -16, -34, 11, -2, 7, 4, 922, 870, 306,+
2025-03-17 13:56:43.518,731, 525, 404, -3, -11, 11, -2, 8, 6, 938, 899, 256,+
2025-03-17 13:56:43.572,902, 500, 597, 44, 51, 39, -2, 5, 9, 956, 896, 32,+
2025-03-17 13:56:43.622,759, 691, 210, -7, 30, 22, -3, 6, 6, 956, 878, 30,+
2025-03-17 13:56:43.683,686, 425, 545, -12, -6, -45, -2, 8, 4, 932, 841, 154,+
2025-03-17 13:56:43.733,684, 630, 609, -2, -32, -2, 1, 9, 4, 925, 860, 216,+
2025-03-17 13:56:43.783,928, 872, 379, 21, 0, 21, -1, 7, 6, 952, 926, 239,+
2025-03-17 13:56:43.843,765, 356, 534, -14, 1, 30, -2, 8, 6, 967, 936, 36,+
2025-03-17 13:56:43.893,714, 548, 414, 22, 2, -1, -2, 7, 5, 950, 908, 215,+
2025-03-17 13:56:43.949,796, 641, 256, -17, 39, -49, 0, 7, 4, 907, 815, 440,+
2025-03-17 13:56:44.002,585, 598, 633, -12, 4, -14, 0, 8, 1, 865, 715, 314,+
2025-03-17 13:56:44.307,713, 610, 411, 7, 2, 18, -1, 7, 4, 910, 773, 346,-
2025-03-17 13:56:44.362,727, 604, 430, 7, 2, 18, -1, 6, 5, 915, 772, 346,-
2025-03-17 13:56:44.416,743, 566, 358, 2, -2, 4, 0, 7, 4, 911, 791, 375,-
2025-03-17 13:56:44.465,691, 573, 435, 0, 0, -1, 1, 5, 7, 914, 807, 355,-
2025-03-17 13:56:44.519,700, 595, 392, 6, 1, -4, -1, 8, 5, 908, 806, 359,-
2025-03-17 13:56:44.567,692, 591, 425, 1, 2, -4, 1, 5, 7, 909, 784, 251,-
2025-03-17 13:56:44.620,553, 541, 560, 22, -13, -22, 0, 7, 5, 930, 827, 36,-
2025-03-17 13:56:44.677,597, 648, 240, -52, -8, 50, -1, 8, 5, 955, 911, 218,-
2025-03-17 13:56:44.727,654, 353, 505, 12, 4, 9, 0, 7, 8, 960, 914, 308,-
2025-03-17 13:56:44.783,755, 467, 299, 20, 15, -19, -1, 8, 7, 936, 849, 547,-
2025-03-17 13:56:44.834,700, 604, 446, -22, 43, -29, 0, 7, 4, 888, 721, 468,-
2025-03-17 13:56:45.108,711, 588, 437, -4, -4, 1, 0, 6, 3, 854, 586, 282,÷
2025-03-17 13:56:45.155,706, 581, 436, -6, -4, 1, 1, 6, 6, 854, 597, 282,÷
2025-03-17 13:56:45.215,700, 586, 442, -2, -5, 2, -1, 7, 3, 863, 626, 273,÷
2025-03-17 13:56:45.264,726, 586, 409, -2, -5, 1, 0, 6, 5, 870, 681, 320,÷
2025-03-17 13:56:45.317,732, 583, 385, -4, -3, 0, 0, 7, 4, 884, 724, 326,÷
2025-03-17 13:56:45.370,713, 575, 429, -2, -2, -1, 0, 7, 5, 889, 754, 347,÷
2025-03-17 13:56:45.422,745, 563, 388, -3, 5, -3, -1, 8, 2, 888, 767, 349,÷
2025-03-17 13:56:45.473,701, 556, 436, -14, 17, -11, 1, 8, 4, 887, 761, 286,÷
2025-03-17 13:56:45.522,576, 583, 587, 0, -16, 3, 1, 6, 3, 892, 780, 279,÷
2025-03-17 13:56:45.582,679, 1027, 300, 26, -25, -9, -2, 8, 4, 946, 882, 236,÷
2025-03-17 13:56:45.633,865, 547, 466, 35, 16, 8, -1, 8, 5, 930, 816, 429,÷
2025-03-17 13:56:45.692,375, 460, 579, 7, 63, -10, 0, 6, 2, 932, 667, 243,÷
2025-03-17 13:56:45.747,1023, 658, 271, 46, -47, 8, 1, 5, 7, 943, 804, 267,÷
2025-03-17 13:56:45.800,793, 547, 439, -13, 18, 7, 1, 7, 5, 938, 832, 239,÷
2025-03-17 13:56:45.852,541, 552, 353, -8, 11, -34, 0, 6, 4, 911, 750, 352,÷
2025-03-17 13:56:45.902,843, 557, 381, 16, -34, 18, 0, 7, 5, 942, 866, 429,÷
2025-03-17 13:56:45.961,745, 650, 520, -35, -1, 38, 1, 8, 6, 961, 927, 171,÷
2025-03-17 13:56:46.014,813, 465, 371, 9, 19, -20, -1, 8, 5, 952, 888, 451,÷
2025-03-17 13:56:46.070,639, 544, 521, -23, 59, -39, 1, 7, 3, 909, 769, 484,÷
2025-03-17 13:56:46.336,700, 591, 465, 1, -5, -8, 1, 6, 1, 808, 671, 283,=
2025-03-17 13:56:46.383,699, 581, 467, 1, -6, -9, 0, 6, 1, 810, 660, 274,=
2025-03-17 13:56:46.447,726, 588, 399, -1, -5, -18, -1, 6, 2, 813, 630, 279,=
2025-03-17 13:56:46.499,662, 604, 479, 6, -13, -32, 1, 6, 2, 819, 594, 366,=
2025-03-17 13:56:46.557,583, 661, 487, 10, -13, -11, 0, 5, 3, 838, 602, 399,=
2025-03-17 13:56:46.604,600, 655, 416, 16, -12, 22, 0, 4, 4, 867, 656, 439,=
2025-03-17 13:56:46.657,736, 628, 333, 0, -2, 22, 1, 3, 6, 894, 720, 424,=
2025-03-17 13:56:46.714,712, 596, 398, -6, 3, 10, 0, 6, 4, 904, 756, 385,=
2025-03-17 13:56:46.767,676, 595, 433, -2, 0, 10, 0, 5, 4, 918, 774, 360,=
2025-03-17 13:56:46.816,738, 570, 417, 0, -1, 4, -1, 7, 6, 916, 784, 350,=
2025-03-17 13:56:46.866,697, 595, 414, -1, 4, 2, -1, 7, 4, 915, 792, 361,=
2025-03-17 13:56:46.922,716, 598, 395, -4, -1, -1, 1, 5, 5, 913, 796, 295,=
2025-03-17 13:56:46.972,690, 601, 433, -4, 2, 0, 1, 8, 5, 917, 800, 273,=
2025-03-17 13:56:47.022,720, 588, 394, 0, -2, -1, 1, 5, 6, 918, 799, 264,=
2025-03-17 13:56:47.072,690, 596, 417, -1, 2, -1, -1, 8, 6, 917, 799, 225,=
2025-03-17 13:56:47.131,709, 608, 412, 2, 0, -2, 0, 8, 4, 922, 805, 243,=
2025-03-17 13:56:47.181,721, 598, 405, -2, 0, -3, 0, 5, 7, 914, 804, 263,=
2025-03-17 13:56:47.233,655, 580, 441, 1, -2, 2, -1, 7, 4, 916, 810, 256,=
2025-03-17 13:56:47.282,704, 601, 382, -2, -3, 1, 0, 4, 6, 917, 814, 265,=
2025-03-17 13:56:47.332,717, 592, 392, -1, 1, 0, 1, 5, 7, 915, 819, 288,=
2025-03-17 13:56:47.389,704, 599, 397, -2, 0, -3, -1, 8, 5, 914, 820, 287,=
2025-03-17 13:56:47.443,706, 596, 408, -4, -1, 0, -2, 6, 6, 922, 828, 271,=
2025-03-17 13:56:47.497,707, 601, 382, -4, -2, -2, 0, 6, 6, 916, 833, 285,=
2025-03-17 13:56:47.549,702, 596, 408, -5, -2, 0, -1, 6, 6, 921, 841, 267,=
2025-03-17 13:56:47.602,711, 605, 383, -2, -1, 0, 0, 5, 6, 929, 848, 245,=
2025-03-17 13:56:47.653,703, 590, 401, -2, -2, -1, -1, 7, 4, 925, 847, 261,=
2025-03-17 13:56:47.703,711, 599, 385, -3, -2, -1, 0, 5, 7, 930, 858, 260,=
2025-03-17 13:56:47.763,712, 592, 408, -3, -2, -2, 1, 5, 6, 922, 859, 275,=
2025-03-17 13:56:47.815,711, 581, 394, 1, -2, -1, -1, 8, 5, 928, 860, 269,=
2025-03-17 13:56:47.866,697, 586, 416, -1, -1, -1, -1, 8, 4, 928, 867, 258,=
2025-03-17 13:56:47.922,705, 575, 469, 5, -15, -1, -1, 6, 7, 927, 868, 152,=
2025-03-17 13:56:47.973,731, 602, 297, -10, -6, -8, -2, 5, 8, 939, 889, 53,=
2025-03-17 13:56:48.023,630, 936, 311, -4, -6, 28, -1, 7, 8, 954, 928, 246,=
2025-03-17 13:56:48.081,664, 493, 453, 6, 5, 12, -1, 6, 7, 957, 926, 271,=
2025-03-17 13:56:48.133,698, 576, 321, 36, 15, -5, -2, 6, 7, 940, 876, 485,=
2025-03-17 13:56:48.183,679, 674, 505, 14, 11, -18, 0, 7, 4, 918, 757, 333,=
2025-03-17 13:56:48.243,767, 858, 219, -25, -2, 33, 0, 4, 8, 952, 908, 436,=
2025-03-17 13:56:48.299,722, 632, 392, -12, 8, 22, -1, 5, 7, 960, 914, 375,=
2025-03-17 13:56:48.352,788, 461, 327, -7, 25, -29, -1, 7, 4, 933, 825, 548,=
2025-03-17 13:56:48.722,707, 607, 396, -5, -2, -1, 0, 5, 4, 778, 407, 332,≠
2025-03-17 13:56:48.773,701, 603, 394, -6, -1, 0, 2, 6, 4, 778, 420, 338,≠
2025-03-17 13:56:48.831,698, 601, 421, -7, 0, 0, -1, 7, 3, 786, 476, 259,≠
2025-03-17 13:56:48.882,702, 588, 409, -7, -3, -1, 1, 5, 5, 792, 497, 205,≠
2025-03-17 13:56:48.932,678, 581, 447, -6, -6, 1, 1, 5, 5, 811, 580, 196,≠
2025-03-17 13:56:48.983,707, 589, 404, -1, -8, 3, 0, 6, 4, 832, 649, 197,≠
2025-03-17 13:56:49.032,709, 588, 404, -2, -3, 3, 0, 7, 3, 858, 694, 260,≠
2025-03-17 13:56:49.082,683, 566, 442, 1, -4, -1, 0, 7, 4, 873, 729, 271,≠
2025-03-17 13:56:49.143,679, 529, 448, 6, -19, -6, 0, 7, 6, 888, 737, 80,≠
2025-03-17 13:56:49.196,828, 656, 275, 11, -13, -18, 0, 6, 6, 931, 823, 35,≠
2025-03-17 13:56:49.252,476, 613, 269, -77, -10, 60, -1, 7, 7, 956, 912, 111,≠
2025-03-17 13:56:49.302,599, 410, 495, 11, 8, 13, -3, 8, 6, 961, 892, 139,≠
2025-03-17 13:56:49.360,514, 493, 359, 29, 28, -46, -2, 7, 8, 935, 805, 381,≠
2025-03-17 13:56:49.413,974, 711, 497, 12, -27, 3, 0, 4, 9, 938, 778, 40,≠
2025-03-17 13:56:49.466,841, 482, 330, -22, 10, 41, -1, 6, 7, 955, 904, 159,≠
2025-03-17 13:56:49.522,770, 279, 513, -24, 2, 13, -2, 8, 6, 953, 903, 114,≠
2025-03-17 13:56:49.573,541, 572, 559, -2, -25, -31, -2, 7, 4, 930, 871, 494,≠
2025-03-17 13:56:49.631,663, 475, 594, 0, -31, 8, -1, 5, 7, 945, 895, 449,≠
2025-03-17 13:56:49.683,700, 532, 469, 38, 52, 11, -1, 6, 8, 957, 881, 185,≠
2025-03-17 13:56:49.732,1115, 577, -41, -27, 45, 18, -1, 6, 8, 956, 838, 38,≠
2025-03-17 13:56:49.792,921, 441, 538, -37, 18, -33, 1, 7, 3, 921, 778, 249,≠
2025-03-17 13:56:50.092,725, 552, 390, 4, -9, 1, 0, 7, 3, 861, 675, 47,≈
2025-03-17 13:56:50.142,726, 560, 397, 2, -8, 1, 0, 7, 2, 864, 673, 48,≈
2025-03-17 13:56:50.193,726, 559, 397, -4, 0, -4, 0, 7, 4, 868, 667, 23,≈
2025-03-17 13:56:50.248,700, 581, 454, -4, -1, -1, -2, 8, 4, 868, 681, 36,≈
2025-03-17 13:56:50.297,703, 548, 439, 8, -6, -1, 0, 7, 4, 865, 705, 47,≈
2025-03-17 13:56:50.351,746, 581, 383, 1, -1, -4, 0, 9, 4, 848, 718, 27,≈
2025-03-17 13:56:50.399,712, 568, 436, 3, -2, -6, 0, 7, 3, 843, 733, 30,≈
2025-03-17 13:56:50.453,716, 590, 410, 0, -1, -3, 0, 7, 5, 840, 746, 35,≈
2025-03-17 13:56:50.502,711, 585, 433, 0, -2, -4, -1, 7, 5, 846, 750, 36,≈
2025-03-17 13:56:50.553,722, 596, 397, -5, 0, -4, 1, 7, 5, 845, 751, 46,≈
2025-03-17 13:56:50.603,708, 590, 433, 4, -1, -4, 0, 7, 3, 842, 730, 19,≈
2025-03-17 13:56:50.652,697, 601, 413, 7, 2, 2, 0, 7, 6, 847, 701, 37,≈
2025-03-17 13:56:50.707,696, 611, 380, 5, -4, -1, -1, 7, 5, 855, 710, 36,≈
2025-03-17 13:56:50.755,744, 574, 415, 7, -21, -1, 0, 7, 6, 898, 811, 56,≈
2025-03-17 13:56:50.804,859, 640, 378, -6, -14, 3, 0, 6, 4, 928, 894, 192,≈
2025-03-17 13:56:50.863,660, 522, 520, -4, -3, 21, -2, 8, 5, 953, 910, 244,≈
2025-03-17 13:56:50.915,787, 486, 426, 23, 0, 8, 0, 6, 9, 958, 902, 216,≈
2025-03-17 13:56:50.965,636, 462, 351, 10, 43, -34, -1, 9, 5, 946, 825, 150,≈
2025-03-17 13:56:51.022,831, 640, 468, 15, -28, 7, -1, 7, 5, 933, 812, 250,≈
2025-03-17 13:56:51.079,869, 680, 270, -24, -8, 15, 1, 8, 6, 958, 923, 251,≈
2025-03-17 13:56:51.129,669, 414, 373, -3, 0, 16, -1, 7, 4, 961, 920, 38,≈
2025-03-17 13:56:51.183,722, 549, 333, -1, 9, 14, -1, 8, 5, 960, 908, 35,≈
2025-03-17 13:56:51.233,831, 561, 250, -5, 40, -38, 0, 8, 4, 935, 863, 242,≈
2025-03-17 13:56:51.512,695, 582, 446, -9, -7, -12, 1, 7, 3, 888, 758, 186,<
2025-03-17 13:56:51.572,692, 580, 458, -6, -8, -14, 1, 7, 3, 891, 757, 193,<
2025-03-17 13:56:51.629,718, 558, 491, -2, -26, -34, 0, 5, 2, 891, 720, 158,<
2025-03-17 13:56:51.682,681, 646, 386, 1, -6, -23, -1, 4, 4, 881, 634, 198,<
2025-03-17 13:56:51.732,564, 644, 403, 5, -2, 9, 0, 6, 2, 890, 676, 214,<
2025-03-17 13:56:51.782,712, 662, 395, 12, 2, 25, 0, 6, 4, 903, 749, 327,<
2025-03-17 13:56:51.832,715, 600, 375, 2, 11, 13, -1, 5, 6, 916, 792, 346,<
2025-03-17 13:56:51.890,711, 607, 398, -7, 0, 14, -1, 7, 5, 921, 799, 284,<
2025-03-17 13:56:51.943,699, 603, 436, 1, 1, 18, -1, 7, 4, 927, 809, 259,<
2025-03-17 13:56:51.997,707, 554, 430, 5, 0, 15, -1, 6, 4, 932, 808, 237,<
2025-03-17 13:56:52.049,795, 600, 303, -6, -4, 5, -2, 7, 5, 928, 817, 254,<
2025-03-17 13:56:52.102,684, 582, 427, -17, -5, 4, -1, 9, 5, 938, 836, 235,<
2025-03-17 13:56:52.153,682, 526, 488, -10, -18, 8, 0, 8, 5, 952, 876, 33,<
2025-03-17 13:56:52.202,735, 570, 404, -3, -8, -5, -1, 8, 6, 952, 893, 53,<
2025-03-17 13:56:52.264,420, 761, 561, 21, 14, -10, 0, 7, 7, 962, 874, 27,<
2025-03-17 13:56:52.316,763, 615, 298, -16, 17, 15, 0, 8, 6, 957, 874, 38,<
2025-03-17 13:56:52.365,833, 508, 408, -22, 10, 35, -1, 10, 6, 962, 915, 52,<
2025-03-17 13:56:52.423,788, 367, 412, 6, 17, -23, -1, 11, 4, 946, 847, 60,<
2025-03-17 13:56:52.712,714, 555, 440, 2, -7, -1, -1, 7, 4, 914, 791, 176,≤
2025-03-17 13:56:52.764,716, 560, 440, 3, -7, -1, 0, 7, 4, 914, 792, 171,≤
2025-03-17 13:56:52.815,699, 550, 438, 0, -7, 3, -1, 8, 3, 918, 813, 186,≤
2025-03-17 13:56:52.865,698, 533, 442, -1, -5, 1, 0, 8, 4, 921, 826, 197,≤
2025-03-17 13:56:52.922,731, 544, 415, -1, -2, 0, -2, 9, 5, 926, 836, 219,≤
2025-03-17 13:56:52.972,740, 560, 430, -3, -2, 0, -1, 9, 4, 930, 843, 217,≤
2025-03-17 13:56:53.029,717, 545, 447, -2, -1, -1, 0, 7, 7, 930, 845, 181,≤
2025-03-17 13:56:53.082,737, 563, 412, 0, -1, -1, -1, 8, 5, 926, 841, 195,≤
2025-03-17 13:56:53.133,730, 554, 451, -1, -1, 0, -2, 7, 3, 929, 838, 103,≤
2025-03-17 13:56:53.190,730, 559, 422, -4, -1, -1, -1, 7, 5, 931, 841, 148,≤
2025-03-17 13:56:53.243,725, 553, 422, -4, -2, -1, 0, 7, 5, 932, 840, 168,≤
2025-03-17 13:56:53.296,735, 539, 444, -1, -3, 0, 0, 8, 5, 926, 827, 105,≤
2025-03-17 13:56:53.342,738, 532, 407, -6, -3, 2, 0, 9, 4, 931, 836, 91,≤
2025-03-17 13:56:53.398,717, 569, 421, -7, -4, 2, -1, 10, 5, 936, 847, 107,≤
2025-03-17 13:56:53.450,714, 546, 466, -8, -24, -7, 0, 8, 7, 943, 884, 54,≤
2025-03-17 13:56:53.502,668, 485, 421, 22, -3, -14, 0, 7, 7, 959, 902, 24,≤
2025-03-17 13:56:53.562,1281, 733, 345, 17, 24, -3, -2, 9, 6, 951, 852, 52,≤
2025-03-17 13:56:53.612,938, 977, 337, -20, 17, 31, 0, 7, 7, 962, 915, 34,≤
2025-03-17 13:56:53.665,759, 345, 454, 24, 0, 8, 0, 10, 7, 964, 921, 34,≤
2025-03-17 13:56:53.716,670, 449, 315, 46, 44, -16, 0, 8, 4, 950, 798, 121,≤
2025-03-17 13:56:53.765,818, 265, 182, 25, -4, -11, 0, 8, 4, 958, 827, 16,≤
2025-03-17 13:56:53.822,590, 403, 491, -25, -4, 29, -2, 8, 4, 960, 919, 55,≤
2025-03-17 13:56:53.877,788, 382, 390, 6, 12, -7, 0, 11, 3, 952, 867, 44,≤
2025-03-17 13:56:54.176,661, 550, 442, 20, -16, -15, 0, 7, 6, 904, 662, 235,>
2025-03-17 13:56:54.233,686, 554, 456, 25, -18, -15, -1, 7, 5, 906, 660, 242,>
2025-03-17 13:56:54.283,715, 699, 310, 10, -1, -7, -1, 6, 6, 915, 670, 407,>
2025-03-17 13:56:54.340,710, 650, 310, -5, -4, 8, -2, 7, 6, 922, 752, 428,>
2025-03-17 13:56:54.398,677, 570, 466, -18, -1, 14, 0, 6, 6, 932, 795, 316,>
2025-03-17 13:56:54.447,737, 580, 378, -6, -7, 8, -1, 6, 7, 933, 826, 254,>
2025-03-17 13:56:54.497,741, 566, 379, -8, 1, -2, -1, 7, 4, 933, 835, 248,>
2025-03-17 13:56:54.552,692, 600, 411, -9, -1, -1, -3, 7, 4, 941, 844, 221,>
2025-03-17 13:56:54.604,729, 573, 387, -9, -3, -1, -1, 7, 7, 936, 850, 155,>
2025-03-17 13:56:54.664,699, 578, 413, -12, -5, -1, -1, 7, 7, 940, 864, 133,>
2025-03-17 13:56:54.715,701, 573, 532, -41, -20, -8, -2, 8, 5, 949, 894, 35,>
2025-03-17 13:56:54.773,595, 521, 285, -11, -3, 21, 0, 8, 6, 951, 912, 167,>
2025-03-17 13:56:54.823,647, 590, 425, 31, 6, 7, -1, 8, 7, 959, 905, 191,>
2025-03-17 13:56:54.873,988, 592, 193, 11, 24, 6, -1, 7, 6, 956, 894, 53,>
2025-03-17 13:56:54.931,934, 574, 407, -13, 30, -1, 0, 8, 7, 946, 857, 144,>
2025-03-17 13:56:54.983,635, 549, 474, -29, 31, -25, 1, 6, 1, 933, 829, 193,>
2025-03-17 13:56:55.293,729, 565, 407, -6, -2, -2, -1, 8, 4, 912, 758, 32,≥
2025-03-17 13:56:55.346,722, 561, 411, -6, -2, -4, -1, 8, 4, 909, 755, 40,≥
2025-03-17 13:56:55.397,716, 567, 429, -9, -6, -2, -1, 8, 4, 909, 766, 38,≥
2025-03-17 13:56:55.452,722, 569, 422, -9, -8, 0, -2, 7, 5, 918, 800, 89,≥
2025-03-17 13:56:55.503,747, 532, 414, -11, -5, 0, -1, 8, 6, 933, 823, 39,≥
2025-03-17 13:56:55.562,686, 568, 462, -3, -4, -2, -1, 9, 3, 932, 836, 52,≥
2025-03-17 13:56:55.614,758, 536, 414, 0, -13, -3, -1, 8, 4, 938, 854, 48,≥
2025-03-17 13:56:55.663,749, 588, 350, -1, 1, -3, 0, 7, 7, 935, 852, 40,≥
2025-03-17 13:56:55.715,700, 534, 453, -2, -3, -3, -3, 8, 6, 932, 856, 47,≥
2025-03-17 13:56:55.765,757, 621, 466, 10, -16, -1, -1, 8, 5, 940, 865, 47,≥
2025-03-17 13:56:55.823,822, 488, 361, 19, 3, -4, -1, 8, 6, 948, 894, 41,≥
2025-03-17 13:56:55.872,676, 538, 474, -5, -4, 11, -2, 7, 7, 957, 912, 138,≥
2025-03-17 13:56:55.929,594, 584, 369, 35, 14, 8, 0, 7, 8, 955, 900, 133,≥
2025-03-17 13:56:55.983,1065, 440, 224, 2, 34, 13, -1, 8, 7, 952, 856, 40,≥
2025-03-17 13:56:56.034,583, 453, 524, -23, 67, -23, 0, 8, 3, 946, 712, 43,≥
2025-03-17 13:56:56.082,720, 529, 521, 84, -56, 35, 1, 7, 3, 951, 776, 257,≥
2025-03-17 13:56:56.142,824, 572, 340, -22, -6, 24, -1, 8, 5, 962, 908, 37,≥
2025-03-17 13:56:56.200,769, 390, 379, 7, 13, -3, -1, 10, 2, 952, 876, 200,≥
2025-03-17 13:56:56.253,718, 569, 322, -21, 54, -51, 1, 8, 1, 911, 722, 387,≥
2025-03-17 13:56:56.542,710, 570, 432, -3, -11, -6, 1, 7, 2, 866, 677, 328,±
2025-03-17 13:56:56.597,711, 567, 425, -2, -11, -7, 1, 7, 2, 865, 678, 335,±
2025-03-17 13:56:56.647,743, 587, 407, 0, -6, -11, 0, 8, 1, 871, 678, 360,±
2025-03-17 13:56:56.703,678, 548, 446, 5, -9, -26, 0, 6, 3, 874, 633, 319,±
2025-03-17 13:56:56.762,656, 691, 412, 7, -17, -10, -1, 5, 6, 881, 557, 252,±
2025-03-17 13:56:56.813,639, 644, 417, 9, -10, 17, -2, 6, 4, 895, 626, 217,±
2025-03-17 13:56:56.864,772, 601, 305, -3, -1, 13, -2, 7, 4, 911, 667, 257,±
2025-03-17 13:56:56.919,709, 578, 402, -9, 4, 6, -1, 6, 6, 921, 714, 195,±
2025-03-17 13:56:56.964,729, 614, 376, -5, -3, 6, 0, 8, 5, 923, 750, 190,±
2025-03-17 13:56:57.022,711, 576, 389, -3, 0, 2, -1, 7, 6, 921, 769, 202,±
2025-03-17 13:56:57.072,724, 575, 369, -2, -1, 1, -1, 9, 5, 924, 774, 192,±
2025-03-17 13:56:57.129,730, 577, 402, -7, 0, 0, -1, 8, 4, 926, 785, 216,±
2025-03-17 13:56:57.179,704, 583, 390, 0, 0, -1, 0, 6, 6, 922, 788, 199,±
2025-03-17 13:56:57.231,732, 582, 374, -2, 0, -1, -2, 7, 3, 924, 788, 205,±
2025-03-17 13:56:57.283,701, 590, 404, -4, 1, -1, -1, 8, 5, 931, 792, 178,±
2025-03-17 13:56:57.332,722, 567, 378, -1, 0, -1, 0, 8, 6, 926, 790, 187,±
2025-03-17 13:56:57.388,721, 586, 390, -3, -2, 0, 0, 6, 6, 929, 797, 175,±
2025-03-17 13:56:57.440,743, 591, 389, -6, 0, 0, 0, 8, 5, 934, 803, 215,±
2025-03-17 13:56:57.494,715, 575, 418, -4, -2, -1, -2, 7, 7, 929, 809, 208,±
2025-03-17 13:56:57.547,731, 569, 402, -3, 0, -2, 0, 6, 5, 929, 813, 212,±
2025-03-17 13:56:57.599,730, 579, 399, -2, -1, 0, -1, 6, 6, 931, 812, 143,±
2025-03-17 13:56:57.647,729, 580, 398, -3, 2, -1, 1, 8, 5, 930, 814, 126,±
2025-03-17 13:56:57.703,729, 581, 409, 0, -2, -1, -1, 6, 7, 930, 815, 199,±
2025-03-17 13:56:57.752,725, 570, 396, -4, 2, -1, 0, 6, 5, 930, 814, 216,±
2025-03-17 13:56:57.802,716, 576, 418, 3, -1, 2, 0, 9, 6, 928, 815, 203,±
2025-03-17 13:56:57.852,725, 576, 391, -1, 1, 0, -1, 8, 5, 928, 816, 207,±
2025-03-17 13:56:57.912,727, 567, 401, -1, 0, -2, 0, 7, 5, 935, 822, 131,±
2025-03-17 13:56:57.961,716, 587, 387, -2, 1, -2, 0, 7, 5, 929, 807, 159,±
2025-03-17 13:56:58.013,689, 583, 417, -6, -1, -1, 1, 7, 6, 931, 815, 55,±
2025-03-17 13:56:58.064,793, 755, 424, 8, -18, -13, -1, 6, 6, 942, 865, 27,±
2025-03-17 13:56:58.122,725, 288, 261, -10, 2, 37, -2, 7, 8, 956, 911, 149,±
2025-03-17 13:56:58.172,740, 482, 365, 4, 4, -5, -2, 8, 6, 952, 885, 310,±
2025-03-17 13:56:58.230,591, 615, 441, -10, 3, -25, -1, 8, 6, 942, 868, 473,±
2025-03-17 13:56:58.281,669, 860, 268, 22, 5, 9, 0, 7, 7, 955, 892, 366,±
2025-03-17 13:56:58.332,709, 631, 362, -15, 42, 30, 0, 7, 7, 960, 827, 195,±
2025-03-17 13:56:58.389,552, 519, 430, 26, 12, -22, -1, 8, 4, 937, 694, 364,±
2025-03-17 13:56:58.444,880, 752, 366, -2, -7, 3, -3, 6, 7, 955, 870, 258,±
2025-03-17 13:56:58.493,578, 667, 379, -16, 9, 35, 0, 7, 4, 959, 913, 41,±
2025-03-17 13:56:58.547,790, 483, 358, 1, 22, -20, -1, 8, 4, 947, 829, 175,±
2025-03-17 13:56:58.843,709, 558, 469, -8, -9, 0, 1, 6, 4, 859, 622, 33,∓
2025-03-17 13:56:58.899,719, 563, 451, -7, -10, 0, -1, 9, 2, 856, 636, 34,∓
2025-03-17 13:56:58.952,719, 557, 418, -4, -5, 0, 0, 7, 3, 861, 656, 56,∓
2025-03-17 13:56:58.998,703, 541, 438, -4, -7, 1, 0, 7, 4, 869, 687, 51,∓
2025-03-17 13:56:59.052,724, 562, 400, -2, -10, 1, -1, 8, 4, 876, 709, 50,∓
2025-03-17 13:56:59.103,729, 572, 418, -5, -5, -1, -2, 9, 5, 888, 720, 17,∓
2025-03-17 13:56:59.161,717, 549, 439, -8, -1, -3, 1, 7, 6, 887, 738, 56,∓
2025-03-17 13:56:59.213,728, 554, 425, -7, -4, -3, -1, 8, 4, 892, 759, 67,∓
2025-03-17 13:56:59.263,712, 553, 434, -5, -2, -2, -2, 9, 4, 894, 769, 124,∓
2025-03-17 13:56:59.321,740, 579, 434, -2, -3, -2, 1, 7, 6, 895, 775, 141,∓
2025-03-17 13:56:59.369,721, 537, 424, 0, -3, -5, 1, 8, 4, 902, 785, 130,∓
2025-03-17 13:56:59.428,710, 553, 442, -4, -3, -5, -2, 7, 6, 898, 787, 150,∓
2025-03-17 13:56:59.480,709, 535, 430, 0, -3, -8, -2, 8, 5, 902, 790, 137,∓
2025-03-17 13:56:59.530,718, 532, 468, 0, -3, -4, -2, 5, 5, 897, 792, 56,∓
2025-03-17 13:56:59.582,744, 550, 391, 3, -2, -3, 1, 8, 6, 904, 799, 121,∓
2025-03-17 13:56:59.633,714, 571, 442, -3, 2, 2, 0, 7, 5, 912, 803, 125,∓
2025-03-17 13:56:59.683,730, 575, 403, 3, -1, 2, -2, 8, 4, 915, 812, 151,∓
2025-03-17 13:56:59.732,723, 550, 431, 0, 0, 2, 0, 5, 7, 917, 813, 174,∓
2025-03-17 13:56:59.783,720, 572, 417, -2, -1, 2, -2, 8, 4, 915, 809, 236,∓
2025-03-17 13:56:59.839,729, 553, 400, 0, -2, -1, -2, 7, 4, 920, 811, 216,∓
2025-03-17 13:56:59.894,705, 555, 439, -1, 0, 2, -1, 7, 5, 921, 805, 159,∓
2025-03-17 13:56:59.946,734, 568, 388, 0, 0, -1, -3, 8, 5, 923, 803, 228,∓
2025-03-17 13:56:59.996,724, 569, 418, -2, -1, -1, -1, 10, 5, 924, 810, 218,∓
2025-03-17 13:57:00.053,724, 558, 402, -1, 0, -1, 0, 8, 7, 921, 811, 250,∓
2025-03-17 13:57:00.107,723, 541, 424, -1, -1, -1, -2, 8, 6, 926, 814, 225,∓
2025-03-17 13:57:00.161,736, 575, 404, -2, 0, 0, -2, 5, 7, 924, 812, 236,∓
2025-03-17 13:57:00.210,728, 568, 419, -2, 0, -1, -3, 8, 6, 926, 816, 229,∓
2025-03-17 13:57:00.264,726, 552, 404, -3, -1, -3, -2, 8, 6, 922, 820, 233,∓
2025-03-17 13:57:00.314,684, 549, 424, -4, 0, -5, 0, 6, 5, 921, 823, 179,∓
2025-03-17 13:57:00.364,675, 596, 511, 3, -21, -3, 0, 7, 7, 939, 846, 25,∓
2025-03-17 13:57:00.423,897, 308, 262, 28, -3, -6, -1, 8, 6, 954, 911, 33,∓
2025-03-17 13:57:00.472,782, 670, 293, -4, 3, 35, -1, 8, 7, 955, 917, 69,∓
2025-03-17 13:57:00.529,737, 467, 460, 38, -2, -6, -2, 8, 8, 957, 899, 233,∓
2025-03-17 13:57:00.582,639, 511, 381, 38, 47, -31, -3, 8, 5, 932, 826, 450,∓
2025-03-17 13:57:00.633,824, 638, 557, 12, -20, 9, 0, 6, 5, 936, 786, 332,∓
2025-03-17 13:57:00.688,910, 745, 251, -34, 1, 43, -1, 8, 5, 953, 910, 147,∓
2025-03-17 13:57:00.743,711, 463, 455, 1, 6, 13, -2, 10, 5, 956, 902, 128,∓
2025-03-17 13:57:00.795,652, 484, 333, 3, 3, -52, -1, 6, 6, 933, 850, 416,∓
2025-03-17 13:57:00.847,714, 559, 620, 7, -30, 15, 0, 7, 4, 948, 871, 381,∓
2025-03-17 13:57:00.897,689, 753, 170, 0, 36, 32, -2, 9, 6, 956, 869, 149,∓
2025-03-17 13:57:00.953,854, 390, 293, -21, 45, -42, 1, 8, 5, 939, 764, 281,∓
2025-03-17 13:57:01.262,698, 580, 480, 1, -12, 1, 1, 6, 2, 829, 664, 52,∞
2025-03-17 13:57:01.314,704, 593, 485, -1, -13, 2, -1, 7, 0, 829, 667, 54,∞
2025-03-17 13:57:01.364,713, 556, 441, 2, -13, 1, 0, 7, 4, 823, 696, 41,∞
2025-03-17 13:57:01.413,711, 561, 422, 1, -5, 0, 0, 8, 1, 820, 714, 38,∞
2025-03-17 13:57:01.463,706, 563, 442, -1, -1, 0, -1, 7, 4, 831, 734, 48,∞
2025-03-17 13:57:01.523,696, 569, 470, -2, -4, 3, 0, 8, 3, 845, 742, 43,∞
2025-03-17 13:57:01.572,722, 553, 449, 1, -4, 2, 1, 8, 3, 857, 758, 92,∞
2025-03-17 13:57:01.622,729, 556, 435, -1, -2, 4, 1, 9, 3, 870, 775, 149,∞
2025-03-17 13:57:01.677,709, 541, 457, -1, -2, 2, -2, 7, 4, 881, 784, 157,∞
2025-03-17 13:57:01.729,713, 545, 449, 0, -4, 1, -1, 8, 3, 895, 795, 138,∞
2025-03-17 13:57:01.783,686, 547, 447, 4, -1, 0, -1, 10, 4, 893, 789, 152,∞
2025-03-17 13:57:01.833,738, 575, 401, 2, -5, -1, 0, 6, 6, 895, 792, 230,∞
2025-03-17 13:57:01.883,724, 559, 430, -2, 3, 0, -2, 8, 4, 904, 795, 230,∞
2025-03-17 13:57:01.938,710, 562, 432, 4, 0, 2, -2, 8, 3, 904, 794, 263,∞
2025-03-17 13:57:01.988,722, 541, 424, 14, 6, 2, -1, 7, 6, 906, 779, 278,∞
2025-03-17 13:57:02.038,744, 587, 390, 4, 3, -1, -1, 9, 5, 903, 766, 295,∞
2025-03-17 13:57:02.093,739, 567, 403, -6, -4, 0, -2, 7, 5, 911, 787, 322,∞
2025-03-17 13:57:02.146,784, 569, 456, 2, -8, 10, 0, 6, 7, 914, 793, 376,∞
2025-03-17 13:57:02.196,724, 540, 375, 1, -7, 8, -1, 7, 3, 922, 806, 362,∞
2025-03-17 13:57:02.245,677, 538, 472, 3, -7, 7, -1, 7, 6, 939, 826, 250,∞
2025-03-17 13:57:02.303,778, 793, 334, 13, 4, 5, -2, 8, 5, 948, 847, 31,∞
2025-03-17 13:57:02.352,641, 744, 163, -7, 16, -1, -2, 9, 6, 949, 849, 30,∞
2025-03-17 13:57:02.403,749, 520, 534, -2, 5, -27, -2, 10, 5, 936, 869, 35,∞
2025-03-17 13:57:02.462,794, 507, 378, -27, -18, 12, -2, 8, 4, 946, 914, 102,∞
2025-03-17 13:57:02.512,620, 694, 364, -16, -3, 15, -2, 9, 5, 959, 914, 34,∞
2025-03-17 13:57:02.572,664, 368, 541, -7, -9, -3, -1, 8, 7, 954, 913, 34,∞
2025-03-17 13:57:02.627,794, 483, 445, 25, -5, -15, -1, 10, 7, 950, 898, 46,∞
2025-03-17 13:57:02.676,895, 719, 299, 16, 26, 1, 0, 8, 5, 953, 867, 31,∞
2025-03-17 13:57:02.729,818, 606, 235, -6, 27, 8, -1, 8, 4, 945, 787, 26,∞
2025-03-17 13:57:02.786,756, 557, 334, -38, 40, -27, 0, 8, 3, 918, 735, 187,∞
2025-03-17 13:57:03.084,708, 568, 472, 3, -5, -10, 1, 7, 0, 825, 637, 30,∑
2025-03-17 13:57:03.135,679, 580, 479, 2, -5, -8, 1, 7, 0, 826, 639, 22,∑
2025-03-17 13:57:03.187,704, 583, 507, 13, -13, -18, 0, 7, 2, 819, 567, 51,∑
2025-03-17 13:57:03.238,644, 550, 393, 8, -35, -33, -2, 7, 2, 798, 476, 39,∑
2025-03-17 13:57:03.296,674, 690, 433, 0, -18, -19, -1, 6, 5, 807, 467, 200,∑
2025-03-17 13:57:03.346,612, 639, 458, 12, -1, 18, 0, 4, 5, 854, 538, 219,∑
2025-03-17 13:57:03.403,739, 627, 320, 4, 19, 21, -4, 6, 2, 882, 587, 282,∑
2025-03-17 13:57:03.453,690, 623, 434, -5, 6, 17, -2, 6, 3, 909, 682, 272,∑
2025-03-17 13:57:03.502,645, 600, 471, 0, 6, 18, -1, 6, 4, 914, 750, 286,∑
2025-03-17 13:57:03.560,715, 557, 417, 2, -6, 13, -2, 7, 3, 920, 784, 275,∑
2025-03-17 13:57:03.613,755, 582, 335, -2, -4, 6, -1, 7, 5, 924, 809, 286,∑
2025-03-17 13:57:03.663,714, 569, 419, -10, -1, -6, -1, 7, 7, 929, 834, 294,∑
2025-03-17 13:57:03.723,708, 576, 429, -8, -10, -5, -2, 7, 6, 930, 855, 335,∑
2025-03-17 13:57:03.778,742, 539, 416, -1, 2, -3, -1, 7, 5, 932, 859, 288,∑
2025-03-17 13:57:03.830,754, 580, 403, -2, -3, -3, 0, 6, 6, 933, 859, 262,∑
2025-03-17 13:57:03.882,753, 585, 423, -6, -2, 4, -1, 9, 4, 931, 873, 366,∑
2025-03-17 13:57:03.937,698, 572, 429, -1, -2, -4, 0, 7, 3, 937, 876, 345,∑
2025-03-17 13:57:03.987,675, 588, 427, -5, 1, -5, -1, 7, 6, 931, 868, 212,∑
2025-03-17 13:57:04.044,735, 542, 478, 14, -26, 6, -2, 8, 7, 948, 893, 127,∑
2025-03-17 13:57:04.097,708, 731, 230, -30, -9, 43, -2, 7, 7, 955, 924, 141,∑
2025-03-17 13:57:04.145,666, 348, 508, 19, 1, 6, -3, 8, 7, 955, 904, 117,∑
2025-03-17 13:57:04.207,572, 582, 391, 26, 30, -33, -1, 8, 7, 935, 866, 335,∑
2025-03-17 13:57:04.261,1138, 467, 479, -14, -2, -12, 0, 7, 7, 955, 882, 263,∑
2025-03-17 13:57:04.314,663, 963, 250, -26, 21, 36, 0, 5, 8, 955, 924, 139,∑
2025-03-17 13:57:04.362,598, 520, 489, 12, 9, 10, -1, 8, 5, 952, 906, 116,∑
2025-03-17 13:57:04.423,559, 568, 369, 10, 16, -19, -2, 9, 5, 949, 809, 46,∑
2025-03-17 13:57:04.477,982, 837, 433, -41, 6, 42, -1, 8, 3, 961, 909, 44,∑
2025-03-17 13:57:04.527,692, 588, 458, -2, 8, 20, 0, 9, 5, 953, 904, 50,∑
2025-03-17 13:57:04.579,794, 470, 266, 9, 34, -36, -2, 10, 2, 929, 804, 145,∑
2025-03-17 13:57:04.858,706, 549, 441, -10, -9, 0, 0, 7, 3, 889, 716, 34,∏
2025-03-17 13:57:04.908,715, 553, 473, -8, -9, 1, -2, 7, 2, 890, 726, 34,∏
2025-03-17 13:57:04.960,709, 545, 457, 0, -9, 2, -1, 8, 2, 891, 736, 35,∏
2025-03-17 13:57:05.010,730, 561, 405, 1, -6, 2, 0, 8, 1, 895, 750, 26,∏
2025-03-17 13:57:05.059,728, 542, 414, -4, 0, 0, 0, 8, 5, 895, 768, 30,∏
2025-03-17 13:57:05.113,722, 554, 447, -3, -2, 0, -1, 8, 2, 894, 776, 48,∏
2025-03-17 13:57:05.161,723, 534, 435, -4, 0, -1, 0, 9, 5, 898, 781, 52,∏
2025-03-17 13:57:05.212,683, 547, 443, -4, -4, 1, -1, 7, 5, 902, 786, 50,∏
2025-03-17 13:57:05.263,735, 550, 415, -3, -1, -2, -1, 8, 5, 906, 788, 29,∏
2025-03-17 13:57:05.312,728, 538, 436, -2, -1, -1, -1, 10, 5, 908, 792, 48,∏
2025-03-17 13:57:05.366,729, 545, 434, -3, 0, 0, -1, 8, 2, 916, 799, 36,∏
2025-03-17 13:57:05.423,740, 551, 438, -1, -2, -1, -1, 5, 6, 917, 806, 91,∏
2025-03-17 13:57:05.477,729, 535, 430, -3, -4, -6, 0, 8, 4, 911, 813, 163,∏
2025-03-17 13:57:05.528,720, 540, 417, -7, 6, -9, -2, 7, 4, 920, 807, 150,∏
2025-03-17 13:57:05.583,658, 580, 477, 8, -5, -10, 0, 7, 6, 912, 779, 151,∏
2025-03-17 13:57:05.637,762, 583, 509, 28, -32, -7, 0, 7, 4, 926, 839, 145,∏
2025-03-17 13:57:05.694,802, 1118, 256, -29, -17, 48, -1, 8, 5, 954, 921, 151,∏
2025-03-17 13:57:05.745,558, 397, 577, -1, 2, 21, -2, 10, 5, 959, 915, 45,∏
2025-03-17 13:57:05.795,671, 393, 235, 25, 9, -20, -2, 8, 5, 946, 873, 173,∏
2025-03-17 13:57:05.852,735, 646, 488, -2, 11, -38, 0, 8, 4, 931, 818, 363,∏
2025-03-17 13:57:05.911,672, 732, 498, 11, -9, -4, 1, 7, 7, 949, 891, 330,∏
2025-03-17 13:57:05.960,697, 568, 187, 8, 36, 33, -1, 8, 8, 962, 883, 34,∏
2025-03-17 13:57:06.013,821, 562, 435, -4, 20, 13, -1, 9, 4, 944, 848, 219,∏
2025-03-17 13:57:06.062,615, 578, 489, -24, -20, -8, 1, 8, 5, 939, 883, 431,∏
2025-03-17 13:57:06.123,742, 760, 470, -18, -23, 2, 0, 8, 6, 955, 922, 167,∏
2025-03-17 13:57:06.177,820, 496, 498, 10, 32, 31, -2, 7, 7, 961, 915, 24,∏
2025-03-17 13:57:06.228,822, 541, 264, 6, 23, -3, -1, 9, 5, 947, 878, 149,∏
2025-03-17 13:57:06.287,702, 592, 372, -47, 47, -35, 1, 10, 2, 921, 857, 293,∏
2025-03-17 13:57:06.337,538, 538, 693, -24, 10, -7, 0, 10, -1, 902, 847, 231,∏
2025-03-17 13:57:06.396,681, 545, 513, 13, -27, 11, 1, 9, -1, 906, 841, 188,∏
2025-03-17 13:57:06.445,783, 536, 373, 0, -6, 2, 0, 8, 2, 905, 830, 161,∏
2025-03-17 13:57:06.495,708, 516, 467, -6, 5, -8, 0, 9, 3, 891, 799, 147,∏
2025-03-17 13:57:07.423,721, 585, 384, -2, -2, 0, 0, 7, 5, 912, 777, 185,√
2025-03-17 13:57:07.477,724, 575, 382, -3, -1, 0, -2, 8, 6, 911, 781, 178,√
2025-03-17 13:57:07.529,709, 582, 411, -3, 0, 0, -3, 8, 4, 917, 782, 187,√
2025-03-17 13:57:07.582,723, 579, 405, -1, -1, 1, 0, 7, 6, 916, 784, 179,√
2025-03-17 13:57:07.630,722, 577, 404, -3, 1, 0, -1, 9, 5, 916, 786, 181,√
2025-03-17 13:57:07.689,719, 574, 404, -1, -1, -1, -3, 9, 4, 920, 787, 182,√
2025-03-17 13:57:07.743,725, 579, 400, -2, -1, -1, -2, 5, 5, 915, 791, 189,√
2025-03-17 13:57:07.796,729, 575, 412, -1, -1, 0, 0, 7, 6, 921, 791, 188,√
2025-03-17 13:57:07.845,727, 573, 400, -1, 0, -1, -1, 7, 6, 914, 792, 203,√
2025-03-17 13:57:07.902,725, 573, 415, -1, -1, -1, -3, 8, 6, 915, 794, 194,√
2025-03-17 13:57:07.952,721, 563, 404, -1, 0, -1, -2, 6, 5, 917, 792, 228,√
2025-03-17 13:57:08.009,719, 575, 395, -3, 0, -1, -1, 7, 4, 915, 799, 263,√
2025-03-17 13:57:08.052,722, 573, 413, 0, 1, 0, -2, 7, 6, 920, 800, 262,√
2025-03-17 13:57:08.102,715, 574, 409, 8, 2, 2, -1, 7, 4, 917, 789, 281,√
2025-03-17 13:57:08.160,677, 601, 387, 7, 6, -2, 0, 7, 6, 914, 766, 308,√
2025-03-17 13:57:08.212,716, 603, 361, 9, 6, -7, -1, 7, 6, 912, 772, 286,√
2025-03-17 13:57:08.262,755, 608, 400, -6, -1, 3, -1, 8, 5, 929, 817, 178,√
2025-03-17 13:57:08.312,780, 624, 425, -2, 0, 7, -2, 7, 6, 938, 895, 335,√
2025-03-17 13:57:08.362,537, 507, 417, 33, 37, 31, -1, 7, 6, 949, 880, 400,√
2025-03-17 13:57:08.422,708, 626, 242, -23, 19, 23, 0, 8, 5, 948, 852, 40,√
2025-03-17 13:57:08.477,429, 415, 482, 1, -58, -50, -2, 10, 2, 934, 899, 177,√
2025-03-17 13:57:08.532,790, 605, 511, 1, -23, 6, -1, 9, 4, 952, 926, 264,√
2025-03-17 13:57:08.583,671, 392, 354, 3, 12, 13, 0, 6, 6, 946, 917, 267,√
2025-03-17 13:57:08.637,727, 576, 273, -6, 35, -45, 0, 6, 5, 928, 889, 483,√
2025-03-17 13:57:08.905,723, 592, 386, 5, -2, 4, -2, 7, 4, 876, 764, 258,∛
2025-03-17 13:57:08.958,712, 587, 409, 5, -2, 3, -1, 7, 4, 876, 766, 246,∛
2025-03-17 13:57:09.003,736, 614, 406, -9, 0, 4, 0, 8, 4, 873, 751, 165,∛
2025-03-17 13:57:09.061,718, 568, 383, -2, 1, 2, 0, 7, 5, 877, 750, 171,∛
2025-03-17 13:57:09.109,706, 565, 431, 1, 0, 2, 0, 7, 5, 879, 756, 187,∛
2025-03-17 13:57:09.160,716, 572, 400, 2, 0, -2, 3, 7, 5, 883, 763, 217,∛
2025-03-17 13:57:09.213,705, 571, 427, -1, 1, -3, 0, 7, 7, 884, 773, 157,∛
2025-03-17 13:57:09.263,682, 553, 429, -3, -2, -3, 0, 9, 4, 887, 789, 170,∛
2025-03-17 13:57:09.313,744, 639, 311, 1, -7, -9, -1, 6, 6, 919, 836, 35,∛
2025-03-17 13:57:09.365,769, 563, 458, 1, 3, -1, 0, 7, 7, 937, 892, 35,∛
2025-03-17 13:57:09.412,638, 490, 497, -1, 0, 9, -1, 8, 5, 940, 905, 208,∛
2025-03-17 13:57:09.475,522, 550, 324, 31, 29, 27, -1, 8, 4, 950, 866, 245,∛
2025-03-17 13:57:09.528,743, 752, 205, -31, 21, 27, -1, 9, 5, 953, 845, 17,∛
2025-03-17 13:57:09.578,925, 106, 747, -23, -51, -33, 1, 7, 5, 939, 897, 38,∛
2025-03-17 13:57:09.637,895, 643, 611, -20, -38, 4, -1, 8, 6, 953, 930, 20,∛
2025-03-17 13:57:09.687,699, 604, 292, 4, 0, 11, -2, 10, 5, 949, 912, 101,∛
2025-03-17 13:57:09.743,697, 484, 324, -2, 15, -54, -2, 9, 6, 929, 904, 255,∛
2025-03-17 13:57:09.798,702, 768, 686, 5, -34, -19, 0, 6, 7, 925, 891, 540,∛
2025-03-17 13:57:09.853,770, 465, 142, -11, -3, -7, -1, 7, 7, 949, 933, 555,∛
2025-03-17 13:57:09.905,669, 666, 469, -2, 4, 9, -1, 7, 7, 952, 937, 537,∛
2025-03-17 13:57:09.953,688, 495, 386, 7, 4, 1, -1, 6, 7, 956, 933, 487,∛
2025-03-17 13:57:10.011,680, 625, 402, -21, 15, 12, -2, 7, 7, 951, 931, 316,∛
2025-03-17 13:57:10.060,664, 488, 440, 8, 4, 5, 1, 8, 6, 951, 919, 176,∛
2025-03-17 13:57:10.112,951, 521, 235, -18, 31, -17, 1, 7, 6, 935, 892, 331,∛
2025-03-17 13:57:10.175,529, 552, 696, -14, 32, -14, -1, 10, 1, 921, 859, 180,∛
2025-03-17 13:57:10.462,696, 587, 432, 7, 1, 3, 0, 7, 5, 876, 689, 34,∜
2025-03-17 13:57:10.510,705, 588, 436, 6, 2, 3, 0, 5, 4, 870, 686, 66,∜
2025-03-17 13:57:10.560,690, 551, 446, 3, 3, 0, -1, 8, 5, 865, 671, 35,∜
2025-03-17 13:57:10.612,628, 561, 502, 9, -11, 3, 1, 6, 5, 869, 661, 19,∜
2025-03-17 13:57:10.662,728, 564, 378, 1, -18, 4, -2, 8, 5, 906, 773, 29,∜
2025-03-17 13:57:10.711,792, 608, 504, 1, 1, 3, 0, 7, 7, 933, 892, 37,∜
2025-03-17 13:57:10.763,700, 353, 564, 26, 2, 10, -1, 9, 4, 947, 892, 270,∜
2025-03-17 13:57:10.823,566, 754, 301, -11, 38, 31, -1, 9, 5, 958, 869, 15,∜
2025-03-17 13:57:10.866,651, 595, 326, -47, 21, 20, 1, 7, 4, 950, 866, 32,∜
2025-03-17 13:57:10.927,1065, 331, 556, 11, -58, -60, 1, 11, 3, 937, 912, 26,∜
2025-03-17 13:57:10.982,766, 569, 564, 6, -30, -3, -1, 9, 4, 952, 934, 33,∜
2025-03-17 13:57:11.035,769, 594, 302, -2, -1, 22, 0, 9, 5, 956, 927, 35,∜
2025-03-17 13:57:11.086,798, 480, 326, -10, 9, -21, -2, 9, 4, 942, 910, 29,∜
2025-03-17 13:57:11.141,503, 469, 544, -6, 22, -79, -1, 8, 3, 917, 868, 255,∜
2025-03-17 13:57:11.194,622, 596, 481, 5, -55, 18, 0, 6, 5, 933, 892, 498,∜
2025-03-17 13:57:11.244,741, 562, 320, 0, -9, -5, -3, 8, 5, 950, 926, 430,∜
2025-03-17 13:57:11.306,549, 611, 480, 14, 26, 12, -1, 9, 8, 951, 913, 208,∜
2025-03-17 13:57:11.353,830, 593, 223, -5, 6, 1, -1, 7, 9, 958, 902, 36,∜
2025-03-17 13:57:11.408,548, 637, 312, -36, 0, 24, -1, 8, 7, 963, 938, 19,∜
2025-03-17 13:57:11.460,776, 363, 359, -5, 5, -26, -2, 9, 6, 940, 917, 185,∜
2025-03-17 13:57:11.512,613, 693, 707, 16, -15, -1, -1, 7, 6, 932, 903, 471,∜
2025-03-17 13:57:11.565,964, 644, 329, 2, 17, 24, -2, 8, 7, 954, 913, 299,∜
2025-03-17 13:57:11.625,898, 333, 371, -4, 26, -12, -1, 9, 6, 943, 859, 245,∜
2025-03-17 13:57:11.918,553, 735, 532, -7, 5, -109, 1, 2, -4, 589, 28, 323,∫
2025-03-17 13:57:11.976,540, 771, 535, -16, 4, -105, 1, 2, -6, 596, 26, 328,∫
2025-03-17 13:57:12.026,372, 771, 580, -9, 5, -71, 0, -1, -7, 667, 111, 380,∫
2025-03-17 13:57:12.083,255, 872, 629, 26, 8, -1, 2, -2, -7, 723, 303, 477,∫
2025-03-17 13:57:12.141,234, 689, 519, 31, 15, 56, 2, -2, -5, 752, 441, 509,∫
2025-03-17 13:57:12.192,381, 621, 452, 9, 11, 140, 1, -2, -3, 746, 510, 395,∫
2025-03-17 13:57:12.247,672, 631, 321, 27, -8, 48, 0, 2, -3, 688, 449, 331,∫
2025-03-17 13:57:12.294,673, 717, 511, 1, -5, 51, -1, 5, 0, 694, 314, 24,∫
2025-03-17 13:57:12.353,642, 629, 444, -3, 5, 17, 0, 3, 1, 748, 366, 38,∫
2025-03-17 13:57:12.403,589, 630, 489, 5, 0, 19, 1, 6, 3, 783, 278, 77,∫
2025-03-17 13:57:12.453,601, 602, 334, -11, 2, 21, 3, 5, -1, 793, 400, 150,∫
2025-03-17 13:57:12.510,1002, 754, 812, 42, -36, 16, 3, 6, 3, 817, 509, 130,∫
2025-03-17 13:57:12.563,553, 358, 359, -8, 0, 11, 0, 7, 3, 847, 560, 122,∫
2025-03-17 13:57:12.613,733, 655, 383, -17, -13, 9, 1, 8, 5, 868, 617, 301,∫
2025-03-17 13:57:12.662,659, 608, 506, -4, -9, 8, 0, 8, 5, 888, 639, 258,∫
2025-03-17 13:57:12.723,751, 569, 415, 0, -15, 14, 0, 8, 5, 901, 708, 322,∫
2025-03-17 13:57:12.776,692, 533, 394, -14, -4, 7, 1, 8, 7, 915, 727, 180,∫
2025-03-17 13:57:12.826,456, 611, 633, 6, -36, 9, -1, 9, 6, 920, 787, 170,∫
2025-03-17 13:57:12.882,731, 689, 383, -4, 1, -5, -1, 10, 6, 930, 816, 35,∫
2025-03-17 13:57:12.936,927, 522, 402, 29, 7, -8, -2, 10, 7, 943, 820, 39,∫
2025-03-17 13:57:12.986,520, 640, 396, 11, 27, 17, -1, 7, 7, 951, 821, 40,∫
2025-03-17 13:57:13.035,767, 653, 311, -1, 24, 9, 1, 10, 6, 930, 747, 32,∫
2025-03-17 13:57:13.093,870, 496, 273, -36, 51, -36, 0, 9, 5, 840, 586, 344,∫
2025-03-17 13:57:13.372,512, 599, 291, -24, 2, 16, -1, 7, 5, 807, 448, 32,∮
2025-03-17 13:57:13.426,523, 567, 318, -21, 3, 21, -1, 8, 4, 813, 458, 20,∮
2025-03-17 13:57:13.482,696, 450, 442, -3, -11, 36, 0, 7, 6, 826, 557, 80,∮
2025-03-17 13:57:13.533,841, 585, 458, -8, 5, 5, 0, 8, 4, 858, 621, 269,∮
2025-03-17 13:57:13.591,575, 544, 585, -2, -25, 20, -2, 10, 5, 895, 711, 268,∮
2025-03-17 13:57:13.642,675, 489, 505, -3, -26, 10, -1, 11, 5, 919, 806, 228,∮
2025-03-17 13:57:13.693,771, 534, 226, 49, 23, -5, -1, 10, 6, 944, 801, 101,∮
2025-03-17 13:57:13.753,764, 384, 416, -20, 30, 37, 0, 10, 6, 954, 811, 37,∮
2025-03-17 13:57:13.812,645, 452, 493, 39, -48, -65, 1, 9, 6, 926, 834, 463,∮
2025-03-17 13:57:13.862,804, 483, 520, 10, -16, 1, 0, 8, 8, 949, 879, 509,∮
2025-03-17 13:57:13.919,1114, 814, 374, -1, 35, 40, -1, 11, 5, 957, 875, 31,∮
2025-03-17 13:57:13.976,832, 412, 184, -34, 28, 13, -1, 11, 5, 947, 806, 30,∮
2025-03-17 13:57:14.026,672, 549, 431, -43, -7, -41, 0, 10, 4, 915, 825, 51,∮
2025-03-17 13:57:14.085,489, 632, 611, -17, -33, -9, 0, 10, 4, 924, 889, 139,∮
2025-03-17 13:57:14.135,844, 632, 396, 32, -8, 2, 0, 11, 8, 947, 912, 206,∮
2025-03-17 13:57:14.193,633, 690, 450, 11, 45, 57, 0, 10, 8, 960, 913, 34,∮
2025-03-17 13:57:14.243,716, 470, 219, -12, 27, 9, 1, 13, 6, 945, 808, 40,∮
2025-03-17 13:57:14.294,1002, 470, 188, 7, 57, -67, 2, 13, 1, 843, 627, 129,∮
2025-03-17 13:57:14.357,503, 552, 778, -40, 78, -44, 4, 10, -2, 688, 605, 132,∮
2025-03-17 13:57:14.652,497, 630, 696, 19, -28, -15, 5, 7, -7, 187, 122, 102,∂
2025-03-17 13:57:14.709,480, 598, 663, 17, -34, -11, 5, 7, -7, 183, 147, 155,∂
2025-03-17 13:57:14.763,438, 540, 557, 48, -65, 15, 3, 6, -4, 125, 201, 282,∂
2025-03-17 13:57:14.813,639, 624, 328, 25, -26, 18, -1, 5, -1, 43, 108, 335,∂
2025-03-17 13:57:14.864,686, 707, 478, 19, -2, -9, 1, 5, 3, 38, 32, 229,∂
2025-03-17 13:57:14.922,599, 631, 401, -4, 8, -9, 1, 5, 2, 108, 26, 186,∂
2025-03-17 13:57:14.975,524, 644, 457, -10, -1, 10, 2, 7, -1, 254, 37, 192,∂
2025-03-17 13:57:15.025,839, 746, 538, 4, -14, 8, 2, 6, 1, 401, 64, 234,∂
2025-03-17 13:57:15.076,584, 531, 454, -14, 2, 8, 3, 6, 4, 543, 96, 235,∂
2025-03-17 13:57:15.126,650, 686, 457, -21, -6, 12, 1, 7, 2, 674, 201, 254,∂
2025-03-17 13:57:15.183,627, 603, 528, -6, -13, 12, 1, 8, 1, 766, 418, 227,∂
2025-03-17 13:57:15.236,670, 556, 446, -3, -15, 11, -1, 8, 2, 818, 580, 260,∂
2025-03-17 13:57:15.291,758, 573, 411, -9, -7, 11, 1, 8, 6, 857, 660, 282,∂
2025-03-17 13:57:15.342,695, 571, 468, -11, 7, 1, 1, 10, 5, 877, 689, 286,∂
2025-03-17 13:57:15.392,648, 566, 497, -3, 1, 8, -1, 11, 1, 892, 705, 306,∂
2025-03-17 13:57:15.452,698, 548, 438, -6, -3, -1, -1, 11, 2, 901, 727, 306,∂
2025-03-17 13:57:15.508,571, 571, 541, -5, -9, -11, 1, 10, 5, 894, 756, 228,∂
2025-03-17 13:57:15.560,791, 539, 431, 21, -47, 5, 0, 10, 7, 907, 849, 353,∂
2025-03-17 13:57:15.613,790, 795, 206, -9, 0, 36, -2, 8, 8, 941, 895, 541,∂
2025-03-17 13:57:15.663,749, 707, 529, 13, 34, 29, 0, 8, 7, 948, 869, 280,∂
2025-03-17 13:57:15.724,818, 532, 216, -14, 14, -6, -1, 12, 5, 922, 819, 58,∂
2025-03-17 13:57:15.776,855, 598, 714, -22, -29, -5, 0, 9, 6, 938, 914, 138,∂
2025-03-17 13:57:15.825,752, 794, 202, -7, 8, 11, -1, 10, 8, 946, 912, 340,∂
2025-03-17 13:57:15.883,686, 561, 415, -21, 67, -39, 1, 9, 5, 913, 853, 358,∂
2025-03-17 13:57:16.162,659, 622, 519, -3, -1, 3, 1, 9, 2, 667, 413, 45,∇
2025-03-17 13:57:16.212,652, 611, 523, -4, -3, 4, 0, 11, 1, 672, 417, 35,∇
2025-03-17 13:57:16.263,663, 549, 505, 1, -6, 3, 2, 8, 2, 681, 454, 52,∇
2025-03-17 13:57:16.314,681, 565, 471, 1, -5, 2, 0, 9, 2, 689, 518, 32,∇
2025-03-17 13:57:16.362,675, 580, 500, 1, -2, 2, 2, 9, 5, 661, 530, 136,∇
2025-03-17 13:57:16.415,665, 557, 498, 0, -3, 1, 1, 10, 1, 624, 544, 150,∇
2025-03-17 13:57:16.463,682, 568, 486, -5, -2, 1, 0, 9, 2, 632, 541, 120,∇
2025-03-17 13:57:16.515,676, 552, 510, -4, -3, 1, 1, 8, 5, 654, 545, 27,∇
2025-03-17 13:57:16.573,689, 574, 477, -3, -4, 2, 1, 12, 2, 679, 568, 33,∇
2025-03-17 13:57:16.616,689, 556, 492, -3, -4, 2, 1, 11, 3, 709, 601, 26,∇
2025-03-17 13:57:16.675,694, 563, 476, -1, -4, 2, 1, 10, 5, 720, 628, 47,∇
2025-03-17 13:57:16.726,695, 545, 489, -1, -4, 3, 1, 9, 4, 741, 656, 117,∇
2025-03-17 13:57:16.776,701, 561, 464, -2, -2, 0, 0, 11, 4, 758, 668, 139,∇
2025-03-17 13:57:16.835,698, 533, 497, -3, -3, -4, -1, 9, 5, 769, 689, 144,∇
2025-03-17 13:57:16.885,707, 538, 482, -3, -2, 1, 1, 8, 5, 793, 717, 152,∇
2025-03-17 13:57:16.936,698, 556, 466, 0, -2, -1, 1, 9, 5, 803, 727, 167,∇
2025-03-17 13:57:16.990,642, 550, 500, 2, 1, -5, 1, 9, 3, 817, 739, 162,∇
2025-03-17 13:57:17.043,612, 522, 524, 11, -17, -4, 0, 10, 7, 823, 747, 172,∇
2025-03-17 13:57:17.092,888, 464, 394, 38, -34, 0, 0, 8, 7, 914, 850, 162,∇
2025-03-17 13:57:17.142,608, 379, 345, -38, 5, 43, -2, 9, 7, 942, 886, 343,∇
2025-03-17 13:57:17.203,493, 624, 456, 55, 6, 16, -1, 9, 8, 954, 868, 304,∇
2025-03-17 13:57:17.257,870, 658, 187, -13, 33, 12, 0, 9, 7, 947, 810, 44,∇
2025-03-17 13:57:17.312,738, 321, 645, -44, 8, -80, 0, 10, 6, 908, 725, 133,∇
2025-03-17 13:57:17.363,603, 682, 651, 8, -42, 11, 1, 8, 6, 906, 850, 468,∇
2025-03-17 13:57:17.419,552, 854, -4, -28, 12, 58, 0, 11, 5, 959, 913, 188,∇
2025-03-17 13:57:17.473,743, 510, 471, -6, 20, 24, -1, 9, 4, 948, 858, 53,∇
2025-03-17 13:57:17.525,741, 474, 324, -2, 40, -57, 1, 12, 7, 905, 730, 231,∇
2025-03-17 13:57:17.827,674, 554, 519, -1, -11, 5, 1, 8, 5, 667, 524, 26,∆
2025-03-17 13:57:17.883,684, 550, 507, -1, -11, 4, 1, 8, 5, 672, 527, 31,∆
2025-03-17 13:57:17.933,719, 535, 459, -2, -6, 5, 0, 11, 3, 688, 563, 30,∆
2025-03-17 13:57:17.986,696, 561, 489, -11, 5, 1, 1, 10, 3, 693, 583, 25,∆
2025-03-17 13:57:18.040,671, 520, 527, -4, -1, 0, -1, 10, 4, 702, 609, 52,∆
2025-03-17 13:57:18.092,690, 542, 490, -1, -4, 0, 1, 11, 2, 702, 620, 27,∆
2025-03-17 13:57:18.141,690, 536, 509, -3, -2, -1, 1, 12, 5, 711, 621, 25,∆
2025-03-17 13:57:18.192,690, 547, 493, -5, -2, 1, 1, 12, 4, 728, 595, 34,∆
2025-03-17 13:57:18.243,708, 536, 499, -5, -2, 2, 1, 10, 4, 753, 592, 36,∆
2025-03-17 13:57:18.293,693, 520, 512, -2, -2, -1, 1, 10, 5, 779, 630, 36,∆
2025-03-17 13:57:18.350,705, 536, 507, -3, -3, 1, 0, 12, 2, 797, 653, 28,∆
2025-03-17 13:57:18.402,698, 525, 501, 0, -4, -1, 1, 10, 4, 806, 685, 32,∆
2025-03-17 13:57:18.457,707, 538, 487, -3, -3, -3, -1, 8, 6, 814, 699, 40,∆
2025-03-17 13:57:18.510,698, 518, 502, -2, -2, -4, 0, 11, 3, 816, 675, 31,∆
2025-03-17 13:57:18.562,734, 531, 458, -6, -4, -5, 1, 11, 5, 826, 717, 36,∆
2025-03-17 13:57:18.612,678, 564, 525, -6, -11, -3, -1, 11, 5, 837, 741, 32,∆
2025-03-17 13:57:18.674,680, 534, 546, -5, -24, 11, 0, 11, 5, 892, 819, 27,∆
2025-03-17 13:57:18.725,818, 197, 403, -14, -19, -15, -1, 10, 7, 923, 849, 50,∆
2025-03-17 13:57:18.775,398, 807, 620, 8, 37, 15, 0, 10, 6, 938, 781, 43,∆
2025-03-17 13:57:18.832,996, 571, 250, -10, 31, 5, 1, 12, 7, 899, 735, 52,∆
2025-03-17 13:57:18.891,490, 612, 625, -29, -15, -21, 0, 10, 6, 899, 834, 204,∆
2025-03-17 13:57:18.944,741, 307, 342, 30, -16, -5, -1, 9, 7, 937, 898, 210,∆
2025-03-17 13:57:18.993,823, 601, 523, -14, 24, 44, -3, 9, 7, 951, 881, 47,∆
2025-03-17 13:57:19.053,688, 486, 362, -2, 15, 19, -1, 11, 7, 953, 868, 25,∆
2025-03-17 13:57:19.108,433, 408, 556, 34, 14, -38, -1, 11, 5, 921, 805, 40,∆
2025-03-17 13:57:19.162,1003, 608, 262, 3, 25, -9, 0, 10, 5, 896, 727, 113,∆
2025-03-17 13:57:19.213,642, 529, 441, -45, 75, -32, 2, 12, 4, 855, 594, 51,∆
2025-03-17 13:57:19.275,502, 563, 710, -27, 13, -9, 4, 12, -2, 781, 443, 54,∆
2025-03-17 13:57:19.573,664, 547, 530, -5, -3, 2, 2, 10, -1, 474, 31, 43,π
2025-03-17 13:57:19.625,661, 529, 538, -3, -3, 1, 1, 12, 1, 470, 16, 9,π
2025-03-17 13:57:19.674,653, 547, 535, 3, -5, 0, 2, 10, 2, 469, 57, 36,π
2025-03-17 13:57:19.726,683, 548, 499, -3, 0, -1, 2, 12, 1, 459, 45, 35,π
2025-03-17 13:57:19.776,656, 534, 565, -3, 0, -1, 2, 10, 1, 436, 32, 26,π
2025-03-17 13:57:19.825,662, 540, 532, 0, -4, 0, 1, 11, 0, 435, 48, 32,π
2025-03-17 13:57:19.876,658, 530, 547, -4, -6, 1, 1, 10, 3, 431, 30, 21,π
2025-03-17 13:57:19.927,678, 545, 512, -3, -8, 2, 1, 13, 2, 425, 28, 28,π
2025-03-17 13:57:19.976,701, 526, 503, -3, -3, -2, 2, 9, 2, 435, 110, 33,π
2025-03-17 13:57:20.033,668, 539, 536, -5, -1, -3, 1, 12, 1, 502, 174, 15,π
2025-03-17 13:57:20.086,668, 524, 529, -4, -6, -2, 1, 12, 1, 624, 465, 48,π
2025-03-17 13:57:20.136,672, 544, 511, 0, -7, 1, 1, 10, 4, 694, 565, 44,π
2025-03-17 13:57:20.189,699, 534, 517, 0, -7, 1, 0, 11, 4, 754, 622, 29,π
2025-03-17 13:57:20.239,678, 555, 501, -2, -5, -1, 0, 10, 2, 790, 679, 31,π
2025-03-17 13:57:20.292,684, 530, 526, 4, -10, 0, 1, 11, 3, 808, 707, 52,π
2025-03-17 13:57:20.344,712, 550, 454, -2, -4, 0, 2, 10, 5, 822, 728, 22,π
2025-03-17 13:57:20.393,692, 526, 509, -3, -2, -3, 0, 8, 4, 831, 742, 34,π
2025-03-17 13:57:20.443,682, 529, 513, 2, -4, -3, 1, 12, 3, 836, 754, 49,π
2025-03-17 13:57:20.501,692, 538, 487, 3, -2, -5, 1, 9, 5, 837, 758, 152,π
2025-03-17 13:57:20.553,681, 549, 514, -1, -8, -5, 1, 8, 5, 847, 747, 24,π
2025-03-17 13:57:20.602,664, 538, 481, -2, -12, 2, 0, 12, 4, 864, 761, 38,π
2025-03-17 13:57:20.656,597, 531, 474, 5, -24, 1, 1, 10, 9, 900, 813, 36,π
2025-03-17 13:57:20.709,895, 824, 479, 6, -15, 23, 0, 9, 9, 954, 899, 31,π
2025-03-17 13:57:20.762,618, 642, 497, -9, -1, 19, -1, 11, 5, 952, 905, 163,π
2025-03-17 13:57:20.812,638, 533, 414, 19, 9, -42, -3, 9, 7, 922, 864, 343,π
2025-03-17 13:57:20.873,681, 605, 611, 10, -14, 14, -1, 10, 6, 924, 875, 463,π
2025-03-17 13:57:20.925,666, 436, 340, 7, 15, 11, 0, 10, 8, 953, 897, 240,π
2025-03-17 13:57:20.974,726, 439, 456, -20, 24, 21, 0, 9, 8, 945, 834, 52,π
2025-03-17 13:57:21.033,996, 277, 511, 2, 6, -20, 0, 10, 7, 908, 788, 37,π
2025-03-17 13:57:21.084,633, 433, 616, -49, -11, -6, 0, 12, 3, 920, 855, 46,π
2025-03-17 13:57:21.140,638, 521, 598, 2, -24, 11, -1, 12, 4, 941, 888, 34,π
2025-03-17 13:57:21.193,712, 586, 397, 24, 13, 14, -1, 12, 6, 949, 871, 50,π
2025-03-17 13:57:21.242,840, 725, 331, 9, 16, 35, 0, 10, 7, 958, 870, 35,π
2025-03-17 13:57:21.292,631, 489, 650, -12, -1, 14, 0, 13, 4, 949, 896, 39,π
2025-03-17 13:57:21.357,851, 402, 291, 6, 41, -25, -2, 12, 6, 926, 841, 108,π
2025-03-17 13:57:21.408,627, 525, 669, -24, 52, -22, 1, 12, 1, 893, 716, 39,π
2025-03-17 13:57:21.463,545, 488, 703, 4, 3, -9, 3, 13, -2, 848, 538, 42,π
2025-03-17 13:57:21.668,677, 496, 590, 0, -5, 2, 1, 12, 0, 791, 474, 49,θ
2025-03-17 13:57:21.712,680, 511, 573, 1, -6, 1, 2, 10, 2, 792, 472, 23,θ
2025-03-17 13:57:21.765,696, 509, 524, -2, -4, 2, 1, 10, 2, 794, 473, 51,θ
2025-03-17 13:57:21.823,686, 510, 544, -3, 0, 0, 0, 11, 1, 790, 489, 34,θ
2025-03-17 13:57:21.873,677, 520, 555, 1, -5, 2, 0, 11, 3, 788, 540, 42,θ
2025-03-17 13:57:21.925,688, 498, 529, 3, -8, 1, 0, 11, 0, 770, 574, 49,θ
2025-03-17 13:57:21.975,713, 513, 502, -1, -1, 2, 2, 10, 3, 757, 573, 50,θ
2025-03-17 13:57:22.024,702, 510, 522, 0, 1, -1, -1, 13, 1, 746, 553, 35,θ
2025-03-17 13:57:22.075,705, 502, 525, -1, -2, -3, 3, 13, 1, 730, 585, 35,θ
2025-03-17 13:57:22.133,684, 513, 521, 3, -6, -4, 1, 10, 4, 741, 641, 52,θ
2025-03-17 13:57:22.189,690, 511, 542, -1, -5, -9, -1, 11, 2, 775, 693, 32,θ
2025-03-17 13:57:22.241,663, 526, 508, 9, -10, -6, 1, 10, 3, 805, 738, 54,θ
2025-03-17 13:57:22.291,734, 561, 491, 1, -9, 0, 0, 10, 5, 830, 773, 123,θ
2025-03-17 13:57:22.342,708, 523, 483, -1, -1, 3, 2, 12, 5, 870, 805, 104,θ
2025-03-17 13:57:22.393,697, 531, 496, -3, -4, 3, -1, 11, 4, 888, 814, 158,θ
2025-03-17 13:57:22.454,707, 519, 508, -2, -3, -1, -1, 10, 6, 890, 820, 148,θ
2025-03-17 13:57:22.507,710, 542, 484, -1, -2, 1, -2, 13, 2, 891, 820, 178,θ
2025-03-17 13:57:22.557,715, 510, 495, -2, -3, 0, 0, 12, 3, 898, 828, 160,θ
2025-03-17 13:57:22.613,666, 514, 509, -5, -9, 3, 0, 10, 7, 905, 840, 165,θ
2025-03-17 13:57:22.663,733, 495, 495, 1, -20, -1, 1, 10, 5, 920, 873, 37,θ
2025-03-17 13:57:22.713,723, 617, 436, -10, -5, -6, -1, 12, 6, 925, 890, 32,θ
2025-03-17 13:57:22.775,589, 407, 623, 60, 2, -15, -1, 10, 7, 951, 897, 28,θ
2025-03-17 13:57:22.824,836, 751, 306, -6, 41, 47, 1, 11, 7, 958, 889, 38,θ
2025-03-17 13:57:22.879,748, 292, 705, -20, 3, -1, 0, 11, 5, 949, 879, 38,θ
2025-03-17 13:57:22.934,649, 617, 544, 8, -25, -39, 0, 10, 4, 913, 897, 512,θ
2025-03-17 13:57:22.991,902, 591, 525, -10, -13, -5, 0, 8, 7, 945, 928, 461,θ
2025-03-17 13:57:23.042,498, 703, 350, 8, 23, 41, -2, 12, 5, 960, 923, 42,θ
2025-03-17 13:57:23.093,895, 330, 209, -29, 25, 20, -1, 11, 4, 956, 864, 28,θ
2025-03-17 13:57:23.155,804, 436, 604, 21, -6, -55, 0, 11, 6, 918, 794, 53,θ
2025-03-17 13:57:23.207,861, 505, 468, 21, -17, -10, 0, 11, 6, 948, 908, 48,θ
2025-03-17 13:57:23.262,592, 416, 363, -15, 12, 26, 0, 12, 6, 960, 922, 30,θ
2025-03-17 13:57:23.312,805, 375, 316, 10, 37, -30, 0, 10, 4, 932, 851, 163,θ
2025-03-17 13:57:23.595,659, 564, 561, -11, -10, 4, 2, 10, 2, 801, 610, 19,λ
2025-03-17 13:57:23.643,667, 533, 549, -7, -13, 5, 0, 10, 4, 807, 621, 29,λ
2025-03-17 13:57:23.703,682, 511, 484, 3, -17, 3, 0, 11, 5, 831, 651, 34,λ
2025-03-17 13:57:23.757,737, 528, 454, 2, -8, -1, 1, 11, 5, 819, 643, 40,λ
2025-03-17 13:57:23.806,723, 575, 455, 0, -4, -3, 0, 9, 6, 830, 634, 34,λ
2025-03-17 13:57:23.858,716, 495, 478, -1, 1, -1, 0, 10, 5, 844, 639, 26,λ
2025-03-17 13:57:23.913,714, 540, 475, -1, -2, 1, -1, 10, 5, 853, 668, 26,λ
2025-03-17 13:57:23.958,727, 543, 484, -2, -2, 2, 0, 11, 6, 865, 693, 37,λ
2025-03-17 13:57:24.013,711, 544, 477, -4, -1, 1, 0, 10, 6, 870, 706, 31,λ
2025-03-17 13:57:24.063,725, 525, 480, -5, -4, 0, -1, 9, 7, 873, 722, 38,λ
2025-03-17 13:57:24.113,737, 526, 461, -7, -2, 0, -1, 12, 5, 878, 739, 51,λ
2025-03-17 13:57:24.163,711, 539, 463, -4, -1, 0, 1, 11, 7, 889, 738, 24,λ
2025-03-17 13:57:24.223,725, 531, 464, -5, -1, 0, -1, 10, 8, 895, 748, 41,λ
2025-03-17 13:57:24.274,702, 526, 466, 2, -1, 0, -1, 12, 5, 903, 757, 35,λ
2025-03-17 13:57:24.325,671, 514, 464, 7, 3, -6, 0, 10, 7, 904, 727, 36,λ
2025-03-17 13:57:24.376,657, 512, 456, 12, -7, -8, 0, 11, 5, 906, 777, 16,λ
2025-03-17 13:57:24.433,784, 611, 466, -7, -14, -13, -2, 8, 7, 928, 870, 53,λ
2025-03-17 13:57:24.490,653, 431, 425, -3, -9, 22, -2, 8, 7, 955, 917, 17,λ
2025-03-17 13:57:24.543,729, 651, 515, 12, 22, 26, 0, 11, 7, 954, 897, 51,λ
