Timestamp,Acc_X,Acc_Y,Acc_Z,Gyro_X,Gyro_Y,Gyro_Z,Mag_X,Mag_Y,Mag_Z,Force1,Force2,Force3,Letter
2025-03-10 14:24:38.907,575, 627, 542, 0, 0, 0, 1, -2, -2, 883, 740, 489,noise
2025-03-10 14:24:38.962,577, 632, 543, -1, 0, 0, 0, -1, -2, 880, 737, 476,noise
2025-03-10 14:24:39.013,575, 633, 550, -1, 0, 0, 1, -1, -1, 879, 733, 470,noise
2025-03-10 14:24:39.065,576, 627, 543, -1, 0, -1, 0, -1, -2, 888, 745, 502,noise
2025-03-10 14:24:39.122,576, 631, 539, -1, 0, -1, -1, 1, -5, 884, 738, 483,noise
2025-03-10 14:24:39.172,572, 632, 543, -1, 0, 0, 1, 0, -2, 887, 747, 500,noise
2025-03-10 14:24:39.228,573, 636, 540, -1, 0, 0, 1, 0, -3, 887, 745, 486,noise
2025-03-10 14:24:39.281,578, 629, 540, -1, 0, 0, 4, -3, -2, 881, 732, 479,noise
2025-03-10 14:24:39.334,579, 630, 543, -2, 0, 0, 1, -1, -2, 888, 747, 504,noise
2025-03-10 14:24:39.386,581, 636, 541, -1, 0, 0, 1, 0, -2, 883, 731, 481,noise
2025-03-10 14:24:39.441,576, 637, 541, -1, 0, 0, 1, -1, -4, 888, 744, 503,noise
2025-03-10 14:24:39.490,582, 631, 542, -1, 0, 0, 0, -2, -1, 888, 738, 490,noise
2025-03-10 14:24:39.541,578, 632, 546, -1, 0, 0, 1, 0, -4, 885, 737, 490,noise
2025-03-10 14:24:39.597,580, 635, 539, -1, 0, 0, 1, -3, -1, 888, 740, 493,noise
2025-03-10 14:24:39.649,587, 645, 550, 0, 0, 0, 0, 0, -2, 887, 741, 476,noise
2025-03-10 14:24:39.698,587, 627, 538, 0, 0, -2, 0, -1, -1, 884, 733, 429,noise
2025-03-10 14:24:39.751,574, 647, 541, 0, 1, -3, 1, -1, -1, 890, 741, 419,noise
2025-03-10 14:24:39.806,577, 630, 538, 1, -1, -5, 1, 0, -2, 891, 748, 368,noise
2025-03-10 14:24:39.857,597, 633, 517, -4, 0, -9, 1, 0, -1, 884, 735, 340,noise
2025-03-10 14:24:39.914,598, 643, 560, -3, 1, -14, 0, -2, -2, 880, 743, 382,noise
2025-03-10 14:24:39.964,555, 639, 547, -6, 6, -19, 0, -1, -3, 861, 732, 382,noise
2025-03-10 14:24:40.027,486, 630, 567, -1, -5, -26, -1, -1, -4, 865, 739, 497,noise
2025-03-10 14:24:40.084,554, 744, 434, 1, -2, -23, -1, -3, -2, 876, 768, 644,noise
2025-03-10 14:24:40.141,496, 693, 533, 1, -2, -12, -1, -3, -2, 880, 762, 632,noise
2025-03-10 14:24:40.193,468, 664, 538, -1, 5, -2, -1, -1, -4, 857, 712, 524,noise
2025-03-10 14:24:40.247,519, 754, 586, 4, -3, 2, -1, -2, -1, 861, 690, 517,noise
2025-03-10 14:24:40.301,540, 706, 511, 4, -2, 2, -2, -2, -2, 865, 690, 449,noise
2025-03-10 14:24:40.355,515, 692, 520, 1, 2, 1, -1, -4, -2, 860, 663, 402,noise
2025-03-10 14:24:40.401,499, 686, 521, 0, 0, 4, -2, -3, -1, 853, 640, 380,noise
2025-03-10 14:24:40.461,526, 683, 523, -1, -1, 2, 1, -3, -2, 858, 662, 404,noise
2025-03-10 14:24:40.518,529, 674, 519, -1, -2, 0, -2, -4, 0, 859, 661, 396,noise
2025-03-10 14:24:40.571,523, 690, 522, -2, -3, 2, -1, -2, -2, 861, 664, 402,noise
2025-03-10 14:24:40.625,529, 690, 513, -1, -2, 5, 2, -2, 0, 855, 654, 386,noise
2025-03-10 14:24:40.679,545, 682, 513, -1, -1, 2, -1, -2, -1, 857, 658, 393,noise
2025-03-10 14:24:40.731,534, 686, 523, -1, 0, 2, -1, 0, -1, 857, 650, 391,noise
2025-03-10 14:24:40.786,541, 691, 517, 0, -1, 1, -2, -1, -2, 853, 644, 376,noise
2025-03-10 14:24:40.841,541, 680, 517, -1, 0, -1, -1, -1, 0, 852, 646, 381,noise
2025-03-10 14:24:40.893,538, 688, 519, -1, -1, 1, -1, -2, 0, 850, 647, 376,noise
2025-03-10 14:24:40.952,537, 682, 504, -1, -1, -1, -2, -2, -1, 842, 650, 377,noise
2025-03-10 14:24:41.004,533, 687, 513, -1, 0, -1, -1, 1, -5, 843, 652, 375,noise
2025-03-10 14:24:41.058,542, 685, 506, -1, 0, -1, 0, -1, -1, 845, 665, 398,noise
2025-03-10 14:24:41.116,535, 687, 511, -2, -1, -1, -2, -1, -1, 837, 649, 362,noise
2025-03-10 14:24:41.165,535, 690, 507, 0, 0, 0, -2, -2, 0, 838, 652, 370,noise
2025-03-10 14:24:41.213,543, 693, 506, -1, 0, 1, 1, -3, 1, 839, 651, 362,noise
2025-03-10 14:24:41.272,541, 683, 522, 0, 0, 1, 0, -3, 1, 844, 667, 390,noise
2025-03-10 14:24:41.323,546, 680, 505, 1, 0, 0, -2, -2, -2, 842, 671, 390,noise
2025-03-10 14:24:44.089,561, 723, 482, -18, 23, 13, 7, -8, -3, 542, 457, 657,A
2025-03-10 14:24:44.147,579, 696, 506, -20, 22, 12, 6, -10, -6, 573, 464, 653,A
2025-03-10 14:24:44.204,602, 749, 444, -18, 10, 6, 5, -8, -6, 693, 558, 552,A
2025-03-10 14:24:44.257,544, 755, 567, 5, 6, 11, 7, -8, -4, 773, 703, 416,A
2025-03-10 14:24:44.315,537, 680, 392, 13, -55, -14, 6, -10, -5, 822, 736, 236,A
2025-03-10 14:24:44.372,525, 547, 355, -30, 22, -27, 3, -9, -5, 813, 704, 168,A
2025-03-10 14:24:44.429,348, 666, 544, -21, 31, -89, 8, -7, -12, 794, 544, 221,A
2025-03-10 14:24:44.487,430, 1108, 823, 27, -22, -35, 14, -9, -10, 778, 379, 49,A
2025-03-10 14:24:44.546,394, 824, 508, 16, -34, -14, 13, -12, -7, 740, 321, 53,A
2025-03-10 14:24:44.601,420, 780, 485, -20, -21, 13, 9, -11, -4, 622, 59, 51,A
2025-03-10 14:24:44.653,484, 704, 473, -2, -29, 9, 9, -9, -5, 630, 74, 79,A
2025-03-10 14:24:44.711,498, 766, 467, -18, -34, -12, 6, -7, -3, 616, 52, 43,A
2025-03-10 14:24:44.765,539, 937, 447, -4, -12, 23, 4, -9, -2, 713, 66, 259,A
2025-03-10 14:24:44.822,564, 779, 570, -62, -42, 45, 3, -7, -1, 845, 555, 525,A
2025-03-10 14:24:44.880,506, 589, 437, -78, -15, 69, 0, -5, 2, 913, 728, 688,A
2025-03-10 14:24:44.931,472, 477, 431, -82, -3, 48, 0, -2, 2, 944, 826, 629,A
2025-03-10 14:24:44.991,583, 482, 472, -21, -9, 33, -2, 3, 2, 960, 897, 646,A
2025-03-10 14:24:45.047,1066, 781, 715, -11, -9, -2, -3, 2, 3, 969, 921, 687,A
2025-03-10 14:24:45.101,586, 524, 689, 29, -9, 0, -3, 1, 4, 974, 940, 722,A
2025-03-10 14:24:45.154,561, 508, 488, 2, -28, -8, -2, 1, 3, 975, 952, 803,A
2025-03-10 14:24:45.208,552, 519, 714, 19, -87, 19, -3, 0, 6, 978, 962, 839,A
2025-03-10 14:24:45.266,627, 575, 469, 52, -20, -26, -6, 3, 10, 985, 967, 819,A
2025-03-10 14:24:45.321,1077, 829, -14, 9, 55, 44, -5, 3, 10, 984, 952, 663,A
2025-03-10 14:24:45.380,726, 110, 766, -47, -32, -43, -3, 2, 6, 980, 952, 749,A
2025-03-10 14:24:45.433,640, 408, 824, 15, -45, -21, -4, 0, 9, 987, 971, 708,A
2025-03-10 14:24:45.487,734, 714, 276, 2, 43, 40, -6, 4, 10, 985, 959, 535,A
2025-03-10 14:24:45.543,357, 506, 782, -18, 4, -27, -5, 4, 8, 978, 935, 596,A
2025-03-10 14:24:45.601,743, 580, 546, -20, -18, -14, -5, 3, 8, 986, 971, 327,A
2025-03-10 14:24:45.651,845, 546, 468, 13, 16, 28, -5, 3, 9, 983, 968, 590,A
2025-03-10 14:24:45.711,688, 485, 336, -27, 118, -47, 0, 2, 3, 970, 941, 687,A
2025-03-10 14:24:45.761,422, 493, 834, -22, 88, -65, 1, 0, -4, 950, 846, 727,A
2025-03-10 14:24:46.039,623, 412, 320, -14, 4, 22, -3, -6, 3, 916, 749, 451,B
2025-03-10 14:24:46.095,645, 515, 351, -24, 7, 18, -2, 2, 6, 920, 765, 461,B
2025-03-10 14:24:46.150,1043, 778, 856, 21, -40, 13, -1, -1, 5, 936, 825, 538,B
2025-03-10 14:24:46.208,519, 486, 471, -9, 18, 14, -4, 1, 4, 949, 867, 516,B
2025-03-10 14:24:46.257,652, 613, 324, -6, 1, 8, -2, 1, 4, 957, 899, 612,B
2025-03-10 14:24:46.307,654, 651, 476, -3, 2, 10, -4, 0, 5, 958, 907, 619,B
2025-03-10 14:24:46.362,664, 580, 519, -3, -1, 6, -3, -2, 6, 959, 910, 594,B
2025-03-10 14:24:46.421,622, 606, 445, -9, -8, -1, -2, 2, 4, 961, 913, 587,B
2025-03-10 14:24:46.474,666, 588, 452, -12, -15, -2, -2, 1, 7, 963, 916, 594,B
2025-03-10 14:24:46.531,710, 357, 690, -18, -9, -12, -3, 1, 6, 972, 943, 457,B
2025-03-10 14:24:46.584,440, 1027, 271, 20, 38, 39, -4, 1, 8, 982, 947, 241,B
2025-03-10 14:24:46.635,701, 632, 177, -8, 35, 26, -3, 2, 5, 976, 940, 78,B
2025-03-10 14:24:46.695,934, 379, 436, -4, -35, -42, -2, 0, 4, 970, 942, 547,B
2025-03-10 14:24:46.751,743, 553, 464, 8, -27, -14, -5, 1, 5, 979, 968, 636,B
2025-03-10 14:24:46.801,639, 703, 266, 6, 15, 23, -2, 0, 7, 983, 968, 462,B
2025-03-10 14:24:46.859,798, 633, 286, -9, 25, 18, -4, 2, 7, 982, 965, 245,B
2025-03-10 14:24:46.911,509, 618, 640, -14, -8, 0, -6, 2, 5, 984, 960, 61,B
2025-03-10 14:24:46.961,747, 542, 139, -1, 28, 0, -3, 2, 7, 976, 929, 56,B
2025-03-10 14:24:47.018,897, 389, 465, -26, 42, -27, -1, 1, 4, 959, 899, 108,B
2025-03-10 14:24:47.075,523, 494, 669, -32, 14, -20, -1, 2, 0, 954, 900, 60,B
2025-03-10 14:24:47.365,688, 539, 489, 3, -10, 2, -4, 2, 2, 956, 904, 222,C
2025-03-10 14:24:47.419,691, 538, 493, 5, -10, 2, -3, 2, 4, 958, 906, 245,C
2025-03-10 14:24:47.472,684, 533, 501, 6, -1, 4, -2, 2, 3, 960, 912, 255,C
2025-03-10 14:24:47.522,684, 533, 505, 7, -4, 3, -4, 2, 3, 961, 919, 364,C
2025-03-10 14:24:47.575,695, 555, 491, -3, 0, 1, -3, 2, 3, 960, 922, 375,C
2025-03-10 14:24:47.627,691, 530, 500, -3, -1, 2, -4, 1, 3, 961, 925, 373,C
2025-03-10 14:24:47.682,689, 544, 508, -3, -3, 3, -4, 3, 4, 962, 930, 362,C
2025-03-10 14:24:47.733,710, 480, 487, -1, -18, 2, -1, 4, 3, 963, 938, 239,C
2025-03-10 14:24:47.791,584, 473, 518, -33, -10, -17, -3, 1, 5, 969, 951, 59,C
2025-03-10 14:24:47.844,308, 385, 577, 71, -5, -27, -4, 3, 7, 977, 942, 82,C
2025-03-10 14:24:47.899,764, 961, -82, 8, 41, 47, -4, 2, 7, 982, 957, 79,C
2025-03-10 14:24:47.952,666, 278, 723, 21, -1, 0, -4, 2, 2, 974, 956, 224,C
2025-03-10 14:24:48.004,566, 538, 687, -31, 40, -37, -2, 1, 2, 960, 941, 451,C
2025-03-10 14:24:48.303,689, 579, 513, -2, -6, 3, -3, 3, 4, 948, 878, 319,D
2025-03-10 14:24:48.361,684, 578, 497, -4, -6, 4, -3, 1, 4, 950, 882, 325,D
2025-03-10 14:24:48.411,690, 548, 491, 1, -7, 1, -2, 3, 3, 951, 883, 250,D
2025-03-10 14:24:48.466,726, 530, 499, -3, -8, 4, -3, 1, 4, 952, 891, 255,D
2025-03-10 14:24:48.521,705, 559, 485, -6, 1, 0, -2, 3, 6, 956, 904, 248,D
2025-03-10 14:24:48.575,686, 531, 497, -9, 1, -1, -3, 2, 5, 956, 913, 242,D
2025-03-10 14:24:48.628,717, 533, 496, -5, -2, -4, -3, -1, 5, 957, 917, 247,D
2025-03-10 14:24:48.681,676, 541, 494, -6, 0, -2, -3, 1, 4, 958, 919, 259,D
2025-03-10 14:24:48.734,698, 534, 530, -19, -1, -7, 0, 0, 5, 963, 936, 164,D
2025-03-10 14:24:48.788,683, 768, 487, 18, 10, 29, -4, 2, 5, 979, 947, 83,D
2025-03-10 14:24:48.831,630, 579, 282, -2, 31, 41, 0, 3, 2, 982, 943, 43,D
2025-03-10 14:24:48.891,618, 84, 844, 3, -14, -32, -3, 5, 2, 969, 932, 76,D
2025-03-10 14:24:48.951,737, 537, 701, -26, -33, -23, -2, 0, 4, 975, 960, 355,D
2025-03-10 14:24:49.002,583, 590, 420, 24, -2, 16, -4, 3, 8, 983, 963, 59,D
2025-03-10 14:24:49.057,854, 513, 236, -4, 39, 35, -4, 4, 4, 978, 941, 55,D
2025-03-10 14:24:49.112,962, 191, 550, -13, 37, -35, -2, 3, 3, 957, 858, 66,D
2025-03-10 14:24:49.434,689, 549, 470, -4, -6, -2, -3, 1, 4, 950, 880, 98,E
2025-03-10 14:24:49.484,689, 544, 484, -4, -4, -1, -3, 2, 4, 950, 881, 101,E
2025-03-10 14:24:49.542,678, 534, 501, -3, -3, -1, -4, 3, 3, 952, 885, 120,E
2025-03-10 14:24:49.594,680, 533, 513, 1, -11, 1, -4, 3, 3, 953, 892, 97,E
2025-03-10 14:24:49.646,720, 543, 478, -5, -2, -4, -3, 2, 5, 956, 900, 146,E
2025-03-10 14:24:49.701,674, 552, 521, -6, -1, -3, -4, 3, 5, 956, 903, 138,E
2025-03-10 14:24:49.758,675, 533, 502, -13, -11, -7, -3, 2, 6, 958, 919, 176,E
2025-03-10 14:24:49.811,697, 508, 542, -12, -5, -5, -2, 2, 5, 966, 935, 58,E
2025-03-10 14:24:49.866,694, 457, 675, 21, -16, -11, -4, 3, 6, 975, 944, 82,E
2025-03-10 14:24:49.917,551, 769, 406, 3, 26, 42, -4, 3, 5, 981, 935, 42,E
2025-03-10 14:24:49.971,755, 659, 310, -29, 27, 26, -2, 2, 6, 974, 938, 59,E
2025-03-10 14:24:50.028,571, 625, 720, -3, -43, -56, -3, 4, 5, 968, 933, 45,E
2025-03-10 14:24:50.081,689, 817, 230, 40, -34, -10, -5, 3, 7, 982, 969, 210,E
2025-03-10 14:24:50.139,661, 525, 501, 25, 13, 27, -4, 3, 6, 980, 969, 393,E
2025-03-10 14:24:50.192,497, 394, 577, 1, 38, -5, -5, 2, 5, 969, 936, 251,E
2025-03-10 14:24:50.243,909, 536, 247, -25, -11, -11, -4, 0, 8, 980, 946, 68,E
2025-03-10 14:24:50.299,661, 515, 429, -2, 4, 30, -4, 4, 8, 983, 964, 46,E
2025-03-10 14:24:50.351,580, 419, 372, -4, 44, 7, -5, 2, 8, 973, 917, 69,E
2025-03-10 14:24:50.406,984, 744, 468, 22, -5, -30, -4, 3, 5, 973, 895, 81,E
2025-03-10 14:24:50.456,791, 604, 292, -17, -2, 23, -2, 4, 7, 984, 956, 55,E
2025-03-10 14:24:50.512,801, 469, 528, 14, 4, 18, -3, 5, 4, 973, 942, 194,E
2025-03-10 14:24:50.565,557, 498, 576, -21, 44, -37, -2, 2, 3, 957, 872, 225,E
2025-03-10 14:24:50.831,681, 560, 491, -5, -3, -2, -1, 2, 5, 951, 886, 404,F
2025-03-10 14:24:50.883,676, 560, 500, -6, -4, -2, -1, 2, 5, 951, 887, 405,F
2025-03-10 14:24:50.934,685, 554, 494, -4, -6, 0, -2, 2, 8, 952, 894, 355,F
2025-03-10 14:24:50.991,707, 546, 478, -5, -5, -4, -3, 3, 6, 956, 903, 374,F
2025-03-10 14:24:51.045,682, 551, 467, -8, -1, -3, -4, 4, 5, 955, 906, 371,F
2025-03-10 14:24:51.102,697, 558, 476, -14, -6, -4, -4, 2, 5, 955, 913, 386,F
2025-03-10 14:24:51.160,688, 530, 504, -16, -10, -6, -5, 2, 6, 958, 928, 331,F
2025-03-10 14:24:51.211,696, 375, 667, -3, -8, -9, -5, 2, 7, 969, 943, 159,F
2025-03-10 14:24:51.263,729, 727, 508, 18, 35, 47, -4, 1, 6, 980, 943, 76,F
2025-03-10 14:24:51.313,729, 664, 162, -13, 29, 25, -5, 3, 6, 977, 934, 51,F
2025-03-10 14:24:51.371,608, 346, 500, -28, -22, -76, -4, 3, 5, 966, 921, 59,F
2025-03-10 14:24:51.429,835, 491, 502, 49, -47, -15, -5, 2, 8, 980, 966, 96,F
2025-03-10 14:24:51.482,725, 636, 483, 37, 7, 29, -5, 2, 8, 979, 964, 250,F
2025-03-10 14:24:51.541,487, 435, 565, 11, 52, -11, -5, 1, 6, 970, 924, 200,F
2025-03-10 14:24:51.593,758, 491, 177, -20, -16, -12, -5, 2, 7, 979, 948, 84,F
2025-03-10 14:24:51.647,594, 518, 494, 10, 10, 27, -5, 1, 6, 981, 963, 186,F
2025-03-10 14:24:51.705,796, 375, 192, -14, 50, -34, -4, 1, 5, 965, 920, 434,F
2025-03-10 14:24:51.963,698, 573, 460, -6, 0, 1, -3, 1, 5, 952, 883, 468,G
2025-03-10 14:24:52.012,694, 564, 461, -6, 0, 1, -5, 2, 6, 953, 882, 460,G
2025-03-10 14:24:52.069,691, 575, 478, -7, -3, 2, -4, 3, 3, 951, 885, 423,G
2025-03-10 14:24:52.114,703, 559, 462, -1, -4, 2, -5, 2, 6, 952, 889, 437,G
2025-03-10 14:24:52.171,704, 573, 460, -5, -1, 1, -5, 1, 3, 953, 897, 441,G
2025-03-10 14:24:52.224,721, 560, 472, -6, -2, 3, -3, 1, 4, 957, 908, 396,G
2025-03-10 14:24:52.277,673, 570, 471, -9, -3, 4, -4, 0, 6, 962, 924, 273,G
2025-03-10 14:24:52.335,697, 566, 476, -21, -5, -7, -6, 2, 5, 968, 939, 131,G
2025-03-10 14:24:52.387,477, 329, 568, 22, -10, -24, -3, 3, 5, 974, 938, 60,G
2025-03-10 14:24:52.441,1003, 593, 255, -7, 30, 33, -3, 2, 8, 981, 938, 72,G
2025-03-10 14:24:52.499,570, 503, 592, -30, 14, 36, -4, 2, 2, 981, 957, 56,G
2025-03-10 14:24:52.552,608, 385, 677, 5, -18, -25, -2, 2, 7, 977, 957, 82,G
2025-03-10 14:24:52.601,849, 964, 6, 0, 23, 33, -4, 3, 4, 982, 946, 53,G
2025-03-10 14:24:52.652,694, 494, 493, -29, 16, 5, -2, 4, 4, 977, 922, 49,G
2025-03-10 14:24:52.708,573, 703, 761, -5, -15, -28, -3, 3, 5, 976, 935, 83,G
2025-03-10 14:24:52.761,551, 862, 58, -1, 1, 29, -6, 3, 5, 981, 960, 59,G
2025-03-10 14:24:52.812,847, 313, 245, -20, 45, -37, -4, 3, 6, 968, 926, 72,G
2025-03-10 14:24:53.078,701, 547, 459, 1, -7, 3, -3, 4, 5, 946, 859, 277,H
2025-03-10 14:24:53.131,699, 546, 443, 2, -6, 2, -4, 3, 8, 947, 861, 276,H
2025-03-10 14:24:53.187,709, 564, 442, -6, 0, -2, -4, 1, 5, 948, 863, 254,H
2025-03-10 14:24:53.240,694, 534, 473, -4, -2, -6, -4, 1, 5, 945, 849, 174,H
2025-03-10 14:24:53.293,698, 564, 471, -4, -3, -5, -4, 0, 7, 946, 860, 145,H
2025-03-10 14:24:53.351,689, 572, 466, -14, -6, -5, -5, 1, 6, 946, 870, 193,H
2025-03-10 14:24:53.403,678, 523, 501, -21, -4, -7, -3, 3, 6, 956, 909, 173,H
2025-03-10 14:24:53.455,670, 396, 610, 18, -11, -11, -4, 1, 6, 972, 930, 72,H
2025-03-10 14:24:53.513,551, 733, 397, -14, 25, 39, -4, 3, 7, 981, 911, 64,H
2025-03-10 14:24:53.567,739, 716, 377, -30, 32, 23, -2, 3, 7, 968, 887, 68,H
2025-03-10 14:24:53.624,1250, 620, 321, -6, -16, -26, -3, 2, 5, 970, 928, 83,H
2025-03-10 14:24:53.676,559, 726, -29, 16, -7, 31, -4, 2, 7, 983, 966, 234,H
2025-03-10 14:24:53.731,638, 270, 520, -7, 1, -15, -3, 3, 4, 976, 959, 399,H
2025-03-10 14:24:53.788,1829, -201, 544, -9, -9, -32, -5, 3, 5, 978, 950, 388,H
2025-03-10 14:24:53.841,825, 1173, 328, -18, 35, 42, -3, 0, 8, 985, 944, 64,H
2025-03-10 14:24:54.157,712, 542, 471, -2, -1, 0, -2, 2, 6, 951, 874, 265,I
2025-03-10 14:24:54.211,712, 546, 456, -5, 0, -1, -3, 1, 6, 951, 874, 253,I
2025-03-10 14:24:54.263,671, 551, 494, -8, -1, -3, -4, 2, 5, 953, 871, 246,I
2025-03-10 14:24:54.321,689, 549, 477, -4, -5, -2, -3, 2, 6, 955, 874, 166,I
2025-03-10 14:24:54.372,744, 359, 405, -28, -2, -14, -3, 1, 5, 960, 892, 81,I
2025-03-10 14:24:54.427,853, 864, 562, 37, -52, 12, -5, 4, 6, 979, 964, 65,I
2025-03-10 14:24:54.481,636, 555, 443, 3, 4, 26, -5, 1, 8, 982, 970, 174,I
2025-03-10 14:24:54.534,553, 324, 422, 2, 15, -21, -5, 0, 9, 972, 945, 313,I
2025-03-10 14:24:54.593,953, 426, 711, -7, -14, -13, -5, 2, 7, 978, 944, 183,I
2025-03-10 14:24:54.643,768, 590, 219, 29, 37, 42, -5, 3, 8, 983, 947, 82,I
2025-03-10 14:24:54.697,642, 495, 353, -2, 46, 7, -4, 3, 8, 970, 873, 58,I
2025-03-10 14:24:54.751,873, 449, 684, 13, -7, -28, -1, 1, 6, 970, 894, 53,I
2025-03-10 14:24:54.803,671, 735, 193, 0, -17, 25, -4, 3, 4, 983, 959, 72,I
2025-03-10 14:24:54.851,778, 356, 508, 11, 11, 3, -3, 1, 8, 972, 923, 51,I
2025-03-10 14:24:54.911,548, 555, 639, -52, 51, -51, -3, 2, 5, 946, 794, 57,I
2025-03-10 14:24:55.155,684, 536, 479, -6, -2, -2, -4, 1, 5, 953, 889, 345,J
2025-03-10 14:24:55.211,689, 537, 491, -4, -3, -2, -4, 3, 7, 953, 888, 344,J
2025-03-10 14:24:55.267,696, 552, 474, -5, -1, -3, -3, 1, 5, 954, 883, 268,J
2025-03-10 14:24:55.320,682, 552, 453, -5, -3, -2, -4, 3, 5, 954, 885, 252,J
2025-03-10 14:24:55.374,645, 512, 496, -6, -8, -1, -4, 2, 7, 959, 890, 132,J
2025-03-10 14:24:55.427,802, 487, 560, 7, -8, -4, -2, 1, 8, 971, 943, 74,J
2025-03-10 14:24:55.481,697, 586, 303, -1, -20, 25, -7, 1, 7, 982, 967, 133,J
2025-03-10 14:24:55.533,544, 526, 454, 12, 0, -6, -5, 1, 7, 977, 957, 235,J
2025-03-10 14:24:55.583,925, 426, 592, 12, 3, -15, -5, 1, 7, 979, 946, 228,J
2025-03-10 14:24:55.643,637, 430, 340, -14, 26, 40, -5, 2, 8, 986, 958, 72,J
2025-03-10 14:24:55.697,547, 339, 442, -19, 31, 12, -4, 3, 6, 979, 942, 71,J
2025-03-10 14:24:55.751,1150, 451, 343, 56, 7, -46, -2, 5, 2, 937, 853, 67,J
2025-03-10 14:24:55.803,580, 503, 756, -5, 10, -8, -3, 3, 4, 945, 869, 185,J
2025-03-10 14:24:56.094,685, 559, 459, -6, -12, -8, -5, 1, 4, 955, 897, 355,K
2025-03-10 14:24:56.148,671, 576, 450, -10, -13, -8, -5, 1, 4, 956, 900, 353,K
2025-03-10 14:24:56.205,711, 515, 468, -5, -3, -6, -5, 0, 8, 961, 921, 256,K
2025-03-10 14:24:56.254,688, 481, 530, 8, -8, -7, -3, 3, 8, 970, 926, 56,K
2025-03-10 14:24:56.307,880, 416, 587, -12, 33, 24, -6, 3, 6, 977, 901, 64,K
2025-03-10 14:24:56.363,883, 755, 350, -19, 13, 22, -5, 4, 7, 978, 951, 68,K
2025-03-10 14:24:56.417,569, 265, 158, -15, -25, -11, -6, 4, 7, 980, 970, 83,K
2025-03-10 14:24:56.476,656, 464, 418, 38, -13, -11, -5, 4, 8, 971, 934, 48,K
2025-03-10 14:24:56.524,725, 599, 985, 16, 1, 17, -3, 1, 5, 967, 886, 82,K
2025-03-10 14:24:56.578,884, 1176, 290, -6, 1, 54, -3, 1, 7, 983, 956, 39,K
2025-03-10 14:24:56.631,602, 436, 538, 10, 23, 41, -4, 4, 7, 978, 945, 84,K
2025-03-10 14:24:56.688,537, 534, 318, -30, 66, -70, -4, 3, 4, 950, 821, 65,K
2025-03-10 14:24:56.963,675, 541, 517, -6, -7, -5, -5, 0, 7, 957, 890, 355,L
2025-03-10 14:24:57.021,678, 539, 519, -6, -10, -6, -5, 0, 7, 959, 896, 374,L
2025-03-10 14:24:57.073,694, 540, 463, -10, -9, -7, -4, 3, 5, 960, 915, 367,L
2025-03-10 14:24:57.126,706, 520, 529, -7, -6, -7, -4, 2, 7, 969, 936, 236,L
2025-03-10 14:24:57.179,720, 690, 383, 28, 7, 9, -2, 2, 8, 977, 934, 76,L
2025-03-10 14:24:57.233,1067, 702, 383, -10, 26, 25, -4, 0, 8, 982, 919, 69,L
2025-03-10 14:24:57.287,958, 730, 685, -15, 2, 49, -6, 4, 6, 985, 964, 79,L
2025-03-10 14:24:57.336,691, 322, 368, 22, -3, 5, -5, 3, 5, 981, 966, 60,L
2025-03-10 14:24:57.395,848, 532, 178, -10, 47, -58, -5, 2, 5, 964, 920, 191,L
2025-03-10 14:24:57.451,540, 553, 806, -15, 2, -16, -2, 2, 1, 950, 836, 65,L
2025-03-10 14:24:57.749,717, 554, 463, 2, -7, -7, -4, 3, 6, 940, 844, 206,M
2025-03-10 14:24:57.796,734, 561, 461, 3, -6, -7, -4, 3, 6, 939, 846, 200,M
2025-03-10 14:24:57.853,696, 575, 453, 0, -2, -1, -5, 1, 7, 944, 851, 225,M
2025-03-10 14:24:57.909,665, 584, 500, -2, -9, -4, -5, 1, 6, 944, 868, 326,M
2025-03-10 14:24:57.966,723, 516, 432, -15, -3, -11, -5, 1, 10, 953, 904, 217,M
2025-03-10 14:24:58.019,651, 690, 382, 34, 17, 23, -4, 0, 8, 978, 910, 59,M
2025-03-10 14:24:58.073,803, 624, 208, -11, 21, 35, -5, 3, 7, 980, 901, 71,M
2025-03-10 14:24:58.125,674, 201, 782, 34, -42, -52, -3, 1, 7, 963, 917, 113,M
2025-03-10 14:24:58.181,717, 280, 876, 13, -31, -13, -5, 2, 8, 979, 953, 60,M
2025-03-10 14:24:58.236,770, 715, 61, -12, 31, 45, -4, 3, 7, 985, 954, 52,M
2025-03-10 14:24:58.291,729, 159, 614, 8, -21, -16, -6, 2, 6, 976, 954, 59,M
2025-03-10 14:24:58.343,678, 497, 547, 17, -25, -14, -8, 2, 9, 982, 959, 45,M
2025-03-10 14:24:58.391,751, 671, 212, 11, 37, 43, -6, 4, 8, 981, 950, 64,M
2025-03-10 14:24:58.451,716, 334, 375, -18, 34, -47, -7, 7, 5, 970, 927, 66,M
2025-03-10 14:24:58.744,679, 548, 464, -10, 0, -10, -4, 0, 6, 954, 882, 306,N
2025-03-10 14:24:58.798,668, 569, 475, -9, -2, -11, -6, 3, 7, 953, 881, 306,N
2025-03-10 14:24:58.856,664, 578, 486, -7, -16, -8, -2, 2, 5, 952, 883, 338,N
2025-03-10 14:24:58.908,745, 451, 554, -17, -11, -8, -4, 2, 7, 967, 923, 66,N
2025-03-10 14:24:58.961,666, 604, 334, -6, 32, 35, -4, 3, 9, 981, 926, 78,N
2025-03-10 14:24:59.014,825, 355, 370, 6, 26, 26, -5, 2, 8, 978, 897, 56,N
2025-03-10 14:24:59.069,630, 28, 637, 19, -37, -61, -5, 2, 5, 954, 905, 55,N
2025-03-10 14:24:59.126,730, 417, 837, -28, -24, -13, -4, 1, 8, 972, 948, 72,N
2025-03-10 14:24:59.176,824, 749, 434, -27, 45, 84, -6, 4, 6, 982, 939, 55,N
2025-03-10 14:24:59.231,639, 495, 526, -47, 12, 22, -4, 4, 6, 981, 964, 72,N
2025-03-10 14:24:59.285,895, 762, 504, 39, -30, -28, -2, 4, 8, 968, 960, 79,N
2025-03-10 14:24:59.343,721, 687, 238, -22, 69, -8, -5, 2, 7, 960, 925, 68,N
2025-03-10 14:24:59.611,700, 512, 513, 7, -6, 6, -5, 2, 7, 962, 892, 58,O
2025-03-10 14:24:59.666,695, 505, 509, 9, -9, 6, -2, 4, 7, 962, 891, 68,O
2025-03-10 14:24:59.716,729, 561, 430, 8, -5, 0, -4, 3, 6, 960, 896, 78,O
2025-03-10 14:24:59.766,710, 540, 447, -4, 1, 1, -5, 3, 7, 961, 905, 69,O
2025-03-10 14:24:59.821,670, 561, 476, -15, 1, -10, -5, 3, 7, 966, 932, 61,O
2025-03-10 14:24:59.874,440, 462, 649, 7, -2, -20, -6, 4, 8, 970, 944, 59,O
2025-03-10 14:24:59.925,1005, 895, 312, 11, 36, 50, -5, 2, 5, 981, 939, 85,O
2025-03-10 14:24:59.983,686, 572, 593, -62, 17, 40, -3, 4, 4, 982, 964, 81,O
2025-03-10 14:25:00.039,485, 203, 695, 52, -51, -75, -6, 4, 6, 969, 962, 84,O
2025-03-10 14:25:00.092,1022, 591, 138, 7, 26, -38, -4, 2, 6, 945, 915, 400,O
2025-03-10 14:25:00.145,545, 580, 740, -27, 38, 3, -3, 3, 2, 945, 840, 65,O
2025-03-10 14:25:00.428,690, 570, 508, -4, -1, 0, -2, 2, 5, 944, 856, 200,P
2025-03-10 14:25:00.481,686, 554, 511, -4, -3, 2, -3, 3, 6, 945, 858, 202,P
2025-03-10 14:25:00.531,723, 554, 430, -1, -7, 0, -4, 2, 6, 947, 870, 206,P
2025-03-10 14:25:00.586,664, 543, 477, -7, -9, -5, -3, 2, 8, 949, 886, 216,P
2025-03-10 14:25:00.641,840, 558, 534, -27, -2, -6, -4, 3, 6, 961, 928, 84,P
2025-03-10 14:25:00.694,736, 591, 525, 23, 31, 61, -6, 4, 6, 980, 938, 71,P
2025-03-10 14:25:00.751,780, 703, 132, -12, 37, 47, -3, 4, 5, 981, 937, 71,P
2025-03-10 14:25:00.803,647, 51, 601, 46, -50, -87, -1, 5, 3, 971, 947, 39,P
2025-03-10 14:25:00.862,848, 356, 550, -26, -36, -18, -4, 4, 4, 982, 973, 59,P
2025-03-10 14:25:00.911,556, 856, 279, 12, 16, 29, -6, 3, 6, 986, 965, 84,P
2025-03-10 14:25:00.961,764, 511, 277, 16, 40, 19, -4, 3, 5, 975, 937, 67,P
2025-03-10 14:25:01.021,639, 567, 483, -31, 43, -39, 0, 1, 5, 963, 922, 65,P
2025-03-10 14:25:01.311,704, 509, 490, 6, -12, 9, -5, 3, 5, 963, 903, 42,Q
2025-03-10 14:25:01.361,714, 523, 467, 6, -12, 8, -5, 3, 5, 964, 905, 45,Q
2025-03-10 14:25:01.414,693, 521, 447, -10, -5, 4, -5, 4, 6, 966, 920, 84,Q
2025-03-10 14:25:01.472,691, 528, 421, -25, -1, -10, -4, 3, 5, 969, 941, 48,Q
2025-03-10 14:25:01.525,430, 309, 611, 4, -9, -29, -5, 3, 5, 973, 955, 83,Q
2025-03-10 14:25:01.573,1115, 1017, -29, -11, 59, 65, -8, 4, 5, 982, 946, 56,Q
2025-03-10 14:25:01.631,626, 396, 719, -43, 19, 29, -6, 4, 6, 984, 970, 68,Q
2025-03-10 14:25:01.690,936, 463, 500, 59, -28, -50, -4, 3, 3, 974, 959, 82,Q
2025-03-10 14:25:01.741,625, 537, 536, -21, 44, -11, 0, 3, 2, 969, 926, 45,Q
2025-03-10 14:25:01.798,880, 1265, 522, -40, -23, 21, -3, 2, 3, 984, 957, 68,Q
2025-03-10 14:25:01.851,721, 351, 355, 2, 14, 41, -4, 5, 7, 985, 962, 80,Q
2025-03-10 14:25:01.906,821, 280, 250, 10, 44, -52, -5, 4, 3, 969, 901, 90,Q
2025-03-10 14:25:01.958,508, 498, 941, -21, 42, -35, -4, 3, -3, 931, 778, 63,Q
2025-03-10 14:25:02.249,651, 528, 548, -9, -5, -6, -5, 4, 5, 942, 847, 64,R
2025-03-10 14:25:02.303,671, 521, 538, -7, -7, -7, -3, 6, 5, 942, 847, 54,R
2025-03-10 14:25:02.353,711, 567, 453, 2, -9, -9, -2, 3, 5, 939, 851, 80,R
2025-03-10 14:25:02.410,615, 543, 503, -5, -10, -14, -3, 2, 6, 934, 862, 58,R
2025-03-10 14:25:02.461,745, 642, 749, -31, -10, -9, -4, 1, 7, 954, 912, 61,R
2025-03-10 14:25:02.516,827, 933, 370, 2, 49, 71, -3, 4, 4, 978, 928, 61,R
2025-03-10 14:25:02.569,734, 642, 115, -10, 26, 26, -4, 4, 5, 977, 927, 81,R
2025-03-10 14:25:02.627,1053, 82, 727, 57, -40, -80, -3, 4, 5, 960, 937, 55,R
2025-03-10 14:25:02.677,617, 661, 711, 2, -27, -6, -4, 1, 5, 979, 964, 86,R
2025-03-10 14:25:02.731,794, 896, 219, -16, 35, 51, -4, 3, 8, 982, 954, 45,R
2025-03-10 14:25:02.782,1073, 905, 473, -71, 30, 71, -6, 4, 6, 984, 958, 69,R
2025-03-10 14:25:02.841,828, 231, 239, -19, 37, -35, -6, 6, 4, 978, 947, 77,R
2025-03-10 14:25:02.898,454, 536, 769, -2, 17, -53, -4, 5, 1, 959, 908, 75,R
2025-03-10 14:25:03.164,715, 523, 485, -1, -8, -2, -5, 4, 5, 964, 926, 60,S
2025-03-10 14:25:03.214,720, 514, 476, -1, -6, -2, -3, 1, 3, 963, 929, 83,S
2025-03-10 14:25:03.265,703, 518, 504, -3, -7, 2, -4, 3, 4, 964, 932, 61,S
2025-03-10 14:25:03.313,678, 537, 475, -9, -9, -2, -4, 3, 4, 967, 940, 54,S
2025-03-10 14:25:03.371,752, 354, 600, 4, -3, -17, -6, 5, 5, 971, 944, 61,S
2025-03-10 14:25:03.421,1018, 664, 368, 5, 20, 25, -5, 2, 8, 981, 948, 65,S
2025-03-10 14:25:03.473,578, 762, 532, 5, 7, 21, -5, 4, 5, 983, 952, 57,S
2025-03-10 14:25:03.528,736, 313, 524, 38, 13, -9, -4, 4, 5, 965, 908, 55,S
2025-03-10 14:25:03.585,841, 563, 342, -31, 41, -36, -2, 2, 5, 932, 850, 66,S
2025-03-10 14:25:03.639,449, 523, 717, -9, -14, -13, -3, 2, 2, 942, 865, 65,S
2025-03-10 14:25:03.925,661, 549, 513, -8, 0, -6, -4, 1, 5, 942, 864, 36,T
2025-03-10 14:25:03.979,677, 528, 513, -9, 0, -5, -4, 1, 5, 943, 863, 39,T
2025-03-10 14:25:04.031,690, 518, 460, 1, -2, -14, -4, 3, 5, 936, 859, 83,T
2025-03-10 14:25:04.086,634, 545, 542, 4, -2, -5, -4, 3, 7, 940, 851, 56,T
2025-03-10 14:25:04.136,680, 564, 449, -15, -4, -16, -2, 2, 7, 962, 892, 82,T
2025-03-10 14:25:04.195,585, 864, 303, -35, -24, 39, -4, 0, 8, 979, 956, 46,T
2025-03-10 14:25:04.249,612, 558, 593, 22, -5, 17, -5, 3, 6, 978, 960, 196,T
2025-03-10 14:25:04.303,662, 496, 245, 1, 22, -23, -4, 3, 7, 962, 923, 390,T
2025-03-10 14:25:04.357,792, -238, 467, -18, -10, -15, -4, 2, 7, 972, 925, 216,T
2025-03-10 14:25:04.411,617, 538, 483, -14, 29, 35, -5, 2, 7, 984, 937, 70,T
2025-03-10 14:25:04.465,608, 351, 456, 12, 23, 18, -3, 2, 6, 975, 888, 58,T
2025-03-10 14:25:04.524,701, 561, 442, -15, 23, -61, -2, 4, 4, 929, 845, 125,T
2025-03-10 14:25:04.582,540, 538, 686, -3, -16, -12, -1, 2, 3, 933, 875, 216,T
2025-03-10 14:25:04.872,685, 552, 498, 0, -1, -5, -2, 4, 6, 938, 847, 43,U
2025-03-10 14:25:04.929,671, 546, 500, 1, -2, -6, -2, 4, 6, 936, 848, 46,U
2025-03-10 14:25:04.983,725, 578, 470, -1, -5, -8, -5, 3, 7, 931, 861, 62,U
2025-03-10 14:25:05.036,720, 466, 679, -24, -5, -7, -3, 4, 5, 958, 899, 56,U
2025-03-10 14:25:05.088,783, 833, 330, 22, 25, 43, -3, 3, 6, 976, 916, 76,U
2025-03-10 14:25:05.141,496, 668, 190, -23, 20, 42, -2, 5, 5, 979, 937, 35,U
2025-03-10 14:25:05.196,512, 303, 525, 6, -36, -45, -3, 4, 7, 962, 943, 59,U
2025-03-10 14:25:05.253,734, 374, 655, 14, -23, -21, -5, 4, 5, 973, 941, 42,U
2025-03-10 14:25:05.306,687, 809, 159, -7, 30, 49, -4, 3, 7, 979, 937, 63,U
2025-03-10 14:25:05.360,806, 182, 576, -6, 19, -30, -5, 3, 6, 967, 909, 64,U
2025-03-10 14:25:05.413,650, 497, 707, -26, 24, -32, -4, 4, 3, 932, 871, 89,U
2025-03-10 14:25:05.695,682, 516, 515, 4, -2, -1, -3, 2, 3, 926, 792, 55,V
2025-03-10 14:25:05.752,681, 509, 519, 9, -2, -2, -1, 0, 5, 924, 795, 83,V
2025-03-10 14:25:05.811,664, 528, 481, 17, -2, -7, -3, 3, 4, 910, 782, 77,V
2025-03-10 14:25:05.853,665, 552, 482, 13, -7, -9, -2, 4, 4, 879, 724, 35,V
2025-03-10 14:25:05.912,677, 585, 443, -16, -3, -13, -2, 2, 5, 899, 787, 83,V
2025-03-10 14:25:05.961,739, 375, 731, -12, -14, -7, -4, 2, 7, 958, 883, 40,V
2025-03-10 14:25:06.017,757, 955, 182, -30, 43, 88, -5, 3, 5, 978, 901, 60,V
2025-03-10 14:25:06.072,710, 738, 388, -40, 17, 27, -4, 4, 7, 980, 954, 51,V
2025-03-10 14:25:06.129,855, 749, 265, 38, -18, -39, -4, 4, 5, 969, 964, 61,V
2025-03-10 14:25:06.182,839, 593, 293, 9, 6, -19, -6, 5, 4, 949, 936, 341,V
2025-03-10 14:25:06.235,538, 543, 693, -33, 55, -7, -3, 2, 1, 942, 873, 69,V
2025-03-10 14:25:06.558,680, 563, 495, 6, -4, -3, -2, 1, 4, 892, 703, 58,W
2025-03-10 14:25:06.606,687, 555, 486, 7, -3, -2, -3, 2, 2, 891, 702, 57,W
2025-03-10 14:25:06.662,687, 553, 479, 11, -2, -2, -6, 1, 5, 885, 721, 83,W
2025-03-10 14:25:06.711,680, 552, 473, 4, 1, -5, -2, 2, 5, 877, 738, 66,W
2025-03-10 14:25:06.768,703, 573, 462, -14, -7, -11, -3, 2, 5, 886, 797, 47,W
2025-03-10 14:25:06.822,781, 535, 571, -61, -8, -2, -2, 2, 5, 955, 889, 81,W
2025-03-10 14:25:06.872,337, 625, 299, -23, 9, 61, -4, 6, 4, 980, 939, 55,W
2025-03-10 14:25:06.927,709, 532, 424, -21, 7, 25, -4, 4, 5, 980, 952, 62,W
2025-03-10 14:25:06.985,579, 425, 434, 10, -32, -29, -3, 5, 4, 975, 961, 63,W
2025-03-10 14:25:07.039,844, 825, 337, 24, 13, 37, -6, 3, 8, 978, 947, 64,W
2025-03-10 14:25:07.092,678, 648, 381, -43, 5, 28, -6, 5, 6, 981, 956, 58,W
2025-03-10 14:25:07.146,667, 329, 627, 50, -34, -33, -6, 6, 5, 971, 947, 59,W
2025-03-10 14:25:07.201,715, 490, 311, -10, 58, -35, -6, 3, 4, 953, 895, 52,W
2025-03-10 14:25:07.493,697, 518, 506, -7, 0, 0, -5, 4, 5, 903, 732, 58,X
2025-03-10 14:25:07.546,703, 515, 504, -5, -1, -1, -2, 4, 6, 900, 717, 48,X
2025-03-10 14:25:07.601,719, 567, 448, -13, 4, -1, -3, 4, 6, 897, 666, 50,X
2025-03-10 14:25:07.653,669, 509, 554, -8, -2, 3, -3, 3, 4, 909, 663, 75,X
2025-03-10 14:25:07.703,729, 525, 465, 0, -12, 3, -5, 3, 6, 926, 732, 82,X
2025-03-10 14:25:07.760,702, 552, 540, 5, -17, 14, -5, 2, 6, 944, 816, 40,X
2025-03-10 14:25:07.813,770, 505, 327, -34, 1, -1, -4, 2, 5, 962, 922, 77,X
2025-03-10 14:25:07.866,647, 333, 733, -9, -12, -10, -5, 6, 6, 975, 945, 53,X
2025-03-10 14:25:07.920,821, 664, 116, 27, 38, 21, -6, 3, 7, 979, 933, 69,X
2025-03-10 14:25:07.973,704, 531, 403, -15, 52, 24, -5, 6, 5, 966, 893, 46,X
2025-03-10 14:25:08.027,647, 357, 826, 27, -43, -73, -4, 4, 4, 935, 887, 73,X
2025-03-10 14:25:08.084,1131, 987, 792, -26, -52, 13, -4, 8, 3, 979, 946, 42,X
2025-03-10 14:25:08.136,484, 483, 446, -13, 26, 60, -5, 5, 5, 984, 948, 84,X
2025-03-10 14:25:08.191,791, 116, 441, 16, 18, -66, -6, 7, 4, 963, 902, 90,X
2025-03-10 14:25:08.247,666, 550, 695, 1, 11, -41, -3, 2, 5, 898, 883, 89,X
2025-03-10 14:25:08.535,691, 533, 500, -2, -2, -3, -5, 2, 7, 893, 818, 57,Y
2025-03-10 14:25:08.591,685, 529, 499, -2, -3, -4, -1, 2, 2, 895, 821, 59,Y
2025-03-10 14:25:08.641,689, 545, 493, -4, -1, -3, -5, 2, 5, 898, 822, 76,Y
2025-03-10 14:25:08.698,688, 550, 473, -3, -1, -1, -5, 4, 6, 890, 816, 46,Y
2025-03-10 14:25:08.751,613, 580, 516, -21, -5, 1, -4, 1, 7, 910, 858, 80,Y
2025-03-10 14:25:08.805,810, 365, 620, -25, -11, -13, -5, 2, 5, 954, 902, 39,Y
2025-03-10 14:25:08.861,671, 434, 293, 0, 14, 38, -5, 3, 7, 978, 952, 85,Y
2025-03-10 14:25:08.911,745, 340, 463, 3, 10, 7, -4, 3, 5, 967, 944, 48,Y
2025-03-10 14:25:08.961,535, 590, 887, -7, -33, 5, -4, 2, 7, 959, 937, 40,Y
2025-03-10 14:25:09.012,853, 594, 616, 24, 4, 7, -7, 3, 7, 980, 945, 80,Y
2025-03-10 14:25:09.070,524, 427, -137, 14, 53, 45, -5, 6, 8, 979, 922, 73,Y
2025-03-10 14:25:09.117,766, 387, 716, 18, 29, 14, -3, 5, 5, 945, 833, 63,Y
2025-03-10 14:25:09.174,683, 550, 547, -39, 13, -49, -4, 5, 3, 889, 791, 68,Y
2025-03-10 14:25:09.231,516, 584, 740, -10, -21, -13, -5, 3, 1, 891, 786, 63,Y
2025-03-10 14:25:09.535,693, 518, 515, -3, -1, -2, -2, 3, 4, 909, 777, 83,Z
2025-03-10 14:25:09.591,690, 519, 523, -4, -2, -1, -3, 4, 4, 909, 779, 84,Z
2025-03-10 14:25:09.644,703, 524, 526, -6, -8, 5, -5, 5, 6, 918, 805, 60,Z
2025-03-10 14:25:09.698,633, 500, 504, -12, -2, -2, -5, 4, 7, 927, 822, 48,Z
2025-03-10 14:25:09.754,700, 441, 557, -17, -3, -15, -4, 4, 6, 959, 895, 59,Z
2025-03-10 14:25:09.806,696, 670, 206, 10, -23, 38, -4, 3, 8, 978, 961, 52,Z
2025-03-10 14:25:09.861,604, 543, 750, 35, -16, 9, -6, 5, 7, 980, 956, 77,Z
2025-03-10 14:25:09.911,996, 448, 419, -10, 31, 3, -4, 4, 6, 981, 923, 41,Z
2025-03-10 14:25:09.967,714, 589, 616, -15, 16, 39, -6, 5, 7, 982, 953, 82,Z
2025-03-10 14:25:10.021,642, 270, 448, 19, -4, 7, -6, 5, 6, 981, 958, 55,Z
2025-03-10 14:25:10.071,709, 297, 283, 36, 13, -70, -7, 4, 6, 964, 897, 83,Z
2025-03-10 14:25:10.125,695, 657, 1278, 26, -60, 32, -4, 3, 5, 963, 878, 84,Z
2025-03-10 14:25:10.181,639, 773, 188, -26, -23, 28, -4, 5, 7, 981, 962, 61,Z
2025-03-10 14:25:10.232,626, 681, 512, 20, 9, 25, -5, 6, 5, 978, 946, 41,Z
2025-03-10 14:25:10.291,782, 400, 229, -14, 67, -50, -5, 4, 5, 939, 816, 84,Z
2025-03-10 14:25:10.344,527, 475, 909, -11, -2, -7, -4, 3, 4, 905, 628, 66,Z
2025-03-10 14:25:10.619,655, 569, 477, 21, -28, -9, -7, -1, 6, 812, 328, 220,a
2025-03-10 14:25:10.671,628, 615, 435, 20, -28, -8, -4, 6, 8, 823, 362, 265,a
2025-03-10 14:25:10.728,718, 623, 333, 15, -14, 9, -7, 1, 7, 879, 624, 409,a
2025-03-10 14:25:10.786,703, 626, 337, -19, 11, 15, -5, 0, 8, 918, 819, 479,a
2025-03-10 14:25:10.840,691, 553, 471, -25, 17, 11, -6, 1, 8, 939, 824, 301,a
2025-03-10 14:25:10.893,744, 544, 430, -25, 11, 3, -5, 1, 7, 947, 825, 204,a
2025-03-10 14:25:10.947,708, 515, 476, -8, 1, 3, -4, 1, 7, 950, 852, 185,a
2025-03-10 14:25:10.999,709, 570, 458, -10, 5, 5, -5, 2, 7, 954, 866, 49,a
2025-03-10 14:25:11.047,693, 555, 472, -3, 5, 8, -5, 2, 6, 958, 885, 64,a
2025-03-10 14:25:11.102,711, 555, 478, -1, -5, 15, -5, 3, 5, 962, 901, 68,a
2025-03-10 14:25:11.156,718, 372, 359, -16, -5, -13, -6, 2, 8, 966, 929, 65,a
2025-03-10 14:25:11.213,653, 421, 528, -7, -13, -20, -6, 2, 5, 970, 941, 59,a
2025-03-10 14:25:11.265,896, 743, 277, 10, -8, -19, -2, 3, 6, 978, 931, 57,a
2025-03-10 14:25:11.316,986, 383, 459, -22, 33, 42, -6, 6, 7, 979, 940, 77,a
2025-03-10 14:25:11.375,531, 212, 573, 11, -22, -29, -2, 6, 2, 972, 947, 42,a
2025-03-10 14:25:11.426,835, 1101, 147, 21, -2, 0, -5, 3, 7, 978, 951, 82,a
2025-03-10 14:25:11.481,713, 533, 554, -5, 22, 34, -5, 5, 7, 975, 944, 42,a
2025-03-10 14:25:11.535,638, 446, 526, -3, 13, -38, -5, 4, 6, 961, 933, 149,a
2025-03-10 14:25:11.798,697, 531, 546, 1, -8, -16, -5, 1, 6, 935, 881, 196,b
2025-03-10 14:25:11.852,713, 526, 552, 4, -10, -14, -6, 1, 6, 933, 881, 201,b
2025-03-10 14:25:11.904,801, 504, 392, 1, -13, -1, -4, 3, 7, 942, 910, 239,b
2025-03-10 14:25:11.958,719, 544, 512, -2, -6, -7, -6, 3, 7, 962, 930, 56,b
2025-03-10 14:25:12.011,708, 843, 413, 13, 40, 56, -4, 2, 8, 974, 928, 72,b
2025-03-10 14:25:12.064,745, 558, 209, 9, 13, 12, -5, 3, 7, 972, 914, 57,b
2025-03-10 14:25:12.122,916, 117, 1000, 24, -36, -37, -2, 0, 8, 958, 930, 38,b
2025-03-10 14:25:12.175,537, 462, 622, -3, -15, -5, -5, 3, 7, 978, 957, 66,b
2025-03-10 14:25:12.229,601, 374, 388, -27, 33, 19, -5, 3, 8, 979, 944, 81,b
2025-03-10 14:25:12.282,1008, 193, 530, 13, 30, -10, -3, 2, 6, 952, 857, 89,b
2025-03-10 14:25:12.339,618, 584, 542, -19, 16, -29, -3, 3, 4, 916, 878, 64,b
2025-03-10 14:25:12.611,721, 511, 488, -2, -1, 1, -4, 2, 6, 934, 878, 61,c
2025-03-10 14:25:12.666,725, 535, 481, -2, -1, 1, -6, 3, 8, 936, 882, 56,c
2025-03-10 14:25:12.715,727, 530, 481, 0, -1, 1, -4, 2, 5, 941, 891, 83,c
2025-03-10 14:25:12.768,742, 513, 487, 1, -2, 5, -5, 2, 7, 944, 898, 82,c
2025-03-10 14:25:12.815,711, 533, 468, -1, -3, 4, -7, 5, 9, 949, 906, 80,c
2025-03-10 14:25:12.875,609, 485, 512, -24, -2, -12, -4, 1, 8, 957, 927, 59,c
2025-03-10 14:25:12.929,338, 587, 454, 3, -6, -18, -6, 4, 8, 971, 936, 61,c
2025-03-10 14:25:12.981,973, 591, 351, -19, 32, 42, -4, 3, 8, 981, 943, 59,c
2025-03-10 14:25:13.032,661, 470, 724, 14, 7, 26, -5, 4, 4, 973, 952, 83,c
2025-03-10 14:25:13.088,627, 554, 425, -2, 34, -49, -5, 4, 4, 937, 920, 64,c
2025-03-10 14:25:13.381,714, 520, 473, -3, -1, -2, -7, 2, 4, 913, 810, 81,d
2025-03-10 14:25:13.432,723, 532, 480, -3, 0, -2, -6, 5, 2, 911, 803, 72,d
2025-03-10 14:25:13.490,707, 516, 496, -1, -2, 0, -7, 4, 4, 916, 806, 55,d
2025-03-10 14:25:13.539,692, 537, 518, 4, -3, 3, -4, 2, 4, 917, 816, 63,d
2025-03-10 14:25:13.593,717, 527, 468, 1, -3, 4, -5, 3, 5, 925, 826, 85,d
2025-03-10 14:25:13.641,648, 516, 563, 2, -13, 13, -4, 3, 5, 942, 861, 83,d
2025-03-10 14:25:13.696,668, 723, 382, -19, -3, -15, -4, 1, 7, 954, 917, 58,d
2025-03-10 14:25:13.751,751, 419, 662, -13, -3, -13, -6, 2, 8, 964, 938, 80,d
2025-03-10 14:25:13.806,754, 928, 82, 20, 19, 16, -5, 1, 6, 977, 931, 82,d
2025-03-10 14:25:13.858,673, 846, 470, -54, 27, 43, -7, 5, 6, 980, 954, 58,d
2025-03-10 14:25:13.911,722, 461, 508, 13, -34, -62, -4, 5, 5, 969, 960, 62,d
2025-03-10 14:25:13.966,729, 511, 345, 36, -24, -26, -6, 3, 7, 977, 955, 49,d
2025-03-10 14:25:14.021,556, 425, 280, 6, 31, 41, -5, 4, 8, 978, 936, 88,d
2025-03-10 14:25:14.075,733, 213, 521, 4, 10, -42, -4, 3, 5, 962, 918, 90,d
2025-03-10 14:25:14.374,716, 526, 474, -3, 1, -1, -6, 3, 5, 938, 826, 71,e
2025-03-10 14:25:14.425,707, 531, 470, -2, 1, -1, -4, 5, 7, 938, 824, 53,e
2025-03-10 14:25:14.473,712, 522, 489, 3, 1, -3, -3, 3, 7, 929, 820, 44,e
2025-03-10 14:25:14.527,723, 539, 484, 5, -2, 1, -7, 4, 5, 928, 824, 85,e
2025-03-10 14:25:14.579,678, 521, 495, 4, 2, 2, -5, 3, 6, 936, 832, 83,e
2025-03-10 14:25:14.629,618, 519, 518, 9, -7, 6, -5, 4, 7, 940, 841, 60,e
2025-03-10 14:25:14.681,702, 540, 520, -14, 6, -5, -4, 2, 7, 960, 882, 58,e
2025-03-10 14:25:14.735,984, 686, 601, 29, -1, 31, -4, 4, 4, 970, 931, 76,e
2025-03-10 14:25:14.787,597, 408, 395, -11, 0, 10, -6, 4, 7, 976, 959, 71,e
2025-03-10 14:25:14.841,739, 420, 493, -3, -11, -21, -5, 4, 6, 972, 960, 48,e
2025-03-10 14:25:14.893,828, 615, 420, 10, 10, -16, -4, 5, 8, 978, 941, 58,e
2025-03-10 14:25:14.952,775, 960, 375, -26, 33, 51, -5, 4, 6, 982, 953, 37,e
2025-03-10 14:25:15.001,739, 257, 632, 13, 0, -4, -5, 4, 4, 973, 937, 63,e
2025-03-10 14:25:15.311,714, 524, 492, 0, 0, -4, -4, 3, 3, 939, 841, 64,f
2025-03-10 14:25:15.365,726, 517, 490, 1, 0, -5, -4, 4, 6, 940, 845, 84,f
2025-03-10 14:25:15.412,716, 537, 501, 2, 1, -2, -3, 1, 5, 940, 848, 58,f
2025-03-10 14:25:15.463,711, 537, 476, -1, 4, 8, -4, 4, 4, 946, 860, 79,f
2025-03-10 14:25:15.521,662, 500, 545, 0, -5, 22, -4, 3, 6, 955, 879, 82,f
2025-03-10 14:25:15.574,776, 694, 252, -35, 8, -2, -4, 3, 5, 964, 923, 77,f
2025-03-10 14:25:15.627,164, 379, 451, -4, -40, -71, -4, 4, 4, 967, 965, 67,f
2025-03-10 14:25:15.685,768, 532, 728, 25, -41, -14, -5, 3, 6, 976, 970, 232,f
2025-03-10 14:25:15.734,646, 855, 245, 7, 34, 40, -7, 3, 9, 973, 946, 71,f
2025-03-10 14:25:15.787,497, 567, 572, 0, 25, -19, -4, 3, 7, 964, 922, 81,f
2025-03-10 14:25:15.843,777, 441, 172, -13, -13, -7, -4, 1, 8, 978, 953, 56,f
2025-03-10 14:25:15.893,797, 308, 442, 24, 3, 30, -4, 4, 5, 980, 959, 68,f
2025-03-10 14:25:15.952,726, 518, 273, -13, 53, -41, -5, 5, 3, 964, 910, 79,f
2025-03-10 14:25:16.246,703, 531, 490, -7, 3, -2, -5, 3, 5, 944, 835, 81,g
2025-03-10 14:25:16.294,701, 530, 493, -6, 2, -2, -3, 5, 8, 943, 832, 69,g
2025-03-10 14:25:16.344,722, 531, 483, 3, -3, -1, -4, 2, 5, 939, 827, 53,g
2025-03-10 14:25:16.401,722, 552, 454, -2, 1, 2, -7, 2, 7, 942, 829, 68,g
2025-03-10 14:25:16.451,717, 530, 470, 2, -2, 3, -3, 3, 5, 945, 836, 64,g
2025-03-10 14:25:16.501,718, 543, 449, -3, 2, 3, -6, 3, 5, 948, 841, 37,g
2025-03-10 14:25:16.551,716, 526, 483, -1, -2, 7, -5, 2, 6, 951, 858, 36,g
2025-03-10 14:25:16.606,744, 523, 438, 0, -5, 3, -4, 0, 7, 957, 875, 70,g
2025-03-10 14:25:16.660,656, 494, 478, -24, -5, 4, -6, 1, 6, 966, 917, 61,g
2025-03-10 14:25:16.712,613, 470, 541, -33, -3, -10, -7, 2, 7, 971, 947, 56,g
2025-03-10 14:25:16.765,1003, 442, 466, 30, -2, -17, -5, 3, 7, 978, 941, 61,g
2025-03-10 14:25:16.823,770, 508, 290, -23, 25, 44, -5, 4, 7, 983, 953, 70,g
2025-03-10 14:25:16.894,603, 261, 746, 1, -9, -2, -5, 6, 5, 975, 963, 60,g
2025-03-10 14:25:16.930,704, 464, 491, 16, -16, -23, -7, 3, 7, 977, 958, 54,g
2025-03-10 14:25:16.982,699, 720, 421, -28, 33, 41, -4, 6, 6, 979, 939, 87,g
2025-03-10 14:25:17.036,721, 50, 605, -21, 26, -32, -1, 5, 4, 959, 873, 88,g
2025-03-10 14:25:17.091,763, 556, 453, -32, 18, -67, -3, 2, 4, 891, 888, 90,g
2025-03-10 14:25:17.145,374, 547, 755, -12, -10, -18, -4, 3, 0, 913, 903, 70,g
2025-03-10 14:25:17.496,706, 541, 486, 1, -4, -3, -3, 3, 5, 891, 831, 39,h
2025-03-10 14:25:17.546,698, 539, 491, 1, -5, -3, -3, 3, 5, 894, 834, 66,h
2025-03-10 14:25:17.596,693, 547, 471, 3, -8, -1, -6, 2, 4, 900, 851, 77,h
2025-03-10 14:25:17.655,666, 564, 500, -1, -12, -2, -6, 5, 5, 903, 870, 123,h
2025-03-10 14:25:17.706,767, 533, 484, -26, 1, -5, -3, 1, 6, 946, 916, 58,h
2025-03-10 14:25:17.761,576, 516, 492, -6, 23, 38, -1, 3, 6, 972, 931, 55,h
2025-03-10 14:25:17.814,1040, 248, 551, -8, 23, 43, -2, 4, 5, 975, 925, 61,h
2025-03-10 14:25:17.865,847, 342, 744, 6, -5, -4, -4, 4, 4, 967, 934, 41,h
2025-03-10 14:25:17.921,615, 519, 667, -1, -20, -5, -5, 4, 6, 977, 955, 69,h
2025-03-10 14:25:17.973,902, 601, 338, -5, 22, 32, -4, 4, 6, 980, 951, 71,h
2025-03-10 14:25:18.026,824, 267, 476, -7, 27, -20, -6, 6, 2, 962, 905, 61,h
2025-03-10 14:25:18.081,656, 493, 701, -17, 6, -31, -3, 3, 2, 935, 858, 86,h
2025-03-10 14:25:18.364,713, 499, 515, -1, -1, -1, -5, 2, 4, 936, 844, 43,i
2025-03-10 14:25:18.418,709, 513, 524, 0, -2, 0, -5, 1, 5, 938, 853, 72,i
2025-03-10 14:25:18.467,708, 507, 488, 5, -6, -1, -4, 3, 4, 939, 860, 82,i
2025-03-10 14:25:18.522,704, 518, 490, 0, -4, -1, -3, 3, 7, 940, 871, 54,i
2025-03-10 14:25:18.572,743, 555, 462, -19, -1, -10, -4, 1, 6, 950, 905, 58,i
2025-03-10 14:25:18.630,716, 435, 660, -5, -11, -8, -5, 3, 4, 970, 933, 53,i
2025-03-10 14:25:18.684,716, 516, 380, 6, 17, 24, -4, 4, 5, 977, 929, 66,i
2025-03-10 14:25:18.737,852, -76, 525, -34, -7, -59, -5, 4, 5, 966, 926, 82,i
2025-03-10 14:25:18.788,598, 565, 901, 7, -79, -1, -4, 4, 3, 966, 950, 82,i
2025-03-10 14:25:18.841,785, 663, 94, 28, 3, 2, -3, 3, 7, 972, 947, 70,i
2025-03-10 14:25:18.896,901, 199, 407, -10, 46, 11, -4, 2, 5, 958, 908, 72,i
2025-03-10 14:25:18.948,486, 430, 859, -20, 21, 9, -4, 2, 2, 959, 904, 71,i
2025-03-10 14:25:19.207,709, 535, 493, 2, -1, 0, -5, 3, 2, 937, 853, 59,j
2025-03-10 14:25:19.258,717, 531, 484, 0, -1, 0, -3, 3, 5, 934, 851, 57,j
2025-03-10 14:25:19.311,719, 509, 492, 0, -1, -1, -5, 3, 5, 936, 848, 59,j
2025-03-10 14:25:19.360,668, 511, 515, 2, -9, 1, -5, 3, 5, 936, 854, 77,j
2025-03-10 14:25:19.417,729, 572, 491, -12, -8, -11, -5, 3, 5, 954, 887, 53,j
2025-03-10 14:25:19.470,582, 537, 503, -18, 3, 12, -6, 3, 4, 971, 924, 84,j
2025-03-10 14:25:19.523,639, 814, 291, -38, 29, 44, -6, 5, 7, 972, 921, 49,j
2025-03-10 14:25:19.576,877, 129, 492, -42, 23, -23, -4, 7, 7, 954, 892, 57,j
2025-03-10 14:25:19.631,422, 782, 743, -45, -10, -66, -3, 7, 0, 954, 936, 49,j
2025-03-10 14:25:19.691,521, 1194, 856, 41, -42, -33, -5, 2, 7, 974, 955, 60,j
2025-03-10 14:25:19.744,896, 737, 631, 21, 33, 64, -6, 2, 6, 964, 922, 84,j
2025-03-10 14:25:19.797,581, 530, 360, -14, 74, -18, -5, 5, 5, 957, 895, 55,j
2025-03-10 14:25:19.851,472, 565, 696, 9, -9, -2, -4, 4, 2, 956, 900, 85,j
2025-03-10 14:25:20.135,712, 541, 471, -7, -7, -5, -4, 2, 6, 933, 843, 69,k
2025-03-10 14:25:20.191,723, 550, 477, -8, -8, -4, -3, 3, 7, 936, 842, 60,k
2025-03-10 14:25:20.243,636, 521, 556, -7, -18, 1, -5, 2, 7, 942, 855, 82,k
2025-03-10 14:25:20.295,883, 537, 469, -19, -8, -9, -5, 3, 7, 957, 903, 44,k
2025-03-10 14:25:20.351,709, 510, 588, 3, -5, -4, -6, 4, 7, 964, 922, 57,k
2025-03-10 14:25:20.403,755, 633, 396, -5, 34, 36, -6, 4, 8, 969, 879, 68,k
2025-03-10 14:25:20.455,790, 679, 147, -10, 18, 10, -5, 4, 5, 971, 927, 58,k
2025-03-10 14:25:20.508,698, 509, 438, -25, -29, 4, -5, 6, 8, 976, 970, 69,k
2025-03-10 14:25:20.563,716, 464, 581, 50, -10, -8, -6, 2, 9, 962, 931, 80,k
2025-03-10 14:25:20.616,609, 476, 341, -11, 45, -21, -5, 4, 7, 942, 771, 83,k
2025-03-10 14:25:20.671,878, 870, 477, -23, -16, 9, -5, 4, 8, 970, 921, 59,k
2025-03-10 14:25:20.724,687, 486, 427, -9, 13, 38, -4, 5, 7, 975, 940, 51,k
2025-03-10 14:25:20.779,811, 323, 319, -2, 37, -41, -7, 6, 5, 952, 870, 87,k
2025-03-10 14:25:20.831,580, 495, 802, -16, 21, -35, -5, 3, 4, 904, 750, 83,k
2025-03-10 14:25:21.357,711, 543, 476, -2, -1, -3, -4, 3, 7, 915, 793, 45,l
2025-03-10 14:25:21.411,709, 546, 472, -3, -1, -2, -4, 3, 7, 915, 794, 59,l
2025-03-10 14:25:21.461,710, 561, 464, -4, 0, -3, -5, 0, 7, 914, 792, 39,l
2025-03-10 14:25:21.514,702, 548, 469, -3, -1, -1, -4, 1, 8, 917, 796, 71,l
2025-03-10 14:25:21.566,711, 541, 453, -2, 1, -1, -4, 3, 7, 917, 799, 60,l
2025-03-10 14:25:21.618,701, 532, 464, -1, -2, -1, -7, 5, 4, 915, 792, 36,l
2025-03-10 14:25:21.673,691, 548, 456, -4, -4, -5, -6, 4, 6, 921, 813, 83,l
2025-03-10 14:25:21.721,650, 561, 548, -1, -25, -4, -4, 2, 7, 924, 843, 67,l
2025-03-10 14:25:21.780,768, 439, 579, -24, -4, -9, -6, 5, 7, 959, 916, 70,l
2025-03-10 14:25:21.833,915, 603, 265, 42, 28, 31, -5, 3, 8, 979, 915, 45,l
2025-03-10 14:25:21.887,752, 300, 88, -10, 44, 37, -7, 4, 7, 977, 909, 81,l
2025-03-10 14:25:21.940,799, 221, 537, 3, 1, -21, -6, 4, 6, 959, 889, 75,l
2025-03-10 14:25:21.993,650, 519, 712, -3, -14, -11, -5, 6, 3, 955, 908, 55,l
2025-03-10 14:25:22.044,707, 579, 443, 1, -4, 3, -6, 1, 5, 957, 905, 66,l
2025-03-10 14:25:22.093,728, 520, 441, -3, 0, 2, -5, 4, 7, 957, 900, 80,l
2025-03-10 14:25:22.148,733, 504, 480, -1, -1, 0, -7, 3, 4, 956, 897, 58,l
2025-03-10 14:25:22.198,727, 533, 474, -2, 3, -5, -5, 4, 6, 953, 881, 62,l
2025-03-10 14:25:22.251,706, 532, 485, -5, 3, -5, -5, 3, 6, 945, 868, 65,l
2025-03-10 14:25:22.302,709, 520, 482, -1, -1, -4, -5, 4, 5, 942, 846, 61,l
2025-03-10 14:25:23.210,715, 555, 444, -2, -2, 5, -4, 3, 5, 940, 847, 76,m
2025-03-10 14:25:23.261,725, 544, 445, -3, 0, 5, -4, 6, 6, 941, 850, 63,m
2025-03-10 14:25:23.311,692, 536, 499, 0, 1, 4, -5, 3, 4, 945, 856, 56,m
2025-03-10 14:25:23.365,726, 540, 440, 1, -3, -1, -5, 2, 6, 945, 861, 50,m
2025-03-10 14:25:23.418,674, 541, 504, -1, -4, -4, -5, 3, 6, 944, 877, 78,m
2025-03-10 14:25:23.471,711, 516, 449, -8, 0, -11, -4, 1, 6, 955, 909, 44,m
2025-03-10 14:25:23.518,729, 537, 567, 3, 2, 4, -6, 3, 5, 969, 919, 84,m
2025-03-10 14:25:23.573,946, 531, 563, -13, 17, 37, -5, 2, 7, 979, 925, 61,m
2025-03-10 14:25:23.627,604, 300, 716, -2, -8, 0, -5, 4, 3, 971, 940, 49,m
2025-03-10 14:25:23.676,749, 535, 648, -4, -26, -16, -1, 2, 8, 976, 953, 68,m
2025-03-10 14:25:23.733,833, 631, 416, -24, 16, 25, -5, 4, 7, 981, 951, 84,m
2025-03-10 14:25:23.784,750, 523, 421, -2, 21, 14, -4, 3, 7, 973, 948, 81,m
2025-03-10 14:25:23.835,736, 501, 499, 5, -16, -3, -5, 3, 6, 978, 956, 58,m
2025-03-10 14:25:23.892,761, 683, 188, 0, 30, 40, -6, 7, 5, 981, 957, 71,m
2025-03-10 14:25:23.945,829, 281, 402, -18, 29, -28, -7, 4, 8, 970, 928, 69,m
2025-03-10 14:25:24.004,723, 444, 613, -25, 18, -49, -4, 1, 3, 947, 888, 42,m
2025-03-10 14:25:24.298,687, 537, 496, 3, 2, 0, -4, 4, 4, 934, 838, 77,n
2025-03-10 14:25:24.347,689, 538, 493, 4, 2, 0, -7, 3, 7, 933, 837, 70,n
2025-03-10 14:25:24.395,705, 549, 493, 5, 0, 2, -5, 2, 6, 932, 842, 85,n
2025-03-10 14:25:24.446,677, 531, 481, 3, -1, 3, -5, 2, 6, 931, 837, 36,n
2025-03-10 14:25:24.494,726, 553, 441, 3, 0, 1, -5, 4, 5, 931, 833, 38,n
2025-03-10 14:25:24.546,720, 535, 475, 1, 0, -2, -5, 3, 6, 928, 830, 78,n
2025-03-10 14:25:24.601,680, 532, 481, 5, -5, -9, -5, 1, 5, 928, 842, 211,n
2025-03-10 14:25:24.655,703, 641, 503, -26, -4, -8, -4, 1, 7, 948, 899, 58,n
2025-03-10 14:25:24.707,902, 909, 404, -38, 24, 31, -6, 3, 7, 972, 924, 62,n
2025-03-10 14:25:24.761,733, 565, 293, -15, 12, 22, -5, 3, 6, 976, 929, 55,n
2025-03-10 14:25:24.819,823, 111, 671, 29, -39, -42, -5, 2, 6, 970, 944, 66,n
2025-03-10 14:25:24.872,602, 542, 399, 15, -7, 8, -4, 1, 8, 981, 950, 39,n
2025-03-10 14:25:24.921,739, 535, 471, 5, 24, 29, -5, 5, 7, 973, 930, 83,n
2025-03-10 14:25:24.974,693, 405, 456, -4, 21, -41, -3, 2, 6, 954, 893, 89,n
2025-03-10 14:25:25.273,706, 534, 511, -2, -1, 0, -5, 4, 3, 931, 814, 77,o
2025-03-10 14:25:25.323,701, 539, 496, -4, -1, 1, -3, 3, 5, 930, 809, 45,o
2025-03-10 14:25:25.377,711, 515, 491, 1, -3, -1, -4, 3, 6, 932, 814, 38,o
2025-03-10 14:25:25.431,699, 542, 489, -1, -1, -1, -6, 2, 5, 931, 823, 71,o
2025-03-10 14:25:25.482,711, 532, 493, 0, -1, 1, -2, 2, 4, 932, 826, 62,o
2025-03-10 14:25:25.535,710, 529, 485, 0, -1, 0, -5, 3, 5, 932, 822, 53,o
2025-03-10 14:25:25.585,722, 508, 489, 0, -2, -1, -4, 4, 8, 930, 814, 58,o
2025-03-10 14:25:25.632,717, 542, 484, 2, -1, 0, -5, 4, 5, 929, 801, 59,o
2025-03-10 14:25:25.688,709, 532, 520, 10, -8, 6, -5, 2, 7, 939, 827, 64,o
2025-03-10 14:25:25.740,691, 543, 402, -11, 3, -4, -4, 3, 7, 946, 865, 43,o
2025-03-10 14:25:25.797,473, 516, 579, -19, -8, -24, -4, 2, 4, 956, 918, 84,o
2025-03-10 14:25:25.851,676, 867, 200, 38, 10, -6, -5, 2, 8, 971, 911, 45,o
2025-03-10 14:25:25.904,512, 210, 479, -12, 23, 42, -4, 3, 6, 978, 949, 84,o
2025-03-10 14:25:25.957,326, -20, 781, 18, -40, -60, -5, 5, 6, 970, 955, 79,o
2025-03-10 14:25:26.015,951, 699, 194, 22, -3, -28, -7, 2, 6, 937, 895, 419,o
2025-03-10 14:25:26.069,611, 595, 595, -26, 48, -3, -6, 6, 3, 932, 816, 159,o
2025-03-10 14:25:26.121,609, 518, 550, 7, -5, 9, -4, 1, 2, 920, 747, 68,o
2025-03-10 14:25:26.391,694, 551, 494, 1, -3, 2, -2, 3, 5, 896, 757, 55,p
2025-03-10 14:25:26.441,697, 551, 483, 0, -3, 2, -5, 4, 2, 895, 758, 40,p
2025-03-10 14:25:26.494,699, 523, 474, -1, -3, 0, -4, 1, 5, 900, 773, 58,p
2025-03-10 14:25:26.542,690, 547, 490, 0, -2, 1, -7, 4, 5, 898, 784, 35,p
2025-03-10 14:25:26.596,706, 530, 480, 1, -6, 0, -4, 2, 3, 903, 798, 53,p
2025-03-10 14:25:26.650,679, 549, 468, -3, -8, 0, -4, 2, 4, 911, 816, 60,p
2025-03-10 14:25:26.701,698, 627, 508, -13, -1, -10, -4, 1, 7, 930, 871, 66,p
2025-03-10 14:25:26.755,710, 536, 478, -14, 0, -2, -4, 4, 6, 952, 901, 84,p
2025-03-10 14:25:26.807,530, 665, 354, -7, 42, 61, -5, 4, 7, 973, 914, 55,p
2025-03-10 14:25:26.863,656, 510, 310, -19, 28, 31, -5, 7, 2, 973, 911, 81,p
2025-03-10 14:25:26.920,546, -13, 654, 50, -57, -83, -5, 3, 4, 956, 927, 83,p
2025-03-10 14:25:26.973,722, 388, 645, -8, -33, -6, -4, 4, 4, 973, 957, 68,p
2025-03-10 14:25:27.023,624, 554, 316, 11, 16, 21, -5, 3, 9, 981, 954, 63,p
2025-03-10 14:25:27.077,746, 331, 377, 14, 30, 14, -4, 2, 6, 973, 907, 70,p
2025-03-10 14:25:27.133,605, 541, 593, -20, 29, -39, -4, 3, 4, 961, 884, 64,p
2025-03-10 14:25:27.185,572, 640, 587, -5, -12, -17, -4, 1, 3, 955, 874, 75,p
2025-03-10 14:25:27.239,693, 566, 503, 13, -21, 9, -4, 2, 3, 950, 870, 68,p
2025-03-10 14:25:27.291,753, 520, 435, 1, -6, 4, -4, 2, 5, 948, 872, 64,p
2025-03-10 14:25:27.341,718, 525, 479, -1, 2, 0, -5, 3, 5, 947, 855, 67,p
2025-03-10 14:25:28.088,703, 546, 471, -3, -1, -1, -3, 1, 6, 922, 813, 61,q
2025-03-10 14:25:28.141,701, 552, 471, -3, -1, 0, -4, 3, 3, 920, 811, 41,q
2025-03-10 14:25:28.187,709, 535, 490, -3, -3, 1, -6, 1, 6, 922, 815, 44,q
2025-03-10 14:25:28.243,722, 555, 448, -1, -2, 0, -6, 2, 5, 927, 825, 78,q
2025-03-10 14:25:28.296,715, 528, 476, -1, -2, 0, -4, 2, 6, 928, 835, 82,q
2025-03-10 14:25:28.341,707, 550, 472, 0, -1, 3, -4, 2, 5, 930, 838, 48,q
2025-03-10 14:25:28.397,703, 502, 495, 1, -7, 2, -6, 0, 7, 939, 861, 47,q
2025-03-10 14:25:28.451,680, 564, 503, -16, -1, -9, -2, 2, 7, 952, 903, 85,q
2025-03-10 14:25:28.501,654, 371, 561, 19, -13, -20, -6, 3, 8, 957, 912, 77,q
2025-03-10 14:25:28.555,780, 660, 221, -9, 22, 25, -5, 2, 7, 973, 916, 62,q
2025-03-10 14:25:28.611,721, 450, 777, -23, 3, 19, -4, 2, 6, 970, 936, 68,q
2025-03-10 14:25:28.669,590, 294, 680, 23, -18, -23, -3, 0, 8, 965, 935, 55,q
2025-03-10 14:25:28.723,770, 573, 199, -7, 19, 34, -5, 4, 7, 976, 930, 49,q
2025-03-10 14:25:28.772,791, 619, 637, -23, 15, 29, -5, 5, 5, 976, 953, 65,q
2025-03-10 14:25:28.828,928, 408, 256, 13, 10, -40, -3, 4, 6, 946, 909, 72,q
2025-03-10 14:25:29.145,691, 539, 503, 5, -7, 1, -5, 3, 5, 900, 822, 62,r
2025-03-10 14:25:29.192,697, 538, 498, 3, -8, 0, -4, 5, 6, 900, 824, 83,r
2025-03-10 14:25:29.251,715, 537, 462, 1, -7, -1, -6, 1, 5, 902, 822, 72,r
2025-03-10 14:25:29.304,730, 551, 435, -2, 2, -1, -5, 2, 6, 910, 826, 56,r
2025-03-10 14:25:29.352,685, 548, 497, -2, -1, 2, -5, 3, 7, 920, 838, 59,r
2025-03-10 14:25:29.406,674, 520, 472, -4, -1, -1, -4, 4, 4, 925, 854, 84,r
2025-03-10 14:25:29.461,814, 499, 440, -20, 0, -12, -4, 1, 6, 936, 891, 128,r
2025-03-10 14:25:29.517,729, 534, 540, -13, 1, -3, -2, 1, 7, 951, 919, 46,r
2025-03-10 14:25:29.565,919, 788, 393, -7, 28, 45, -4, 2, 6, 972, 923, 68,r
2025-03-10 14:25:29.623,615, 386, 250, -39, 23, 16, -4, 4, 5, 976, 942, 57,r
2025-03-10 14:25:29.681,906, 493, 1166, 27, -45, -54, -4, 3, 5, 975, 969, 78,r
2025-03-10 14:25:29.734,895, 634, 105, 4, 37, 10, -8, 2, 7, 969, 935, 112,r
2025-03-10 14:25:29.781,526, 567, 709, -12, 37, 1, -4, 4, 4, 957, 877, 90,r
2025-03-10 14:25:30.073,688, 530, 511, -5, -2, 1, -3, 2, 5, 937, 814, 48,s
2025-03-10 14:25:30.127,691, 529, 517, -5, -3, 1, -3, 2, 5, 937, 815, 60,s
2025-03-10 14:25:30.174,712, 542, 500, -3, -9, 5, -2, 2, 4, 944, 854, 76,s
2025-03-10 14:25:30.231,746, 523, 441, -2, -8, 11, -3, 2, 6, 952, 885, 57,s
2025-03-10 14:25:30.287,750, 446, 444, -29, -4, -6, -5, 3, 6, 962, 927, 63,s
2025-03-10 14:25:30.336,543, 486, 617, -7, -6, -9, -5, 3, 5, 968, 949, 41,s
2025-03-10 14:25:30.389,840, 520, 217, 34, 6, -7, -6, 3, 7, 977, 947, 86,s
2025-03-10 14:25:30.441,682, 502, 521, -5, 15, 22, -4, 4, 6, 982, 956, 59,s
2025-03-10 14:25:30.496,948, 145, 441, -6, 16, 2, -4, 4, 4, 975, 937, 73,s
2025-03-10 14:25:30.548,1144, 325, 374, 14, 11, -52, -3, 4, 5, 942, 853, 85,s
2025-03-10 14:25:30.606,558, 560, 792, -15, 20, -26, -2, 2, 3, 930, 846, 43,s
2025-03-10 14:25:30.868,698, 547, 465, -6, 4, 0, -4, 2, 4, 872, 761, 65,t
2025-03-10 14:25:30.921,682, 537, 486, -6, 5, 0, -2, 2, 6, 874, 763, 80,t
2025-03-10 14:25:30.971,676, 538, 525, 1, -2, 2, -4, 4, 3, 876, 774, 81,t
2025-03-10 14:25:31.021,704, 551, 469, -2, 2, -1, -4, 2, 5, 872, 772, 57,t
2025-03-10 14:25:31.073,695, 528, 512, -2, 0, -1, -4, 3, 5, 871, 781, 62,t
2025-03-10 14:25:31.126,699, 525, 505, -2, -1, -3, -5, 3, 3, 865, 780, 59,t
2025-03-10 14:25:31.179,651, 522, 538, 3, -5, -2, -7, 3, 3, 861, 780, 56,t
2025-03-10 14:25:31.231,680, 551, 473, 0, -9, -4, -4, 2, 6, 850, 792, 55,t
2025-03-10 14:25:31.285,691, 549, 495, -11, -12, -5, -4, 2, 4, 867, 822, 60,t
2025-03-10 14:25:31.341,643, 531, 520, -15, -30, -3, -5, 3, 4, 896, 886, 131,t
2025-03-10 14:25:31.396,716, 436, 669, -7, -8, -13, -6, 3, 7, 940, 928, 43,t
2025-03-10 14:25:31.447,935, 928, 335, 49, 36, 42, -4, 1, 8, 977, 931, 62,t
2025-03-10 14:25:31.504,829, 586, 380, 2, 40, 54, -4, 3, 6, 978, 952, 57,t
2025-03-10 14:25:31.556,606, -48, 767, 10, -29, -62, -2, 3, 5, 960, 932, 204,t
2025-03-10 14:25:31.614,746, 443, 186, -29, -11, -43, -2, 1, 6, 959, 917, 57,t
2025-03-10 14:25:31.672,986, 670, 316, -14, -14, 34, -4, 2, 8, 980, 961, 59,t
2025-03-10 14:25:31.721,642, 509, 677, 31, 0, 23, -4, 1, 6, 972, 945, 114,t
2025-03-10 14:25:31.773,624, 578, 450, -19, 46, -37, -6, 2, 5, 936, 837, 166,t
2025-03-10 14:25:32.358,696, 541, 469, 2, -4, 0, -3, 3, 5, 908, 813, 83,u
2025-03-10 14:25:32.412,692, 541, 466, 2, -4, 0, -2, 4, 5, 906, 812, 78,u
2025-03-10 14:25:32.461,696, 559, 475, 1, -5, 2, -5, 1, 6, 907, 813, 55,u
2025-03-10 14:25:32.511,723, 552, 432, 4, -2, 1, -5, 2, 9, 915, 824, 64,u
2025-03-10 14:25:32.561,706, 546, 467, -2, 2, -1, -4, 0, 8, 912, 820, 66,u
2025-03-10 14:25:32.612,707, 561, 473, 1, 0, 1, -5, 0, 7, 916, 824, 80,u
2025-03-10 14:25:32.666,719, 539, 444, -1, 1, -1, -4, 2, 7, 916, 819, 59,u
2025-03-10 14:25:32.719,692, 559, 475, -3, 1, -1, -1, 2, 7, 913, 810, 49,u
2025-03-10 14:25:32.769,703, 562, 460, -3, 1, 0, -5, 3, 5, 920, 816, 81,u
2025-03-10 14:25:32.821,714, 562, 434, -6, -2, -3, -4, 2, 7, 924, 824, 77,u
2025-03-10 14:25:32.875,579, 548, 500, -24, -12, 0, -7, 3, 6, 935, 848, 39,u
2025-03-10 14:25:32.924,929, 534, 529, 3, 3, 9, -5, 2, 8, 968, 907, 63,u
2025-03-10 14:25:32.981,759, 481, 222, -10, 24, 47, -5, 4, 6, 979, 944, 81,u
2025-03-10 14:25:33.031,705, 333, 770, -7, -2, 7, -7, 8, 1, 974, 956, 56,u
2025-03-10 14:25:33.088,713, 327, 798, 13, -20, -24, -5, 4, 5, 971, 949, 85,u
2025-03-10 14:25:33.141,785, 644, 236, 12, 25, 32, -6, 3, 10, 971, 929, 49,u
2025-03-10 14:25:33.196,754, 339, 437, -10, 19, -13, -4, 3, 5, 958, 888, 74,u
2025-03-10 14:25:33.482,694, 540, 495, -3, 0, -1, -5, 1, 6, 885, 773, 66,v
2025-03-10 14:25:33.534,693, 538, 495, -1, 0, -1, -4, 2, 3, 884, 765, 40,v
2025-03-10 14:25:33.588,661, 528, 489, 1, -2, 2, -4, 2, 3, 884, 769, 43,v
2025-03-10 14:25:33.641,708, 534, 477, -1, -1, -1, -2, 0, 6, 886, 774, 40,v
2025-03-10 14:25:33.691,696, 536, 487, -2, -2, 0, -4, 3, 4, 886, 782, 78,v
2025-03-10 14:25:33.743,682, 539, 490, 0, -3, -2, -5, 1, 6, 887, 786, 82,v
2025-03-10 14:25:33.792,705, 567, 472, -1, -2, 1, -3, 1, 7, 889, 783, 42,v
2025-03-10 14:25:33.851,707, 541, 479, 0, -3, -2, -6, 1, 5, 890, 796, 59,v
2025-03-10 14:25:33.899,663, 537, 472, 2, -7, -8, -5, 2, 5, 896, 811, 77,v
2025-03-10 14:25:33.951,868, 428, 340, -33, 2, -20, -3, 1, 7, 918, 844, 60,v
2025-03-10 14:25:34.002,735, 382, 526, 3, -9, -11, -3, 3, 7, 959, 896, 83,v
2025-03-10 14:25:34.061,667, 672, 183, -31, 15, 59, -5, 2, 7, 979, 938, 36,v
2025-03-10 14:25:34.115,385, 177, 521, -51, -8, 18, -4, 4, 5, 978, 966, 58,v
2025-03-10 14:25:34.170,729, 442, 563, 45, -13, -12, -6, 2, 8, 961, 951, 62,v
2025-03-10 14:25:34.227,770, 455, 177, -23, 68, -22, -4, 3, 7, 944, 886, 140,v
2025-03-10 14:25:34.276,463, 453, 860, -1, -1, -2, -3, 2, 2, 929, 781, 65,v
2025-03-10 14:25:34.333,712, 499, 549, 18, -35, 2, -4, 3, 2, 908, 757, 80,v
2025-03-10 14:25:34.382,802, 580, 333, 7, -8, -8, -5, 3, 4, 875, 701, 55,v
2025-03-10 14:25:34.433,678, 517, 533, -6, 6, -2, -3, 3, 5, 883, 722, 72,v
2025-03-10 14:25:34.943,688, 552, 478, 0, 2, -4, -2, 0, 5, 783, 640, 56,w
2025-03-10 14:25:34.998,676, 550, 482, 0, 2, -3, -5, 3, 3, 777, 637, 53,w
2025-03-10 14:25:35.046,686, 558, 495, 2, -2, -3, -4, 1, 5, 772, 645, 58,w
2025-03-10 14:25:35.100,694, 578, 477, 5, -9, 0, -4, 2, 6, 770, 649, 32,w
2025-03-10 14:25:35.150,730, 559, 436, 2, 1, -1, -5, 1, 7, 796, 675, 53,w
2025-03-10 14:25:35.201,696, 522, 497, 1, 7, -1, -3, 1, 5, 826, 708, 57,w
2025-03-10 14:25:35.251,685, 577, 460, 3, -3, -3, -4, 1, 6, 833, 728, 61,w
2025-03-10 14:25:35.305,657, 498, 547, -3, -18, -13, -1, 1, 5, 840, 761, 37,w
2025-03-10 14:25:35.362,779, 541, 490, 11, -16, -18, -2, 1, 7, 933, 859, 72,w
2025-03-10 14:25:35.414,509, 558, 329, -32, 20, 55, -4, 1, 6, 969, 912, 81,w
2025-03-10 14:25:35.472,716, 602, 488, -36, 13, 26, -3, 4, 6, 966, 934, 84,w
2025-03-10 14:25:35.525,781, 547, 699, 12, -26, -22, -4, 1, 7, 957, 932, 79,w
2025-03-10 14:25:35.578,677, 776, 206, -26, 11, 47, -6, 1, 8, 971, 925, 63,w
2025-03-10 14:25:35.632,753, 308, 822, -31, -7, 16, -7, 5, 7, 968, 944, 84,w
2025-03-10 14:25:35.688,891, 516, 229, 35, -12, -36, -4, 3, 7, 911, 792, 62,w
2025-03-10 14:25:35.742,541, 594, 695, -31, 54, -25, -5, 3, 4, 887, 747, 69,w
2025-03-10 14:25:36.033,699, 556, 472, -3, -1, 0, -6, 2, 6, 793, 603, 75,x
2025-03-10 14:25:36.083,708, 549, 482, -4, -1, -1, -5, 4, 3, 791, 597, 53,x
2025-03-10 14:25:36.135,714, 551, 504, 2, -3, 0, -3, 3, 3, 792, 617, 52,x
2025-03-10 14:25:36.185,714, 558, 457, -2, 0, -1, -5, 3, 5, 797, 631, 79,x
2025-03-10 14:25:36.235,699, 547, 484, -3, 0, 0, -5, 1, 5, 811, 661, 63,x
2025-03-10 14:25:36.292,686, 545, 478, -3, -1, 0, -4, 2, 6, 813, 680, 82,x
2025-03-10 14:25:36.345,668, 540, 493, -1, -5, 1, -7, 3, 5, 826, 687, 40,x
2025-03-10 14:25:36.394,708, 551, 474, 2, -10, 4, -4, 1, 6, 864, 733, 60,x
2025-03-10 14:25:36.447,733, 576, 458, 3, -15, 11, -4, 2, 5, 903, 802, 77,x
2025-03-10 14:25:36.504,658, 628, 522, -37, -4, -9, -4, 1, 8, 945, 916, 35,x
2025-03-10 14:25:36.557,689, 491, 542, 37, -6, -21, -5, 3, 8, 967, 925, 59,x
2025-03-10 14:25:36.611,1067, 594, 203, -4, 39, 22, -4, 3, 8, 968, 885, 41,x
2025-03-10 14:25:36.665,649, 385, 914, -22, 18, 7, -3, 4, 6, 925, 856, 65,x
2025-03-10 14:25:36.714,718, 670, 509, 5, -18, -32, -1, 1, 6, 952, 917, 55,x
2025-03-10 14:25:36.771,395, 591, -142, -15, 15, 65, -5, 3, 8, 981, 948, 72,x
2025-03-10 14:25:36.822,624, 451, 547, 14, 1, 6, -3, 3, 7, 969, 917, 87,x
2025-03-10 14:25:36.876,668, 520, 424, 0, 31, -65, -6, 3, 5, 909, 846, 133,x
2025-03-10 14:25:37.665,710, 558, 466, -1, 0, -2, -7, 1, 7, 848, 742, 43,y
2025-03-10 14:25:37.715,709, 558, 463, -2, 0, -2, -7, 1, 7, 848, 749, 61,y
2025-03-10 14:25:37.765,696, 551, 487, 0, -1, -1, -5, 1, 7, 848, 751, 81,y
2025-03-10 14:25:37.822,697, 562, 447, -2, 1, 0, -3, 2, 6, 842, 748, 54,y
2025-03-10 14:25:37.871,689, 552, 485, -2, 0, 0, -5, 1, 7, 845, 759, 81,y
2025-03-10 14:25:37.926,701, 552, 460, -3, 1, -1, -5, 1, 5, 843, 763, 80,y
2025-03-10 14:25:37.973,698, 559, 477, -1, -1, 1, -4, 1, 5, 842, 762, 80,y
2025-03-10 14:25:38.028,700, 559, 457, -3, 0, -1, -4, 2, 5, 836, 754, 34,y
2025-03-10 14:25:38.081,680, 559, 483, -1, -2, 0, -5, 2, 7, 843, 762, 66,y
2025-03-10 14:25:38.132,627, 505, 547, 3, -12, -2, -5, 1, 7, 850, 780, 79,y
2025-03-10 14:25:38.185,718, 494, 352, -5, -2, -15, -4, 2, 7, 909, 821, 38,y
2025-03-10 14:25:38.241,965, 879, 442, -19, 22, 43, -6, 1, 6, 970, 911, 60,y
2025-03-10 14:25:38.292,683, 637, 260, 7, 24, 30, -2, 3, 6, 970, 931, 43,y
2025-03-10 14:25:38.345,581, 326, 613, 16, -24, -34, -4, 3, 6, 950, 909, 230,y
2025-03-10 14:25:38.401,731, 662, 315, 9, 3, 18, -5, 3, 6, 974, 934, 59,y
2025-03-10 14:25:38.453,814, 683, 429, -19, 39, 44, -5, 5, 6, 972, 912, 84,y
2025-03-10 14:25:38.511,857, 115, 660, -36, 28, -37, -3, 3, 6, 920, 704, 65,y
2025-03-10 14:25:38.564,669, 544, 582, -30, 31, -56, -2, 3, 1, 759, 711, 64,y
2025-03-10 14:25:38.618,470, 634, 760, 9, -18, -14, -1, 1, 1, 784, 721, 41,y
2025-03-10 14:25:38.671,683, 553, 526, 23, -27, 12, -2, 1, 2, 776, 735, 61,y
2025-03-10 14:25:39.006,679, 548, 504, -2, 0, 0, -4, 2, 3, 756, 710, 74,z
2025-03-10 14:25:39.056,680, 541, 500, -2, 0, -1, -3, 2, 3, 750, 698, 66,z
2025-03-10 14:25:39.109,687, 545, 512, -2, 1, -2, -3, 2, 2, 758, 703, 82,z
2025-03-10 14:25:39.156,680, 555, 505, 2, 0, -2, -4, 1, 3, 740, 702, 63,z
2025-03-10 14:25:39.212,672, 561, 519, -3, 0, 0, -2, 2, 3, 737, 702, 59,z
2025-03-10 14:25:39.261,674, 547, 497, -4, 1, 0, -3, 4, 4, 725, 712, 53,z
2025-03-10 14:25:39.314,668, 546, 532, 1, -1, 1, -5, 3, 3, 733, 715, 79,z
2025-03-10 14:25:39.363,676, 554, 483, -4, 1, -1, -2, 1, 4, 742, 706, 79,z
2025-03-10 14:25:39.413,661, 551, 536, 1, -2, -1, -3, 0, 4, 745, 724, 83,z
2025-03-10 14:25:39.467,666, 553, 546, 9, -10, -3, -3, 0, 4, 707, 721, 43,z
2025-03-10 14:25:39.523,706, 554, 473, 5, -13, 0, -3, 2, 3, 732, 732, 78,z
2025-03-10 14:25:39.573,651, 569, 504, 1, -11, -1, -3, 0, 5, 771, 761, 75,z
2025-03-10 14:25:39.626,827, 354, 521, 23, -12, -25, -2, 1, 7, 925, 865, 69,z
2025-03-10 14:25:39.689,707, 732, 170, -26, -26, 33, -6, 1, 8, 969, 954, 85,z
2025-03-10 14:25:39.732,545, 712, 517, 45, 2, 14, -6, 3, 10, 975, 945, 65,z
2025-03-10 14:25:39.790,815, 476, 408, -33, 15, 4, -7, 3, 8, 971, 900, 62,z
2025-03-10 14:25:39.841,876, 375, 505, 2, -5, 27, -5, 1, 7, 980, 960, 58,z
2025-03-10 14:25:39.891,746, 664, 456, 11, 0, 18, -6, 4, 6, 975, 957, 68,z
2025-03-10 14:25:39.948,566, 432, 313, 13, 17, -63, -5, 2, 6, 951, 861, 67,z
2025-03-10 14:25:40.006,737, 815, 593, 32, -20, -15, -3, 2, 10, 969, 926, 81,z
2025-03-10 14:25:40.058,853, 329, 452, -3, -5, 29, -4, 3, 7, 979, 963, 41,z
2025-03-10 14:25:40.111,814, 410, 354, 27, 14, -17, -5, 1, 8, 953, 882, 84,z
2025-03-10 14:25:40.164,637, 563, 491, -64, 70, -35, -4, 4, 2, 882, 544, 60,z
2025-03-10 14:25:40.764,275, 822, 627, 39, 5, 31, 1, -12, -6, 67, 617, 542,0
2025-03-10 14:25:40.815,261, 812, 584, 47, 0, 39, 2, -9, -7, 48, 596, 530,0
2025-03-10 14:25:40.871,397, 812, 488, 42, -14, 89, -1, -11, -6, 47, 531, 514,0
2025-03-10 14:25:40.932,497, 625, 424, -11, 7, 104, -3, -8, -3, 31, 542, 560,0
2025-03-10 14:25:40.981,677, 628, 467, 8, 5, 45, -4, -9, -1, 98, 451, 616,0
2025-03-10 14:25:41.041,523, 632, 466, -27, 32, 47, -2, -8, 0, 821, 237, 644,0
2025-03-10 14:25:41.091,552, 478, 609, 9, 14, 9, -3, -7, -1, 842, 38, 626,0
2025-03-10 14:25:41.146,454, 429, 512, -46, 4, -15, -3, -5, -4, 840, 78, 522,0
2025-03-10 14:25:41.201,601, 522, 593, 38, -13, 4, 4, -3, -4, 859, 41, 521,0
2025-03-10 14:25:41.260,959, 944, 942, 38, -36, -15, 2, -3, -2, 892, 506, 639,0
2025-03-10 14:25:41.318,396, 465, 375, -10, -14, 12, 0, -1, 0, 932, 763, 631,0
2025-03-10 14:25:41.374,639, 500, 349, -17, -17, 22, 0, -1, 1, 949, 856, 665,0
2025-03-10 14:25:41.428,596, 518, 555, -3, -14, 17, -1, 0, 3, 958, 889, 602,0
2025-03-10 14:25:41.481,714, 574, 424, 4, -11, 11, -2, 2, 5, 962, 897, 587,0
2025-03-10 14:25:41.534,766, 573, 394, -7, -4, 6, -4, 0, 8, 965, 903, 550,0
2025-03-10 14:25:41.591,602, 583, 516, -5, -17, 13, -1, 1, 7, 968, 921, 541,0
2025-03-10 14:25:41.649,670, 368, 441, -39, -24, -29, -4, 2, 6, 969, 952, 545,0
2025-03-10 14:25:41.705,798, 192, 901, 40, -23, -34, -4, 2, 8, 973, 939, 411,0
2025-03-10 14:25:41.759,1139, 1212, -293, -32, 52, 73, -4, 1, 9, 983, 953, 61,0
2025-03-10 14:25:41.816,408, 140, 827, -24, -21, -7, -4, 1, 6, 978, 968, 124,0
2025-03-10 14:25:41.873,967, 625, 260, 34, -21, -27, -4, 2, 8, 949, 941, 630,0
2025-03-10 14:25:41.931,685, 675, 377, -26, 80, -21, -3, 0, 6, 945, 909, 571,0
2025-03-10 14:25:41.981,464, 564, 746, 0, 8, 7, -3, 1, 3, 937, 820, 341,0
2025-03-10 14:25:42.366,485, 675, 406, 1, 5, 96, -3, -6, 3, 881, 632, 79,1
2025-03-10 14:25:42.418,536, 652, 436, -1, 6, 97, -5, -5, 3, 879, 633, 72,1
2025-03-10 14:25:42.475,752, 547, 466, 9, -18, 43, -3, -1, 4, 871, 673, 144,1
2025-03-10 14:25:42.529,815, 662, 328, -21, 2, -10, -4, 0, 5, 890, 731, 213,1
2025-03-10 14:25:42.582,590, 595, 589, -9, -8, -5, -3, 0, 5, 912, 778, 46,1
2025-03-10 14:25:42.636,625, 587, 513, 6, -14, 1, -1, -1, 6, 934, 821, 83,1
2025-03-10 14:25:42.688,700, 636, 330, 2, -8, 1, -4, -1, 7, 942, 829, 60,1
2025-03-10 14:25:42.741,681, 614, 430, -3, 0, 11, -5, -1, 10, 949, 850, 80,1
2025-03-10 14:25:42.795,625, 604, 463, -5, 6, 15, -3, -1, 6, 952, 878, 233,1
2025-03-10 14:25:42.844,741, 561, 433, -5, -2, 4, -5, 1, 5, 953, 889, 254,1
2025-03-10 14:25:42.902,690, 586, 455, -11, 3, 1, -5, 0, 7, 956, 899, 268,1
2025-03-10 14:25:42.953,670, 579, 474, -3, -2, 1, -4, 0, 7, 959, 901, 258,1
2025-03-10 14:25:43.004,658, 615, 433, -9, -5, 1, -6, 2, 5, 960, 898, 111,1
2025-03-10 14:25:43.062,1042, 521, 220, 4, -12, -22, -4, 1, 8, 968, 931, 84,1
2025-03-10 14:25:43.119,688, 714, 534, 0, -24, 14, -6, 1, 9, 978, 967, 261,1
2025-03-10 14:25:43.166,550, 441, 776, 26, -4, 4, -4, 0, 7, 981, 970, 337,1
2025-03-10 14:25:43.225,610, 651, 230, -2, 34, 23, -4, -1, 10, 983, 960, 74,1
2025-03-10 14:25:43.277,659, 362, 390, -34, 59, -13, -6, 1, 7, 971, 910, 84,1
2025-03-10 14:25:43.336,775, 812, 553, 44, -26, -31, -4, -1, 7, 974, 928, 62,1
2025-03-10 14:25:43.390,846, 637, 182, -5, -16, 39, -6, 3, 5, 983, 968, 69,1
2025-03-10 14:25:43.446,841, 353, 195, -5, 39, -26, -6, 2, 7, 971, 936, 179,1
2025-03-10 14:25:43.501,569, 582, 658, -75, 58, -48, -2, 0, 1, 944, 766, 90,1
2025-03-10 14:25:43.791,561, 711, 495, -4, -11, -29, -5, -2, 3, 926, 780, 214,2
2025-03-10 14:25:43.849,515, 741, 505, -6, -8, -18, -8, -2, 7, 928, 784, 221,2
2025-03-10 14:25:43.902,577, 674, 452, -1, -6, 44, -2, -3, 4, 946, 840, 218,2
2025-03-10 14:25:43.953,688, 598, 417, 0, -6, 24, -6, 0, 6, 952, 886, 269,2
2025-03-10 14:25:44.009,694, 602, 436, 1, -6, 13, -5, 1, 5, 957, 906, 295,2
2025-03-10 14:25:44.062,690, 600, 431, 1, 0, 2, -4, -2, 7, 958, 913, 313,2
2025-03-10 14:25:44.115,652, 580, 461, -2, -8, 4, -2, 0, 7, 959, 907, 238,2
2025-03-10 14:25:44.163,762, 598, 271, -21, -8, -11, -3, 1, 9, 968, 927, 83,2
2025-03-10 14:25:44.221,576, 721, 384, 0, -19, 22, -4, 0, 7, 980, 959, 60,2
2025-03-10 14:25:44.271,451, 684, 383, -4, 30, 19, -6, 1, 9, 978, 947, 79,2
2025-03-10 14:25:44.328,966, 521, 344, -3, 8, -3, -2, 0, 8, 978, 923, 38,2
2025-03-10 14:25:44.381,845, 556, 253, -33, 7, 45, -3, -1, 9, 985, 964, 72,2
2025-03-10 14:25:44.433,742, 518, 392, 14, 9, 7, -4, 1, 7, 972, 942, 67,2
2025-03-10 14:25:44.957,674, 572, 471, -7, 1, -2, -5, 1, 5, 890, 770, 80,3
2025-03-10 14:25:45.012,666, 570, 477, -6, 0, -2, -6, 2, 5, 890, 771, 75,3
2025-03-10 14:25:45.064,687, 602, 458, -3, -5, 2, -4, -1, 6, 891, 780, 36,3
2025-03-10 14:25:45.114,701, 576, 439, -3, -2, 2, -3, 0, 6, 905, 800, 167,3
2025-03-10 14:25:45.171,673, 587, 464, -6, -2, 2, -4, 0, 6, 913, 818, 168,3
2025-03-10 14:25:45.225,685, 588, 458, -2, -6, 3, -6, 0, 4, 926, 834, 186,3
2025-03-10 14:25:45.273,690, 577, 455, 2, -8, 3, -4, 3, 7, 933, 852, 179,3
2025-03-10 14:25:45.326,605, 583, 501, 2, -20, 2, -3, 2, 5, 936, 872, 178,3
2025-03-10 14:25:45.381,831, 477, 454, -14, -8, -16, -6, 1, 8, 964, 926, 70,3
2025-03-10 14:25:45.435,608, 608, 318, -8, -2, 32, -2, -1, 8, 978, 960, 110,3
2025-03-10 14:25:45.491,518, 618, 331, 2, 15, 16, -6, 3, 9, 977, 952, 66,3
2025-03-10 14:25:45.542,848, 476, 242, 2, 12, -8, -5, 1, 9, 980, 946, 39,3
2025-03-10 14:25:45.593,635, 359, 504, -1, 12, 17, -6, 5, 7, 983, 954, 72,3
2025-03-10 14:25:45.645,657, 381, 345, -2, 18, 7, -4, 2, 7, 976, 931, 61,3
2025-03-10 14:25:45.697,868, 294, 565, 25, 21, -12, -3, 2, 8, 925, 823, 43,3
2025-03-10 14:25:45.755,665, 544, 557, -40, 33, -27, -4, 1, 4, 896, 825, 55,3
2025-03-10 14:25:46.041,688, 566, 472, -4, -9, 0, -5, 0, 6, 911, 846, 108,4
2025-03-10 14:25:46.097,682, 557, 471, -2, -9, 1, -6, 0, 7, 915, 850, 126,4
2025-03-10 14:25:46.151,706, 551, 498, -2, -9, 2, -4, 0, 6, 927, 867, 213,4
2025-03-10 14:25:46.204,732, 570, 427, -6, -9, 0, -4, 0, 7, 936, 887, 264,4
2025-03-10 14:25:46.256,768, 442, 354, -7, -12, -5, -5, 3, 7, 953, 930, 260,4
2025-03-10 14:25:46.309,710, 598, 432, -5, -9, -4, -5, 1, 8, 965, 955, 153,4
2025-03-10 14:25:46.366,613, 458, 586, 28, 3, -10, -6, 2, 10, 974, 941, 85,4
2025-03-10 14:25:46.417,838, 619, 134, -11, 11, 7, -6, 1, 9, 979, 944, 84,4
2025-03-10 14:25:46.469,618, 512, 632, -13, 1, 44, -5, 3, 8, 983, 973, 60,4
2025-03-10 14:25:46.522,676, 501, 495, 18, -6, 3, -5, 1, 9, 970, 959, 110,4
2025-03-10 14:25:46.578,522, 764, 772, 6, -13, -8, -5, 2, 7, 965, 940, 400,4
2025-03-10 14:25:46.631,771, 904, 236, 3, 19, 25, -5, 0, 10, 982, 951, 46,4
2025-03-10 14:25:46.686,821, 810, 283, -3, 47, 53, -5, 3, 10, 979, 918, 78,4
2025-03-10 14:25:46.741,922, 250, 349, 5, 25, -46, -3, 1, 6, 942, 829, 64,4
2025-03-10 14:25:47.026,706, 563, 460, -3, -4, -1, -6, 3, 6, 936, 873, 121,5
2025-03-10 14:25:47.085,701, 564, 469, -5, -4, -1, -4, 2, 5, 936, 877, 118,5
2025-03-10 14:25:47.134,697, 537, 486, -1, -6, 0, -5, 3, 7, 940, 892, 235,5
2025-03-10 14:25:47.191,718, 549, 467, -3, 1, -2, -4, 2, 6, 942, 890, 195,5
2025-03-10 14:25:47.243,634, 542, 501, -4, -5, -3, -4, 2, 6, 948, 890, 145,5
2025-03-10 14:25:47.296,790, 907, 515, 10, -10, -12, -6, 2, 7, 964, 916, 66,5
2025-03-10 14:25:47.351,558, 330, 254, -28, -6, 18, -5, 3, 6, 977, 963, 61,5
2025-03-10 14:25:47.407,612, 230, 613, 35, -9, -18, -5, 3, 9, 970, 947, 93,5
2025-03-10 14:25:47.461,815, 735, 221, 38, -6, -15, -5, 1, 10, 975, 941, 161,5
2025-03-10 14:25:47.514,586, 250, 573, -24, 31, 28, -4, 1, 8, 982, 952, 74,5
2025-03-10 14:25:47.567,560, 426, 458, 18, 19, -6, -5, 3, 6, 965, 913, 79,5
2025-03-10 14:25:47.624,990, 562, 274, -9, 34, -36, -7, 2, 7, 888, 834, 225,5
2025-03-10 14:25:47.902,704, 564, 467, -7, -5, 2, -5, 0, 6, 919, 855, 134,6
2025-03-10 14:25:47.955,707, 558, 465, -6, -6, 1, -3, 4, 8, 919, 858, 209,6
2025-03-10 14:25:48.006,684, 552, 468, -6, -6, 2, -4, 0, 5, 929, 878, 223,6
2025-03-10 14:25:48.063,705, 568, 475, -2, -6, 4, -5, 2, 7, 935, 892, 243,6
2025-03-10 14:25:48.114,654, 548, 465, 0, -19, 7, -4, 1, 7, 943, 910, 248,6
2025-03-10 14:25:48.169,689, 588, 394, -22, -2, -14, -5, 2, 8, 954, 940, 125,6
2025-03-10 14:25:48.222,370, 349, 496, 20, 3, -21, -6, 2, 8, 967, 941, 77,6
2025-03-10 14:25:48.279,1186, 1178, -48, -39, 44, 47, -6, 2, 6, 981, 946, 39,6
2025-03-10 14:25:48.333,581, 551, 747, -23, 20, 30, -4, 1, 5, 980, 968, 87,6
2025-03-10 14:25:48.391,703, 598, 343, 72, -26, -50, -2, 1, 6, 952, 944, 209,6
2025-03-10 14:25:48.442,921, 580, 289, -38, 59, -32, -5, 1, 7, 924, 888, 211,6
2025-03-10 14:25:48.742,668, 553, 494, -1, -6, 0, -5, 1, 5, 931, 873, 114,7
2025-03-10 14:25:48.795,684, 573, 484, -1, -7, 0, -4, 2, 5, 933, 876, 128,7
2025-03-10 14:25:48.849,666, 549, 487, -2, -7, -1, -3, 2, 5, 934, 884, 194,7
2025-03-10 14:25:48.901,607, 559, 516, 6, -24, 4, -4, 1, 4, 939, 898, 237,7
2025-03-10 14:25:48.955,794, 401, 250, -12, -4, -7, -4, 0, 7, 963, 941, 67,7
2025-03-10 14:25:49.007,702, 391, 643, 10, 3, 23, -5, 3, 8, 973, 961, 51,7
2025-03-10 14:25:49.062,685, 505, 520, 57, 8, 3, -6, 2, 8, 980, 947, 57,7
2025-03-10 14:25:49.111,777, 543, -41, 4, 34, 18, -6, 2, 8, 978, 941, 62,7
2025-03-10 14:25:49.169,542, 109, 740, -19, -14, -59, -5, 2, 6, 963, 899, 58,7
2025-03-10 14:25:49.221,859, 369, 273, 7, -19, -13, -6, 2, 7, 976, 958, 76,7
2025-03-10 14:25:49.271,360, 669, 453, -9, 4, 37, -7, 2, 8, 978, 963, 67,7
2025-03-10 14:25:49.322,785, 348, 181, -7, 42, -46, -5, 1, 9, 959, 915, 201,7
2025-03-10 14:25:49.623,699, 548, 491, -1, -1, 3, -5, 1, 5, 941, 848, 57,8
2025-03-10 14:25:49.672,708, 556, 478, 0, -2, 3, -2, 2, 7, 942, 849, 62,8
2025-03-10 14:25:49.723,707, 565, 442, -3, 0, 1, -2, 3, 9, 941, 852, 53,8
2025-03-10 14:25:49.771,680, 555, 472, -1, -6, 6, -3, 0, 5, 944, 869, 90,8
2025-03-10 14:25:49.831,613, 536, 534, 4, -20, 13, -6, 1, 8, 954, 904, 126,8
2025-03-10 14:25:49.881,902, 718, 454, -29, 2, -12, -4, 3, 9, 962, 943, 58,8
2025-03-10 14:25:49.939,1197, 420, 454, 44, 2, -20, -4, 2, 7, 973, 942, 79,8
2025-03-10 14:25:49.991,441, 303, 361, -23, 35, 73, -4, 4, 6, 983, 960, 48,8
2025-03-10 14:25:50.046,659, 315, 901, -6, -25, -11, -5, 4, 6, 979, 974, 69,8
2025-03-10 14:25:50.107,1239, 618, 257, -27, -43, -47, -4, 2, 6, 975, 975, 259,8
2025-03-10 14:25:50.159,627, 851, 277, -7, 5, 20, -5, 3, 7, 983, 972, 48,8
2025-03-10 14:25:50.213,903, 415, 288, 12, 27, 19, -4, 3, 7, 978, 953, 64,8
2025-03-10 14:25:50.509,737, 575, 406, 0, -4, 4, -5, 1, 7, 951, 899, 98,9
2025-03-10 14:25:50.562,749, 573, 405, -1, -2, 4, -7, 3, 7, 949, 901, 107,9
2025-03-10 14:25:50.615,710, 564, 443, -4, -2, 2, -6, 2, 7, 951, 904, 112,9
2025-03-10 14:25:50.664,689, 541, 431, -5, -12, 5, -4, -1, 5, 959, 918, 96,9
2025-03-10 14:25:50.726,627, 631, 501, -28, -4, -14, -4, 3, 7, 966, 949, 77,9
2025-03-10 14:25:50.778,693, 523, 349, 47, 10, -16, -3, 1, 10, 976, 948, 59,9
2025-03-10 14:25:50.831,686, 361, 239, -23, 47, 56, -5, 2, 8, 984, 964, 58,9
2025-03-10 14:25:50.885,556, 161, 710, 0, -22, -24, -5, 2, 5, 974, 961, 65,9
2025-03-10 14:25:50.941,811, 671, 469, 30, -22, -16, -5, 2, 7, 978, 956, 188,9
2025-03-10 14:25:50.993,583, 352, 376, -26, 48, 43, -5, 2, 7, 983, 960, 79,9
2025-03-10 14:25:51.053,647, 365, 532, -11, 32, -16, -2, 6, 2, 961, 875, 58,9
2025-03-10 14:25:51.364,710, 588, 436, 0, -5, -3, -2, 0, 4, 884, 742, 54,+
2025-03-10 14:25:51.415,710, 577, 434, 1, -4, -3, -2, 0, 4, 882, 748, 52,+
2025-03-10 14:25:51.462,678, 566, 490, 4, 2, -9, -3, 0, 6, 882, 763, 163,+
2025-03-10 14:25:51.518,682, 583, 463, 4, -4, -6, -2, -1, 5, 885, 776, 203,+
2025-03-10 14:25:51.572,660, 600, 490, -6, 0, 0, -4, -1, 5, 910, 808, 236,+
2025-03-10 14:25:51.623,678, 566, 460, 0, -9, 5, 0, -1, 4, 930, 822, 197,+
2025-03-10 14:25:51.679,703, 577, 479, -5, 1, 4, -3, -1, 7, 939, 838, 180,+
2025-03-10 14:25:51.732,714, 576, 453, 0, -6, 3, -4, 1, 7, 944, 856, 181,+
2025-03-10 14:25:51.781,689, 573, 465, -4, -2, 1, -5, 4, 6, 944, 864, 196,+
2025-03-10 14:25:51.838,713, 568, 456, -1, -9, 4, -4, 2, 6, 946, 891, 278,+
2025-03-10 14:25:51.891,647, 572, 476, -5, -6, 1, -4, 1, 6, 949, 902, 312,+
2025-03-10 14:25:51.946,716, 561, 436, -7, -6, -7, -3, 3, 6, 950, 911, 298,+
2025-03-10 14:25:51.995,599, 570, 526, -11, -19, 0, -3, 1, 7, 958, 926, 293,+
2025-03-10 14:25:52.056,723, 334, 528, 6, -25, -15, -6, 3, 6, 976, 951, 111,+
2025-03-10 14:25:52.108,664, 802, 71, 29, 49, 55, -7, 3, 10, 984, 950, 48,+
2025-03-10 14:25:52.157,656, 463, 563, 5, 28, 15, -5, 3, 9, 973, 920, 65,+
2025-03-10 14:25:52.212,751, 543, 656, -40, -21, -53, -4, 1, 6, 964, 898, 61,+
2025-03-10 14:25:52.264,758, 816, 213, -9, -28, 26, -6, 2, 7, 981, 965, 86,+
2025-03-10 14:25:52.322,660, 579, 543, 33, 8, 25, -6, 1, 7, 974, 945, 66,+
2025-03-10 14:25:52.375,608, 575, 304, -28, 62, -61, -4, 3, 4, 938, 856, 281,+
2025-03-10 14:25:52.625,711, 561, 430, -5, 2, 0, -2, -1, 5, 928, 835, 161,-
2025-03-10 14:25:52.681,702, 558, 446, -5, 2, 0, -6, 3, 5, 927, 834, 151,-
2025-03-10 14:25:52.731,656, 552, 503, -3, 1, 0, -3, 0, 4, 928, 834, 46,-
2025-03-10 14:25:52.785,696, 559, 446, 1, -4, 2, -4, 1, 7, 930, 838, 108,-
2025-03-10 14:25:52.834,699, 553, 483, -2, -1, 2, -4, 0, 5, 934, 847, 78,-
2025-03-10 14:25:52.888,704, 556, 469, 3, -5, 4, -3, 0, 6, 942, 855, 104,-
2025-03-10 14:25:52.941,697, 545, 450, -3, 1, -1, -2, 2, 7, 942, 841, 40,-
2025-03-10 14:25:52.991,674, 556, 466, 0, -1, -5, -4, 1, 5, 943, 847, 59,-
2025-03-10 14:25:53.046,649, 662, 572, -12, 0, -18, -5, 1, 7, 961, 870, 76,-
2025-03-10 14:25:53.100,853, 858, 711, 8, -35, 19, -2, 2, 10, 981, 957, 66,-
2025-03-10 14:25:53.153,790, 633, 276, -16, -2, 30, -5, 3, 8, 987, 973, 72,-
2025-03-10 14:25:53.204,735, 589, 417, 25, -2, 3, -6, 2, 9, 978, 952, 59,-
2025-03-10 14:25:53.261,831, 540, 169, -22, 52, -55, -5, 1, 8, 949, 842, 250,-
2025-03-10 14:25:53.311,590, 519, 746, -9, 7, -9, -5, 2, 2, 925, 721, 55,-
2025-03-10 14:25:53.585,683, 583, 463, -7, -1, -1, -4, 0, 6, 906, 752, 38,÷
2025-03-10 14:25:53.641,686, 575, 460, -7, -1, 0, -5, 1, 5, 909, 757, 60,÷
2025-03-10 14:25:53.691,692, 551, 462, -3, -1, -1, -4, 1, 5, 913, 765, 101,÷
2025-03-10 14:25:53.746,687, 574, 470, -3, 0, -1, -4, 4, 5, 914, 774, 167,÷
2025-03-10 14:25:53.795,696, 559, 467, -2, 0, 0, -4, 0, 6, 920, 788, 195,÷
2025-03-10 14:25:53.851,683, 546, 478, -4, 1, 0, -4, 1, 6, 920, 795, 161,÷
2025-03-10 14:25:53.904,715, 566, 458, -3, -2, 0, -3, 0, 7, 923, 812, 181,÷
2025-03-10 14:25:53.953,675, 561, 500, 1, 0, 1, -3, 1, 4, 929, 822, 194,÷
2025-03-10 14:25:54.006,703, 576, 458, 4, -6, 0, -5, 2, 5, 930, 827, 182,÷
2025-03-10 14:25:54.059,725, 561, 440, 4, -4, -1, -3, 1, 6, 930, 830, 181,÷
2025-03-10 14:25:54.112,704, 567, 467, -2, 1, -2, -4, 0, 7, 931, 845, 209,÷
2025-03-10 14:25:54.166,731, 576, 446, -1, 0, 2, -4, 0, 9, 935, 851, 161,÷
2025-03-10 14:25:54.218,664, 571, 510, 0, -1, -3, -1, -2, 7, 940, 857, 183,÷
2025-03-10 14:25:54.271,661, 566, 436, -12, 5, -7, -3, 2, 6, 946, 853, 60,÷
2025-03-10 14:25:54.325,701, 555, 424, -6, -5, -16, -5, 3, 5, 957, 890, 84,÷
2025-03-10 14:25:54.374,768, 643, 435, 4, -6, 2, -4, 1, 7, 968, 924, 85,÷
2025-03-10 14:25:54.432,702, 614, 514, 17, -12, -4, -5, 1, 8, 973, 946, 58,÷
2025-03-10 14:25:54.481,694, 589, 404, 2, 1, 1, -3, 1, 8, 974, 951, 82,÷
2025-03-10 14:25:54.528,683, 561, 450, 1, -1, -5, -4, 2, 7, 974, 950, 61,÷
2025-03-10 14:25:54.583,690, 578, 452, 6, -2, -6, -4, 2, 8, 979, 956, 68,÷
2025-03-10 14:25:54.632,657, 505, 433, -14, 5, 13, -3, 2, 5, 980, 965, 63,÷
2025-03-10 14:25:54.693,603, 350, 609, 18, -19, -23, -3, 0, 8, 971, 958, 242,÷
2025-03-10 14:25:54.748,917, 934, 169, 4, 39, 34, -4, 1, 8, 965, 930, 413,÷
2025-03-10 14:25:54.791,407, 597, 687, -2, 25, 24, -4, 0, 6, 969, 936, 238,÷
2025-03-10 14:25:54.854,631, 929, 523, 15, -8, -24, 1, 1, 8, 973, 947, 236,÷
2025-03-10 14:25:54.907,770, 576, 348, 0, -13, -11, -5, 1, 7, 982, 951, 62,÷
2025-03-10 14:25:54.959,701, 520, 376, -30, 23, 32, -3, 3, 5, 982, 956, 56,÷
2025-03-10 14:25:55.017,645, 321, 438, 32, -1, -41, -3, 2, 5, 964, 927, 244,÷
2025-03-10 14:25:55.071,580, 592, 881, 22, -20, -8, -3, 2, 4, 946, 886, 268,÷
2025-03-10 14:25:55.127,919, 1144, 465, -29, -26, 14, -3, 0, 7, 981, 953, 57,÷
2025-03-10 14:25:55.181,811, 493, 364, -8, -10, 30, -4, 2, 8, 985, 967, 60,÷
2025-03-10 14:25:55.235,620, 533, 476, 32, 10, 6, -4, 1, 8, 963, 918, 104,÷
2025-03-10 14:25:55.292,666, 628, 443, -37, 71, -37, -4, 1, 3, 918, 763, 170,÷
2025-03-10 14:25:55.591,688, 566, 461, -4, -6, 3, -3, 2, 3, 907, 799, 229,=
2025-03-10 14:25:55.644,677, 569, 454, -4, -5, 2, -1, 3, 6, 911, 809, 244,=
2025-03-10 14:25:55.695,680, 576, 475, -2, -2, 0, -3, 2, 3, 914, 815, 260,=
2025-03-10 14:25:55.751,665, 584, 479, -6, 2, 1, -4, 2, 5, 918, 824, 268,=
2025-03-10 14:25:55.801,689, 561, 469, -3, -1, 2, -1, 1, 4, 921, 828, 255,=
2025-03-10 14:25:55.853,677, 561, 483, -6, 0, 1, -3, 2, 4, 929, 840, 285,=
2025-03-10 14:25:55.906,699, 551, 490, -1, -4, 3, -2, 2, 5, 936, 842, 260,=
2025-03-10 14:25:55.959,686, 560, 484, -3, -1, 1, -4, 0, 6, 939, 846, 248,=
2025-03-10 14:25:56.011,681, 535, 491, 1, -2, 3, -4, 2, 5, 943, 855, 247,=
2025-03-10 14:25:56.063,717, 540, 456, 0, -1, 0, -4, 2, 5, 944, 854, 248,=
2025-03-10 14:25:56.113,665, 554, 497, -5, 1, -3, -4, 1, 5, 945, 859, 261,=
2025-03-10 14:25:56.169,651, 539, 500, 2, -9, -4, -3, 1, 4, 946, 869, 270,=
2025-03-10 14:25:56.225,902, 529, 309, -12, -7, -22, -4, 3, 6, 959, 913, 153,=
2025-03-10 14:25:56.278,441, 750, 33, -17, -21, 47, -4, 2, 6, 981, 965, 68,=
2025-03-10 14:25:56.331,578, 465, 654, 49, -3, 0, -3, 2, 10, 978, 953, 63,=
2025-03-10 14:25:56.385,461, 650, 496, 6, 43, -38, -5, 2, 7, 958, 873, 184,=
2025-03-10 14:25:56.438,938, 634, 77, -16, -19, 9, -2, 1, 8, 978, 948, 75,=
2025-03-10 14:25:56.492,889, 611, 428, -9, 12, 38, -5, 3, 8, 980, 963, 72,=
2025-03-10 14:25:56.549,893, 340, 213, -12, 57, -41, -6, 3, 3, 956, 869, 51,=
2025-03-10 14:25:56.602,484, 545, 845, -32, 57, -27, -1, 1, 1, 899, 625, 64,=
2025-03-10 14:25:56.905,689, 577, 480, -8, -1, -3, -3, 0, 4, 891, 744, 55,≠
2025-03-10 14:25:56.957,688, 571, 488, -9, 0, -2, -3, 1, 5, 891, 751, 56,≠
2025-03-10 14:25:57.011,682, 569, 504, -1, -4, -2, -3, 1, 4, 893, 771, 59,≠
2025-03-10 14:25:57.061,712, 558, 475, -7, -2, 0, -2, 2, 4, 907, 802, 85,≠
2025-03-10 14:25:57.115,681, 530, 526, -5, -2, 0, -2, 3, 3, 915, 816, 77,≠
2025-03-10 14:25:57.167,692, 559, 508, 1, -10, 0, -3, 2, 6, 927, 823, 57,≠
2025-03-10 14:25:57.216,707, 528, 474, 0, -5, 1, -4, 2, 5, 931, 829, 71,≠
2025-03-10 14:25:57.266,700, 547, 469, 6, -7, 1, -3, 2, 4, 932, 834, 44,≠
2025-03-10 14:25:57.319,735, 555, 442, 0, -1, -4, -4, 0, 7, 931, 840, 38,≠
2025-03-10 14:25:57.372,686, 555, 492, -2, 1, -2, -3, 3, 6, 932, 852, 78,≠
2025-03-10 14:25:57.425,707, 560, 438, 1, -2, -4, -4, 1, 6, 931, 855, 161,≠
2025-03-10 14:25:57.477,815, 599, 548, 15, -15, 16, -2, 1, 7, 937, 894, 222,≠
2025-03-10 14:25:57.536,597, 554, 395, -11, 11, -6, -4, 3, 6, 946, 914, 282,≠
2025-03-10 14:25:57.589,581, 600, 512, -13, -1, -9, -4, 0, 4, 949, 896, 141,≠
2025-03-10 14:25:57.644,1102, 354, 244, -2, -2, -29, -1, 1, 6, 961, 893, 32,≠
2025-03-10 14:25:57.701,683, 666, 331, -10, -37, 51, -5, 1, 8, 981, 965, 70,≠
2025-03-10 14:25:57.750,541, 469, 651, 34, 4, 9, -7, 4, 7, 979, 961, 83,≠
2025-03-10 14:25:57.807,554, 505, 421, -5, 42, -32, -4, 3, 9, 961, 872, 79,≠
2025-03-10 14:25:57.859,797, 379, 441, 19, -18, -13, -4, 2, 7, 975, 920, 54,≠
2025-03-10 14:25:57.911,543, 277, 46, -23, 7, 41, -7, 3, 6, 983, 964, 85,≠
2025-03-10 14:25:57.967,737, 129, 373, -2, -4, -59, -5, 2, 7, 969, 935, 47,≠
2025-03-10 14:25:58.020,552, 605, 1026, 8, -70, 21, -4, 0, 8, 971, 940, 118,≠
2025-03-10 14:25:58.073,564, 750, 305, 8, 12, 4, -7, 0, 11, 985, 946, 42,≠
2025-03-10 14:25:58.125,916, 490, 211, 12, 43, 23, -2, 1, 9, 972, 888, 73,≠
2025-03-10 14:25:58.179,981, 555, 670, -7, 37, 0, -3, 2, 7, 922, 803, 65,≠
2025-03-10 14:25:58.231,627, 649, 624, -57, 27, -32, -4, 1, 2, 900, 828, 40,≠
2025-03-10 14:25:58.531,683, 561, 496, -2, -2, -1, -2, 2, 4, 903, 785, 48,≈
2025-03-10 14:25:58.589,684, 567, 487, -3, -3, 0, -2, 2, 4, 904, 788, 45,≈
2025-03-10 14:25:58.639,684, 539, 506, 1, -3, 0, -4, 1, 4, 908, 800, 44,≈
2025-03-10 14:25:58.691,711, 546, 475, -3, -1, 0, -2, 1, 6, 912, 805, 47,≈
2025-03-10 14:25:58.741,677, 533, 515, -5, 2, 0, -3, 1, 2, 925, 816, 83,≈
2025-03-10 14:25:58.795,683, 560, 492, -5, 0, -2, -5, 2, 4, 929, 812, 77,≈
2025-03-10 14:25:58.844,673, 533, 505, 4, -2, -1, -3, 2, 6, 928, 825, 59,≈
2025-03-10 14:25:58.901,729, 540, 496, 10, -5, 0, -4, 3, 5, 925, 834, 55,≈
2025-03-10 14:25:58.944,716, 551, 440, 1, -2, -3, -4, 3, 5, 926, 837, 55,≈
2025-03-10 14:25:59.001,659, 559, 481, 7, -1, -1, -3, 2, 5, 927, 856, 168,≈
2025-03-10 14:25:59.056,698, 556, 436, 0, 0, -6, -4, 3, 5, 928, 857, 189,≈
2025-03-10 14:25:59.111,647, 580, 502, 0, -1, -6, -2, 2, 6, 931, 856, 194,≈
2025-03-10 14:25:59.161,736, 531, 446, 8, -5, -19, -3, 1, 7, 940, 871, 60,≈
2025-03-10 14:25:59.211,691, 534, 405, 1, 1, -3, -3, 1, 6, 942, 874, 69,≈
2025-03-10 14:25:59.261,689, 561, 463, -6, -4, -3, -4, 1, 7, 950, 879, 63,≈
2025-03-10 14:25:59.317,642, 557, 455, -3, 3, -4, -3, 1, 6, 953, 885, 51,≈
2025-03-10 14:25:59.367,697, 562, 449, -2, 2, 0, -3, 0, 8, 952, 888, 59,≈
2025-03-10 14:25:59.421,748, 454, 520, 3, -6, -7, -4, 1, 4, 960, 926, 60,≈
2025-03-10 14:25:59.475,679, 539, 334, -11, -26, 15, -2, 1, 7, 976, 955, 115,≈
2025-03-10 14:25:59.526,712, 440, 243, 5, 8, 23, -4, 1, 7, 983, 961, 73,≈
2025-03-10 14:25:59.577,728, 510, 471, 12, 8, 12, -4, 2, 8, 981, 959, 86,≈
2025-03-10 14:25:59.634,701, 346, 321, 10, 54, -34, -7, -1, 9, 966, 914, 82,≈
2025-03-10 14:25:59.683,694, 601, 627, 8, -23, 7, -4, 0, 6, 959, 872, 61,≈
2025-03-10 14:25:59.741,802, 697, 478, -12, -4, -2, -3, 3, 9, 976, 948, 56,≈
2025-03-10 14:25:59.789,722, 324, 427, 3, -7, 5, -5, 2, 8, 982, 960, 79,≈
2025-03-10 14:25:59.846,709, 766, 286, -20, 16, 33, -5, 1, 7, 984, 958, 72,≈
2025-03-10 14:25:59.894,735, 536, 588, 7, 13, 31, -6, 3, 6, 977, 954, 40,≈
2025-03-10 14:25:59.951,703, 566, 356, -25, 57, -36, -4, 2, 5, 954, 911, 86,≈
2025-03-10 14:26:00.005,473, 580, 737, -16, 9, -10, -2, 2, 2, 944, 820, 63,≈
2025-03-10 14:26:00.297,678, 550, 517, -3, -1, -2, -3, 1, 4, 909, 775, 63,<
2025-03-10 14:26:00.346,673, 541, 521, -2, -2, -1, -4, 1, 4, 912, 780, 84,<
2025-03-10 14:26:00.399,695, 541, 487, 3, -4, 0, -2, 1, 4, 916, 799, 59,<
2025-03-10 14:26:00.453,678, 546, 503, -2, -1, 1, -4, 2, 3, 923, 814, 56,<
2025-03-10 14:26:00.503,691, 531, 485, 0, -3, -2, -3, 2, 2, 926, 819, 44,<
2025-03-10 14:26:00.554,684, 534, 504, -2, -3, -2, -3, 1, 4, 929, 830, 93,<
2025-03-10 14:26:00.607,700, 547, 479, 5, -5, -3, -4, 2, 5, 929, 834, 145,<
2025-03-10 14:26:00.661,695, 547, 465, 0, -4, 1, -4, 2, 2, 931, 844, 159,<
2025-03-10 14:26:00.715,707, 529, 505, 1, -1, 2, -3, 2, 5, 932, 849, 136,<
2025-03-10 14:26:00.764,693, 543, 468, 2, 0, -3, -3, 2, 5, 934, 857, 120,<
2025-03-10 14:26:00.817,744, 594, 494, 2, -6, 2, -3, 2, 7, 936, 863, 118,<
2025-03-10 14:26:00.871,683, 524, 498, -2, -13, 2, -3, 4, 4, 946, 889, 145,<
2025-03-10 14:26:00.927,736, 273, 10, -60, -16, -10, -3, 2, 7, 958, 921, 131,<
2025-03-10 14:26:00.981,678, 528, 482, -23, -9, -5, -5, 1, 6, 969, 946, 71,<
2025-03-10 14:26:01.031,555, 779, 536, 11, 7, -15, -2, 4, 5, 975, 929, 36,<
2025-03-10 14:26:01.088,863, 605, 152, -1, 13, 10, -5, 1, 8, 982, 938, 86,<
2025-03-10 14:26:01.141,548, 119, 311, 0, 17, 34, -6, 3, 6, 983, 960, 49,<
2025-03-10 14:26:01.191,666, 500, 523, 31, 8, 6, -3, 3, 7, 970, 929, 85,<
2025-03-10 14:26:01.243,710, 573, 332, -13, 51, -42, -4, 3, 4, 935, 824, 86,<
2025-03-10 14:26:01.542,721, 545, 464, 9, -16, 4, -4, 2, 6, 944, 884, 229,≤
2025-03-10 14:26:01.591,729, 560, 443, 8, -15, 3, -1, 4, 8, 946, 886, 236,≤
2025-03-10 14:26:01.645,754, 556, 426, -1, -4, 2, -5, 2, 8, 949, 901, 250,≤
2025-03-10 14:26:01.695,701, 549, 464, -3, -2, 3, -4, 2, 6, 953, 907, 228,≤
2025-03-10 14:26:01.751,704, 547, 439, -3, -8, 1, -6, 3, 5, 958, 921, 225,≤
2025-03-10 14:26:01.801,724, 549, 457, -8, -2, -3, -3, 1, 7, 965, 940, 60,≤
2025-03-10 14:26:01.856,713, 543, 450, -8, 1, -4, -4, 2, 7, 971, 954, 82,≤
2025-03-10 14:26:01.911,662, 460, 507, 7, -7, -8, -5, 2, 6, 973, 955, 67,≤
2025-03-10 14:26:01.964,395, 583, 454, 39, 9, -10, -7, 1, 9, 976, 940, 59,≤
2025-03-10 14:26:02.017,895, 637, 287, -10, 23, 10, -4, 1, 9, 977, 932, 86,≤
2025-03-10 14:26:02.070,645, 521, 301, -48, -3, 52, -5, 2, 6, 986, 966, 85,≤
2025-03-10 14:26:02.124,666, 463, 593, 13, -2, 11, -7, 4, 6, 986, 969, 84,≤
2025-03-10 14:26:02.178,696, 428, 271, 30, 47, -5, -5, 3, 8, 968, 913, 62,≤
2025-03-10 14:26:02.230,691, 661, 864, 14, -14, 31, 0, -1, 6, 963, 841, 55,≤
2025-03-10 14:26:02.283,976, 980, 575, -17, -16, 44, -3, 3, 6, 983, 960, 85,≤
2025-03-10 14:26:02.334,614, 486, 551, 3, 2, 25, -3, 3, 7, 983, 963, 62,≤
2025-03-10 14:26:02.390,771, 343, 419, 27, 26, -43, -5, 3, 5, 952, 877, 75,≤
2025-03-10 14:26:02.724,674, 520, 498, 1, -10, -2, -4, 3, 5, 932, 833, 58,>
2025-03-10 14:26:02.779,704, 520, 517, -1, -10, -2, -4, 0, 5, 934, 840, 56,>
2025-03-10 14:26:02.832,732, 563, 448, 1, -7, -2, -4, 1, 5, 940, 860, 119,>
2025-03-10 14:26:02.885,708, 543, 474, -2, -3, -1, -5, -2, 8, 943, 873, 187,>
2025-03-10 14:26:02.940,696, 557, 492, -3, -3, 1, -6, 1, 6, 948, 894, 243,>
2025-03-10 14:26:02.996,712, 543, 448, -1, -4, -3, -4, 1, 5, 950, 896, 214,>
2025-03-10 14:26:03.045,628, 521, 560, 4, -16, 1, -5, 0, 6, 952, 901, 198,>
2025-03-10 14:26:03.101,706, 568, 483, -25, -4, -12, -6, 2, 7, 964, 928, 59,>
2025-03-10 14:26:03.154,692, 547, 332, 6, -19, 16, -5, 2, 8, 978, 956, 60,>
2025-03-10 14:26:03.204,707, 585, 557, 2, -4, 9, -6, 4, 7, 979, 958, 61,>
2025-03-10 14:26:03.259,583, 303, 469, 23, 17, 1, -6, 4, 7, 980, 951, 75,>
2025-03-10 14:26:03.308,776, 791, 245, 9, 23, 5, -4, 2, 7, 977, 928, 87,>
2025-03-10 14:26:03.360,875, 777, 587, 2, 32, 33, -4, 2, 7, 958, 880, 85,>
2025-03-10 14:26:03.419,621, 626, 436, -42, 49, -28, -2, 1, 3, 939, 848, 53,>
2025-03-10 14:26:03.471,431, 527, 750, -10, 0, -5, -1, 1, -1, 940, 815, 63,>
2025-03-10 14:26:03.779,730, 524, 453, 1, -6, -1, -4, 1, 6, 934, 860, 87,≥
2025-03-10 14:26:03.831,714, 542, 450, 2, -4, -1, -2, 1, 7, 932, 862, 83,≥
2025-03-10 14:26:03.885,719, 555, 439, -4, -2, -2, -5, 3, 4, 935, 866, 44,≥
2025-03-10 14:26:03.938,657, 558, 520, 2, -4, 1, -3, 2, 6, 941, 876, 102,≥
2025-03-10 14:26:03.992,659, 558, 517, 13, -31, 7, -5, 2, 5, 943, 892, 103,≥
2025-03-10 14:26:04.044,1067, 472, 547, 3, -9, 6, -5, 3, 8, 967, 941, 61,≥
2025-03-10 14:26:04.098,670, 527, 491, -16, -4, 14, -5, 3, 6, 975, 956, 70,≥
2025-03-10 14:26:04.151,689, 413, 502, 30, 0, -4, -7, 3, 8, 980, 954, 53,≥
2025-03-10 14:26:04.201,678, 726, 47, 7, 41, 22, -6, 2, 7, 981, 936, 80,≥
2025-03-10 14:26:04.253,820, 578, 702, 13, 35, 26, -4, 3, 5, 965, 877, 69,≥
2025-03-10 14:26:04.302,351, 607, 763, -4, 23, -5, 0, 4, 2, 956, 839, 44,≥
2025-03-10 14:26:04.359,951, 190, 7, 36, -15, -26, -2, 3, 6, 972, 888, 61,≥
2025-03-10 14:26:04.412,981, 274, 395, -37, -14, 55, -4, 3, 7, 984, 965, 87,≥
2025-03-10 14:26:04.461,697, 361, 436, 26, 4, 8, -4, 3, 6, 979, 958, 68,≥
2025-03-10 14:26:04.521,836, 434, 153, -4, 52, -64, -4, 3, 5, 943, 856, 72,≥
2025-03-10 14:26:04.806,654, 556, 506, 0, -3, 1, -4, 1, 2, 910, 806, 228,±
2025-03-10 14:26:04.859,662, 551, 515, 2, -3, 2, -3, 1, 5, 909, 802, 205,±
2025-03-10 14:26:04.912,686, 539, 500, 2, -6, 2, -3, 2, 5, 918, 817, 209,±
2025-03-10 14:26:04.963,705, 553, 463, -2, -1, 1, -5, 2, 2, 922, 827, 234,±
2025-03-10 14:26:05.016,697, 537, 507, -4, 0, 1, -4, 2, 5, 930, 833, 225,±
2025-03-10 14:26:05.068,700, 542, 490, -3, -2, 1, -3, 0, 3, 931, 837, 223,±
2025-03-10 14:26:05.123,674, 537, 484, -3, -4, 0, -2, 0, 6, 937, 853, 271,±
2025-03-10 14:26:05.174,699, 548, 492, -4, -4, -2, -4, 3, 4, 937, 855, 265,±
2025-03-10 14:26:05.229,690, 545, 485, 0, -6, -1, -2, 2, 6, 941, 862, 263,±
2025-03-10 14:26:05.282,743, 554, 458, 2, -7, 3, -5, 2, 5, 944, 871, 287,±
2025-03-10 14:26:05.331,691, 546, 489, -2, 3, -3, -5, 2, 5, 944, 871, 241,±
2025-03-10 14:26:05.388,658, 547, 509, 5, 2, -5, -2, 1, 4, 947, 869, 279,±
2025-03-10 14:26:05.441,704, 520, 439, 8, -7, -13, -4, 1, 6, 942, 860, 275,±
2025-03-10 14:26:05.494,645, 604, 581, 0, -18, -3, -5, 1, 6, 940, 858, 154,±
2025-03-10 14:26:05.549,713, 608, 454, -14, -3, -14, -4, 1, 7, 964, 894, 85,±
2025-03-10 14:26:05.605,1101, 904, 666, -27, -33, 34, -4, 1, 9, 981, 958, 60,±
2025-03-10 14:26:05.655,345, 468, 481, 4, -3, 27, -4, 2, 9, 983, 964, 57,±
2025-03-10 14:26:05.713,710, 360, 402, 14, -13, -43, -7, 3, 7, 967, 941, 366,±
2025-03-10 14:26:05.767,1136, 351, 775, -19, -6, -13, -3, 2, 7, 973, 944, 387,±
2025-03-10 14:26:05.827,863, 809, 185, -14, 36, 36, -4, -1, 11, 985, 945, 55,±
2025-03-10 14:26:05.879,557, 362, 587, 41, 33, 21, -6, 2, 5, 970, 891, 163,±
2025-03-10 14:26:05.937,349, 625, 879, 9, 11, -5, -2, -1, 6, 946, 811, 212,±
2025-03-10 14:26:05.987,933, 449, 69, -32, -17, 3, -2, 2, 7, 977, 938, 68,±
2025-03-10 14:26:06.041,836, 754, 441, -12, 8, 47, -6, 4, 7, 982, 960, 64,±
2025-03-10 14:26:06.095,895, 353, 218, -2, 46, -32, -3, 3, 7, 958, 896, 186,±
2025-03-10 14:26:06.411,651, 557, 543, 6, -10, 1, -2, 3, 4, 910, 790, 63,∓
2025-03-10 14:26:06.465,661, 555, 532, 7, -13, 1, -1, 4, 3, 906, 791, 36,∓
2025-03-10 14:26:06.518,720, 535, 465, 6, -20, 2, -4, 1, 6, 914, 825, 196,∓
2025-03-10 14:26:06.572,763, 573, 392, -3, -4, -5, -2, 1, 6, 921, 854, 278,∓
2025-03-10 14:26:06.625,691, 586, 467, 4, -4, -4, -2, 1, 6, 912, 869, 360,∓
2025-03-10 14:26:06.683,653, 541, 482, -5, -2, -8, -2, -2, 6, 914, 901, 402,∓
2025-03-10 14:26:06.734,636, 527, 494, -2, -16, -4, -5, 0, 5, 929, 907, 258,∓
2025-03-10 14:26:06.789,753, 467, 474, -31, -12, -7, -4, 2, 6, 966, 942, 87,∓
2025-03-10 14:26:06.843,857, 508, -11, -9, -6, 45, -6, 2, 8, 982, 965, 45,∓
2025-03-10 14:26:06.899,542, 378, 497, 59, 10, 12, -6, 2, 8, 972, 927, 79,∓
2025-03-10 14:26:06.952,488, 601, 512, 0, 82, -50, -4, 1, 7, 952, 861, 123,∓
2025-03-10 14:26:07.006,930, 411, 657, -165, -39, -29, -4, 2, 6, 969, 901, 59,∓
2025-03-10 14:26:07.063,622, 852, 350, -30, -8, 45, -5, 4, 7, 980, 961, 63,∓
2025-03-10 14:26:07.113,669, 374, 520, 33, 5, 7, -5, 3, 8, 970, 927, 65,∓
2025-03-10 14:26:07.169,612, 684, 885, 17, -17, -6, -5, 1, 8, 958, 903, 207,∓
2025-03-10 14:26:07.220,727, 875, 299, -15, 4, 20, -5, 1, 8, 982, 941, 61,∓
2025-03-10 14:26:07.271,773, 396, 559, 15, 41, 27, -5, 3, 7, 973, 875, 65,∓
2025-03-10 14:26:07.326,711, 496, 381, -13, 59, -60, -2, 3, 3, 926, 786, 64,∓
2025-03-10 14:26:07.608,685, 566, 499, -8, 6, -3, -4, 3, 4, 907, 784, 74,∞
2025-03-10 14:26:07.660,673, 554, 512, -11, 6, -3, -4, 1, 3, 907, 783, 53,∞
2025-03-10 14:26:07.715,669, 548, 524, 1, -4, 0, -2, 3, 2, 911, 799, 44,∞
2025-03-10 14:26:07.769,680, 533, 501, -4, -2, -1, -3, 1, 3, 919, 813, 57,∞
2025-03-10 14:26:07.812,697, 544, 488, -1, -2, 0, -2, 2, 4, 924, 825, 76,∞
2025-03-10 14:26:07.869,694, 559, 485, -6, 1, 0, 0, 2, 3, 923, 817, 35,∞
2025-03-10 14:26:07.920,679, 534, 538, -4, -1, 0, -2, 2, 3, 925, 814, 53,∞
2025-03-10 14:26:07.971,705, 551, 482, -2, -2, -1, -2, 2, 5, 929, 813, 68,∞
2025-03-10 14:26:08.026,689, 554, 493, 3, -3, 3, -5, 2, 4, 931, 818, 72,∞
2025-03-10 14:26:08.075,703, 553, 480, 2, -4, -1, -3, 4, 4, 929, 831, 45,∞
2025-03-10 14:26:08.128,695, 550, 481, -1, 0, -1, -3, 3, 5, 933, 847, 86,∞
2025-03-10 14:26:08.182,695, 538, 495, 1, -3, -4, -3, 1, 4, 932, 850, 82,∞
2025-03-10 14:26:08.231,697, 561, 495, 6, 0, 3, -4, 1, 5, 934, 851, 155,∞
2025-03-10 14:26:08.281,708, 570, 449, 5, -6, 0, -3, 0, 4, 935, 861, 242,∞
2025-03-10 14:26:08.337,736, 620, 558, 8, -17, 13, -4, 1, 6, 940, 884, 358,∞
2025-03-10 14:26:08.389,697, 523, 379, 2, -3, 1, -6, 1, 7, 943, 883, 347,∞
2025-03-10 14:26:08.444,663, 579, 532, 1, -11, 5, -6, 3, 4, 949, 893, 273,∞
2025-03-10 14:26:08.497,707, 507, 532, -10, -6, -1, -5, 3, 7, 967, 928, 66,∞
2025-03-10 14:26:08.551,695, 788, 559, -28, 30, 28, -6, 3, 7, 976, 935, 62,∞
2025-03-10 14:26:08.603,772, 575, 278, -4, 27, -14, -2, 4, 7, 963, 921, 87,∞
2025-03-10 14:26:08.661,1057, 675, 657, -17, -44, 9, -4, 5, 3, 976, 954, 87,∞
2025-03-10 14:26:08.714,590, 291, 378, -13, -4, 10, -5, 5, 7, 982, 962, 55,∞
2025-03-10 14:26:08.768,386, 186, 689, 3, -21, -37, -6, 4, 7, 975, 957, 67,∞
2025-03-10 14:26:08.821,751, 591, 516, 8, -7, -12, -6, 2, 6, 978, 949, 56,∞
2025-03-10 14:26:08.871,672, 732, 267, -28, 40, 32, -5, 4, 8, 981, 931, 78,∞
2025-03-10 14:26:08.928,769, 464, 470, 2, 31, 14, -4, 4, 6, 957, 853, 79,∞
2025-03-10 14:26:08.981,748, 619, 384, -25, 54, -49, -5, 1, 4, 900, 830, 62,∞
2025-03-10 14:26:09.283,656, 609, 551, 22, -8, -48, -3, -1, 1, 728, 595, 86,∑
2025-03-10 14:26:09.340,676, 586, 568, 26, -10, -52, -5, -1, 2, 733, 595, 136,∑
2025-03-10 14:26:09.397,545, 690, 461, 13, -10, -43, -4, -3, 2, 736, 595, 72,∑
2025-03-10 14:26:09.451,526, 753, 449, 7, -16, -20, -5, -6, 4, 738, 586, 92,∑
2025-03-10 14:26:09.508,434, 755, 411, 16, -11, 27, -5, -6, 5, 794, 585, 53,∑
2025-03-10 14:26:09.563,637, 664, 431, 16, -27, 45, -4, -5, 7, 847, 590, 67,∑
2025-03-10 14:26:09.619,693, 748, 196, -12, 17, 55, -4, -3, 9, 862, 633, 53,∑
2025-03-10 14:26:09.672,737, 594, 403, -23, 15, 60, -5, -2, 8, 824, 570, 64,∑
2025-03-10 14:26:09.730,719, 535, 459, -12, 18, -13, -7, 1, 6, 735, 595, 58,∑
2025-03-10 14:26:09.782,588, 539, 494, -20, 9, -5, -5, 0, 6, 752, 623, 51,∑
2025-03-10 14:26:09.831,674, 594, 463, 0, -14, 0, -5, 0, 5, 782, 651, 58,∑
2025-03-10 14:26:09.881,750, 620, 438, -9, -8, 6, -4, 1, 6, 871, 709, 70,∑
2025-03-10 14:26:09.938,687, 602, 413, -14, 0, 3, -3, 1, 6, 905, 757, 128,∑
2025-03-10 14:26:09.991,651, 539, 505, -7, -11, 7, -4, 2, 7, 927, 796, 151,∑
2025-03-10 14:26:10.045,673, 528, 479, 4, -9, -7, -5, 2, 9, 933, 832, 209,∑
2025-03-10 14:26:10.094,568, 574, 474, 13, -6, -11, -6, 1, 6, 937, 839, 272,∑
2025-03-10 14:26:10.151,820, 512, 491, -46, -19, -6, -5, 1, 8, 961, 909, 52,∑
2025-03-10 14:26:10.209,418, 791, -6, -32, 4, 41, -7, 1, 9, 979, 956, 63,∑
2025-03-10 14:26:10.251,587, 482, 590, 45, 7, 7, -7, 3, 9, 971, 929, 76,∑
2025-03-10 14:26:10.312,468, 548, 454, 28, 28, -43, -7, 1, 8, 951, 865, 329,∑
2025-03-10 14:26:10.367,847, 448, 245, -31, -6, 0, -4, 2, 10, 974, 915, 93,∑
2025-03-10 14:26:10.422,848, 479, 231, -21, 15, 36, -5, 3, 8, 981, 948, 53,∑
2025-03-10 14:26:10.471,479, 470, 469, 24, 23, 7, -6, 1, 7, 972, 892, 78,∑
2025-03-10 14:26:10.527,1073, 587, 375, 4, -2, -11, -2, 1, 7, 968, 885, 60,∑
2025-03-10 14:26:10.583,495, 797, 174, -47, -1, 68, -5, 3, 7, 983, 960, 85,∑
2025-03-10 14:26:10.635,684, 553, 463, 27, 18, 23, -3, 5, 5, 974, 931, 62,∑
2025-03-10 14:26:10.692,813, 493, 213, -43, 101, -75, -3, 2, 4, 899, 693, 62,∑
2025-03-10 14:26:11.001,581, 600, 579, 9, 0, -3, 1, -1, -8, 95, 531, 75,∏
2025-03-10 14:26:11.057,589, 592, 574, 6, 1, -4, 2, -2, -6, 77, 541, 100,∏
2025-03-10 14:26:11.110,588, 632, 599, 3, -3, -6, 2, -2, -7, 120, 603, 219,∏
2025-03-10 14:26:11.162,568, 606, 569, -3, 8, -8, 1, -2, -5, 205, 670, 366,∏
2025-03-10 14:26:11.218,502, 616, 592, -2, 5, 10, 1, -2, -7, 428, 721, 408,∏
2025-03-10 14:26:11.271,544, 574, 641, 5, -3, 17, 2, -2, -6, 583, 748, 410,∏
2025-03-10 14:26:11.325,553, 601, 567, 12, -17, 25, 0, -3, -5, 709, 753, 425,∏
2025-03-10 14:26:11.385,721, 592, 480, 14, -30, 26, -1, -1, -2, 760, 753, 419,∏
2025-03-10 14:26:11.441,469, 547, 579, -10, -1, 26, -1, 0, -1, 770, 707, 62,∏
2025-03-10 14:26:11.493,662, 454, 616, 8, -23, 42, -1, 0, 0, 756, 711, 156,∏
2025-03-10 14:26:11.543,943, 591, 373, -15, -4, -14, -1, 1, 2, 690, 667, 221,∏
2025-03-10 14:26:11.605,550, 474, 651, -30, 2, -17, -1, 0, 0, 756, 700, 49,∏
2025-03-10 14:26:11.658,612, 493, 604, -9, -37, -4, -1, 3, 1, 837, 764, 195,∏
2025-03-10 14:26:11.717,812, 594, 362, -7, -35, -18, -2, 2, 6, 890, 814, 315,∏
2025-03-10 14:26:11.771,612, 531, 628, 5, -18, -11, -3, 2, 5, 918, 857, 259,∏
2025-03-10 14:26:11.825,791, 518, 636, -100, -20, -57, -5, 1, 6, 933, 884, 63,∏
2025-03-10 14:26:11.883,1137, 535, 250, -17, -12, -2, -5, 1, 7, 971, 944, 53,∏
2025-03-10 14:26:11.933,442, 491, 560, -11, -3, 30, -6, 3, 8, 980, 961, 61,∏
2025-03-10 14:26:11.991,639, 557, 354, 52, 3, -4, -7, 3, 9, 963, 918, 85,∏
2025-03-10 14:26:12.041,700, 576, 560, 18, 16, -39, -6, 2, 7, 939, 840, 200,∏
2025-03-10 14:26:12.091,685, 494, 586, -14, -9, -5, -5, 2, 7, 969, 914, 60,∏
2025-03-10 14:26:12.151,810, 787, 143, -10, 37, 39, -4, 4, 7, 971, 897, 41,∏
2025-03-10 14:26:12.220,851, 125, 598, -1, -9, -47, -3, 3, 6, 946, 882, 206,∏
2025-03-10 14:26:12.264,911, -221, 255, -18, -8, -20, -4, 4, 6, 968, 940, 210,∏
2025-03-10 14:26:12.318,438, 482, 107, 7, 32, 39, -6, 4, 9, 979, 936, 55,∏
2025-03-10 14:26:12.372,751, 517, 377, 31, 34, 23, -5, 4, 7, 963, 857, 70,∏
2025-03-10 14:26:12.423,767, 496, 278, -55, 98, -58, -3, 2, 4, 896, 758, 65,∏
2025-03-10 14:26:12.482,329, 467, 867, -62, 86, -38, 2, 1, -5, 851, 744, 75,∏
2025-03-10 14:26:12.764,529, 568, 636, 11, -8, -3, 2, 0, -11, 714, 625, 70,√
2025-03-10 14:26:12.815,548, 562, 638, 13, -8, -7, 3, -3, -6, 710, 619, 50,√
2025-03-10 14:26:12.872,494, 570, 639, 15, -12, 6, 1, -2, -9, 672, 624, 61,√
2025-03-10 14:26:12.925,525, 528, 647, 12, -13, 19, 2, -1, -6, 680, 629, 31,√
2025-03-10 14:26:12.982,583, 572, 574, 19, -29, 18, 0, -3, -4, 706, 648, 75,√
2025-03-10 14:26:13.037,579, 546, 583, 25, -51, 13, -3, 1, -3, 785, 670, 76,√
2025-03-10 14:26:13.091,711, 539, 431, 35, -45, 10, -1, -1, 2, 825, 677, 56,√
2025-03-10 14:26:13.146,698, 632, 454, -6, -7, 8, -2, -1, 5, 872, 713, 80,√
2025-03-10 14:26:13.201,675, 611, 473, -8, -16, 5, -3, -1, 5, 904, 772, 153,√
2025-03-10 14:26:13.256,684, 572, 469, -8, -13, 9, -3, 1, 5, 923, 821, 197,√
2025-03-10 14:26:13.309,678, 557, 399, -7, -7, -2, -1, -2, 7, 930, 840, 189,√
2025-03-10 14:26:13.361,705, 574, 464, -7, 0, 4, -4, -1, 6, 942, 860, 233,√
2025-03-10 14:26:13.416,634, 561, 516, -2, -1, 1, -4, 1, 7, 945, 873, 171,√
2025-03-10 14:26:13.469,689, 559, 424, 16, -16, 0, -3, 1, 7, 948, 877, 266,√
2025-03-10 14:26:13.526,795, 552, 476, -19, 2, -11, -4, 1, 7, 960, 905, 55,√
2025-03-10 14:26:13.575,722, 603, 468, -9, -10, 13, -4, 2, 9, 971, 946, 72,√
2025-03-10 14:26:13.630,494, 628, 611, 9, 13, 18, -4, 0, 11, 976, 929, 47,√
2025-03-10 14:26:13.684,765, 713, 163, -37, 18, 16, -5, 3, 7, 970, 927, 64,√
2025-03-10 14:26:13.743,1062, 626, 684, 11, -65, -60, -6, 1, 5, 963, 949, 57,√
2025-03-10 14:26:13.797,798, 683, 267, 3, -35, 14, -6, 1, 8, 978, 960, 79,√
2025-03-10 14:26:13.851,640, 506, 428, 13, 22, 18, -8, 0, 11, 974, 955, 36,√
2025-03-10 14:26:13.905,631, 589, 388, -4, 55, -53, -3, 3, 8, 951, 918, 247,√
2025-03-10 14:26:14.219,691, 578, 449, 0, -2, 6, -3, 0, 7, 929, 845, 253,∛
2025-03-10 14:26:14.271,697, 569, 451, 2, -2, 6, -2, 4, 2, 931, 850, 267,∛
2025-03-10 14:26:14.322,669, 567, 441, 5, -6, 4, -4, 0, 6, 937, 861, 292,∛
2025-03-10 14:26:14.373,709, 573, 433, -2, 0, 3, -5, -1, 8, 937, 863, 271,∛
2025-03-10 14:26:14.427,697, 577, 439, 1, -2, 1, -4, 0, 7, 941, 875, 302,∛
2025-03-10 14:26:14.481,690, 575, 431, -2, 3, -2, -4, 2, 10, 942, 879, 288,∛
2025-03-10 14:26:14.535,697, 553, 453, -1, 2, -2, -5, 0, 9, 942, 870, 266,∛
2025-03-10 14:26:14.583,702, 585, 414, -5, 1, -5, -4, 0, 8, 941, 860, 138,∛
2025-03-10 14:26:14.646,656, 579, 507, -15, -5, -14, -4, 1, 9, 951, 863, 48,∛
2025-03-10 14:26:14.691,732, 576, 345, -4, 10, 3, -4, 1, 8, 960, 910, 64,∛
2025-03-10 14:26:14.745,530, 529, 393, -2, -20, 12, -4, 1, 8, 969, 945, 62,∛
2025-03-10 14:26:14.801,929, 437, 349, 20, 12, 28, -7, 0, 7, 975, 939, 80,∛
2025-03-10 14:26:14.854,604, 670, 56, -40, 26, 34, -5, 3, 8, 978, 937, 57,∛
2025-03-10 14:26:14.911,1068, 173, 603, 10, -56, -68, -5, 7, 4, 972, 957, 80,∛
2025-03-10 14:26:14.964,743, 391, 808, 22, -50, -11, -6, 3, 8, 978, 964, 39,∛
2025-03-10 14:26:15.018,654, 526, 266, 7, 17, 21, -6, 2, 9, 976, 950, 80,∛
2025-03-10 14:26:15.071,625, 458, 404, 4, 50, -52, -6, 1, 9, 966, 935, 123,∛
2025-03-10 14:26:15.129,892, 744, 582, 15, -8, -25, -5, 1, 8, 955, 915, 480,∛
2025-03-10 14:26:15.182,471, 628, 614, 27, -41, 9, -4, -4, 13, 962, 928, 544,∛
2025-03-10 14:26:15.235,834, 821, 288, -10, -1, -1, -5, 0, 10, 971, 946, 436,∛
2025-03-10 14:26:15.293,689, 605, 432, -1, -9, 4, -5, -1, 8, 975, 956, 392,∛
2025-03-10 14:26:15.345,690, 621, 429, -5, 0, 2, -5, 1, 9, 977, 957, 295,∛
2025-03-10 14:26:15.402,838, 655, 473, -6, -10, 1, -3, -2, 10, 979, 959, 319,∛
2025-03-10 14:26:15.456,663, 693, 582, 11, -7, 0, -4, 1, 9, 978, 957, 342,∛
2025-03-10 14:26:15.506,697, 518, 388, -8, 9, 1, -4, 0, 10, 978, 952, 295,∛
2025-03-10 14:26:15.561,755, 524, 561, 2, -3, -1, -5, 1, 9, 980, 954, 236,∛
2025-03-10 14:26:15.615,565, 559, 386, -10, 11, 13, -5, 0, 10, 982, 956, 128,∛
2025-03-10 14:26:15.669,639, 561, 380, 0, 33, 18, -5, 1, 9, 980, 950, 46,∛
2025-03-10 14:26:15.721,839, 621, 407, 10, 14, -4, -3, 3, 8, 967, 922, 156,∛
2025-03-10 14:26:15.777,855, 676, 73, -25, 45, -29, -4, 0, 8, 945, 897, 353,∛
2025-03-10 14:26:15.831,489, 618, 673, -27, 6, -6, -1, -1, 5, 945, 877, 160,∛
2025-03-10 14:26:15.885,628, 551, 530, 12, -17, 9, -4, -1, 5, 933, 830, 91,∛
2025-03-10 14:26:16.352,690, 589, 441, -2, 0, -2, -4, 0, 7, 872, 749, 180,∜
2025-03-10 14:26:16.406,680, 596, 435, -3, 0, -1, -2, 0, 9, 875, 752, 189,∜
2025-03-10 14:26:16.460,685, 606, 439, -2, -1, 0, -4, 0, 7, 871, 753, 195,∜
2025-03-10 14:26:16.511,693, 588, 441, 0, 0, -2, -3, -1, 6, 868, 753, 177,∜
2025-03-10 14:26:16.561,688, 598, 460, -3, 0, 3, -4, 1, 6, 867, 751, 197,∜
2025-03-10 14:26:16.614,708, 591, 466, -1, 0, 7, -5, 0, 8, 896, 775, 204,∜
2025-03-10 14:26:16.664,700, 564, 420, -3, 3, 5, -4, 0, 7, 911, 779, 166,∜
2025-03-10 14:26:16.718,668, 565, 455, 4, 5, 3, -5, 0, 6, 918, 799, 176,∜
2025-03-10 14:26:16.771,645, 581, 469, 5, 3, 3, -3, 0, 9, 924, 803, 189,∜
2025-03-10 14:26:16.824,945, 711, 395, -20, -4, -10, -4, 1, 8, 946, 867, 63,∜
2025-03-10 14:26:16.881,754, 730, 625, -14, -28, 11, -4, 1, 6, 970, 944, 62,∜
2025-03-10 14:26:16.931,659, 695, 440, 31, 8, 17, -3, 1, 8, 976, 940, 56,∜
2025-03-10 14:26:16.988,864, 805, 160, -22, 19, 26, -1, 3, 8, 977, 935, 81,∜
2025-03-10 14:26:17.041,583, 64, 870, -38, -32, -31, -2, 2, 5, 971, 956, 86,∜
2025-03-10 14:26:17.098,752, 473, 619, -14, -42, -19, -6, 2, 8, 973, 964, 67,∜
2025-03-10 14:26:17.147,762, 874, 260, 2, 6, 33, -5, 4, 8, 978, 956, 58,∜
2025-03-10 14:26:17.201,708, 221, 330, 9, 26, -39, -7, 6, 7, 967, 946, 80,∜
2025-03-10 14:26:17.257,597, 528, 650, 19, -8, -58, -5, 0, 7, 960, 928, 312,∜
2025-03-10 14:26:17.311,815, 496, 546, 18, -18, -24, -5, 1, 10, 975, 954, 480,∜
2025-03-10 14:26:17.369,676, 632, 489, 1, -7, -3, -2, -1, 11, 983, 957, 273,∜
2025-03-10 14:26:17.421,1016, 643, 502, -8, 17, 5, -5, 0, 10, 981, 933, 85,∜
2025-03-10 14:26:17.475,873, 892, 511, -32, 16, 29, -5, 1, 9, 985, 962, 82,∜
2025-03-10 14:26:17.531,622, 366, 611, 10, -8, 10, -7, 1, 10, 984, 966, 78,∜
2025-03-10 14:26:17.585,643, 513, 398, 22, -10, -47, -7, 1, 9, 971, 944, 294,∜
2025-03-10 14:26:17.643,762, 590, 446, -1, -16, -4, -3, 1, 10, 983, 952, 104,∜
2025-03-10 14:26:17.696,761, 615, 244, -14, 45, 39, -5, 3, 10, 982, 943, 92,∜
2025-03-10 14:26:17.754,832, 517, 257, -12, 64, -51, -5, 3, 7, 960, 876, 239,∜
2025-03-10 14:26:18.057,660, 632, 448, -5, 14, -28, -4, -2, 4, 643, 502, 30,∫
2025-03-10 14:26:18.108,654, 629, 478, -7, 14, -29, -2, -1, 3, 636, 500, 39,∫
2025-03-10 14:26:18.164,560, 663, 507, -1, 6, -26, -1, -1, 2, 575, 460, 80,∫
2025-03-10 14:26:18.213,575, 666, 458, -6, 8, -24, -2, 1, -2, 514, 404, 52,∫
2025-03-10 14:26:18.272,545, 701, 515, -7, 8, -15, -4, -2, 0, 493, 445, 76,∫
2025-03-10 14:26:18.324,605, 729, 480, -8, 15, -3, -2, -4, 0, 466, 459, 47,∫
2025-03-10 14:26:18.382,520, 646, 545, -38, 38, -4, -2, -5, -3, 569, 532, 73,∫
2025-03-10 14:26:18.438,374, 612, 678, 4, -7, 20, 1, -6, -4, 671, 567, 54,∫
2025-03-10 14:26:18.491,357, 514, 660, 25, -59, 65, -2, -4, -3, 765, 622, 81,∫
2025-03-10 14:26:18.545,657, 602, 350, 47, -46, 72, -3, -1, 4, 786, 628, 65,∫
2025-03-10 14:26:18.600,991, 560, 537, 25, -23, 20, -4, -1, 8, 864, 709, 147,∫
2025-03-10 14:26:18.650,653, 543, 334, -35, 18, 4, -4, 0, 6, 898, 763, 60,∫
2025-03-10 14:26:18.711,743, 609, 506, -13, -13, 14, -6, 0, 6, 925, 823, 240,∫
2025-03-10 14:26:18.766,645, 572, 535, -21, -14, 12, -4, 0, 6, 945, 850, 48,∫
2025-03-10 14:26:18.821,830, 424, 264, -23, -20, -4, -5, 3, 6, 962, 911, 86,∫
2025-03-10 14:26:18.871,677, 481, 545, -16, -2, -13, -5, 3, 7, 966, 941, 49,∫
2025-03-10 14:26:18.930,601, 395, 476, 36, 9, -8, -5, 2, 7, 973, 935, 60,∫
2025-03-10 14:26:18.981,655, 638, 509, -6, 41, 38, -5, 1, 8, 980, 929, 54,∫
2025-03-10 14:26:19.031,932, 389, 436, 4, 22, 7, -5, 4, 6, 971, 909, 60,∫
2025-03-10 14:26:19.089,815, 373, 552, 68, 11, -15, -2, 3, 6, 892, 796, 66,∫
2025-03-10 14:26:19.141,653, 557, 412, -37, 58, -36, -3, 2, 1, 705, 657, 61,∫
2025-03-10 14:26:19.441,619, 592, 453, 4, -20, 19, -4, -2, 2, 674, 648, 54,∮
2025-03-10 14:26:19.494,615, 597, 421, 0, -19, 22, -1, -3, 2, 681, 651, 59,∮
2025-03-10 14:26:19.547,645, 563, 477, 0, 0, 21, -4, -1, 4, 671, 682, 55,∮
2025-03-10 14:26:19.600,706, 584, 467, 6, -11, 18, -5, 1, 6, 743, 704, 46,∮
2025-03-10 14:26:19.654,760, 612, 375, -9, -4, 2, -4, 0, 6, 825, 757, 106,∮
2025-03-10 14:26:19.704,653, 584, 564, -7, -4, 6, -2, 0, 7, 868, 797, 166,∮
2025-03-10 14:26:19.761,725, 554, 429, -1, -14, -1, -4, 2, 5, 896, 816, 170,∮
2025-03-10 14:26:19.811,730, 579, 420, -12, -1, -1, -4, 1, 6, 914, 844, 142,∮
2025-03-10 14:26:19.866,686, 556, 498, -8, -2, 2, -3, 0, 7, 933, 861, 128,∮
2025-03-10 14:26:19.920,702, 589, 474, -8, -6, 4, -4, 0, 6, 935, 870, 91,∮
2025-03-10 14:26:19.971,719, 548, 431, -7, 1, -4, -4, 1, 7, 940, 877, 130,∮
2025-03-10 14:26:20.025,702, 555, 490, -7, -3, 2, -5, 1, 7, 941, 878, 113,∮
2025-03-10 14:26:20.080,701, 563, 442, -4, -4, 1, -3, 0, 6, 943, 884, 53,∮
2025-03-10 14:26:20.127,692, 549, 479, -4, -8, 3, -5, 1, 7, 948, 890, 73,∮
2025-03-10 14:26:20.185,1173, 270, 128, -11, -8, -19, -4, 1, 7, 954, 902, 63,∮
2025-03-10 14:26:20.240,808, 393, 526, 11, -6, -29, -3, 1, 7, 961, 923, 86,∮
2025-03-10 14:26:20.292,838, 1000, 18, -1, 36, 31, -5, 1, 9, 976, 922, 58,∮
2025-03-10 14:26:20.347,627, 529, 623, -3, 16, 32, -2, 3, 7, 974, 935, 63,∮
2025-03-10 14:26:20.402,507, 676, 527, 27, -36, -44, -4, 1, 7, 963, 935, 304,∮
2025-03-10 14:26:20.457,927, 738, 419, -19, -19, -2, -5, 1, 7, 976, 955, 79,∮
2025-03-10 14:26:20.514,205, 486, 557, -18, 28, 39, -5, 1, 10, 983, 947, 62,∮
2025-03-10 14:26:20.567,773, 560, 270, -10, 33, 10, -6, 2, 6, 967, 888, 65,∮
2025-03-10 14:26:20.621,754, 631, 390, -4, -6, -63, -3, 3, 5, 927, 887, 196,∮
2025-03-10 14:26:20.675,992, 46, 224, -3, -14, -27, -4, 1, 7, 958, 936, 207,∮
2025-03-10 14:26:20.731,634, 343, 333, -2, 39, 72, -5, 2, 8, 981, 950, 80,∮
2025-03-10 14:26:20.781,1088, 538, 251, 10, 42, 33, -6, 3, 6, 976, 895, 50,∮
2025-03-10 14:26:20.838,1125, 241, 570, 18, 32, -40, -4, 6, 4, 906, 667, 69,∮
2025-03-10 14:26:20.895,616, 453, 611, -26, 36, -39, -2, 0, 3, 791, 661, 32,∮
2025-03-10 14:26:21.181,544, 625, 501, -2, -3, 1, -2, -2, 2, 689, 616, 52,∂
2025-03-10 14:26:21.235,538, 626, 505, -3, -5, 7, -3, -1, 2, 693, 618, 62,∂
2025-03-10 14:26:21.287,570, 540, 508, 1, -13, 23, -3, -3, 2, 724, 627, 65,∂
2025-03-10 14:26:21.341,617, 550, 475, 1, -4, 30, -5, -1, 2, 753, 644, 49,∂
2025-03-10 14:26:21.392,769, 569, 550, 17, -17, 22, -3, 0, 3, 798, 673, 61,∂
2025-03-10 14:26:21.448,750, 588, 274, -19, 6, 2, -3, 2, 5, 837, 719, 76,∂
2025-03-10 14:26:21.502,649, 570, 655, -4, -3, 3, -4, 2, 3, 870, 747, 34,∂
2025-03-10 14:26:21.551,726, 569, 417, 3, -12, 3, -4, 1, 5, 888, 772, 68,∂
2025-03-10 14:26:21.604,744, 553, 409, -12, -5, -1, -4, 0, 5, 909, 802, 82,∂
2025-03-10 14:26:21.658,689, 559, 499, -14, -1, 1, -5, 1, 8, 923, 819, 74,∂
2025-03-10 14:26:21.711,703, 565, 469, -5, -4, -2, -4, 1, 5, 928, 830, 58,∂
2025-03-10 14:26:21.761,729, 536, 437, -2, -2, -2, -3, 2, 6, 935, 844, 54,∂
2025-03-10 14:26:21.817,689, 549, 502, -5, -3, 0, -3, 1, 6, 936, 851, 59,∂
2025-03-10 14:26:21.866,690, 554, 475, 3, -6, 0, -4, 2, 4, 941, 862, 77,∂
2025-03-10 14:26:21.920,714, 555, 463, -1, 0, 0, -2, 1, 7, 941, 858, 46,∂
2025-03-10 14:26:21.969,687, 546, 464, 3, -3, 0, -6, 0, 8, 942, 859, 52,∂
2025-03-10 14:26:22.021,707, 545, 406, -9, 2, -11, -5, 0, 7, 945, 873, 58,∂
2025-03-10 14:26:22.071,825, 513, 441, 10, -8, -5, -5, 1, 7, 961, 930, 87,∂
2025-03-10 14:26:22.128,536, 301, 487, 28, -1, 19, -5, -2, 9, 976, 945, 64,∂
2025-03-10 14:26:22.185,444, 387, 560, -18, 40, 31, -5, 3, 6, 978, 932, 61,∂
2025-03-10 14:26:22.233,715, 431, 242, -28, 24, -16, -4, 4, 4, 964, 892, 51,∂
2025-03-10 14:26:22.291,706, 494, 579, -9, -56, -1, -4, 4, 5, 980, 963, 76,∂
2025-03-10 14:26:22.341,725, 652, 412, 16, 1, 6, -4, 3, 7, 979, 959, 82,∂
2025-03-10 14:26:22.399,780, 399, 323, -14, 48, -41, -6, 2, 7, 958, 881, 77,∂
2025-03-10 14:26:22.697,603, 624, 480, 0, -3, -10, -4, -1, 5, 753, 617, 37,∇
2025-03-10 14:26:22.751,607, 646, 478, 0, -4, -8, -4, -3, 2, 764, 625, 57,∇
2025-03-10 14:26:22.797,576, 599, 444, 1, -7, 14, -4, -2, 4, 795, 642, 55,∇
2025-03-10 14:26:22.855,584, 524, 451, -1, -3, 33, -6, -1, 6, 824, 666, 66,∇
2025-03-10 14:26:22.911,749, 519, 515, 14, -19, 27, -5, 0, 6, 826, 671, 50,∇
2025-03-10 14:26:22.964,741, 670, 235, -27, 7, -3, -4, -2, 9, 859, 721, 58,∇
2025-03-10 14:26:23.013,707, 595, 610, -4, -3, 6, -4, 0, 7, 885, 768, 44,∇
2025-03-10 14:26:23.063,714, 540, 430, 0, -9, 2, -4, 1, 6, 902, 796, 70,∇
2025-03-10 14:26:23.117,742, 578, 378, -6, 0, -1, -5, 2, 7, 912, 816, 71,∇
2025-03-10 14:26:23.173,689, 575, 461, -4, -1, -1, -4, 1, 7, 922, 829, 81,∇
2025-03-10 14:26:23.225,758, 561, 422, -1, -2, 1, -4, 0, 8, 926, 833, 38,∇
2025-03-10 14:26:23.271,691, 566, 460, -4, 0, -3, -3, 0, 7, 932, 837, 69,∇
2025-03-10 14:26:23.328,657, 531, 459, -11, 5, -14, -5, 1, 7, 936, 843, 85,∇
2025-03-10 14:26:23.381,699, 660, 402, -13, 4, -18, -3, 2, 8, 945, 859, 80,∇
2025-03-10 14:26:23.432,774, 425, 448, 19, -7, -12, -4, 1, 7, 969, 936, 78,∇
2025-03-10 14:26:23.490,371, 650, 92, -31, -8, 55, -6, 0, 10, 983, 965, 72,∇
2025-03-10 14:26:23.541,560, 309, 783, 26, -19, 1, -6, 3, 8, 984, 963, 70,∇
2025-03-10 14:26:23.598,952, 991, 92, -8, 57, 19, -5, 4, 9, 982, 942, 59,∇
2025-03-10 14:26:23.651,730, 560, 322, -24, 42, 17, -6, 4, 8, 969, 877, 60,∇
2025-03-10 14:26:23.704,433, 549, 549, 35, -15, -94, -4, 3, 4, 932, 841, 34,∇
2025-03-10 14:26:23.761,802, 1058, 809, -34, -14, -2, -4, 1, 6, 967, 921, 70,∇
2025-03-10 14:26:23.815,925, 795, 409, -45, 44, 96, -5, 2, 8, 985, 952, 65,∇
2025-03-10 14:26:23.869,696, 559, 485, 21, 16, 21, -4, 4, 6, 977, 903, 51,∇
2025-03-10 14:26:23.922,757, 383, 356, 45, 26, -76, -5, 1, 6, 921, 728, 85,∇
2025-03-10 14:26:24.232,580, 506, 414, -2, 1, 49, -4, 2, 8, 749, 576, 56,∆
2025-03-10 14:26:24.285,637, 493, 459, -1, 2, 47, -5, 3, 7, 750, 580, 60,∆
2025-03-10 14:26:24.340,895, 612, 458, 14, -12, 0, -7, 3, 5, 746, 626, 52,∆
2025-03-10 14:26:24.395,705, 538, 424, -14, 13, -4, -6, 2, 7, 809, 670, 55,∆
2025-03-10 14:26:24.441,652, 558, 542, -7, -3, 5, -4, 4, 4, 853, 707, 42,∆
2025-03-10 14:26:24.501,764, 584, 407, 3, -11, -3, -6, 1, 6, 868, 734, 73,∆
2025-03-10 14:26:24.551,722, 566, 409, -10, 4, -7, -6, 2, 7, 879, 753, 56,∆
2025-03-10 14:26:24.606,703, 530, 494, -4, -2, -2, -7, 0, 7, 890, 768, 62,∆
2025-03-10 14:26:24.660,708, 572, 454, 1, -3, -2, -5, 0, 6, 896, 779, 60,∆
2025-03-10 14:26:24.712,757, 580, 400, -7, -12, 11, -4, 2, 6, 920, 828, 61,∆
2025-03-10 14:26:24.766,673, 560, 536, -4, 1, -4, -6, 2, 8, 923, 839, 68,∆
2025-03-10 14:26:24.815,749, 558, 376, -29, -8, 1, -7, 2, 8, 939, 850, 84,∆
2025-03-10 14:26:24.872,698, 481, 606, -27, -9, -5, -4, 2, 9, 960, 907, 42,∆
2025-03-10 14:26:24.920,773, 317, 811, 51, 14, 0, -6, 3, 8, 975, 915, 61,∆
2025-03-10 14:26:24.979,375, 838, -260, 35, 47, 31, -5, 1, 7, 967, 864, 49,∆
2025-03-10 14:26:25.031,896, 149, 716, 3, -41, -36, -5, 3, 7, 923, 857, 63,∆
2025-03-10 14:26:25.086,776, 110, 509, 13, -9, -17, -5, 2, 7, 958, 931, 40,∆
2025-03-10 14:26:25.138,604, 660, 173, 7, 16, 48, -4, 2, 9, 980, 950, 58,∆
2025-03-10 14:26:25.184,649, 771, 477, 3, 22, 34, -7, 4, 8, 977, 944, 69,∆
2025-03-10 14:26:25.245,406, 247, 575, 52, 28, -50, -4, 1, 8, 952, 898, 57,∆
2025-03-10 14:26:25.293,1118, 777, 362, -7, 17, 28, -3, 1, 5, 930, 873, 84,∆
2025-03-10 14:26:25.351,460, 527, 580, -64, 79, -15, -2, 2, 0, 928, 792, 57,∆
2025-03-10 14:26:25.408,393, 488, 754, 14, -21, -10, -2, 3, 0, 909, 664, 84,∆
2025-03-10 14:26:25.658,676, 554, 516, -6, -6, 3, -3, 1, 5, 884, 732, 83,π
2025-03-10 14:26:25.713,673, 565, 514, -4, -6, 4, -5, 5, 6, 886, 739, 67,π
2025-03-10 14:26:25.765,688, 553, 503, 2, -11, 4, -4, 3, 7, 900, 775, 56,π
2025-03-10 14:26:25.813,714, 542, 476, -5, -1, 2, -4, 2, 7, 917, 806, 68,π
2025-03-10 14:26:25.864,710, 549, 472, -6, -2, 1, -8, 3, 5, 926, 815, 53,π
2025-03-10 14:26:25.921,696, 549, 478, -7, -1, -2, -5, 1, 6, 929, 824, 79,π
2025-03-10 14:26:25.974,695, 557, 492, -9, -4, -1, -5, 3, 6, 932, 820, 73,π
2025-03-10 14:26:26.027,710, 547, 489, -7, -2, 3, -4, 2, 7, 935, 825, 58,π
2025-03-10 14:26:26.077,700, 538, 488, -3, -2, 2, -3, 3, 6, 939, 834, 59,π
2025-03-10 14:26:26.130,725, 543, 466, -3, -3, 3, -4, 2, 8, 944, 854, 79,π
2025-03-10 14:26:26.181,678, 523, 496, 0, -2, 1, -4, 1, 7, 946, 859, 57,π
2025-03-10 14:26:26.231,697, 542, 475, 2, -1, -5, -5, 3, 4, 946, 867, 84,π
2025-03-10 14:26:26.284,640, 527, 488, 0, 3, -8, -3, 2, 6, 946, 854, 73,π
2025-03-10 14:26:26.338,753, 549, 584, -13, -6, -18, -5, 3, 7, 959, 888, 86,π
2025-03-10 14:26:26.396,1072, 886, 294, -55, -49, 53, -4, 2, 8, 980, 959, 59,π
2025-03-10 14:26:26.444,451, 354, 607, -1, -8, 33, -8, 4, 9, 982, 962, 57,π
2025-03-10 14:26:26.502,600, 282, 276, 38, 12, -34, -7, 4, 7, 963, 928, 61,π
2025-03-10 14:26:26.555,833, 663, 616, 33, 12, -28, -4, 3, 5, 945, 875, 40,π
2025-03-10 14:26:26.607,723, 775, 555, -26, -1, 11, -4, 1, 6, 974, 931, 60,π
2025-03-10 14:26:26.662,434, 725, 205, -29, 34, 32, -5, 1, 7, 977, 917, 42,π
2025-03-10 14:26:26.714,930, 275, 552, 46, 10, -9, -5, 3, 6, 945, 866, 68,π
2025-03-10 14:26:26.771,580, 590, 582, -23, -34, -6, -5, 3, 10, 962, 916, 53,π
2025-03-10 14:26:26.821,731, 636, 492, -4, -15, -7, -7, 3, 7, 978, 939, 57,π
2025-03-10 14:26:26.873,481, 482, 61, 7, 36, 46, -6, 4, 6, 985, 940, 61,π
2025-03-10 14:26:26.932,779, 339, 574, 28, 21, 16, -6, 4, 6, 970, 891, 64,π
2025-03-10 14:26:26.981,697, 585, 405, -26, 64, -49, -5, 3, 3, 916, 785, 78,π
2025-03-10 14:26:27.315,641, 580, 375, 0, -13, 37, -4, 0, 4, 770, 623, 79,θ
2025-03-10 14:26:27.371,671, 554, 404, -3, -7, 36, -4, 0, 5, 773, 622, 69,θ
2025-03-10 14:26:27.420,623, 550, 518, -1, 8, 20, -4, 0, 4, 773, 633, 82,θ
2025-03-10 14:26:27.473,853, 579, 449, 8, -11, 6, -3, 1, 3, 785, 653, 54,θ
2025-03-10 14:26:27.528,660, 539, 503, -11, 8, 3, -4, 1, 5, 826, 683, 46,θ
2025-03-10 14:26:27.576,651, 527, 566, 4, -14, 6, -4, 1, 4, 856, 721, 80,θ
2025-03-10 14:26:27.627,761, 549, 396, -1, -7, 1, -4, 1, 5, 876, 745, 84,θ
2025-03-10 14:26:27.681,687, 518, 492, -10, 3, -1, -7, 1, 6, 890, 756, 43,θ
2025-03-10 14:26:27.733,706, 547, 474, -6, -4, 0, -5, 2, 7, 903, 786, 83,θ
2025-03-10 14:26:27.784,725, 562, 475, -6, -5, 0, -5, 2, 4, 912, 806, 81,θ
2025-03-10 14:26:27.837,703, 548, 495, -9, -2, 2, -5, 1, 6, 925, 817, 35,θ
2025-03-10 14:26:27.891,694, 533, 488, -3, -4, 1, -6, 3, 5, 934, 834, 72,θ
2025-03-10 14:26:27.941,728, 540, 452, -5, -8, 4, -5, 3, 6, 941, 844, 84,θ
2025-03-10 14:26:27.997,848, 439, 331, -26, -4, -18, -5, 3, 5, 950, 887, 56,θ
2025-03-10 14:26:28.051,410, 316, 681, 8, -12, -25, -5, 4, 7, 963, 918, 62,θ
2025-03-10 14:26:28.104,1030, 918, 182, -30, 52, 70, -6, 0, 8, 980, 922, 44,θ
2025-03-10 14:26:28.157,610, 357, 755, 10, 4, 12, -4, 5, 6, 972, 925, 60,θ
2025-03-10 14:26:28.214,454, 620, 734, 28, -44, -48, -6, 3, 4, 960, 926, 54,θ
2025-03-10 14:26:28.264,607, 948, 339, -33, -18, 12, -5, 2, 8, 980, 953, 87,θ
2025-03-10 14:26:28.321,354, 612, 402, -10, 28, 43, -5, 3, 8, 984, 940, 59,θ
2025-03-10 14:26:28.371,587, 427, 428, 11, 34, 4, -6, 5, 6, 964, 871, 63,θ
2025-03-10 14:26:28.426,786, 618, 658, 7, -13, -31, -3, 3, 3, 943, 849, 38,θ
2025-03-10 14:26:28.481,572, 891, 369, -23, -43, 15, -5, 4, 6, 980, 955, 57,θ
2025-03-10 14:26:28.534,666, 515, 483, 26, 5, 19, -4, 5, 5, 975, 942, 80,θ
2025-03-10 14:26:28.583,799, 457, 274, 18, 56, -50, -7, 3, 6, 923, 766, 91,θ
2025-03-10 14:26:28.862,602, 634, 472, -5, -3, -13, -3, -2, 4, 782, 618, 54,λ
2025-03-10 14:26:28.914,578, 625, 478, -1, -8, -11, -5, -2, 4, 785, 618, 47,λ
2025-03-10 14:26:28.972,544, 621, 431, -2, -9, 17, -5, -3, 5, 814, 637, 81,λ
2025-03-10 14:26:29.022,617, 529, 474, 1, -3, 28, -5, -2, 4, 800, 634, 74,λ
2025-03-10 14:26:29.075,689, 542, 512, 5, 2, 28, -5, -1, 5, 824, 658, 66,λ
2025-03-10 14:26:29.123,854, 642, 314, 4, -8, 1, -3, -1, 6, 852, 697, 57,λ
2025-03-10 14:26:29.181,649, 580, 539, -8, 9, 3, -4, -1, 5, 872, 724, 79,λ
