Timestamp,Acc_X,Acc_Y,Acc_Z,Gyro_X,Gyro_Y,Gyro_Z,Mag_X,Mag_Y,Mag_Z,Force1,Force2,Force3,Letter
2025-03-12 12:17:40.450,-2, 961, 318, -3, 0, -1, 0, -1, -3, 19, 14, 12,noise
2025-03-12 12:17:40.495,-2, 953, 327, -2, 0, -1, 2, 0, 0, 15, 13, 6,noise
2025-03-12 12:17:40.542,-1, 956, 325, 1, 0, 0, 1, -2, -1, 16, 14, 14,noise
2025-03-12 12:17:40.588,0, 957, 320, -2, 0, -1, 1, -1, -1, 5, 3, 9,noise
2025-03-12 12:17:40.638,-3, 958, 320, -1, 0, -1, 1, 0, 0, 16, 17, 21,noise
2025-03-12 12:17:40.687,-2, 961, 322, 0, 0, 0, -1, -2, -1, 17, 14, 16,noise
2025-03-12 12:17:40.736,-2, 958, 327, -2, 0, -1, 1, 0, -2, 24, 19, 19,noise
2025-03-12 12:17:40.780,0, 958, 324, 0, 0, -1, 1, 0, -1, 25, 24, 23,noise
2025-03-12 12:17:40.830,-5, 959, 326, -2, 0, -1, 0, -2, -3, 17, 17, 13,noise
2025-03-12 12:17:40.884,-1, 956, 323, -1, 0, -1, 1, -1, -2, 26, 22, 26,noise
2025-03-12 12:17:40.930,-2, 959, 320, -1, 0, -1, 0, 0, -3, 17, 16, 17,noise
2025-03-12 12:17:40.982,-2, 958, 322, -1, 0, -1, 0, 0, -2, 21, 18, 20,noise
2025-03-12 12:17:41.027,-2, 953, 332, -1, 0, -1, 0, 0, -2, 27, 23, 23,noise
2025-03-12 12:17:41.076,0, 962, 315, -1, 0, -1, 0, -1, -1, 25, 26, 24,noise
2025-03-12 12:17:41.130,-4, 963, 319, -4, 0, -1, -1, -1, -2, 21, 18, 12,noise
2025-03-12 12:17:41.175,3, 959, 324, -4, 0, -1, 0, 0, -2, 24, 17, 16,noise
2025-03-12 12:17:41.224,-2, 957, 326, -2, 0, -1, 0, 1, -2, 26, 24, 25,noise
2025-03-12 12:17:41.273,0, 962, 327, -1, 0, 0, 1, -1, -2, 20, 19, 14,noise
2025-03-12 12:17:41.322,-1, 956, 327, 3, 0, 0, 0, -1, -3, 28, 24, 20,noise
2025-03-12 12:17:41.372,-3, 955, 316, 2, 0, -1, 0, -1, -1, 28, 26, 22,noise
2025-03-12 12:17:41.420,-3, 965, 315, 0, 0, -1, 0, -1, -3, 24, 18, 16,noise
2025-03-12 12:17:41.470,0, 959, 319, -3, 0, -1, 0, -1, -1, 17, 15, 15,noise
2025-03-12 12:17:41.515,0, 962, 320, -3, 0, -1, 1, 0, 0, 20, 19, 19,noise
2025-03-12 12:17:41.562,-2, 962, 320, -5, 0, -1, 0, 1, -1, 19, 16, 11,noise
2025-03-12 12:17:41.610,-5, 961, 320, -2, 0, -1, 1, -1, -1, 11, 8, 5,noise
2025-03-12 12:17:41.658,1, 958, 318, -3, 0, -1, 1, -1, -1, 20, 12, 8,noise
2025-03-12 12:17:41.707,-6, 963, 317, -2, 0, -1, 1, 1, -3, 27, 24, 25,noise
2025-03-12 12:17:41.756,-6, 958, 329, -2, 0, -1, 1, 0, -2, 19, 17, 16,noise
2025-03-12 12:17:41.805,0, 961, 328, -3, 0, -1, 2, -1, -3, 18, 14, 13,noise
2025-03-12 12:17:41.854,-1, 955, 327, -1, 0, -1, 1, -1, -3, 24, 19, 20,noise
2025-03-12 12:17:41.904,-1, 959, 327, -3, 0, -1, 1, -1, -2, 21, 17, 14,noise
2025-03-12 12:17:41.953,0, 958, 325, -1, 0, 0, 1, -2, -2, 16, 18, 14,noise
2025-03-12 12:17:42.002,-2, 967, 325, -1, 0, -1, 0, 0, -2, 19, 21, 20,noise
2025-03-12 12:17:42.051,-3, 961, 321, -3, 0, -1, -1, -2, -2, 25, 22, 25,noise
2025-03-12 12:17:42.100,3, 956, 324, 0, 0, -1, 0, -2, 0, 17, 13, 9,noise
2025-03-12 12:17:42.143,-4, 963, 321, 1, 0, 0, 0, 0, -2, 26, 24, 25,noise
2025-03-12 12:17:42.193,-3, 956, 321, -1, 0, -1, 1, 0, -1, 17, 16, 12,noise
2025-03-12 12:17:42.240,1, 959, 317, -3, 0, -1, -1, 0, -3, 16, 20, 21,noise
2025-03-12 12:17:42.289,1, 958, 322, 1, 0, -1, 0, -1, -2, 28, 23, 22,noise
2025-03-12 12:17:42.338,-2, 959, 325, 0, 0, -1, 0, -2, -3, 22, 20, 18,noise
2025-03-12 12:17:42.388,-3, 963, 326, 1, 0, -1, 1, 0, -2, 24, 25, 23,noise
2025-03-12 12:17:42.436,-3, 962, 322, 0, 0, -1, 0, -2, -2, 10, 10, 18,noise
2025-03-12 12:17:42.486,0, 961, 320, -4, 0, -1, 0, -1, -2, 16, 13, 14,noise
2025-03-12 12:17:42.534,-2, 958, 317, -4, 0, -1, 1, -2, -1, 18, 14, 9,noise
2025-03-12 12:17:42.580,0, 958, 328, 0, 0, -1, -1, -1, -1, 10, 8, 4,noise
2025-03-12 12:17:42.626,0, 959, 329, -1, 0, -1, 0, -1, -3, 25, 25, 24,noise
2025-03-12 12:17:42.678,-2, 963, 322, -1, 0, -1, 2, -1, -2, 26, 24, 25,noise
2025-03-12 12:17:42.731,-2, 958, 321, -1, 0, -1, 0, -1, -2, 12, 12, 11,noise
2025-03-12 12:17:42.770,-5, 958, 320, 3, 0, -1, -1, -1, -2, 17, 12, 7,noise
2025-03-12 12:17:42.820,0, 952, 324, -3, 0, -1, 0, -2, -2, 7, 7, 6,noise
2025-03-12 12:17:42.870,1, 961, 321, 0, 0, -1, -1, -1, -1, 20, 13, 16,noise
2025-03-12 12:17:42.920,-4, 955, 321, -2, 0, -1, 1, 0, -1, 22, 23, 23,noise
2025-03-12 12:17:42.969,1, 958, 324, 0, 0, -1, 0, -1, -1, 25, 23, 25,noise
2025-03-12 12:17:43.018,0, 961, 322, -3, 0, -1, 1, -2, -2, 27, 22, 25,noise
2025-03-12 12:17:43.065,-5, 964, 322, -1, 0, -1, 2, 0, -2, 27, 25, 24,noise
2025-03-12 12:17:43.110,0, 961, 324, -4, 0, -1, -1, -2, -2, 19, 18, 17,noise
2025-03-12 12:17:43.165,-3, 960, 311, 4, 0, -1, 1, -3, -3, 25, 23, 22,noise
2025-03-12 12:17:43.213,-1, 962, 315, -1, 0, -1, 1, -3, -2, 26, 23, 23,noise
2025-03-12 12:17:43.263,-5, 964, 318, 4, 0, -1, 2, 0, -3, 19, 16, 16,noise
2025-03-12 12:17:43.309,0, 953, 311, 7, 0, 0, 0, -1, -1, 18, 17, 15,noise
2025-03-12 12:17:43.354,1, 966, 295, 2, 0, 0, 2, -1, -2, 26, 23, 25,noise
2025-03-12 12:17:43.403,0, 962, 309, -10, 0, 0, 1, -1, 0, 5, 3, 8,noise
2025-03-12 12:17:43.443,1, 964, 310, -8, 0, 0, 0, -1, -2, 19, 19, 15,noise
2025-03-12 12:17:43.501,0, 963, 324, -1, 0, -1, -1, -2, -1, 28, 25, 19,noise
2025-03-12 12:17:43.550,-2, 966, 314, 4, 0, -1, -1, -1, -3, 25, 19, 17,noise
2025-03-12 12:17:43.595,-4, 958, 309, 0, 0, -1, 0, 0, -2, 22, 18, 18,noise
2025-03-12 12:17:43.640,-1, 958, 299, 2, 0, 0, 1, -1, -1, 26, 24, 25,noise
2025-03-12 12:17:43.691,5, 966, 316, 2, 0, -1, -1, -2, -1, 28, 24, 24,noise
2025-03-12 12:17:43.740,3, 977, 295, 8, 0, -1, 1, -1, -1, 29, 22, 19,noise
2025-03-12 12:17:43.790,2, 983, 294, 2, 0, -1, -1, -1, -1, 29, 25, 23,noise
2025-03-12 12:17:43.837,1, 968, 295, -2, 0, -1, 1, -1, -1, 20, 16, 18,noise
2025-03-12 12:17:43.886,3, 967, 293, 1, 0, -1, 1, -1, -1, 14, 21, 16,noise
2025-03-12 12:17:43.935,0, 965, 298, -1, 0, -1, 1, -1, 0, 9, 17, 14,noise
2025-03-12 12:17:43.980,0, 968, 291, 0, 0, -1, -1, -1, -1, 17, 17, 12,noise
2025-03-12 12:17:44.026,-2, 968, 299, -1, 0, -1, 0, 0, -2, 16, 17, 16,noise
2025-03-12 12:17:44.079,-1, 968, 294, -2, 0, -1, -1, 0, -1, 19, 10, 7,noise
2025-03-12 12:17:44.124,1, 965, 296, -2, 0, -1, 1, 0, -1, 6, 6, 12,noise
2025-03-12 12:17:44.170,2, 972, 294, -1, 0, -1, -1, 1, 0, 20, 15, 18,noise
2025-03-12 12:17:44.218,1, 967, 294, -1, 0, 0, 1, 0, 0, 17, 15, 13,noise
2025-03-12 12:17:44.267,1, 963, 296, -1, 0, -1, -1, 0, -2, 6, 15, 12,noise
2025-03-12 12:17:44.312,-3, 966, 295, -1, 0, -1, 1, -1, -1, 3, 10, 9,noise
2025-03-12 12:17:44.360,2, 964, 298, -2, 0, -1, 2, -1, 0, 19, 13, 6,noise
2025-03-12 12:17:44.410,-3, 970, 295, -2, 0, -1, 0, 0, -1, 25, 22, 25,noise
2025-03-12 12:17:44.460,0, 972, 294, -2, 0, -1, 0, -2, 0, 27, 25, 26,noise
2025-03-12 12:17:44.504,-4, 968, 291, -1, 0, -1, 1, 0, 0, 26, 22, 25,noise
2025-03-12 12:17:44.554,-1, 968, 295, -1, 0, -1, 1, -1, -2, 25, 23, 23,noise
2025-03-12 12:17:44.604,-2, 971, 292, -1, 0, -1, 0, -1, -1, 19, 12, 11,noise
2025-03-12 12:17:44.654,-4, 963, 296, -1, 0, -1, 0, 1, -2, 25, 25, 23,noise
2025-03-12 12:17:44.702,2, 968, 293, -2, 0, -1, 0, 0, -1, 25, 24, 27,noise
2025-03-12 12:17:44.751,-4, 962, 293, -2, 0, 0, -1, -1, -2, 27, 25, 29,noise
2025-03-12 12:17:44.800,0, 964, 302, -1, 0, 0, -1, -1, 1, 17, 19, 18,noise
2025-03-12 12:17:44.843,3, 961, 294, -3, 0, -1, 0, 1, 0, 18, 13, 14,noise
2025-03-12 12:17:50.250,406, 873, 553, -82, -20, 16, -8, 16, -22, 806, 10, 16,A
2025-03-12 12:17:50.301,462, 900, 460, -91, -15, 31, -7, 18, -23, 814, 16, 15,A
2025-03-12 12:17:50.367,362, 270, 861, -60, -2, 46, -8, 21, -23, 780, 159, 23,A
2025-03-12 12:17:50.421,426, 619, 693, 20, -32, 14, -8, 23, -22, 751, 205, 22,A
2025-03-12 12:17:50.484,469, 713, 652, -11, -16, 21, -11, 23, -22, 419, 303, 24,A
2025-03-12 12:17:50.540,522, 483, 671, -4, -15, 18, -12, 25, -21, 22, 358, 128,A
2025-03-12 12:17:50.600,514, 520, 685, 64, -20, 1, -13, 26, -20, 40, 361, 23,A
2025-03-12 12:17:50.653,532, 544, 599, 38, 3, 13, -12, 25, -21, 832, 19, 224,A
2025-03-12 12:17:50.713,822, 814, 576, -101, -2, 9, -13, 23, -20, 890, 21, 406,A
2025-03-12 12:17:50.767,459, 604, 691, -5, 1, 50, -13, 25, -20, 912, 22, 537,A
2025-03-12 12:17:50.820,631, 477, 685, -54, -48, 43, -14, 27, -20, 929, 672, 660,A
2025-03-12 12:17:50.890,583, 378, 557, -8, -16, 15, -14, 29, -18, 668, 775, 655,A
2025-03-12 12:17:50.941,626, 696, 375, 35, 2, -34, -15, 28, -17, 19, 717, 460,A
2025-03-12 12:17:51.048,597, 539, 561, 7, 1, -9, -14, 28, -17, 507, 642, 299,A
2025-03-12 12:17:51.058,682, 521, 571, 70, 15, 1, -15, 27, -18, 870, 726, 517,A
2025-03-12 12:17:51.116,830, 540, 550, 34, 24, -3, -14, 26, -20, 847, 633, 611,A
2025-03-12 12:17:51.170,422, 759, 628, -11, 3, 12, -12, 26, -20, 785, 791, 608,A
2025-03-12 12:17:51.234,401, 519, 728, -61, 5, -16, -14, 27, -20, 478, 759, 413,A
2025-03-12 12:17:51.290,652, 626, 527, -24, -23, -27, -14, 28, -19, 563, 587, 9,A
2025-03-12 12:17:51.351,750, 823, 548, 106, -17, -30, -13, 25, -17, 760, 635, 26,A
2025-03-12 12:17:51.410,671, 696, 583, 57, -13, -3, -13, 23, -19, 835, 618, 28,A
2025-03-12 12:17:51.468,608, 668, 471, -35, -7, 8, -13, 22, -18, 794, 88, 20,A
2025-03-12 12:17:51.520,369, 479, 534, -2, -6, 12, -14, 22, -18, 643, 19, 14,A
2025-03-12 12:17:51.583,528, 578, 451, 22, -4, -3, -15, 24, -17, 626, 19, 14,A
2025-03-12 12:17:51.635,570, 649, 511, -14, 4, 0, -14, 22, -17, 675, 193, 25,A
2025-03-12 12:17:51.690,494, 536, 586, -50, 17, -34, -15, 25, -17, 797, 673, 327,A
2025-03-12 12:17:51.752,638, 718, 473, 36, 9, -45, -12, 22, -19, 597, 764, 517,A
2025-03-12 12:17:51.810,566, 646, 428, -3, 29, -36, -13, 20, -19, 30, 747, 364,A
2025-03-12 12:17:51.868,652, 932, 678, -1, 41, 15, -10, 20, -18, 22, 624, 206,A
2025-03-12 12:17:51.920,200, 527, 496, -31, 54, 73, -9, 22, -21, 708, 684, 47,A
2025-03-12 12:17:51.983,700, 719, 540, -7, 18, 20, -10, 23, -22, 782, 548, 185,A
2025-03-12 12:17:52.040,509, 705, 640, -28, 16, 35, -10, 24, -22, 733, 441, 19,A
2025-03-12 12:17:52.102,455, 533, 668, 23, -16, -27, -10, 27, -23, 475, 26, 28,A
2025-03-12 12:17:52.160,547, 686, 612, 38, -51, -28, -10, 25, -22, 507, 26, 21,A
2025-03-12 12:17:52.220,513, 751, 489, -27, -25, -12, -12, 23, -19, 681, 17, 15,A
2025-03-12 12:17:52.270,504, 654, 645, -34, -62, 27, -12, 23, -18, 839, 660, 28,A
2025-03-12 12:17:52.334,639, 541, 289, -43, -8, 34, -15, 26, -17, 900, 805, 190,A
2025-03-12 12:17:52.390,693, 497, 514, -42, -3, 1, -14, 25, -15, 876, 810, 180,A
2025-03-12 12:17:52.452,653, 659, 658, -35, -11, -10, -14, 26, -16, 207, 788, 31,A
2025-03-12 12:17:52.516,478, 520, 550, 77, -11, -23, -13, 26, -14, 19, 731, 19,A
2025-03-12 12:17:52.571,517, 510, 510, -2, -11, -14, -14, 23, -16, 154, 665, 31,A
2025-03-12 12:17:52.630,591, 549, 430, -21, 8, 19, -16, 25, -16, 908, 761, 378,A
2025-03-12 12:17:52.685,458, 727, 375, -57, 40, 9, -13, 26, -16, 949, 818, 688,A
2025-03-12 12:17:52.750,711, 655, 711, -15, -12, 21, -12, 26, -17, 967, 857, 794,A
2025-03-12 12:17:52.811,678, 570, 604, -5, -16, 21, -14, 27, -16, 975, 895, 814,A
2025-03-12 12:17:52.868,680, 554, 514, -7, -16, 1, -15, 27, -17, 980, 929, 835,A
2025-03-12 12:17:52.925,625, 572, 622, 6, -8, 13, -16, 28, -14, 981, 943, 858,A
2025-03-12 12:17:52.983,722, 541, 471, 15, -30, 19, -16, 28, -16, 982, 949, 864,A
2025-03-12 12:17:53.040,749, 529, 473, -16, -7, 0, -16, 28, -14, 984, 953, 872,A
2025-03-12 12:17:53.102,617, 472, 658, -6, -26, 6, -16, 29, -14, 984, 958, 875,A
2025-03-12 12:17:53.160,617, 309, 660, 75, -3, -12, -16, 28, -11, 987, 961, 844,A
2025-03-12 12:17:53.216,1048, 604, 26, 13, 26, 19, -15, 27, -13, 986, 948, 784,A
2025-03-12 12:17:53.270,677, 241, 545, -60, -17, -61, -16, 27, -12, 981, 947, 844,A
2025-03-12 12:17:53.334,594, 539, 586, 9, -45, 1, -16, 27, -12, 983, 957, 849,A
2025-03-12 12:17:53.390,515, 578, 333, 17, 33, 53, -17, 27, -10, 987, 963, 836,A
2025-03-12 12:17:53.451,739, 421, 345, 20, 34, -4, -16, 27, -11, 984, 953, 842,A
2025-03-12 12:17:53.511,775, 468, 760, 3, -53, -10, -16, 27, -12, 980, 928, 814,A
2025-03-12 12:17:53.567,860, 810, 217, -1, -9, 22, -16, 28, -10, 988, 962, 843,A
2025-03-12 12:17:53.630,919, 369, 166, -30, 74, -25, -17, 28, -13, 982, 956, 869,A
2025-03-12 12:17:53.690,484, 458, 665, -58, 91, -56, -14, 28, -18, 969, 920, 831,A
2025-03-12 12:17:54.056,579, 514, 647, -16, 5, 2, -16, 25, -16, 947, 814, 739,B
2025-03-12 12:17:54.117,626, 650, 662, -13, -6, 10, -14, 26, -15, 948, 814, 742,B
2025-03-12 12:17:54.169,755, 750, 413, -15, 0, -10, -15, 26, -16, 950, 831, 738,B
2025-03-12 12:17:54.234,653, 690, 657, 13, -29, 16, -14, 27, -15, 953, 852, 752,B
2025-03-12 12:17:54.290,667, 558, 475, 2, -3, 3, -15, 27, -14, 956, 862, 757,B
2025-03-12 12:17:54.340,676, 578, 488, -9, 1, 0, -15, 27, -14, 958, 869, 759,B
2025-03-12 12:17:54.400,585, 593, 568, -4, -15, 5, -15, 27, -14, 960, 880, 765,B
2025-03-12 12:17:54.460,657, 561, 510, -7, -42, 6, -16, 27, -13, 963, 900, 781,B
2025-03-12 12:17:54.520,740, 614, 396, -10, -11, -6, -16, 26, -12, 974, 936, 780,B
2025-03-12 12:17:54.580,617, 666, 509, 43, 53, 37, -15, 26, -12, 983, 937, 758,B
2025-03-12 12:17:54.640,744, 631, 231, -10, 26, 16, -15, 27, -10, 978, 930, 770,B
2025-03-12 12:17:54.701,449, 686, 766, -35, -39, -30, -16, 25, -13, 973, 933, 799,B
2025-03-12 12:17:54.761,781, 780, 325, 8, -20, -1, -17, 25, -13, 983, 956, 808,B
2025-03-12 12:17:54.817,585, 578, 675, 6, 2, 12, -17, 26, -12, 984, 961, 835,B
2025-03-12 12:17:54.875,834, 541, 262, 14, 12, 13, -17, 28, -12, 983, 957, 826,B
2025-03-12 12:17:54.932,553, 679, 789, 7, -1, -2, -16, 28, -12, 987, 958, 818,B
2025-03-12 12:17:54.990,666, 617, 81, 19, 22, 8, -15, 27, -13, 982, 940, 743,B
2025-03-12 12:17:55.045,927, 466, 230, -34, 27, -53, -15, 28, -13, 966, 895, 758,B
2025-03-12 12:17:55.105,370, 595, 769, -32, -3, -24, -14, 27, -15, 963, 910, 772,B
2025-03-12 12:17:55.400,653, 555, 524, -8, 3, 0, -14, 25, -12, 966, 912, 783,C
2025-03-12 12:17:55.460,643, 567, 516, -6, 1, 1, -16, 28, -14, 966, 914, 785,C
2025-03-12 12:17:55.518,708, 558, 478, -4, -4, 1, -15, 26, -13, 968, 919, 793,C
2025-03-12 12:17:55.570,668, 554, 520, -6, -5, 3, -15, 26, -12, 968, 927, 800,C
2025-03-12 12:17:55.634,636, 584, 523, 6, -21, 10, -16, 28, -11, 975, 937, 807,C
2025-03-12 12:17:55.690,631, 478, 593, -5, -9, -7, -15, 29, -12, 976, 949, 760,C
2025-03-12 12:17:55.752,544, 619, 185, 82, 10, -7, -16, 27, -13, 984, 937, 674,C
2025-03-12 12:17:55.810,746, 469, 505, -24, 32, 35, -14, 28, -13, 984, 954, 750,C
2025-03-12 12:17:55.870,810, 504, 276, -26, 27, -34, -16, 27, -13, 972, 946, 842,C
2025-03-12 12:17:55.932,485, 638, 727, -27, 19, -27, -16, 26, -16, 963, 926, 804,C
2025-03-12 12:17:55.990,633, 586, 549, 6, -22, 13, -15, 27, -17, 960, 905, 774,C
2025-03-12 12:17:56.040,756, 536, 388, -14, 2, -3, -16, 27, -15, 962, 903, 771,C
2025-03-12 12:17:57.216,666, 552, 509, -3, -2, 0, -16, 27, -13, 960, 903, 772,D
2025-03-12 12:17:57.272,673, 543, 515, -3, -2, 0, -15, 27, -14, 959, 903, 769,D
2025-03-12 12:17:57.330,673, 549, 522, -1, -2, 1, -16, 27, -15, 960, 904, 770,D
2025-03-12 12:17:57.386,672, 547, 520, -2, -2, 0, -15, 28, -14, 960, 906, 776,D
2025-03-12 12:17:57.440,678, 547, 499, -5, -3, 0, -16, 26, -14, 961, 907, 774,D
2025-03-12 12:17:57.500,655, 547, 528, -8, -5, -1, -16, 27, -13, 962, 908, 772,D
2025-03-12 12:17:57.560,676, 536, 524, -6, -20, 6, -16, 27, -12, 963, 915, 760,D
2025-03-12 12:17:57.617,708, 378, 559, 9, -7, -8, -17, 29, -12, 970, 933, 733,D
2025-03-12 12:17:57.670,857, 777, 548, 58, 40, 46, -15, 29, -12, 982, 933, 584,D
2025-03-12 12:17:57.734,744, 754, 402, -19, 27, 22, -17, 28, -14, 974, 914, 610,D
2025-03-12 12:17:57.793,626, 671, 718, -9, -38, -19, -16, 28, -13, 962, 927, 760,D
2025-03-12 12:17:57.851,633, 513, 546, 33, -9, 18, -16, 27, -11, 983, 953, 774,D
2025-03-12 12:17:57.910,581, 457, 434, 26, 23, 16, -18, 28, -13, 979, 937, 735,D
2025-03-12 12:17:57.970,981, 290, 446, -30, 30, -42, -15, 26, -14, 948, 872, 734,D
2025-03-12 12:17:58.033,462, 597, 798, -42, 11, -32, -15, 26, -16, 938, 877, 728,D
2025-03-12 12:17:58.290,683, 562, 489, 6, -9, 6, -14, 26, -13, 950, 885, 735,E
2025-03-12 12:17:58.349,697, 559, 479, 3, -7, 6, -14, 27, -14, 952, 885, 736,E
2025-03-12 12:17:58.404,689, 543, 496, -4, 1, -1, -15, 27, -14, 955, 892, 744,E
2025-03-12 12:17:58.464,668, 554, 522, -2, -2, 0, -15, 27, -12, 958, 894, 749,E
2025-03-12 12:17:58.520,700, 557, 468, -2, 0, 1, -16, 27, -13, 957, 899, 751,E
2025-03-12 12:17:58.571,657, 563, 531, -1, -4, 3, -17, 27, -14, 959, 902, 754,E
2025-03-12 12:17:58.633,587, 534, 605, -2, -29, 2, -16, 28, -14, 962, 919, 748,E
2025-03-12 12:17:58.690,673, 269, 683, 27, -13, -16, -17, 28, -14, 975, 938, 723,E
2025-03-12 12:17:58.750,739, 544, 179, 25, 25, 25, -16, 27, -13, 982, 931, 607,E
2025-03-12 12:17:58.810,743, 213, 622, -37, -6, -34, -15, 28, -14, 968, 908, 719,E
2025-03-12 12:17:58.870,613, -74, 119, -25, -39, -18, -17, 27, -13, 971, 935, 703,E
2025-03-12 12:17:58.931,653, 592, 206, 7, -1, 17, -17, 26, -11, 983, 962, 807,E
2025-03-12 12:17:58.990,667, 459, 415, 17, 32, -3, -15, 28, -11, 970, 936, 835,E
2025-03-12 12:17:59.050,653, 581, 668, 27, -45, 13, -15, 26, -12, 970, 899, 737,E
2025-03-12 12:17:59.104,699, 849, 304, -32, 16, 40, -16, 26, -12, 985, 957, 782,E
2025-03-12 12:17:59.167,778, 388, 237, 0, 69, -26, -16, 29, -13, 974, 936, 832,E
2025-03-12 12:17:59.220,332, 656, 795, -3, -32, -6, -16, 29, -13, 966, 874, 726,E
2025-03-12 12:17:59.283,788, 253, -284, -17, 5, 2, -17, 26, -13, 983, 948, 742,E
2025-03-12 12:17:59.340,844, 526, 520, -9, 17, 22, -17, 28, -14, 981, 945, 816,E
2025-03-12 12:17:59.401,642, 578, 441, -44, 49, -47, -14, 28, -16, 971, 924, 800,E
2025-03-12 12:17:59.462,508, 614, 657, 12, -2, -12, -14, 27, -17, 962, 900, 793,E
2025-03-12 12:17:59.520,640, 571, 525, -1, -13, 7, -14, 27, -16, 960, 901, 808,E
2025-03-12 12:17:59.570,672, 594, 467, -3, -10, 8, -13, 27, -16, 965, 904, 799,E
2025-03-12 12:17:59.635,688, 551, 481, -9, 1, -2, -16, 26, -14, 967, 911, 794,E
2025-03-12 12:17:59.690,711, 553, 463, -10, 7, -7, -15, 26, -14, 965, 906, 788,E
2025-03-12 12:17:59.753,700, 568, 464, -27, 27, -13, -14, 25, -17, 962, 895, 778,E
2025-03-12 12:17:59.815,542, 555, 671, -22, 20, -11, -14, 27, -18, 962, 893, 769,E
2025-03-12 12:18:00.179,667, 601, 582, 8, -6, 61, -15, 24, -17, 966, 901, 739,F
2025-03-12 12:18:00.245,687, 531, 576, 10, -10, 52, -15, 24, -17, 968, 903, 740,F
2025-03-12 12:18:00.304,681, 574, 487, 18, -11, 40, -15, 25, -14, 970, 914, 746,F
2025-03-12 12:18:00.365,735, 593, 410, 5, -7, 12, -16, 27, -13, 971, 920, 762,F
2025-03-12 12:18:00.420,682, 612, 451, -11, -4, 7, -16, 26, -13, 973, 923, 770,F
2025-03-12 12:18:00.480,662, 561, 531, -10, -11, 5, -15, 26, -14, 974, 928, 776,F
2025-03-12 12:18:00.540,695, 575, 455, -10, -5, -2, -17, 27, -13, 972, 929, 772,F
2025-03-12 12:18:00.598,732, 602, 508, -26, -22, 4, -15, 29, -13, 974, 940, 760,F
2025-03-12 12:18:00.660,667, 352, 590, 49, -17, -19, -16, 27, -11, 982, 946, 717,F
2025-03-12 12:18:00.717,865, 800, 15, 15, 19, 22, -16, 27, -13, 984, 937, 605,F
2025-03-12 12:18:00.770,583, 277, 538, -42, -29, -57, -16, 27, -13, 972, 913, 705,F
2025-03-12 12:18:00.835,748, 840, 553, -7, -22, -6, -16, 27, -12, 978, 949, 714,F
2025-03-12 12:18:00.893,647, 709, 456, 3, 13, 27, -16, 25, -13, 984, 960, 804,F
2025-03-12 12:18:00.954,495, 404, 514, 36, 55, -25, -16, 28, -13, 971, 921, 785,F
2025-03-12 12:18:01.015,811, 1068, 231, -15, -9, -1, -17, 24, -12, 979, 938, 723,F
2025-03-12 12:18:01.067,712, 547, 578, 2, 11, 35, -15, 27, -13, 982, 952, 824,F
2025-03-12 12:18:01.130,559, 586, 515, -51, 85, -57, -14, 25, -14, 969, 915, 798,F
2025-03-12 12:18:01.450,769, 552, 385, -7, 1, 1, -16, 29, -14, 967, 911, 789,G
2025-03-12 12:18:01.510,740, 553, 411, -10, 2, -1, -16, 25, -12, 969, 913, 789,G
2025-03-12 12:18:01.567,682, 569, 487, -6, -3, 0, -16, 27, -12, 967, 915, 785,G
2025-03-12 12:18:01.624,700, 544, 458, -8, -1, -1, -16, 28, -10, 969, 919, 778,G
2025-03-12 12:18:01.683,630, 577, 559, -3, -11, 9, -17, 29, -13, 972, 927, 782,G
2025-03-12 12:18:01.740,668, 524, 517, -9, 0, -8, -16, 28, -14, 976, 945, 704,G
2025-03-12 12:18:01.800,1198, 511, 486, 70, 6, -16, -16, 25, -13, 980, 937, 530,G
2025-03-12 12:18:01.850,622, 548, 106, -20, 39, 35, -16, 27, -11, 984, 940, 515,G
2025-03-12 12:18:01.920,538, 272, 745, -14, -31, -21, -15, 28, -13, 979, 950, 746,G
2025-03-12 12:18:01.970,829, 721, 347, 25, 1, 2, -17, 28, -13, 984, 950, 731,G
2025-03-12 12:18:02.032,722, 611, 362, -7, 21, 19, -16, 28, -13, 982, 939, 703,G
2025-03-12 12:18:02.097,475, 492, 843, -13, -42, -22, -15, 27, -14, 974, 912, 610,G
2025-03-12 12:18:02.150,838, 1024, 70, 11, -8, 13, -16, 26, -11, 986, 958, 724,G
2025-03-12 12:18:02.210,803, 569, 471, 3, 20, 20, -16, 27, -13, 982, 948, 811,G
2025-03-12 12:18:02.270,667, 515, 490, -76, 78, -50, -15, 28, -14, 966, 889, 718,G
2025-03-12 12:18:02.592,734, 534, 428, 2, -16, -1, -15, 26, -13, 953, 881, 686,H
2025-03-12 12:18:02.650,743, 525, 421, -1, -13, -4, -15, 28, -13, 953, 881, 683,H
2025-03-12 12:18:02.710,650, 558, 514, 3, -1, -2, -16, 28, -14, 955, 888, 693,H
2025-03-12 12:18:02.770,684, 561, 477, -3, -10, -3, -14, 29, -15, 956, 897, 721,H
2025-03-12 12:18:02.831,633, 511, 607, -8, -26, 9, -16, 27, -13, 962, 922, 722,H
2025-03-12 12:18:02.884,694, 635, 447, 57, 19, 20, -17, 27, -13, 978, 933, 617,H
2025-03-12 12:18:02.944,662, 554, 258, 6, 17, 18, -17, 26, -14, 980, 915, 513,H
2025-03-12 12:18:03.001,479, 429, 680, -16, -12, -45, -15, 28, -14, 965, 891, 572,H
2025-03-12 12:18:03.064,797, 813, 228, 47, -23, -1, -16, 27, -13, 983, 951, 711,H
2025-03-12 12:18:03.124,650, 482, 528, -19, 2, 24, -15, 27, -14, 977, 946, 805,H
2025-03-12 12:18:03.182,436, 594, 889, 8, -35, 7, -15, 26, -11, 974, 937, 799,H
2025-03-12 12:18:03.240,790, 944, -170, 41, 43, 41, -17, 26, -12, 985, 933, 705,H
2025-03-12 12:18:03.300,903, 558, 388, -10, 25, -12, -15, 27, -12, 970, 904, 758,H
2025-03-12 12:18:03.350,540, 638, 731, -71, 14, -44, -15, 28, -12, 950, 909, 748,H
2025-03-12 12:18:03.600,660, 578, 500, -18, 10, -5, -16, 27, -13, 953, 896, 697,I
2025-03-12 12:18:03.660,611, 555, 549, -14, 6, -3, -14, 27, -13, 954, 897, 686,I
2025-03-12 12:18:03.718,715, 543, 430, 5, -5, 0, -16, 26, -12, 952, 902, 712,I
2025-03-12 12:18:03.770,533, 539, 656, 3, -23, 0, -17, 27, -11, 953, 903, 644,I
2025-03-12 12:18:03.834,969, 839, 441, 11, -17, 7, -17, 27, -12, 977, 950, 661,I
2025-03-12 12:18:03.890,821, 561, 515, 11, 5, 26, -17, 28, -11, 983, 961, 805,I
2025-03-12 12:18:03.947,569, 421, 413, 3, 34, -43, -15, 28, -12, 964, 923, 797,I
2025-03-12 12:18:04.010,530, 580, 496, 55, -16, -18, -17, 27, -12, 977, 930, 734,I
2025-03-12 12:18:04.067,601, 727, 369, 10, 38, 36, -15, 28, -13, 977, 919, 730,I
2025-03-12 12:18:04.120,620, 659, 684, 7, -26, -23, -16, 27, -15, 962, 873, 646,I
2025-03-12 12:18:04.182,1084, 881, 264, -24, -24, 15, -17, 26, -12, 981, 951, 673,I
2025-03-12 12:18:04.247,922, 376, 283, -14, 46, -18, -17, 28, -14, 974, 935, 799,I
2025-03-12 12:18:04.300,411, 534, 848, -54, 28, -41, -14, 26, -16, 960, 885, 730,I
2025-03-12 12:18:04.558,609, 551, 520, -4, -1, -3, -15, 27, -14, 958, 896, 704,J
2025-03-12 12:18:04.620,609, 559, 541, -3, -3, -3, -16, 26, -12, 957, 898, 683,J
2025-03-12 12:18:04.674,622, 540, 622, 16, -32, 10, -17, 27, -12, 960, 903, 607,J
2025-03-12 12:18:04.734,476, 541, 127, -15, -18, 25, -16, 28, -12, 982, 958, 739,J
2025-03-12 12:18:04.796,644, 557, 528, 10, 8, 18, -15, 29, -12, 979, 958, 814,J
2025-03-12 12:18:04.850,474, 524, 687, -3, 12, -42, -16, 28, -12, 961, 912, 754,J
2025-03-12 12:18:04.910,286, 760, 31, 5, 24, 36, -16, 28, -13, 982, 946, 709,J
2025-03-12 12:18:04.964,590, 651, 207, -45, 31, 24, -15, 29, -14, 986, 946, 133,J
2025-03-12 12:18:05.030,907, 227, 591, 16, -12, -46, -14, 29, -15, 950, 882, 320,J
2025-03-12 12:18:05.090,500, 504, 811, -13, 37, -17, -15, 27, -15, 925, 863, 569,J
2025-03-12 12:18:05.148,527, 607, 603, 14, -24, 12, -15, 28, -16, 932, 846, 667,J
2025-03-12 12:18:05.210,765, 501, 457, -3, -7, -4, -15, 28, -14, 937, 845, 681,J
2025-03-12 12:18:05.450,701, 569, 451, -5, -7, 0, -15, 28, -13, 950, 888, 654,K
2025-03-12 12:18:05.500,688, 555, 461, -8, -6, -1, -16, 29, -13, 950, 887, 650,K
2025-03-12 12:18:05.570,724, 511, 510, -5, -17, 3, -16, 28, -14, 953, 899, 634,K
2025-03-12 12:18:05.620,702, 563, 441, 5, -4, 1, -16, 28, -13, 958, 910, 655,K
2025-03-12 12:18:05.682,680, 547, 512, 28, -4, -6, -16, 27, -13, 967, 919, 621,K
2025-03-12 12:18:05.740,975, 592, 442, 13, 20, 21, -17, 28, -13, 974, 903, 166,K
2025-03-12 12:18:05.800,625, 304, 901, -24, -22, 10, -17, 29, -13, 976, 951, 388,K
2025-03-12 12:18:05.864,466, 396, 569, -12, -34, -11, -14, 28, -10, 981, 968, 683,K
2025-03-12 12:18:05.920,742, 498, 152, 6, 41, -15, -16, 29, -11, 971, 937, 710,K
2025-03-12 12:18:05.980,720, 645, 807, 35, -47, 17, -16, 27, -12, 965, 903, 627,K
2025-03-12 12:18:06.032,931, 739, 304, -45, 5, 48, -17, 27, -11, 984, 957, 695,K
2025-03-12 12:18:06.098,704, 370, 451, -1, 21, 12, -18, 30, -13, 980, 946, 736,K
2025-03-12 12:18:06.150,641, 474, 560, -54, 67, -66, -15, 29, -14, 951, 894, 718,K
2025-03-12 12:18:06.430,685, 547, 523, 5, -9, 4, -17, 26, -14, 948, 871, 676,L
2025-03-12 12:18:06.495,686, 551, 487, 6, -9, 5, -15, 27, -13, 948, 870, 678,L
2025-03-12 12:18:06.550,703, 531, 448, -3, -1, -7, -16, 27, -14, 944, 878, 700,L
2025-03-12 12:18:06.610,645, 544, 587, -7, -21, 1, -16, 27, -12, 946, 895, 709,L
2025-03-12 12:18:06.665,720, 469, 332, 4, -7, -8, -16, 28, -13, 969, 926, 627,L
2025-03-12 12:18:06.725,612, 753, 380, 35, 27, 28, -15, 26, -12, 977, 921, 425,L
2025-03-12 12:18:06.781,738, 620, 108, 15, 8, 1, -17, 27, -13, 979, 920, 152,L
2025-03-12 12:18:06.840,782, 395, 491, 7, -13, 13, -16, 28, -12, 984, 961, 651,L
2025-03-12 12:18:06.896,796, 565, 372, 9, 16, 0, -17, 29, -13, 977, 938, 782,L
2025-03-12 12:18:06.950,605, 619, 660, -51, 33, -45, -16, 28, -15, 955, 883, 703,L
2025-03-12 12:18:07.241,694, 560, 484, 4, -7, 3, -17, 28, -14, 956, 898, 696,M
2025-03-12 12:18:07.297,712, 551, 468, 5, -6, 2, -16, 27, -15, 956, 897, 697,M
2025-03-12 12:18:07.353,708, 552, 476, -4, 3, -4, -16, 26, -14, 953, 893, 698,M
2025-03-12 12:18:07.416,651, 565, 532, -1, -3, -3, -15, 26, -13, 951, 887, 671,M
2025-03-12 12:18:07.474,682, 567, 474, -5, -5, -5, -16, 27, -14, 947, 888, 666,M
2025-03-12 12:18:07.532,632, 551, 544, 1, -14, 6, -14, 27, -12, 950, 907, 680,M
2025-03-12 12:18:07.590,682, 469, 485, 30, -4, -7, -16, 25, -9, 968, 922, 656,M
2025-03-12 12:18:07.647,765, 693, 161, 22, 30, 31, -16, 27, -12, 975, 913, 331,M
2025-03-12 12:18:07.700,694, 142, 621, -23, -34, -37, -16, 28, -13, 960, 911, 655,M
2025-03-12 12:18:07.764,775, 539, 588, -26, -15, -15, -16, 27, -13, 969, 943, 695,M
2025-03-12 12:18:07.820,958, 1053, 67, -16, 38, 46, -17, 27, -11, 983, 949, 648,M
2025-03-12 12:18:07.881,645, 439, 489, -13, -3, 2, -17, 28, -14, 978, 951, 757,M
2025-03-12 12:18:07.940,838, 651, 465, 40, 2, 2, -16, 27, -14, 982, 954, 660,M
2025-03-12 12:18:08.000,865, 625, 345, -11, 26, 31, -17, 28, -14, 978, 941, 528,M
2025-03-12 12:18:08.061,824, 551, 382, -66, 70, -50, -17, 28, -14, 961, 893, 640,M
2025-03-12 12:18:08.120,318, 547, 909, -38, 36, -36, -14, 28, -17, 941, 826, 512,M
2025-03-12 12:18:08.408,772, 538, 481, 6, -7, 2, -14, 28, -14, 937, 847, 607,N
2025-03-12 12:18:08.465,751, 556, 467, 2, -5, 2, -16, 28, -13, 937, 846, 605,N
2025-03-12 12:18:08.523,685, 535, 467, -4, -1, -6, -15, 30, -14, 936, 851, 598,N
2025-03-12 12:18:08.580,660, 537, 494, -6, -7, -9, -16, 28, -14, 933, 863, 613,N
2025-03-12 12:18:08.640,685, 545, 473, -9, -21, -2, -17, 26, -13, 938, 888, 625,N
2025-03-12 12:18:08.699,686, 436, 592, 13, -6, -8, -16, 29, -11, 961, 919, 623,N
2025-03-12 12:18:08.756,1348, 520, 675, 19, 17, 18, -16, 27, -11, 978, 928, 327,N
2025-03-12 12:18:08.813,800, 606, 300, -10, 31, 23, -14, 28, -12, 969, 908, 399,N
2025-03-12 12:18:08.880,442, 686, 866, -22, -30, -23, -17, 26, -14, 952, 916, 685,N
2025-03-12 12:18:08.940,742, 473, 527, 32, -17, -12, -16, 29, -12, 978, 942, 623,N
2025-03-12 12:18:08.998,687, 535, 80, 10, 21, 43, -16, 29, -13, 982, 936, 513,N
2025-03-12 12:18:09.055,835, 123, 1113, 5, -44, -36, -15, 28, -14, 976, 956, 705,N
2025-03-12 12:18:09.112,913, 642, 169, -15, 48, 0, -16, 28, -13, 970, 938, 775,N
2025-03-12 12:18:09.174,557, 552, 697, -14, 50, -5, -14, 29, -16, 964, 881, 667,N
2025-03-12 12:18:09.480,710, 537, 481, 10, -10, 8, -16, 30, -14, 960, 903, 656,O
2025-03-12 12:18:09.531,720, 530, 476, 8, -8, 8, -16, 28, -13, 960, 903, 660,O
2025-03-12 12:18:09.590,684, 538, 497, 9, -10, 7, -16, 29, -14, 959, 912, 681,O
2025-03-12 12:18:09.648,635, 483, 460, 11, 2, -24, -16, 28, -11, 957, 929, 630,O
2025-03-12 12:18:09.711,705, 454, 667, 74, -6, -23, -16, 28, -13, 968, 912, 453,O
2025-03-12 12:18:09.764,792, 309, 180, -38, 22, 49, -15, 28, -14, 983, 947, 524,O
2025-03-12 12:18:09.830,541, 546, 600, -19, -28, -42, -16, 28, -14, 977, 962, 730,O
2025-03-12 12:18:09.881,955, 647, 318, 5, 17, -29, -16, 28, -13, 932, 917, 752,O
2025-03-12 12:18:09.949,637, 588, 624, -34, 66, -11, -14, 29, -14, 925, 832, 661,O
2025-03-12 12:18:10.000,495, 584, 724, 1, 0, -2, -14, 27, -17, 926, 788, 593,O
2025-03-12 12:18:10.063,688, 549, 471, 5, -7, 6, -15, 28, -16, 927, 795, 616,O
2025-03-12 12:18:10.346,677, 576, 500, -11, -16, 3, -16, 28, -14, 922, 824, 598,P
2025-03-12 12:18:10.400,702, 544, 456, -15, -15, 2, -15, 28, -13, 923, 830, 596,P
2025-03-12 12:18:10.460,631, 493, 583, -3, -15, 0, -16, 26, -14, 934, 874, 591,P
2025-03-12 12:18:10.516,783, 480, 565, 49, -7, -6, -16, 27, -11, 966, 912, 538,P
2025-03-12 12:18:10.570,572, 297, 369, 9, 16, 18, -17, 29, -13, 976, 914, 197,P
2025-03-12 12:18:10.632,641, 365, 606, 21, -44, -75, -16, 29, -13, 958, 909, 623,P
2025-03-12 12:18:10.697,853, 587, 606, -3, -40, -2, -17, 27, -10, 977, 953, 749,P
2025-03-12 12:18:10.750,530, 832, 194, 2, 20, 25, -17, 27, -11, 983, 956, 702,P
2025-03-12 12:18:10.812,857, 568, 240, -5, 30, -4, -16, 29, -12, 964, 906, 682,P
2025-03-12 12:18:10.870,671, 547, 605, -41, 62, -35, -15, 28, -16, 947, 878, 670,P
2025-03-12 12:18:10.927,398, 619, 774, 7, -10, 7, -15, 27, -17, 944, 878, 693,P
2025-03-12 12:18:10.980,734, 510, 464, 9, -18, 13, -16, 28, -17, 947, 879, 696,P
2025-03-12 12:18:11.220,718, 583, 486, -3, -5, 7, -16, 27, -15, 944, 838, 591,Q
2025-03-12 12:18:11.280,709, 569, 474, -4, -3, 7, -15, 28, -14, 946, 840, 603,Q
2025-03-12 12:18:11.340,614, 577, 599, 12, -13, 16, -16, 26, -13, 950, 868, 661,Q
2025-03-12 12:18:11.397,663, 501, 485, 9, -23, 12, -16, 28, -12, 956, 890, 695,Q
2025-03-12 12:18:11.450,766, 479, 384, -16, -10, -27, -17, 27, -13, 963, 932, 511,Q
2025-03-12 12:18:11.513,855, 744, 84, 78, 20, 5, -16, 27, -12, 974, 920, 417,Q
2025-03-12 12:18:11.572,646, 729, 371, -30, 15, 27, -16, 28, -13, 982, 950, 373,Q
2025-03-12 12:18:11.631,579, 542, 473, 20, -32, -35, -16, 28, -12, 971, 941, 707,Q
2025-03-12 12:18:11.690,473, 575, 714, 2, 45, -23, -15, 27, -14, 959, 879, 477,Q
2025-03-12 12:18:11.750,937, 257, 193, 24, -3, 0, -16, 28, -13, 976, 928, 467,Q
2025-03-12 12:18:11.799,777, 381, 413, 8, 18, 38, -14, 29, -15, 985, 951, 365,Q
2025-03-12 12:18:11.864,801, 411, 109, -15, 64, -60, -15, 28, -13, 971, 905, 622,Q
2025-03-12 12:18:11.923,364, 548, 983, -21, 32, -44, -14, 27, -18, 935, 725, 489,Q
2025-03-12 12:18:12.217,612, 570, 580, 4, -19, -1, -13, 27, -15, 916, 777, 491,R
2025-03-12 12:18:12.274,630, 560, 580, 5, -21, -2, -14, 28, -14, 915, 775, 510,R
2025-03-12 12:18:12.336,660, 542, 514, -1, -10, -4, -15, 28, -17, 911, 802, 571,R
2025-03-12 12:18:12.390,597, 574, 578, -2, -28, 4, -16, 26, -14, 919, 835, 575,R
2025-03-12 12:18:12.450,762, 511, 427, -1, -48, -6, -13, 27, -14, 927, 885, 633,R
2025-03-12 12:18:12.512,725, 253, 512, 39, -12, -18, -17, 27, -12, 966, 918, 590,R
2025-03-12 12:18:12.569,581, 729, 196, 28, 36, 45, -16, 27, -13, 977, 909, 356,R
2025-03-12 12:18:12.630,636, 192, 674, 0, -39, -57, -15, 28, -13, 961, 905, 658,R
2025-03-12 12:18:12.680,808, 470, 637, -4, -30, -3, -18, 26, -12, 973, 946, 734,R
2025-03-12 12:18:12.750,372, 715, 388, -13, 27, 25, -17, 27, -13, 979, 927, 624,R
2025-03-12 12:18:12.800,968, 486, 283, -20, 16, 16, -15, 27, -12, 982, 932, 202,R
2025-03-12 12:18:12.865,765, 398, 510, -8, 11, 34, -15, 30, -13, 987, 951, 205,R
2025-03-12 12:18:12.920,558, 480, 520, -2, 82, -80, -16, 28, -14, 961, 906, 582,R
2025-03-12 12:18:13.203,623, 569, 552, -2, -21, 4, -15, 27, -16, 948, 874, 615,S
2025-03-12 12:18:13.262,631, 570, 553, -4, -21, 4, -14, 26, -16, 947, 878, 619,S
2025-03-12 12:18:13.320,702, 521, 481, 4, -10, 7, -16, 27, -15, 951, 890, 649,S
2025-03-12 12:18:13.377,730, 541, 479, 6, -6, 7, -15, 28, -15, 953, 890, 662,S
2025-03-12 12:18:13.431,649, 554, 546, 1, -13, 12, -16, 28, -15, 960, 905, 689,S
2025-03-12 12:18:13.490,653, 561, 515, 8, -32, 9, -16, 29, -13, 968, 923, 697,S
2025-03-12 12:18:13.550,609, 376, 586, 11, -7, -17, -17, 27, -13, 970, 933, 541,S
2025-03-12 12:18:13.610,868, 566, 414, 9, 15, 17, -16, 27, -12, 979, 940, 512,S
2025-03-12 12:18:13.662,594, 690, 467, 5, 4, 16, -15, 29, -12, 985, 951, 258,S
2025-03-12 12:18:13.723,800, 438, 367, 33, 19, -16, -15, 29, -14, 966, 883, 344,S
2025-03-12 12:18:13.780,576, 576, 681, -26, 60, -43, -14, 28, -16, 938, 850, 572,S
2025-03-12 12:18:13.843,461, 688, 670, 9, -19, 13, -13, 27, -17, 940, 874, 691,S
2025-03-12 12:18:14.080,701, 529, 545, -8, -9, -11, -15, 27, -14, 939, 868, 657,T
2025-03-12 12:18:14.130,709, 543, 517, -7, -6, -10, -16, 26, -14, 938, 866, 630,T
2025-03-12 12:18:14.196,648, 564, 490, -9, -4, -6, -15, 28, -15, 941, 868, 616,T
2025-03-12 12:18:14.250,636, 547, 527, -4, -22, -5, -15, 26, -14, 940, 870, 470,T
2025-03-12 12:18:14.315,704, 443, 311, 23, -14, -13, -16, 26, -14, 965, 911, 17,T
2025-03-12 12:18:14.372,665, 655, 587, 7, 1, 58, -17, 28, -12, 983, 956, 693,T
2025-03-12 12:18:14.428,647, 511, 443, 17, 7, 9, -15, 29, -11, 972, 928, 782,T
2025-03-12 12:18:14.481,576, 687, 914, 5, -7, -14, -16, 26, -13, 961, 902, 724,T
2025-03-12 12:18:14.544,792, 789, 264, 11, 8, 10, -18, 27, -13, 980, 941, 589,T
2025-03-12 12:18:14.600,649, 351, 531, 26, 26, 26, -17, 27, -10, 984, 937, 217,T
2025-03-12 12:18:14.663,1002, 303, 510, -21, 12, -37, -16, 27, -15, 962, 909, 685,T
2025-03-12 12:18:14.724,390, 572, 857, -27, 44, -30, -16, 28, -17, 930, 879, 717,T
2025-03-12 12:18:14.780,578, 588, 572, 11, -23, 16, -15, 28, -18, 923, 798, 695,T
2025-03-12 12:18:15.040,658, 567, 497, -2, -19, -2, -15, 28, -15, 921, 822, 634,U
2025-03-12 12:18:15.094,687, 579, 496, -5, -19, -2, -14, 26, -14, 916, 820, 613,U
2025-03-12 12:18:15.150,686, 563, 483, -1, -6, 2, -15, 27, -13, 928, 838, 634,U
2025-03-12 12:18:15.212,736, 534, 469, -2, -5, -4, -14, 26, -13, 931, 864, 654,U
2025-03-12 12:18:15.261,572, 527, 600, 6, -32, 0, -14, 26, -13, 940, 889, 649,U
2025-03-12 12:18:15.330,821, 404, 625, 30, -13, -15, -16, 27, -12, 969, 914, 539,U
2025-03-12 12:18:15.385,734, 519, 352, 12, 17, 40, -16, 28, -13, 980, 932, 593,U
2025-03-12 12:18:15.449,532, 281, 700, 1, -37, -24, -15, 30, -12, 975, 942, 704,U
2025-03-12 12:18:15.500,729, 471, 439, 57, -15, -21, -16, 27, -12, 978, 937, 733,U
2025-03-12 12:18:15.564,800, 580, 337, 2, 22, 24, -16, 28, -15, 978, 925, 679,U
2025-03-12 12:18:15.623,619, 544, 553, -49, 42, -50, -16, 28, -14, 961, 911, 738,U
2025-03-12 12:18:15.880,666, 556, 522, 4, -8, 2, -16, 29, -16, 938, 846, 644,V
2025-03-12 12:18:15.935,688, 555, 493, 4, -7, 2, -16, 28, -14, 939, 836, 639,V
2025-03-12 12:18:15.990,662, 533, 544, 1, 2, -2, -15, 27, -13, 936, 834, 639,V
2025-03-12 12:18:16.047,702, 558, 485, 1, -3, 1, -16, 27, -15, 937, 829, 648,V
2025-03-12 12:18:16.100,661, 541, 524, -2, -3, -1, -16, 28, -15, 936, 832, 643,V
2025-03-12 12:18:16.163,648, 571, 503, -3, -10, -3, -15, 26, -14, 931, 835, 624,V
2025-03-12 12:18:16.220,617, 551, 507, -8, -18, -9, -13, 28, -14, 929, 853, 565,V
2025-03-12 12:18:16.280,955, 71, 396, 0, -4, -16, -16, 28, -15, 951, 913, 530,V
2025-03-12 12:18:16.332,689, 692, 452, 31, 11, 17, -16, 28, -11, 975, 927, 583,V
2025-03-12 12:18:16.400,666, 816, 287, -22, 11, 35, -16, 26, -14, 981, 940, 368,V
2025-03-12 12:18:16.461,649, 589, 393, -47, -29, -16, -15, 28, -13, 978, 961, 469,V
2025-03-12 12:18:16.515,950, 592, 44, -14, 58, -9, -16, 29, -12, 963, 923, 688,V
2025-03-12 12:18:16.580,402, 522, 905, -19, 37, -15, -14, 28, -15, 960, 877, 485,V
2025-03-12 12:18:16.840,662, 552, 564, 0, -2, -1, -14, 27, -15, 950, 870, 602,W
2025-03-12 12:18:16.900,667, 534, 561, 0, -2, -1, -15, 28, -16, 948, 870, 600,W
2025-03-12 12:18:16.950,667, 534, 508, 0, -6, -1, -13, 27, -15, 950, 870, 609,W
2025-03-12 12:18:17.013,648, 541, 544, 4, -8, -6, -16, 28, -15, 943, 862, 616,W
2025-03-12 12:18:17.074,651, 562, 519, 15, -10, 5, -15, 28, -13, 934, 848, 570,W
2025-03-12 12:18:17.130,729, 535, 440, 0, -3, -6, -16, 28, -14, 927, 859, 544,W
2025-03-12 12:18:17.190,689, 530, 477, -2, -2, -5, -15, 27, -14, 927, 869, 582,W
2025-03-12 12:18:17.247,673, 392, 519, 4, -29, -18, -16, 28, -13, 946, 908, 592,W
2025-03-12 12:18:17.300,741, 440, 625, 20, -14, -8, -16, 29, -13, 974, 930, 595,W
2025-03-12 12:18:17.364,734, 555, 201, 8, 11, 30, -17, 27, -13, 983, 939, 439,W
2025-03-12 12:18:17.423,524, 223, 681, 0, -31, -23, -16, 29, -14, 979, 952, 538,W
2025-03-12 12:18:17.480,769, 718, 429, 44, -16, -4, -17, 29, -12, 980, 947, 662,W
2025-03-12 12:18:17.540,654, 715, 321, -39, 14, 26, -17, 28, -12, 984, 954, 429,W
2025-03-12 12:18:17.600,782, 274, 540, 13, -27, -11, -16, 28, -12, 980, 956, 599,W
2025-03-12 12:18:17.662,666, 456, 325, -59, 116, -54, -16, 29, -14, 973, 919, 559,W
2025-03-12 12:18:17.712,404, 587, 832, 8, 2, -5, -13, 29, -17, 966, 869, 461,W
2025-03-12 12:18:17.960,670, 533, 511, 10, -26, 8, -15, 28, -15, 960, 891, 678,X
2025-03-12 12:18:18.011,695, 524, 467, 11, -24, 7, -15, 28, -14, 960, 892, 683,X
2025-03-12 12:18:18.073,750, 507, 416, -5, -6, -2, -16, 29, -14, 960, 897, 685,X
2025-03-12 12:18:18.130,695, 568, 534, -3, -1, -2, -16, 28, -14, 963, 901, 706,X
2025-03-12 12:18:18.190,726, 518, 470, -6, 1, -5, -14, 27, -14, 961, 907, 712,X
2025-03-12 12:18:18.250,655, 542, 529, -3, -12, 0, -16, 28, -15, 964, 915, 719,X
2025-03-12 12:18:18.300,697, 484, 542, 2, -32, -4, -16, 29, -12, 972, 936, 662,X
2025-03-12 12:18:18.361,564, 421, 596, 60, -1, -20, -16, 27, -11, 976, 932, 410,X
2025-03-12 12:18:18.426,1216, 587, -139, -15, 38, 13, -16, 27, -12, 967, 894, 28,X
2025-03-12 12:18:18.480,470, 349, 770, -3, -41, -63, -15, 27, -13, 930, 897, 489,X
2025-03-12 12:18:18.546,744, 510, 258, 31, -42, -26, -15, 25, -11, 977, 938, 515,X
2025-03-12 12:18:18.600,424, 498, 478, -45, 47, 64, -15, 27, -13, 984, 949, 409,X
2025-03-12 12:18:18.662,830, 339, 170, -30, 56, -74, -15, 28, -13, 962, 915, 676,X
2025-03-12 12:18:18.726,443, 614, 948, -23, 10, -31, -14, 27, -15, 918, 880, 578,X
2025-03-12 12:18:18.950,705, 525, 479, 0, -8, 2, -16, 27, -13, 948, 895, 649,Y
2025-03-12 12:18:19.006,723, 548, 455, -2, -5, 0, -16, 28, -12, 946, 895, 650,Y
2025-03-12 12:18:19.065,639, 558, 545, -1, -3, 0, -16, 28, -14, 945, 891, 635,Y
2025-03-12 12:18:19.123,711, 560, 507, 2, -11, -2, -16, 27, -13, 944, 894, 595,Y
2025-03-12 12:18:19.181,629, 538, 529, -3, -7, -3, -16, 26, -11, 945, 896, 582,Y
2025-03-12 12:18:19.240,705, 489, 462, 5, -14, -2, -17, 27, -13, 950, 910, 544,Y
2025-03-12 12:18:19.300,718, 412, 587, 23, -12, -14, -16, 27, -13, 969, 925, 463,Y
2025-03-12 12:18:19.361,978, 295, 375, -28, 24, 46, -16, 27, -12, 982, 944, 540,Y
2025-03-12 12:18:19.412,683, 356, 496, -17, 2, -46, -16, 30, -13, 974, 938, 735,Y
2025-03-12 12:18:19.480,574, 499, 794, 10, -50, 10, -18, 28, -12, 972, 941, 717,Y
2025-03-12 12:18:19.540,1105, 1018, 162, 72, 49, 37, -16, 28, -11, 982, 935, 322,Y
2025-03-12 12:18:19.594,777, 526, 84, 4, 42, 17, -17, 28, -12, 969, 895, 165,Y
2025-03-12 12:18:19.656,774, 439, 197, -61, 43, -54, -16, 30, -13, 931, 867, 562,Y
2025-03-12 12:18:19.714,377, 596, 770, -25, 14, -18, -16, 26, -17, 932, 870, 425,Y
2025-03-12 12:18:19.980,695, 520, 486, -1, -13, -1, -15, 28, -14, 943, 864, 433,Z
2025-03-12 12:18:20.045,696, 525, 473, -2, -10, -3, -14, 29, -12, 942, 863, 428,Z
2025-03-12 12:18:20.100,650, 514, 552, 6, -19, 2, -15, 29, -13, 941, 872, 374,Z
2025-03-12 12:18:20.162,740, 617, 444, -16, -5, -9, -16, 28, -14, 953, 894, 105,Z
2025-03-12 12:18:20.220,751, 712, 446, 10, -16, 17, -18, 28, -12, 973, 943, 564,Z
2025-03-12 12:18:20.278,485, 496, 465, 49, 5, 16, -17, 28, -14, 981, 937, 700,Z
2025-03-12 12:18:20.339,503, 525, 435, 20, 17, -14, -17, 29, -12, 974, 901, 314,Z
2025-03-12 12:18:20.400,1120, 897, 576, -21, -1, 34, -16, 28, -15, 982, 944, 221,Z
2025-03-12 12:18:20.459,592, 327, 472, 10, 11, 24, -14, 28, -12, 984, 946, 299,Z
2025-03-12 12:18:20.520,430, 581, 343, -24, 35, -86, -16, 30, -14, 957, 841, 614,Z
2025-03-12 12:18:20.577,1058, 572, 162, -62, -33, -9, -16, 28, -14, 968, 910, 469,Z
2025-03-12 12:18:20.630,839, 538, 737, 2, -10, 33, -15, 28, -13, 983, 951, 545,Z
2025-03-12 12:18:20.694,886, 405, 298, 13, 28, -17, -17, 28, -13, 966, 878, 756,Z
2025-03-12 12:18:20.750,514, 566, 852, -29, 38, -30, -15, 29, -16, 941, 732, 690,Z
2025-03-12 12:18:20.811,625, 553, 571, 18, -28, 12, -14, 28, -15, 922, 679, 678,Z
2025-03-12 12:18:21.088,689, 561, 512, 0, -8, 3, -16, 28, -15, 940, 787, 615,a
2025-03-12 12:18:21.146,684, 553, 515, 1, -7, 5, -15, 26, -12, 941, 794, 620,a
2025-03-12 12:18:21.200,694, 561, 457, -3, 0, 3, -16, 28, -13, 945, 804, 639,a
2025-03-12 12:18:21.250,625, 559, 535, 0, -5, 9, -15, 28, -13, 949, 826, 675,a
2025-03-12 12:18:21.313,738, 536, 462, 0, -3, 14, -16, 28, -14, 954, 854, 705,a
2025-03-12 12:18:21.370,627, 497, 555, 4, -14, 10, -16, 29, -13, 962, 879, 695,a
2025-03-12 12:18:21.430,720, 650, 479, -11, -4, -12, -16, 28, -12, 968, 920, 461,a
2025-03-12 12:18:21.495,1386, 471, 499, 19, -12, -20, -17, 26, -12, 972, 906, 304,a
2025-03-12 12:18:21.550,689, 299, 431, -19, 31, 41, -16, 28, -13, 978, 917, 261,a
2025-03-12 12:18:21.612,253, 221, 822, 5, -34, -28, -14, 29, -12, 974, 932, 620,a
2025-03-12 12:18:21.670,846, 814, 141, 15, 7, 12, -16, 29, -13, 977, 934, 613,a
2025-03-12 12:18:21.732,863, 483, 333, -22, 36, -16, -15, 28, -14, 975, 916, 622,a
2025-03-12 12:18:21.790,530, 506, 704, -30, 27, -38, -17, 28, -15, 962, 897, 695,a
2025-03-12 12:18:22.038,731, 512, 428, 3, -9, -1, -14, 28, -13, 953, 891, 656,b
2025-03-12 12:18:22.096,751, 542, 432, 4, -5, 0, -17, 28, -11, 952, 892, 658,b
2025-03-12 12:18:22.150,706, 561, 489, -2, -1, -1, -16, 30, -13, 953, 891, 651,b
2025-03-12 12:18:22.212,692, 555, 480, -3, -1, -3, -15, 27, -13, 953, 894, 653,b
2025-03-12 12:18:22.272,604, 583, 471, -8, -7, -6, -15, 29, -10, 947, 905, 659,b
2025-03-12 12:18:22.330,651, 391, 638, 10, -8, -10, -15, 26, -12, 964, 923, 615,b
2025-03-12 12:18:22.380,852, 432, 530, 43, 42, 45, -16, 27, -13, 980, 910, 348,b
2025-03-12 12:18:22.443,754, 488, 616, -4, 11, 6, -15, 28, -13, 968, 905, 495,b
2025-03-12 12:18:22.500,581, 607, 444, -14, -22, -5, -17, 29, -13, 978, 934, 680,b
2025-03-12 12:18:22.562,637, 576, 170, -10, 31, 17, -16, 27, -13, 979, 924, 277,b
2025-03-12 12:18:22.627,1064, 271, 612, -13, 26, -37, -16, 30, -13, 949, 805, 483,b
2025-03-12 12:18:22.680,418, 509, 833, -30, 28, -34, -14, 29, -17, 932, 823, 557,b
2025-03-12 12:18:22.940,679, 529, 539, 0, -3, 5, -15, 27, -13, 952, 862, 631,c
2025-03-12 12:18:23.000,671, 534, 537, 1, -5, 6, -16, 28, -15, 954, 865, 633,c
2025-03-12 12:18:23.050,717, 539, 476, 0, -3, 3, -15, 28, -14, 955, 877, 647,c
2025-03-12 12:18:23.110,702, 538, 493, -5, -1, -1, -15, 27, -13, 958, 883, 654,c
2025-03-12 12:18:23.170,702, 552, 473, -4, -4, 4, -16, 27, -12, 960, 888, 645,c
2025-03-12 12:18:23.230,607, 547, 550, 8, -21, 9, -16, 28, -13, 966, 895, 608,c
2025-03-12 12:18:23.281,613, 371, 665, -18, -9, -21, -17, 29, -11, 969, 930, 140,c
2025-03-12 12:18:23.344,1167, 645, 168, 63, 2, -5, -16, 29, -13, 978, 919, 10,c
2025-03-12 12:18:23.400,792, 707, 340, -2, 16, 34, -15, 30, -14, 981, 944, 230,c
2025-03-12 12:18:23.461,964, 513, 33, -19, 48, -42, -16, 28, -12, 963, 911, 734,c
2025-03-12 12:18:23.526,420, 594, 798, -42, 47, -22, -13, 28, -16, 948, 809, 607,c
2025-03-12 12:18:23.805,680, 538, 496, 4, -15, 4, -15, 29, -14, 942, 807, 544,d
2025-03-12 12:18:23.862,690, 544, 505, 3, -15, 5, -17, 29, -14, 940, 807, 548,d
2025-03-12 12:18:23.920,725, 544, 492, -2, -5, 0, -14, 28, -14, 942, 813, 558,d
2025-03-12 12:18:23.973,669, 544, 522, 1, -9, 7, -15, 29, -14, 948, 838, 566,d
2025-03-12 12:18:24.030,709, 523, 493, 5, -13, 9, -17, 31, -15, 952, 859, 604,d
2025-03-12 12:18:24.093,1012, 331, 436, -27, -14, -17, -16, 29, -13, 961, 902, 433,d
2025-03-12 12:18:24.150,657, 506, 516, 10, -4, -24, -17, 29, -12, 963, 921, 62,d
2025-03-12 12:18:24.210,530, 979, -93, 21, 33, 27, -18, 26, -13, 976, 912, 11,d
2025-03-12 12:18:24.260,745, 697, 360, -52, 15, 27, -16, 29, -13, 978, 938, 31,d
2025-03-12 12:18:24.326,829, 508, 772, -19, -38, -34, -16, 27, -12, 970, 946, 597,d
2025-03-12 12:18:24.385,590, 1089, 69, 40, 29, 40, -16, 27, -10, 980, 931, 514,d
2025-03-12 12:18:24.443,845, 596, 278, -3, 21, 18, -16, 27, -12, 978, 914, 464,d
2025-03-12 12:18:24.505,693, 557, 473, -45, 39, -45, -15, 27, -13, 958, 897, 647,d
2025-03-12 12:18:24.808,700, 526, 458, 5, -2, 2, -15, 26, -13, 948, 854, 453,e
2025-03-12 12:18:24.860,717, 524, 463, 5, -1, 1, -15, 26, -13, 946, 855, 472,e
2025-03-12 12:18:24.918,681, 541, 541, -1, 6, 1, -15, 27, -13, 947, 854, 502,e
2025-03-12 12:18:24.975,665, 561, 516, -1, -4, 2, -15, 29, -13, 948, 850, 512,e
2025-03-12 12:18:25.030,598, 520, 655, 18, -31, 14, -14, 29, -13, 955, 878, 465,e
2025-03-12 12:18:25.094,825, 930, 262, -21, 6, 37, -16, 27, -13, 977, 934, 466,e
2025-03-12 12:18:25.150,611, 403, 577, -21, -4, 5, -16, 31, -13, 978, 947, 507,e
2025-03-12 12:18:25.211,618, 473, 611, 23, -14, -35, -16, 28, -14, 975, 934, 452,e
2025-03-12 12:18:25.271,916, 1071, -75, -22, 25, 20, -17, 28, -11, 982, 930, 131,e
2025-03-12 12:18:25.327,587, 274, 615, 0, 11, 25, -17, 30, -14, 980, 941, 311,e
2025-03-12 12:18:25.390,797, 581, 153, -48, 60, -51, -16, 30, -15, 955, 893, 702,e
2025-03-12 12:18:25.443,390, 581, 862, -11, 1, -2, -15, 28, -16, 936, 794, 537,e
2025-03-12 12:18:25.690,703, 507, 500, 4, 0, 4, -16, 27, -14, 949, 843, 586,f
2025-03-12 12:18:25.750,721, 520, 482, 2, 0, 3, -15, 30, -15, 950, 844, 588,f
2025-03-12 12:18:25.800,701, 542, 513, -1, 2, 0, -15, 28, -14, 951, 850, 589,f
2025-03-12 12:18:25.860,679, 527, 505, 5, 0, 6, -14, 28, -13, 954, 854, 606,f
2025-03-12 12:18:25.911,684, 531, 513, -1, 0, 10, -15, 29, -13, 960, 872, 600,f
2025-03-12 12:18:25.975,650, 484, 616, 4, -18, 15, -15, 30, -14, 967, 903, 521,f
2025-03-12 12:18:26.030,698, 203, 421, -31, 3, -18, -15, 31, -13, 972, 944, 195,f
2025-03-12 12:18:26.093,730, 428, 565, 10, -36, -30, -15, 28, -12, 980, 964, 680,f
2025-03-12 12:18:26.150,648, 998, -108, 22, 16, 40, -16, 27, -12, 982, 952, 739,f
2025-03-12 12:18:26.210,530, 550, 599, 12, 43, -38, -16, 28, -15, 972, 928, 726,f
2025-03-12 12:18:26.274,936, 1151, 749, 19, -24, -3, -17, 27, -13, 977, 939, 693,f
2025-03-12 12:18:26.326,759, 335, 376, 7, 8, 22, -16, 27, -14, 980, 947, 770,f
2025-03-12 12:18:26.380,629, 587, 400, -26, 64, -41, -16, 28, -14, 969, 909, 750,f
2025-03-12 12:18:26.674,670, 543, 480, 7, -3, 12, -16, 27, -13, 965, 869, 716,g
2025-03-12 12:18:26.730,709, 550, 472, 3, -3, 12, -16, 27, -14, 964, 870, 717,g
2025-03-12 12:18:26.780,685, 562, 503, -1, 0, 6, -16, 28, -14, 963, 882, 675,g
2025-03-12 12:18:26.844,732, 569, 430, 0, -5, 8, -16, 28, -13, 967, 898, 656,g
2025-03-12 12:18:26.900,960, 209, 391, -3, -5, -7, -15, 29, -14, 972, 921, 536,g
2025-03-12 12:18:26.962,685, 309, 720, 1, -17, -25, -16, 29, -13, 973, 935, 361,g
2025-03-12 12:18:27.020,841, 914, 116, 1, 19, 14, -18, 27, -13, 979, 929, 220,g
2025-03-12 12:18:27.077,681, 500, 666, -15, 15, 27, -16, 27, -14, 982, 942, 285,g
2025-03-12 12:18:27.135,769, 563, 397, 24, -14, -27, -16, 30, -14, 973, 931, 686,g
2025-03-12 12:18:27.196,711, 777, 297, -9, 32, 31, -16, 28, -14, 981, 931, 268,g
2025-03-12 12:18:27.250,691, 409, 311, 3, 22, 4, -16, 30, -14, 967, 861, 22,g
2025-03-12 12:18:27.311,923, 504, 118, -32, 68, -83, -13, 28, -15, 906, 718, 523,g
2025-03-12 12:18:27.618,735, 519, 470, -4, -10, 5, -15, 27, -13, 941, 806, 739,h
2025-03-12 12:18:27.675,733, 531, 460, -5, -7, 4, -16, 28, -14, 940, 807, 737,h
2025-03-12 12:18:27.735,686, 529, 498, -11, -6, -5, -15, 26, -12, 937, 831, 728,h
2025-03-12 12:18:27.794,659, 547, 509, -13, -18, 0, -16, 27, -12, 948, 877, 715,h
2025-03-12 12:18:27.850,720, 487, 548, -5, -13, -9, -16, 28, -13, 969, 913, 596,h
2025-03-12 12:18:27.910,1168, 667, 521, 21, 19, 28, -17, 27, -13, 980, 907, 283,h
2025-03-12 12:18:27.971,782, 551, 376, -6, 15, 9, -15, 28, -12, 976, 908, 160,h
2025-03-12 12:18:28.028,752, 729, 597, 4, -22, -2, -15, 28, -12, 977, 931, 483,h
2025-03-12 12:18:28.080,817, 781, 136, -4, 32, 33, -16, 28, -11, 983, 931, 340,h
2025-03-12 12:18:28.144,882, 394, 204, -42, 54, -48, -17, 30, -14, 968, 877, 601,h
2025-03-12 12:18:28.207,427, 471, 834, -41, 48, -44, -15, 30, -16, 948, 824, 510,h
2025-03-12 12:18:28.460,752, 508, 447, 14, -18, 13, -15, 29, -15, 948, 821, 562,i
2025-03-12 12:18:28.524,739, 498, 418, 13, -15, 9, -15, 28, -14, 948, 822, 569,i
2025-03-12 12:18:28.580,716, 533, 478, -6, 1, -2, -15, 31, -12, 952, 834, 554,i
2025-03-12 12:18:28.630,716, 545, 475, 1, -1, 0, -14, 28, -13, 953, 843, 571,i
2025-03-12 12:18:28.690,698, 505, 519, -4, -6, -6, -15, 29, -14, 952, 845, 561,i
2025-03-12 12:18:28.752,650, 548, 536, -9, -15, 4, -16, 27, -11, 958, 881, 546,i
2025-03-12 12:18:28.809,727, 449, 622, -1, -10, -9, -16, 30, -12, 972, 921, 374,i
2025-03-12 12:18:28.860,617, 791, 281, 1, 22, 24, -16, 31, -13, 982, 920, 26,i
2025-03-12 12:18:28.925,827, 452, 455, -13, 19, 8, -14, 31, -14, 973, 880, 160,i
2025-03-12 12:18:28.980,228, 720, 1240, -5, -68, -2, -17, 28, -13, 967, 924, 607,i
2025-03-12 12:18:29.040,738, 561, 31, 5, 8, 2, -14, 28, -12, 976, 939, 394,i
2025-03-12 12:18:29.093,836, 368, 343, -22, 37, -4, -15, 29, -12, 966, 878, 604,i
2025-03-12 12:18:29.158,565, 548, 575, -38, 55, -23, -15, 27, -14, 963, 828, 370,i
2025-03-12 12:18:29.440,677, 503, 533, 5, -2, 7, -15, 29, -13, 961, 828, 465,j
2025-03-12 12:18:29.492,671, 523, 531, 5, -3, 6, -15, 29, -14, 961, 830, 467,j
2025-03-12 12:18:29.550,717, 503, 467, 0, -6, 3, -15, 28, -14, 963, 843, 484,j
2025-03-12 12:18:29.610,622, 517, 638, 3, -26, 5, -15, 28, -13, 964, 872, 499,j
2025-03-12 12:18:29.670,839, 454, 435, 10, 9, 11, -15, 29, -14, 980, 912, 355,j
2025-03-12 12:18:29.726,507, 323, 507, -30, 33, 40, -15, 31, -14, 984, 924, 18,j
2025-03-12 12:18:29.780,842, -155, 801, 17, -36, -89, -15, 31, -13, 968, 894, 26,j
2025-03-12 12:18:29.850,358, 592, 996, -20, -62, -14, -15, 29, -12, 970, 934, 402,j
2025-03-12 12:18:29.908,853, 810, 178, 22, 14, 29, -16, 30, -12, 978, 932, 501,j
2025-03-12 12:18:29.970,589, 592, 509, -23, 69, -46, -17, 29, -14, 969, 905, 427,j
2025-03-12 12:18:30.026,483, 616, 727, 3, 1, -2, -15, 28, -15, 964, 890, 413,j
2025-03-12 12:18:30.080,720, 523, 497, 16, -23, 12, -16, 28, -16, 953, 867, 424,j
2025-03-12 12:18:30.331,696, 525, 489, 8, -9, 4, -16, 29, -14, 956, 872, 458,k
2025-03-12 12:18:30.391,699, 534, 490, 7, -9, 4, -17, 28, -14, 957, 872, 465,k
2025-03-12 12:18:30.443,694, 502, 480, 1, -16, 1, -15, 30, -15, 957, 883, 510,k
2025-03-12 12:18:30.510,1477, 419, 225, -38, -7, -13, -15, 28, -14, 963, 911, 414,k
2025-03-12 12:18:30.570,645, 480, 515, 20, -12, -12, -16, 29, -13, 972, 925, 174,k
2025-03-12 12:18:30.626,857, 538, 638, 15, 21, 25, -16, 27, -11, 977, 891, 19,k
2025-03-12 12:18:30.680,748, 697, 568, -46, 10, 21, -16, 28, -13, 974, 944, 16,k
2025-03-12 12:18:30.743,528, 333, 694, 25, -29, -6, -16, 29, -12, 976, 953, 29,k
2025-03-12 12:18:30.800,749, 568, 88, -1, 41, -17, -17, 28, -10, 957, 853, 266,k
2025-03-12 12:18:30.860,836, -418, 140, -5, -13, -19, -15, 28, -11, 967, 896, 135,k
2025-03-12 12:18:30.917,499, 203, 474, -35, 20, 52, -17, 29, -13, 981, 943, 62,k
2025-03-12 12:18:30.980,760, 483, 102, -18, 59, -73, -16, 30, -14, 965, 878, 461,k
2025-03-12 12:18:31.270,662, 560, 538, -3, -6, 4, -16, 27, -15, 947, 845, 605,l
2025-03-12 12:18:31.330,687, 535, 511, -2, -8, 4, -15, 27, -13, 947, 848, 607,l
2025-03-12 12:18:31.390,708, 545, 474, -7, -2, -6, -16, 29, -12, 947, 852, 610,l
2025-03-12 12:18:31.450,723, 546, 452, -4, -11, -3, -16, 28, -14, 947, 866, 620,l
2025-03-12 12:18:31.508,652, 547, 519, -13, -6, -4, -16, 28, -13, 943, 868, 619,l
2025-03-12 12:18:31.570,691, 538, 509, -12, -16, 0, -16, 29, -11, 947, 889, 591,l
2025-03-12 12:18:31.625,715, 483, 570, -12, -5, -5, -16, 28, -13, 962, 924, 423,l
2025-03-12 12:18:31.681,702, 630, 426, 6, -3, 2, -14, 28, -12, 975, 935, 384,l
2025-03-12 12:18:31.742,754, 321, 671, 20, 19, 26, -17, 28, -12, 981, 927, 23,l
2025-03-12 12:18:31.800,827, 546, 390, 0, 31, 19, -16, 29, -12, 977, 905, 33,l
2025-03-12 12:18:31.857,790, 298, 518, -6, -5, -34, -16, 30, -13, 955, 871, 313,l
2025-03-12 12:18:31.918,601, 571, 602, -19, 18, -6, -16, 28, -14, 958, 885, 333,l
2025-03-12 12:18:31.970,712, 518, 484, 6, -7, 9, -15, 29, -13, 958, 886, 338,l
2025-03-12 12:18:32.025,711, 501, 526, -6, 7, -6, -15, 28, -13, 959, 876, 342,l
2025-03-12 12:18:32.083,683, 528, 525, -5, 2, -6, -14, 29, -13, 958, 860, 336,l
2025-03-12 12:18:32.141,686, 510, 541, -2, -1, 0, -15, 28, -14, 957, 859, 338,l
2025-03-12 12:18:32.365,714, 525, 470, -3, 1, -2, -16, 29, -13, 952, 856, 403,m
2025-03-12 12:18:32.423,702, 522, 497, -3, 2, -2, -16, 29, -15, 955, 856, 403,m
2025-03-12 12:18:32.475,669, 520, 557, 2, -8, 1, -15, 29, -14, 952, 851, 402,m
2025-03-12 12:18:32.530,729, 540, 442, -1, 0, -1, -16, 29, -13, 949, 847, 410,m
2025-03-12 12:18:32.590,662, 530, 543, 1, -5, 0, -16, 29, -14, 949, 852, 409,m
2025-03-12 12:18:32.642,690, 528, 472, 2, -8, -1, -17, 28, -13, 948, 867, 424,m
2025-03-12 12:18:32.708,636, 515, 535, -3, -24, -16, -15, 29, -12, 946, 871, 410,m
2025-03-12 12:18:32.760,698, 273, 519, 28, -16, -24, -15, 28, -12, 969, 917, 254,m
2025-03-12 12:18:32.824,585, 368, 389, -22, 18, 19, -16, 28, -12, 978, 920, 20,m
2025-03-12 12:18:32.886,806, 278, 723, -9, -13, -3, -17, 29, -13, 969, 924, 243,m
2025-03-12 12:18:32.943,632, 410, 708, 4, -10, 0, -16, 28, -12, 979, 937, 396,m
2025-03-12 12:18:33.000,690, 526, 336, -12, 24, 23, -16, 29, -13, 982, 936, 291,m
2025-03-12 12:18:33.060,754, 139, 485, 15, -23, -25, -16, 29, -13, 975, 937, 430,m
2025-03-12 12:18:33.110,726, 642, 315, 27, -3, 7, -16, 27, -11, 984, 946, 536,m
2025-03-12 12:18:33.177,996, 362, 230, -11, 40, 4, -16, 30, -13, 979, 920, 605,m
2025-03-12 12:18:33.230,590, 396, 709, -57, 61, -52, -15, 29, -15, 961, 880, 524,m
2025-03-12 12:18:33.523,722, 526, 466, 0, -7, 0, -18, 28, -14, 942, 833, 480,n
2025-03-12 12:18:33.580,705, 529, 464, -1, -6, -1, -17, 28, -13, 940, 832, 424,n
2025-03-12 12:18:33.630,680, 549, 507, 5, -2, 0, -15, 29, -13, 942, 832, 410,n
2025-03-12 12:18:33.693,729, 524, 412, 0, -6, 0, -17, 28, -14, 942, 835, 427,n
2025-03-12 12:18:33.750,701, 566, 475, -5, 1, -9, -15, 28, -12, 933, 849, 451,n
2025-03-12 12:18:33.810,694, 577, 598, -4, -16, -4, -16, 28, -13, 935, 875, 473,n
2025-03-12 12:18:33.867,699, 545, 548, 3, -9, -7, -16, 26, -12, 969, 911, 361,n
2025-03-12 12:18:33.924,901, 354, 487, -24, 15, 21, -16, 28, -13, 976, 908, 22,n
2025-03-12 12:18:33.980,783, 419, 679, -13, -9, -1, -15, 29, -13, 968, 916, 21,n
2025-03-12 12:18:34.042,635, 499, 515, -2, -23, 6, -16, 29, -12, 976, 941, 601,n
2025-03-12 12:18:34.100,878, 381, 304, -11, 37, 32, -16, 28, -12, 984, 942, 416,n
2025-03-12 12:18:34.160,897, 351, 272, -55, 57, -45, -17, 29, -12, 972, 894, 508,n
2025-03-12 12:18:34.220,446, 452, 750, -27, 26, -38, -15, 30, -14, 954, 857, 405,n
2025-03-12 12:18:34.470,708, 504, 490, 1, -8, 1, -15, 29, -14, 948, 852, 485,o
2025-03-12 12:18:34.523,711, 506, 498, 0, -7, 0, -17, 30, -13, 948, 853, 483,o
2025-03-12 12:18:34.580,693, 535, 506, -1, -4, 1, -13, 29, -11, 950, 865, 495,o
2025-03-12 12:18:34.641,740, 517, 451, 1, -10, -1, -17, 29, -13, 952, 876, 508,o
2025-03-12 12:18:34.700,712, 519, 506, -2, -1, -2, -16, 30, -13, 954, 885, 522,o
2025-03-12 12:18:34.757,712, 524, 495, -1, -2, 0, -15, 29, -14, 954, 890, 531,o
2025-03-12 12:18:34.810,709, 513, 486, 3, -1, 0, -16, 28, -15, 954, 892, 522,o
2025-03-12 12:18:34.860,722, 530, 482, 3, 2, 0, -17, 29, -12, 956, 888, 509,o
2025-03-12 12:18:34.924,710, 536, 458, 0, -1, 1, -17, 29, -12, 956, 883, 504,o
2025-03-12 12:18:34.976,700, 539, 484, -4, -7, 5, -16, 29, -14, 960, 901, 507,o
2025-03-12 12:18:35.040,779, 462, 560, -13, -11, -21, -17, 29, -12, 966, 935, 150,o
2025-03-12 12:18:35.100,906, 303, 422, 76, -4, -35, -17, 29, -13, 975, 919, 23,o
2025-03-12 12:18:35.158,895, 962, 216, -39, 36, 52, -16, 28, -14, 979, 937, 28,o
2025-03-12 12:18:35.216,625, 239, 747, 6, -31, -39, -17, 29, -13, 973, 945, 313,o
2025-03-12 12:18:35.277,876, 469, 118, -39, 66, -32, -15, 29, -14, 934, 885, 608,o
2025-03-12 12:18:35.330,527, 538, 680, -16, 33, 2, -15, 30, -16, 930, 768, 394,o
2025-03-12 12:18:35.598,631, 523, 561, 4, -12, -1, -16, 28, -15, 918, 790, 408,p
2025-03-12 12:18:35.650,695, 528, 546, 5, -14, 0, -16, 28, -15, 920, 788, 409,p
2025-03-12 12:18:35.710,701, 537, 510, 1, -9, 3, -16, 28, -14, 913, 791, 445,p
2025-03-12 12:18:35.767,724, 536, 466, 5, -10, 2, -16, 28, -13, 914, 795, 497,p
2025-03-12 12:18:35.825,695, 526, 488, -5, -2, -3, -17, 29, -14, 913, 803, 483,p
2025-03-12 12:18:35.880,657, 548, 502, -8, -10, 0, -17, 29, -15, 918, 824, 452,p
2025-03-12 12:18:35.943,708, 368, 536, -11, -5, -11, -16, 29, -14, 953, 877, 161,p
2025-03-12 12:18:36.002,506, 554, 408, -41, 44, 71, -17, 29, -13, 978, 877, 20,p
2025-03-12 12:18:36.059,716, 569, 431, -20, 11, 8, -16, 31, -16, 971, 891, 21,p
2025-03-12 12:18:36.120,770, 840, 530, 0, -46, -56, -15, 30, -13, 964, 928, 580,p
2025-03-12 12:18:36.175,574, 780, 500, 14, -13, 7, -16, 26, -12, 982, 949, 451,p
2025-03-12 12:18:36.230,696, 434, 415, -8, 27, 20, -16, 28, -12, 980, 926, 210,p
2025-03-12 12:18:36.290,844, 485, 311, -18, 30, -42, -15, 27, -14, 953, 860, 418,p
2025-03-12 12:18:36.580,672, 528, 516, 6, -11, 9, -15, 27, -14, 953, 877, 477,q
2025-03-12 12:18:36.630,700, 523, 507, 8, -12, 8, -16, 30, -14, 952, 876, 492,q
2025-03-12 12:18:36.691,706, 518, 491, -5, 1, 2, -15, 29, -13, 954, 879, 492,q
2025-03-12 12:18:36.745,729, 515, 477, 0, -4, 2, -16, 28, -13, 958, 889, 492,q
2025-03-12 12:18:36.805,676, 536, 507, 3, -10, 6, -16, 27, -15, 961, 903, 490,q
2025-03-12 12:18:36.860,703, 535, 498, -16, -4, -9, -15, 29, -14, 965, 927, 322,q
2025-03-12 12:18:36.924,663, 389, 368, 28, -3, -18, -15, 28, -12, 970, 911, 20,q
2025-03-12 12:18:36.980,927, 666, 404, -4, 22, 27, -16, 29, -15, 976, 919, 20,q
2025-03-12 12:18:37.039,496, 405, 671, -9, -20, -10, -16, 29, -13, 973, 940, 282,q
2025-03-12 12:18:37.091,678, 470, 453, 52, 8, 3, -17, 29, -12, 976, 914, 322,q
2025-03-12 12:18:37.150,856, 818, 127, -9, 17, 27, -15, 28, -13, 980, 930, 19,q
2025-03-12 12:18:37.206,821, 76, 623, 12, -7, 5, -16, 32, -14, 982, 955, 25,q
2025-03-12 12:18:37.268,730, 456, 114, -49, 100, -51, -16, 31, -15, 968, 915, 313,q
2025-03-12 12:18:37.325,436, 611, 813, -15, 1, -15, -15, 30, -18, 961, 857, 148,q
2025-03-12 12:18:37.580,677, 543, 509, 14, -22, 2, -16, 29, -16, 959, 887, 567,r
2025-03-12 12:18:37.630,731, 547, 470, 9, -20, 3, -17, 28, -14, 958, 888, 582,r
2025-03-12 12:18:37.690,760, 513, 432, -2, -7, 0, -15, 29, -13, 958, 888, 566,r
2025-03-12 12:18:37.750,706, 540, 488, -1, 2, -2, -16, 29, -12, 959, 891, 582,r
2025-03-12 12:18:37.806,721, 546, 453, -2, 0, 0, -16, 28, -14, 960, 897, 601,r
2025-03-12 12:18:37.866,667, 552, 546, -3, -10, -5, -16, 30, -14, 959, 908, 612,r
2025-03-12 12:18:37.923,737, 536, 503, -16, -3, -8, -16, 28, -13, 966, 928, 562,r
2025-03-12 12:18:37.980,789, 843, 465, 12, 23, 28, -16, 26, -13, 975, 925, 409,r
2025-03-12 12:18:38.040,758, 755, 256, -55, 18, 17, -16, 28, -14, 978, 934, 28,r
2025-03-12 12:18:38.091,831, 863, 315, 8, -23, -27, -17, 30, -12, 978, 956, 348,r
2025-03-12 12:18:38.160,871, 488, 224, -7, 50, 10, -15, 28, -13, 977, 935, 545,r
2025-03-12 12:18:38.216,494, 465, 803, -11, 9, -8, -15, 29, -13, 972, 921, 461,r
2025-03-12 12:18:38.520,732, 490, 472, -2, 2, 0, -15, 30, -13, 964, 915, 508,s
2025-03-12 12:18:38.573,738, 496, 468, -3, 2, -1, -14, 30, -11, 965, 916, 513,s
2025-03-12 12:18:38.630,710, 525, 481, 2, -4, 3, -15, 28, -13, 967, 919, 532,s
2025-03-12 12:18:38.690,677, 505, 547, 1, -6, 4, -17, 31, -14, 968, 923, 544,s
2025-03-12 12:18:38.740,708, 515, 372, -19, 4, -3, -17, 28, -14, 972, 935, 394,s
2025-03-12 12:18:38.808,556, 298, 669, 25, -8, -19, -16, 30, -12, 974, 932, 261,s
2025-03-12 12:18:38.860,902, 529, 435, 21, 18, 23, -17, 29, -13, 980, 938, 197,s
2025-03-12 12:18:38.922,710, 379, 462, 5, 10, 14, -16, 29, -14, 983, 945, 19,s
2025-03-12 12:18:38.980,784, 400, 360, 19, 13, -16, -16, 30, -14, 964, 884, 111,s
2025-03-12 12:18:39.041,677, 531, 622, -38, 68, -39, -15, 29, -15, 944, 866, 261,s
2025-03-12 12:18:39.091,382, 602, 765, 3, -3, 6, -14, 28, -16, 942, 840, 296,s
2025-03-12 12:18:39.380,667, 526, 546, 4, -17, 6, -15, 29, -14, 946, 858, 473,t
2025-03-12 12:18:39.438,675, 532, 535, 4, -21, 7, -14, 27, -14, 945, 859, 490,t
2025-03-12 12:18:39.500,720, 491, 495, -14, -10, 4, -16, 30, -13, 947, 867, 615,t
2025-03-12 12:18:39.558,740, 489, 462, -14, -9, -2, -15, 29, -13, 955, 890, 627,t
2025-03-12 12:18:39.620,645, 493, 595, -15, -19, -9, -16, 28, -12, 959, 916, 643,t
2025-03-12 12:18:39.676,734, 417, 607, 6, -14, -16, -16, 30, -12, 966, 930, 415,t
2025-03-12 12:18:39.730,1236, 520, 200, 67, 29, 23, -17, 29, -13, 977, 921, 23,t
2025-03-12 12:18:39.793,637, 629, 508, -13, 27, 30, -16, 29, -15, 971, 922, 350,t
2025-03-12 12:18:39.857,363, 591, 802, -1, -35, -44, -17, 29, -14, 957, 903, 453,t
2025-03-12 12:18:39.910,868, 609, 498, 8, -12, -5, -17, 27, -14, 978, 943, 224,t
2025-03-12 12:18:39.971,467, 339, 550, 25, 8, 32, -16, 29, -13, 982, 947, 565,t
2025-03-12 12:18:40.023,647, 514, 346, -24, 61, -49, -16, 30, -14, 962, 873, 719,t
2025-03-12 12:18:40.314,676, 529, 529, -2, 0, 5, -16, 29, -13, 953, 833, 515,u
2025-03-12 12:18:40.372,686, 544, 529, -1, 0, 6, -16, 28, -14, 952, 836, 519,u
2025-03-12 12:18:40.423,735, 535, 472, 1, 1, 1, -16, 28, -14, 955, 834, 506,u
2025-03-12 12:18:40.479,674, 552, 527, 2, 3, 3, -15, 28, -13, 955, 827, 466,u
2025-03-12 12:18:40.540,708, 516, 478, 11, -6, 8, -16, 29, -13, 958, 830, 473,u
2025-03-12 12:18:40.589,691, 471, 494, 4, -13, -5, -16, 29, -14, 956, 842, 509,u
2025-03-12 12:18:40.657,1473, 251, 454, -22, -13, -22, -17, 30, -12, 959, 885, 416,u
2025-03-12 12:18:40.710,816, 838, 335, 23, 18, 20, -16, 26, -13, 980, 907, 196,u
2025-03-12 12:18:40.774,671, 750, 123, -25, 24, 42, -17, 28, -13, 981, 934, 274,u
2025-03-12 12:18:40.839,741, 411, 661, -14, -14, -17, -16, 29, -12, 972, 940, 351,u
2025-03-12 12:18:40.890,728, 1103, 225, 28, 15, 21, -18, 29, -11, 981, 925, 307,u
2025-03-12 12:18:40.954,857, 556, 367, -6, 18, 2, -16, 29, -13, 974, 890, 454,u
2025-03-12 12:18:41.015,662, 484, 599, -34, 35, -43, -16, 29, -14, 955, 854, 533,u
2025-03-12 12:18:41.261,674, 558, 513, -1, -1, 1, -16, 28, -16, 934, 744, 420,v
2025-03-12 12:18:41.322,689, 541, 506, -2, -1, 1, -16, 28, -14, 933, 741, 418,v
2025-03-12 12:18:41.374,683, 534, 503, 2, -3, 2, -16, 27, -15, 932, 738, 404,v
2025-03-12 12:18:41.430,708, 518, 504, 2, -4, -3, -15, 28, -14, 921, 739, 362,v
2025-03-12 12:18:41.491,709, 553, 465, 5, -2, 1, -16, 27, -13, 924, 754, 356,v
2025-03-12 12:18:41.541,685, 524, 517, 3, -5, 1, -15, 26, -13, 931, 789, 441,v
2025-03-12 12:18:41.605,666, 525, 451, -2, -7, -8, -16, 27, -13, 935, 826, 436,v
2025-03-12 12:18:41.660,890, 649, 581, 2, -11, -17, -16, 28, -12, 958, 897, 296,v
2025-03-12 12:18:41.720,823, 771, 481, 10, 26, 57, -15, 28, -12, 978, 924, 354,v
2025-03-12 12:18:41.773,830, 858, 262, -56, 8, 23, -15, 30, -13, 980, 945, 27,v
2025-03-12 12:18:41.838,692, 259, 647, 46, -16, -18, -17, 29, -13, 975, 949, 399,v
2025-03-12 12:18:41.900,664, 543, 416, -33, 95, -27, -14, 29, -15, 960, 864, 313,v
2025-03-12 12:18:41.957,479, 509, 847, -1, -14, 4, -15, 29, -16, 955, 641, 29,v
2025-03-12 12:18:42.200,689, 523, 515, -2, -3, -1, -16, 29, -14, 950, 816, 334,w
2025-03-12 12:18:42.260,700, 524, 508, -2, -3, 0, -17, 31, -14, 950, 815, 343,w
2025-03-12 12:18:42.318,692, 516, 515, 0, -5, 0, -15, 30, -15, 952, 823, 348,w
2025-03-12 12:18:42.374,679, 516, 499, 1, -5, -1, -16, 29, -14, 949, 827, 367,w
2025-03-12 12:18:42.430,649, 499, 494, -1, -6, -7, -15, 30, -13, 945, 829, 369,w
2025-03-12 12:18:42.490,705, 507, 486, -7, -8, -11, -17, 29, -13, 945, 854, 258,w
2025-03-12 12:18:42.550,781, 542, 539, -10, -6, -12, -18, 29, -13, 961, 914, 19,w
2025-03-12 12:18:42.607,770, 657, 222, 15, 29, 60, -16, 28, -13, 982, 928, 150,w
2025-03-12 12:18:42.665,787, 527, 517, -27, 7, 16, -16, 30, -13, 981, 939, 18,w
2025-03-12 12:18:42.724,771, 519, 582, 1, -21, -18, -16, 28, -12, 976, 941, 387,w
2025-03-12 12:18:42.780,533, 738, 332, -31, 11, 35, -17, 29, -14, 984, 941, 153,w
2025-03-12 12:18:42.841,711, 134, 647, 38, -14, -6, -16, 30, -11, 978, 925, 364,w
2025-03-12 12:18:42.907,546, 508, 711, -48, 105, -53, -15, 28, -15, 960, 814, 343,w
2025-03-12 12:18:43.170,740, 501, 442, 7, -13, 4, -17, 28, -14, 954, 848, 459,x
2025-03-12 12:18:43.221,746, 518, 432, 5, -9, 3, -16, 28, -14, 954, 850, 469,x
2025-03-12 12:18:43.280,714, 520, 489, 1, -10, 4, -16, 29, -14, 957, 864, 476,x
2025-03-12 12:18:43.341,747, 530, 439, -3, 0, 0, -16, 28, -13, 959, 875, 482,x
2025-03-12 12:18:43.400,697, 531, 511, 2, -12, 7, -16, 29, -13, 964, 892, 479,x
2025-03-12 12:18:43.457,712, 583, 445, -28, 0, -6, -16, 29, -13, 969, 924, 47,x
2025-03-12 12:18:43.514,294, 744, 302, 44, 17, -16, -16, 27, -10, 973, 908, 15,x
2025-03-12 12:18:43.571,778, 583, 270, -19, 37, 12, -16, 29, -13, 962, 880, 25,x
2025-03-12 12:18:43.630,593, 744, 620, 24, -38, -20, -15, 27, -12, 950, 898, 384,x
2025-03-12 12:18:43.690,914, 1559, -98, -25, 19, 101, -16, 26, -10, 983, 940, 294,x
2025-03-12 12:18:43.740,753, 374, 489, 3, 7, 2, -17, 29, -13, 980, 929, 359,x
2025-03-12 12:18:43.806,692, 519, 406, -36, 56, -62, -16, 27, -13, 944, 866, 519,x
2025-03-12 12:18:44.124,715, 553, 458, -2, 0, -1, -16, 29, -12, 953, 882, 533,y
2025-03-12 12:18:44.180,697, 570, 485, -4, -1, 0, -17, 27, -12, 953, 884, 530,y
2025-03-12 12:18:44.239,666, 540, 496, -3, -16, 0, -16, 28, -14, 956, 897, 533,y
2025-03-12 12:18:44.300,674, 664, 497, -15, -8, -11, -16, 27, -13, 967, 922, 396,y
2025-03-12 12:18:44.356,1113, 822, 217, 6, 30, 59, -17, 25, -12, 985, 938, 325,y
2025-03-12 12:18:44.410,731, 417, 652, -6, 2, 8, -17, 29, -13, 980, 944, 484,y
2025-03-12 12:18:44.472,736, 640, 572, 9, -21, -17, -16, 28, -12, 970, 935, 659,y
2025-03-12 12:18:44.530,358, 756, 521, -2, 31, 40, -16, 28, -12, 983, 941, 189,y
2025-03-12 12:18:44.590,665, 401, 432, -42, 28, 19, -15, 31, -14, 970, 869, 18,y
2025-03-12 12:18:44.640,899, 638, 142, -41, 26, -58, -15, 28, -14, 924, 830, 253,y
2025-03-12 12:18:44.710,271, 699, 854, 12, -28, 5, -16, 28, -15, 953, 892, 333,y
2025-03-12 12:18:44.997,675, 541, 506, -2, 3, -2, -17, 29, -13, 958, 872, 393,z
2025-03-12 12:18:45.054,693, 535, 533, -2, 0, 0, -16, 30, -11, 956, 873, 405,z
2025-03-12 12:18:45.111,705, 527, 449, 1, -5, -3, -15, 28, -12, 956, 878, 421,z
2025-03-12 12:18:45.164,671, 551, 529, 4, -24, 4, -16, 29, -10, 961, 892, 183,z
2025-03-12 12:18:45.223,1020, 531, 572, 32, -9, 4, -16, 29, -13, 979, 944, 395,z
2025-03-12 12:18:45.280,704, 781, 497, 27, -1, 20, -17, 29, -13, 985, 944, 500,z
2025-03-12 12:18:45.341,1105, 160, 625, -15, 15, -15, -17, 29, -13, 975, 891, 18,z
2025-03-12 12:18:45.400,794, 989, 598, -6, 5, 37, -16, 28, -14, 983, 949, 20,z
2025-03-12 12:18:45.460,644, 463, 502, 23, 8, 13, -16, 28, -10, 980, 941, 146,z
2025-03-12 12:18:45.516,305, 552, 563, -8, 19, -60, -16, 28, -14, 963, 859, 453,z
2025-03-12 12:18:45.574,813, 665, 333, -26, -19, -3, -15, 28, -12, 979, 943, 327,z
2025-03-12 12:18:45.636,550, 251, 124, 16, 16, 37, -17, 28, -12, 985, 941, 316,z
2025-03-12 12:18:45.690,808, 555, 65, -38, 79, -57, -16, 29, -13, 961, 742, 522,z
2025-03-12 12:18:45.754,402, 644, 1001, -11, 5, -18, -14, 26, -17, 942, 677, 322,z
2025-03-12 12:18:46.045,644, 542, 548, 4, -6, 2, -15, 28, -14, 931, 700, 270,0
2025-03-12 12:18:46.103,661, 534, 560, 6, -8, 1, -15, 28, -14, 931, 705, 276,0
2025-03-12 12:18:46.160,695, 557, 485, 2, -4, -2, -15, 28, -14, 930, 732, 346,0
2025-03-12 12:18:46.210,658, 561, 515, -3, -5, -2, -15, 27, -14, 929, 754, 428,0
2025-03-12 12:18:46.275,675, 538, 528, 3, -9, 7, -14, 28, -15, 939, 784, 471,0
2025-03-12 12:18:46.330,698, 560, 485, 7, -18, 5, -14, 27, -11, 941, 815, 582,0
2025-03-12 12:18:46.390,710, 540, 461, -4, -17, 4, -15, 26, -14, 948, 860, 621,0
2025-03-12 12:18:46.441,690, 546, 563, 11, -41, 4, -17, 29, -12, 960, 913, 605,0
2025-03-12 12:18:46.506,650, 289, 581, 33, -6, -30, -17, 28, -11, 966, 913, 443,0
2025-03-12 12:18:46.565,789, 862, -42, -9, 53, 71, -18, 27, -13, 979, 912, 297,0
2025-03-12 12:18:46.626,491, 215, 502, -71, -12, 10, -16, 28, -12, 979, 941, 190,0
2025-03-12 12:18:46.680,874, 476, 406, 52, -19, -35, -15, 28, -11, 938, 879, 716,0
2025-03-12 12:18:46.740,526, 627, 588, -32, 94, -22, -17, 27, -14, 928, 721, 575,0
2025-03-12 12:18:47.030,684, 568, 507, -6, -4, -4, -16, 26, -14, 934, 805, 500,1
2025-03-12 12:18:47.090,660, 569, 513, -4, -5, -3, -17, 27, -11, 935, 808, 495,1
2025-03-12 12:18:47.156,736, 564, 507, 11, -16, 7, -16, 27, -13, 936, 828, 434,1
2025-03-12 12:18:47.210,749, 557, 122, -9, -5, -4, -15, 28, -11, 961, 910, 447,1
2025-03-12 12:18:47.270,616, 546, 606, -6, -11, 9, -17, 27, -11, 971, 942, 539,1
2025-03-12 12:18:47.325,972, 463, 472, 27, -3, 7, -16, 26, -11, 982, 939, 517,1
2025-03-12 12:18:47.380,829, 643, 190, 6, 50, 36, -17, 29, -10, 982, 926, 134,1
2025-03-12 12:18:47.441,856, 481, 341, -31, 22, -12, -16, 28, -14, 972, 875, 205,1
2025-03-12 12:18:47.504,569, 562, 859, 32, -52, 11, -15, 27, -13, 967, 874, 196,1
2025-03-12 12:18:47.560,1029, 893, 393, -12, 2, 47, -16, 28, -12, 984, 950, 29,1
2025-03-12 12:18:47.622,638, 356, 736, 35, 0, 29, -16, 28, -12, 982, 939, 143,1
2025-03-12 12:18:47.680,614, 503, 273, -46, 80, -68, -15, 30, -14, 963, 864, 535,1
2025-03-12 12:18:47.970,759, 554, 431, 1, -8, -4, -16, 27, -14, 946, 859, 517,2
2025-03-12 12:18:48.022,743, 558, 421, -1, -5, -6, -17, 30, -13, 946, 857, 511,2
2025-03-12 12:18:48.086,619, 548, 558, 1, -7, -1, -16, 26, -13, 943, 854, 490,2
2025-03-12 12:18:48.140,679, 450, 510, 6, -27, -7, -16, 28, -13, 945, 876, 381,2
2025-03-12 12:18:48.200,998, 878, 276, -8, -34, 8, -16, 28, -11, 976, 942, 451,2
2025-03-12 12:18:48.260,814, 478, 433, 26, 16, 23, -16, 27, -12, 982, 935, 459,2
2025-03-12 12:18:48.317,445, 604, 326, -41, 15, -5, -15, 28, -13, 975, 886, 19,2
2025-03-12 12:18:48.373,744, 605, 484, -12, 0, 55, -16, 28, -14, 986, 956, 23,2
2025-03-12 12:18:48.433,924, 226, 283, 23, 14, -19, -16, 29, -14, 978, 931, 370,2
2025-03-12 12:18:48.490,449, 509, 792, -41, 54, -55, -16, 27, -15, 949, 790, 260,2
2025-03-12 12:18:48.764,676, 547, 514, 3, -11, 2, -16, 28, -14, 942, 838, 461,3
2025-03-12 12:18:48.820,702, 548, 512, 4, -11, 1, -16, 28, -13, 939, 835, 468,3
2025-03-12 12:18:48.880,721, 563, 445, -9, -7, -2, -15, 29, -13, 938, 846, 502,3
2025-03-12 12:18:48.938,624, 534, 550, 2, -35, -1, -16, 27, -13, 942, 874, 457,3
2025-03-12 12:18:48.990,876, 540, 496, 29, -6, -6, -16, 26, -11, 970, 929, 436,3
2025-03-12 12:18:49.050,502, 651, 541, 2, 0, 15, -17, 26, -13, 978, 940, 619,3
2025-03-12 12:18:49.103,727, 432, 442, 15, 1, -10, -16, 27, -11, 975, 928, 521,3
2025-03-12 12:18:49.163,745, 380, 604, 7, 15, 8, -16, 25, -11, 981, 934, 408,3
2025-03-12 12:18:49.221,852, 458, 499, 1, 11, 7, -16, 26, -12, 979, 917, 249,3
2025-03-12 12:18:49.280,1062, 397, 180, -23, 59, -51, -16, 28, -14, 928, 781, 462,3
2025-03-12 12:18:49.340,395, 621, 897, -19, 33, -24, -13, 27, -17, 891, 712, 408,3
2025-03-12 12:18:49.650,738, 541, 429, 8, -24, 6, -15, 27, -13, 929, 800, 507,4
2025-03-12 12:18:49.710,753, 524, 418, 7, -22, 4, -15, 28, -13, 930, 804, 509,4
2025-03-12 12:18:49.768,692, 553, 469, -3, -13, -3, -15, 27, -12, 934, 827, 547,4
2025-03-12 12:18:49.830,888, 90, 303, -38, -16, -15, -15, 28, -11, 958, 907, 555,4
2025-03-12 12:18:49.886,961, 607, 417, 23, -3, -2, -16, 27, -13, 971, 905, 379,4
2025-03-12 12:18:49.940,717, 704, 131, -2, 11, 5, -17, 27, -13, 973, 886, 19,4
2025-03-12 12:18:50.002,389, 493, 398, -46, 1, 51, -16, 28, -12, 983, 951, 252,4
2025-03-12 12:18:50.055,708, 427, 477, 24, 0, 8, -16, 28, -13, 975, 932, 591,4
2025-03-12 12:18:50.110,581, 696, 803, 4, 0, -22, -16, 29, -13, 968, 907, 719,4
2025-03-12 12:18:50.171,791, 615, 224, 21, 18, 12, -17, 28, -12, 984, 939, 526,4
2025-03-12 12:18:50.230,884, 637, 432, -10, 39, 40, -17, 27, -11, 985, 911, 216,4
2025-03-12 12:18:50.290,909, 456, 155, -33, 34, -63, -16, 28, -14, 941, 810, 611,4
2025-03-12 12:18:50.353,328, 631, 1047, -14, 1, -17, -14, 29, -15, 928, 844, 525,4
2025-03-12 12:18:50.610,718, 551, 463, -4, 1, -6, -16, 28, -14, 949, 862, 506,5
2025-03-12 12:18:50.668,695, 555, 462, -6, 2, -6, -16, 27, -13, 948, 858, 502,5
2025-03-12 12:18:50.721,595, 541, 577, 2, -17, 0, -16, 29, -14, 945, 843, 434,5
2025-03-12 12:18:50.780,758, -83, 167, 1, -4, -15, -17, 29, -13, 961, 894, 269,5
2025-03-12 12:18:50.840,764, 361, 384, 6, 1, 25, -15, 29, -12, 976, 945, 473,5
2025-03-12 12:18:50.902,671, 309, 616, 28, -17, -25, -17, 28, -13, 969, 938, 605,5
2025-03-12 12:18:50.960,710, 661, 337, 41, 14, 6, -17, 27, -12, 976, 925, 584,5
2025-03-12 12:18:51.014,846, 810, 405, 13, 40, 49, -16, 29, -13, 986, 943, 99,5
2025-03-12 12:18:51.071,727, 395, 428, 10, 16, -6, -16, 30, -14, 971, 888, 139,5
2025-03-12 12:18:51.130,834, 574, 73, -49, 67, -53, -16, 27, -13, 923, 830, 432,5
2025-03-12 12:18:51.190,330, 670, 733, 9, -20, 1, -14, 27, -14, 936, 839, 489,5
2025-03-12 12:18:51.460,712, 547, 510, -9, -12, 5, -15, 28, -12, 959, 901, 612,6
2025-03-12 12:18:51.512,724, 547, 480, -7, -14, 7, -16, 29, -14, 961, 904, 620,6
2025-03-12 12:18:51.570,610, 583, 568, -6, -23, 9, -16, 28, -13, 969, 922, 521,6
2025-03-12 12:18:51.635,748, 295, 614, -5, -7, -20, -15, 28, -11, 972, 937, 333,6
2025-03-12 12:18:51.690,1023, 831, 273, 32, 25, 6, -17, 27, -11, 980, 928, 228,6
2025-03-12 12:18:51.750,645, 433, 683, -23, 21, 30, -17, 27, -13, 984, 950, 22,6
2025-03-12 12:18:51.810,702, 395, 508, 45, -36, -52, -15, 28, -11, 969, 942, 347,6
2025-03-12 12:18:51.871,836, 566, 354, -32, 60, -35, -16, 27, -10, 934, 864, 292,6
2025-03-12 12:18:51.930,512, 583, 592, -29, 37, -5, -15, 27, -15, 927, 719, 246,6
2025-03-12 12:18:52.230,693, 573, 484, 2, -15, 2, -15, 27, -15, 920, 802, 373,7
2025-03-12 12:18:52.286,667, 550, 466, 1, -13, 2, -16, 27, -14, 920, 804, 338,7
2025-03-12 12:18:52.340,593, 519, 590, 3, -34, 5, -14, 27, -15, 932, 830, 408,7
2025-03-12 12:18:52.403,811, 460, 149, 10, -12, -11, -16, 26, -13, 965, 922, 254,7
2025-03-12 12:18:52.462,612, 494, 658, 21, 3, 12, -18, 28, -13, 979, 940, 468,7
2025-03-12 12:18:52.520,588, 699, 383, -5, 40, 25, -16, 26, -12, 983, 933, 139,7
2025-03-12 12:18:52.570,862, 689, 414, -39, 43, 29, -17, 29, -13, 976, 893, 26,7
2025-03-12 12:18:52.640,495, 570, 563, -7, -21, -53, -15, 28, -13, 959, 858, 166,7
2025-03-12 12:18:52.690,680, 867, 439, 16, -20, 18, -16, 28, -12, 983, 948, 160,7
2025-03-12 12:18:52.753,670, 475, 533, 26, -2, 27, -16, 28, -13, 982, 934, 200,7
2025-03-12 12:18:52.815,663, 530, 295, -46, 78, -66, -16, 30, -14, 963, 806, 408,7
2025-03-12 12:18:52.871,477, 617, 854, 13, -21, 4, -15, 29, -16, 942, 756, 349,7
2025-03-12 12:18:53.110,720, 555, 479, 9, -10, 12, -16, 27, -14, 949, 759, 360,8
2025-03-12 12:18:53.168,725, 557, 442, 10, -8, 12, -16, 28, -14, 951, 756, 368,8
2025-03-12 12:18:53.223,656, 504, 512, 7, -14, 17, -14, 28, -14, 955, 783, 376,8
2025-03-12 12:18:53.280,739, 502, 387, -5, -6, -1, -16, 29, -12, 957, 832, 373,8
2025-03-12 12:18:53.341,899, 425, 549, -23, -5, -20, -16, 28, -12, 964, 902, 20,8
2025-03-12 12:18:53.402,756, 510, 468, 35, -1, -15, -16, 28, -12, 975, 912, 20,8
2025-03-12 12:18:53.456,645, 598, 250, -15, 23, 35, -16, 27, -12, 983, 940, 21,8
2025-03-12 12:18:53.520,903, 138, 724, 24, -45, -54, -16, 30, -12, 974, 949, 234,8
2025-03-12 12:18:53.581,603, 294, 594, -16, -18, -14, -17, 27, -11, 979, 954, 464,8
2025-03-12 12:18:53.636,1116, 660, 267, -6, 28, 25, -17, 28, -10, 984, 946, 186,8
2025-03-12 12:18:53.700,1105, 287, 446, -8, 29, -39, -16, 28, -11, 968, 905, 498,8
2025-03-12 12:18:53.974,697, 574, 496, 1, -12, 6, -16, 27, -14, 954, 857, 320,9
2025-03-12 12:18:54.030,712, 562, 452, 0, -11, 6, -16, 28, -12, 953, 858, 330,9
2025-03-12 12:18:54.086,687, 527, 509, -2, -5, 1, -17, 28, -13, 953, 870, 343,9
2025-03-12 12:18:54.140,682, 573, 481, 1, -14, 6, -17, 26, -13, 954, 879, 354,9
2025-03-12 12:18:54.203,646, 539, 499, -10, -20, 6, -15, 29, -13, 962, 910, 392,9
2025-03-12 12:18:54.260,696, 572, 548, -3, -5, -17, -17, 28, -11, 968, 933, 27,9
2025-03-12 12:18:54.320,910, 1015, -132, 28, 35, 33, -16, 27, -10, 981, 930, 25,9
2025-03-12 12:18:54.380,606, 336, 561, -12, 9, 16, -16, 29, -13, 979, 944, 210,9
2025-03-12 12:18:54.437,712, 462, 591, 28, -7, -13, -18, 28, -13, 974, 937, 527,9
2025-03-12 12:18:54.490,804, 63, 561, -17, 31, 35, -16, 28, -14, 984, 943, 31,9
2025-03-12 12:18:54.552,572, 309, 587, 6, 25, 1, -16, 30, -14, 972, 897, 25,9
2025-03-12 12:18:54.612,989, 559, 175, -23, 54, -67, -15, 28, -16, 879, 714, 216,9
2025-03-12 12:18:54.670,384, 663, 927, -7, -1, -20, -14, 29, -17, 864, 709, 252,9
2025-03-12 12:18:54.930,657, 534, 543, 2, -9, 3, -14, 28, -16, 912, 799, 237,+
2025-03-12 12:18:54.990,677, 528, 530, 2, -9, 2, -15, 28, -16, 912, 802, 253,+
2025-03-12 12:18:55.052,659, 520, 561, -1, -7, -2, -14, 28, -15, 913, 811, 340,+
2025-03-12 12:18:55.104,696, 570, 484, 4, -8, 0, -13, 27, -14, 913, 817, 343,+
2025-03-12 12:18:55.160,700, 531, 485, -1, -5, -3, -15, 29, -12, 915, 822, 362,+
2025-03-12 12:18:55.220,654, 551, 555, -1, -6, 0, -16, 28, -13, 918, 826, 369,+
2025-03-12 12:18:55.270,687, 545, 486, 2, -5, -2, -16, 28, -13, 919, 830, 385,+
2025-03-12 12:18:55.338,693, 535, 450, -1, -7, -6, -15, 29, -14, 917, 826, 391,+
2025-03-12 12:18:55.390,692, 568, 527, 7, -14, -2, -16, 28, -13, 915, 836, 417,+
2025-03-12 12:18:55.453,772, 541, 406, 2, 1, -6, -15, 26, -13, 919, 846, 436,+
2025-03-12 12:18:55.510,668, 554, 526, -11, 21, -4, -15, 27, -13, 920, 846, 430,+
2025-03-12 12:18:55.568,664, 546, 507, 3, -13, 5, -15, 26, -13, 922, 847, 423,+
2025-03-12 12:18:55.620,728, 568, 442, -7, 5, -4, -16, 26, -12, 924, 848, 415,+
2025-03-12 12:18:55.680,650, 568, 540, 0, -3, 1, -16, 28, -13, 923, 843, 423,+
2025-03-12 12:18:55.736,718, 564, 417, -6, 2, 2, -16, 28, -13, 929, 849, 447,+
2025-03-12 12:18:55.793,631, 579, 505, 1, -9, 0, -15, 28, -12, 927, 843, 452,+
2025-03-12 12:18:55.850,653, 576, 523, -3, -20, 10, -16, 29, -11, 942, 883, 483,+
2025-03-12 12:18:55.902,631, 621, 355, 45, 1, -6, -17, 26, -12, 974, 920, 368,+
2025-03-12 12:18:55.961,570, 568, 185, 8, 29, 29, -15, 28, -13, 979, 908, 34,+
2025-03-12 12:18:56.019,734, 66, 648, -9, -3, -53, -15, 28, -14, 953, 855, 300,+
2025-03-12 12:18:56.084,894, 693, 535, 22, -11, -14, -15, 26, -11, 966, 919, 392,+
2025-03-12 12:18:56.141,352, 595, 299, -3, 10, 41, -16, 28, -13, 984, 948, 587,+
2025-03-12 12:18:56.202,707, 556, 209, -25, 54, -61, -17, 27, -13, 962, 907, 703,+
2025-03-12 12:18:56.500,679, 575, 493, -6, 2, 1, -14, 27, -15, 935, 855, 628,-
2025-03-12 12:18:56.560,676, 573, 503, -6, 1, 2, -14, 27, -14, 935, 855, 624,-
2025-03-12 12:18:56.617,705, 551, 476, -2, -2, -1, -16, 27, -13, 938, 855, 618,-
2025-03-12 12:18:56.670,683, 561, 477, -1, -1, 2, -15, 27, -12, 940, 860, 620,-
2025-03-12 12:18:56.730,686, 566, 479, -1, -2, 2, -16, 26, -13, 945, 867, 618,-
2025-03-12 12:18:56.786,702, 542, 496, -6, -1, 0, -17, 28, -13, 949, 871, 578,-
2025-03-12 12:18:56.843,696, 572, 477, 0, 0, -1, -16, 27, -13, 948, 869, 582,-
2025-03-12 12:18:56.891,691, 544, 476, 1, 1, -2, -16, 27, -13, 948, 871, 582,-
2025-03-12 12:18:56.953,643, 557, 506, 4, -1, -1, -15, 28, -13, 944, 870, 531,-
2025-03-12 12:18:57.013,771, 472, 439, 9, -9, -19, -16, 27, -14, 958, 878, 23,-
2025-03-12 12:18:57.070,625, 427, -21, -5, -2, 49, -16, 26, -14, 983, 953, 524,-
2025-03-12 12:18:57.120,616, 571, 456, 36, 1, 2, -16, 27, -13, 974, 919, 716,-
2025-03-12 12:18:57.190,719, 516, 413, -50, 57, -57, -15, 28, -11, 945, 803, 573,-
2025-03-12 12:18:57.500,699, 555, 486, -4, -2, 0, -15, 27, -14, 934, 820, 525,÷
2025-03-12 12:18:57.555,695, 550, 482, -4, -1, -1, -17, 27, -13, 934, 819, 522,÷
2025-03-12 12:18:57.617,682, 583, 491, -2, -6, 1, -15, 25, -13, 935, 825, 552,÷
2025-03-12 12:18:57.673,708, 556, 469, -7, 0, -1, -16, 27, -12, 935, 835, 547,÷
2025-03-12 12:18:57.730,687, 553, 494, -4, -4, -1, -15, 27, -13, 937, 842, 546,÷
2025-03-12 12:18:57.788,713, 553, 468, -2, -1, 0, -17, 28, -13, 940, 856, 565,÷
2025-03-12 12:18:57.846,709, 547, 455, -3, -1, 0, -16, 27, -12, 943, 857, 576,÷
2025-03-12 12:18:57.903,681, 555, 481, -4, -1, -3, -16, 27, -13, 942, 857, 550,÷
2025-03-12 12:18:57.960,708, 532, 472, -1, -1, 0, -17, 28, -12, 946, 863, 550,÷
2025-03-12 12:18:58.017,618, 504, 595, 8, -18, 10, -15, 27, -12, 959, 889, 570,÷
2025-03-12 12:18:58.077,647, 485, 586, -17, -11, -14, -16, 25, -12, 965, 928, 361,÷
2025-03-12 12:18:58.140,718, 713, 147, 18, -7, -10, -17, 27, -11, 976, 924, 367,÷
2025-03-12 12:18:58.190,759, 512, 602, -8, 23, 28, -16, 27, -13, 973, 913, 414,÷
2025-03-12 12:18:58.252,351, 589, 947, 26, 9, 15, -15, 28, -16, 963, 867, 480,÷
2025-03-12 12:18:58.312,774, -135, 2, 16, -5, -18, -17, 29, -12, 970, 899, 363,÷
2025-03-12 12:18:58.368,649, 582, 586, -23, 9, 11, -16, 29, -12, 976, 928, 46,÷
2025-03-12 12:18:58.430,909, 426, 306, -37, 18, -21, -16, 28, -13, 957, 887, 136,÷
2025-03-12 12:18:58.486,386, 675, 926, 22, -44, 0, -16, 26, -13, 942, 868, 366,÷
2025-03-12 12:18:58.540,832, 285, 127, -13, -3, -6, -16, 28, -12, 977, 929, 26,÷
2025-03-12 12:18:58.602,481, 546, 443, 0, 2, 39, -16, 28, -13, 987, 959, 340,÷
2025-03-12 12:18:58.660,834, 367, 320, 13, 18, -22, -16, 30, -13, 974, 934, 661,÷
2025-03-12 12:18:58.721,557, 564, 828, -27, 29, -24, -15, 28, -16, 954, 884, 522,÷
2025-03-12 12:18:58.769,660, 556, 477, 13, -19, 15, -15, 26, -14, 945, 875, 533,÷
2025-03-12 12:18:59.046,713, 589, 481, 5, -3, -1, -14, 27, -13, 931, 848, 573,=
2025-03-12 12:18:59.102,677, 594, 472, 2, -2, -2, -16, 26, -14, 931, 848, 576,=
2025-03-12 12:18:59.153,670, 557, 513, 1, -1, 2, -15, 27, -14, 924, 851, 580,=
2025-03-12 12:18:59.212,684, 579, 474, 0, 1, -2, -17, 26, -13, 923, 844, 587,=
2025-03-12 12:18:59.270,660, 574, 463, 3, -1, -1, -15, 28, -13, 925, 853, 592,=
2025-03-12 12:18:59.320,691, 564, 446, -6, 0, -3, -16, 27, -13, 924, 858, 602,=
2025-03-12 12:18:59.385,697, 560, 453, -2, -2, -1, -17, 26, -14, 929, 867, 602,=
2025-03-12 12:18:59.440,678, 566, 493, -1, -1, -2, -16, 27, -14, 929, 871, 587,=
2025-03-12 12:18:59.500,686, 578, 463, -1, 1, -2, -16, 26, -14, 933, 871, 585,=
2025-03-12 12:18:59.553,668, 572, 473, 2, -1, -1, -16, 27, -13, 932, 866, 551,=
2025-03-12 12:18:59.618,667, 570, 546, 14, -18, 3, -16, 26, -13, 933, 875, 457,=
2025-03-12 12:18:59.670,813, 428, 503, 25, -15, -3, -16, 26, -12, 973, 932, 499,=
2025-03-12 12:18:59.732,367, 335, 591, 23, 2, 21, -17, 26, -11, 983, 946, 670,=
2025-03-12 12:18:59.790,698, 488, 359, 8, 45, -28, -17, 27, -13, 966, 874, 719,=
2025-03-12 12:18:59.852,659, 370, 613, 22, -41, -28, -16, 26, -14, 970, 871, 376,=
2025-03-12 12:18:59.910,472, 358, 382, -40, 10, 46, -16, 28, -13, 986, 952, 190,=
2025-03-12 12:18:59.967,616, 479, 475, 23, 12, 7, -16, 29, -14, 972, 898, 613,=
2025-03-12 12:19:00.020,630, 642, 478, -48, 74, -51, -14, 27, -14, 938, 647, 506,=
2025-03-12 12:19:00.307,672, 547, 504, -2, -8, 2, -15, 26, -13, 926, 743, 542,≠
2025-03-12 12:19:00.360,665, 550, 488, 0, -9, 2, -14, 27, -15, 928, 745, 543,≠
2025-03-12 12:19:00.420,713, 571, 448, -5, -3, -4, -15, 25, -15, 918, 735, 538,≠
2025-03-12 12:19:00.470,650, 583, 504, -8, -2, 0, -16, 27, -14, 898, 722, 475,≠
2025-03-12 12:19:00.535,724, 554, 472, 3, -6, -1, -15, 27, -11, 891, 716, 491,≠
2025-03-12 12:19:00.590,696, 573, 487, -5, 0, -1, -15, 27, -14, 897, 730, 497,≠
2025-03-12 12:19:00.651,699, 556, 458, -5, -3, -2, -16, 27, -15, 904, 762, 504,≠
2025-03-12 12:19:00.701,680, 577, 457, -2, -1, 0, -15, 28, -13, 911, 770, 512,≠
2025-03-12 12:19:00.766,682, 566, 473, -6, -4, -4, -16, 28, -12, 913, 783, 523,≠
2025-03-12 12:19:00.820,680, 552, 477, -6, -3, -6, -15, 28, -13, 911, 790, 513,≠
2025-03-12 12:19:00.885,666, 516, 545, 3, -13, -10, -17, 27, -14, 906, 787, 354,≠
2025-03-12 12:19:00.940,1000, 601, 562, 43, -18, -4, -16, 25, -11, 969, 916, 369,≠
2025-03-12 12:19:01.002,589, 576, 659, 24, -7, 20, -15, 27, -11, 976, 930, 671,≠
2025-03-12 12:19:01.060,563, 501, 311, 13, 46, -30, -15, 26, -12, 949, 780, 633,≠
2025-03-12 12:19:01.120,688, 366, 307, 62, -12, -22, -15, 26, -11, 966, 851, 208,≠
2025-03-12 12:19:01.170,164, 388, -9, -7, 12, 40, -16, 26, -11, 983, 936, 423,≠
2025-03-12 12:19:01.240,814, 274, 327, -9, 12, -25, -15, 28, -11, 969, 876, 707,≠
2025-03-12 12:19:01.290,507, 800, 1045, 6, -38, 5, -16, 26, -12, 956, 850, 767,≠
2025-03-12 12:19:01.352,587, 598, 182, 10, 2, 2, -16, 28, -12, 981, 923, 644,≠
2025-03-12 12:19:01.411,819, 467, 201, 39, 27, 10, -16, 27, -12, 980, 867, 199,≠
2025-03-12 12:19:01.470,1128, 593, 491, -37, 29, -3, -18, 26, -16, 924, 710, 585,≠
2025-03-12 12:19:01.530,557, 584, 684, -79, 45, -51, -15, 28, -16, 921, 763, 508,≠
2025-03-12 12:19:01.822,671, 563, 477, 3, -9, 4, -14, 29, -14, 911, 745, 494,≈
2025-03-12 12:19:01.884,679, 574, 468, 3, -9, 3, -13, 24, -14, 911, 746, 508,≈
2025-03-12 12:19:01.941,708, 525, 476, -3, 1, -1, -16, 28, -13, 911, 749, 534,≈
2025-03-12 12:19:01.990,688, 557, 483, -1, -3, 0, -16, 28, -12, 914, 759, 553,≈
2025-03-12 12:19:02.055,675, 569, 503, -2, -3, 0, -16, 29, -13, 920, 771, 557,≈
2025-03-12 12:19:02.110,690, 541, 494, 3, -9, 2, -17, 28, -14, 922, 778, 572,≈
2025-03-12 12:19:02.170,704, 571, 448, -3, -5, -3, -16, 27, -15, 928, 794, 586,≈
2025-03-12 12:19:02.220,689, 557, 501, 0, -1, 0, -16, 27, -14, 930, 805, 589,≈
2025-03-12 12:19:02.285,696, 556, 464, -3, 1, -5, -15, 26, -13, 930, 811, 601,≈
2025-03-12 12:19:02.334,687, 568, 486, 1, 0, 0, -16, 27, -14, 934, 809, 596,≈
2025-03-12 12:19:02.390,682, 565, 485, 1, 1, -2, -16, 27, -15, 935, 811, 602,≈
2025-03-12 12:19:02.452,708, 573, 449, -4, 1, -2, -16, 28, -14, 934, 810, 591,≈
2025-03-12 12:19:02.506,684, 571, 497, 2, -3, 2, -17, 27, -13, 934, 808, 584,≈
2025-03-12 12:19:02.560,692, 572, 474, 6, 8, 0, -16, 28, -14, 937, 802, 550,≈
2025-03-12 12:19:02.620,583, 578, 515, 18, -12, -3, -16, 27, -12, 934, 802, 522,≈
2025-03-12 12:19:02.670,734, 578, 422, 6, -5, -8, -16, 26, -13, 952, 893, 497,≈
2025-03-12 12:19:02.734,579, 471, 388, 4, -14, 15, -17, 27, -13, 977, 942, 682,≈
2025-03-12 12:19:02.790,755, 1127, -36, 23, 12, 20, -18, 27, -13, 981, 939, 658,≈
2025-03-12 12:19:02.852,605, 505, 349, -7, 60, -19, -16, 27, -13, 970, 883, 634,≈
2025-03-12 12:19:02.916,801, 583, 520, 32, -36, -3, -16, 27, -13, 954, 829, 599,≈
2025-03-12 12:19:02.970,682, 711, 445, -18, -18, -1, -16, 25, -14, 974, 931, 624,≈
2025-03-12 12:19:03.030,718, 650, 508, 3, -6, 8, -16, 27, -11, 982, 939, 632,≈
2025-03-12 12:19:03.085,683, 492, 349, 0, 18, 22, -16, 27, -12, 980, 933, 472,≈
2025-03-12 12:19:03.149,766, 500, 294, -19, 32, -39, -16, 28, -13, 966, 899, 719,≈
2025-03-12 12:19:03.211,465, 581, 738, -17, 13, -16, -15, 26, -15, 952, 833, 638,≈
2025-03-12 12:19:03.450,677, 577, 485, -5, -6, -2, -15, 27, -14, 944, 789, 520,<
2025-03-12 12:19:03.510,692, 563, 476, -4, -6, -3, -15, 27, -15, 944, 791, 542,<
2025-03-12 12:19:03.570,658, 572, 498, -3, -3, -1, -16, 27, -15, 941, 798, 582,<
2025-03-12 12:19:03.624,637, 557, 513, 0, -6, 2, -15, 27, -14, 940, 806, 617,<
2025-03-12 12:19:03.685,714, 575, 422, -4, -4, -1, -14, 29, -14, 939, 811, 630,<
2025-03-12 12:19:03.740,659, 572, 500, -4, -4, 0, -15, 28, -13, 943, 818, 620,<
2025-03-12 12:19:03.800,704, 577, 444, -2, -4, -4, -15, 27, -13, 942, 827, 625,<
2025-03-12 12:19:03.861,696, 565, 474, -5, -4, -1, -15, 27, -13, 942, 837, 628,<
2025-03-12 12:19:03.915,686, 575, 472, 0, 0, 1, -15, 28, -13, 946, 837, 627,<
2025-03-12 12:19:03.970,706, 570, 480, -3, -3, 1, -16, 27, -12, 945, 846, 628,<
2025-03-12 12:19:04.030,671, 589, 472, -4, -7, -1, -17, 28, -14, 950, 863, 656,<
2025-03-12 12:19:04.090,723, 591, 500, -4, -21, 8, -15, 27, -12, 960, 890, 716,<
2025-03-12 12:19:04.148,720, 556, 359, -16, -15, -8, -16, 28, -12, 973, 930, 592,<
2025-03-12 12:19:04.210,442, 366, 447, 26, 3, -19, -17, 26, -10, 977, 929, 395,<
2025-03-12 12:19:04.267,642, 616, 113, 19, 18, -10, -16, 25, -10, 973, 885, 21,<
2025-03-12 12:19:04.320,302, -20, 442, -40, 18, 63, -16, 28, -11, 987, 942, 56,<
2025-03-12 12:19:04.382,764, 373, 473, 6, 7, -17, -16, 29, -12, 978, 922, 488,<
2025-03-12 12:19:04.440,520, 586, 758, -36, 62, -57, -16, 26, -16, 921, 848, 617,<
2025-03-12 12:19:04.700,697, 543, 469, 4, -10, 10, -16, 27, -14, 947, 876, 683,≤
2025-03-12 12:19:04.760,710, 519, 458, 5, -8, 6, -17, 27, -14, 946, 875, 687,≤
2025-03-12 12:19:04.820,718, 556, 459, -7, -1, -1, -17, 27, -14, 946, 877, 689,≤
2025-03-12 12:19:04.875,708, 550, 450, -4, -1, -1, -14, 28, -14, 950, 885, 713,≤
2025-03-12 12:19:04.933,672, 547, 494, -3, -2, 2, -16, 27, -13, 948, 888, 716,≤
2025-03-12 12:19:04.990,734, 545, 461, -3, 0, 0, -17, 28, -14, 949, 895, 723,≤
2025-03-12 12:19:05.050,692, 560, 495, -3, -2, -1, -16, 26, -13, 949, 895, 723,≤
2025-03-12 12:19:05.101,704, 561, 416, -3, 1, -2, -16, 28, -13, 951, 896, 720,≤
2025-03-12 12:19:05.165,686, 540, 492, -4, -1, 0, -17, 28, -11, 954, 897, 715,≤
2025-03-12 12:19:05.220,724, 556, 453, -1, 1, -3, -17, 28, -11, 953, 899, 702,≤
2025-03-12 12:19:05.280,693, 542, 493, 1, -3, -3, -16, 29, -13, 953, 897, 700,≤
2025-03-12 12:19:05.333,697, 566, 463, -3, -2, -1, -16, 28, -13, 955, 898, 703,≤
2025-03-12 12:19:05.390,689, 554, 488, -2, -2, 0, -15, 26, -12, 955, 899, 708,≤
2025-03-12 12:19:05.450,706, 486, 560, 9, -22, 4, -17, 26, -11, 961, 918, 715,≤
2025-03-12 12:19:05.501,707, 540, 500, -7, -5, -4, -16, 28, -11, 970, 937, 649,≤
2025-03-12 12:19:05.570,759, 501, 478, 29, 5, -15, -16, 27, -11, 974, 905, 348,≤
2025-03-12 12:19:05.621,802, 546, 337, 0, 15, 3, -16, 26, -10, 981, 924, 24,≤
2025-03-12 12:19:05.680,523, 456, 450, 18, 1, 18, -17, 28, -13, 988, 954, 404,≤
2025-03-12 12:19:05.734,611, 549, 303, 47, 21, -4, -16, 26, -10, 971, 896, 715,≤
2025-03-12 12:19:05.798,679, 715, 715, 14, -28, 20, -15, 25, -11, 965, 820, 459,≤
2025-03-12 12:19:05.850,766, 696, 286, -64, -1, 53, -16, 26, -11, 988, 954, 188,≤
2025-03-12 12:19:05.915,656, 291, 473, 49, 2, 4, -16, 29, -14, 977, 913, 634,≤
2025-03-12 12:19:05.971,649, 613, 420, -65, 81, -57, -14, 29, -15, 948, 669, 427,≤
2025-03-12 12:19:06.700,685, 566, 472, -5, -4, -3, -15, 28, -14, 934, 816, 593,>
2025-03-12 12:19:06.751,683, 556, 480, -4, -4, -2, -16, 28, -14, 935, 816, 596,>
2025-03-12 12:19:06.815,702, 551, 473, -1, -6, -1, -16, 28, -13, 937, 826, 610,>
2025-03-12 12:19:06.872,669, 552, 485, 0, -3, 0, -16, 28, -14, 941, 835, 623,>
2025-03-12 12:19:06.930,699, 556, 468, -2, -6, -3, -14, 28, -14, 940, 847, 646,>
2025-03-12 12:19:06.984,672, 558, 496, -4, -3, -2, -16, 28, -14, 942, 853, 633,>
2025-03-12 12:19:07.040,713, 555, 454, -4, -3, -3, -18, 28, -13, 943, 854, 625,>
2025-03-12 12:19:07.100,695, 563, 503, -1, -5, -2, -16, 28, -14, 945, 859, 626,>
2025-03-12 12:19:07.160,691, 559, 470, -5, 0, -6, -17, 28, -13, 945, 860, 621,>
2025-03-12 12:19:07.221,635, 604, 491, -1, -11, -1, -16, 27, -14, 948, 865, 633,>
2025-03-12 12:19:07.282,782, 684, 417, -7, -11, -7, -16, 27, -12, 965, 908, 462,>
2025-03-12 12:19:07.340,668, 430, 586, 28, -2, 29, -16, 25, -9, 981, 941, 746,>
2025-03-12 12:19:07.390,472, 403, 434, 37, 2, -8, -17, 27, -11, 983, 936, 713,>
2025-03-12 12:19:07.450,807, 548, 6, -17, 50, 0, -16, 27, -12, 973, 873, 410,>
2025-03-12 12:19:07.510,758, 432, 304, -40, 46, -33, -15, 28, -13, 952, 851, 644,>
2025-03-12 12:19:07.570,453, 591, 675, -33, 35, -21, -15, 26, -15, 945, 813, 637,>
2025-03-12 12:19:07.870,685, 569, 479, 7, -14, 4, -15, 26, -14, 928, 779, 614,≥
2025-03-12 12:19:07.930,705, 579, 459, 5, -12, 4, -15, 28, -14, 930, 781, 617,≥
2025-03-12 12:19:07.986,670, 552, 495, -5, 1, -3, -16, 26, -14, 930, 780, 603,≥
2025-03-12 12:19:08.040,664, 563, 481, 4, -8, 0, -16, 29, -14, 932, 795, 614,≥
2025-03-12 12:19:08.101,689, 575, 487, -4, -3, 0, -15, 26, -14, 932, 808, 622,≥
2025-03-12 12:19:08.154,687, 574, 493, 1, -8, 0, -15, 26, -13, 937, 822, 631,≥
2025-03-12 12:19:08.210,715, 571, 425, -2, -3, -2, -16, 27, -13, 939, 824, 627,≥
2025-03-12 12:19:08.270,567, 581, 588, 4, -17, 0, -15, 28, -14, 941, 839, 625,≥
2025-03-12 12:19:08.332,920, 241, 140, 15, -17, -19, -17, 28, -13, 962, 894, 529,≥
2025-03-12 12:19:08.385,569, 313, 548, 10, 2, 8, -16, 27, -12, 981, 939, 706,≥
2025-03-12 12:19:08.440,702, 635, 316, 29, 10, -1, -16, 27, -10, 980, 925, 562,≥
2025-03-12 12:19:08.503,959, 415, 428, -4, 61, -4, -15, 27, -15, 960, 824, 586,≥
2025-03-12 12:19:08.565,328, 683, 823, 52, -48, 28, -15, 26, -14, 959, 807, 596,≥
2025-03-12 12:19:08.620,1005, 798, 487, -17, -4, 14, -16, 27, -13, 981, 937, 220,≥
2025-03-12 12:19:08.680,803, 848, 590, 24, 0, 31, -14, 26, -14, 986, 945, 546,≥
2025-03-12 12:19:08.740,645, 594, 80, -55, 88, -81, -15, 26, -14, 955, 849, 691,≥
2025-03-12 12:19:08.993,626, 595, 547, -5, -9, 3, -14, 25, -15, 915, 738, 493,±
2025-03-12 12:19:09.050,629, 579, 520, -4, -11, 4, -15, 27, -14, 915, 740, 495,±
2025-03-12 12:19:09.110,713, 575, 435, 0, -8, 3, -17, 27, -15, 922, 767, 557,±
2025-03-12 12:19:09.170,677, 566, 498, -8, 0, -2, -16, 26, -15, 921, 779, 564,±
2025-03-12 12:19:09.220,680, 573, 469, -4, 0, 0, -16, 28, -14, 926, 786, 570,±
2025-03-12 12:19:09.285,668, 590, 493, -11, -5, 1, -15, 25, -13, 932, 791, 572,±
2025-03-12 12:19:09.340,656, 585, 521, 1, -11, 6, -14, 27, -13, 937, 804, 544,±
2025-03-12 12:19:09.400,705, 562, 429, -6, -9, 4, -16, 26, -14, 941, 814, 611,±
2025-03-12 12:19:09.450,694, 555, 473, -3, 0, -1, -16, 28, -12, 943, 826, 623,±
2025-03-12 12:19:09.515,704, 563, 455, -8, -6, -7, -16, 29, -13, 945, 832, 638,±
2025-03-12 12:19:09.570,658, 587, 495, -19, -8, -7, -15, 28, -13, 944, 853, 594,±
2025-03-12 12:19:09.633,762, 509, 463, 9, -8, -3, -16, 28, -13, 946, 855, 527,±
2025-03-12 12:19:09.684,651, 579, 518, 3, 0, -2, -16, 26, -15, 948, 857, 571,±
2025-03-12 12:19:09.748,1928, 179, 164, -11, -11, -26, -16, 26, -11, 955, 869, 411,±
2025-03-12 12:19:09.800,1270, 1172, 337, -1, -25, 29, -17, 24, -12, 980, 947, 580,±
2025-03-12 12:19:09.867,606, 661, 510, 25, 0, 11, -16, 27, -11, 976, 929, 775,±
2025-03-12 12:19:09.924,479, 615, 705, -19, -6, -25, -16, 25, -11, 960, 909, 761,±
2025-03-12 12:19:09.990,836, 973, -136, 39, 25, 15, -16, 25, -11, 983, 930, 673,±
2025-03-12 12:19:10.047,613, 632, 669, 21, 33, 18, -15, 27, -11, 973, 876, 703,±
2025-03-12 12:19:10.100,796, 644, 612, 19, -25, 1, -16, 25, -13, 955, 838, 578,±
2025-03-12 12:19:10.165,870, 1177, 253, -48, -8, 71, -16, 27, -11, 986, 949, 644,±
2025-03-12 12:19:10.220,560, 422, 534, 31, 9, 19, -17, 28, -11, 980, 925, 732,±
2025-03-12 12:19:10.280,575, 577, 479, -67, 88, -73, -15, 27, -15, 945, 738, 643,±
2025-03-12 12:19:10.557,680, 573, 497, 3, -14, 5, -15, 28, -12, 933, 799, 646,∓
2025-03-12 12:19:10.610,690, 570, 461, 1, -13, 4, -16, 28, -13, 932, 798, 644,∓
2025-03-12 12:19:10.670,719, 575, 425, -13, -7, -5, -15, 26, -14, 927, 807, 643,∓
2025-03-12 12:19:10.730,646, 570, 478, -13, -7, -5, -16, 27, -13, 932, 841, 588,∓
2025-03-12 12:19:10.790,616, 586, 506, -3, -17, -1, -14, 25, -12, 934, 852, 453,∓
2025-03-12 12:19:10.850,903, 450, 580, 31, -20, -11, -16, 24, -10, 971, 920, 156,∓
2025-03-12 12:19:10.910,198, 592, 62, -16, 2, 29, -17, 25, -10, 984, 945, 717,∓
2025-03-12 12:19:10.965,703, 633, 351, 34, 4, 7, -16, 27, -10, 972, 873, 780,∓
2025-03-12 12:19:11.020,729, 515, 511, -1, 53, -44, -16, 25, -12, 943, 779, 643,∓
2025-03-12 12:19:11.083,806, 554, 400, 16, -32, 5, -17, 26, -12, 952, 838, 693,∓
2025-03-12 12:19:11.140,723, 546, 419, -18, 30, -23, -17, 27, -11, 944, 814, 638,∓
2025-03-12 12:19:11.198,584, 635, 464, -1, 1, 3, -16, 26, -12, 947, 798, 623,∓
2025-03-12 12:19:11.250,583, 566, 546, 9, -14, 8, -15, 26, -12, 946, 815, 627,∓
2025-03-12 12:19:11.315,951, 824, 423, 37, -11, -16, -16, 28, -11, 971, 875, 478,∓
2025-03-12 12:19:11.370,717, 618, 504, -6, -7, 28, -18, 28, -13, 982, 935, 699,∓
2025-03-12 12:19:11.431,795, 504, 263, 8, 15, -1, -17, 26, -13, 970, 864, 769,∓
2025-03-12 12:19:11.493,683, 708, 916, 2, -27, -14, -16, 26, -12, 957, 795, 735,∓
2025-03-12 12:19:11.551,802, 1286, -150, -33, 34, 43, -17, 26, -10, 984, 911, 425,∓
2025-03-12 12:19:11.610,657, 425, 638, 15, 20, 13, -16, 28, -13, 974, 822, 477,∓
2025-03-12 12:19:11.667,833, 525, 356, -67, 76, -58, -15, 27, -14, 899, 701, 521,∓
2025-03-12 12:19:11.943,661, 541, 518, -7, -3, 0, -14, 27, -14, 895, 694, 455,∞
2025-03-12 12:19:11.997,659, 538, 522, 0, -3, 0, -16, 28, -15, 895, 694, 460,∞
2025-03-12 12:19:12.051,651, 572, 512, -2, -4, 0, -15, 26, -16, 900, 688, 483,∞
2025-03-12 12:19:12.110,660, 583, 498, -1, -6, 2, -15, 27, -15, 908, 718, 506,∞
2025-03-12 12:19:12.166,668, 578, 471, -2, -4, 2, -14, 27, -14, 919, 729, 513,∞
2025-03-12 12:19:12.224,651, 555, 543, -1, -8, 4, -14, 27, -14, 924, 751, 508,∞
2025-03-12 12:19:12.283,696, 572, 456, 6, -11, 5, -15, 27, -13, 932, 774, 538,∞
2025-03-12 12:19:12.340,688, 553, 482, 6, -4, -2, -16, 26, -13, 936, 798, 597,∞
2025-03-12 12:19:12.398,709, 565, 471, 2, 0, -6, -16, 26, -12, 932, 805, 607,∞
2025-03-12 12:19:12.450,637, 583, 504, 4, -4, -7, -16, 26, -14, 934, 817, 612,∞
2025-03-12 12:19:12.512,739, 587, 459, 7, -9, -4, -15, 26, -13, 931, 827, 610,∞
2025-03-12 12:19:12.565,670, 617, 483, 1, 1, 2, -16, 25, -11, 932, 829, 613,∞
2025-03-12 12:19:12.620,712, 585, 437, 3, -3, -1, -16, 27, -14, 934, 832, 623,∞
2025-03-12 12:19:12.681,773, 562, 523, 8, -7, 10, -17, 26, -13, 938, 840, 670,∞
2025-03-12 12:19:12.733,614, 581, 390, -7, -3, 7, -16, 27, -13, 948, 821, 719,∞
2025-03-12 12:19:12.793,701, 546, 526, 5, -15, 17, -14, 27, -12, 961, 853, 702,∞
2025-03-12 12:19:12.850,515, 474, 419, 14, 3, -3, -16, 28, -11, 976, 904, 489,∞
2025-03-12 12:19:12.914,677, 445, 471, 15, 11, -11, -16, 27, -12, 976, 899, 245,∞
2025-03-12 12:19:12.970,990, 451, 513, 6, -10, -21, -17, 27, -11, 966, 903, 234,∞
2025-03-12 12:19:13.025,810, 699, 713, 9, -17, 27, -15, 26, -10, 984, 943, 419,∞
2025-03-12 12:19:13.090,657, 670, 326, -25, 11, 13, -17, 27, -12, 985, 941, 404,∞
2025-03-12 12:19:13.150,663, 645, 332, -10, -23, -25, -16, 26, -12, 973, 937, 581,∞
2025-03-12 12:19:13.200,342, 649, 415, 9, 14, -3, -16, 27, -10, 981, 926, 310,∞
2025-03-12 12:19:13.265,833, 648, 142, -27, 31, 8, -16, 28, -12, 966, 824, 11,∞
2025-03-12 12:19:13.320,783, 581, 188, -46, 61, -50, -17, 28, -13, 877, 780, 319,∞
2025-03-12 12:19:13.600,669, 545, 529, -4, -1, 2, -14, 27, -15, 890, 707, 384,∑
2025-03-12 12:19:13.659,673, 563, 525, -6, -1, 2, -15, 26, -14, 889, 702, 371,∑
2025-03-12 12:19:13.715,660, 561, 513, 0, -3, 1, -14, 27, -14, 891, 701, 389,∑
2025-03-12 12:19:13.770,680, 546, 505, 4, -4, 1, -16, 27, -14, 892, 708, 380,∑
2025-03-12 12:19:13.823,645, 585, 519, 4, -6, 4, -16, 29, -14, 895, 722, 405,∑
2025-03-12 12:19:13.881,706, 555, 471, 5, -8, 3, -17, 27, -14, 902, 745, 502,∑
2025-03-12 12:19:13.940,647, 552, 545, 0, -5, -1, -18, 28, -14, 905, 745, 478,∑
2025-03-12 12:19:13.999,702, 560, 445, -2, -5, -1, -16, 26, -11, 905, 725, 408,∑
2025-03-12 12:19:14.050,695, 581, 462, -3, 2, -5, -15, 28, -11, 907, 715, 413,∑
2025-03-12 12:19:14.114,651, 578, 527, 7, -6, -2, -16, 28, -13, 906, 730, 426,∑
2025-03-12 12:19:14.170,732, 596, 333, 1, -3, 3, -15, 26, -12, 928, 785, 520,∑
2025-03-12 12:19:14.229,665, 565, 541, -7, -4, -3, -16, 27, -13, 933, 801, 510,∑
2025-03-12 12:19:14.282,620, 572, 521, -3, 1, -3, -16, 27, -13, 941, 807, 432,∑
2025-03-12 12:19:14.340,669, 538, 479, 22, -21, -5, -16, 28, -13, 941, 839, 327,∑
2025-03-12 12:19:14.400,919, 778, 824, 9, -46, 6, -16, 27, -11, 975, 939, 418,∑
2025-03-12 12:19:14.450,349, 572, 552, 16, -1, 17, -16, 25, -9, 981, 937, 592,∑
2025-03-12 12:19:14.516,672, 477, 359, 14, 21, -28, -17, 27, -9, 957, 872, 718,∑
2025-03-12 12:19:14.573,1210, 465, 393, -25, -3, -16, -17, 27, -9, 960, 862, 500,∑
2025-03-12 12:19:14.633,634, 576, 475, -21, 10, 40, -17, 25, -11, 980, 936, 593,∑
2025-03-12 12:19:14.690,664, 641, 456, 16, 7, 9, -17, 27, -11, 980, 925, 561,∑
2025-03-12 12:19:14.749,384, 549, 508, 6, 9, -28, -17, 26, -11, 964, 788, 199,∑
2025-03-12 12:19:14.810,1049, 791, 452, -50, 4, 43, -18, 27, -11, 982, 932, 270,∑
2025-03-12 12:19:14.864,614, 437, 413, 5, 8, 20, -16, 27, -14, 984, 939, 265,∑
2025-03-12 12:19:14.923,810, 546, 43, -28, 60, -62, -16, 27, -14, 956, 773, 636,∑
2025-03-12 12:19:15.210,661, 586, 500, -6, -1, -1, -14, 26, -12, 930, 680, 358,∏
2025-03-12 12:19:15.270,657, 578, 501, -5, -1, 0, -16, 27, -14, 929, 678, 361,∏
2025-03-12 12:19:15.320,657, 548, 558, 0, -3, 5, -15, 26, -15, 928, 622, 341,∏
2025-03-12 12:19:15.380,757, 554, 455, 7, -8, 3, -15, 28, -15, 922, 623, 407,∏
2025-03-12 12:19:15.440,689, 566, 491, -2, -1, -1, -15, 27, -15, 926, 661, 466,∏
2025-03-12 12:19:15.498,684, 566, 483, -5, -5, 1, -16, 28, -14, 933, 702, 524,∏
2025-03-12 12:19:15.552,707, 571, 442, 2, -3, 0, -17, 28, -14, 938, 734, 552,∏
2025-03-12 12:19:15.610,703, 582, 459, -1, -2, 0, -16, 27, -15, 939, 746, 566,∏
2025-03-12 12:19:15.667,675, 552, 501, 0, -4, -1, -16, 28, -14, 941, 757, 572,∏
2025-03-12 12:19:15.720,738, 582, 436, 0, -6, -2, -16, 27, -14, 941, 767, 587,∏
2025-03-12 12:19:15.781,693, 570, 463, -6, 3, -3, -15, 28, -12, 942, 769, 576,∏
2025-03-12 12:19:15.833,695, 564, 435, -8, -3, -8, -16, 26, -12, 944, 784, 534,∏
2025-03-12 12:19:15.899,588, 568, 536, 5, -10, -9, -18, 26, -12, 944, 785, 531,∏
2025-03-12 12:19:15.950,788, 698, 561, 4, -37, 1, -16, 25, -14, 953, 851, 330,∏
2025-03-12 12:19:16.014,817, 897, -289, -40, -17, 69, -17, 25, -10, 985, 949, 497,∏
2025-03-12 12:19:16.070,615, 6, 548, 44, -12, 4, -17, 28, -11, 984, 919, 556,∏
2025-03-12 12:19:16.131,720, 400, 162, -13, 45, -43, -17, 28, -12, 963, 818, 731,∏
2025-03-12 12:19:16.190,712, 841, 809, 5, -22, 24, -17, 24, -13, 950, 787, 701,∏
2025-03-12 12:19:16.248,645, 570, 318, 10, 2, 7, -16, 25, -11, 981, 904, 599,∏
2025-03-12 12:19:16.300,529, 456, 484, 1, 19, 7, -16, 27, -12, 977, 863, 283,∏
2025-03-12 12:19:16.362,901, 490, 456, -37, 8, -7, -16, 28, -11, 934, 813, 454,∏
2025-03-12 12:19:16.420,569, 717, 717, -21, -30, 13, -16, 28, -12, 962, 886, 593,∏
2025-03-12 12:19:16.481,721, 834, 433, -29, -16, 1, -16, 27, -11, 979, 937, 444,∏
2025-03-12 12:19:16.532,763, 245, 528, 22, 27, 31, -17, 28, -12, 987, 944, 178,∏
2025-03-12 12:19:16.596,803, 570, 260, 28, 23, 10, -16, 27, -13, 978, 909, 388,∏
2025-03-12 12:19:16.653,757, 513, 362, -69, 89, -60, -16, 29, -15, 940, 865, 538,∏
2025-03-12 12:19:16.714,341, 555, 896, -22, 22, -12, -12, 27, -16, 932, 795, 394,∏
2025-03-12 12:19:17.011,604, 523, 585, 6, -8, 2, -14, 27, -15, 925, 762, 382,√
2025-03-12 12:19:17.070,651, 519, 564, 5, -8, 0, -15, 29, -16, 923, 764, 383,√
2025-03-12 12:19:17.129,647, 540, 543, -1, -5, -1, -15, 28, -15, 918, 761, 398,√
2025-03-12 12:19:17.180,620, 548, 571, 1, -5, 4, -16, 26, -15, 920, 773, 387,√
2025-03-12 12:19:17.240,653, 535, 573, 5, -12, 4, -15, 26, -14, 924, 782, 378,√
2025-03-12 12:19:17.300,680, 547, 515, 7, -10, 3, -15, 28, -14, 930, 798, 475,√
2025-03-12 12:19:17.351,674, 541, 512, 3, 1, 2, -16, 27, -15, 934, 809, 509,√
2025-03-12 12:19:17.410,655, 504, 573, 19, -9, 7, -15, 28, -14, 936, 814, 539,√
2025-03-12 12:19:17.464,671, 498, 479, 14, -13, 2, -16, 28, -14, 935, 817, 554,√
2025-03-12 12:19:17.522,772, 583, 326, -5, 0, -4, -16, 28, -15, 940, 824, 588,√
2025-03-12 12:19:17.581,560, 575, 656, 3, 3, -3, -15, 28, -12, 942, 831, 563,√
2025-03-12 12:19:17.640,678, 558, 405, 17, 9, 2, -17, 28, -13, 943, 819, 533,√
2025-03-12 12:19:17.698,640, 555, 564, 25, -19, 2, -16, 28, -13, 945, 828, 525,√
2025-03-12 12:19:17.750,751, 678, 219, 13, 3, -2, -16, 27, -14, 971, 916, 399,√
2025-03-12 12:19:17.812,550, 504, 552, 17, -2, 5, -16, 27, -14, 977, 939, 594,√
2025-03-12 12:19:17.870,748, 588, 357, -13, 23, 28, -16, 27, -11, 982, 927, 358,√
2025-03-12 12:19:17.923,705, 597, 274, -65, 13, 17, -15, 29, -15, 978, 934, 11,√
2025-03-12 12:19:17.981,537, 430, 652, -37, -56, -40, -17, 27, -14, 975, 950, 366,√
2025-03-12 12:19:18.050,799, 687, 198, -1, -13, 23, -16, 27, -11, 987, 948, 443,√
2025-03-12 12:19:18.107,677, 569, 619, 29, 13, 15, -18, 28, -10, 981, 926, 645,√
2025-03-12 12:19:18.164,654, 548, 254, -39, 75, -66, -16, 27, -12, 965, 883, 731,√
2025-03-12 12:19:18.410,660, 567, 516, -5, 4, -4, -16, 28, -12, 936, 791, 608,∛
2025-03-12 12:19:18.472,653, 553, 506, -3, 1, -4, -16, 27, -12, 934, 785, 603,∛
2025-03-12 12:19:18.530,678, 612, 487, 10, -1, 2, -17, 25, -13, 932, 791, 630,∛
2025-03-12 12:19:18.582,717, 621, 449, 5, -1, 1, -17, 26, -12, 933, 798, 662,∛
2025-03-12 12:19:18.640,652, 598, 507, 10, -2, 4, -16, 26, -12, 935, 807, 671,∛
2025-03-12 12:19:18.700,710, 588, 396, -2, -1, -1, -16, 28, -14, 935, 807, 664,∛
2025-03-12 12:19:18.750,683, 564, 488, 1, -2, 2, -16, 28, -13, 940, 811, 668,∛
2025-03-12 12:19:18.812,706, 582, 416, 3, 0, 0, -18, 26, -14, 942, 812, 656,∛
2025-03-12 12:19:18.870,715, 583, 412, -1, 1, -2, -16, 28, -12, 941, 810, 635,∛
2025-03-12 12:19:18.922,654, 591, 458, -2, -1, 0, -16, 26, -12, 940, 813, 628,∛
2025-03-12 12:19:18.981,714, 527, 471, 0, -12, -11, -15, 26, -12, 945, 828, 491,∛
2025-03-12 12:19:19.040,804, 476, 500, 4, 0, -4, -17, 25, -12, 962, 888, 379,∛
2025-03-12 12:19:19.098,626, 432, 407, 32, 7, 26, -16, 28, -13, 976, 914, 626,∛
2025-03-12 12:19:19.150,767, 584, 429, -31, 33, 48, -17, 27, -13, 978, 874, 16,∛
2025-03-12 12:19:19.213,413, 108, 959, -49, -8, -9, -16, 29, -14, 971, 927, 22,∛
2025-03-12 12:19:19.278,796, 262, 466, -10, -49, -29, -18, 27, -12, 972, 948, 382,∛
2025-03-12 12:19:19.332,649, 719, 178, 8, 2, 40, -16, 26, -11, 982, 915, 470,∛
2025-03-12 12:19:19.390,728, 488, 398, 7, 6, -4, -18, 26, -11, 968, 877, 716,∛
2025-03-12 12:19:19.450,606, 607, 438, -30, 57, -85, -17, 26, -10, 945, 833, 712,∛
2025-03-12 12:19:19.500,611, 624, 561, 3, -12, 0, -16, 25, -12, 947, 846, 713,∛
2025-03-12 12:19:19.562,704, 614, 409, 0, -3, 1, -18, 26, -11, 952, 863, 723,∛
2025-03-12 12:19:19.615,683, 594, 429, 5, -8, 3, -16, 26, -13, 955, 876, 735,∛
2025-03-12 12:19:19.675,649, 626, 433, -8, -1, 0, -16, 26, -12, 955, 884, 734,∛
2025-03-12 12:19:19.732,695, 600, 408, -12, -7, -6, -16, 25, -13, 953, 872, 715,∛
2025-03-12 12:19:19.795,753, 545, 569, 26, -38, 9, -15, 26, -10, 962, 903, 685,∛
2025-03-12 12:19:19.850,575, 581, 295, -9, 1, 12, -16, 25, -10, 975, 935, 730,∛
2025-03-12 12:19:19.900,671, 531, 438, 9, 8, 5, -16, 25, -9, 975, 928, 722,∛
2025-03-12 12:19:19.962,763, 564, 434, -14, 14, 8, -17, 25, -11, 978, 930, 671,∛
2025-03-12 12:19:20.021,731, 587, 481, 2, 11, 3, -18, 26, -11, 977, 917, 628,∛
2025-03-12 12:19:20.078,910, 490, 340, -41, 48, -22, -18, 25, -12, 947, 849, 629,∛
2025-03-12 12:19:20.130,440, 552, 747, -20, 20, -12, -15, 24, -14, 927, 837, 557,∛
2025-03-12 12:19:20.423,690, 604, 443, 2, -1, 4, -16, 25, -14, 931, 795, 566,∜
2025-03-12 12:19:20.480,701, 598, 431, 1, 1, 4, -15, 25, -12, 931, 796, 560,∜
2025-03-12 12:19:20.540,644, 600, 475, 2, -2, 4, -15, 27, -15, 933, 796, 570,∜
2025-03-12 12:19:20.598,606, 614, 495, 10, -6, 7, -16, 25, -13, 932, 796, 576,∜
2025-03-12 12:19:20.650,744, 582, 407, 16, -27, 9, -16, 25, -12, 941, 825, 464,∜
2025-03-12 12:19:20.714,751, 639, 494, -12, -14, 13, -17, 25, -11, 970, 901, 523,∜
2025-03-12 12:19:20.770,472, 501, 462, 23, 20, 29, -16, 27, -11, 979, 898, 588,∜
2025-03-12 12:19:20.831,1053, 778, 235, -46, 22, 35, -16, 28, -14, 979, 861, 15,∜
2025-03-12 12:19:20.890,1076, 74, 714, 26, -63, -60, -15, 29, -13, 972, 938, 24,∜
2025-03-12 12:19:20.950,512, 331, 743, 33, -33, -9, -16, 27, -11, 980, 948, 264,∜
2025-03-12 12:19:21.000,683, 717, 395, 14, 8, 13, -17, 27, -11, 982, 930, 317,∜
2025-03-12 12:19:21.064,640, 509, 125, -25, 58, -77, -17, 26, -11, 967, 903, 621,∜
2025-03-12 12:19:21.124,636, 797, 641, 9, -26, -17, -15, 25, -13, 961, 864, 684,∜
2025-03-12 12:19:21.181,921, 644, 283, 26, -43, 9, -17, 26, -11, 970, 917, 774,∜
2025-03-12 12:19:21.240,661, 671, 394, 8, -2, -1, -16, 26, -11, 979, 938, 763,∜
2025-03-12 12:19:21.297,817, 676, 319, -2, 10, 6, -18, 25, -11, 979, 914, 606,∜
2025-03-12 12:19:21.360,778, 740, 410, -21, 0, 21, -17, 25, -11, 985, 944, 666,∜
2025-03-12 12:19:21.413,642, 577, 416, 0, 12, 8, -17, 25, -11, 981, 944, 777,∜
2025-03-12 12:19:21.470,597, 665, 667, -10, -18, -11, -16, 24, -10, 974, 922, 784,∜
2025-03-12 12:19:21.532,813, 1060, -11, -3, 31, 35, -16, 25, -10, 987, 937, 695,∜
2025-03-12 12:19:21.590,834, 415, 456, -7, 23, -2, -17, 26, -12, 975, 907, 743,∜
2025-03-12 12:19:21.860,667, 589, 468, -8, 5, -2, -15, 25, -14, 930, 776, 552,∫
2025-03-12 12:19:21.920,655, 593, 476, -7, 4, -1, -15, 25, -14, 930, 779, 552,∫
2025-03-12 12:19:21.981,653, 596, 494, -1, -3, 2, -15, 24, -14, 927, 795, 556,∫
2025-03-12 12:19:22.030,673, 599, 439, 2, 2, 3, -14, 25, -12, 921, 793, 563,∫
2025-03-12 12:19:22.090,603, 558, 524, 7, -5, 5, -15, 25, -10, 920, 784, 560,∫
2025-03-12 12:19:22.150,690, 580, 437, 14, -9, 9, -15, 24, -12, 923, 786, 570,∫
2025-03-12 12:19:22.201,712, 597, 422, -3, 1, 4, -17, 26, -13, 935, 787, 564,∫
2025-03-12 12:19:22.260,665, 570, 483, 1, 0, 4, -18, 28, -13, 947, 817, 566,∫
2025-03-12 12:19:22.316,704, 599, 407, 3, -1, 0, -16, 26, -11, 947, 817, 575,∫
2025-03-12 12:19:22.374,686, 608, 430, 7, -3, 12, -15, 28, -13, 957, 837, 694,∫
2025-03-12 12:19:22.430,699, 567, 452, -1, -2, 10, -17, 26, -13, 961, 844, 712,∫
2025-03-12 12:19:22.494,697, 565, 471, -7, -18, 18, -17, 26, -13, 969, 874, 663,∫
2025-03-12 12:19:22.551,708, 574, 510, -19, -1, -3, -17, 27, -12, 974, 922, 526,∫
2025-03-12 12:19:22.602,797, 473, 611, 24, -5, -23, -16, 27, -11, 975, 925, 415,∫
2025-03-12 12:19:22.670,879, 774, 118, 27, 36, 22, -16, 27, -12, 980, 919, 201,∫
2025-03-12 12:19:22.723,608, 754, 488, 7, 30, 13, -16, 27, -14, 976, 896, 37,∫
2025-03-12 12:19:22.780,836, 549, 389, 9, 23, -3, -16, 27, -14, 908, 773, 444,∫
2025-03-12 12:19:22.840,691, 499, 518, -59, 44, -37, -16, 27, -15, 840, 787, 364,∫
2025-03-12 12:19:23.090,672, 547, 454, -3, -6, -1, -16, 27, -13, 889, 771, 459,∮
2025-03-12 12:19:23.145,659, 543, 490, 1, -5, 0, -16, 27, -13, 887, 771, 455,∮
2025-03-12 12:19:23.200,705, 553, 476, 0, -10, 4, -17, 26, -11, 892, 779, 513,∮
2025-03-12 12:19:23.260,697, 556, 439, -6, 1, -3, -16, 27, -12, 903, 792, 549,∮
2025-03-12 12:19:23.313,680, 574, 486, 1, -5, 7, -15, 26, -12, 916, 821, 552,∮
2025-03-12 12:19:23.372,700, 567, 482, -5, -1, -3, -16, 28, -14, 924, 829, 553,∮
2025-03-12 12:19:23.430,701, 560, 449, -4, -6, 1, -17, 28, -13, 931, 848, 559,∮
2025-03-12 12:19:23.490,686, 576, 461, -2, -2, 0, -17, 27, -13, 935, 856, 586,∮
2025-03-12 12:19:23.546,712, 563, 442, 1, 0, -1, -17, 27, -13, 938, 859, 591,∮
2025-03-12 12:19:23.600,716, 577, 475, -2, -4, -1, -17, 26, -11, 939, 857, 589,∮
2025-03-12 12:19:23.662,690, 580, 491, -5, -6, 3, -15, 27, -13, 945, 867, 581,∮
2025-03-12 12:19:23.712,639, 548, 583, 0, -27, 6, -16, 28, -12, 953, 891, 546,∮
2025-03-12 12:19:23.773,859, 435, 505, 2, -17, -21, -17, 28, -11, 961, 916, 202,∮
2025-03-12 12:19:23.830,867, 649, 229, 62, 16, -4, -17, 27, -10, 975, 907, 17,∮
2025-03-12 12:19:23.890,635, 525, 422, -47, 39, 49, -18, 27, -11, 973, 913, 20,∮
2025-03-12 12:19:23.950,592, 578, 560, -7, -27, -40, -17, 28, -12, 943, 901, 521,∮
2025-03-12 12:19:24.010,766, 715, 225, 18, -12, 7, -16, 26, -11, 972, 932, 578,∮
2025-03-12 12:19:24.070,512, 560, 470, -4, 17, 29, -17, 26, -10, 982, 931, 322,∮
2025-03-12 12:19:24.122,348, 599, 78, -12, 26, 1, -16, 28, -11, 971, 882, 22,∮
2025-03-12 12:19:24.180,879, 562, 440, -28, -7, -50, -15, 28, -13, 897, 837, 354,∮
2025-03-12 12:19:24.240,511, 530, 712, 26, -56, 2, -16, 27, -12, 935, 898, 655,∮
2025-03-12 12:19:24.300,1120, 977, 393, -6, 1, 24, -17, 25, -12, 980, 931, 611,∮
2025-03-12 12:19:24.361,964, 610, 149, -36, 58, 48, -17, 27, -12, 982, 920, 17,∮
2025-03-12 12:19:24.413,870, 474, 406, 16, 31, 2, -15, 28, -13, 920, 775, 27,∮
2025-03-12 12:19:24.477,843, 486, 389, -31, 58, -69, -14, 28, -15, 735, 724, 396,∮
2025-03-12 12:19:24.530,293, 730, 824, -20, 18, -11, -14, 26, -17, 777, 623, 380,∮
2025-03-12 12:19:24.796,602, 573, 605, 10, -14, 7, -13, 27, -15, 829, 604, 176,∂
2025-03-12 12:19:24.850,607, 570, 569, 10, -14, 7, -12, 26, -16, 834, 611, 180,∂
2025-03-12 12:19:24.910,683, 567, 518, 6, -9, 0, -15, 27, -15, 807, 602, 302,∂
2025-03-12 12:19:24.962,608, 565, 567, 2, -2, 1, -15, 26, -15, 837, 617, 360,∂
2025-03-12 12:19:25.020,633, 563, 538, 6, -10, 5, -14, 25, -16, 864, 635, 374,∂
2025-03-12 12:19:25.083,652, 551, 544, 6, -11, 7, -16, 28, -15, 894, 678, 374,∂
2025-03-12 12:19:25.140,658, 568, 497, 12, -16, 6, -16, 25, -15, 909, 709, 401,∂
2025-03-12 12:19:25.195,715, 553, 466, -1, -6, 1, -17, 29, -12, 910, 736, 444,∂
2025-03-12 12:19:25.250,680, 569, 499, 0, -5, 4, -17, 28, -14, 920, 770, 506,∂
2025-03-12 12:19:25.312,679, 576, 466, -1, -3, 0, -15, 28, -14, 926, 793, 517,∂
2025-03-12 12:19:25.369,684, 562, 491, -5, -3, -5, -16, 27, -13, 928, 809, 526,∂
2025-03-12 12:19:25.427,714, 574, 465, -1, -3, 0, -15, 29, -13, 933, 817, 520,∂
2025-03-12 12:19:25.480,682, 583, 485, 5, 1, 3, -15, 27, -12, 933, 819, 544,∂
2025-03-12 12:19:25.531,637, 555, 501, 6, -9, 3, -16, 27, -13, 938, 834, 589,∂
2025-03-12 12:19:25.595,805, 567, 477, -1, -6, 6, -16, 28, -14, 944, 835, 604,∂
2025-03-12 12:19:25.650,617, 533, 549, 20, -8, -3, -15, 27, -14, 948, 838, 605,∂
2025-03-12 12:19:25.713,645, 597, 468, 14, -23, -12, -18, 26, -12, 944, 848, 597,∂
2025-03-12 12:19:25.770,998, 564, 510, 28, -16, 4, -17, 26, -11, 970, 919, 653,∂
2025-03-12 12:19:25.828,607, 358, 605, 33, 23, 14, -17, 26, -13, 981, 922, 624,∂
2025-03-12 12:19:25.890,878, 661, 256, -16, 21, -6, -15, 28, -12, 972, 899, 342,∂
2025-03-12 12:19:25.950,1111, 664, 1020, 0, -57, -8, -15, 28, -12, 978, 951, 318,∂
2025-03-12 12:19:26.000,458, 564, 298, 28, -9, -1, -16, 28, -10, 984, 951, 305,∂
2025-03-12 12:19:26.063,919, 356, 204, -20, 44, -50, -16, 28, -11, 966, 904, 587,∂
2025-03-12 12:19:26.330,648, 607, 508, -9, -4, 2, -16, 27, -14, 921, 700, 386,∇
2025-03-12 12:19:26.380,652, 585, 502, -9, -5, 3, -15, 25, -14, 923, 703, 383,∇
2025-03-12 12:19:26.443,663, 553, 534, 8, -9, 7, -15, 25, -14, 925, 740, 511,∇
2025-03-12 12:19:26.500,708, 553, 461, 12, -11, 7, -15, 27, -15, 931, 775, 632,∇
2025-03-12 12:19:26.550,676, 570, 435, -1, 2, 0, -16, 28, -14, 937, 792, 647,∇
2025-03-12 12:19:26.613,661, 572, 536, 1, -13, 7, -16, 27, -13, 950, 830, 663,∇
2025-03-12 12:19:26.670,734, 554, 413, 6, -11, 5, -16, 27, -13, 956, 853, 671,∇
2025-03-12 12:19:26.728,712, 566, 456, 1, 2, 1, -14, 26, -13, 960, 864, 668,∇
2025-03-12 12:19:26.781,659, 587, 467, -4, -4, -1, -16, 27, -12, 962, 864, 659,∇
2025-03-12 12:19:26.844,695, 510, 526, 3, -7, 3, -16, 28, -11, 962, 867, 631,∇
2025-03-12 12:19:26.900,752, 596, 399, -2, -6, -5, -16, 27, -12, 961, 856, 587,∇
2025-03-12 12:19:26.950,692, 568, 457, -3, -2, -7, -16, 28, -13, 961, 869, 533,∇
2025-03-12 12:19:27.012,608, 568, 537, 1, 5, -4, -17, 26, -13, 962, 854, 525,∇
2025-03-12 12:19:27.073,627, 479, 436, 10, -15, -6, -15, 26, -13, 959, 862, 519,∇
2025-03-12 12:19:27.130,700, 577, 405, 3, -10, -9, -15, 25, -10, 973, 927, 171,∇
2025-03-12 12:19:27.190,734, 524, 424, -26, -5, 39, -17, 26, -11, 982, 936, 410,∇
2025-03-12 12:19:27.250,566, 581, 553, 30, -10, 4, -15, 29, -11, 984, 921, 446,∇
2025-03-12 12:19:27.300,753, 782, -108, -29, 63, 18, -16, 27, -10, 983, 911, 20,∇
2025-03-12 12:19:27.364,817, 104, 746, -14, 14, -65, -16, 29, -12, 958, 845, 316,∇
2025-03-12 12:19:27.429,767, 666, 493, -8, -46, 11, -16, 25, -13, 954, 871, 504,∇
2025-03-12 12:19:27.480,730, 673, 188, 0, 1, 35, -16, 28, -13, 985, 939, 354,∇
2025-03-12 12:19:27.540,490, 380, 232, 3, 38, 47, -16, 31, -13, 984, 925, 16,∇
2025-03-12 12:19:27.600,772, 442, 189, -34, 44, -75, -16, 29, -15, 956, 816, 319,∇
2025-03-12 12:19:27.660,465, 631, 870, -26, 41, -31, -16, 28, -17, 889, 750, 350,∇
2025-03-12 12:19:27.950,710, 547, 473, 7, -15, 1, -14, 27, -15, 897, 717, 425,∆
2025-03-12 12:19:28.000,707, 545, 497, 5, -14, 0, -15, 28, -14, 899, 720, 423,∆
2025-03-12 12:19:28.061,678, 593, 481, 6, -11, 1, -15, 28, -13, 902, 728, 430,∆
2025-03-12 12:19:28.120,706, 553, 472, 10, -21, 3, -16, 27, -13, 911, 765, 496,∆
2025-03-12 12:19:28.177,721, 558, 433, -7, -7, -2, -16, 27, -13, 925, 799, 520,∆
2025-03-12 12:19:28.230,631, 569, 534, 7, -12, 5, -16, 28, -13, 937, 827, 548,∆
2025-03-12 12:19:28.294,758, 568, 361, -1, -9, 4, -16, 26, -10, 948, 847, 481,∆
2025-03-12 12:19:28.350,708, 542, 432, -2, -3, -5, -16, 26, -11, 962, 886, 465,∆
2025-03-12 12:19:28.400,680, 533, 518, 0, -9, -2, -17, 28, -13, 968, 913, 409,∆
2025-03-12 12:19:28.462,-68, 571, 263, 25, 28, -4, -17, 26, -10, 970, 867, 31,∆
2025-03-12 12:19:28.521,743, 570, 333, -2, 9, -2, -17, 27, -13, 975, 885, 28,∆
2025-03-12 12:19:28.580,1004, 536, 274, -29, -14, 48, -16, 29, -13, 986, 953, 11,∆
2025-03-12 12:19:28.630,682, 436, 389, 30, 6, 8, -17, 30, -12, 981, 934, 260,∆
2025-03-12 12:19:28.700,543, 418, 224, -36, 22, -101, -16, 28, -13, 953, 862, 607,∆
2025-03-12 12:19:28.750,753, 489, 555, 2, -49, 21, -17, 26, -11, 967, 912, 624,∆
2025-03-12 12:19:28.813,974, 879, 355, -20, 48, 91, -16, 27, -13, 985, 942, 98,∆
2025-03-12 12:19:28.871,597, 540, 428, 8, 19, 23, -16, 31, -13, 980, 901, 17,∆
2025-03-12 12:19:28.930,842, 485, 247, -15, 73, -79, -16, 29, -14, 911, 816, 413,∆
2025-03-12 12:19:28.990,353, 587, 849, -8, 7, -5, -13, 27, -17, 904, 765, 398,∆
2025-03-12 12:19:29.260,647, 541, 543, 3, -7, 2, -15, 28, -16, 899, 661, 351,π
2025-03-12 12:19:29.311,654, 532, 549, 6, -8, 1, -14, 26, -18, 900, 666, 359,π
2025-03-12 12:19:29.370,663, 547, 522, 7, -9, -5, -16, 28, -16, 889, 639, 396,π
2025-03-12 12:19:29.430,643, 587, 529, 1, -5, 0, -13, 27, -16, 895, 621, 429,π
2025-03-12 12:19:29.490,669, 570, 514, 14, -14, 1, -15, 28, -14, 903, 644, 439,π
2025-03-12 12:19:29.544,703, 578, 470, 9, -12, -6, -16, 28, -14, 921, 657, 486,π
2025-03-12 12:19:29.609,715, 609, 411, 13, -8, -23, -16, 26, -14, 917, 631, 533,π
2025-03-12 12:19:29.662,572, 673, 545, 27, -22, -48, -15, 25, -13, 920, 595, 544,π
2025-03-12 12:19:29.728,570, 789, 383, 23, -28, -9, -15, 23, -12, 932, 616, 592,π
2025-03-12 12:19:29.780,596, 686, 392, -8, -8, 49, -18, 22, -11, 948, 739, 638,π
2025-03-12 12:19:29.842,739, 570, 296, -5, -4, 18, -16, 24, -11, 955, 814, 667,π
2025-03-12 12:19:29.894,676, 595, 449, -18, 1, -9, -17, 25, -11, 956, 843, 656,π
2025-03-12 12:19:29.961,689, 632, 411, -2, -11, 1, -16, 23, -11, 952, 846, 593,π
2025-03-12 12:19:30.018,870, 526, 518, 2, -5, -15, -15, 25, -12, 961, 881, 397,π
2025-03-12 12:19:30.080,1011, 1146, 59, -51, -31, 54, -15, 26, -9, 981, 944, 510,π
2025-03-12 12:19:30.130,533, 470, 453, 19, 4, 26, -17, 26, -10, 985, 926, 476,π
2025-03-12 12:19:30.194,605, 513, 186, 3, 29, -56, -17, 28, -10, 963, 874, 710,π
2025-03-12 12:19:30.250,750, 622, 580, -2, -18, 20, -17, 27, -11, 963, 865, 682,π
2025-03-12 12:19:30.311,651, 708, 286, -36, 21, 29, -16, 27, -10, 982, 919, 196,π
2025-03-12 12:19:30.361,954, 464, 410, 1, 19, 3, -17, 29, -13, 966, 846, 18,π
2025-03-12 12:19:30.428,814, 561, 502, -18, -11, -21, -16, 26, -13, 962, 879, 369,π
2025-03-12 12:19:30.490,803, -454, 377, -26, -23, -21, -17, 26, -11, 979, 924, 347,π
2025-03-12 12:19:30.544,828, 394, 377, 1, 33, 32, -17, 27, -10, 986, 921, 19,π
2025-03-12 12:19:30.600,739, 462, 288, -11, 18, 23, -16, 27, -12, 986, 940, 17,π
2025-03-12 12:19:30.661,954, 312, 241, 35, 0, -24, -17, 27, -11, 971, 893, 472,π
2025-03-12 12:19:30.721,531, 571, 801, -27, 51, -32, -15, 27, -13, 960, 784, 494,π
2025-03-12 12:19:31.020,664, 605, 485, 6, -6, -24, -16, 26, -14, 905, 553, 494,θ
2025-03-12 12:19:31.080,652, 604, 476, 6, -6, -24, -16, 25, -14, 902, 525, 489,θ
2025-03-12 12:19:31.140,625, 584, 537, 11, -5, -8, -16, 25, -14, 904, 548, 609,θ
2025-03-12 12:19:31.198,705, 607, 428, 26, -7, -16, -14, 23, -12, 903, 528, 682,θ
2025-03-12 12:19:31.250,658, 664, 430, 2, 0, -32, -16, 22, -13, 909, 540, 713,θ
2025-03-12 12:19:31.315,669, 758, 383, 9, -1, -37, -16, 21, -14, 906, 561, 724,θ
2025-03-12 12:19:31.370,438, 700, 491, 4, 11, -7, -16, 20, -14, 912, 594, 717,θ
2025-03-12 12:19:31.428,419, 738, 380, -3, 7, 58, -16, 20, -14, 909, 639, 704,θ
