Timestamp,Acc_X,Acc_Y,Acc_Z,Gyro_X,Gyro_Y,Gyro_Z,Mag_X,Mag_Y,Mag_Z,Force1,Force2,Force3,Letter
2025-03-12 13:52:24.630,596, 570, 598, -2, 0, 1, 1, 5, -5, 790, 632, 446,noise
2025-03-12 13:52:24.686,599, 560, 602, -2, 0, 0, -2, 3, -2, 792, 628, 436,noise
2025-03-12 13:52:24.736,578, 566, 605, -1, -1, -3, 5, 3, 0, 791, 629, 437,noise
2025-03-12 13:52:24.789,570, 579, 610, -3, 0, -4, 0, 4, -2, 790, 627, 440,noise
2025-03-12 13:52:24.848,556, 582, 625, 1, -3, 0, 2, 2, -2, 791, 634, 452,noise
2025-03-12 13:52:24.899,602, 581, 571, -1, -3, -2, 3, 3, 0, 792, 623, 439,noise
2025-03-12 13:52:24.949,598, 588, 585, -9, 5, -7, 0, 4, -1, 794, 632, 455,noise
2025-03-12 13:52:25.006,544, 583, 630, -6, 4, -3, 0, 3, -1, 796, 624, 443,noise
2025-03-12 13:52:25.057,562, 577, 619, -3, 1, -2, 1, 2, 0, 802, 636, 454,noise
2025-03-12 13:52:25.109,560, 578, 622, 0, -2, 1, -1, 4, -2, 808, 645, 450,noise
2025-03-12 13:52:25.163,601, 560, 601, 0, -2, -5, 3, 0, 2, 824, 649, 446,noise
2025-03-12 13:52:25.216,570, 580, 615, 1, -8, -11, 0, 4, -2, 823, 661, 445,noise
2025-03-12 13:52:25.266,604, 546, 652, 16, -36, -29, 1, 2, 2, 827, 677, 433,noise
2025-03-12 13:52:25.327,561, 640, 520, 12, -33, -25, 1, -1, 0, 840, 686, 461,noise
2025-03-12 13:52:25.382,537, 700, 479, -1, -20, -15, 0, -1, 1, 859, 691, 471,noise
2025-03-12 13:52:25.437,520, 637, 506, -3, -4, 4, -1, 1, 1, 875, 724, 475,noise
2025-03-12 13:52:25.491,544, 651, 561, 0, -2, 23, -1, -1, 2, 877, 718, 497,noise
2025-03-12 13:52:25.537,624, 583, 549, 9, -8, 18, 0, -1, 2, 874, 669, 501,noise
2025-03-12 13:52:25.598,631, 631, 481, 5, -8, 7, -1, 0, 3, 873, 671, 504,noise
2025-03-12 13:52:25.649,655, 618, 465, -3, -1, -2, -2, 3, 5, 869, 678, 506,noise
2025-03-12 13:52:26.013,580, 594, 361, -7, 10, 11, -4, 0, 5, 869, 710, 522,A
2025-03-12 13:52:26.067,562, 584, 392, -8, 8, 15, -4, 4, 7, 872, 711, 520,A
2025-03-12 13:52:26.117,646, 576, 445, -5, 3, 25, -3, 2, 5, 881, 711, 539,A
2025-03-12 13:52:26.173,766, 703, 286, -22, 24, -8, 1, 4, 3, 905, 738, 547,A
2025-03-12 13:52:26.228,651, 633, 532, -5, 6, 2, -3, 2, 5, 921, 787, 560,A
2025-03-12 13:52:26.277,607, 561, 523, -8, 3, 2, -3, 3, 5, 933, 808, 600,A
2025-03-12 13:52:26.330,678, 588, 463, -16, -1, 9, -1, 4, 5, 941, 829, 623,A
2025-03-12 13:52:26.380,673, 615, 461, -10, 5, 5, -3, 3, 4, 946, 854, 656,A
2025-03-12 13:52:26.437,642, 594, 526, -15, 2, 9, -1, 1, 8, 952, 872, 656,A
2025-03-12 13:52:26.487,672, 557, 502, -12, -4, 9, -3, 4, 3, 950, 886, 660,A
2025-03-12 13:52:26.547,676, 567, 506, -5, -3, 11, -3, 9, -1, 956, 901, 673,A
2025-03-12 13:52:26.597,677, 538, 484, -1, -3, 7, -4, 4, 5, 955, 906, 686,A
2025-03-12 13:52:26.647,678, 550, 503, -5, 2, 4, -3, 7, 4, 955, 908, 691,A
2025-03-12 13:52:26.707,704, 490, 478, -10, -1, -3, -3, 4, 5, 953, 910, 693,A
2025-03-12 13:52:26.757,638, 491, 633, -9, -12, 0, -1, 7, 1, 959, 922, 687,A
2025-03-12 13:52:26.813,929, 570, 639, 67, 3, -9, -3, 5, 6, 964, 909, 559,A
2025-03-12 13:52:26.866,932, 799, 297, 12, 41, 31, -2, 4, 5, 960, 897, 276,A
2025-03-12 13:52:26.922,667, 119, 559, -29, -21, -39, -1, 6, 5, 950, 897, 495,A
2025-03-12 13:52:26.980,805, 405, 739, 5, -20, -7, -1, 4, 6, 958, 924, 623,A
2025-03-12 13:52:27.031,666, 578, 300, 7, 28, 35, -2, 4, 5, 961, 920, 547,A
2025-03-12 13:52:27.086,570, 431, 619, -8, 29, -5, -3, 5, 3, 953, 896, 363,A
2025-03-12 13:52:27.137,827, 706, 468, -37, -7, -3, -3, 6, 4, 953, 913, 55,A
2025-03-12 13:52:27.195,735, 750, 457, 7, 6, 26, -4, 8, 2, 961, 929, 559,A
2025-03-12 13:52:27.246,686, 501, 401, -16, 85, -56, -3, 4, 3, 952, 917, 644,A
2025-03-12 13:52:27.296,405, 665, 761, -7, 9, -33, -2, 4, 0, 933, 866, 628,A
2025-03-12 13:52:27.357,632, 518, 605, 12, -43, 14, -1, 3, 1, 934, 850, 610,A
2025-03-12 13:52:27.411,764, 557, 414, 1, -10, 3, -5, 6, 2, 933, 854, 637,A
2025-03-12 13:52:27.464,610, 562, 552, -3, 8, 4, -1, 5, 3, 931, 851, 652,A
2025-03-12 13:52:27.514,673, 551, 522, 4, 2, 5, 3, 4, 5, 932, 843, 648,A
2025-03-12 13:52:27.742,657, 558, 539, -4, 1, -3, -1, 4, 3, 918, 797, 645,B
2025-03-12 13:52:27.796,644, 562, 546, -4, 1, -2, 0, 4, 6, 917, 798, 648,B
2025-03-12 13:52:27.848,647, 561, 520, -3, 3, -1, -1, 4, 1, 916, 790, 611,B
2025-03-12 13:52:27.896,647, 555, 553, -2, 1, 1, -1, 5, 3, 915, 786, 598,B
2025-03-12 13:52:27.956,651, 544, 532, -3, -1, 0, -3, 6, 2, 914, 789, 584,B
2025-03-12 13:52:28.006,652, 539, 544, -2, 1, -1, -1, 5, 1, 908, 782, 574,B
2025-03-12 13:52:28.063,663, 555, 536, -1, 0, -1, -2, 6, 2, 901, 770, 566,B
2025-03-12 13:52:28.114,649, 554, 539, -4, 0, -1, -1, 4, 4, 902, 770, 555,B
2025-03-12 13:52:28.164,648, 563, 540, -2, -1, 0, -2, 3, 2, 900, 777, 560,B
2025-03-12 13:52:28.217,637, 556, 561, -2, -8, 2, -4, 1, 9, 901, 778, 560,B
2025-03-12 13:52:28.266,689, 538, 504, -3, -10, 1, -1, 5, 2, 905, 798, 577,B
2025-03-12 13:52:28.329,636, 547, 549, -7, -17, 1, -1, 5, 3, 917, 837, 621,B
2025-03-12 13:52:28.381,690, 537, 507, -6, -29, 3, -3, 5, 5, 931, 886, 645,B
2025-03-12 13:52:28.436,680, 412, 745, 14, -17, -11, -4, 6, 4, 956, 916, 596,B
2025-03-12 13:52:28.487,521, 597, 257, 19, 39, 49, -3, 6, 5, 966, 923, 441,B
2025-03-12 13:52:28.547,697, 216, 691, -28, 13, -11, -4, 5, 6, 961, 924, 586,B
2025-03-12 13:52:28.607,750, 520, 542, -23, -28, -16, -3, 5, 5, 963, 933, 711,B
2025-03-12 13:52:28.657,612, 655, 504, 8, -7, 2, -4, 5, 5, 967, 940, 727,B
2025-03-12 13:52:28.707,667, 604, 364, 10, 13, 22, -3, 8, 6, 970, 940, 666,B
2025-03-12 13:52:28.767,723, 730, 529, -8, 22, 14, -3, 4, 5, 968, 938, 603,B
2025-03-12 13:52:28.820,636, 564, 450, 16, 11, 5, -1, 6, 4, 970, 930, 619,B
2025-03-12 13:52:28.871,803, 529, 411, 2, 25, -31, -3, 6, 2, 946, 889, 643,B
2025-03-12 13:52:28.927,594, 501, 662, -32, 18, -24, -1, 3, 5, 938, 877, 608,B
2025-03-12 13:52:29.207,707, 512, 509, -7, -5, 3, 1, 3, 5, 941, 881, 611,C
2025-03-12 13:52:29.263,713, 515, 515, -6, -5, 4, 1, 3, 5, 943, 885, 611,C
2025-03-12 13:52:29.312,669, 525, 534, -5, -6, 3, -3, 6, 3, 943, 894, 625,C
2025-03-12 13:52:29.367,670, 522, 546, -5, -16, 1, -2, 3, 5, 942, 901, 643,C
2025-03-12 13:52:29.422,694, 500, 526, -9, -9, -4, -3, 5, 3, 943, 913, 615,C
2025-03-12 13:52:29.480,586, 444, 547, 5, -4, -12, -5, 6, 4, 951, 916, 376,C
2025-03-12 13:52:29.533,829, 852, 278, 47, 23, 23, -3, 6, 4, 964, 914, 331,C
2025-03-12 13:52:29.586,700, 654, 548, -8, 26, 35, -5, 7, 2, 963, 930, 486,C
2025-03-12 13:52:29.644,744, 490, 325, -27, 41, -38, -3, 6, 2, 954, 918, 662,C
2025-03-12 13:52:29.696,496, 538, 739, -37, 26, -29, -1, 6, 1, 944, 898, 538,C
2025-03-12 13:52:29.750,593, 504, 625, 4, -16, 6, -4, 7, -1, 940, 886, 463,C
2025-03-12 13:52:29.803,705, 519, 504, -4, -4, 0, -2, 4, 1, 941, 880, 411,C
2025-03-12 13:52:29.857,635, 520, 584, -2, -2, 2, -1, 3, 4, 947, 882, 415,C
2025-03-12 13:52:29.911,668, 537, 545, 1, -2, 3, 0, 6, 2, 938, 883, 482,C
2025-03-12 13:52:29.964,666, 507, 570, -2, 0, -1, -1, 6, 1, 941, 884, 495,C
2025-03-12 13:52:30.013,650, 535, 569, 0, -2, 0, -3, 6, 2, 942, 884, 483,C
2025-03-12 13:52:30.066,662, 527, 560, 0, -3, 1, -2, 5, 1, 939, 885, 493,C
2025-03-12 13:52:30.117,666, 516, 553, 1, 0, 1, -2, 6, 2, 938, 884, 510,C
2025-03-12 13:52:30.167,666, 523, 567, 0, 0, -2, -2, 5, 0, 941, 884, 527,C
2025-03-12 13:52:30.217,662, 524, 555, -1, -1, 0, -3, 5, 1, 939, 884, 546,C
2025-03-12 13:52:30.266,673, 523, 551, -3, 1, -2, -2, 6, 2, 940, 885, 553,C
2025-03-12 13:52:30.328,658, 518, 566, 0, 0, -1, -1, 8, 1, 942, 888, 552,C
2025-03-12 13:52:30.588,583, 669, 669, 44, -3, -42, -3, 4, -1, 44, 359, 262,D
2025-03-12 13:52:30.647,554, 682, 645, 55, -5, -37, -3, 4, -1, 45, 293, 267,D
2025-03-12 13:52:30.697,622, 699, 544, -7, -25, 6, -1, 2, 2, 49, 317, 369,D
2025-03-12 13:52:30.756,543, 627, 415, 47, -37, 20, -1, 0, 0, 239, 553, 534,D
2025-03-12 13:52:30.811,505, 452, 270, -9, -12, 79, -3, 2, 4, 892, 693, 698,D
2025-03-12 13:52:30.867,758, 479, 479, -17, -14, 42, -5, 2, 7, 924, 826, 721,D
2025-03-12 13:52:30.922,555, 472, 95, -56, 45, -5, -3, 6, 5, 941, 883, 712,D
2025-03-12 13:52:30.979,709, 629, 701, -20, 2, -12, -4, 7, 1, 947, 900, 730,D
2025-03-12 13:52:31.036,632, 524, 578, -11, -35, -11, -3, 5, 5, 948, 900, 738,D
2025-03-12 13:52:31.086,865, 258, 482, 11, -12, -17, -3, 6, 4, 956, 917, 749,D
2025-03-12 13:52:31.147,782, 483, 503, 14, 45, 44, -3, 7, 5, 962, 915, 713,D
2025-03-12 13:52:31.197,681, 176, 519, -38, 5, -28, -3, 7, 2, 958, 911, 697,D
2025-03-12 13:52:31.257,985, 276, 527, -26, -30, -21, -2, 7, 3, 961, 928, 750,D
2025-03-12 13:52:31.310,393, 708, 454, 32, 0, 14, -3, 6, 5, 969, 934, 719,D
2025-03-12 13:52:31.364,886, 466, 84, 7, 33, 16, -3, 7, 4, 964, 920, 637,D
2025-03-12 13:52:31.417,935, 365, 364, -34, 43, -56, 0, 6, 3, 957, 900, 702,D
2025-03-12 13:52:31.471,467, 629, 698, -27, 22, -39, 0, 6, 1, 947, 896, 691,D
2025-03-12 13:52:31.528,484, 582, 670, 12, -27, 15, -1, 6, -1, 938, 883, 684,D
2025-03-12 13:52:31.581,800, 469, 395, 4, -11, 10, 0, 6, 0, 937, 856, 669,D
2025-03-12 13:52:31.631,660, 550, 549, -8, 11, -1, -2, 5, 2, 933, 845, 667,D
2025-03-12 13:52:31.896,655, 560, 565, -6, 5, 0, -2, 5, 1, 917, 774, 626,E
2025-03-12 13:52:31.949,649, 538, 567, -5, 4, 1, 0, 5, -1, 918, 777, 624,E
2025-03-12 13:52:31.998,663, 532, 552, 0, 1, 0, -2, 5, 2, 916, 775, 626,E
2025-03-12 13:52:32.057,661, 561, 550, -2, 3, -2, -1, 5, 1, 913, 767, 611,E
2025-03-12 13:52:32.106,652, 540, 548, 3, 1, -4, -1, 6, 0, 910, 758, 589,E
2025-03-12 13:52:32.163,654, 537, 564, 5, 7, -10, -3, 5, 1, 904, 756, 587,E
2025-03-12 13:52:32.217,677, 611, 556, 3, 1, -15, -1, 7, -1, 902, 746, 607,E
2025-03-12 13:52:32.267,678, 607, 617, 1, -3, -20, 0, 2, 5, 901, 761, 627,E
2025-03-12 13:52:32.321,540, 585, 539, 15, -15, 2, 0, 3, 1, 909, 786, 617,E
2025-03-12 13:52:32.372,459, 452, 382, 10, -55, 37, 2, 2, 1, 918, 806, 541,E
2025-03-12 13:52:32.429,663, 490, 408, -3, -36, 50, -4, 4, 3, 923, 827, 521,E
2025-03-12 13:52:32.480,633, 617, 66, -38, 45, 5, -5, 6, 4, 933, 853, 532,E
2025-03-12 13:52:32.531,849, 640, 596, 11, 6, -8, -1, 4, 3, 934, 864, 604,E
2025-03-12 13:52:32.586,623, 535, 593, 5, -8, 2, -2, 4, 2, 934, 862, 566,E
2025-03-12 13:52:32.646,634, 497, 532, -7, -15, -1, -3, 6, 1, 936, 868, 584,E
2025-03-12 13:52:32.698,683, 566, 560, -13, -28, 1, -2, 6, 2, 941, 893, 608,E
2025-03-12 13:52:32.753,753, 376, 520, 9, -13, -11, -3, 7, 5, 953, 910, 490,E
2025-03-12 13:52:32.810,872, 589, 387, 20, 31, 41, -4, 5, 6, 962, 909, 155,E
2025-03-12 13:52:32.862,683, 200, 630, -46, 0, -39, -2, 7, 4, 957, 905, 149,E
2025-03-12 13:52:32.917,914, 283, 333, -3, -15, -21, -2, 7, 2, 958, 927, 394,E
2025-03-12 13:52:32.971,733, 809, 395, 10, 6, 28, -5, 7, 4, 965, 939, 561,E
2025-03-12 13:52:33.026,436, 475, 590, 9, 36, -14, -4, 7, 1, 956, 917, 493,E
2025-03-12 13:52:33.079,956, 178, -43, 18, -1, -16, -3, 4, 3, 960, 918, 455,E
2025-03-12 13:52:33.137,641, 425, 463, 20, 18, 22, -2, 7, 4, 966, 933, 575,E
2025-03-12 13:52:33.187,416, 433, 708, 25, 16, -11, -2, 7, 3, 960, 894, 457,E
2025-03-12 13:52:33.244,879, 245, 281, -6, 2, -1, -2, 6, 3, 963, 922, 485,E
2025-03-12 13:52:33.297,887, 462, 300, 8, 25, -10, 1, 6, 1, 964, 930, 607,E
2025-03-12 13:52:33.353,657, 541, 436, -26, 71, -51, -2, 5, 0, 950, 900, 627,E
2025-03-12 13:52:33.406,486, 621, 715, -6, 21, -31, -3, 5, -2, 933, 819, 621,E
2025-03-12 13:52:33.463,601, 607, 608, -1, -18, 4, -1, 4, -2, 922, 760, 602,E
2025-03-12 13:52:33.517,688, 599, 449, -11, -8, 3, -1, 4, -1, 923, 768, 589,E
2025-03-12 13:52:33.567,623, 578, 541, -9, -1, -2, 3, 5, 0, 928, 800, 586,E
2025-03-12 13:52:33.621,628, 575, 551, -5, -5, 0, 0, 4, 1, 924, 804, 594,E
2025-03-12 13:52:33.678,643, 566, 533, 0, -12, 4, -2, 4, 0, 927, 806, 589,E
2025-03-12 13:52:33.957,646, 574, 527, -5, -11, 5, -2, 5, 2, 931, 859, 638,F
2025-03-12 13:52:34.015,655, 559, 534, -3, -12, 6, 1, 7, 7, 932, 860, 638,F
2025-03-12 13:52:34.064,698, 549, 498, -2, -5, 6, -3, 4, 3, 933, 863, 654,F
2025-03-12 13:52:34.116,664, 558, 531, -1, -6, 3, -1, 5, 2, 934, 870, 646,F
2025-03-12 13:52:34.166,673, 559, 486, -3, -7, 1, 0, 4, 5, 936, 875, 628,F
2025-03-12 13:52:34.228,650, 560, 496, -24, -12, -10, -2, 4, 3, 938, 873, 576,F
2025-03-12 13:52:34.280,678, 527, 611, -6, -33, 11, -1, 5, 5, 947, 904, 574,F
2025-03-12 13:52:34.337,668, 982, 395, 72, 26, 23, -4, 7, 0, 963, 918, 546,F
2025-03-12 13:52:34.386,774, 624, 225, -5, 23, 24, -4, 6, 2, 961, 913, 439,F
2025-03-12 13:52:34.448,491, 555, 653, -23, -38, -56, -3, 6, 4, 954, 903, 567,F
2025-03-12 13:52:34.499,829, 470, 363, 26, -27, -2, -3, 5, 4, 961, 938, 661,F
2025-03-12 13:52:34.555,817, 453, 378, 27, 27, 2, -3, 6, 5, 955, 924, 689,F
2025-03-12 13:52:34.613,408, 608, 752, 33, -33, 10, -3, 6, 3, 954, 899, 561,F
2025-03-12 13:52:34.665,852, 717, 277, -1, 11, 10, -3, 2, 4, 962, 933, 530,F
2025-03-12 13:52:34.717,912, 533, 169, -17, 53, -34, -2, 4, 3, 959, 920, 653,F
2025-03-12 13:52:34.777,377, 571, 752, -19, 52, -49, -1, 4, 1, 944, 884, 625,F
2025-03-12 13:52:35.023,655, 563, 524, -7, -13, 12, -3, 5, 4, 939, 889, 682,G
2025-03-12 13:52:35.083,667, 565, 523, -6, -15, 14, -2, 5, 4, 941, 891, 682,G
2025-03-12 13:52:35.128,603, 541, 545, -4, -26, 10, -3, 5, 3, 948, 910, 687,G
2025-03-12 13:52:35.194,631, 475, 405, 10, -9, -15, -3, 5, 4, 954, 928, 633,G
2025-03-12 13:52:35.247,453, 397, 622, 47, 11, -5, -2, 4, 5, 962, 919, 496,G
2025-03-12 13:52:35.297,717, 522, 29, -7, 36, 38, -2, 4, 3, 966, 922, 258,G
2025-03-12 13:52:35.357,564, 316, 822, -28, -17, -13, -3, 7, 2, 964, 931, 457,G
2025-03-12 13:52:35.411,648, 582, 506, 25, -16, -4, -3, 6, 3, 966, 932, 544,G
2025-03-12 13:52:35.467,772, 571, 412, -9, 21, 18, -4, 8, 2, 965, 926, 425,G
2025-03-12 13:52:35.520,468, 518, 783, -4, -34, -26, -3, 7, 5, 960, 909, 382,G
2025-03-12 13:52:35.570,826, 707, 357, 11, -7, 4, -4, 6, 3, 966, 938, 296,G
2025-03-12 13:52:35.627,891, 416, 198, 7, 32, -21, 1, 4, 2, 964, 925, 554,G
2025-03-12 13:52:35.907,660, 515, 561, -3, -34, 14, -3, 4, 4, 947, 899, 701,H
2025-03-12 13:52:35.961,644, 523, 582, 2, -34, 15, -1, 5, 3, 948, 905, 700,H
2025-03-12 13:52:36.016,710, 477, 483, 24, -3, -7, -3, 4, 5, 958, 915, 653,H
2025-03-12 13:52:36.067,791, 557, 453, 41, 35, 40, -3, 5, 3, 964, 910, 416,H
2025-03-12 13:52:36.127,697, 658, 356, -20, 21, 12, -3, 4, 3, 960, 902, 291,H
2025-03-12 13:52:36.178,566, 582, 685, 3, -31, -25, -2, 5, 3, 955, 892, 451,H
2025-03-12 13:52:36.228,746, 855, 95, 0, -5, 21, -3, 7, 1, 967, 933, 582,H
2025-03-12 13:52:36.287,764, 448, 411, -12, 15, -10, -4, 8, 1, 963, 930, 674,H
2025-03-12 13:52:36.344,620, 545, 752, 8, -26, 3, -6, 7, 2, 967, 930, 729,H
2025-03-12 13:52:36.396,710, 570, 320, 39, 15, 16, -2, 5, 5, 967, 924, 661,H
2025-03-12 13:52:36.446,880, 434, 360, -1, 29, -7, -5, 4, 6, 961, 908, 662,H
2025-03-12 13:52:36.506,580, 599, 643, -41, 17, -38, -1, 5, 3, 951, 895, 679,H
2025-03-12 13:52:36.726,678, 578, 485, -3, -4, 1, -3, 4, 3, 937, 851, 636,I
2025-03-12 13:52:36.778,676, 568, 479, -1, -4, 1, -2, 5, 5, 939, 849, 636,I
2025-03-12 13:52:36.829,699, 561, 474, -1, 0, -1, -1, 3, 5, 936, 849, 635,I
2025-03-12 13:52:36.886,695, 557, 493, -3, 0, -1, -3, 4, 5, 939, 847, 621,I
2025-03-12 13:52:36.943,683, 575, 481, -2, -1, -2, -2, 5, 2, 937, 843, 604,I
2025-03-12 13:52:36.995,683, 560, 491, 0, -3, 0, -2, 4, 4, 935, 845, 610,I
2025-03-12 13:52:37.047,686, 580, 474, -4, -1, -1, -3, 6, 1, 937, 853, 602,I
2025-03-12 13:52:37.106,634, 554, 493, -2, -4, -3, -3, 4, 5, 935, 851, 556,I
2025-03-12 13:52:37.149,665, 540, 543, -1, -23, 2, 1, 3, 2, 940, 850, 416,I
2025-03-12 13:52:37.211,943, 751, 590, 13, -17, 11, -4, 6, 5, 957, 924, 553,I
2025-03-12 13:52:37.266,572, 512, 516, -6, 4, 20, -2, 7, 3, 964, 936, 672,I
2025-03-12 13:52:37.319,676, 392, 449, -1, 12, -22, -3, 3, 4, 954, 920, 692,I
2025-03-12 13:52:37.369,722, 508, 477, 22, -4, 5, -3, 5, 6, 965, 919, 642,I
2025-03-12 13:52:37.425,742, 544, 279, 19, 33, 29, -3, 6, 3, 963, 916, 586,I
2025-03-12 13:52:37.478,448, 445, 690, 8, 3, -37, -1, 4, 1, 956, 888, 550,I
2025-03-12 13:52:37.537,809, 523, 302, -16, -13, -1, -4, 5, 2, 961, 920, 459,I
2025-03-12 13:52:37.588,763, 404, 525, 6, 19, 26, -2, 7, 2, 965, 930, 659,I
2025-03-12 13:52:37.647,562, 562, 453, -36, 61, -53, -2, 5, 2, 952, 888, 586,I
2025-03-12 13:52:37.889,649, 568, 493, -12, -6, 0, -4, 5, 3, 942, 883, 668,J
2025-03-12 13:52:37.944,654, 569, 496, -11, -6, 0, -4, 7, 0, 941, 886, 668,J
2025-03-12 13:52:37.997,663, 583, 504, -9, -4, 1, -4, 4, 3, 936, 882, 633,J
2025-03-12 13:52:38.046,711, 526, 457, -7, -1, -4, -1, 6, 2, 946, 882, 566,J
2025-03-12 13:52:38.100,574, 586, 615, 5, -23, 6, -2, 5, 2, 942, 881, 503,J
2025-03-12 13:52:38.159,793, 431, 363, 13, -11, -4, -3, 2, 8, 959, 924, 470,J
2025-03-12 13:52:38.211,576, 430, 550, 8, 5, 18, -3, 6, 4, 963, 933, 622,J
2025-03-12 13:52:38.261,548, 457, 493, 2, 17, -28, -2, 6, 5, 956, 912, 652,J
2025-03-12 13:52:38.317,919, 459, 324, 44, -2, -7, -3, 5, 5, 961, 919, 613,J
2025-03-12 13:52:38.370,682, 803, 179, -20, 32, 33, -6, 4, 6, 973, 933, 36,J
2025-03-12 13:52:38.425,723, 281, 615, 4, 9, -17, -4, 5, 3, 955, 893, 55,J
2025-03-12 13:52:38.479,797, 622, 368, 9, 26, -50, -1, 3, 4, 904, 776, 337,J
2025-03-12 13:52:38.529,502, 658, 645, -9, -5, -2, -2, 5, 3, 899, 818, 481,J
2025-03-12 13:52:38.781,634, 585, 461, -4, -16, 0, -3, 6, 4, 917, 848, 433,K
2025-03-12 13:52:38.827,662, 553, 479, -5, -18, 0, -2, 6, 4, 921, 850, 435,K
2025-03-12 13:52:38.893,908, 348, 327, -22, -2, -7, -3, 2, 5, 935, 880, 276,K
2025-03-12 13:52:38.945,698, 579, 505, 11, -6, -2, -4, 4, 4, 947, 895, 160,K
2025-03-12 13:52:38.996,718, 474, 418, 28, 30, 27, -2, 4, 4, 954, 867, 55,K
2025-03-12 13:52:39.046,946, 679, 372, -6, 9, 21, -4, 5, 0, 955, 901, 59,K
2025-03-12 13:52:39.096,435, 413, 516, -3, -22, -6, -3, 5, 3, 955, 930, 70,K
2025-03-12 13:52:39.158,732, 309, 303, 15, 4, -38, -3, 4, 5, 945, 893, 443,K
2025-03-12 13:52:39.212,764, 603, 705, 17, -27, 18, -2, 5, 3, 940, 837, 216,K
2025-03-12 13:52:39.268,681, 657, 316, -20, 17, 64, -5, 6, 2, 960, 919, 175,K
2025-03-12 13:52:39.327,825, 331, 348, -19, 34, -34, -3, 5, 4, 956, 905, 134,K
2025-03-12 13:52:39.380,518, 564, 701, -7, 50, -59, -3, 5, 1, 928, 786, 208,K
2025-03-12 13:52:39.607,629, 600, 512, -9, -7, -2, -1, 3, 2, 904, 784, 441,L
2025-03-12 13:52:39.671,625, 589, 527, -8, -10, -1, -1, 4, 3, 903, 788, 441,L
2025-03-12 13:52:39.719,614, 600, 520, 3, -30, 5, -2, 5, 4, 908, 828, 456,L
2025-03-12 13:52:39.777,732, 531, 432, 0, -22, 9, -3, 3, 5, 920, 873, 510,L
2025-03-12 13:52:39.827,711, 550, 428, -5, -3, -4, -3, 7, 5, 941, 894, 379,L
2025-03-12 13:52:39.878,527, 496, 563, 38, 6, 3, -4, 6, 2, 959, 883, 240,L
2025-03-12 13:52:39.928,713, 650, 244, -1, 22, 16, -3, 4, 5, 956, 868, 57,L
2025-03-12 13:52:39.986,802, 670, 555, -32, 6, 42, -3, 5, 3, 961, 916, 183,L
2025-03-12 13:52:40.043,822, 404, 310, 9, 15, -3, -3, 6, 4, 955, 901, 602,L
2025-03-12 13:52:40.097,570, 599, 567, -36, 51, -48, -3, 5, 2, 939, 846, 512,L
2025-03-12 13:52:40.147,552, 654, 708, 3, -13, 0, -2, 3, 1, 931, 774, 451,L
2025-03-12 13:52:41.127,676, 590, 471, -1, 1, 0, -3, 4, 4, 927, 856, 539,M
2025-03-12 13:52:41.186,665, 582, 476, -1, 0, 0, 0, 3, 2, 928, 858, 540,M
2025-03-12 13:52:41.231,674, 577, 468, 1, -1, 2, -3, 3, 3, 930, 865, 548,M
2025-03-12 13:52:41.287,675, 591, 463, 0, -2, 1, -3, 5, 3, 934, 867, 548,M
2025-03-12 13:52:41.341,677, 573, 467, -4, -3, 2, -1, 4, 2, 936, 872, 541,M
2025-03-12 13:52:41.395,655, 562, 501, -6, -13, 0, -4, 4, 5, 934, 882, 540,M
2025-03-12 13:52:41.447,727, 552, 482, -10, -18, -2, -1, 5, 3, 941, 901, 428,M
2025-03-12 13:52:41.498,591, 613, 395, 44, 3, 4, -3, 5, 3, 957, 907, 399,M
2025-03-12 13:52:41.559,793, 302, 374, -17, 33, 32, -1, 2, 6, 965, 907, 193,M
2025-03-12 13:52:41.610,593, 250, 631, -14, -22, -49, -4, 7, 4, 955, 906, 523,M
2025-03-12 13:52:41.670,711, 720, 673, -11, -15, -7, -3, 5, 3, 957, 925, 535,M
2025-03-12 13:52:41.726,705, 488, 445, 2, 31, 29, -4, 7, 3, 966, 928, 439,M
2025-03-12 13:52:41.777,546, 311, 757, -13, -20, -12, -3, 5, 3, 965, 930, 527,M
2025-03-12 13:52:41.837,745, 746, 216, 33, -3, 3, -3, 5, 5, 965, 930, 614,M
2025-03-12 13:52:41.887,900, 455, 336, -11, 32, -10, -2, 6, 3, 959, 917, 610,M
2025-03-12 13:52:42.177,682, 573, 480, -5, -10, 0, -1, 4, 3, 944, 851, 325,N
2025-03-12 13:52:42.229,668, 557, 480, -4, -11, 0, 0, 6, 5, 944, 855, 326,N
2025-03-12 13:52:42.286,687, 584, 436, -12, -9, -1, -4, 5, 3, 946, 875, 363,N
2025-03-12 13:52:42.341,717, 506, 534, -3, -18, 3, -3, 5, 3, 951, 905, 464,N
2025-03-12 13:52:42.397,713, 520, 572, 29, -4, -3, -3, 4, 5, 961, 910, 411,N
2025-03-12 13:52:42.447,919, 696, 256, 8, 34, 37, 0, 3, 8, 970, 902, 66,N
2025-03-12 13:52:42.497,727, 254, 580, -29, -6, -42, -3, 5, 3, 961, 908, 359,N
2025-03-12 13:52:42.559,632, 501, 684, -21, -36, 2, -4, 4, 5, 965, 928, 559,N
2025-03-12 13:52:42.612,693, 637, 231, 17, 55, 78, -4, 5, 3, 972, 934, 426,N
2025-03-12 13:52:42.667,657, 637, 528, -42, 2, 10, -3, 6, 5, 974, 942, 311,N
2025-03-12 13:52:42.720,953, 540, 229, 15, 20, -36, -1, 5, 3, 965, 929, 635,N
2025-03-12 13:52:43.018,681, 513, 502, -3, -24, 5, -5, 6, 3, 957, 919, 611,O
2025-03-12 13:52:43.077,687, 563, 516, -6, -26, 2, -3, 4, 4, 959, 920, 602,O
2025-03-12 13:52:43.130,703, 469, 658, -3, -3, -13, -3, 8, 4, 959, 930, 421,O
2025-03-12 13:52:43.187,1133, 583, 340, 31, 33, 27, -6, 10, 0, 970, 917, 300,O
2025-03-12 13:52:43.242,760, 483, 332, -64, 20, 34, -2, 6, 5, 975, 939, 58,O
2025-03-12 13:52:43.297,905, 435, 671, 34, -40, -52, -3, 8, 4, 968, 943, 351,O
2025-03-12 13:52:43.346,905, 587, 122, -17, 85, -31, -3, 5, 4, 948, 903, 593,O
2025-03-12 13:52:43.410,446, 661, 800, -11, 31, -10, -1, 4, 0, 942, 878, 471,O
2025-03-12 13:52:43.467,625, 544, 529, 21, -35, 16, -1, 5, 1, 934, 814, 425,O
2025-03-12 13:52:43.714,705, 553, 476, 2, -7, 1, -1, 1, 5, 929, 848, 488,P
2025-03-12 13:52:43.767,692, 567, 484, 2, -7, 1, 0, 7, 2, 931, 851, 487,P
2025-03-12 13:52:43.817,664, 564, 506, 6, -10, 2, 0, 4, 3, 929, 854, 518,P
2025-03-12 13:52:43.869,698, 551, 435, -6, -5, -3, -3, 6, 1, 929, 865, 509,P
2025-03-12 13:52:43.926,700, 590, 568, -9, -19, -3, -3, 5, 4, 928, 887, 445,P
2025-03-12 13:52:43.976,1007, 658, 332, 54, 27, 49, -3, 6, 3, 958, 896, 462,P
2025-03-12 13:52:44.037,801, 399, 258, 7, 18, 16, -3, 5, 2, 965, 904, 197,P
2025-03-12 13:52:44.087,665, 397, 389, 7, -47, -79, -1, 5, 5, 956, 908, 530,P
2025-03-12 13:52:44.147,732, 515, 623, -31, -23, -4, -2, 5, 5, 965, 937, 591,P
2025-03-12 13:52:44.196,630, 1054, 186, 13, 18, 28, -3, 5, 4, 972, 937, 387,P
2025-03-12 13:52:44.258,1016, 368, 182, -2, 29, -13, -4, 5, 3, 961, 903, 371,P
2025-03-12 13:52:44.310,501, 603, 779, -26, 48, -38, -1, 4, 2, 944, 877, 426,P
2025-03-12 13:52:44.586,696, 585, 440, -2, -8, 4, -2, 4, 3, 944, 897, 625,Q
2025-03-12 13:52:44.643,697, 587, 447, -5, -7, 5, 1, 8, 4, 945, 898, 624,Q
2025-03-12 13:52:44.697,734, 526, 456, -1, -4, 1, -3, 2, 4, 948, 903, 629,Q
2025-03-12 13:52:44.747,663, 560, 497, -2, -5, 2, -3, 6, 3, 949, 908, 630,Q
2025-03-12 13:52:44.797,701, 575, 443, -4, -7, 4, -3, 7, 2, 953, 913, 622,Q
2025-03-12 13:52:44.860,722, 657, 531, -17, -1, -3, -3, 4, 4, 956, 925, 483,Q
2025-03-12 13:52:44.909,328, 524, 432, 40, 12, -9, -1, 4, 6, 960, 909, 154,Q
2025-03-12 13:52:44.967,907, 584, 333, -18, 25, 32, -3, 5, 3, 967, 913, 126,Q
2025-03-12 13:52:45.024,665, 536, 524, -26, 5, 14, -2, 7, 2, 969, 932, 128,Q
2025-03-12 13:52:45.077,701, 466, 578, -13, -33, -32, -5, 8, 2, 961, 932, 381,Q
2025-03-12 13:52:45.128,707, 479, 526, 11, -3, -14, -4, 7, 3, 954, 921, 441,Q
2025-03-12 13:52:45.187,642, 593, 411, -20, 56, -24, -4, 4, 3, 947, 892, 52,Q
2025-03-12 13:52:45.244,444, 633, 718, 26, -47, 29, -2, 2, 5, 953, 894, 161,Q
2025-03-12 13:52:45.297,949, 735, 153, -42, 1, 33, -2, 6, 4, 971, 935, 255,Q
2025-03-12 13:52:45.347,611, 419, 625, -16, 14, 29, -2, 5, 5, 975, 940, 226,Q
2025-03-12 13:52:45.409,727, 428, 340, -17, 47, -49, -3, 6, 2, 964, 912, 210,Q
2025-03-12 13:52:45.461,515, 662, 895, 9, -1, -14, -2, 5, 0, 937, 831, 253,Q
2025-03-12 13:52:45.719,640, 552, 518, -8, -11, -3, -2, 5, 1, 927, 869, 440,R
2025-03-12 13:52:45.778,631, 560, 531, -6, -14, -3, -2, 3, 5, 926, 874, 432,R
2025-03-12 13:52:45.829,686, 503, 556, 0, -19, 7, -3, 6, 5, 940, 895, 397,R
2025-03-12 13:52:45.887,402, 899, 410, 51, 30, 45, -4, 5, 5, 959, 893, 120,R
2025-03-12 13:52:45.941,735, 584, 246, -16, 16, 18, -2, 6, 5, 962, 897, 68,R
2025-03-12 13:52:45.997,873, 509, 447, 21, -42, -59, -2, 6, 3, 954, 899, 218,R
2025-03-12 13:52:46.047,663, 522, 589, -5, -21, 2, -2, 5, 4, 970, 930, 351,R
2025-03-12 13:52:46.102,851, 688, 409, 4, 27, 33, -1, 6, 5, 973, 928, 27,R
2025-03-12 13:52:46.146,966, 457, 309, -5, 32, 16, -3, 5, 2, 966, 913, 65,R
2025-03-12 13:52:46.214,512, 522, 748, -22, 38, -27, -2, 6, 0, 957, 891, 60,R
2025-03-12 13:52:46.517,742, 498, 455, -5, -7, 2, -4, 7, 2, 949, 906, 375,S
2025-03-12 13:52:46.567,716, 505, 470, -5, -6, 1, -1, 6, 3, 949, 908, 380,S
2025-03-12 13:52:46.624,668, 527, 546, -3, -5, 3, -3, 7, 3, 953, 916, 383,S
2025-03-12 13:52:46.677,688, 534, 466, -1, -5, 2, -2, 5, 5, 953, 920, 362,S
2025-03-12 13:52:46.727,627, 488, 582, 14, -1, -12, -3, 5, 5, 960, 925, 144,S
2025-03-12 13:52:46.789,1075, 702, 202, 26, 17, 10, -5, 7, 3, 964, 923, 68,S
2025-03-12 13:52:46.837,522, 652, 458, 16, 13, 15, -4, 7, 3, 972, 936, 49,S
2025-03-12 13:52:46.891,832, 429, 374, 12, 11, -2, -3, 8, 3, 966, 912, 52,S
2025-03-12 13:52:46.946,841, 512, 329, -12, 49, -56, -3, 7, 2, 940, 861, 260,S
2025-03-12 13:52:47.006,435, 672, 718, 5, -2, -14, -1, 5, -1, 915, 862, 369,S
2025-03-12 13:52:47.287,654, 561, 480, -5, -7, -6, -3, 3, 5, 908, 804, 59,T
2025-03-12 13:52:47.342,664, 588, 464, -5, -6, -5, 2, 6, 0, 907, 801, 57,T
2025-03-12 13:52:47.394,632, 582, 505, -10, -12, -2, -2, 4, 4, 911, 824, 64,T
2025-03-12 13:52:47.446,909, 298, 417, 35, -11, -8, -3, 3, 4, 955, 905, 71,T
2025-03-12 13:52:47.506,374, 345, 476, -23, -4, 20, -2, 4, 5, 968, 937, 198,T
2025-03-12 13:52:47.559,648, 594, 347, 14, 8, 1, -4, 6, 4, 964, 919, 418,T
2025-03-12 13:52:47.608,696, 583, 593, 10, -13, -8, -2, 5, 7, 957, 899, 240,T
2025-03-12 13:52:47.659,855, 585, 405, 31, 15, 18, -3, 7, 4, 969, 916, 168,T
2025-03-12 13:52:47.718,730, 526, 382, 3, 25, 18, -3, 7, 4, 968, 899, 133,T
2025-03-12 13:52:47.777,627, 560, 443, -11, 39, -47, -1, 4, 5, 947, 850, 335,T
2025-03-12 13:52:48.057,670, 561, 520, 4, -23, 8, -1, 5, 3, 921, 844, 53,U
2025-03-12 13:52:48.109,666, 546, 535, 8, -23, 10, -6, 5, 7, 925, 853, 54,U
2025-03-12 13:52:48.159,746, 675, 471, 14, -2, 3, -4, 4, 5, 952, 889, 48,U
2025-03-12 13:52:48.218,783, 548, 365, 4, 17, 27, -4, 3, 4, 964, 914, 151,U
2025-03-12 13:52:48.269,673, 384, 549, -22, -7, 2, -3, 6, 1, 964, 926, 348,U
2025-03-12 13:52:48.325,720, 489, 676, 13, -16, -15, -3, 7, 4, 956, 925, 520,U
2025-03-12 13:52:48.377,746, 742, 244, -7, 39, 42, -1, 5, 4, 966, 922, 435,U
2025-03-12 13:52:48.426,781, 499, 508, -34, 30, -16, -3, 5, 2, 962, 909, 449,U
2025-03-12 13:52:48.491,578, 524, 712, -12, 8, -24, -1, 6, 1, 948, 889, 466,U
2025-03-12 13:52:48.761,666, 566, 490, 4, 0, -6, -2, 4, 5, 912, 787, 239,V
2025-03-12 13:52:48.816,652, 579, 505, 3, -1, -6, -4, 4, 2, 914, 788, 238,V
2025-03-12 13:52:48.874,671, 564, 458, -2, -8, -3, -3, 4, 5, 912, 811, 250,V
2025-03-12 13:52:48.927,699, 575, 489, -2, -17, 1, -3, 5, 3, 922, 861, 196,V
2025-03-12 13:52:48.977,754, 511, 505, -8, 2, -3, -1, 4, 4, 945, 903, 55,V
2025-03-12 13:52:49.027,875, 735, 386, 23, -5, 28, -3, 4, 3, 963, 913, 355,V
2025-03-12 13:52:49.087,797, 471, 253, -28, 19, 32, -3, 5, 3, 970, 930, 307,V
2025-03-12 13:52:49.142,519, 214, 823, 4, -36, -28, -3, 6, 3, 967, 939, 413,V
2025-03-12 13:52:49.197,879, 666, 134, 0, 49, -23, -2, 5, 4, 954, 916, 658,V
2025-03-12 13:52:49.247,493, 547, 685, -17, 50, -21, -1, 3, 3, 950, 898, 561,V
2025-03-12 13:52:49.542,640, 575, 504, 11, -6, -4, -2, 5, 2, 893, 676, 134,W
2025-03-12 13:52:49.591,637, 565, 500, 12, -7, -5, 0, 3, 1, 892, 674, 154,W
2025-03-12 13:52:49.647,623, 595, 529, 9, -18, 0, -2, 7, 2, 871, 709, 173,W
2025-03-12 13:52:49.697,709, 590, 519, -6, -30, 11, -5, 7, 1, 897, 843, 206,W
2025-03-12 13:52:49.759,913, 652, 467, -7, -3, 17, -2, 4, 5, 956, 905, 307,W
2025-03-12 13:52:49.809,683, 704, 334, -32, 15, 33, -2, 5, 5, 966, 924, 214,W
2025-03-12 13:52:49.867,637, 376, 577, -2, -29, -27, -3, 8, 2, 964, 935, 335,W
2025-03-12 13:52:49.923,841, 889, 255, 14, 18, 34, -3, 6, 4, 968, 931, 504,W
2025-03-12 13:52:49.975,725, 566, 429, -47, 4, 20, -4, 7, 3, 971, 941, 350,W
2025-03-12 13:52:50.026,828, 502, 299, -5, 42, -26, -3, 8, 3, 961, 928, 536,W
2025-03-12 13:52:50.090,553, 567, 681, -10, 43, -25, -2, 5, 0, 955, 901, 463,W
2025-03-12 13:52:50.356,701, 549, 475, 3, -13, 3, -3, 6, 3, 943, 886, 516,X
2025-03-12 13:52:50.407,697, 554, 480, 3, -12, 3, -3, 2, 4, 942, 889, 522,X
2025-03-12 13:52:50.461,699, 535, 504, 2, -15, 2, -2, 5, 3, 943, 897, 549,X
2025-03-12 13:52:50.516,691, 535, 578, 5, -31, 1, -3, 10, 0, 948, 914, 559,X
2025-03-12 13:52:50.573,666, 421, 604, 12, -20, -14, -3, 5, 6, 957, 927, 418,X
2025-03-12 13:52:50.627,583, 918, 171, 53, 36, 35, -3, 6, 4, 965, 905, 66,X
2025-03-12 13:52:50.680,761, 628, 145, -36, 45, 14, -3, 3, 4, 958, 892, 51,X
2025-03-12 13:52:50.729,545, 719, 660, 9, -38, -25, -5, 4, 4, 953, 903, 394,X
2025-03-12 13:52:50.787,704, 877, 24, -10, 3, 48, -4, 5, 6, 974, 937, 202,X
2025-03-12 13:52:50.840,711, 392, 428, 0, 19, 5, -3, 8, 2, 969, 926, 70,X
2025-03-12 13:52:50.891,638, 591, 376, -2, 34, -67, -2, 4, 3, 952, 888, 427,X
2025-03-12 13:52:51.152,634, 557, 509, -2, -12, 1, -1, 6, 4, 928, 870, 413,Y
2025-03-12 13:52:51.199,645, 581, 500, 1, -14, 2, -1, 6, 4, 927, 869, 413,Y
2025-03-12 13:52:51.258,636, 551, 540, 6, -24, 2, -3, 2, 7, 931, 881, 270,Y
2025-03-12 13:52:51.311,876, 506, 506, 21, -11, -1, -3, 4, 7, 962, 917, 361,Y
2025-03-12 13:52:51.367,679, 793, 353, -12, 20, 38, -2, 7, 4, 972, 936, 418,Y
2025-03-12 13:52:51.426,517, 421, 634, -15, 7, -36, -3, 7, 3, 963, 925, 581,Y
2025-03-12 13:52:51.477,622, 484, 647, 45, -13, -21, -3, 4, 3, 969, 928, 532,Y
2025-03-12 13:52:51.528,835, 710, 6, 17, 27, 22, -3, 4, 3, 974, 915, 253,Y
2025-03-12 13:52:51.590,891, 250, 612, -25, 18, -33, -3, 7, 4, 958, 892, 406,Y
2025-03-12 13:52:51.643,529, 539, 677, -35, 19, -39, -6, 6, 3, 935, 886, 396,Y
2025-03-12 13:52:51.916,633, 552, 526, -10, -10, -5, -3, 5, 2, 911, 832, 59,Z
2025-03-12 13:52:51.967,644, 563, 502, -7, -12, -3, -1, 4, 4, 913, 832, 69,Z
2025-03-12 13:52:52.024,694, 576, 441, -1, -19, 8, -1, 6, 3, 937, 865, 25,Z
2025-03-12 13:52:52.077,881, 896, 514, 3, -12, 24, -3, 4, 5, 962, 930, 225,Z
2025-03-12 13:52:52.128,541, 544, 729, 30, -4, 23, -3, 7, 4, 971, 939, 345,Z
2025-03-12 13:52:52.178,649, 655, 250, 12, 29, -5, -3, 7, 4, 967, 914, 70,Z
2025-03-12 13:52:52.237,855, 572, 342, 6, 15, 11, -3, 7, 4, 974, 926, 38,Z
2025-03-12 13:52:52.290,727, 429, 531, -14, 5, 28, -1, 7, 4, 976, 945, 54,Z
2025-03-12 13:52:52.344,589, 404, 441, 28, 12, -69, -3, 7, 2, 964, 922, 298,Z
2025-03-12 13:52:52.397,634, 724, 674, 9, -55, 20, -2, 7, 3, 965, 914, 55,Z
2025-03-12 13:52:52.446,748, 582, 162, -6, 2, 11, -3, 5, 5, 974, 941, 222,Z
2025-03-12 13:52:52.508,821, 571, 306, -6, 49, -20, -5, 2, 5, 969, 915, 287,Z
2025-03-12 13:52:52.777,648, 518, 583, 4, -4, 4, -3, 4, 4, 952, 868, 342,a
2025-03-12 13:52:52.826,647, 539, 566, 7, -7, 5, -2, 6, 1, 953, 869, 347,a
2025-03-12 13:52:52.877,752, 532, 407, 6, -8, 3, -2, 6, 2, 952, 867, 394,a
2025-03-12 13:52:52.936,683, 557, 497, -2, -1, 0, -3, 7, 2, 953, 875, 414,a
2025-03-12 13:52:52.979,689, 568, 467, 1, -6, 4, -1, 5, 2, 953, 880, 437,a
2025-03-12 13:52:53.041,666, 493, 503, -3, -16, 2, -3, 5, 2, 957, 899, 334,a
2025-03-12 13:52:53.097,563, 465, 555, -15, -6, -13, -3, 5, 4, 959, 921, 60,a
2025-03-12 13:52:53.146,707, 863, 108, -2, 12, 5, -5, 3, 5, 972, 914, 33,a
2025-03-12 13:52:53.197,583, 651, 585, -43, 11, 25, -3, 5, 4, 975, 937, 57,a
2025-03-12 13:52:53.256,666, 506, 382, 13, -17, -28, -3, 6, 4, 972, 936, 43,a
2025-03-12 13:52:53.307,819, 683, 244, -6, 10, 11, -3, 4, 5, 973, 934, 71,a
2025-03-12 13:52:53.367,840, 469, 429, -28, 31, -10, -2, 8, 3, 973, 926, 42,a
2025-03-12 13:52:53.417,534, 512, 696, -9, 3, -40, -2, 7, 1, 961, 914, 284,a
2025-03-12 13:52:53.686,658, 583, 525, 0, -13, -3, -2, 5, 1, 929, 850, 174,b
2025-03-12 13:52:53.740,652, 581, 530, 1, -18, 0, -7, 2, 5, 931, 856, 189,b
2025-03-12 13:52:53.797,669, 538, 488, 1, -19, 10, -4, 8, 2, 945, 899, 211,b
2025-03-12 13:52:53.847,742, 531, 616, 23, 7, 2, -3, 3, 5, 961, 911, 143,b
2025-03-12 13:52:53.897,699, 572, 514, 12, 43, 52, 0, 5, 3, 971, 915, 43,b
2025-03-12 13:52:53.949,741, 581, 416, 1, 9, 1, -3, 6, 2, 962, 912, 66,b
2025-03-12 13:52:54.010,819, 620, 593, -24, -19, -14, -3, 7, 3, 964, 924, 432,b
2025-03-12 13:52:54.061,542, 944, 267, -6, 10, 16, -5, 8, 3, 973, 935, 120,b
2025-03-12 13:52:54.117,779, 482, 192, -16, 25, 5, -4, 7, 3, 967, 905, 52,b
2025-03-12 13:52:54.175,802, 542, 307, -44, 62, -49, -3, 7, 2, 951, 875, 71,b
2025-03-12 13:52:54.228,345, 654, 790, 0, -7, -12, -1, 6, 0, 944, 884, 64,b
2025-03-12 13:52:54.473,674, 539, 507, 1, -4, 3, -3, 4, 1, 932, 829, 165,c
2025-03-12 13:52:54.544,676, 549, 499, 1, -5, 2, -2, 2, 6, 932, 829, 198,c
2025-03-12 13:52:54.574,679, 572, 486, -4, -2, 0, -3, 5, 3, 935, 840, 218,c
2025-03-12 13:52:54.627,694, 545, 492, 2, -6, 3, -5, 2, 5, 938, 842, 259,c
2025-03-12 13:52:54.677,673, 568, 510, -1, -5, 4, -5, 4, 1, 939, 852, 354,c
2025-03-12 13:52:54.728,668, 562, 491, -4, -7, 9, -3, 4, 4, 945, 872, 325,c
2025-03-12 13:52:54.788,668, 537, 497, 0, -25, 5, 0, 5, 5, 954, 905, 242,c
2025-03-12 13:52:54.840,762, 359, 550, 10, -5, -19, -4, 7, 3, 964, 916, 61,c
2025-03-12 13:52:54.891,1135, 791, 423, 23, 30, 45, -1, 1, 5, 973, 919, 48,c
2025-03-12 13:52:54.946,756, 336, 581, -13, 21, 19, -2, 7, 3, 973, 937, 71,c
2025-03-12 13:52:55.006,794, 500, 288, -25, 72, -46, 0, 7, 3, 963, 920, 314,c
2025-03-12 13:52:55.058,468, 581, 799, -21, 21, -22, 0, 3, 0, 942, 881, 214,c
2025-03-12 13:52:55.327,689, 546, 490, 3, -8, 3, -3, 7, 2, 931, 847, 174,d
2025-03-12 13:52:55.377,693, 549, 479, 2, -7, 3, 0, 4, 3, 932, 847, 171,d
2025-03-12 13:52:55.427,685, 552, 503, -1, -4, 1, -2, 7, 2, 933, 848, 208,d
2025-03-12 13:52:55.479,674, 544, 501, 5, -5, 4, -2, 5, 3, 933, 855, 283,d
2025-03-12 13:52:55.538,684, 556, 505, 3, -5, 3, -3, 5, 3, 936, 860, 327,d
2025-03-12 13:52:55.587,708, 540, 472, 0, -8, 2, -2, 3, 7, 938, 867, 319,d
2025-03-12 13:52:55.641,690, 541, 500, 2, -6, 2, -1, 4, 4, 940, 871, 328,d
2025-03-12 13:52:55.691,678, 552, 496, -1, -8, 4, -2, 5, 4, 944, 885, 288,d
2025-03-12 13:52:55.747,695, 567, 452, -5, -13, 0, -3, 6, 5, 949, 907, 82,d
2025-03-12 13:52:55.797,671, 483, 553, 0, -8, -11, -4, 7, 5, 958, 917, 55,d
2025-03-12 13:52:55.847,885, 554, 500, 8, 25, 14, -3, 5, 5, 969, 910, 46,d
2025-03-12 13:52:55.906,564, 349, 241, -46, 23, 33, -3, 6, 3, 976, 935, 44,d
2025-03-12 13:52:55.956,1052, 562, 792, -14, -43, -37, -3, 8, 2, 971, 941, 49,d
2025-03-12 13:52:56.016,692, 448, 566, 29, -23, -24, -3, 7, 3, 971, 939, 89,d
2025-03-12 13:52:56.067,773, 381, 440, -1, 28, 29, -2, 8, 1, 976, 929, 45,d
2025-03-12 13:52:56.126,737, 387, 444, -29, 36, -38, -3, 7, 2, 968, 910, 61,d
2025-03-12 13:52:56.432,680, 540, 520, -2, 0, 2, -3, 4, 3, 933, 833, 62,e
2025-03-12 13:52:56.477,675, 550, 518, 0, 0, 4, -3, 9, 5, 936, 834, 66,e
2025-03-12 13:52:56.529,696, 540, 512, 4, -2, 7, 0, 3, 4, 940, 850, 53,e
2025-03-12 13:52:56.576,667, 549, 525, 4, 0, 7, -2, 6, 3, 941, 852, 91,e
2025-03-12 13:52:56.627,669, 539, 517, 5, -4, 7, -3, 5, 2, 944, 858, 62,e
2025-03-12 13:52:56.677,698, 518, 497, 2, -4, 0, -3, 7, 1, 945, 860, 51,e
2025-03-12 13:52:56.727,633, 562, 564, 2, -14, 2, -3, 5, 4, 950, 862, 53,e
2025-03-12 13:52:56.788,854, 449, 259, -14, -3, -3, 0, 5, 4, 966, 908, 37,e
2025-03-12 13:52:56.839,703, 601, 655, -41, 1, 20, -3, 7, 3, 972, 933, 53,e
2025-03-12 13:52:56.889,620, 322, 534, 10, -23, -30, -1, 7, 4, 967, 933, 51,e
2025-03-12 13:52:56.947,1032, 550, 280, 33, 15, -1, -3, 6, 5, 972, 920, 56,e
2025-03-12 13:52:56.997,757, 343, 511, -23, 24, 30, 0, 7, 0, 975, 928, 36,e
2025-03-12 13:52:57.057,659, 506, 535, -16, 33, -35, -3, 6, 2, 965, 916, 73,e
2025-03-12 13:52:57.311,668, 541, 504, 1, -1, 2, 0, 4, 5, 942, 873, 55,f
2025-03-12 13:52:57.367,672, 543, 510, 1, -1, 2, -1, 7, 4, 943, 871, 48,f
2025-03-12 13:52:57.418,676, 535, 521, -1, -2, 4, -3, 5, 3, 943, 870, 64,f
2025-03-12 13:52:57.471,673, 561, 517, 5, -7, 3, -3, 6, 3, 946, 864, 32,f
2025-03-12 13:52:57.517,696, 523, 499, 3, -6, 2, -1, 6, 3, 946, 860, 58,f
2025-03-12 13:52:57.573,663, 542, 566, 10, -13, 10, -3, 5, 4, 952, 872, 59,f
2025-03-12 13:52:57.627,692, 537, 476, -3, 8, 3, -3, 11, 1, 962, 893, 48,f
2025-03-12 13:52:57.677,684, 571, 444, -19, 12, 16, -3, 5, 3, 966, 909, 48,f
2025-03-12 13:52:57.737,696, 292, 621, -24, -4, -16, -3, 7, 3, 966, 931, 59,f
2025-03-12 13:52:57.789,654, 560, 698, -10, -47, -36, -1, 5, 4, 971, 946, 332,f
2025-03-12 13:52:57.840,626, 700, 347, 9, -9, 7, -2, 3, 7, 977, 950, 454,f
2025-03-12 13:52:57.897,781, 255, 363, 15, 50, -7, -3, 5, 4, 972, 939, 363,f
2025-03-12 13:52:57.955,570, 520, 531, 33, -15, -18, -2, 4, 3, 963, 908, 363,f
2025-03-12 13:52:59.369,676, 557, 511, -3, -1, -1, -2, 6, 3, 940, 843, 162,g
2025-03-12 13:52:59.424,669, 555, 511, -2, -2, 0, -5, 6, 3, 939, 843, 172,g
2025-03-12 13:52:59.477,688, 551, 474, -1, -1, 2, -3, 5, 4, 941, 848, 185,g
2025-03-12 13:52:59.526,691, 555, 488, -3, -1, 2, -4, 10, 1, 942, 852, 186,g
2025-03-12 13:52:59.576,706, 535, 480, -1, 0, -1, -4, 5, 3, 943, 855, 197,g
2025-03-12 13:52:59.638,692, 545, 487, 0, -2, -1, -5, 9, 1, 941, 855, 190,g
2025-03-12 13:52:59.689,692, 547, 481, 1, -2, 1, -2, 5, 3, 942, 860, 202,g
2025-03-12 13:52:59.739,663, 531, 519, 5, -7, 6, -3, 5, 4, 947, 866, 183,g
2025-03-12 13:52:59.789,670, 515, 346, -9, -2, -5, -2, 5, 3, 952, 898, 48,g
2025-03-12 13:52:59.847,659, 557, 534, 7, -14, -16, -3, 6, 4, 959, 910, 67,g
2025-03-12 13:52:59.896,773, 1088, 89, 4, 34, 43, -1, 4, 5, 973, 916, 49,g
2025-03-12 13:52:59.953,602, 547, 600, -21, 9, 13, -2, 6, 3, 969, 930, 69,g
2025-03-12 13:53:00.010,756, 372, 680, 29, -21, -22, -2, 6, 5, 965, 929, 210,g
2025-03-12 13:53:00.057,731, 700, 341, 22, 26, 31, -3, 6, 2, 973, 928, 53,g
2025-03-12 13:53:00.117,755, 302, 376, -26, 27, -7, -5, 8, 2, 959, 852, 46,g
2025-03-12 13:53:00.170,832, 450, 421, 14, 45, -59, -2, 5, 3, 910, 722, 68,g
2025-03-12 13:53:00.486,646, 583, 520, 0, -5, -5, -2, 4, 2, 814, 693, 48,h
2025-03-12 13:53:00.546,644, 594, 505, -1, -3, -5, 0, 3, 2, 817, 701, 56,h
2025-03-12 13:53:00.597,638, 608, 499, -7, 2, -4, -1, 4, 2, 822, 713, 63,h
2025-03-12 13:53:00.647,598, 594, 553, -5, -13, 2, -1, 2, 3, 843, 739, 57,h
2025-03-12 13:53:00.707,644, 591, 520, -8, -15, 12, -1, 4, 1, 877, 782, 45,h
2025-03-12 13:53:00.756,697, 553, 462, 4, -16, 14, -2, 4, 2, 905, 823, 200,h
2025-03-12 13:53:00.807,683, 549, 481, 0, -5, 8, -4, 6, 2, 924, 841, 145,h
2025-03-12 13:53:00.866,667, 590, 454, -8, -14, -4, -2, 4, 6, 928, 867, 249,h
2025-03-12 13:53:00.924,1761, 360, 234, -58, -3, -7, -3, 5, 4, 951, 900, 137,h
2025-03-12 13:53:00.977,822, 979, 463, 32, 52, 80, -3, 5, 4, 971, 906, 60,h
2025-03-12 13:53:01.027,773, 541, 235, -13, 11, 11, -3, 7, 3, 973, 915, 26,h
2025-03-12 13:53:01.079,640, 572, 606, -8, -14, -7, -3, 8, 3, 972, 932, 57,h
2025-03-12 13:53:01.136,764, 791, 137, -11, 29, 32, -3, 4, 5, 976, 925, 31,h
2025-03-12 13:53:01.193,696, 438, 492, -27, 38, -44, -2, 7, 3, 962, 899, 71,h
2025-03-12 13:53:01.433,681, 525, 498, -7, -1, -2, -4, 6, 2, 912, 761, 33,i
2025-03-12 13:53:01.477,684, 522, 512, -6, -2, -3, -5, 2, 6, 912, 765, 45,i
2025-03-12 13:53:01.539,675, 539, 513, -5, -5, -3, -2, 8, 0, 910, 766, 28,i
2025-03-12 13:53:01.592,675, 544, 516, -2, -4, 1, -2, 3, 4, 908, 777, 74,i
2025-03-12 13:53:01.642,664, 543, 530, 9, -16, 6, -3, 6, 4, 911, 779, 50,i
2025-03-12 13:53:01.692,737, 527, 448, -6, -3, 0, -4, 3, 4, 914, 788, 30,i
2025-03-12 13:53:01.746,681, 567, 504, -1, -1, 1, -3, 5, 4, 917, 797, 60,i
2025-03-12 13:53:01.796,710, 554, 472, -7, 3, 5, -3, 6, 3, 924, 809, 67,i
2025-03-12 13:53:01.847,674, 537, 508, -3, -1, 3, -4, 6, 5, 928, 821, 56,i
2025-03-12 13:53:01.903,682, 494, 590, -2, -25, 3, -1, 4, 6, 942, 880, 49,i
2025-03-12 13:53:01.947,752, 583, 601, 0, -2, 2, -3, 5, 3, 966, 917, 62,i
2025-03-12 13:53:02.005,741, 700, 165, 0, 22, 33, -4, 7, 2, 971, 910, 54,i
2025-03-12 13:53:02.057,668, 348, 587, -20, -2, -76, -2, 9, 2, 964, 897, 45,i
2025-03-12 13:53:02.115,779, 968, 974, -44, -31, -4, -4, 5, 5, 970, 933, 66,i
2025-03-12 13:53:02.164,869, 619, 686, 49, 4, 10, -2, 5, 7, 963, 909, 49,i
2025-03-12 13:53:02.221,766, 545, 350, -12, 63, -22, -2, 7, 3, 953, 877, 59,i
2025-03-12 13:53:02.482,711, 522, 479, 3, -1, 10, -3, 5, 4, 944, 845, 64,j
2025-03-12 13:53:02.537,722, 531, 438, 1, 1, 9, -3, 10, 4, 943, 844, 66,j
2025-03-12 13:53:02.586,725, 520, 452, -7, 2, 2, -3, 5, 3, 941, 843, 50,j
2025-03-12 13:53:02.638,727, 541, 477, -4, 0, -5, -4, 7, 3, 939, 828, 54,j
2025-03-12 13:53:02.689,720, 534, 454, -14, -1, -12, -3, 4, 4, 930, 791, 36,j
2025-03-12 13:53:02.747,678, 544, 561, 2, -7, 8, -3, 4, 4, 943, 847, 66,j
2025-03-12 13:53:02.789,771, 0, 469, 4, -1, 15, -3, 6, 4, 966, 902, 56,j
2025-03-12 13:53:02.846,807, 676, 380, -41, 35, 48, -3, 7, 5, 972, 915, 54,j
2025-03-12 13:53:02.907,841, -137, 675, -14, -11, -92, -4, 9, 3, 964, 903, 57,j
2025-03-12 13:53:02.957,586, 467, 744, 1, -49, -18, 0, 6, 5, 967, 929, 46,j
2025-03-12 13:53:03.007,810, 557, 302, 41, 4, -2, -1, 5, 3, 968, 923, 62,j
2025-03-12 13:53:03.066,735, 439, 396, -13, 72, -28, -4, 6, 5, 959, 891, 68,j
2025-03-12 13:53:03.349,664, 523, 553, 6, -6, 9, -3, 7, 3, 941, 844, 39,k
2025-03-12 13:53:03.403,677, 530, 525, 6, -6, 9, -3, 7, 3, 942, 843, 34,k
2025-03-12 13:53:03.451,709, 510, 494, 1, -7, 3, -3, 6, 3, 943, 850, 53,k
2025-03-12 13:53:03.505,698, 526, 479, -4, -4, -6, -1, 6, 3, 943, 853, 48,k
2025-03-12 13:53:03.557,635, 525, 555, -10, -17, -7, -3, 8, 3, 946, 873, 62,k
2025-03-12 13:53:03.615,787, 525, 316, -27, -2, -5, -2, 6, 4, 960, 913, 51,k
2025-03-12 13:53:03.667,669, 430, 586, 34, 19, 22, -2, 4, 8, 969, 913, 71,k
2025-03-12 13:53:03.721,868, 542, 249, -16, 21, 30, -3, 8, 2, 971, 911, 56,k
2025-03-12 13:53:03.776,830, 234, 1001, -43, -15, 23, -4, 7, 2, 974, 944, 53,k
2025-03-12 13:53:03.827,699, 465, 520, 38, -6, -8, -1, 8, 3, 968, 930, 40,k
2025-03-12 13:53:03.877,551, 565, 663, 20, -14, -16, -4, 8, 3, 960, 892, 63,k
2025-03-12 13:53:03.938,1063, 941, 389, -20, 13, 47, -1, 6, 2, 974, 930, 45,k
2025-03-12 13:53:03.988,830, 388, 355, -6, 46, -35, -3, 8, 3, 964, 901, 55,k
2025-03-12 13:53:04.047,420, 495, 765, 16, 18, -55, -1, 5, 2, 936, 835, 57,k
2025-03-12 13:53:04.847,692, 555, 481, -3, -3, 3, -4, 5, 2, 911, 823, 50,l
2025-03-12 13:53:04.897,694, 548, 479, -3, -3, 3, 0, 8, 4, 912, 830, 62,l
2025-03-12 13:53:04.947,682, 544, 483, -4, -1, 3, -4, 5, 5, 919, 844, 47,l
2025-03-12 13:53:04.997,710, 542, 490, -4, -2, 4, -4, 5, 2, 926, 857, 63,l
2025-03-12 13:53:05.053,704, 542, 482, -3, -1, 2, -3, 6, 5, 934, 871, 54,l
2025-03-12 13:53:05.107,691, 537, 484, -4, -2, -1, -2, 5, 3, 938, 876, 48,l
2025-03-12 13:53:05.157,684, 548, 481, -6, -5, -6, -2, 5, 2, 940, 883, 63,l
2025-03-12 13:53:05.207,683, 543, 503, -16, -19, -3, -2, 4, 1, 945, 899, 35,l
2025-03-12 13:53:05.269,700, 439, 526, -12, -3, -6, -3, 5, 5, 957, 918, 58,l
2025-03-12 13:53:05.319,391, 909, 556, 0, 31, 44, -3, 8, 2, 977, 928, 36,l
2025-03-12 13:53:05.370,750, 232, 254, 10, 21, 20, -3, 6, 3, 975, 927, 65,l
2025-03-12 13:53:05.427,803, 360, 338, -19, 43, -56, -3, 7, 2, 963, 905, 51,l
2025-03-12 13:53:05.477,525, 516, 713, -6, 22, -39, -2, 7, 1, 932, 885, 68,l
2025-03-12 13:53:05.757,665, 534, 525, 1, -5, 1, -1, 3, 5, 921, 860, 49,m
2025-03-12 13:53:05.815,664, 530, 517, 2, -6, 1, -1, 5, 4, 920, 850, 29,m
2025-03-12 13:53:05.867,691, 538, 484, -3, -5, -2, -3, 6, 3, 921, 833, 48,m
2025-03-12 13:53:05.921,672, 541, 530, 0, -9, -3, -6, 10, 0, 923, 846, 60,m
2025-03-12 13:53:05.970,743, 507, 432, -9, -14, -2, -3, 7, 4, 937, 890, 56,m
2025-03-12 13:53:06.027,697, 478, 614, 12, -8, -7, -3, 8, 2, 957, 908, 34,m
2025-03-12 13:53:06.076,493, 499, 465, 25, 12, 21, -3, 7, 3, 967, 906, 64,m
2025-03-12 13:53:06.128,812, 586, 521, -24, 6, 10, -3, 7, 4, 964, 920, 45,m
2025-03-12 13:53:06.187,809, 674, 515, -14, -26, -19, -3, 7, 4, 968, 933, 52,m
2025-03-12 13:53:06.237,598, 798, 423, -3, 12, 20, -2, 3, 7, 977, 937, 45,m
2025-03-12 13:53:06.287,725, 459, 394, -10, 17, 14, -4, 7, 3, 976, 938, 51,m
2025-03-12 13:53:06.351,698, 395, 594, 2, -24, -27, -2, 6, 4, 975, 941, 34,m
2025-03-12 13:53:06.396,704, 724, 230, -1, 3, 12, -2, 7, 4, 979, 942, 49,m
2025-03-12 13:53:06.453,830, 368, 426, 0, 24, 10, -3, 7, 5, 976, 932, 56,m
2025-03-12 13:53:06.506,697, 453, 515, -17, 42, -34, -4, 7, 1, 966, 909, 48,m
2025-03-12 13:53:06.806,720, 524, 474, -1, -3, 2, -3, 7, 3, 940, 840, 50,n
2025-03-12 13:53:06.857,719, 540, 455, -3, -1, 2, -3, 3, 2, 941, 841, 55,n
2025-03-12 13:53:06.907,690, 526, 500, -1, -3, 2, -3, 8, 4, 942, 848, 71,n
2025-03-12 13:53:06.957,643, 537, 534, 5, -5, -8, -3, 6, 4, 944, 856, 57,n
2025-03-12 13:53:07.006,707, 505, 518, -6, -6, -7, -2, 7, 4, 947, 871, 33,n
2025-03-12 13:53:07.068,721, 580, 518, -9, -3, -4, -3, 7, 4, 956, 902, 71,n
2025-03-12 13:53:07.121,604, 782, 269, 1, 18, 24, -3, 7, 3, 969, 916, 54,n
2025-03-12 13:53:07.171,728, 588, 232, 8, 2, 6, -2, 7, 2, 974, 919, 49,n
2025-03-12 13:53:07.219,798, 4, 809, 2, -41, -36, -2, 6, 5, 970, 924, 45,n
2025-03-12 13:53:07.271,627, 819, 445, 8, -10, 5, -3, 5, 4, 975, 934, 58,n
2025-03-12 13:53:07.321,821, 450, 337, -13, 21, 7, -2, 7, 5, 972, 924, 77,n
2025-03-12 13:53:07.376,666, 475, 564, -4, 27, -35, -2, 7, 3, 965, 906, 43,n
2025-03-12 13:53:07.637,715, 539, 468, -2, 3, 3, -3, 5, 3, 952, 888, 54,o
2025-03-12 13:53:07.697,710, 527, 483, -2, 3, 3, -3, 5, 4, 953, 886, 51,o
2025-03-12 13:53:07.746,714, 527, 507, 1, -1, 2, -2, 7, 2, 956, 887, 30,o
2025-03-12 13:53:07.796,720, 540, 481, -3, 0, 2, -3, 7, 3, 956, 893, 44,o
2025-03-12 13:53:07.846,698, 515, 495, 0, -1, 5, -4, 6, 4, 958, 902, 48,o
2025-03-12 13:53:07.904,656, 518, 556, 1, -17, 8, -3, 6, 5, 960, 906, 57,o
2025-03-12 13:53:07.957,666, 555, 623, -22, -10, -12, -4, 7, 4, 964, 926, 31,o
2025-03-12 13:53:08.009,943, 744, 275, 42, 12, 0, -4, 5, 4, 967, 910, 67,o
2025-03-12 13:53:08.063,582, 1023, 429, -79, 23, 39, -3, 9, 3, 971, 931, 40,o
2025-03-12 13:53:08.120,742, 269, 570, 25, -24, -28, -2, 7, 4, 966, 930, 62,o
2025-03-12 13:53:08.171,807, 519, 359, 0, 35, -30, -4, 9, 1, 942, 886, 61,o
2025-03-12 13:53:08.449,712, 512, 493, -3, 0, 3, -3, 7, 3, 922, 784, 41,p
2025-03-12 13:53:08.504,699, 522, 507, -3, 1, 3, -4, 6, 3, 921, 788, 55,p
2025-03-12 13:53:08.555,709, 517, 500, 0, -3, 1, -1, 6, 3, 924, 799, 53,p
2025-03-12 13:53:08.607,683, 504, 503, -2, -5, -5, -3, 5, 4, 928, 825, 64,p
2025-03-12 13:53:08.657,663, 531, 551, -6, -21, -4, -4, 8, 3, 932, 869, 42,p
2025-03-12 13:53:08.713,789, 413, 503, 14, 6, 8, -4, 7, 4, 963, 898, 55,p
2025-03-12 13:53:08.766,478, 830, 305, -20, 36, 50, -4, 8, 4, 972, 906, 50,p
2025-03-12 13:53:08.819,701, 349, 539, -27, 12, -7, -1, 7, 2, 968, 916, 42,p
2025-03-12 13:53:08.877,658, 609, 851, -37, -30, -23, -4, 8, 3, 971, 936, 50,p
2025-03-12 13:53:08.927,814, 563, 351, 4, 12, 19, -4, 8, 5, 974, 940, 70,p
2025-03-12 13:53:08.985,950, 384, 219, -4, 24, -5, -4, 10, 4, 969, 907, 63,p
2025-03-12 13:53:09.297,696, 518, 514, -2, 0, 4, -2, 7, 2, 944, 875, 62,q
2025-03-12 13:53:09.336,696, 521, 508, 0, 0, 4, -3, 7, 4, 943, 876, 54,q
2025-03-12 13:53:09.397,707, 509, 483, -2, -1, 2, -4, 7, 4, 946, 875, 47,q
2025-03-12 13:53:09.447,706, 519, 501, -3, -2, 2, -3, 6, 2, 947, 884, 57,q
2025-03-12 13:53:09.501,678, 525, 542, 0, -12, 5, -3, 8, 4, 951, 895, 68,q
2025-03-12 13:53:09.557,633, 518, 572, -22, -5, -10, -2, 9, 2, 958, 914, 53,q
2025-03-12 13:53:09.607,842, 316, 606, 22, -5, -23, -3, 7, 4, 965, 901, 53,q
2025-03-12 13:53:09.663,841, 774, 170, -9, 27, 42, -2, 6, 4, 971, 907, 51,q
2025-03-12 13:53:09.718,636, 276, 677, -20, -4, 2, -3, 8, 2, 972, 930, 68,q
2025-03-12 13:53:09.769,708, 297, 723, 26, -14, -15, -5, 9, 4, 973, 932, 36,q
2025-03-12 13:53:09.820,887, 604, 442, 15, 15, 26, -4, 7, 4, 975, 925, 63,q
2025-03-12 13:53:09.870,775, 264, 604, -6, 3, 3, 0, 9, 4, 974, 925, 38,q
2025-03-12 13:53:09.927,717, 445, 526, -36, 62, -44, -5, 8, 2, 961, 904, 63,q
2025-03-12 13:53:10.181,720, 524, 475, 4, -5, 10, -3, 7, 3, 941, 869, 50,r
2025-03-12 13:53:10.235,718, 513, 467, 4, -4, 9, -1, 8, 5, 942, 870, 55,r
2025-03-12 13:53:10.287,738, 488, 498, 2, 3, -1, 0, 7, -1, 947, 874, 39,r
2025-03-12 13:53:10.337,671, 537, 519, -3, 1, -3, -3, 7, 4, 946, 866, 44,r
2025-03-12 13:53:10.390,769, 492, 508, 2, 1, -7, -3, 7, 3, 947, 858, 60,r
2025-03-12 13:53:10.440,670, 543, 520, 1, -3, -4, -3, 7, 3, 947, 873, 56,r
2025-03-12 13:53:10.490,661, 507, 569, 2, -16, 4, -1, 8, 3, 954, 900, 44,r
2025-03-12 13:53:10.540,685, 534, 565, -7, 13, 19, -3, 6, 4, 967, 911, 70,r
2025-03-12 13:53:10.597,775, 858, 135, -17, 22, 25, -2, 7, 3, 972, 917, 60,r
2025-03-12 13:53:10.656,413, 83, 733, -12, -42, -40, -2, 8, 2, 972, 937, 53,r
2025-03-12 13:53:10.704,940, 727, 105, -5, 39, 6, -3, 7, 5, 970, 932, 65,r
2025-03-12 13:53:10.757,516, 493, 644, -27, 56, -19, -1, 7, 4, 964, 917, 66,r
2025-03-12 13:53:11.017,681, 490, 546, -1, -7, 3, -5, 8, 1, 951, 896, 44,s
2025-03-12 13:53:11.070,681, 484, 540, 1, -8, 3, -2, 10, 2, 951, 898, 40,s
2025-03-12 13:53:11.127,713, 506, 512, 2, -5, 4, -2, 7, 2, 951, 902, 51,s
2025-03-12 13:53:11.171,705, 485, 524, 0, -4, 3, -3, 7, 3, 954, 902, 31,s
2025-03-12 13:53:11.227,721, 501, 499, -3, -5, 5, -2, 6, 4, 955, 910, 49,s
2025-03-12 13:53:11.277,672, 458, 581, -6, -16, 9, -2, 6, 5, 958, 918, 51,s
2025-03-12 13:53:11.336,738, 490, 536, -24, 3, -2, -3, 7, 3, 963, 928, 49,s
2025-03-12 13:53:11.387,725, 429, 533, 36, 1, -13, -3, 9, 4, 963, 925, 56,s
2025-03-12 13:53:11.437,674, 716, 312, -31, 27, 33, -2, 7, 4, 973, 929, 55,s
2025-03-12 13:53:11.487,526, 650, 454, -14, 14, 26, -3, 11, 1, 975, 922, 53,s
2025-03-12 13:53:11.553,1016, 260, 266, 14, 31, -25, -3, 8, 2, 959, 870, 43,s
2025-03-12 13:53:11.605,500, 515, 843, -3, 28, -30, -2, 6, 1, 942, 871, 68,s
2025-03-12 13:53:11.843,698, 518, 508, -1, -2, 2, -3, 6, 2, 908, 842, 64,t
2025-03-12 13:53:11.897,684, 515, 505, -1, -2, 2, -4, 9, 6, 909, 842, 53,t
2025-03-12 13:53:11.944,674, 527, 527, 2, -5, 3, -2, 5, 3, 909, 847, 51,t
2025-03-12 13:53:11.997,690, 529, 505, -3, -6, 2, -3, 6, 3, 911, 852, 51,t
2025-03-12 13:53:12.047,679, 520, 520, 2, -16, 2, -2, 5, 3, 910, 860, 30,t
2025-03-12 13:53:12.101,748, 515, 490, -8, -5, -4, -3, 4, 6, 914, 880, 59,t
2025-03-12 13:53:12.153,666, 518, 513, -3, -9, -2, -4, 6, 4, 922, 890, 47,t
2025-03-12 13:53:12.207,673, 522, 564, -8, -16, 3, -2, 5, 3, 938, 911, 42,t
2025-03-12 13:53:12.256,830, 564, 463, 91, 26, 20, -3, 6, 5, 964, 909, 52,t
2025-03-12 13:53:12.311,1007, 763, 70, -23, 39, 57, -3, 6, 5, 974, 931, 51,t
2025-03-12 13:53:12.368,641, -3, 697, -16, -8, -64, -1, 5, 3, 967, 924, 73,t
2025-03-12 13:53:12.421,724, 528, 544, 2, -46, -24, -3, 6, 4, 960, 911, 53,t
2025-03-12 13:53:12.477,880, 832, 433, -5, -2, 13, -3, 7, 3, 972, 936, 68,t
2025-03-12 13:53:12.527,824, 423, 476, 3, 28, -4, -2, 6, 4, 970, 930, 53,t
2025-03-12 13:53:12.576,567, 540, 649, 1, 30, -19, 1, 5, 5, 961, 905, 52,t
2025-03-12 13:53:12.817,681, 529, 532, -4, 2, -1, -2, 4, 4, 940, 840, 64,u
2025-03-12 13:53:12.869,684, 522, 529, -1, 2, -1, -2, 7, 5, 940, 838, 49,u
2025-03-12 13:53:12.923,696, 508, 511, -2, -1, -1, -3, 7, 1, 941, 844, 35,u
2025-03-12 13:53:12.977,688, 538, 505, -3, -1, -2, -3, 6, 3, 939, 850, 64,u
2025-03-12 13:53:13.031,690, 532, 518, -3, -3, -4, -1, 5, 3, 936, 843, 31,u
2025-03-12 13:53:13.077,674, 543, 541, 0, -5, 2, -2, 5, 5, 934, 850, 67,u
2025-03-12 13:53:13.134,683, 549, 494, -2, -8, 3, -3, 7, 3, 941, 864, 69,u
2025-03-12 13:53:13.187,629, 533, 601, -3, -26, 4, -3, 6, 5, 949, 891, 58,u
2025-03-12 13:53:13.236,673, 528, 332, 38, 0, -9, -4, 5, 5, 966, 907, 63,u
2025-03-12 13:53:13.287,886, 849, 138, 1, 27, 48, -4, 6, 4, 973, 923, 67,u
2025-03-12 13:53:13.336,679, 278, 677, -33, -6, 2, -3, 8, 4, 974, 936, 54,u
2025-03-12 13:53:13.400,729, 385, 504, 22, -16, -19, -5, 10, 1, 970, 934, 63,u
2025-03-12 13:53:13.447,761, 531, 408, 4, 16, 10, 0, 8, 2, 969, 913, 38,u
2025-03-12 13:53:13.502,670, 437, 584, -9, 14, -9, -6, 6, 3, 962, 892, 49,u
2025-03-12 13:53:13.757,698, 517, 511, 5, -1, -2, -3, 10, 0, 938, 800, 51,v
2025-03-12 13:53:13.806,698, 517, 491, 6, -1, -2, -2, 7, 4, 936, 796, 47,v
2025-03-12 13:53:13.861,679, 506, 526, 5, 2, -3, -3, 3, 6, 937, 799, 48,v
2025-03-12 13:53:13.911,691, 536, 482, 9, -2, -5, -2, 9, 2, 934, 807, 58,v
2025-03-12 13:53:13.969,662, 531, 485, -3, -9, -12, -2, 6, 4, 935, 832, 65,v
2025-03-12 13:53:14.020,709, 572, 607, -12, -5, -9, -3, 5, 1, 953, 898, 45,v
2025-03-12 13:53:14.069,849, 922, 475, -11, 21, 46, -3, 7, 1, 970, 912, 68,v
2025-03-12 13:53:14.127,749, 797, 243, -41, 14, 28, -4, 9, 3, 975, 934, 46,v
2025-03-12 13:53:14.186,637, 410, 649, 21, -18, -20, -1, 7, 3, 968, 933, 68,v
2025-03-12 13:53:14.236,727, 446, 405, -17, 67, -26, -3, 8, 1, 951, 891, 52,v
2025-03-12 13:53:14.287,503, 565, 769, 3, 13, -6, -3, 7, 2, 939, 847, 55,v
2025-03-12 13:53:14.550,694, 520, 498, 2, -6, -3, -1, 4, 3, 920, 791, 66,w
2025-03-12 13:53:14.601,707, 527, 479, 2, -4, -4, -1, 6, 2, 919, 790, 48,w
2025-03-12 13:53:14.657,678, 533, 510, 2, 0, -6, -2, 5, 3, 920, 777, 31,w
2025-03-12 13:53:14.707,580, 533, 571, 7, -16, -4, -5, 9, 1, 924, 801, 44,w
2025-03-12 13:53:14.757,819, 463, 490, -25, -1, -4, -2, 5, 4, 952, 884, 67,w
2025-03-12 13:53:14.812,427, 468, 347, -4, 16, 55, 1, 7, 4, 973, 912, 47,w
2025-03-12 13:53:14.870,748, 562, 470, -26, 15, 21, -3, 10, 1, 972, 927, 68,w
2025-03-12 13:53:14.920,700, 473, 871, 5, -26, -23, -4, 6, 4, 973, 933, 30,w
2025-03-12 13:53:14.977,542, 552, 305, -1, 18, 42, -3, 6, 2, 976, 930, 51,w
2025-03-12 13:53:15.027,726, 342, 604, -20, -5, 6, -3, 6, 4, 976, 936, 57,w
2025-03-12 13:53:15.083,724, 420, 429, -5, 52, -34, -2, 7, 5, 965, 918, 54,w
2025-03-12 13:53:15.607,699, 507, 526, -1, 0, 0, -3, 7, 4, 936, 801, 54,x
2025-03-12 13:53:15.662,699, 502, 519, -1, -1, -1, -1, 11, 4, 937, 806, 62,x
2025-03-12 13:53:15.718,706, 512, 500, -3, 0, -2, -4, 5, 5, 937, 817, 43,x
2025-03-12 13:53:15.770,699, 516, 517, -3, -1, -1, -4, 7, 2, 937, 829, 46,x
2025-03-12 13:53:15.819,701, 508, 512, -1, 1, -1, -3, 7, 4, 935, 833, 54,x
2025-03-12 13:53:15.868,702, 495, 529, 0, -2, 0, -5, 8, 2, 934, 830, 48,x
2025-03-12 13:53:15.918,728, 526, 487, 0, 0, -1, -3, 6, 5, 932, 835, 62,x
2025-03-12 13:53:15.969,697, 515, 529, -3, -2, -1, -4, 7, 3, 934, 841, 67,x
2025-03-12 13:53:16.027,710, 510, 503, -3, -2, -2, -5, 7, 5, 935, 845, 37,x
2025-03-12 13:53:16.083,696, 514, 513, -4, -1, 0, -3, 6, 4, 935, 849, 54,x
2025-03-12 13:53:16.126,725, 517, 491, -7, -2, 0, -3, 8, 3, 938, 856, 52,x
2025-03-12 13:53:16.187,723, 520, 504, -6, -7, 6, -3, 11, -1, 947, 887, 35,x
2025-03-12 13:53:16.237,686, 402, 585, -10, -27, 3, -4, 7, 6, 957, 918, 59,x
2025-03-12 13:53:16.289,849, 369, 598, 41, -10, -23, -6, 7, 6, 969, 923, 34,x
2025-03-12 13:53:16.352,1070, 946, -181, 15, 42, 33, -4, 5, 3, 966, 902, 61,x
2025-03-12 13:53:16.401,759, -10, 949, -12, -12, -49, -1, 6, 3, 951, 885, 69,x
2025-03-12 13:53:16.457,771, 602, 589, 19, -28, -8, 0, 1, 6, 969, 921, 41,x
2025-03-12 13:53:16.517,676, 489, 393, -15, 26, 36, -4, 10, 3, 968, 917, 59,x
2025-03-12 13:53:16.570,695, 590, 456, -27, 41, -45, -3, 8, 2, 957, 882, 35,x
2025-03-12 13:53:16.812,699, 544, 478, -8, -3, -1, -2, 5, 4, 924, 815, 41,y
2025-03-12 13:53:16.862,690, 532, 484, -7, -3, -2, -3, 7, 4, 925, 819, 47,y
2025-03-12 13:53:16.919,700, 556, 471, -2, -3, 0, -4, 5, 3, 929, 836, 61,y
2025-03-12 13:53:16.970,679, 541, 501, -5, -6, -4, -1, 5, 4, 932, 857, 37,y
2025-03-12 13:53:17.018,729, 477, 472, -7, -20, -6, -3, 4, 5, 942, 886, 65,y
2025-03-12 13:53:17.077,816, 465, 437, 51, -5, -5, 0, 3, 5, 965, 908, 38,y
2025-03-12 13:53:17.127,892, 896, 160, -11, 35, 53, -3, 7, 5, 968, 922, 68,y
2025-03-12 13:53:17.185,621, 231, 781, 2, 1, -40, -2, 7, 4, 962, 909, 211,y
2025-03-12 13:53:17.238,778, 284, 377, 42, -9, -12, -2, 6, 4, 967, 914, 344,y
2025-03-12 13:53:17.287,714, 758, 302, -22, 36, 34, -3, 7, 4, 973, 905, 41,y
2025-03-12 13:53:17.347,881, 174, 585, -8, 13, -45, -3, 7, 2, 954, 776, 64,y
2025-03-12 13:53:17.597,728, 529, 479, -10, -1, -3, -3, 7, 0, 914, 725, 30,z
2025-03-12 13:53:17.651,710, 526, 473, -11, 0, -3, 0, 5, 6, 913, 716, 38,z
2025-03-12 13:53:17.702,669, 522, 525, -5, 1, -3, -3, 7, 2, 912, 739, 37,z
2025-03-12 13:53:17.757,684, 533, 509, -1, -2, 0, -2, 6, 3, 912, 767, 69,z
2025-03-12 13:53:17.807,672, 537, 541, 0, -5, -1, -3, 6, 4, 910, 780, 55,z
2025-03-12 13:53:17.857,674, 531, 513, 3, -14, -1, -4, 6, 3, 913, 796, 34,z
2025-03-12 13:53:17.910,633, 514, 552, -12, -11, 0, -4, 8, 1, 924, 820, 69,z
2025-03-12 13:53:17.969,829, 568, 554, 10, -12, -10, -3, 4, 3, 954, 896, 56,z
2025-03-12 13:53:18.019,642, 495, 397, -25, 3, 30, -2, 4, 4, 972, 937, 57,z
2025-03-12 13:53:18.077,567, 730, 469, 21, 15, 21, -4, 7, 3, 969, 916, 48,z
2025-03-12 13:53:18.127,1109, 356, 316, -15, 10, -9, -3, 6, 4, 967, 870, 50,z
2025-03-12 13:53:18.183,604, 458, 449, -16, 4, 35, -2, 7, 5, 978, 933, 43,z
2025-03-12 13:53:18.237,782, 391, 425, 0, 13, -9, -1, 7, 5, 968, 923, 56,z
2025-03-12 13:53:18.286,477, 555, 702, -3, -10, -54, -4, 7, 3, 957, 863, 48,z
2025-03-12 13:53:18.336,810, 849, 73, -44, -15, 3, -3, 4, 4, 972, 926, 61,z
2025-03-12 13:53:18.397,825, 508, 457, -5, 12, 20, -2, 7, 3, 970, 930, 58,z
2025-03-12 13:53:18.452,747, 469, 421, -15, 52, -28, -2, 6, 3, 959, 881, 51,z
2025-03-12 13:53:18.716,673, 550, 505, -4, -5, -6, -2, 5, 3, 905, 737, 33,0
2025-03-12 13:53:18.766,657, 566, 520, -4, -5, -3, 0, 6, 0, 903, 747, 54,0
2025-03-12 13:53:18.819,697, 554, 474, 2, -5, 0, -2, 6, 2, 902, 763, 51,0
2025-03-12 13:53:18.871,703, 538, 504, -8, -3, -5, -1, 4, 3, 905, 766, 35,0
2025-03-12 13:53:18.918,693, 550, 508, -2, -2, -7, -1, 5, 3, 908, 765, 63,0
2025-03-12 13:53:18.978,695, 534, 506, -1, -5, -13, -3, 6, 3, 913, 765, 51,0
2025-03-12 13:53:19.027,663, 576, 496, 5, -10, -10, -3, 5, 4, 922, 779, 47,0
2025-03-12 13:53:19.077,637, 636, 448, 3, -5, 4, -3, 3, 3, 936, 794, 53,0
2025-03-12 13:53:19.134,659, 573, 465, 2, -5, 21, 0, 4, 3, 945, 823, 46,0
2025-03-12 13:53:19.183,734, 561, 420, -4, 5, 21, -3, 5, 3, 951, 840, 61,0
2025-03-12 13:53:19.237,710, 516, 466, -10, 9, 7, -3, 5, 6, 953, 855, 57,0
2025-03-12 13:53:19.287,670, 536, 531, -5, -6, 8, -4, 5, 3, 958, 880, 49,0
2025-03-12 13:53:19.337,758, 509, 429, -3, 3, -2, -4, 7, 2, 957, 885, 43,0
2025-03-12 13:53:19.386,796, 557, 384, -9, 12, -13, -3, 7, 4, 951, 884, 66,0
2025-03-12 13:53:19.450,635, 553, 619, -22, 15, -10, -1, 6, 3, 954, 883, 55,0
2025-03-12 13:53:19.502,636, 529, 561, -2, -19, 9, -2, 5, 5, 953, 891, 58,0
2025-03-12 13:53:19.556,685, 516, 484, -5, -16, 4, -4, 6, 3, 957, 901, 38,0
2025-03-12 13:53:19.607,581, 625, 571, -15, -6, -12, -3, 6, 4, 961, 917, 51,0
2025-03-12 13:53:19.665,620, 489, 383, 29, -2, -16, -3, 5, 6, 969, 915, 42,0
2025-03-12 13:53:19.720,791, 1015, 164, -35, 49, 68, -3, 5, 5, 975, 924, 49,0
2025-03-12 13:53:19.767,528, 438, 695, -63, 1, 21, -1, 12, 0, 977, 941, 40,0
2025-03-12 13:53:19.826,760, 460, 374, 59, -19, -42, -4, 7, 3, 962, 929, 65,0
2025-03-12 13:53:19.884,721, 602, 425, -4, 47, -37, -1, 6, 1, 926, 888, 112,0
2025-03-12 13:53:20.177,728, 561, 436, -1, -6, 2, -4, 6, 2, 922, 828, 51,1
2025-03-12 13:53:20.236,721, 560, 433, -4, -3, 2, -3, 6, 1, 923, 830, 63,1
2025-03-12 13:53:20.288,704, 529, 510, -1, -2, -1, -3, 5, 4, 931, 848, 53,1
2025-03-12 13:53:20.338,704, 560, 466, -5, 1, -1, -2, 7, 3, 934, 859, 45,1
2025-03-12 13:53:20.388,701, 534, 501, 0, -1, -2, -3, 5, 4, 937, 867, 49,1
2025-03-12 13:53:20.438,638, 574, 548, -1, -3, 0, -3, 6, 4, 943, 866, 56,1
2025-03-12 13:53:20.499,978, 830, 356, 14, -3, -13, -3, 6, 4, 955, 885, 49,1
2025-03-12 13:53:20.552,815, 794, 675, -29, -9, 20, -3, 7, 3, 962, 931, 61,1
2025-03-12 13:53:20.607,643, 291, 806, 61, -19, -4, -3, 5, 5, 971, 928, 204,1
2025-03-12 13:53:20.662,1048, 291, 272, 15, 30, 39, -3, 6, 4, 971, 921, 68,1
2025-03-12 13:53:20.715,711, 419, 505, -34, 41, -18, -6, 8, 0, 962, 873, 43,1
2025-03-12 13:53:20.771,1056, 451, 522, 31, -24, -32, -3, 6, 2, 960, 892, 66,1
2025-03-12 13:53:20.827,655, 586, 229, -47, 9, 34, -3, 6, 3, 971, 931, 71,1
2025-03-12 13:53:20.877,745, 418, 219, -20, 69, -56, -2, 6, 2, 955, 898, 48,1
2025-03-12 13:53:21.146,652, 563, 486, -7, -6, -4, -3, 7, 2, 904, 831, 59,2
2025-03-12 13:53:21.202,633, 556, 505, -7, -7, -4, 1, 5, 5, 904, 833, 66,2
2025-03-12 13:53:21.252,740, 557, 426, 4, -14, 0, -3, 3, 4, 908, 840, 65,2
2025-03-12 13:53:21.302,630, 541, 534, 0, -12, -6, -3, 4, 3, 916, 854, 48,2
2025-03-12 13:53:21.357,788, 690, 459, 20, -8, -14, -3, 4, 4, 939, 888, 49,2
2025-03-12 13:53:21.415,536, 587, 372, -10, -12, 32, -4, 3, 4, 963, 923, 66,2
2025-03-12 13:53:21.468,598, 784, 312, 21, 28, 34, -2, 5, 3, 968, 920, 46,2
2025-03-12 13:53:21.519,1222, 536, 268, -10, 13, -2, -2, 4, 5, 964, 905, 60,2
2025-03-12 13:53:21.576,1018, 1044, 431, -25, 1, 43, -4, 6, 3, 974, 939, 47,2
2025-03-12 13:53:21.633,754, 529, 256, -3, 45, -26, -5, 7, 2, 965, 923, 64,2
2025-03-12 13:53:21.927,628, 582, 534, -6, -6, 2, -3, 5, 4, 906, 829, 38,3
2025-03-12 13:53:21.977,631, 576, 502, -3, -8, 3, -1, 2, 3, 907, 831, 50,3
2025-03-12 13:53:22.027,691, 572, 446, 0, -12, 1, -4, 4, 3, 913, 844, 68,3
2025-03-12 13:53:22.083,715, 565, 448, -12, -8, -2, -1, 4, 5, 922, 856, 42,3
2025-03-12 13:53:22.137,607, 609, 511, -14, -10, -7, -3, 3, 6, 928, 857, 58,3
2025-03-12 13:53:22.186,794, 753, 542, 5, -18, -13, -2, 2, 3, 954, 899, 31,3
2025-03-12 13:53:22.246,729, 531, 581, -31, 13, 37, -4, 5, 5, 968, 929, 49,3
2025-03-12 13:53:22.300,503, 434, 544, 23, 15, 15, -3, 3, 6, 972, 925, 37,3
2025-03-12 13:53:22.349,903, 412, 380, 9, 6, -7, -5, 5, 5, 967, 918, 68,3
2025-03-12 13:53:22.407,611, 525, 536, -16, 20, 17, -3, 4, 2, 969, 910, 64,3
2025-03-12 13:53:22.457,917, 462, 273, -6, 38, -14, -3, 7, 2, 955, 853, 56,3
2025-03-12 13:53:22.512,545, 510, 778, -13, 34, -29, -2, 6, 1, 900, 782, 65,3
2025-03-12 13:53:22.777,701, 559, 451, 2, -2, 3, -2, 4, 3, 901, 840, 30,4
2025-03-12 13:53:22.827,691, 555, 467, 1, 0, 2, -1, 2, 4, 904, 840, 51,4
2025-03-12 13:53:22.881,679, 562, 491, -1, -5, 4, -3, 3, 5, 913, 845, 70,4
2025-03-12 13:53:22.931,683, 570, 482, 0, -6, 1, -3, 5, 4, 923, 850, 55,4
2025-03-12 13:53:22.984,710, 571, 430, -9, -4, -4, -2, 4, 5, 927, 847, 58,4
2025-03-12 13:53:23.036,641, 564, 508, -6, -8, -4, -3, 4, 4, 932, 861, 57,4
2025-03-12 13:53:23.086,695, 549, 564, 7, -28, 8, -3, 5, 3, 950, 901, 50,4
2025-03-12 13:53:23.136,670, 458, 559, 13, -10, -8, -4, 3, 6, 964, 918, 43,4
2025-03-12 13:53:23.190,998, 777, 297, 15, 16, 4, -2, 3, 5, 964, 884, 52,4
2025-03-12 13:53:23.247,1038, 883, 339, 3, 28, 30, -4, 4, 4, 969, 915, 60,4
2025-03-12 13:53:23.300,744, 516, 613, -2, -1, 17, -2, 6, 3, 970, 926, 43,4
2025-03-12 13:53:23.357,461, 581, 658, 22, -5, -30, -3, 4, 5, 957, 907, 312,4
2025-03-12 13:53:23.406,755, 1592, 314, 19, 4, 15, -1, 4, 8, 969, 913, 49,4
2025-03-12 13:53:23.459,774, 551, 152, 2, 28, 22, -3, 6, 4, 969, 885, 69,4
2025-03-12 13:53:23.757,702, 594, 438, -4, -1, 2, -4, 0, 5, 922, 828, 46,5
2025-03-12 13:53:23.809,690, 582, 442, -5, -1, 1, -4, 0, 5, 922, 834, 47,5
2025-03-12 13:53:23.865,676, 550, 509, -8, -2, 1, -4, 4, 4, 927, 854, 47,5
2025-03-12 13:53:23.917,689, 575, 447, -10, 0, -2, -1, 3, 2, 932, 857, 41,5
2025-03-12 13:53:23.967,693, 553, 479, -12, -4, -2, -3, 5, 5, 938, 848, 51,5
2025-03-12 13:53:24.017,649, 565, 494, -4, -5, 2, -3, 4, 4, 944, 859, 38,5
2025-03-12 13:53:24.077,759, 445, 459, 15, -2, -11, 0, 3, 8, 956, 888, 47,5
2025-03-12 13:53:24.131,786, 707, 271, -33, 11, 26, -3, 4, 4, 966, 930, 65,5
2025-03-12 13:53:24.184,585, 435, 665, 13, -11, -7, -1, 6, 5, 964, 926, 63,5
2025-03-12 13:53:24.238,1058, 558, 289, 40, 1, -13, -3, 5, 4, 965, 915, 69,5
2025-03-12 13:53:24.287,602, 581, 661, -27, 34, 31, -1, 6, 3, 973, 926, 64,5
2025-03-12 13:53:24.337,675, 437, 419, 2, 18, 9, -2, 6, 3, 968, 905, 67,5
2025-03-12 13:53:24.398,874, 416, 359, 15, 26, -50, -3, 5, 5, 936, 835, 40,5
2025-03-12 13:53:24.659,678, 550, 495, -10, -8, 1, -3, 4, 3, 914, 853, 47,6
2025-03-12 13:53:24.706,680, 554, 489, -9, -8, 1, -5, 4, 4, 915, 855, 49,6
2025-03-12 13:53:24.766,683, 558, 483, -13, -14, 4, -2, 5, 3, 922, 870, 48,6
2025-03-12 13:53:24.816,663, 555, 502, -16, -14, 8, -4, 5, 5, 936, 893, 35,6
2025-03-12 13:53:24.867,755, 466, 353, -9, -1, -5, -4, 6, 6, 948, 915, 52,6
2025-03-12 13:53:24.927,673, 294, 632, 16, -2, -17, -3, 6, 5, 956, 920, 66,6
2025-03-12 13:53:24.977,1068, 1135, -14, 82, 45, 36, -2, 3, 7, 969, 913, 64,6
2025-03-12 13:53:25.037,645, 628, 447, -39, 36, 37, -2, 4, 4, 972, 932, 51,6
2025-03-12 13:53:25.087,780, 135, 706, 48, -28, -33, -3, 7, 3, 959, 918, 70,6
2025-03-12 13:53:25.137,770, 599, 397, -18, 44, -41, -3, 4, 4, 913, 870, 42,6
2025-03-12 13:53:25.441,677, 558, 492, -4, -15, -2, -5, 3, 3, 877, 782, 55,7
2025-03-12 13:53:25.486,665, 571, 483, -4, -14, -1, -5, 6, 5, 877, 781, 67,7
2025-03-12 13:53:25.549,656, 572, 556, 3, -30, 9, -3, 5, 4, 897, 802, 60,7
2025-03-12 13:53:25.599,854, 502, 206, -7, 5, 0, -3, 4, 5, 938, 891, 41,7
2025-03-12 13:53:25.651,526, 389, 697, 5, 5, 22, -3, 4, 5, 958, 924, 38,7
2025-03-12 13:53:25.703,647, 547, 464, 47, 27, 24, -3, 4, 3, 961, 912, 60,7
2025-03-12 13:53:25.756,908, 558, 380, -14, 49, 53, -3, 5, 5, 958, 896, 67,7
2025-03-12 13:53:25.807,391, 416, 783, 25, -26, -57, -1, 1, 8, 945, 867, 54,7
2025-03-12 13:53:25.868,887, 560, 331, -35, -12, -2, -4, 4, 5, 957, 916, 68,7
2025-03-12 13:53:25.918,744, 510, 468, 0, 16, 37, -3, 4, 4, 960, 914, 65,7
2025-03-12 13:53:25.970,616, 529, 456, -15, 48, -33, -3, 5, 3, 947, 887, 53,7
2025-03-12 13:53:26.027,563, 621, 665, 2, -11, 1, -3, 5, 2, 933, 839, 65,7
2025-03-12 13:53:26.077,744, 556, 395, 8, -19, 3, -1, 4, 4, 925, 809, 77,7
2025-03-12 13:53:26.950,684, 557, 492, -3, -3, 0, -3, 4, 3, 918, 802, 69,8
2025-03-12 13:53:27.000,686, 554, 494, -3, -2, 1, -2, 4, 2, 917, 806, 62,8
2025-03-12 13:53:27.053,703, 547, 489, -7, -1, 1, -2, 5, 4, 923, 821, 50,8
2025-03-12 13:53:27.107,693, 557, 498, -6, -1, 3, -4, 6, 4, 929, 837, 59,8
2025-03-12 13:53:27.157,693, 535, 499, -4, 0, 3, -2, 4, 2, 935, 847, 45,8
2025-03-12 13:53:27.212,697, 540, 484, 1, -3, 5, -1, 5, 5, 938, 856, 62,8
2025-03-12 13:53:27.257,682, 510, 497, 0, -1, 4, -3, 5, 3, 942, 866, 63,8
2025-03-12 13:53:27.314,631, 548, 566, 2, -18, 4, -4, 6, 3, 942, 881, 60,8
2025-03-12 13:53:27.367,500, 297, 638, 25, -3, -22, -4, 8, 5, 948, 896, 43,8
2025-03-12 13:53:27.420,774, 877, 16, 10, 28, 28, -4, 5, 4, 959, 899, 65,8
2025-03-12 13:53:27.467,494, 695, 646, -33, 16, 18, -3, 7, 2, 961, 920, 70,8
2025-03-12 13:53:27.526,727, 561, 220, 12, -39, -55, -4, 7, 2, 954, 923, 67,8
2025-03-12 13:53:27.580,686, 509, 591, 1, -13, -11, -3, 5, 5, 968, 934, 39,8
2025-03-12 13:53:27.633,667, 481, 408, 13, 15, 23, -3, 4, 5, 960, 917, 64,8
2025-03-12 13:53:27.923,673, 568, 483, 0, 0, 10, -4, 5, 4, 916, 807, 50,9
2025-03-12 13:53:27.977,662, 572, 497, 2, 0, 13, -6, 4, 4, 917, 798, 40,9
2025-03-12 13:53:28.026,710, 530, 466, 7, -3, 8, -4, 5, 4, 912, 775, 55,9
2025-03-12 13:53:28.077,695, 540, 483, -3, 0, 3, -3, 4, 3, 917, 805, 39,9
2025-03-12 13:53:28.126,721, 540, 473, -4, -2, 1, -2, 2, 7, 924, 830, 55,9
2025-03-12 13:53:28.182,687, 552, 494, -10, -2, 3, -2, 5, 3, 931, 854, 52,9
2025-03-12 13:53:28.237,712, 549, 460, -14, -15, -6, -3, 5, 6, 941, 889, 52,9
2025-03-12 13:53:28.288,638, 290, 668, -2, -5, -17, -3, 5, 5, 948, 909, 61,9
2025-03-12 13:53:28.339,1053, 1016, 73, 18, 39, 44, -4, 10, 5, 962, 913, 43,9
2025-03-12 13:53:28.400,714, 360, 576, -20, 10, 16, -3, 7, 3, 961, 923, 56,9
2025-03-12 13:53:28.451,723, 456, 619, 26, -14, -11, -5, 6, 5, 965, 923, 48,9
2025-03-12 13:53:28.506,970, 745, 471, -14, 25, 32, -3, 8, 2, 961, 910, 59,9
2025-03-12 13:53:28.557,902, 261, 443, 3, 20, -38, -3, 8, 2, 945, 858, 45,9
2025-03-12 13:53:28.829,689, 549, 452, -17, 6, -7, -3, 5, 3, 887, 779, 54,+
2025-03-12 13:53:28.887,669, 530, 475, -13, 7, -9, -1, 6, 2, 887, 783, 47,+
2025-03-12 13:53:28.935,658, 561, 547, -1, 0, 2, -2, 5, 3, 895, 802, 65,+
2025-03-12 13:53:28.986,693, 541, 502, -3, 1, 0, -3, 5, 4, 905, 810, 64,+
2025-03-12 13:53:29.037,687, 564, 517, -2, -3, 3, -4, 4, 3, 914, 825, 40,+
2025-03-12 13:53:29.087,682, 547, 513, -3, -3, 3, -4, 6, 4, 921, 847, 63,+
2025-03-12 13:53:29.139,673, 557, 503, -5, -3, 4, -1, 6, 3, 926, 859, 63,+
2025-03-12 13:53:29.188,686, 537, 505, -2, -1, 2, -3, 5, 3, 930, 865, 42,+
2025-03-12 13:53:29.246,695, 533, 511, -4, -1, 0, -1, 6, 2, 937, 871, 41,+
2025-03-12 13:53:29.300,675, 551, 501, -2, -8, 2, -3, 6, 3, 935, 870, 63,+
2025-03-12 13:53:29.350,649, 544, 517, -13, -15, -3, -3, 6, 5, 935, 879, 68,+
2025-03-12 13:53:29.410,823, 270, 220, -12, -2, -11, -3, 7, 4, 948, 909, 51,+
2025-03-12 13:53:29.464,1070, 1131, 333, 27, 30, 49, -4, 5, 7, 970, 923, 38,+
2025-03-12 13:53:29.517,844, 793, 212, -4, 29, 34, -3, 6, 5, 966, 910, 71,+
2025-03-12 13:53:29.566,351, 423, 725, 14, -17, -77, -3, 5, 9, 956, 884, 32,+
2025-03-12 13:53:29.627,878, 399, 318, -20, -19, -4, -2, 6, 4, 963, 921, 64,+
2025-03-12 13:53:29.681,581, 294, 653, -14, 17, 32, -4, 6, 5, 960, 926, 72,+
2025-03-12 13:53:29.737,659, 607, 419, -13, 62, -51, -2, 4, 5, 947, 892, 77,+
2025-03-12 13:53:30.023,631, 536, 537, 11, -3, 4, -2, 5, 4, 926, 830, 58,-
2025-03-12 13:53:30.067,623, 540, 537, 13, -5, 3, 0, 6, 4, 928, 824, 60,-
2025-03-12 13:53:30.127,647, 543, 489, 5, -9, -6, -3, 7, 3, 928, 817, 36,-
2025-03-12 13:53:30.182,659, 658, 530, -1, -4, -15, -4, 6, 3, 943, 856, 52,-
2025-03-12 13:53:30.232,759, 498, 545, 11, -2, -3, -3, 6, 4, 954, 899, 57,-
2025-03-12 13:53:30.287,854, 888, 369, -24, -13, 39, -4, 8, 4, 966, 933, 39,-
2025-03-12 13:53:30.337,649, 538, 573, 25, -1, 9, -3, 5, 5, 965, 930, 52,-
2025-03-12 13:53:30.387,893, 493, 217, -6, 44, -28, -3, 3, 6, 937, 889, 39,-
2025-03-12 13:53:30.449,484, 604, 905, -25, 35, -27, -1, 7, 1, 902, 846, 59,-
2025-03-12 13:53:30.757,685, 542, 507, -6, -6, 3, -2, 4, 6, 913, 864, 41,÷
2025-03-12 13:53:30.807,676, 533, 509, -4, -6, 2, -3, 7, 2, 913, 867, 33,÷
2025-03-12 13:53:30.860,680, 543, 508, -3, -9, 2, -4, 5, 3, 916, 872, 57,÷
2025-03-12 13:53:30.915,713, 541, 465, -3, -4, 0, -6, 5, 2, 920, 880, 39,÷
2025-03-12 13:53:30.963,709, 543, 493, -7, 1, 1, -4, 5, 2, 925, 885, 65,÷
2025-03-12 13:53:31.017,688, 543, 510, -4, -2, 1, -3, 5, 6, 932, 889, 129,÷
2025-03-12 13:53:31.069,703, 533, 479, -3, 2, 0, 0, 3, 6, 936, 893, 132,÷
2025-03-12 13:53:31.117,690, 522, 511, 1, -1, -1, -1, 3, 5, 933, 893, 190,÷
2025-03-12 13:53:31.174,699, 545, 489, -4, -2, -1, -3, 5, 5, 937, 900, 143,÷
2025-03-12 13:53:31.229,713, 526, 486, -2, 1, -1, -4, 7, 3, 940, 902, 145,÷
2025-03-12 13:53:31.277,684, 530, 502, 5, 8, 0, -3, 5, 4, 936, 895, 201,÷
2025-03-12 13:53:31.332,734, 554, 445, 5, -3, -1, -3, 5, 6, 937, 898, 209,÷
2025-03-12 13:53:31.382,694, 559, 504, -8, 1, -2, -3, 5, 3, 940, 902, 147,÷
2025-03-12 13:53:31.437,718, 529, 482, -6, -3, -5, -3, 5, 4, 939, 904, 164,÷
2025-03-12 13:53:31.487,641, 563, 531, -14, -6, 7, -4, 6, 4, 946, 909, 159,÷
2025-03-12 13:53:31.548,683, 346, 270, -41, -21, -17, -3, 6, 3, 949, 920, 69,÷
2025-03-12 13:53:31.601,773, 455, 467, 2, -9, -10, -3, 5, 6, 958, 928, 55,÷
2025-03-12 13:53:31.649,838, 671, 306, -6, 22, 23, -4, 5, 5, 959, 926, 60,÷
2025-03-12 13:53:31.706,755, 463, 376, 18, 78, 8, -3, 7, 5, 955, 909, 59,÷
2025-03-12 13:53:31.757,356, 563, 842, 36, -14, 45, -3, 5, 1, 951, 891, 70,÷
2025-03-12 13:53:31.815,755, 749, 329, -25, -2, 2, -7, 8, 3, 957, 908, 49,÷
2025-03-12 13:53:31.867,678, 474, 435, 1, 30, -55, -2, 7, 3, 944, 879, 48,÷
2025-03-12 13:53:31.917,595, 708, 735, 44, -59, 6, -2, 4, 3, 937, 860, 67,÷
2025-03-12 13:53:31.974,1172, 764, 177, -58, -3, 54, -3, 5, 3, 967, 927, 53,÷
2025-03-12 13:53:32.027,516, 279, 494, 15, 10, 23, -4, 7, 4, 961, 919, 61,÷
2025-03-12 13:53:32.080,614, 530, 433, -5, 70, -65, 0, 4, 3, 938, 860, 57,÷
2025-03-12 13:53:32.367,653, 557, 536, -8, -7, -2, -2, 3, 1, 894, 785, 69,=
2025-03-12 13:53:32.417,656, 564, 530, -6, -6, 0, 2, 9, 4, 894, 784, 65,=
2025-03-12 13:53:32.467,671, 540, 524, -4, -2, 3, -3, 5, 2, 893, 778, 55,=
2025-03-12 13:53:32.518,661, 549, 521, -4, -4, 0, -2, 5, 2, 896, 773, 67,=
2025-03-12 13:53:32.577,672, 546, 515, -1, -2, 1, -3, 3, 2, 899, 787, 52,=
2025-03-12 13:53:32.627,671, 538, 521, 0, -4, 3, -3, 4, 3, 904, 791, 49,=
2025-03-12 13:53:32.680,684, 541, 496, -2, -3, 1, -3, 5, 2, 902, 797, 56,=
2025-03-12 13:53:32.733,686, 535, 514, -6, -3, -1, -2, 6, 3, 906, 814, 50,=
2025-03-12 13:53:32.787,672, 558, 525, -9, -3, 3, -1, 3, 5, 915, 828, 45,=
2025-03-12 13:53:32.834,685, 543, 495, -7, -4, 3, -3, 5, 3, 923, 844, 54,=
2025-03-12 13:53:32.887,680, 506, 543, 2, -6, 8, -4, 5, 3, 931, 855, 52,=
2025-03-12 13:53:32.937,684, 527, 485, 0, -1, -1, -3, 6, 4, 936, 864, 37,=
2025-03-12 13:53:32.987,652, 546, 529, 15, 2, 4, -1, 7, 2, 933, 845, 51,=
2025-03-12 13:53:33.037,724, 551, 442, -3, -1, -8, -3, 7, 3, 932, 848, 54,=
2025-03-12 13:53:33.098,589, 489, 729, 19, -40, 11, -3, 4, 4, 938, 878, 65,=
2025-03-12 13:53:33.148,844, 435, 263, -17, 4, 30, -1, 4, 6, 954, 923, 70,=
2025-03-12 13:53:33.198,744, 267, 381, 32, 31, -15, -3, 7, 3, 950, 892, 135,=
2025-03-12 13:53:33.257,498, 511, 719, 25, -27, 10, -4, 5, 3, 940, 833, 66,=
2025-03-12 13:53:33.307,689, 800, 314, -16, 9, 22, -3, 5, 5, 959, 917, 56,=
2025-03-12 13:53:33.363,681, 327, 635, 5, 8, 13, -1, 7, 5, 955, 910, 54,=
2025-03-12 13:53:33.414,590, 541, 444, -15, 55, -52, -3, 5, 3, 935, 850, 57,=
2025-03-12 13:53:33.660,650, 567, 529, -15, -3, -8, -1, 4, 3, 898, 772, 35,≠
2025-03-12 13:53:33.717,651, 567, 519, -14, -4, -7, -1, 4, 3, 894, 772, 46,≠
2025-03-12 13:53:33.768,667, 546, 507, -3, -3, 0, -4, 5, 0, 901, 783, 30,≠
2025-03-12 13:53:33.823,682, 560, 487, -2, -4, -3, -2, 5, 3, 897, 790, 53,≠
2025-03-12 13:53:33.879,686, 555, 518, -5, -4, -3, -3, 4, 4, 899, 801, 58,≠
2025-03-12 13:53:33.931,660, 553, 524, -3, -3, -1, 0, 5, 2, 901, 802, 61,≠
2025-03-12 13:53:33.981,687, 557, 500, -3, -7, 1, -3, 6, 3, 905, 802, 70,≠
2025-03-12 13:53:34.031,673, 566, 488, -3, -2, 6, -3, 3, 5, 915, 816, 46,≠
2025-03-12 13:53:34.088,706, 517, 506, 0, -6, 7, -1, 6, 3, 927, 841, 39,≠
2025-03-12 13:53:34.137,698, 546, 480, -3, -1, 1, -3, 5, 5, 929, 850, 48,≠
2025-03-12 13:53:34.188,710, 535, 487, -3, -3, 2, -3, 4, 4, 932, 863, 58,≠
2025-03-12 13:53:34.236,675, 540, 506, -1, -1, -1, -4, 5, 2, 935, 868, 44,≠
2025-03-12 13:53:34.288,631, 523, 531, 1, 3, -8, -3, 6, 4, 936, 856, 48,≠
2025-03-12 13:53:34.348,683, 529, 474, -10, -8, -11, -2, 4, 4, 934, 848, 50,≠
2025-03-12 13:53:34.398,798, 527, 580, 57, -19, -14, -7, 3, 7, 952, 895, 48,≠
2025-03-12 13:53:34.457,762, 458, 486, -29, 12, 28, -4, 6, 4, 958, 919, 69,≠
2025-03-12 13:53:34.514,499, 509, 488, 29, 28, -15, -5, 6, 5, 949, 886, 67,≠
2025-03-12 13:53:34.567,856, 1132, 516, 41, -8, -19, -3, 7, 5, 952, 891, 62,≠
2025-03-12 13:53:34.616,712, 390, 166, -42, 22, 47, -4, 7, 3, 958, 920, 67,≠
2025-03-12 13:53:34.676,495, 400, 510, -31, 12, -64, -2, 4, 5, 955, 916, 52,≠
2025-03-12 13:53:34.730,625, 643, 662, 1, -61, 25, -3, 5, 6, 951, 904, 154,≠
2025-03-12 13:53:34.781,513, 1102, -263, 47, 35, 22, 0, 4, 6, 964, 902, 37,≠
2025-03-12 13:53:34.837,781, 635, 267, 22, 23, 5, -3, 6, 2, 949, 860, 72,≠
2025-03-12 13:53:35.125,666, 606, 491, -17, 2, -10, -3, 2, 3, 872, 750, 53,≈
2025-03-12 13:53:35.177,659, 600, 511, -17, 2, -7, -5, 6, 4, 874, 760, 50,≈
2025-03-12 13:53:35.230,671, 547, 533, 2, -1, -8, -3, 3, 4, 872, 783, 54,≈
2025-03-12 13:53:35.279,693, 555, 512, 5, -5, -13, -2, 4, 3, 872, 761, 32,≈
2025-03-12 13:53:35.337,662, 589, 459, 1, -5, -29, -2, 2, 3, 880, 748, 197,≈
2025-03-12 13:53:35.390,559, 655, 566, -3, -9, -23, -3, 3, 4, 902, 751, 192,≈
2025-03-12 13:53:35.447,572, 666, 489, 14, -19, 17, -3, 1, 5, 920, 782, 190,≈
2025-03-12 13:53:35.497,709, 654, 397, 26, -6, 35, -1, 2, 7, 933, 816, 207,≈
2025-03-12 13:53:35.550,701, 601, 385, 2, 8, 27, -3, 2, 5, 937, 850, 234,≈
2025-03-12 13:53:35.607,707, 556, 453, -13, 11, 14, -3, 4, 5, 942, 864, 227,≈
2025-03-12 13:53:35.657,700, 549, 460, -12, 2, -7, -5, 5, 4, 942, 868, 228,≈
2025-03-12 13:53:35.714,655, 595, 489, -7, 1, -3, 2, 1, 4, 946, 878, 148,≈
2025-03-12 13:53:35.766,1893, -276, -158, -83, -8, -9, -4, 3, 5, 951, 896, 59,≈
2025-03-12 13:53:35.823,803, 186, 551, -19, 12, 31, -5, 5, 7, 963, 923, 62,≈
2025-03-12 13:53:35.878,628, 496, 366, 34, 24, -15, -2, 5, 5, 953, 900, 71,≈
2025-03-12 13:53:35.930,729, 593, 464, 19, 6, -23, -2, 5, 3, 944, 865, 65,≈
2025-03-12 13:53:35.980,669, 569, 461, 8, -11, 6, -5, 5, 4, 950, 882, 52,≈
2025-03-12 13:53:36.037,836, 675, 492, -7, -1, 17, -3, 3, 5, 960, 919, 43,≈
2025-03-12 13:53:36.086,556, 533, 634, 7, -1, 18, -3, 6, 4, 962, 922, 51,≈
2025-03-12 13:53:36.137,810, 461, 316, 14, 19, -7, -4, 7, 3, 949, 900, 125,≈
2025-03-12 13:53:36.197,593, 596, 591, -34, 58, -41, -4, 7, 1, 922, 806, 53,≈
2025-03-12 13:53:36.251,605, 595, 661, -2, -15, 5, -2, 4, 1, 899, 692, 72,≈
2025-03-12 13:53:36.541,629, 665, 501, -3, -20, -25, -1, 1, 5, 835, 608, 58,<
2025-03-12 13:53:36.597,634, 665, 494, -6, -19, -23, 0, 2, 4, 839, 612, 47,<
2025-03-12 13:53:36.651,634, 699, 454, 0, -25, -14, -3, 0, 5, 853, 657, 69,<
2025-03-12 13:53:36.701,627, 665, 475, 4, -21, 13, -3, -1, 6, 866, 675, 62,<
2025-03-12 13:53:36.757,591, 679, 351, 15, 5, 35, -4, 1, 5, 872, 671, 63,<
2025-03-12 13:53:36.813,742, 578, 355, 21, -15, 20, -3, 1, 7, 878, 676, 44,<
2025-03-12 13:53:36.866,785, 510, 412, -11, 10, -5, -4, 2, 6, 863, 676, 65,<
2025-03-12 13:53:36.917,657, 605, 222, -25, 6, 5, -4, 1, 8, 847, 691, 41,<
2025-03-12 13:53:36.970,490, 434, 528, -13, 22, 21, -3, 1, 4, 846, 693, 57,<
2025-03-12 13:53:37.017,782, 576, 420, 9, -15, 26, -3, 5, 3, 847, 713, 47,<
2025-03-12 13:53:37.082,1005, 835, 312, -30, 15, -25, -6, 5, 2, 875, 748, 56,<
2025-03-12 13:53:37.132,557, 490, 744, -2, -3, 6, -4, 7, 2, 910, 812, 36,<
2025-03-12 13:53:37.187,583, 542, 552, 0, -23, 18, -3, 3, 5, 920, 849, 49,<
2025-03-12 13:53:37.238,705, 495, 566, -14, -25, -1, -4, 6, 6, 942, 891, 64,<
2025-03-12 13:53:37.296,416, 436, 312, 26, 17, -9, -3, 5, 4, 952, 890, 50,<
2025-03-12 13:53:37.349,858, 828, 131, -15, 41, 36, -4, 5, 4, 958, 891, 69,<
2025-03-12 13:53:37.399,682, 603, 585, -17, 19, 40, -3, 7, 3, 962, 918, 67,<
2025-03-12 13:53:37.449,799, 374, 410, 5, 27, -26, -3, 7, 3, 951, 885, 60,<
2025-03-12 13:53:37.507,562, 473, 587, 6, 36, -54, -1, 3, 4, 913, 697, 46,<
2025-03-12 13:53:37.770,672, 545, 533, -5, -5, 2, -3, 5, 3, 886, 710, 38,≤
2025-03-12 13:53:37.821,674, 535, 526, -3, -6, 4, -3, 5, 2, 891, 720, 67,≤
2025-03-12 13:53:37.871,680, 552, 499, 2, -6, 6, -1, 5, 2, 909, 760, 64,≤
2025-03-12 13:53:37.923,750, 527, 460, -3, -4, 2, -2, 7, 3, 923, 805, 60,≤
2025-03-12 13:53:37.971,681, 535, 504, -1, 0, -1, -4, 4, 6, 930, 827, 44,≤
2025-03-12 13:53:38.029,704, 528, 502, -3, -3, -1, -1, 6, 6, 931, 845, 59,≤
2025-03-12 13:53:38.082,691, 562, 477, -7, -2, -2, -3, 5, 4, 934, 854, 63,≤
2025-03-12 13:53:38.130,743, 541, 490, -5, -11, -1, -3, 4, 6, 938, 873, 44,≤
2025-03-12 13:53:38.187,690, 495, 434, -6, -20, 8, -3, 5, 5, 946, 897, 53,≤
2025-03-12 13:53:38.245,667, 497, 518, -4, -12, -8, -3, 4, 4, 955, 911, 54,≤
2025-03-12 13:53:38.294,709, 618, 158, 21, 4, -5, -4, 4, 4, 961, 904, 62,≤
2025-03-12 13:53:38.347,827, 715, 304, -31, 24, 27, -4, 6, 3, 968, 920, 51,≤
2025-03-12 13:53:38.397,751, 480, 607, 23, -6, 18, -4, 6, 4, 964, 923, 70,≤
2025-03-12 13:53:38.457,757, 453, 334, 18, 39, -13, -4, 5, 5, 959, 890, 38,≤
2025-03-12 13:53:38.511,620, 567, 684, 19, -21, 3, -3, 4, 3, 951, 841, 52,≤
2025-03-12 13:53:38.564,782, 791, 398, -28, 10, 30, -3, 5, 3, 962, 918, 68,≤
2025-03-12 13:53:38.614,560, 461, 544, 0, 2, 20, -2, 5, 6, 962, 919, 67,≤
2025-03-12 13:53:38.667,734, 493, 342, 12, 54, -50, -2, 6, 2, 941, 852, 73,≤
2025-03-12 13:53:38.717,531, 603, 781, 8, 5, -14, -1, 4, 4, 906, 728, 45,≤
2025-03-12 13:53:38.994,699, 547, 489, 3, -18, 2, -1, 2, 4, 918, 850, 34,>
2025-03-12 13:53:39.048,712, 566, 458, 2, -17, 1, -3, 3, 4, 918, 849, 46,>
2025-03-12 13:53:39.096,708, 566, 458, -11, -3, 0, -2, 4, 5, 923, 862, 62,>
2025-03-12 13:53:39.147,658, 539, 521, -3, -3, 0, -7, 7, 2, 929, 870, 45,>
2025-03-12 13:53:39.200,605, 468, 573, 8, -32, 2, -3, 4, 5, 936, 883, 59,>
2025-03-12 13:53:39.256,893, 575, 332, 10, -3, 1, -3, 4, 5, 954, 914, 54,>
2025-03-12 13:53:39.307,517, 362, 678, -7, 3, 18, -5, 5, 4, 961, 928, 53,>
2025-03-12 13:53:39.356,817, 594, 479, 37, 10, 7, -4, 5, 6, 964, 923, 52,>
2025-03-12 13:53:39.412,839, 547, 229, 0, 26, 7, -4, 4, 5, 960, 900, 57,>
2025-03-12 13:53:39.463,764, 470, 379, -25, 35, -21, 1, 5, 2, 951, 884, 32,>
2025-03-12 13:53:39.516,532, 558, 716, -4, 4, -8, -4, 4, 5, 932, 854, 54,>
2025-03-12 13:53:39.571,677, 489, 509, 14, -17, -1, -3, 3, 3, 913, 819, 68,>
2025-03-12 13:53:39.839,680, 536, 523, 0, -4, 2, -4, 3, 5, 900, 779, 52,≥
2025-03-12 13:53:39.895,678, 542, 514, 2, -6, 2, -1, 7, 6, 900, 781, 49,≥
2025-03-12 13:53:39.945,702, 570, 450, -2, -5, 0, -4, 1, 3, 905, 792, 41,≥
2025-03-12 13:53:39.998,681, 548, 487, -3, -7, -1, -4, 4, 5, 903, 798, 55,≥
2025-03-12 13:53:40.051,703, 567, 459, -8, -5, -3, -3, 5, 4, 908, 820, 43,≥
2025-03-12 13:53:40.097,679, 549, 489, -4, -4, -4, -1, 3, 7, 915, 827, 62,≥
2025-03-12 13:53:40.157,666, 511, 489, -2, -9, 0, -3, 5, 4, 922, 836, 49,≥
2025-03-12 13:53:40.211,752, 640, 439, -6, -8, -11, -7, 5, 7, 944, 875, 34,≥
2025-03-12 13:53:40.264,742, 805, 408, -4, -7, 22, -3, 2, 7, 956, 915, 55,≥
2025-03-12 13:53:40.312,611, 372, 537, 7, -4, 8, -3, 4, 7, 961, 923, 44,≥
2025-03-12 13:53:40.367,594, 473, 503, 34, 19, 11, -5, 2, 7, 966, 918, 47,≥
2025-03-12 13:53:40.417,808, 545, 231, 0, 34, 15, -3, 5, 7, 959, 893, 57,≥
2025-03-12 13:53:40.471,410, 415, 741, -3, 45, -4, -3, 6, 4, 946, 827, 63,≥
2025-03-12 13:53:40.527,2511, 251, -154, 6, -8, -15, -3, 4, 5, 955, 873, 45,≥
2025-03-12 13:53:40.580,754, 494, 510, -15, -13, 27, -4, 7, 3, 963, 920, 49,≥
2025-03-12 13:53:40.637,727, 498, 219, -17, 47, -31, -4, 5, 3, 949, 884, 76,≥
2025-03-12 13:53:40.937,708, 599, 411, -5, -9, -5, -2, 2, 5, 905, 748, 53,±
2025-03-12 13:53:40.987,692, 599, 408, -8, -7, -3, -2, 7, 3, 907, 757, 44,±
2025-03-12 13:53:41.037,706, 532, 512, 10, -9, 7, -1, 2, 7, 922, 821, 38,±
2025-03-12 13:53:41.096,707, 574, 438, 7, -2, 2, -3, 3, 4, 924, 841, 62,±
2025-03-12 13:53:41.145,686, 563, 459, 3, -1, -1, -3, 4, 5, 927, 856, 57,±
2025-03-12 13:53:41.198,679, 564, 458, -2, 0, -3, 1, 4, 5, 929, 855, 46,±
2025-03-12 13:53:41.249,709, 583, 414, -7, 1, -2, -3, 5, 5, 932, 854, 51,±
2025-03-12 13:53:41.299,663, 561, 472, -5, 1, -2, -2, 3, 5, 932, 857, 67,±
2025-03-12 13:53:41.349,702, 560, 453, -3, -1, -2, -3, 4, 3, 934, 847, 52,±
2025-03-12 13:53:41.399,690, 593, 477, 0, 3, 1, -3, 7, 1, 935, 849, 58,±
2025-03-12 13:53:41.446,665, 586, 468, 6, 1, 0, -4, 4, 3, 936, 850, 49,±
2025-03-12 13:53:41.506,574, 556, 537, 5, -10, 3, -2, 3, 5, 937, 859, 69,±
2025-03-12 13:53:41.557,955, 316, 250, -7, -14, -15, -3, 3, 5, 953, 898, 57,±
2025-03-12 13:53:41.617,400, 1012, 457, -45, 4, 58, -5, 4, 3, 965, 928, 51,±
2025-03-12 13:53:41.667,626, 220, 436, 5, 17, -43, -3, 5, 5, 955, 911, 52,±
2025-03-12 13:53:41.717,715, 715, 659, -3, -16, 4, -4, 3, 6, 949, 895, 62,±
2025-03-12 13:53:41.772,591, 125, 381, 7, 11, 18, -4, 4, 6, 965, 915, 53,±
2025-03-12 13:53:41.817,619, 426, 529, -15, 44, 23, -3, 4, 4, 960, 883, 44,±
2025-03-12 13:53:41.882,587, 557, 756, 33, -13, -7, -2, 3, 3, 948, 828, 60,±
2025-03-12 13:53:41.937,1081, 841, 368, -28, -10, 30, -5, 5, 4, 968, 919, 38,±
2025-03-12 13:53:41.987,795, 323, 427, -6, 16, 6, -4, 5, 5, 962, 912, 57,±
2025-03-12 13:53:42.039,561, 540, 591, -27, 69, -51, -2, 1, 8, 944, 798, 37,±
2025-03-12 13:53:42.347,738, 549, 437, -11, -11, -6, -4, 5, 3, 909, 834, 60,∓
2025-03-12 13:53:42.401,737, 561, 443, -15, -9, -6, -6, 4, 1, 911, 836, 46,∓
2025-03-12 13:53:42.447,655, 560, 491, -8, -1, -8, -4, 5, 5, 911, 835, 50,∓
2025-03-12 13:53:42.507,619, 598, 464, 4, -7, -2, -4, 4, 4, 916, 835, 69,∓
2025-03-12 13:53:42.563,820, 641, 639, -1, -7, -8, -5, 4, 4, 944, 855, 35,∓
2025-03-12 13:53:42.615,756, 739, 267, -52, -18, 40, -3, 7, 5, 964, 921, 66,∓
2025-03-12 13:53:42.666,551, 488, 502, 49, -1, 9, -2, 5, 5, 962, 917, 58,∓
2025-03-12 13:53:42.722,457, 554, 457, 16, 59, -30, -4, 4, 5, 945, 836, 55,∓
2025-03-12 13:53:42.778,883, 524, 402, 59, -30, 20, -2, 3, 2, 952, 844, 39,∓
2025-03-12 13:53:42.828,742, 516, 412, -23, 6, 34, -3, 3, 4, 961, 911, 60,∓
2025-03-12 13:53:42.879,548, 402, 450, -14, 20, -35, -3, 6, 6, 955, 898, 47,∓
2025-03-12 13:53:42.937,700, 583, 586, 20, -37, 27, -3, 5, 5, 956, 901, 68,∓
2025-03-12 13:53:42.987,731, 637, 255, -26, 39, 30, 1, 2, 8, 960, 880, 42,∓
2025-03-12 13:53:43.046,721, 434, 439, -24, 51, -42, -3, 6, 3, 942, 797, 60,∓
2025-03-12 13:53:43.338,687, 567, 481, 0, -6, 1, -3, 6, 2, 878, 730, 70,∞
2025-03-12 13:53:43.387,686, 572, 479, -2, -5, 1, -1, 4, 5, 879, 728, 65,∞
2025-03-12 13:53:43.443,694, 571, 500, -2, -3, 0, -4, 3, 5, 887, 707, 29,∞
2025-03-12 13:53:43.497,674, 572, 497, -10, -2, 2, -1, 5, 3, 892, 691, 52,∞
2025-03-12 13:53:43.547,674, 556, 494, -11, -2, 0, -2, 4, 4, 895, 683, 59,∞
2025-03-12 13:53:43.599,679, 556, 509, -4, -3, 3, -2, 5, 3, 901, 676, 42,∞
2025-03-12 13:53:43.649,684, 531, 500, 2, -3, -1, -3, 6, 2, 900, 694, 64,∞
2025-03-12 13:53:43.700,687, 556, 488, 2, -1, 0, -3, 3, 4, 901, 705, 60,∞
2025-03-12 13:53:43.749,695, 552, 496, 0, 0, -2, -2, 5, 3, 903, 717, 49,∞
2025-03-12 13:53:43.807,698, 548, 490, -1, -2, 0, -3, 3, 3, 911, 745, 45,∞
2025-03-12 13:53:43.857,684, 561, 506, 2, 0, 0, -3, 6, 4, 913, 766, 52,∞
2025-03-12 13:53:43.901,710, 542, 493, 3, -2, -2, -3, 3, 4, 913, 778, 62,∞
2025-03-12 13:53:43.960,673, 564, 483, -4, -2, -2, -2, 4, 4, 917, 800, 70,∞
2025-03-12 13:53:44.013,773, 556, 448, 6, -4, 2, -1, 4, 3, 923, 834, 51,∞
2025-03-12 13:53:44.062,613, 533, 483, 0, -1, 8, -3, 4, 3, 929, 861, 50,∞
2025-03-12 13:53:44.115,631, 527, 540, 1, -12, 6, -3, 4, 4, 938, 878, 50,∞
2025-03-12 13:53:44.164,613, 514, 527, 0, -2, 1, -3, 4, 7, 959, 900, 44,∞
2025-03-12 13:53:44.217,711, 509, 537, -24, 8, -2, -6, 6, 5, 959, 877, 35,∞
2025-03-12 13:53:44.267,948, 298, 450, 31, -2, -23, -4, 5, 5, 943, 853, 64,∞
2025-03-12 13:53:44.321,588, 697, 361, -54, 7, 44, -1, 4, 7, 964, 907, 47,∞
2025-03-12 13:53:44.377,643, 492, 490, -18, -1, 5, -3, 4, 5, 966, 915, 58,∞
2025-03-12 13:53:44.430,870, 619, 414, 8, -12, -24, -3, 5, 4, 958, 914, 42,∞
2025-03-12 13:53:44.480,438, 674, 400, 13, 9, 1, -3, 5, 6, 960, 906, 63,∞
2025-03-12 13:53:44.530,602, 748, 78, 2, 37, 25, -3, 5, 4, 958, 866, 69,∞
2025-03-12 13:53:44.586,899, 291, 591, -4, 29, -34, -2, 6, 3, 935, 794, 75,∞
2025-03-12 13:53:44.893,626, 553, 551, 12, -8, -9, -3, 5, 3, 819, 587, 63,∑
2025-03-12 13:53:44.946,642, 555, 543, 19, -10, -7, -2, 1, 4, 821, 590, 56,∑
2025-03-12 13:53:44.998,700, 594, 469, 24, -12, -7, -3, 2, 3, 823, 637, 48,∑
2025-03-12 13:53:45.046,666, 604, 424, 3, 4, -6, -4, 4, 2, 848, 679, 45,∑
2025-03-12 13:53:45.097,632, 626, 480, -2, 1, 2, -2, 2, 5, 867, 720, 51,∑
2025-03-12 13:53:45.146,666, 627, 459, -8, -4, 9, -3, 2, 2, 889, 770, 57,∑
2025-03-12 13:53:45.201,702, 575, 478, -5, -7, 5, -5, 6, 4, 909, 811, 35,∑
2025-03-12 13:53:45.257,681, 595, 468, -6, -6, 7, -4, 3, 5, 917, 846, 57,∑
2025-03-12 13:53:45.311,661, 593, 463, -2, -3, 2, -3, 4, 4, 925, 856, 65,∑
2025-03-12 13:53:45.360,676, 554, 489, 3, -1, 5, -4, 3, 6, 929, 856, 46,∑
2025-03-12 13:53:45.412,686, 583, 444, -7, 2, -1, -4, 6, 2, 931, 848, 48,∑
2025-03-12 13:53:45.463,691, 585, 482, -4, -4, 2, -5, 4, 4, 932, 860, 55,∑
2025-03-12 13:53:45.511,676, 584, 434, -6, -3, -1, -4, 4, 5, 936, 866, 48,∑
2025-03-12 13:53:45.567,680, 548, 471, -5, -1, 2, -1, 4, 5, 940, 870, 46,∑
2025-03-12 13:53:45.621,698, 553, 475, -7, -3, 0, -3, 4, 5, 940, 877, 53,∑
2025-03-12 13:53:45.672,719, 567, 445, -14, -5, -2, -3, 4, 5, 942, 882, 56,∑
2025-03-12 13:53:45.729,615, 565, 552, -10, -2, -7, -3, 3, 5, 944, 880, 49,∑
2025-03-12 13:53:45.780,643, 564, 515, 7, -27, -1, -5, 3, 6, 946, 877, 48,∑
2025-03-12 13:53:45.830,889, 934, 282, -4, -12, 36, -3, 5, 6, 960, 919, 60,∑
2025-03-12 13:53:45.887,507, 399, 598, 8, 7, 25, -4, 5, 5, 962, 922, 68,∑
2025-03-12 13:53:45.937,552, 539, 519, 32, 26, -34, -4, 6, 6, 953, 896, 51,∑
2025-03-12 13:53:45.995,939, 207, 155, -43, -3, -22, -4, 5, 4, 955, 893, 64,∑
2025-03-12 13:53:46.047,997, 823, 340, -16, 18, 41, -4, 6, 6, 967, 923, 45,∑
2025-03-12 13:53:46.097,548, 628, 503, 10, 8, 9, -3, 3, 4, 961, 897, 74,∑
2025-03-12 13:53:46.147,863, 603, 331, 28, -4, -11, -4, 6, 3, 957, 863, 68,∑
2025-03-12 13:53:46.207,645, 327, 499, -31, 17, 40, -3, 6, 6, 966, 915, 59,∑
2025-03-12 13:53:46.262,748, 474, 397, 0, 29, -15, -4, 7, 3, 955, 886, 72,∑
2025-03-12 13:53:46.316,561, 500, 597, -10, 32, -40, -3, 6, 2, 931, 663, 47,∑
2025-03-12 13:53:46.577,651, 537, 561, -4, -6, -1, -5, 8, 1, 923, 762, 41,∏
2025-03-12 13:53:46.633,676, 531, 537, -3, -7, -1, -5, 7, 1, 927, 762, 37,∏
2025-03-12 13:53:46.687,701, 553, 471, -9, -1, -5, -1, 5, 0, 930, 772, 47,∏
2025-03-12 13:53:46.738,675, 543, 528, -4, -1, -1, -2, 4, 3, 928, 772, 49,∏
2025-03-12 13:53:46.788,680, 555, 517, -3, 0, 1, -3, 4, 3, 929, 772, 50,∏
2025-03-12 13:53:46.842,689, 554, 505, -4, 0, 1, 1, 6, 0, 930, 775, 50,∏
2025-03-12 13:53:46.887,683, 562, 517, -8, 2, -2, -4, 5, 2, 925, 764, 48,∏
2025-03-12 13:53:46.944,675, 541, 517, -9, 1, 2, -1, 6, 1, 917, 742, 58,∏
2025-03-12 13:53:46.997,683, 500, 535, -4, -2, -2, -3, 5, 3, 915, 725, 51,∏
2025-03-12 13:53:47.047,689, 518, 529, 0, -4, -3, -2, 4, 5, 913, 730, 54,∏
2025-03-12 13:53:47.097,687, 555, 497, 0, -4, -3, -3, 4, 4, 913, 731, 55,∏
2025-03-12 13:53:47.147,679, 544, 514, 0, -4, 0, -3, 7, 1, 918, 753, 49,∏
2025-03-12 13:53:47.197,674, 531, 542, 2, -7, 2, -2, 4, 4, 923, 759, 33,∏
2025-03-12 13:53:47.249,674, 529, 531, 10, -15, 5, -2, 2, 4, 928, 776, 39,∏
2025-03-12 13:53:47.310,717, 570, 388, -8, -2, -3, -4, 4, 5, 931, 797, 64,∏
2025-03-12 13:53:47.361,558, 452, 639, 9, -15, -9, -1, 6, 4, 939, 814, 34,∏
2025-03-12 13:53:47.411,1015, 343, 338, 10, -24, -6, -4, 5, 5, 952, 912, 69,∏
2025-03-12 13:53:47.467,609, 688, 496, -8, -3, 44, -1, 4, 5, 967, 931, 30,∏
2025-03-12 13:53:47.519,653, 420, 424, 7, 10, -2, -3, 5, 6, 956, 908, 69,∏
2025-03-12 13:53:47.575,620, 400, 541, 12, 6, -39, -6, 6, 5, 943, 861, 58,∏
2025-03-12 13:53:47.628,832, 656, 553, -19, -9, 4, -4, 8, 1, 963, 903, 42,∏
2025-03-12 13:53:47.678,837, 146, 420, 6, 31, 32, -5, 5, 4, 964, 895, 52,∏
2025-03-12 13:53:47.735,710, 190, 664, -3, 10, -35, -3, 7, 2, 952, 868, 50,∏
2025-03-12 13:53:47.787,534, 597, 698, -11, -46, 18, -4, 6, 4, 959, 909, 50,∏
2025-03-12 13:53:47.842,744, 728, 117, 4, 39, 44, -6, 7, 5, 970, 908, 48,∏
2025-03-12 13:53:47.895,807, 402, 363, -14, 49, -20, -3, 7, 4, 954, 854, 65,∏
2025-03-12 13:53:47.946,618, 554, 619, -15, 44, -40, -3, 5, 0, 925, 783, 41,∏
2025-03-12 13:53:48.247,673, 579, 489, 19, -14, -31, 0, 1, 4, 731, 430, 27,√
2025-03-12 13:53:48.298,673, 571, 497, 23, -14, -34, 0, 1, 4, 721, 436, 31,√
2025-03-12 13:53:48.347,651, 669, 510, 21, -26, -34, -3, 2, 3, 698, 500, 40,√
2025-03-12 13:53:48.410,614, 698, 462, 18, -23, -18, -2, 1, 4, 719, 569, 59,√
2025-03-12 13:53:48.460,539, 711, 374, 28, -37, 39, -3, -2, 4, 782, 602, 66,√
2025-03-12 13:53:48.517,585, 484, 313, -19, 22, 43, -2, 1, 5, 818, 626, 31,√
2025-03-12 13:53:48.575,648, 586, 414, -26, 32, 24, -3, 2, 5, 837, 643, 55,√
2025-03-12 13:53:48.619,993, 648, 555, 8, -10, 0, -4, 4, 3, 845, 666, 35,√
2025-03-12 13:53:48.678,599, 516, 456, -37, 26, -5, -4, 2, 4, 879, 722, 49,√
2025-03-12 13:53:48.728,605, 616, 560, -8, 2, 5, -2, 2, 4, 899, 761, 35,√
2025-03-12 13:53:48.778,706, 570, 493, 12, -10, 7, -6, 6, 0, 903, 764, 33,√
2025-03-12 13:53:48.828,712, 576, 400, -1, 5, 5, -3, 4, 4, 907, 757, 61,√
2025-03-12 13:53:48.886,706, 538, 462, 5, 0, -8, -2, 4, 5, 903, 759, 59,√
2025-03-12 13:53:48.931,684, 559, 477, 0, 2, -2, -4, 4, 4, 910, 785, 41,√
2025-03-12 13:53:48.987,603, 558, 548, 9, -14, 5, -5, 1, 5, 923, 823, 27,√
2025-03-12 13:53:49.037,883, 523, 383, 16, 0, 0, -3, 4, 2, 949, 892, 63,√
2025-03-12 13:53:49.092,458, 479, 652, -2, 9, 22, -3, 5, 4, 957, 903, 56,√
2025-03-12 13:53:49.145,719, 773, 250, -29, 18, 27, -2, 5, 4, 957, 895, 52,√
2025-03-12 13:53:49.197,617, 85, 393, -8, -55, -47, -2, 5, 1, 948, 915, 66,√
2025-03-12 13:53:49.247,833, 339, 625, 6, -31, -12, -4, 5, 3, 965, 933, 47,√
2025-03-12 13:53:49.302,678, 590, 280, 3, 15, 16, -3, 6, 5, 965, 933, 58,√
2025-03-12 13:53:49.357,749, 460, 319, -4, 69, -48, -4, 5, 7, 952, 919, 73,√
2025-03-12 13:53:49.412,566, 591, 706, -2, 20, -29, -2, 4, 4, 927, 882, 68,√
2025-03-12 13:53:49.677,664, 587, 483, 0, -4, 3, -2, 4, 4, 866, 698, 56,∛
2025-03-12 13:53:49.737,661, 596, 491, 0, -4, 5, -2, 4, 3, 869, 706, 46,∛
2025-03-12 13:53:49.787,685, 575, 460, 4, -4, 5, -4, 2, 3, 875, 721, 29,∛
2025-03-12 13:53:49.837,697, 595, 455, -4, 3, 3, -3, 2, 5, 889, 731, 41,∛
2025-03-12 13:53:49.887,692, 571, 479, -13, 2, 6, -2, 3, 5, 909, 767, 53,∛
2025-03-12 13:53:49.944,639, 554, 522, -4, 1, 4, -2, 3, 4, 918, 789, 56,∛
2025-03-12 13:53:49.993,686, 545, 474, 2, 4, 3, -1, 4, 5, 917, 788, 41,∛
2025-03-12 13:53:50.042,677, 568, 491, 0, 5, 0, -3, 3, 3, 911, 787, 48,∛
2025-03-12 13:53:50.094,673, 561, 487, 2, 2, -3, -3, 6, 3, 908, 778, 37,∛
2025-03-12 13:53:50.144,712, 564, 488, 1, 2, -1, -1, 4, 2, 903, 782, 46,∛
2025-03-12 13:53:50.196,673, 563, 483, 3, 1, -3, -3, 3, 4, 898, 783, 51,∛
2025-03-12 13:53:50.247,675, 576, 512, 1, 0, 0, -3, 5, 3, 898, 787, 53,∛
2025-03-12 13:53:50.294,681, 597, 472, -3, 3, -1, -2, 4, 5, 898, 787, 64,∛
2025-03-12 13:53:50.347,662, 561, 502, 0, 2, 0, 1, 7, -1, 899, 794, 47,∛
2025-03-12 13:53:50.396,623, 567, 539, 10, -9, 1, -3, 2, 3, 903, 828, 40,∛
2025-03-12 13:53:50.446,824, 532, 480, 14, 0, -4, -2, 4, 4, 928, 886, 65,∛
2025-03-12 13:53:50.496,605, 427, 720, 0, -2, 6, -3, 3, 6, 946, 913, 69,∛
2025-03-12 13:53:50.547,555, 984, 274, 1, 25, 37, -4, 5, 4, 959, 914, 52,∛
2025-03-12 13:53:50.607,663, 671, 283, -57, 24, 31, -1, 7, 3, 958, 919, 50,∛
2025-03-12 13:53:50.660,972, 570, 494, 1, -60, -50, -2, 4, 5, 954, 930, 63,∛
2025-03-12 13:53:50.711,655, 531, 488, 13, -16, 0, -2, 2, 7, 963, 935, 69,∛
2025-03-12 13:53:50.766,740, 505, 324, 5, 26, -6, -3, 4, 4, 958, 927, 53,∛
2025-03-12 13:53:50.819,438, 564, 588, 22, 20, -50, -2, 4, 4, 949, 907, 50,∛
2025-03-12 13:53:50.876,850, 542, 462, 33, -56, 14, -2, 3, 6, 941, 891, 218,∛
2025-03-12 13:53:50.927,874, 622, 622, -7, -2, -6, -1, 3, 6, 959, 912, 54,∛
2025-03-12 13:53:50.978,585, 605, 613, -8, -4, 7, -3, 3, 6, 962, 914, 61,∛
2025-03-12 13:53:51.028,783, 547, 353, 1, 6, 1, -3, 3, 4, 962, 916, 72,∛
2025-03-12 13:53:51.078,678, 714, 431, 2, 14, 5, -3, 1, 4, 964, 907, 34,∛
2025-03-12 13:53:51.127,827, 549, 297, -9, 39, -15, -4, 4, 3, 947, 869, 30,∛
2025-03-12 13:53:51.192,474, 571, 707, -37, 37, -20, -2, 2, 1, 889, 855, 59,∛
2025-03-12 13:53:51.500,632, 579, 524, 6, -2, 7, -3, 4, 2, 799, 649, 53,∜
2025-03-12 13:53:51.546,646, 575, 535, 6, -4, 7, -2, 3, 2, 801, 658, 64,∜
2025-03-12 13:53:51.599,675, 556, 498, 4, -6, 5, -1, 4, 3, 829, 666, 40,∜
2025-03-12 13:53:51.647,662, 577, 479, 3, -6, 3, -2, 2, 3, 848, 675, 62,∜
2025-03-12 13:53:51.697,628, 568, 506, 6, -5, 1, -4, 4, 2, 851, 681, 63,∜
2025-03-12 13:53:51.758,656, 588, 470, 6, -6, -2, -2, 3, 3, 852, 719, 64,∜
2025-03-12 13:53:51.810,666, 512, 331, -8, -2, -13, -1, 5, 3, 902, 808, 47,∜
2025-03-12 13:53:51.860,835, 720, 542, -23, -7, 32, -2, 3, 4, 951, 893, 69,∜
2025-03-12 13:53:51.916,750, 354, 524, 20, 26, 29, -3, 6, 3, 963, 904, 48,∜
2025-03-12 13:53:51.967,757, 751, 252, -42, 24, 31, -3, 6, 3, 965, 904, 47,∜
2025-03-12 13:53:52.024,738, 125, 481, -16, -42, -50, 0, 7, 2, 961, 921, 37,∜
2025-03-12 13:53:52.076,983, 563, 386, -38, -33, -15, -2, 5, 6, 965, 939, 58,∜
2025-03-12 13:53:52.127,691, 831, 324, 8, -4, 14, -1, 3, 6, 974, 941, 49,∜
2025-03-12 13:53:52.187,829, 341, 399, 21, 25, 2, -3, 5, 5, 966, 934, 51,∜
2025-03-12 13:53:52.241,496, 596, 529, 12, 29, -43, -3, 2, 4, 954, 914, 66,∜
2025-03-12 13:53:52.294,612, 636, 643, 31, -54, -6, -3, 2, 4, 946, 884, 216,∜
2025-03-12 13:53:52.347,727, 335, 325, -18, -8, -10, -4, 5, 6, 962, 916, 130,∜
2025-03-12 13:53:52.397,573, 812, 423, 1, 9, 7, -4, 3, 6, 966, 913, 59,∜
2025-03-12 13:53:52.446,809, 694, 186, -2, 7, 4, -2, 2, 7, 967, 901, 60,∜
2025-03-12 13:53:52.507,807, 671, 454, -26, 10, 27, -6, 4, 4, 972, 925, 47,∜
2025-03-12 13:53:52.560,643, 386, 442, -5, 3, -7, -1, 3, 5, 967, 916, 307,∜
2025-03-12 13:53:52.609,552, 672, 654, 18, -14, 5, -3, 2, 5, 964, 903, 487,∜
2025-03-12 13:53:52.667,720, 711, 170, -14, 21, 16, -3, 4, 3, 968, 912, 376,∜
2025-03-12 13:53:52.724,757, 451, 392, -28, 39, -32, -1, 6, -1, 961, 883, 370,∜
2025-03-12 13:53:52.938,681, 577, 472, -3, -3, 2, -3, 3, 3, 929, 770, 64,∫
2025-03-12 13:53:52.991,679, 574, 453, -1, -3, 1, -3, 4, 3, 930, 768, 56,∫
2025-03-12 13:53:53.044,675, 569, 474, -2, -1, 0, -3, 5, 2, 929, 759, 38,∫
2025-03-12 13:53:53.097,669, 574, 498, -4, 0, -2, -1, 3, 5, 921, 749, 55,∫
2025-03-12 13:53:53.147,670, 572, 500, -3, -3, 0, -3, 4, 4, 921, 740, 66,∫
2025-03-12 13:53:53.197,678, 592, 474, -4, -2, 1, -4, 4, 5, 918, 726, 44,∫
2025-03-12 13:53:53.247,675, 575, 478, -3, 0, 1, -4, 2, 6, 918, 730, 50,∫
2025-03-12 13:53:53.299,672, 574, 492, 2, 1, 2, -3, 3, 4, 918, 732, 54,∫
2025-03-12 13:53:53.348,699, 558, 487, 2, 0, 2, -3, 3, 4, 922, 739, 64,∫
2025-03-12 13:53:53.397,697, 572, 470, -4, 4, 3, -3, 4, 4, 929, 757, 48,∫
2025-03-12 13:53:53.446,669, 560, 486, 0, -1, 4, -3, 4, 2, 934, 768, 35,∫
2025-03-12 13:53:53.506,773, 634, 474, 8, -6, 14, -3, 5, 2, 940, 831, 50,∫
2025-03-12 13:53:53.560,607, 559, 528, -11, -13, 11, -3, 4, 4, 945, 862, 50,∫
2025-03-12 13:53:53.609,655, 584, 479, -22, -12, 23, -4, 5, 2, 953, 885, 37,∫
2025-03-12 13:53:53.667,1313, 361, 395, -28, -6, -9, -5, 7, 4, 958, 916, 67,∫
2025-03-12 13:53:53.724,820, 256, 599, 43, 4, -27, -5, 5, 4, 962, 910, 59,∫
2025-03-12 13:53:53.776,713, 883, 270, -3, 42, 28, -4, 4, 4, 970, 914, 63,∫
2025-03-12 13:53:53.825,475, 463, 516, 5, 26, 22, -3, 2, 8, 971, 892, 41,∫
2025-03-12 13:53:53.876,1016, 352, 350, 3, 37, -22, -3, 7, 3, 933, 741, 63,∫
2025-03-12 13:53:53.936,454, 534, 837, -26, 44, -39, -1, 5, 2, 873, 747, 28,∫
2025-03-12 13:53:54.187,677, 552, 498, 0, -13, 3, 1, 5, 3, 905, 794, 35,∮
2025-03-12 13:53:54.236,666, 552, 497, 1, -12, 4, 1, 5, 3, 904, 800, 49,∮
2025-03-12 13:53:54.294,714, 556, 489, -1, -4, -1, -2, 4, 4, 904, 812, 60,∮
2025-03-12 13:53:54.347,664, 563, 510, -4, -6, 1, -3, 4, 3, 912, 820, 51,∮
2025-03-12 13:53:54.396,715, 545, 457, 4, -2, -2, 0, 2, 8, 918, 824, 59,∮
2025-03-12 13:53:54.445,692, 544, 498, -1, 2, 3, -2, 6, 5, 919, 822, 67,∮
2025-03-12 13:53:54.496,584, 531, 571, -3, -13, -2, -3, 5, 4, 924, 851, 64,∮
2025-03-12 13:53:54.547,619, 410, 664, 0, -11, -18, -3, 4, 4, 946, 887, 41,∮
2025-03-12 13:53:54.608,828, 867, 229, 32, 28, 16, -4, 4, 4, 962, 888, 57,∮
2025-03-12 13:53:54.662,678, 612, 500, -42, 35, 49, -2, 6, 4, 965, 902, 39,∮
2025-03-12 13:53:54.713,587, 475, 589, 49, -36, -53, -1, 4, 5, 936, 888, 57,∮
2025-03-12 13:53:54.771,663, 836, 635, -13, -21, 4, -5, 4, 4, 961, 918, 40,∮
2025-03-12 13:53:54.826,673, 820, 245, -19, 33, 35, -2, 5, 5, 971, 917, 49,∮
2025-03-12 13:53:54.878,869, 474, 377, -44, 32, 13, -4, 5, 4, 956, 878, 46,∮
2025-03-12 13:53:54.937,607, 681, 780, -20, -31, -34, -3, 6, 4, 928, 888, 52,∮
2025-03-12 13:53:54.987,1073, 20, 425, -17, -23, -20, -3, 5, 4, 944, 914, 65,∮
2025-03-12 13:53:55.042,845, 478, 332, 33, 15, 14, -3, 3, 6, 965, 919, 38,∮
2025-03-12 13:53:55.097,485, 409, 578, -4, 31, 48, -2, 6, 2, 969, 923, 70,∮
2025-03-12 13:53:55.147,792, 501, 364, -1, 26, -8, -1, 4, 4, 956, 886, 40,∮
2025-03-12 13:53:55.206,699, 505, 469, -16, 69, -53, -1, 4, 0, 875, 787, 59,∮
2025-03-12 13:53:55.497,628, 545, 551, 32, -20, -10, -1, 2, 2, 550, 554, 35,∂
2025-03-12 13:53:55.547,638, 569, 531, 32, -21, -10, -1, 2, 2, 547, 565, 35,∂
2025-03-12 13:53:55.597,674, 590, 505, 3, -9, -2, -3, 6, 1, 596, 619, 42,∂
2025-03-12 13:53:55.657,639, 571, 535, 5, -12, -5, -2, 2, 2, 712, 625, 52,∂
2025-03-12 13:53:55.709,626, 562, 532, -12, -3, -2, -2, 4, 1, 837, 650, 35,∂
2025-03-12 13:53:55.764,655, 616, 476, -17, 1, -11, -3, 1, 1, 880, 687, 53,∂
2025-03-12 13:53:55.817,620, 555, 540, 8, -12, -16, -3, 2, 1, 904, 738, 46,∂
2025-03-12 13:53:55.867,613, 661, 433, 21, -7, 8, 0, 2, 6, 919, 789, 68,∂
2025-03-12 13:53:55.923,669, 626, 507, 9, -9, 37, -2, 4, 4, 931, 842, 64,∂
2025-03-12 13:53:55.968,675, 547, 422, -6, -7, 21, -1, 3, 2, 945, 878, 43,∂
2025-03-12 13:53:56.025,695, 512, 489, -5, 1, 2, -2, 5, 5, 945, 880, 64,∂
2025-03-12 13:53:56.077,628, 591, 516, -7, 0, -3, -2, 2, 4, 946, 880, 57,∂
2025-03-12 13:53:56.127,693, 522, 461, -9, -4, -3, -1, 5, 3, 947, 885, 47,∂
2025-03-12 13:53:56.177,661, 570, 515, 2, -2, -6, -3, 3, 3, 946, 883, 49,∂
2025-03-12 13:53:56.227,630, 532, 572, 7, -19, -3, -1, 4, 6, 947, 882, 60,∂
2025-03-12 13:53:56.287,917, 575, 571, 27, -18, 1, -1, 2, 6, 960, 913, 43,∂
2025-03-12 13:53:56.341,679, 518, 606, 32, 13, 15, -3, 3, 5, 966, 923, 70,∂
2025-03-12 13:53:56.393,873, 648, 251, -24, 31, 11, -1, 2, 4, 964, 900, 34,∂
2025-03-12 13:53:56.447,836, 453, 475, -5, 7, -3, -3, 5, 4, 959, 905, 52,∂
2025-03-12 13:53:56.496,302, 386, 440, -7, -16, 6, -3, 5, 4, 972, 936, 54,∂
2025-03-12 13:53:56.546,834, 455, 283, 1, 28, -18, -4, 4, 5, 963, 917, 64,∂
2025-03-12 13:53:56.866,689, 549, 498, 31, -18, -37, -2, 1, 2, 891, 639, 62,∇
2025-03-12 13:53:56.919,669, 571, 469, 37, -16, -37, -2, 2, 4, 890, 612, 54,∇
2025-03-12 13:53:56.967,561, 626, 506, 23, -3, -8, -3, 1, 1, 911, 581, 31,∇
2025-03-12 13:53:57.025,558, 652, 472, 17, 8, 28, -3, 1, 4, 930, 621, 168,∇
2025-03-12 13:53:57.079,666, 638, 421, 7, -4, 23, -3, 0, 3, 942, 669, 199,∇
2025-03-12 13:53:57.129,712, 611, 411, -9, -3, 5, -1, -1, 5, 942, 734, 270,∇
2025-03-12 13:53:57.186,670, 601, 468, -12, -5, 2, -3, 3, 5, 943, 803, 267,∇
2025-03-12 13:53:57.245,673, 597, 444, -6, -6, 5, -4, 4, 2, 947, 828, 277,∇
2025-03-12 13:53:57.293,676, 609, 446, -10, -4, -1, -2, 1, 5, 947, 841, 277,∇
2025-03-12 13:53:57.346,690, 556, 465, -5, -3, 2, -3, 2, 5, 947, 858, 269,∇
2025-03-12 13:53:57.397,652, 604, 468, 4, 0, 5, -2, 4, 3, 948, 861, 259,∇
2025-03-12 13:53:57.447,726, 607, 415, 4, 5, 5, -2, 3, 5, 951, 857, 160,∇
2025-03-12 13:53:57.499,663, 600, 411, -13, 5, -7, -4, 4, 3, 952, 864, 54,∇
2025-03-12 13:53:57.547,530, 536, 636, 8, -21, 6, -3, 3, 5, 949, 876, 63,∇
2025-03-12 13:53:57.609,1137, 583, 371, -10, -5, 6, -4, 3, 5, 961, 910, 60,∇
2025-03-12 13:53:57.660,356, 407, 450, -35, 7, 39, -4, 4, 4, 967, 927, 68,∇
2025-03-12 13:53:57.709,682, 563, 412, 21, 4, 4, -4, 4, 5, 968, 919, 59,∇
2025-03-12 13:53:57.759,649, 1011, 82, 30, 32, 11, -4, 4, 3, 970, 905, 32,∇
2025-03-12 13:53:57.809,779, 637, 175, 6, 30, 3, -4, 4, 2, 959, 881, 68,∇
2025-03-12 13:53:57.869,506, 552, 479, -4, 5, -64, -2, 4, 5, 942, 863, 67,∇
2025-03-12 13:53:57.925,565, 553, 564, -15, -32, -12, -1, 1, 3, 917, 875, 55,∇
2025-03-12 13:53:57.977,852, 89, 307, -38, -6, -18, -3, 3, 5, 949, 898, 57,∇
2025-03-12 13:53:58.037,1049, 1010, 478, -10, 36, 66, -2, 2, 7, 969, 917, 64,∇
2025-03-12 13:53:58.089,737, 457, 361, -11, 27, -9, -1, 5, 4, 962, 895, 44,∇
2025-03-12 13:53:58.141,581, 495, 575, -4, 44, -63, -3, 5, 2, 902, 749, 60,∇
2025-03-12 13:53:58.419,653, 523, 542, 6, -15, 6, -4, 5, 4, 892, 752, 46,∆
2025-03-12 13:53:58.468,658, 542, 523, 9, -15, 6, 0, 4, 0, 893, 761, 67,∆
2025-03-12 13:53:58.524,740, 557, 433, 0, -11, 3, -4, 3, 4, 907, 793, 48,∆
2025-03-12 13:53:58.577,699, 549, 480, -8, -1, -2, -4, 4, 4, 917, 823, 54,∆
2025-03-12 13:53:58.627,688, 546, 515, -3, -3, -1, 0, 4, 6, 926, 839, 50,∆
2025-03-12 13:53:58.677,684, 558, 465, -4, -6, -4, -3, 4, 4, 933, 857, 51,∆
2025-03-12 13:53:58.727,666, 525, 543, 5, -10, 3, -2, 4, 5, 939, 878, 55,∆
2025-03-12 13:53:58.776,740, 549, 440, 5, -9, 3, -3, 3, 8, 949, 890, 48,∆
2025-03-12 13:53:58.839,704, 561, 434, -4, -1, -1, -4, 5, 4, 952, 898, 58,∆
2025-03-12 13:53:58.887,700, 513, 553, -10, -2, 0, -4, 4, 5, 954, 911, 66,∆
2025-03-12 13:53:58.941,667, 217, 716, 58, -4, -15, -4, 3, 6, 960, 888, 52,∆
2025-03-12 13:53:58.992,861, 538, 272, 18, 1, -9, -3, 5, 6, 959, 852, 54,∆
2025-03-12 13:53:59.047,832, 519, 389, -61, 5, 67, 0, -2, 8, 971, 924, 31,∆
2025-03-12 13:53:59.096,511, 530, 491, 2, -6, 14, -3, 6, 5, 967, 924, 68,∆
2025-03-12 13:53:59.147,759, 241, 180, -7, 31, -22, -3, 4, 4, 954, 895, 51,∆
2025-03-12 13:53:59.209,736, 700, 765, 44, -29, -27, -3, 3, 6, 937, 835, 192,∆
2025-03-12 13:53:59.259,746, 750, 357, -36, 2, 44, 0, -1, 8, 971, 919, 47,∆
2025-03-12 13:53:59.318,427, 185, 544, -16, 27, 50, -3, 6, 4, 970, 908, 57,∆
2025-03-12 13:53:59.372,731, 414, 379, -17, 52, -57, -3, 7, 4, 951, 792, 41,∆
2025-03-12 13:53:59.657,654, 532, 523, -1, -3, -1, -3, 5, 2, 830, 623, 43,π
2025-03-12 13:53:59.708,663, 541, 541, -1, -3, 0, 2, 2, 2, 829, 619, 64,π
2025-03-12 13:53:59.758,649, 532, 561, 6, -11, -1, -1, 4, 3, 806, 582, 44,π
2025-03-12 13:53:59.810,703, 554, 461, -3, -5, -1, -3, 9, 2, 809, 575, 44,π
2025-03-12 13:53:59.867,671, 549, 511, -5, 3, -1, -2, 4, 2, 842, 629, 53,π
2025-03-12 13:53:59.917,667, 527, 542, 1, -3, 0, -2, 4, 3, 861, 674, 65,π
2025-03-12 13:53:59.966,686, 545, 500, -7, -5, 1, -3, 6, 3, 884, 732, 41,π
2025-03-12 13:54:00.018,674, 531, 523, -3, -6, 2, -4, 5, 2, 906, 795, 68,π
2025-03-12 13:54:00.072,688, 528, 544, -2, -5, 7, -3, 5, 3, 923, 823, 53,π
2025-03-12 13:54:00.125,664, 552, 494, -1, -5, 0, -2, 5, 3, 931, 834, 38,π
2025-03-12 13:54:00.174,684, 494, 547, 1, 5, 5, -4, 9, 1, 935, 831, 50,π
2025-03-12 13:54:00.227,689, 549, 479, 11, -8, -2, -3, 4, 6, 938, 824, 49,π
2025-03-12 13:54:00.282,631, 499, 564, 6, -12, -10, -4, 6, 4, 934, 846, 69,π
2025-03-12 13:54:00.330,807, 358, 391, 32, -13, -13, -3, 7, 2, 956, 897, 62,π
2025-03-12 13:54:00.387,767, 665, 197, -32, 9, 72, -3, 3, 5, 968, 931, 69,π
2025-03-12 13:54:00.442,568, 337, 648, 26, -4, -2, -6, 10, 3, 968, 928, 56,π
2025-03-12 13:54:00.497,576, 537, 449, 10, 16, -66, -4, 5, 5, 952, 889, 57,π
2025-03-12 13:54:00.547,766, 443, 584, 12, -20, 15, -3, 4, 5, 961, 904, 54,π
2025-03-12 13:54:00.597,721, 640, 415, -16, 35, 42, -4, 6, 6, 972, 914, 52,π
2025-03-12 13:54:00.658,807, 280, 514, -16, 18, 10, -4, 7, 4, 964, 873, 49,π
2025-03-12 13:54:00.709,728, 630, 460, -17, -15, -27, -1, 6, 5, 954, 887, 52,π
2025-03-12 13:54:00.772,1163, 290, 604, 21, -22, -18, -3, 4, 6, 965, 916, 68,π
2025-03-12 13:54:00.825,813, 756, 330, 18, 31, 40, -2, 5, 6, 973, 918, 53,π
2025-03-12 13:54:00.875,826, 441, 456, 6, 22, 2, -3, 7, 4, 963, 896, 58,π
2025-03-12 13:54:00.927,690, 551, 471, -18, 53, -40, -3, 5, 3, 943, 852, 62,π
2025-03-12 13:54:01.227,680, 543, 550, 3, -4, -5, -3, 8, -1, 872, 668, 60,θ
2025-03-12 13:54:01.277,671, 555, 544, 0, -4, -4, 0, 3, 5, 875, 666, 38,θ
2025-03-12 13:54:01.328,663, 520, 557, 1, -7, 0, -3, 4, 3, 886, 689, 31,θ
2025-03-12 13:54:01.379,678, 527, 520, 2, -7, 3, 0, 4, 5, 897, 717, 38,θ
2025-03-12 13:54:01.429,701, 521, 503, -1, -1, -1, 0, 5, 4, 895, 721, 61,θ
2025-03-12 13:54:01.478,659, 500, 549, -6, -1, -3, -3, 6, 3, 900, 718, 59,θ
2025-03-12 13:54:01.539,662, 525, 561, -2, -8, -1, -3, 4, 3, 905, 706, 43,θ
2025-03-12 13:54:01.592,676, 516, 534, 9, -13, -1, -2, 4, 5, 906, 705, 49,θ
2025-03-12 13:54:01.641,757, 547, 416, 6, -7, -6, -3, 5, 4, 906, 715, 68,θ
2025-03-12 13:54:01.694,673, 527, 491, -2, 0, -6, -2, 7, 4, 914, 746, 31,θ
2025-03-12 13:54:01.742,748, 543, 500, 4, 0, 2, -3, 4, 5, 920, 792, 51,θ
2025-03-12 13:54:01.797,639, 540, 502, -9, 4, -2, -3, 6, 5, 923, 803, 69,θ
2025-03-12 13:54:01.847,668, 538, 512, -8, -17, 3, -3, 5, 4, 927, 835, 60,θ
2025-03-12 13:54:01.898,768, 689, 447, -11, -2, -6, -1, 5, 5, 941, 881, 56,θ
2025-03-12 13:54:01.956,715, 325, 557, 55, 2, -16, -3, 4, 5, 951, 885, 60,θ
2025-03-12 13:54:02.005,930, 923, -19, 5, 47, 50, -5, 3, 4, 967, 895, 35,θ
2025-03-12 13:54:02.059,628, 519, 722, -22, 12, 18, -3, 6, 3, 959, 899, 51,θ
2025-03-12 13:54:02.107,582, 561, 564, 41, -42, -30, -3, 4, 3, 949, 897, 281,θ
2025-03-12 13:54:02.173,606, 617, 530, -24, -13, 10, -4, 4, 4, 964, 919, 71,θ
2025-03-12 13:54:02.227,587, 829, 265, -10, 35, 45, -4, 4, 5, 972, 920, 47,θ
2025-03-12 13:54:02.277,746, 325, 369, -35, 24, -10, -2, 8, 3, 960, 885, 53,θ
2025-03-12 13:54:02.337,651, 579, 730, 40, -38, -11, -2, 4, 3, 953, 881, 57,θ
2025-03-12 13:54:02.390,849, 1016, 285, -44, 5, 43, 2, 2, 3, 970, 929, 47,θ
2025-03-12 13:54:02.441,720, 522, 345, -19, 41, -32, -3, 7, 4, 962, 910, 58,θ
2025-03-12 13:54:02.739,661, 561, 527, 2, -9, -1, 0, 2, 2, 808, 672, 25,λ
2025-03-12 13:54:02.790,657, 553, 529, 3, -9, -1, -2, 4, 3, 806, 670, 38,λ
2025-03-12 13:54:02.842,670, 561, 506, 7, -7, 2, -3, 3, 5, 817, 670, 54,λ
2025-03-12 13:54:02.894,683, 566, 493, 0, -4, 0, -3, 3, 3, 837, 686, 30,λ
2025-03-12 13:54:02.946,646, 572, 531, -3, -4, 3, -4, 5, 2, 866, 704, 31,λ
2025-03-12 13:54:02.997,673, 569, 500, -3, -6, 5, -3, 4, 3, 890, 746, 55,λ
2025-03-12 13:54:03.047,653, 541, 540, -4, -6, 6, -3, 2, 2, 905, 760, 66,λ
2025-03-12 13:54:03.099,703, 543, 476, 1, -8, 6, -1, 6, 1, 920, 787, 46,λ
2025-03-12 13:54:03.157,722, 560, 467, -8, -2, 0, -4, 4, 3, 920, 808, 60,λ
2025-03-12 13:54:03.205,697, 578, 487, 2, 3, 5, -3, 4, 4, 929, 824, 57,λ
2025-03-12 13:54:03.255,658, 594, 486, -1, -3, 1, -4, 5, 4, 932, 834, 60,λ
2025-03-12 13:54:03.310,652, 566, 523, -15, -12, -8, -3, 4, 5, 933, 846, 51,λ
2025-03-12 13:54:03.363,601, 464, 426, 2, -2, -18, -3, 4, 7, 942, 843, 57,λ
2025-03-12 13:54:03.418,728, 493, 452, -5, 5, -3, -4, 5, 4, 951, 877, 50,λ
2025-03-12 13:54:03.467,723, 586, 274, -2, -8, 13, -4, 7, 4, 962, 913, 66,λ
2025-03-12 13:54:03.519,761, 937, 510, 7, 13, 27, -4, 5, 5, 970, 922, 63,λ
2025-03-12 13:54:03.574,749, 825, 204, -21, 39, 52, -4, 5, 6, 972, 922, 44,λ
2025-03-12 13:54:03.627,649, 181, 648, -22, 20, -42, -2, 5, 4, 960, 903, 68,λ
2025-03-12 13:54:03.677,585, 572, 733, -5, -36, 8, -3, 5, 3, 959, 906, 45,λ
2025-03-12 13:54:03.732,617, 612, 323, 18, 7, 10, -3, 4, 6, 967, 910, 60,λ
2025-03-12 13:54:03.787,802, 577, 302, -6, 23, 11, -4, 5, 5, 959, 856, 71,λ
2025-03-12 13:54:03.840,712, 521, 395, -13, 52, -47, -3, 7, 1, 928, 807, 53,λ
2025-03-12 13:54:04.127,701, 524, 489, 0, -11, -34, -3, 4, 4, 832, 607, 59,μ
2025-03-12 13:54:04.177,677, 529, 471, 3, -10, -38, 0, 3, 3, 823, 596, 55,μ
2025-03-12 13:54:04.238,576, 628, 563, 8, -6, -17, -3, 2, 4, 835, 558, 47,μ
2025-03-12 13:54:04.291,548, 644, 489, 14, -19, 20, -3, 0, 4, 885, 632, 52,μ
2025-03-12 13:54:04.344,712, 593, 421, -2, -2, 20, -3, 2, 4, 910, 707, 63,μ
2025-03-12 13:54:04.393,679, 568, 495, -2, 2, 19, -3, 3, 4, 916, 725, 48,μ
2025-03-12 13:54:04.446,673, 577, 476, -1, 1, 11, -2, 3, 4, 915, 728, 37,μ
2025-03-12 13:54:04.495,716, 548, 481, 5, -7, 9, -3, 5, 3, 917, 745, 68,μ
2025-03-12 13:54:04.547,695, 543, 425, -9, 3, 0, -4, 2, 4, 924, 771, 67,μ
2025-03-12 13:54:04.597,667, 582, 499, -8, 1, 0, -4, 3, 5, 928, 797, 60,μ
2025-03-12 13:54:04.647,718, 547, 489, -4, -2, -3, -3, 3, 6, 933, 805, 33,μ
2025-03-12 13:54:04.704,714, 552, 487, -4, 1, 3, -1, 3, 6, 936, 837, 55,μ
2025-03-12 13:54:04.747,648, 561, 505, 18, 7, 10, -4, 5, 4, 937, 835, 69,μ
2025-03-12 13:54:04.807,683, 519, 479, -5, 16, 8, -3, 3, 6, 942, 801, 37,μ
2025-03-12 13:54:04.857,726, 563, 511, 9, 20, 12, -4, 5, 2, 942, 793, 52,μ
2025-03-12 13:54:04.907,639, 520, 555, -5, 9, 18, -3, 5, 4, 944, 817, 60,μ
2025-03-12 13:54:04.957,770, 557, 436, -7, 3, -1, -3, 6, 3, 950, 867, 70,μ
2025-03-12 13:54:05.016,745, 546, 565, -26, -7, -3, 0, 6, 4, 959, 917, 41,μ
2025-03-12 13:54:05.073,827, 303, 745, -21, -42, -30, -2, 7, 3, 960, 930, 68,μ
2025-03-12 13:54:05.127,778, 412, 535, -24, -8, -8, -4, 8, 3, 966, 938, 50,μ
2025-03-12 13:54:05.177,687, 307, 636, 47, -18, -22, -3, 6, 5, 968, 936, 51,μ
2025-03-12 13:54:05.228,846, 400, 655, 35, 25, 19, -3, 5, 6, 970, 933, 60,μ
2025-03-12 13:54:05.290,664, 743, 357, -46, 12, 28, -3, 4, 5, 970, 934, 55,μ
2025-03-12 13:54:05.342,731, 504, 524, -18, -10, -1, -2, 6, 6, 969, 936, 57,μ
2025-03-12 13:54:05.397,598, 495, 545, -17, -12, -8, -4, 6, 5, 972, 939, 30,μ
2025-03-12 13:54:05.446,783, 562, 447, 29, 1, 2, -2, 6, 5, 970, 931, 62,μ
2025-03-12 13:54:05.497,757, 529, 400, -4, 7, 10, -3, 7, 4, 972, 932, 57,μ
2025-03-12 13:54:05.556,722, 394, 504, -16, 22, -23, -1, 5, 7, 964, 923, 50,μ
2025-03-12 13:54:06.257,669, 546, 523, -5, -1, 2, -3, 4, 6, 892, 574, 59,ω
2025-03-12 13:54:06.306,668, 540, 521, -5, -1, 1, -2, 5, 2, 892, 570, 55,ω
2025-03-12 13:54:06.360,670, 549, 530, -3, -3, 2, -3, 3, 5, 900, 598, 50,ω
2025-03-12 13:54:06.411,685, 546, 514, -3, -3, 4, -3, 3, 5, 908, 635, 54,ω
2025-03-12 13:54:06.459,672, 535, 520, 1, -2, 3, 0, 4, 5, 914, 673, 42,ω
2025-03-12 13:54:06.509,681, 536, 512, 0, -1, 6, 0, 6, 5, 924, 713, 27,ω
2025-03-12 13:54:06.559,684, 532, 502, 2, -1, 4, -1, 6, 4, 930, 746, 55,ω
2025-03-12 13:54:06.612,686, 537, 503, 1, 2, 3, -3, 4, 5, 936, 773, 65,ω
2025-03-12 13:54:06.658,701, 526, 512, 3, -5, 3, -2, 4, 5, 937, 800, 52,ω
2025-03-12 13:54:06.709,733, 501, 504, 5, 1, 2, -4, 4, 3, 942, 812, 55,ω
2025-03-12 13:54:06.759,629, 522, 534, 11, 4, 2, -3, 4, 6, 941, 809, 65,ω
2025-03-12 13:54:06.809,777, 559, 408, 6, -7, -5, -3, 5, 3, 940, 813, 41,ω
2025-03-12 13:54:06.867,660, 537, 532, -24, 4, -8, -3, 8, 2, 941, 835, 65,ω
2025-03-12 13:54:06.921,621, 523, 556, -9, -27, 1, -3, 5, 5, 946, 871, 51,ω
2025-03-12 13:54:06.974,755, 379, 402, 19, 3, -13, -5, 3, 7, 959, 891, 47,ω
2025-03-12 13:54:07.027,963, 602, 360, -20, 28, 45, -3, 6, 4, 969, 911, 59,ω
2025-03-12 13:54:07.076,538, 307, 599, -20, 4, 10, -5, 8, 3, 970, 920, 40,ω
2025-03-12 13:54:07.137,666, 246, 666, 13, -13, -15, -3, 7, 5, 964, 919, 58,ω
2025-03-12 13:54:07.190,735, 656, 303, -28, 7, 31, -3, 7, 5, 972, 925, 33,ω
2025-03-12 13:54:07.240,706, 205, 709, -27, -16, -9, -2, 6, 6, 966, 923, 71,ω
2025-03-12 13:54:07.297,779, 436, 398, -10, 55, -28, -3, 8, 4, 954, 901, 39,ω
2025-03-12 13:54:07.607,719, 553, 476, -5, -4, 3, -3, 1, 6, 920, 790, 33,!
2025-03-12 13:54:07.657,713, 548, 474, -5, -4, 4, -3, 1, 6, 918, 790, 37,!
2025-03-12 13:54:07.716,708, 524, 487, -3, -2, 1, -3, 6, 5, 922, 808, 53,!
2025-03-12 13:54:07.760,694, 523, 496, 1, -3, 0, -2, 4, 4, 926, 827, 31,!
2025-03-12 13:54:07.817,712, 534, 490, -1, -2, -1, -4, 4, 3, 925, 830, 45,!
2025-03-12 13:54:07.871,687, 522, 499, -3, 0, 0, -3, 3, 5, 924, 836, 63,!
2025-03-12 13:54:07.917,684, 533, 488, -3, 0, 0, -2, 5, 5, 929, 835, 54,!
2025-03-12 13:54:07.974,706, 514, 491, -3, -1, -1, -2, 4, 5, 930, 835, 33,!
2025-03-12 13:54:08.027,701, 537, 510, -3, -2, -4, -3, 6, 5, 928, 838, 53,!
2025-03-12 13:54:08.077,743, 531, 466, -3, 0, -2, -3, 5, 5, 930, 836, 50,!
2025-03-12 13:54:08.126,679, 514, 506, -10, 0, -2, -4, 6, 3, 933, 847, 56,!
2025-03-12 13:54:08.179,688, 524, 501, -16, -7, 0, -3, 3, 4, 935, 860, 58,!
2025-03-12 13:54:08.239,705, 559, 487, -31, -19, -2, -4, 5, 7, 945, 885, 38,!
2025-03-12 13:54:08.297,716, 194, 811, 15, -13, -13, -3, 5, 6, 958, 915, 49,!
2025-03-12 13:54:08.347,640, 730, 489, 23, 35, 52, -4, 7, 2, 972, 916, 65,!
2025-03-12 13:54:08.397,824, 428, 397, 10, 24, 18, -3, 6, 5, 965, 893, 50,!
2025-03-12 13:54:08.447,207, 546, 1026, -8, 53, 8, -1, 6, 4, 960, 866, 47,!
2025-03-12 13:54:08.507,1480, -199, -566, 26, -7, -22, -4, 7, 2, 968, 898, 52,!
2025-03-12 13:54:08.563,926, 265, 513, -12, 21, 4, -2, 8, 4, 964, 881, 52,!
2025-03-12 13:54:08.621,579, 464, 575, -31, 65, -32, -3, 8, 1, 944, 799, 67,!
2025-03-12 13:54:08.672,408, 535, 811, 4, -9, -6, -1, 7, -1, 923, 755, 56,!
2025-03-12 13:54:08.947,672, 521, 540, 10, -12, 2, -3, 4, 4, 885, 704, 62,@
2025-03-12 13:54:08.997,687, 523, 545, 9, -13, 2, 0, 6, 6, 888, 705, 62,@
2025-03-12 13:54:09.049,708, 518, 526, 3, -10, 1, -6, 4, 5, 897, 725, 38,@
2025-03-12 13:54:09.104,715, 551, 505, -6, -1, 0, -2, 4, 4, 898, 737, 57,@
2025-03-12 13:54:09.157,684, 518, 544, -4, -3, -3, -6, 7, 3, 900, 750, 67,@
2025-03-12 13:54:09.210,679, 525, 517, -6, -6, 0, -1, 6, 3, 909, 760, 37,@
2025-03-12 13:54:09.256,704, 524, 507, -5, -5, 0, -3, 5, 6, 912, 774, 58,@
2025-03-12 13:54:09.308,694, 496, 518, -3, -3, 1, -4, 4, 5, 914, 773, 67,@
2025-03-12 13:54:09.357,717, 518, 478, -1, -3, -2, -4, 8, 3, 919, 781, 37,@
2025-03-12 13:54:09.417,702, 526, 524, -1, 0, -1, -2, 5, 6, 922, 792, 65,@
2025-03-12 13:54:09.467,716, 524, 508, -2, -2, -1, -3, 4, 4, 923, 806, 70,@
2025-03-12 13:54:09.521,679, 533, 505, 0, 1, 3, -1, 5, 5, 931, 821, 50,@
2025-03-12 13:54:09.574,693, 517, 520, -3, -5, -1, -2, 4, 5, 932, 836, 52,@
2025-03-12 13:54:09.623,768, 582, 382, 5, 15, -4, -3, 6, 4, 933, 835, 64,@
2025-03-12 13:54:09.677,548, 523, 623, 12, 9, -3, -3, 4, 5, 934, 835, 46,@
2025-03-12 13:54:09.727,771, 477, 494, 12, -22, 11, -2, 4, 4, 939, 842, 55,@
2025-03-12 13:54:09.777,706, 487, 510, -9, 10, -6, -5, 5, 4, 940, 855, 58,@
2025-03-12 13:54:09.837,743, 536, 610, 4, -4, 14, -2, 4, 5, 944, 865, 61,@
2025-03-12 13:54:09.889,615, 515, 541, -5, -14, 2, -3, 5, 3, 945, 884, 69,@
2025-03-12 13:54:09.940,626, 434, 603, 13, -8, -23, -3, 5, 5, 955, 899, 39,@
2025-03-12 13:54:09.996,802, 530, 543, 30, 4, -15, -3, 6, 6, 962, 897, 50,@
2025-03-12 13:54:10.047,764, 573, 435, -42, 29, 35, -2, 5, 6, 967, 911, 55,@
2025-03-12 13:54:10.096,663, 395, 581, -8, -16, -19, -4, 6, 3, 963, 912, 71,@
2025-03-12 13:54:10.156,800, 645, 428, 16, 0, 2, -1, 5, 7, 968, 914, 36,@
2025-03-12 13:54:10.206,780, 471, 490, -10, 4, 19, -2, 7, 5, 969, 916, 48,@
2025-03-12 13:54:10.267,782, 309, 476, -38, -18, -12, -3, 7, 7, 967, 923, 66,@
2025-03-12 13:54:10.320,496, 293, 804, 10, -11, -25, -2, 5, 7, 959, 920, 52,@
2025-03-12 13:54:10.372,1082, 542, 479, 79, 11, -20, -2, 3, 3, 961, 893, 39,@
2025-03-12 13:54:10.426,547, 654, 400, -30, 39, 76, -3, 4, 5, 967, 909, 68,@
2025-03-12 13:54:10.476,761, 236, 537, -7, 7, -35, -2, 7, 3, 962, 899, 50,@
2025-03-12 13:54:10.537,552, 484, 719, -10, 59, -41, -1, 6, 3, 932, 818, 56,@
2025-03-12 13:54:10.816,627, 534, 613, 5, -16, -5, -2, 5, 3, 813, 542, 53,#
2025-03-12 13:54:10.872,633, 527, 606, 7, -20, -4, -1, 7, 5, 825, 548, 48,#
2025-03-12 13:54:10.926,689, 549, 505, 17, -23, -3, -2, 5, 4, 853, 588, 60,#
2025-03-12 13:54:10.977,707, 541, 484, 16, -12, -14, -4, 3, 5, 863, 609, 55,#
2025-03-12 13:54:11.036,694, 541, 504, 29, -22, -38, -3, 4, 5, 872, 583, 63,#
2025-03-12 13:54:11.089,606, 661, 447, 26, -13, -26, -3, 4, 5, 889, 522, 27,#
2025-03-12 13:54:11.146,608, 721, 402, -9, -3, 14, -3, -1, 6, 918, 576, 52,#
2025-03-12 13:54:11.197,642, 662, 406, -28, 14, 28, -2, -2, 8, 934, 673, 50,#
2025-03-12 13:54:11.254,663, 613, 438, -27, 7, 27, -2, 2, 5, 942, 732, 53,#
2025-03-12 13:54:11.307,736, 497, 545, -10, -4, 30, -3, 3, 6, 945, 761, 47,#
2025-03-12 13:54:11.357,683, 548, 511, -16, -3, 8, -3, 4, 5, 949, 810, 52,#
2025-03-12 13:54:11.414,705, 487, 485, -3, 4, 1, -7, 5, 5, 952, 826, 67,#
2025-03-12 13:54:11.463,809, 568, 458, 9, -4, -7, -3, 3, 6, 950, 836, 66,#
2025-03-12 13:54:11.517,689, 567, 494, -29, 7, -9, -4, 5, 5, 948, 856, 69,#
2025-03-12 13:54:11.573,571, 529, 585, -13, -31, 13, -2, 8, 3, 955, 879, 38,#
2025-03-12 13:54:11.623,730, 453, 433, 14, 0, 10, -6, 5, 7, 963, 900, 69,#
2025-03-12 13:54:11.674,671, 720, 100, 35, 46, 30, -6, 7, 6, 965, 886, 36,#
2025-03-12 13:54:11.726,878, 210, 680, -30, 8, -18, -3, 6, 4, 954, 874, 63,#
2025-03-12 13:54:11.786,442, 431, 856, -14, -40, 9, -4, 6, 5, 961, 908, 41,#
2025-03-12 13:54:11.840,587, 806, 162, 34, 29, 34, -2, 5, 6, 966, 897, 58,#
2025-03-12 13:54:11.889,689, 324, 502, 1, 24, 11, -2, 7, 5, 962, 872, 41,#
2025-03-12 13:54:11.945,721, 313, 738, 44, -47, -38, -4, 7, 3, 952, 867, 45,#
2025-03-12 13:54:11.997,834, 645, 455, -11, -24, 16, -3, 5, 5, 965, 930, 62,#
2025-03-12 13:54:12.053,689, 389, 598, 52, 0, -14, -3, 7, 6, 953, 891, 68,#
2025-03-12 13:54:12.110,637, 713, 678, -2, -12, -14, -3, 6, 4, 948, 849, 44,#
2025-03-12 13:54:12.157,467, 380, 395, -49, 3, 24, -4, 5, 6, 966, 926, 67,#
2025-03-12 13:54:12.207,872, 322, 458, 14, 18, -6, -4, 7, 4, 959, 905, 43,#
2025-03-12 13:54:12.269,559, 557, 526, -7, 64, -52, -3, 4, 3, 923, 759, 79,#
2025-03-12 13:54:12.537,660, 517, 542, 0, -19, -20, -1, 4, 5, 817, 509, 36,%
2025-03-12 13:54:12.588,667, 522, 540, 2, -20, -21, -2, 6, 2, 817, 520, 60,%
2025-03-12 13:54:12.646,614, 607, 521, 0, -18, -5, -1, 5, 3, 829, 542, 38,%
2025-03-12 13:54:12.697,669, 579, 429, 23, -23, 12, -4, 4, 6, 866, 636, 61,%
2025-03-12 13:54:12.753,784, 574, 342, -3, 3, -1, -3, 1, 5, 900, 728, 34,%
2025-03-12 13:54:12.807,698, 605, 459, -12, 11, 10, -2, 2, 5, 918, 796, 65,%
2025-03-12 13:54:12.859,621, 543, 549, 0, 3, 17, -2, 2, 7, 932, 828, 56,%
