Timestamp,Acc_X,Acc_Y,Acc_Z,Gyro_X,Gyro_Y,Gyro_Z,Mag_X,Mag_Y,Mag_Z,Force1,Force2,Force3,Letter
2025-03-17 14:20:12.022,561, 718, 466, -21, 0, 0, -7, 2, 1, 75, 496, 78,noise
2025-03-17 14:20:12.068,562, 693, 473, -12, 0, 2, -7, 1, 4, 74, 499, 80,noise
2025-03-17 14:20:12.120,582, 696, 464, 0, 1, 4, -6, 2, 2, 80, 488, 69,noise
2025-03-17 14:20:12.170,608, 673, 427, -3, 1, 0, -6, 0, 4, 81, 383, 81,noise
2025-03-17 14:20:12.222,609, 677, 461, -6, 1, -5, -8, 3, 3, 302, 396, 72,noise
2025-03-17 14:20:12.276,554, 675, 491, 1, -2, -2, -8, 2, 2, 330, 409, 87,noise
2025-03-17 14:20:12.325,584, 713, 450, 5, -4, 3, -7, 1, 3, 335, 417, 53,noise
2025-03-17 14:20:12.378,606, 681, 424, -2, 1, 0, -6, 1, 4, 374, 425, 70,noise
2025-03-17 14:20:12.427,584, 684, 466, -6, 1, -3, -9, 2, 3, 402, 440, 81,noise
2025-03-17 14:20:12.482,568, 703, 456, 1, -3, 3, -7, 2, 4, 410, 435, 73,noise
2025-03-17 14:20:12.525,607, 680, 434, -1, 0, -2, -8, 2, 3, 325, 432, 67,noise
2025-03-17 14:20:12.584,606, 657, 457, -1, -1, -16, -7, 2, 4, 51, 389, 45,noise
2025-03-17 14:20:12.636,554, 715, 456, 10, 2, -6, -7, 0, 5, 74, 363, 80,noise
2025-03-17 14:20:12.686,561, 704, 422, 8, -2, -7, -8, 1, 3, 69, 382, 67,noise
2025-03-17 14:20:12.737,582, 720, 422, -3, -2, -7, -7, 1, 3, 32, 399, 41,noise
2025-03-17 14:20:12.786,589, 743, 438, -12, 3, 2, -9, -1, 2, 226, 449, 82,noise
2025-03-17 14:20:12.846,571, 722, 452, -22, 4, 14, -8, 0, 4, 728, 547, 115,noise
2025-03-17 14:20:12.896,541, 724, 537, -9, -11, 29, -9, 1, 3, 780, 626, 365,noise
2025-03-17 14:20:12.956,627, 661, 519, 14, -17, 37, -10, 3, 2, 791, 642, 461,noise
2025-03-17 14:20:13.006,650, 671, 342, 23, -21, 9, -9, 1, 3, 816, 701, 494,noise
2025-03-17 14:20:13.063,629, 581, 344, 8, 7, 8, -8, -2, 4, 847, 765, 519,noise
2025-03-17 14:20:13.117,611, 535, 383, -4, 17, -4, -8, -1, 4, 859, 788, 541,noise
2025-03-17 14:20:13.170,594, 633, 478, 19, -3, 0, -5, -3, 3, 847, 781, 518,noise
2025-03-17 14:20:13.226,792, 827, 273, -7, 2, -20, -7, 0, 1, 844, 784, 522,noise
2025-03-17 14:20:13.276,581, 675, 506, 4, 3, -10, -3, -2, 5, 844, 767, 509,noise
2025-03-17 14:20:13.334,575, 656, 412, 9, -1, 3, -7, 1, 1, 823, 756, 505,noise
2025-03-17 14:20:13.376,644, 684, 354, 8, -6, 1, -5, 0, 3, 720, 746, 476,noise
2025-03-17 14:20:13.436,650, 694, 359, 8, 5, -11, -4, -2, 3, 343, 685, 335,noise
2025-03-17 14:20:13.486,615, 711, 418, -12, 5, -8, -6, 0, 3, 133, 628, 252,noise
2025-03-17 14:20:13.546,607, 697, 417, -4, -1, 0, -7, 0, 3, 129, 604, 254,noise
2025-03-17 14:20:13.600,618, 707, 375, -4, -1, -1, -5, -1, 3, 115, 576, 254,noise
2025-03-17 14:20:13.653,621, 698, 392, -5, 0, -2, -5, 1, 3, 109, 559, 305,noise
2025-03-17 14:20:13.706,611, 691, 386, -2, 1, -3, -6, 0, 1, 120, 546, 270,noise
2025-03-17 14:20:14.021,617, 692, 385, -1, -2, 7, -6, 0, 2, 818, 659, 545,A
2025-03-17 14:20:14.071,618, 694, 386, 0, -1, 7, -3, 1, 5, 828, 665, 565,A
2025-03-17 14:20:14.126,645, 679, 405, -16, -2, 7, -6, 0, 1, 860, 705, 621,A
2025-03-17 14:20:14.178,625, 665, 412, -11, -2, 4, -5, 2, 1, 883, 735, 648,A
2025-03-17 14:20:14.234,646, 670, 407, -7, 0, 4, -6, 1, 1, 893, 786, 675,A
2025-03-17 14:20:14.284,636, 655, 405, -9, -1, 1, -7, 1, 2, 904, 838, 693,A
2025-03-17 14:20:14.337,636, 664, 420, -8, 0, 2, -7, 2, 3, 905, 866, 719,A
2025-03-17 14:20:14.387,635, 664, 452, 2, -4, 4, -8, 3, 3, 916, 883, 728,A
2025-03-17 14:20:14.437,631, 657, 416, 18, -13, 1, -7, 3, 4, 921, 887, 714,A
2025-03-17 14:20:14.496,630, 652, 407, 7, -6, 4, -7, 1, 6, 919, 888, 713,A
2025-03-17 14:20:14.550,607, 649, 441, 12, -7, 7, -8, 3, 4, 919, 889, 713,A
2025-03-17 14:20:14.603,697, 654, 321, 9, -11, 6, -6, 0, 5, 922, 892, 705,A
2025-03-17 14:20:14.652,639, 665, 365, 2, -6, 4, -6, 1, 6, 921, 893, 705,A
2025-03-17 14:20:14.706,705, 710, 277, -4, -12, 1, -6, 2, 9, 926, 901, 691,A
2025-03-17 14:20:14.767,648, 639, 365, -19, -16, -10, -6, -1, 8, 924, 911, 706,A
2025-03-17 14:20:14.819,668, 588, 455, 3, -30, 3, -7, 2, 9, 934, 928, 720,A
2025-03-17 14:20:14.876,682, 605, 367, 39, -11, -20, -7, 0, 12, 946, 923, 678,A
2025-03-17 14:20:14.934,710, 1015, -271, 15, 73, 34, -6, 0, 11, 949, 899, 575,A
2025-03-17 14:20:14.986,557, 311, 666, -38, -31, -32, -6, 3, 6, 934, 901, 653,A
2025-03-17 14:20:15.046,645, 607, 564, -3, -42, 3, -6, 2, 8, 945, 933, 727,A
2025-03-17 14:20:15.096,709, 975, -77, 20, 12, 24, -7, 0, 13, 956, 938, 691,A
2025-03-17 14:20:15.156,661, 549, 358, -15, 42, 15, -7, 1, 10, 949, 920, 577,A
2025-03-17 14:20:15.206,480, 624, 552, -17, -25, -21, -7, 0, 8, 935, 875, 504,A
2025-03-17 14:20:15.270,816, 914, 249, -3, -20, 10, -6, -1, 12, 960, 948, 530,A
2025-03-17 14:20:15.319,690, 542, 361, 3, 12, 25, -6, 1, 9, 956, 949, 617,A
2025-03-17 14:20:15.379,566, 628, 308, -11, 42, -55, -6, 1, 11, 936, 922, 637,A
2025-03-17 14:20:15.435,561, 691, 539, -9, 1, -19, -6, -1, 6, 918, 881, 595,A
2025-03-17 14:20:15.485,607, 698, 389, 10, -15, 9, -8, 2, 5, 915, 890, 625,A
2025-03-17 14:20:15.778,641, 668, 369, -5, -1, 2, -7, 3, 7, 900, 857, 585,B
2025-03-17 14:20:15.839,635, 658, 378, -4, -3, 1, -4, -1, 10, 898, 861, 592,B
2025-03-17 14:20:15.885,613, 669, 392, -9, -14, 3, -7, 4, 6, 901, 876, 614,B
2025-03-17 14:20:15.946,713, 621, 411, 2, -25, 2, -7, 3, 7, 906, 908, 625,B
2025-03-17 14:20:16.000,697, 547, 383, 17, -5, -10, -6, 1, 9, 933, 924, 592,B
2025-03-17 14:20:16.056,560, 608, 282, 14, 49, 27, -4, 1, 10, 951, 912, 482,B
2025-03-17 14:20:16.106,672, 736, 200, -20, 30, 24, -4, 2, 9, 947, 903, 412,B
2025-03-17 14:20:16.156,559, 603, 505, 0, -40, -48, -4, 2, 4, 917, 899, 573,B
2025-03-17 14:20:16.219,803, 346, 278, 6, -21, -18, -7, 2, 8, 937, 936, 619,B
2025-03-17 14:20:16.269,591, 712, 299, -4, 2, 13, -8, 1, 11, 957, 951, 626,B
2025-03-17 14:20:16.326,635, 590, 417, 10, 11, 6, -6, 3, 8, 953, 943, 585,B
2025-03-17 14:20:16.376,801, 634, 110, 10, 3, -6, -4, 0, 9, 955, 937, 533,B
2025-03-17 14:20:16.434,656, 712, 458, -9, 13, 14, -5, 0, 10, 956, 941, 485,B
2025-03-17 14:20:16.491,726, 670, 298, 6, 16, 10, -3, -2, 11, 959, 932, 347,B
2025-03-17 14:20:16.543,879, 636, 302, 4, 18, 2, -5, 2, 7, 934, 879, 399,B
2025-03-17 14:20:16.596,706, 638, 247, -38, 37, -39, -6, 4, 6, 921, 878, 444,B
2025-03-17 14:20:16.655,449, 723, 596, -14, -8, -7, -7, 2, 6, 912, 885, 452,B
2025-03-17 14:20:16.706,617, 656, 500, 23, -30, 17, -6, 3, 6, 895, 861, 459,B
2025-03-17 14:20:17.048,670, 648, 415, -6, -4, -1, -7, 3, 6, 900, 854, 436,C
2025-03-17 14:20:17.106,670, 639, 414, -7, -5, -1, -6, 3, 8, 900, 856, 436,C
2025-03-17 14:20:17.156,667, 636, 421, 0, -7, 2, -7, 3, 8, 907, 873, 447,C
2025-03-17 14:20:17.206,666, 643, 414, 2, -7, 5, -7, 3, 7, 915, 884, 459,C
2025-03-17 14:20:17.263,667, 634, 386, 2, -9, 3, -8, 3, 7, 911, 895, 527,C
2025-03-17 14:20:17.316,686, 650, 353, 0, -5, 2, -5, 2, 9, 914, 902, 533,C
2025-03-17 14:20:17.369,666, 624, 402, 3, -8, 2, -8, 4, 6, 920, 913, 520,C
2025-03-17 14:20:17.422,669, 627, 357, -1, -13, -5, -9, 3, 8, 926, 919, 483,C
2025-03-17 14:20:17.476,678, 608, 416, 4, -7, -13, -7, 3, 10, 930, 919, 462,C
2025-03-17 14:20:17.533,617, 677, 270, 30, 13, -10, -6, 0, 11, 941, 899, 366,C
2025-03-17 14:20:17.585,792, 523, 480, 12, 14, 0, -6, 1, 12, 953, 891, 68,C
2025-03-17 14:20:17.637,669, 656, 297, -3, 22, 31, -2, 2, 8, 952, 919, 63,C
2025-03-17 14:20:17.692,680, 622, 422, -2, 2, 11, -5, 2, 7, 945, 933, 369,C
2025-03-17 14:20:17.749,796, 612, 311, -10, 15, -10, -6, 4, 7, 928, 916, 535,C
2025-03-17 14:20:17.806,595, 650, 467, -32, 30, -28, -7, 4, 5, 907, 878, 482,C
2025-03-17 14:20:17.856,563, 633, 512, -5, -2, -6, -7, 3, 5, 897, 831, 392,C
2025-03-17 14:20:18.163,650, 631, 430, -1, -9, 0, -7, 3, 5, 867, 803, 305,D
2025-03-17 14:20:18.207,651, 629, 431, 0, -9, 0, -6, 2, 5, 867, 805, 315,D
2025-03-17 14:20:18.266,656, 653, 394, 6, -11, 3, -7, 3, 6, 875, 826, 369,D
2025-03-17 14:20:18.318,689, 644, 358, 1, -4, -1, -7, 4, 7, 883, 844, 424,D
2025-03-17 14:20:18.371,637, 650, 412, -3, -8, -3, -5, 3, 7, 888, 859, 447,D
2025-03-17 14:20:18.426,657, 593, 433, 2, -16, -6, -8, 3, 5, 895, 887, 487,D
2025-03-17 14:20:18.476,703, 550, 416, 8, -6, -9, -6, 2, 6, 912, 901, 495,D
2025-03-17 14:20:18.531,788, 658, 412, 45, 21, 6, -5, 2, 7, 931, 885, 433,D
2025-03-17 14:20:18.584,572, 835, 31, 8, 36, 26, -4, 2, 8, 938, 852, 191,D
2025-03-17 14:20:18.636,651, 681, 392, -5, 26, 20, -5, 1, 7, 922, 800, 256,D
2025-03-17 14:20:18.694,559, 489, 544, -7, -8, -13, -4, 2, 4, 894, 785, 346,D
2025-03-17 14:20:18.751,662, 673, 350, -33, -31, -26, -4, 3, 4, 885, 837, 439,D
2025-03-17 14:20:18.806,704, 634, 448, 2, -29, -5, -6, 3, 6, 902, 884, 501,D
2025-03-17 14:20:18.856,755, 683, 344, 20, -15, 1, -6, 3, 7, 938, 922, 550,D
2025-03-17 14:20:18.906,646, 687, 267, 14, 7, 22, -7, 0, 10, 942, 928, 581,D
2025-03-17 14:20:18.968,647, 616, 319, 16, 32, 17, -6, 1, 10, 949, 930, 452,D
2025-03-17 14:20:19.018,534, 622, 218, -15, 21, -5, -4, 1, 7, 935, 869, 257,D
2025-03-17 14:20:19.076,796, 669, 398, -35, 24, -21, -5, 1, 5, 921, 844, 379,D
2025-03-17 14:20:19.135,518, 689, 619, -25, 22, -25, -7, 3, 3, 910, 846, 393,D
2025-03-17 14:20:19.186,554, 661, 502, 10, -15, 2, -6, 3, 4, 897, 841, 450,D
2025-03-17 14:20:19.476,649, 634, 426, -3, -3, 1, -7, 2, 5, 890, 834, 429,E
2025-03-17 14:20:19.526,654, 632, 426, -2, -3, 1, -7, 2, 5, 893, 839, 424,E
2025-03-17 14:20:19.576,657, 651, 409, -1, -7, 2, -7, 2, 5, 887, 836, 430,E
2025-03-17 14:20:19.636,656, 637, 403, -1, -5, -1, -7, 2, 6, 893, 847, 439,E
2025-03-17 14:20:19.686,642, 654, 406, -5, -10, -2, -8, 3, 5, 901, 862, 445,E
2025-03-17 14:20:19.743,662, 602, 430, 6, -19, 0, -9, 3, 6, 901, 874, 451,E
2025-03-17 14:20:19.801,696, 743, 402, 12, -11, -10, -7, 2, 8, 933, 901, 426,E
2025-03-17 14:20:19.851,704, 788, 337, 30, 20, 16, -7, 1, 11, 941, 901, 442,E
2025-03-17 14:20:19.905,536, 777, 130, 5, 26, 18, -5, 1, 9, 947, 899, 144,E
2025-03-17 14:20:19.965,690, 651, 348, -15, 13, 13, -6, 3, 7, 935, 891, 250,E
2025-03-17 14:20:20.017,587, 719, 375, -8, -37, -42, -7, 3, 5, 912, 875, 442,E
2025-03-17 14:20:20.076,625, 584, 442, -3, -33, -7, -5, 2, 9, 927, 893, 375,E
2025-03-17 14:20:20.128,734, 674, 371, 20, -11, -5, -6, 2, 9, 938, 921, 389,E
2025-03-17 14:20:20.186,655, 666, 252, 10, -4, 15, -7, 1, 10, 947, 939, 531,E
2025-03-17 14:20:20.236,691, 649, 334, 14, 3, 9, -6, 2, 12, 949, 939, 575,E
2025-03-17 14:20:20.286,607, 625, 271, 6, 31, -16, -5, 0, 12, 919, 885, 559,E
2025-03-17 14:20:20.346,653, 709, 438, -11, 2, -1, -6, 0, 10, 926, 804, 309,E
2025-03-17 14:20:20.400,778, 725, 216, 21, 3, 4, -6, 1, 8, 934, 900, 498,E
2025-03-17 14:20:20.452,675, 625, 292, -3, 0, 20, -5, 1, 9, 945, 934, 649,E
2025-03-17 14:20:20.506,649, 648, 335, 14, 6, 9, -5, -1, 11, 938, 920, 675,E
2025-03-17 14:20:20.558,541, 692, 384, -9, 31, -13, -4, 0, 9, 922, 823, 555,E
2025-03-17 14:20:20.616,767, 537, 372, 24, -9, 4, -4, 0, 7, 920, 813, 400,E
2025-03-17 14:20:20.668,553, 704, 199, -8, 2, 17, -4, 0, 9, 951, 937, 604,E
2025-03-17 14:20:20.718,663, 616, 358, 7, 10, 11, -4, 2, 7, 931, 923, 670,E
2025-03-17 14:20:20.776,691, 589, 230, -31, 44, -45, -5, 2, 7, 891, 832, 640,E
2025-03-17 14:20:20.833,578, 687, 557, -30, -7, -14, -7, 0, 5, 862, 670, 526,E
2025-03-17 14:20:20.886,645, 666, 423, -7, -16, -6, -6, 1, 4, 843, 638, 463,E
2025-03-17 14:20:21.192,637, 644, 436, 2, -4, 0, -8, 3, 4, 827, 626, 228,F
2025-03-17 14:20:21.247,636, 651, 429, 3, -5, 0, -7, 3, 5, 828, 634, 240,F
2025-03-17 14:20:21.296,636, 650, 421, 3, -7, 1, -7, 4, 4, 832, 676, 265,F
2025-03-17 14:20:21.349,630, 650, 417, -2, -11, 1, -5, 2, 7, 834, 715, 304,F
2025-03-17 14:20:21.401,641, 659, 429, 1, -21, 4, -7, 2, 6, 843, 772, 308,F
2025-03-17 14:20:21.456,683, 628, 399, 6, -17, 3, -7, 2, 6, 876, 829, 280,F
2025-03-17 14:20:21.506,705, 737, 335, 23, -4, -2, -6, 3, 8, 912, 850, 293,F
2025-03-17 14:20:21.566,609, 592, 365, 26, 25, 12, -5, 2, 10, 922, 844, 133,F
2025-03-17 14:20:21.617,625, 503, 296, 8, 16, 10, -3, 3, 8, 925, 788, 64,F
2025-03-17 14:20:21.667,698, 629, 367, -6, 12, 10, -5, 2, 7, 909, 756, 39,F
2025-03-17 14:20:21.726,654, 469, 459, 4, -29, -54, -6, 3, 6, 875, 755, 301,F
2025-03-17 14:20:21.783,551, 727, 578, -3, -38, -9, -8, 3, 6, 875, 828, 424,F
2025-03-17 14:20:21.837,748, 586, 288, 34, -23, -17, -7, 2, 9, 921, 887, 376,F
2025-03-17 14:20:21.886,627, 816, 165, -4, 1, 27, -4, 1, 13, 932, 925, 600,F
2025-03-17 14:20:21.946,648, 625, 469, 11, -1, 11, -5, 2, 12, 922, 915, 636,F
2025-03-17 14:20:22.000,661, 571, 265, 6, 33, -18, -5, 1, 10, 920, 857, 510,F
2025-03-17 14:20:22.051,632, 704, 462, -8, 8, -2, -5, 1, 9, 894, 683, 295,F
2025-03-17 14:20:22.106,745, 855, 204, 16, -8, 0, -4, 1, 10, 929, 887, 435,F
2025-03-17 14:20:22.164,616, 688, 232, -4, -1, 20, -6, 1, 11, 927, 916, 612,F
2025-03-17 14:20:22.217,701, 673, 287, -8, 18, -16, -5, 2, 8, 908, 888, 646,F
2025-03-17 14:20:22.267,599, 717, 438, -39, 31, -28, -7, -1, 9, 883, 783, 405,F
2025-03-17 14:20:22.646,665, 655, 387, -5, -5, 0, -6, 3, 7, 855, 757, 290,G
2025-03-17 14:20:22.700,658, 663, 383, -3, -5, 1, -6, 1, 8, 857, 762, 281,G
2025-03-17 14:20:22.750,676, 663, 347, -4, -4, 1, -6, 2, 7, 868, 788, 278,G
2025-03-17 14:20:22.806,664, 662, 369, -6, -3, -2, -6, 1, 8, 872, 808, 344,G
2025-03-17 14:20:22.856,657, 667, 374, -6, -7, 2, -6, 2, 9, 885, 832, 351,G
2025-03-17 14:20:22.905,646, 648, 372, -5, -13, 5, -6, 1, 8, 897, 860, 369,G
2025-03-17 14:20:22.967,692, 625, 360, 2, -18, 1, -6, 2, 10, 909, 896, 348,G
2025-03-17 14:20:23.017,842, 571, 324, 23, 2, -14, -7, 1, 12, 918, 887, 203,G
2025-03-17 14:20:23.076,777, 747, 229, 24, 29, 4, -4, 1, 11, 945, 873, 131,G
2025-03-17 14:20:23.130,582, 706, 318, -30, 38, 36, -5, 1, 10, 948, 888, 56,G
2025-03-17 14:20:23.184,645, 607, 548, -30, 4, 25, -4, 3, 7, 941, 914, 69,G
2025-03-17 14:20:23.242,755, 596, 235, -2, -23, -15, -5, 3, 6, 929, 921, 182,G
2025-03-17 14:20:23.292,697, 562, 408, 6, -8, -10, -7, 4, 7, 925, 912, 294,G
2025-03-17 14:20:23.348,843, 744, 153, 2, 19, 19, -4, 2, 11, 947, 920, 245,G
2025-03-17 14:20:23.406,677, 578, 378, -29, 19, 14, -5, 3, 9, 938, 910, 245,G
2025-03-17 14:20:23.456,573, 689, 393, 6, -14, -37, -6, 3, 7, 920, 870, 281,G
2025-03-17 14:20:23.515,751, 551, 478, -19, -17, -7, -5, 4, 8, 931, 887, 47,G
2025-03-17 14:20:23.567,729, 761, 330, 18, -5, 17, -5, 2, 8, 944, 935, 248,G
2025-03-17 14:20:23.617,640, 656, 337, -2, -3, 13, -7, 3, 9, 951, 944, 280,G
2025-03-17 14:20:23.676,775, 536, 340, 1, 12, -9, -7, 5, 7, 934, 922, 385,G
2025-03-17 14:20:23.733,674, 690, 410, -18, 16, -23, -7, 1, 9, 890, 840, 288,G
2025-03-17 14:20:23.785,642, 659, 410, 0, -1, -5, -6, 2, 7, 877, 749, 217,G
2025-03-17 14:20:24.096,680, 643, 402, 2, 0, 0, -5, 3, 9, 831, 553, 60,H
2025-03-17 14:20:24.149,672, 651, 396, 1, -1, 0, -7, 3, 7, 835, 561, 49,H
2025-03-17 14:20:24.203,680, 646, 391, 1, -2, -1, -6, 1, 7, 839, 606, 170,H
2025-03-17 14:20:24.256,661, 643, 392, -3, -2, -2, -6, 2, 8, 838, 650, 222,H
2025-03-17 14:20:24.311,654, 648, 380, -4, -4, -3, -5, 3, 7, 851, 693, 217,H
2025-03-17 14:20:24.364,652, 646, 388, -8, -5, -8, -4, 2, 9, 842, 709, 60,H
2025-03-17 14:20:24.417,670, 653, 404, -3, -8, -5, -6, 2, 8, 847, 759, 75,H
2025-03-17 14:20:24.470,667, 704, 386, 4, -13, 3, -6, 3, 8, 867, 831, 166,H
2025-03-17 14:20:24.520,702, 458, 299, 14, -6, -9, -5, 2, 10, 908, 872, 143,H
2025-03-17 14:20:24.575,806, 778, 289, 24, 12, 7, -7, 2, 10, 934, 875, 139,H
2025-03-17 14:20:24.634,670, 665, 258, -2, 27, 23, -6, 3, 12, 952, 875, 45,H
2025-03-17 14:20:24.687,712, 608, 284, -7, 10, 11, -3, 2, 10, 941, 853, 61,H
2025-03-17 14:20:24.737,632, 440, 479, -7, -11, -38, -4, 1, 8, 918, 809, 32,H
2025-03-17 14:20:24.787,604, 632, 542, -4, -23, 5, -5, 4, 7, 909, 836, 67,H
2025-03-17 14:20:24.848,765, 516, 247, 23, -5, -6, -4, 3, 9, 947, 911, 33,H
2025-03-17 14:20:24.901,684, 689, 294, -3, 2, 22, -4, 2, 10, 944, 933, 291,H
2025-03-17 14:20:24.956,726, 527, 296, -7, 7, -4, -7, 4, 11, 937, 932, 379,H
2025-03-17 14:20:25.007,632, 745, 475, -11, -12, -17, -7, 1, 9, 917, 908, 468,H
2025-03-17 14:20:25.069,816, 218, 269, -16, -17, -13, -7, 3, 11, 935, 926, 399,H
2025-03-17 14:20:25.126,727, 542, 379, 14, 45, 26, -4, 2, 10, 948, 922, 263,H
2025-03-17 14:20:25.177,700, 690, 306, -18, 23, 20, -5, 3, 9, 956, 913, 24,H
2025-03-17 14:20:25.236,770, 457, 472, -2, 5, -24, -6, 3, 5, 918, 835, 133,H
2025-03-17 14:20:25.286,618, 599, 404, -41, 22, -30, -5, 4, 6, 886, 807, 108,H
2025-03-17 14:20:25.342,559, 663, 557, -4, -6, 0, -7, 2, 7, 858, 765, 73,H
2025-03-17 14:20:25.666,668, 648, 436, -4, -2, -2, -7, 3, 5, 825, 635, 64,I
2025-03-17 14:20:25.715,654, 647, 422, -5, -3, -1, -6, 2, 7, 824, 633, 55,I
2025-03-17 14:20:25.766,649, 629, 441, 0, -5, -2, -8, 3, 5, 822, 650, 64,I
2025-03-17 14:20:25.816,647, 633, 410, -1, -7, -4, -6, 4, 6, 820, 665, 43,I
2025-03-17 14:20:25.866,635, 625, 454, 3, -9, 0, -7, 3, 7, 829, 688, 63,I
2025-03-17 14:20:25.926,693, 632, 428, 12, -18, 4, -7, 3, 6, 868, 751, 60,I
2025-03-17 14:20:25.982,700, 620, 276, 26, -5, -8, -5, 2, 8, 924, 872, 35,I
2025-03-17 14:20:26.033,589, 720, 280, -1, -12, 24, -6, 2, 10, 946, 935, 438,I
2025-03-17 14:20:26.093,690, 677, 358, 14, -3, 7, -7, 2, 10, 949, 938, 531,I
2025-03-17 14:20:26.145,614, 555, 260, -3, 18, -26, -5, 0, 13, 916, 899, 521,I
2025-03-17 14:20:26.200,719, 745, 537, -7, -13, 7, -6, 0, 10, 907, 857, 316,I
2025-03-17 14:20:26.256,736, 780, 132, 14, 5, 7, -6, 1, 10, 947, 898, 303,I
2025-03-17 14:20:26.305,784, 523, 312, 7, 38, 30, -5, 1, 9, 942, 879, 191,I
2025-03-17 14:20:26.355,686, 639, 373, -19, 29, 11, -4, 2, 9, 929, 793, 57,I
2025-03-17 14:20:26.416,603, 593, 526, -14, 4, -17, -4, 2, 8, 898, 583, 52,I
2025-03-17 14:20:26.466,751, 550, 388, 38, -9, -13, -4, 3, 4, 924, 847, 43,I
2025-03-17 14:20:26.526,720, 720, 260, -7, -10, 27, -5, 2, 9, 949, 937, 269,I
2025-03-17 14:20:26.579,718, 598, 302, -2, 10, 9, -5, 3, 9, 942, 921, 320,I
2025-03-17 14:20:26.633,596, 651, 370, -33, 31, -41, -7, 4, 7, 886, 810, 276,I
2025-03-17 14:20:26.968,661, 641, 408, -9, -2, 1, -8, 2, 8, 831, 666, 60,J
2025-03-17 14:20:27.026,664, 630, 414, -7, -3, 0, -7, 3, 6, 831, 666, 61,J
2025-03-17 14:20:27.076,663, 638, 403, -2, -4, -1, -7, 1, 8, 836, 656, 40,J
2025-03-17 14:20:27.132,663, 642, 393, -9, -3, -6, -8, 4, 6, 842, 680, 40,J
2025-03-17 14:20:27.186,649, 635, 426, -8, -7, -4, -5, 3, 7, 849, 695, 50,J
2025-03-17 14:20:27.236,686, 598, 418, 0, -14, 1, -7, 2, 8, 872, 768, 57,J
2025-03-17 14:20:27.291,779, 515, 395, -2, -10, -12, -5, 3, 6, 914, 839, 65,J
2025-03-17 14:20:27.349,669, 945, 277, 12, -21, 31, -5, 2, 10, 943, 933, 381,J
2025-03-17 14:20:27.400,644, 537, 308, 4, -2, 12, -7, 3, 11, 951, 947, 510,J
2025-03-17 14:20:27.456,727, 618, 187, 3, 13, -4, -6, 2, 11, 923, 913, 556,J
2025-03-17 14:20:27.514,671, 713, 535, -10, 6, -14, -7, 1, 9, 913, 871, 396,J
2025-03-17 14:20:27.566,801, 987, 106, 33, 0, 17, -5, 1, 11, 942, 922, 519,J
2025-03-17 14:20:27.616,574, 879, 208, 9, 30, 25, -6, 1, 12, 954, 931, 110,J
2025-03-17 14:20:27.666,656, 621, 291, -35, 17, 13, -6, 3, 8, 950, 925, 65,J
2025-03-17 14:20:27.726,900, 611, 364, 8, 3, -34, -6, 4, 7, 906, 796, 59,J
2025-03-17 14:20:27.780,779, 589, 221, -19, 44, -19, -6, 1, 6, 876, 738, 71,J
2025-03-17 14:20:27.832,518, 699, 661, -7, 10, -7, -5, 2, 4, 853, 692, 46,J
2025-03-17 14:20:28.163,666, 644, 399, -8, 2, 1, -6, 3, 8, 842, 566, 41,K
2025-03-17 14:20:28.214,661, 632, 417, -5, 1, 0, -6, 3, 8, 840, 570, 33,K
2025-03-17 14:20:28.268,656, 635, 420, 3, -3, -2, -7, 3, 6, 834, 595, 43,K
2025-03-17 14:20:28.318,653, 650, 399, 5, -7, -5, -4, 3, 6, 838, 658, 47,K
2025-03-17 14:20:28.369,642, 655, 423, 7, -17, 3, -6, 3, 7, 845, 734, 180,K
2025-03-17 14:20:28.418,679, 673, 326, 9, -8, 3, -6, 4, 7, 885, 788, 70,K
2025-03-17 14:20:28.476,692, 684, 334, 3, -10, 2, -6, 2, 9, 908, 838, 49,K
2025-03-17 14:20:28.530,672, 765, 382, -9, 32, 14, -4, 2, 8, 929, 830, 43,K
2025-03-17 14:20:28.582,711, 574, 397, -21, 13, 9, -4, 3, 9, 927, 804, 52,K
2025-03-17 14:20:28.632,666, 632, 380, -24, 9, 6, -5, 4, 7, 934, 827, 41,K
2025-03-17 14:20:28.685,779, 644, 504, 15, -42, -7, -5, 6, 8, 933, 930, 67,K
2025-03-17 14:20:28.736,752, 665, 329, -10, -21, 2, -6, 2, 10, 937, 945, 70,K
2025-03-17 14:20:28.796,680, 621, 431, 11, -8, -2, -7, 3, 11, 932, 941, 68,K
2025-03-17 14:20:28.850,666, 593, 241, 14, 40, -29, -7, 3, 9, 912, 901, 123,K
2025-03-17 14:20:28.902,723, 667, 566, 2, -9, 8, -6, 2, 7, 915, 876, 50,K
2025-03-17 14:20:28.956,745, 730, 314, -16, 3, 26, -5, 2, 10, 949, 927, 49,K
2025-03-17 14:20:29.006,624, 821, 245, -15, 17, 33, -6, 3, 9, 954, 937, 53,K
2025-03-17 14:20:29.066,732, 540, 375, -7, 10, -9, -6, 2, 10, 933, 906, 52,K
2025-03-17 14:20:29.118,696, 729, 346, -29, 38, -35, -6, 2, 7, 871, 690, 70,K
2025-03-17 14:20:29.168,561, 620, 536, 0, -3, -13, -6, 4, 4, 831, 546, 27,K
2025-03-17 14:20:29.476,644, 623, 420, 9, -14, 4, -8, 3, 7, 817, 602, 57,L
2025-03-17 14:20:29.526,647, 633, 406, 11, -14, 3, -6, 3, 7, 821, 613, 42,L
2025-03-17 14:20:29.582,681, 645, 363, 9, -11, 0, -6, 4, 6, 826, 667, 44,L
2025-03-17 14:20:29.633,681, 645, 346, 6, -5, -10, -4, 1, 9, 817, 700, 162,L
2025-03-17 14:20:29.691,640, 664, 396, -5, -9, -11, -6, 2, 7, 816, 753, 247,L
2025-03-17 14:20:29.746,682, 695, 406, 10, -25, 4, -4, 3, 9, 874, 852, 319,L
2025-03-17 14:20:29.798,683, 634, 259, 6, -2, -5, -5, 0, 10, 917, 887, 354,L
2025-03-17 14:20:29.856,675, 472, 381, 32, 32, 17, -5, 1, 11, 924, 867, 262,L
2025-03-17 14:20:29.906,640, 698, 335, -20, 19, 11, -2, 2, 8, 950, 850, 38,L
2025-03-17 14:20:29.963,715, 634, 437, -35, 17, 12, -4, 1, 8, 939, 834, 50,L
2025-03-17 14:20:30.016,779, 702, 328, 20, -2, 10, -3, 3, 7, 955, 924, 45,L
2025-03-17 14:20:30.065,602, 712, 491, 5, -5, 18, -5, 3, 7, 942, 933, 171,L
2025-03-17 14:20:30.115,664, 627, 337, 8, 8, 7, -6, 3, 9, 944, 922, 324,L
2025-03-17 14:20:30.176,731, 600, 360, -16, 21, -28, -5, 1, 6, 901, 805, 344,L
2025-03-17 14:20:30.501,652, 651, 429, 4, -14, 6, -5, 2, 7, 805, 584, 36,M
2025-03-17 14:20:30.555,658, 646, 417, 4, -14, 6, -5, 2, 7, 809, 591, 27,M
2025-03-17 14:20:30.605,683, 632, 402, 8, -8, 3, -6, 3, 4, 815, 641, 42,M
2025-03-17 14:20:30.656,708, 650, 347, 4, -5, -2, -7, 2, 7, 828, 670, 35,M
2025-03-17 14:20:30.706,624, 651, 389, -4, -5, -9, -6, 2, 7, 831, 720, 45,M
2025-03-17 14:20:30.765,665, 653, 430, -1, -19, -4, -7, 2, 6, 842, 804, 122,M
2025-03-17 14:20:30.816,730, 729, 408, -4, -7, -6, -6, 3, 6, 905, 863, 48,M
2025-03-17 14:20:30.866,598, 953, 309, 32, 36, 25, -6, 1, 9, 932, 845, 67,M
2025-03-17 14:20:30.929,779, 600, 277, -13, 24, 28, -4, 1, 7, 940, 804, 42,M
2025-03-17 14:20:30.976,705, 457, 558, -15, 2, -5, -5, 4, 4, 891, 794, 52,M
2025-03-17 14:20:31.036,633, 829, 290, 0, -29, -16, -5, 1, 7, 824, 843, 176,M
2025-03-17 14:20:31.091,737, 686, 333, -14, -12, -3, -7, 3, 7, 909, 896, 129,M
2025-03-17 14:20:31.146,638, 866, 333, 0, 16, 37, -7, 3, 8, 929, 894, 213,M
2025-03-17 14:20:31.196,657, 526, 394, -9, 7, 21, -4, 2, 10, 941, 915, 38,M
2025-03-17 14:20:31.249,705, 520, 347, 17, -20, -16, -5, 2, 8, 900, 913, 296,M
2025-03-17 14:20:31.306,750, 530, 486, 38, -6, -7, -6, 1, 10, 891, 895, 426,M
2025-03-17 14:20:31.364,801, 686, 323, -16, 40, 28, -6, 3, 8, 924, 890, 69,M
2025-03-17 14:20:31.416,751, 527, 464, -27, 8, -7, -5, 3, 7, 897, 891, 65,M
2025-03-17 14:20:31.465,690, 700, 272, -23, 31, -39, -5, 3, 8, 804, 855, 215,M
2025-03-17 14:20:31.786,665, 661, 375, -15, -5, -3, -6, 1, 6, 605, 549, 46,N
2025-03-17 14:20:31.841,676, 640, 384, -12, -4, -3, -6, 3, 5, 606, 538, 62,N
2025-03-17 14:20:31.892,663, 651, 403, 1, -7, -5, -5, 3, 5, 623, 582, 47,N
2025-03-17 14:20:31.946,661, 652, 363, 4, -6, -8, -5, 2, 6, 638, 693, 72,N
2025-03-17 14:20:31.998,637, 631, 419, 6, -15, -5, -4, 2, 7, 652, 765, 57,N
2025-03-17 14:20:32.050,662, 662, 443, 17, -25, 0, -6, 2, 7, 825, 826, 53,N
2025-03-17 14:20:32.098,744, 731, 270, 32, -5, -2, -4, 2, 10, 915, 839, 58,N
2025-03-17 14:20:32.163,508, 1001, 141, -13, 38, 27, -4, 2, 9, 936, 788, 40,N
2025-03-17 14:20:32.216,717, 780, 205, -37, 25, 23, -4, 1, 9, 912, 761, 64,N
2025-03-17 14:20:32.266,544, 436, 536, 32, -40, -54, -4, 0, 7, 827, 785, 187,N
2025-03-17 14:20:32.326,1100, 464, 436, -19, -18, -9, -6, 0, 7, 900, 882, 143,N
2025-03-17 14:20:32.382,867, 881, 290, 7, 22, 43, -4, 1, 11, 925, 879, 246,N
2025-03-17 14:20:32.436,567, 691, 436, -46, 26, 45, -5, 3, 9, 935, 872, 78,N
2025-03-17 14:20:32.486,624, 348, 374, -15, -20, -26, -6, 5, 8, 931, 925, 73,N
2025-03-17 14:20:32.547,738, 576, 426, 45, -9, -5, -7, 3, 9, 909, 925, 412,N
2025-03-17 14:20:32.600,686, 491, 161, -32, 73, -46, -9, 4, 7, 879, 909, 404,N
2025-03-17 14:20:32.656,505, 758, 775, -16, 15, -7, -7, 1, 4, 812, 845, 221,N
2025-03-17 14:20:32.960,665, 654, 410, -7, -4, 2, -7, 2, 6, 744, 552, 61,O
2025-03-17 14:20:33.016,661, 643, 405, -6, -3, 2, -8, 4, 7, 748, 549, 46,O
2025-03-17 14:20:33.066,686, 636, 406, -2, -4, 2, -7, 2, 8, 766, 595, 47,O
2025-03-17 14:20:33.116,678, 620, 411, -5, 0, 1, -8, 4, 5, 786, 634, 48,O
2025-03-17 14:20:33.166,669, 635, 411, -4, -2, 2, -6, 3, 6, 799, 659, 32,O
2025-03-17 14:20:33.226,696, 628, 424, 20, -6, 13, -6, 3, 7, 826, 751, 56,O
2025-03-17 14:20:33.280,679, 625, 389, 21, -15, 2, -6, 3, 6, 850, 840, 167,O
2025-03-17 14:20:33.333,710, 643, 268, 2, -1, -3, -7, 3, 8, 845, 848, 189,O
2025-03-17 14:20:33.386,620, 633, 435, -6, -8, -8, -6, 2, 8, 860, 868, 167,O
2025-03-17 14:20:33.441,703, 740, 270, -12, -6, -24, -7, 3, 9, 896, 886, 47,O
2025-03-17 14:20:33.498,570, 656, 392, 19, 12, -18, -3, 0, 8, 906, 850, 68,O
2025-03-17 14:20:33.549,876, 892, 105, -33, 53, 61, -4, 0, 9, 926, 865, 67,O
2025-03-17 14:20:33.600,606, 633, 458, -67, 12, 41, -5, 6, 6, 921, 906, 68,O
2025-03-17 14:20:33.662,183, 484, 664, 11, -45, -34, -8, 6, 5, 922, 933, 65,O
2025-03-17 14:20:33.714,643, 790, 297, 15, -13, -27, -6, 3, 9, 868, 890, 164,O
2025-03-17 14:20:33.766,749, 569, 241, -50, 73, -38, -5, 3, 8, 853, 860, 63,O
2025-03-17 14:20:33.826,475, 703, 722, -22, 15, -4, -7, 4, 2, 838, 798, 73,O
2025-03-17 14:20:34.096,652, 631, 444, -7, -6, 1, -6, 2, 6, 753, 663, 40,P
2025-03-17 14:20:34.156,648, 642, 429, -6, -7, 1, -7, 4, 5, 737, 657, 55,P
2025-03-17 14:20:34.206,643, 639, 412, 0, -13, 0, -6, 1, 7, 759, 711, 65,P
2025-03-17 14:20:34.263,674, 627, 419, 1, -20, -1, -6, 2, 6, 792, 765, 33,P
2025-03-17 14:20:34.316,726, 611, 438, 1, -11, -2, -6, 3, 8, 846, 824, 66,P
2025-03-17 14:20:34.366,740, 604, 481, 25, 20, 10, -6, 2, 8, 916, 847, 51,P
2025-03-17 14:20:34.416,459, 529, 320, -14, 32, 29, -4, 4, 8, 926, 834, 67,P
2025-03-17 14:20:34.476,704, 600, 448, -22, 17, 12, -3, 4, 8, 917, 832, 66,P
2025-03-17 14:20:34.530,630, 325, 490, 12, -38, -46, -5, 4, 5, 892, 830, 62,P
2025-03-17 14:20:34.586,679, 657, 470, 20, -39, -29, -7, 4, 7, 886, 887, 40,P
2025-03-17 14:20:34.640,802, 656, 358, 4, -27, 0, -5, 2, 10, 927, 929, 182,P
2025-03-17 14:20:34.689,626, 682, 327, 11, 5, 9, -7, 2, 11, 950, 939, 200,P
2025-03-17 14:20:34.747,816, 823, 137, -4, 33, 13, -5, 0, 11, 925, 902, 69,P
2025-03-17 14:20:34.798,1003, 468, 247, -16, 26, -15, -4, 2, 9, 905, 860, 45,P
2025-03-17 14:20:34.856,572, 647, 551, -29, 35, -25, -6, 3, 7, 902, 864, 52,P
2025-03-17 14:20:35.146,652, 633, 411, 6, -10, 6, -7, 3, 7, 864, 816, 231,Q
2025-03-17 14:20:35.196,650, 646, 406, 7, -11, 7, -5, 2, 10, 866, 825, 232,Q
2025-03-17 14:20:35.251,621, 614, 407, 3, -14, 0, -7, 4, 9, 866, 864, 268,Q
2025-03-17 14:20:35.306,661, 562, 315, 9, -10, -18, -7, 1, 10, 889, 890, 188,Q
2025-03-17 14:20:35.362,537, 635, 475, 4, 0, -16, -6, 2, 11, 914, 883, 51,Q
2025-03-17 14:20:35.415,592, 760, 285, 20, 30, 4, -4, 0, 11, 928, 855, 64,Q
2025-03-17 14:20:35.465,636, 673, 259, -17, 40, 46, -4, 3, 8, 947, 887, 48,Q
2025-03-17 14:20:35.516,596, 479, 591, -46, -5, 24, -6, 5, 6, 942, 931, 46,Q
2025-03-17 14:20:35.579,265, 377, 672, 16, -48, -43, -7, 6, 6, 928, 940, 46,Q
2025-03-17 14:20:35.636,734, 678, 302, 21, -10, -14, -5, 1, 8, 906, 915, 189,Q
2025-03-17 14:20:35.686,656, 523, 348, -28, 47, -8, -6, 2, 9, 901, 881, 49,Q
2025-03-17 14:20:35.740,553, 634, 547, -14, -22, 24, -6, 3, 5, 915, 880, 43,Q
2025-03-17 14:20:35.796,836, 578, 318, 23, -3, 6, -5, 3, 8, 948, 925, 46,Q
2025-03-17 14:20:35.849,578, 690, 277, -36, 20, 36, -6, 5, 7, 961, 938, 39,Q
2025-03-17 14:20:35.900,725, 502, 366, -19, 14, 1, -6, 6, 8, 937, 908, 49,Q
2025-03-17 14:20:35.956,633, 588, 454, -11, 29, -41, -7, 5, 5, 887, 711, 43,Q
2025-03-17 14:20:36.256,667, 625, 433, -5, -5, -8, -6, 4, 5, 785, 501, 56,R
2025-03-17 14:20:36.316,668, 615, 446, -2, -6, -8, -6, 5, 6, 785, 521, 37,R
2025-03-17 14:20:36.365,666, 625, 431, 12, -9, -4, -7, 4, 4, 779, 656, 45,R
2025-03-17 14:20:36.416,663, 636, 416, 6, -7, -5, -8, 4, 6, 796, 709, 58,R
2025-03-17 14:20:36.466,622, 658, 426, 5, -16, -4, -6, 1, 5, 821, 790, 53,R
2025-03-17 14:20:36.517,703, 605, 385, 9, -11, -1, -6, 2, 7, 860, 858, 57,R
2025-03-17 14:20:36.575,731, 693, 372, 27, 3, 4, -6, 2, 9, 919, 863, 130,R
2025-03-17 14:20:36.630,604, 825, 349, -32, 41, 43, -5, 2, 9, 951, 868, 30,R
2025-03-17 14:20:36.683,630, 558, 386, -40, 19, 17, -4, 5, 7, 935, 865, 46,R
2025-03-17 14:20:36.740,727, 626, 420, 45, -53, -58, -5, 2, 7, 906, 880, 36,R
2025-03-17 14:20:36.795,733, 607, 471, 7, -32, 2, -6, 2, 8, 946, 937, 254,R
2025-03-17 14:20:36.846,487, 713, 269, -12, 17, 25, -5, 1, 10, 952, 939, 178,R
2025-03-17 14:20:36.905,779, 509, 302, -17, 15, -2, -7, 3, 9, 948, 901, 61,R
2025-03-17 14:20:36.956,911, 912, 228, -41, 14, 38, -5, 3, 8, 960, 929, 46,R
2025-03-17 14:20:37.011,686, 531, 466, -24, 15, 30, -5, 5, 8, 955, 929, 43,R
2025-03-17 14:20:37.064,621, 517, 369, -16, 34, -41, -7, 5, 7, 935, 868, 54,R
2025-03-17 14:20:37.366,660, 623, 427, 3, -12, 5, -8, 3, 7, 890, 842, 60,S
2025-03-17 14:20:37.418,662, 617, 413, 5, -12, 6, -7, 4, 8, 897, 847, 49,S
2025-03-17 14:20:37.466,692, 619, 417, 12, -11, 9, -7, 4, 7, 907, 874, 31,S
2025-03-17 14:20:37.528,674, 628, 408, 10, -12, 6, -6, 4, 9, 907, 898, 265,S
2025-03-17 14:20:37.580,671, 571, 431, 7, -17, 2, -7, 4, 7, 921, 915, 278,S
2025-03-17 14:20:37.630,708, 606, 340, 9, -2, -13, -6, 3, 9, 924, 920, 155,S
2025-03-17 14:20:37.686,676, 536, 506, 31, 6, -18, -8, 3, 10, 933, 899, 129,S
2025-03-17 14:20:37.738,800, 713, 253, 30, 27, 14, -4, 3, 9, 945, 905, 185,S
2025-03-17 14:20:37.794,420, 585, 378, -7, 26, 36, -5, 3, 7, 960, 937, 82,S
2025-03-17 14:20:37.846,645, 540, 566, -24, 17, 18, -7, 3, 5, 959, 927, 52,S
2025-03-17 14:20:37.899,865, 627, 291, 9, 16, -7, -3, 5, 5, 937, 829, 41,S
2025-03-17 14:20:37.956,742, 450, 198, -23, 50, -43, -7, 5, 2, 915, 862, 51,S
2025-03-17 14:20:38.260,723, 636, 319, 0, -3, -4, -7, 2, 7, 877, 842, 288,T
2025-03-17 14:20:38.312,709, 644, 321, -2, -1, -5, -7, 2, 8, 876, 843, 294,T
2025-03-17 14:20:38.366,651, 656, 400, -9, -1, -5, -7, 2, 7, 880, 842, 246,T
2025-03-17 14:20:38.416,661, 657, 368, -9, -3, -9, -6, 2, 7, 883, 842, 33,T
2025-03-17 14:20:38.466,643, 646, 377, -9, -2, -7, -6, 4, 6, 879, 832, 45,T
2025-03-17 14:20:38.528,665, 633, 477, 8, -17, -3, -5, 2, 7, 886, 850, 54,T
2025-03-17 14:20:38.580,854, 373, 295, 53, -6, -8, -4, 2, 9, 938, 904, 36,T
2025-03-17 14:20:38.636,519, 526, 249, -3, -8, 33, -7, 3, 10, 951, 941, 456,T
2025-03-17 14:20:38.689,637, 602, 386, 15, -5, 6, -7, 2, 10, 949, 938, 528,T
2025-03-17 14:20:38.747,626, 576, 307, -19, 25, -38, -5, -1, 11, 928, 891, 448,T
2025-03-17 14:20:38.796,728, 577, 448, 14, -11, 9, -5, 3, 9, 936, 899, 314,T
2025-03-17 14:20:38.851,732, 957, 217, -2, 38, 20, -5, 0, 11, 955, 914, 37,T
2025-03-17 14:20:38.912,691, 658, 267, -19, 30, 20, -4, 3, 10, 953, 885, 38,T
2025-03-17 14:20:38.963,802, 409, 368, -10, 3, -33, -5, 4, 5, 918, 836, 53,T
2025-03-17 14:20:39.017,563, 643, 607, -2, -1, -15, -4, 3, 4, 905, 839, 177,T
2025-03-17 14:20:39.316,679, 657, 385, -1, -3, -2, -6, 3, 7, 867, 759, 43,U
2025-03-17 14:20:39.367,680, 646, 381, -2, -1, -2, -6, 2, 8, 867, 760, 37,U
2025-03-17 14:20:39.416,678, 647, 383, -1, 0, -6, -6, 2, 6, 863, 745, 56,U
2025-03-17 14:20:39.477,632, 665, 396, -5, -2, -10, -6, 3, 8, 850, 741, 59,U
2025-03-17 14:20:39.531,654, 638, 384, -13, -7, -8, -6, 3, 6, 855, 764, 42,U
2025-03-17 14:20:39.584,666, 645, 443, -10, -9, 2, -3, 1, 8, 879, 818, 58,U
2025-03-17 14:20:39.634,694, 565, 359, 47, 4, -5, -4, 0, 9, 928, 830, 30,U
2025-03-17 14:20:39.686,672, 745, 252, -5, 32, 34, -4, 3, 7, 940, 835, 59,U
2025-03-17 14:20:39.736,592, 587, 349, -39, 3, 25, -3, 3, 6, 942, 898, 41,U
2025-03-17 14:20:39.798,473, 753, 371, 3, -23, -16, -7, 3, 7, 922, 916, 101,U
2025-03-17 14:20:39.851,728, 700, 392, -9, -14, -7, -6, 2, 6, 911, 918, 301,U
2025-03-17 14:20:39.903,816, 888, 183, 9, 24, 19, -6, 1, 10, 943, 917, 254,U
2025-03-17 14:20:39.961,631, 631, 254, -16, 20, 25, -6, 4, 8, 955, 926, 22,U
2025-03-17 14:20:40.015,757, 444, 267, -11, 23, -41, -7, 6, 6, 921, 892, 94,U
2025-03-17 14:20:40.068,577, 712, 628, -8, 27, -30, -8, 6, 3, 847, 816, 244,U
2025-03-17 14:20:40.346,665, 640, 408, -5, -5, 0, -5, 2, 4, 830, 665, 59,V
2025-03-17 14:20:40.406,663, 635, 408, -5, -5, 0, -6, 4, 4, 833, 668, 59,V
2025-03-17 14:20:40.461,666, 632, 398, -3, -4, -2, -5, 3, 6, 867, 692, 46,V
2025-03-17 14:20:40.513,673, 622, 398, -5, -3, -5, -6, 3, 4, 877, 728, 40,V
2025-03-17 14:20:40.566,626, 633, 468, -7, -10, -6, -8, 5, 3, 880, 770, 36,V
2025-03-17 14:20:40.616,696, 621, 385, 0, -16, -2, -4, 3, 6, 900, 838, 57,V
2025-03-17 14:20:40.666,669, 622, 389, -8, 4, -1, -6, 4, 4, 932, 881, 23,V
2025-03-17 14:20:40.716,729, 550, 478, 28, -5, -2, -6, 4, 5, 939, 874, 53,V
2025-03-17 14:20:40.776,529, 844, 283, 1, 30, 38, -6, 4, 6, 943, 880, 48,V
2025-03-17 14:20:40.828,674, 685, 366, -40, -2, 18, -4, 5, 6, 953, 921, 25,V
2025-03-17 14:20:40.886,600, 436, 351, -9, -37, -21, -6, 5, 6, 946, 935, 43,V
2025-03-17 14:20:40.936,728, 618, 352, 0, 0, 4, -7, 4, 8, 935, 924, 187,V
2025-03-17 14:20:40.989,681, 537, 382, -6, 40, -30, -8, 6, 5, 912, 906, 256,V
2025-03-17 14:20:41.311,679, 633, 396, 5, 1, -4, -5, 2, 6, 832, 619, 60,W
2025-03-17 14:20:41.361,679, 644, 394, 2, 2, -4, -7, 4, 6, 833, 602, 35,W
2025-03-17 14:20:41.411,666, 639, 421, 4, 3, -3, -7, 3, 6, 820, 575, 54,W
2025-03-17 14:20:41.464,642, 646, 395, 7, 0, -4, -7, 3, 5, 811, 578, 30,W
2025-03-17 14:20:41.513,650, 664, 392, 8, 0, -5, -5, 2, 6, 802, 622, 33,W
2025-03-17 14:20:41.566,642, 651, 430, 7, -6, -2, -6, 4, 4, 820, 699, 33,W
2025-03-17 14:20:41.616,892, 472, 315, 3, -8, -13, -4, 1, 7, 877, 808, 49,W
2025-03-17 14:20:41.666,776, 782, 343, 22, 1, 9, -4, 2, 8, 933, 847, 23,W
2025-03-17 14:20:41.716,627, 900, 291, -6, 29, 40, -5, 3, 7, 937, 855, 53,W
2025-03-17 14:20:41.768,630, 640, 426, -40, 3, 19, -4, 3, 5, 939, 897, 55,W
2025-03-17 14:20:41.829,602, 687, 414, -11, -33, -18, -5, 4, 8, 940, 928, 39,W
2025-03-17 14:20:41.886,745, 584, 492, 35, -12, -4, -5, 2, 8, 938, 917, 261,W
2025-03-17 14:20:41.937,706, 780, 270, -8, 20, 26, -4, 3, 8, 945, 915, 42,W
2025-03-17 14:20:41.986,730, 541, 424, -38, -9, 12, -6, 5, 8, 949, 938, 43,W
2025-03-17 14:20:42.045,830, 546, 329, 12, -9, 1, -9, 5, 7, 930, 929, 55,W
2025-03-17 14:20:42.099,699, 535, 355, -22, 46, -31, -7, 4, 8, 912, 907, 65,W
2025-03-17 14:20:42.406,691, 635, 404, 6, -11, 2, -7, 2, 8, 890, 808, 136,X
2025-03-17 14:20:42.466,692, 636, 390, 5, -11, 3, -7, 3, 7, 889, 811, 155,X
2025-03-17 14:20:42.516,697, 643, 349, 4, -7, 2, -6, 2, 9, 892, 846, 248,X
2025-03-17 14:20:42.566,682, 628, 372, 4, -9, 3, -9, 3, 11, 906, 884, 312,X
2025-03-17 14:20:42.627,685, 606, 395, -2, -17, 2, -8, 3, 9, 912, 901, 286,X
2025-03-17 14:20:42.683,695, 502, 394, 27, -2, -12, -8, 3, 10, 943, 904, 125,X
2025-03-17 14:20:42.738,425, 756, 260, 13, 47, 21, -6, 2, 11, 941, 868, 43,X
2025-03-17 14:20:42.789,719, 718, 152, -44, 36, 13, -5, 2, 9, 921, 825, 46,X
2025-03-17 14:20:42.844,485, 475, 643, 6, -43, -57, -7, 3, 5, 883, 821, 59,X
2025-03-17 14:20:42.896,784, 374, 311, -20, -13, -14, -4, 3, 7, 911, 884, 62,X
2025-03-17 14:20:42.945,699, 606, 36, -20, 14, 52, -5, 4, 10, 961, 930, 33,X
2025-03-17 14:20:43.006,661, 560, 408, -26, 22, 38, -5, 5, 6, 953, 928, 48,X
2025-03-17 14:20:43.062,657, 407, 416, 11, 1, -44, -8, 5, 7, 936, 893, 27,X
2025-03-17 14:20:43.112,658, 640, 568, -1, 11, -29, -5, 3, 6, 875, 776, 58,X
2025-03-17 14:20:43.376,673, 652, 416, 4, -5, 0, -8, 4, 7, 841, 822, 40,Y
2025-03-17 14:20:43.426,681, 654, 412, 2, -5, 1, -6, 2, 7, 840, 825, 54,Y
2025-03-17 14:20:43.479,678, 644, 382, 0, -3, -2, -6, 1, 7, 846, 830, 58,Y
2025-03-17 14:20:43.528,661, 654, 401, -2, -2, -4, -5, 0, 7, 859, 850, 28,Y
2025-03-17 14:20:43.586,628, 640, 437, -1, -8, -8, -8, 2, 6, 845, 846, 57,Y
2025-03-17 14:20:43.639,661, 608, 478, 9, -28, 3, -6, 2, 8, 907, 885, 22,Y
2025-03-17 14:20:43.693,666, 661, 253, -25, 4, 36, -4, 3, 11, 944, 926, 296,Y
2025-03-17 14:20:43.747,666, 545, 341, -20, 20, 30, -6, 4, 10, 944, 928, 351,Y
2025-03-17 14:20:43.797,515, 614, 483, 4, -13, -25, -6, 3, 9, 921, 910, 478,Y
2025-03-17 14:20:43.859,708, 543, 472, 10, -26, -9, -7, 2, 10, 927, 924, 468,Y
2025-03-17 14:20:43.911,626, 956, 518, 14, 40, 21, -6, 3, 12, 959, 922, 231,Y
2025-03-17 14:20:43.965,627, 770, 93, 33, 28, 17, -7, 5, 9, 950, 903, 59,Y
2025-03-17 14:20:44.019,867, 559, 392, -28, 30, -2, -5, 3, 9, 927, 855, 43,Y
2025-03-17 14:20:44.077,598, 630, 400, -39, 31, -35, -7, 3, 8, 891, 799, 57,Y
2025-03-17 14:20:44.387,674, 622, 412, -2, -2, -3, -6, 4, 6, 849, 763, 34,Z
2025-03-17 14:20:44.446,671, 624, 416, -3, -1, -3, -6, 4, 6, 848, 763, 39,Z
2025-03-17 14:20:44.496,666, 640, 426, 1, -3, -4, -6, 2, 7, 845, 753, 31,Z
2025-03-17 14:20:44.546,629, 625, 418, 7, -7, -5, -6, 4, 7, 842, 751, 37,Z
2025-03-17 14:20:44.606,691, 615, 442, 14, -24, -3, -6, 4, 8, 869, 798, 57,Z
2025-03-17 14:20:44.656,909, 895, 333, 28, -15, 11, -5, 3, 8, 939, 914, 352,Z
2025-03-17 14:20:44.712,565, 551, 512, 18, 1, 11, -5, 1, 12, 934, 922, 490,Z
2025-03-17 14:20:44.766,960, 688, 373, 15, 43, 8, -5, 2, 12, 935, 888, 299,Z
2025-03-17 14:20:44.816,763, 661, 188, -9, 15, 2, -3, 2, 10, 936, 841, 59,Z
2025-03-17 14:20:44.876,357, 647, 314, -14, -2, 22, -4, 2, 10, 958, 945, 31,Z
2025-03-17 14:20:44.928,700, 624, 311, -1, 5, 12, -6, 4, 8, 948, 937, 189,Z
2025-03-17 14:20:44.978,619, 469, 355, 1, 10, -43, -6, 5, 6, 923, 893, 243,Z
2025-03-17 14:20:45.029,696, 780, 593, -28, -14, 0, -3, 1, 8, 896, 769, 49,Z
2025-03-17 14:20:45.088,859, 700, 166, -7, -20, 7, -5, 1, 9, 935, 922, 301,Z
2025-03-17 14:20:45.146,605, 561, 211, -1, 10, 19, -6, 2, 9, 935, 931, 533,Z
2025-03-17 14:20:45.196,679, 557, 298, -9, 40, -47, -6, 2, 7, 914, 897, 568,Z
2025-03-17 14:20:45.256,587, 696, 582, -22, 16, -21, -6, 2, 6, 881, 796, 413,Z
2025-03-17 14:20:45.522,649, 644, 424, -4, -2, 3, -5, 2, 9, 865, 743, 118,a
2025-03-17 14:20:45.577,647, 651, 404, -4, -3, 3, -8, 3, 6, 868, 744, 109,a
2025-03-17 14:20:45.628,667, 649, 397, -4, -3, 2, -5, 1, 8, 869, 746, 150,a
2025-03-17 14:20:45.679,667, 649, 398, -3, -3, 2, -7, 4, 6, 879, 759, 157,a
2025-03-17 14:20:45.736,666, 642, 393, -5, -4, 1, -6, 4, 5, 881, 779, 156,a
2025-03-17 14:20:45.788,686, 633, 391, -8, -4, 0, -7, 4, 8, 881, 800, 176,a
2025-03-17 14:20:45.838,685, 639, 409, -6, -5, 0, -8, 4, 7, 892, 833, 180,a
2025-03-17 14:20:45.891,666, 640, 400, -4, 0, -3, -6, 3, 7, 881, 844, 226,a
2025-03-17 14:20:45.944,666, 624, 395, 0, -5, 0, -7, 5, 8, 893, 858, 238,a
2025-03-17 14:20:45.996,662, 636, 418, 2, -9, 0, -8, 3, 6, 901, 883, 260,a
2025-03-17 14:20:46.046,673, 595, 389, 0, -16, 0, -6, 3, 11, 897, 897, 292,a
2025-03-17 14:20:46.101,782, 589, 290, 7, -9, -5, -7, 4, 8, 911, 919, 325,a
2025-03-17 14:20:46.156,684, 658, 345, 2, 1, -2, -7, 3, 10, 911, 914, 376,a
2025-03-17 14:20:46.211,694, 650, 318, 2, 10, -5, -8, 0, 12, 900, 897, 396,a
2025-03-17 14:20:46.261,678, 593, 409, 25, 30, 1, -7, 1, 9, 899, 879, 380,a
2025-03-17 14:20:46.316,622, 706, 391, 16, 11, 15, -6, 1, 9, 906, 851, 320,a
2025-03-17 14:20:46.366,642, 665, 353, 2, -13, 9, -4, 2, 10, 914, 884, 305,a
2025-03-17 14:20:46.428,546, 716, 339, -13, -6, -16, -5, 2, 9, 920, 913, 163,a
2025-03-17 14:20:46.478,751, 699, 308, 21, 6, -14, -4, 2, 10, 928, 883, 58,a
2025-03-17 14:20:46.528,831, 623, 245, -25, 24, 26, -5, 3, 9, 944, 905, 42,a
2025-03-17 14:20:46.588,630, 586, 555, -32, 2, 12, -4, 3, 8, 935, 922, 62,a
2025-03-17 14:20:46.645,691, 547, 541, 12, -14, -16, -5, 4, 6, 933, 933, 91,a
2025-03-17 14:20:46.696,802, 810, 124, -1, 18, 15, -5, 3, 7, 938, 917, 59,a
2025-03-17 14:20:46.746,714, 568, 359, -37, 18, 19, -5, 5, 7, 946, 920, 31,a
2025-03-17 14:20:46.796,639, 591, 395, 6, 0, -31, -6, 5, 7, 913, 883, 42,a
2025-03-17 14:20:47.121,688, 606, 404, 1, -2, 0, -5, 3, 7, 882, 848, 235,b
2025-03-17 14:20:47.166,699, 625, 395, 0, -2, -1, -7, 4, 8, 877, 844, 242,b
2025-03-17 14:20:47.229,663, 632, 400, -1, -2, -2, -6, 3, 8, 878, 842, 215,b
2025-03-17 14:20:47.281,660, 659, 371, 3, -10, -5, -6, 5, 7, 877, 847, 158,b
2025-03-17 14:20:47.337,662, 686, 391, -6, -5, -8, -5, 3, 8, 872, 853, 56,b
2025-03-17 14:20:47.388,699, 658, 437, 7, -5, -8, -5, 1, 10, 899, 869, 39,b
2025-03-17 14:20:47.445,742, 786, 322, 29, 24, 21, -5, 3, 8, 924, 872, 57,b
2025-03-17 14:20:47.497,634, 725, 435, -17, 33, 42, -5, 4, 7, 952, 883, 31,b
2025-03-17 14:20:47.546,656, 566, 425, -22, 10, 4, -3, 4, 8, 918, 850, 41,b
2025-03-17 14:20:47.596,819, 671, 293, 13, -20, -8, -4, 4, 9, 920, 902, 42,b
2025-03-17 14:20:47.656,624, 817, 313, -9, -4, 14, -5, 4, 9, 936, 917, 59,b
2025-03-17 14:20:47.710,641, 616, 263, -33, 32, 15, -4, 4, 9, 955, 913, 24,b
2025-03-17 14:20:47.761,822, 477, 389, -6, 18, -2, -6, 6, 6, 922, 819, 42,b
2025-03-17 14:20:47.816,673, 678, 401, 0, 4, -20, -5, 3, 5, 901, 844, 47,b
2025-03-17 14:20:48.104,683, 624, 426, -12, 0, -2, -6, 4, 7, 864, 781, 63,c
2025-03-17 14:20:48.157,675, 634, 422, -12, 0, -2, -5, 3, 7, 868, 775, 50,c
2025-03-17 14:20:48.210,691, 624, 419, -8, -2, 2, -6, 4, 5, 873, 776, 55,c
2025-03-17 14:20:48.263,677, 623, 412, -3, -2, 3, -6, 6, 8, 890, 808, 39,c
2025-03-17 14:20:48.316,614, 616, 458, 7, -12, 10, -7, 2, 7, 903, 849, 42,c
2025-03-17 14:20:48.366,662, 600, 410, 3, -12, -3, -6, 4, 9, 902, 883, 48,c
2025-03-17 14:20:48.416,646, 597, 430, 6, -1, -14, -5, 3, 9, 907, 885, 60,c
2025-03-17 14:20:48.476,727, 698, 333, 23, 9, -10, -5, 4, 8, 941, 874, 23,c
2025-03-17 14:20:48.525,737, 850, 213, 3, 30, 28, -4, 1, 9, 931, 868, 61,c
2025-03-17 14:20:48.578,714, 534, 425, -21, 9, 27, -6, 5, 8, 933, 917, 37,c
2025-03-17 14:20:48.628,721, 662, 404, 8, 0, 11, -6, 5, 7, 927, 906, 61,c
2025-03-17 14:20:48.678,644, 602, 380, -11, 43, -37, -7, 4, 7, 896, 855, 81,c
2025-03-17 14:20:48.985,650, 633, 450, 0, -5, 6, -7, 4, 7, 847, 735, 56,d
2025-03-17 14:20:49.036,670, 619, 441, 1, -6, 6, -7, 3, 7, 843, 735, 99,d
2025-03-17 14:20:49.087,673, 610, 400, 9, -8, 10, -6, 3, 8, 881, 806, 153,d
2025-03-17 14:20:49.140,669, 643, 384, 5, -10, 5, -6, 3, 9, 885, 841, 245,d
2025-03-17 14:20:49.196,707, 640, 404, -7, -6, -16, -8, 4, 7, 899, 877, 129,d
2025-03-17 14:20:49.246,626, 512, 557, 18, -10, -25, -7, 3, 8, 903, 861, 56,d
2025-03-17 14:20:49.306,956, 770, 312, -20, 29, 26, -6, 2, 8, 924, 850, 53,d
2025-03-17 14:20:49.359,741, 658, 343, -46, 14, 30, -5, 5, 6, 905, 877, 59,d
2025-03-17 14:20:49.410,965, 564, 538, 10, -39, -22, -7, 5, 6, 922, 920, 116,d
2025-03-17 14:20:49.471,711, 679, 433, 15, -10, -9, -7, 2, 10, 900, 898, 413,d
2025-03-17 14:20:49.527,691, 593, 314, -22, 40, 27, -6, 1, 10, 903, 876, 361,d
2025-03-17 14:20:49.576,719, 577, 354, -23, 17, 23, -6, 3, 9, 917, 870, 150,d
2025-03-17 14:20:49.637,685, 613, 344, -3, 10, -33, -7, 6, 6, 879, 834, 131,d
2025-03-17 14:20:49.935,668, 621, 419, -1, -3, 1, -5, 2, 7, 880, 792, 163,e
2025-03-17 14:20:49.987,681, 617, 415, 0, -4, 1, -8, 6, 6, 896, 804, 143,e
2025-03-17 14:20:50.036,677, 606, 391, 0, 3, 0, -7, 2, 8, 898, 822, 96,e
2025-03-17 14:20:50.086,706, 592, 417, 0, 0, 3, -6, 4, 5, 930, 858, 35,e
2025-03-17 14:20:50.137,773, 827, 329, 18, 2, 19, -5, 4, 6, 942, 908, 177,e
2025-03-17 14:20:50.192,640, 589, 431, -15, -4, 14, -7, 4, 7, 949, 935, 163,e
2025-03-17 14:20:50.250,648, 529, 437, 3, -16, -15, -7, 4, 7, 938, 935, 213,e
2025-03-17 14:20:50.299,906, 452, 436, 30, 3, -19, -6, 3, 9, 943, 918, 159,e
2025-03-17 14:20:50.356,603, 534, 261, -16, 18, 14, -7, 4, 6, 949, 925, 63,e
2025-03-17 14:20:50.410,731, 522, 632, -11, 3, 15, -6, 4, 8, 948, 935, 41,e
2025-03-17 14:20:50.460,722, 520, 297, -1, 20, -28, -7, 3, 6, 932, 910, 48,e
2025-03-17 14:20:50.756,691, 637, 354, 13, -5, 15, -6, 3, 9, 918, 850, 40,f
2025-03-17 14:20:50.809,714, 631, 347, 13, -3, 15, -8, 3, 8, 913, 848, 47,f
2025-03-17 14:20:50.864,699, 614, 385, 2, 4, 7, -8, 2, 8, 925, 861, 179,f
2025-03-17 14:20:50.916,702, 594, 378, 3, 2, 8, -6, 4, 7, 931, 871, 206,f
2025-03-17 14:20:50.966,697, 611, 398, -1, 3, 9, -7, 5, 7, 938, 883, 131,f
2025-03-17 14:20:51.016,699, 645, 374, -16, 9, 7, -7, 2, 7, 939, 889, 54,f
2025-03-17 14:20:51.069,700, 632, 354, -36, 10, 8, -6, 6, 6, 935, 901, 64,f
2025-03-17 14:20:51.126,688, 418, 700, 7, -50, -43, -6, 5, 3, 950, 938, 38,f
2025-03-17 14:20:51.182,772, 497, 265, 16, -35, -17, -7, 4, 8, 948, 946, 49,f
2025-03-17 14:20:51.236,708, 786, 197, 20, 2, 15, -8, 4, 12, 947, 943, 144,f
2025-03-17 14:20:51.289,551, 589, 446, -5, 40, -23, -6, 2, 9, 944, 935, 122,f
2025-03-17 14:20:51.346,845, 519, 402, 17, -23, -26, -6, 3, 8, 938, 922, 310,f
2025-03-17 14:20:51.396,816, 723, 335, -6, -2, 12, -6, 2, 9, 962, 953, 285,f
2025-03-17 14:20:51.447,812, 408, 348, 1, 12, -5, -7, 2, 9, 944, 934, 307,f
2025-03-17 14:20:51.716,707, 647, 313, -8, -4, -24, -7, 2, 12, 911, 817, 48,g
2025-03-17 14:20:51.766,700, 662, 321, -12, -3, -24, -7, 1, 11, 910, 805, 62,g
2025-03-17 14:20:51.827,625, 708, 374, -7, -8, -14, -7, 2, 13, 908, 775, 64,g
2025-03-17 14:20:51.878,599, 687, 409, -4, 5, 15, -6, 1, 13, 920, 769, 45,g
2025-03-17 14:20:51.929,701, 643, 347, -1, 2, 28, -9, 3, 10, 921, 790, 62,g
2025-03-17 14:20:51.986,714, 613, 343, -7, 6, 18, -7, 2, 11, 922, 828, 43,g
2025-03-17 14:20:52.040,675, 598, 398, -5, -3, 13, -5, 3, 11, 924, 861, 63,g
2025-03-17 14:20:52.093,698, 797, 399, -7, -3, -9, -6, 3, 10, 931, 892, 63,g
2025-03-17 14:20:52.147,803, 556, 328, 7, 10, -11, -5, 4, 10, 938, 886, 62,g
2025-03-17 14:20:52.196,784, 814, 189, -50, 34, 53, -6, 4, 11, 946, 911, 58,g
2025-03-17 14:20:52.256,605, 326, 660, -18, -2, 3, -7, 7, 6, 937, 915, 68,g
2025-03-17 14:20:52.310,800, 479, 464, 28, -11, -18, -6, 5, 7, 937, 915, 46,g
2025-03-17 14:20:52.360,763, 921, 265, 1, 26, 27, -5, 4, 8, 945, 919, 65,g
2025-03-17 14:20:52.416,714, 533, 475, -46, 30, 21, -6, 6, 5, 940, 883, 66,g
2025-03-17 14:20:52.466,1168, 487, 121, 38, 31, -62, -6, 7, 2, 905, 755, 67,g
2025-03-17 14:20:52.527,615, 495, 660, -17, 61, -81, -7, 5, -1, 824, 772, 42,g
2025-03-17 14:20:52.804,457, 729, 283, 24, -9, 91, -10, -5, 10, 476, 587, 183,h
2025-03-17 14:20:52.861,493, 681, 276, 14, -1, 92, -10, -5, 10, 473, 572, 170,h
2025-03-17 14:20:52.916,636, 629, 412, 20, 6, 31, -9, -1, 7, 433, 510, 62,h
2025-03-17 14:20:52.966,678, 664, 435, 3, -7, 27, -10, 0, 5, 549, 531, 101,h
2025-03-17 14:20:53.027,792, 775, 279, -17, -5, 10, -8, 2, 4, 682, 643, 163,h
2025-03-17 14:20:53.076,640, 672, 487, 0, -7, 5, -9, 3, 4, 773, 706, 220,h
2025-03-17 14:20:53.128,664, 596, 308, -2, -6, -3, -9, 2, 3, 795, 754, 246,h
2025-03-17 14:20:53.186,618, 689, 383, -1, -16, -15, -7, 3, 3, 799, 803, 159,h
2025-03-17 14:20:53.244,801, 681, 430, 18, -19, -16, -8, 1, 5, 896, 874, 64,h
2025-03-17 14:20:53.296,504, 748, 283, -13, 49, 43, -7, 2, 6, 935, 870, 54,h
2025-03-17 14:20:53.346,769, 740, 299, -30, 18, 18, -7, 5, 4, 935, 827, 51,h
2025-03-17 14:20:53.396,609, 324, 701, 7, -30, -24, -5, 5, 3, 901, 848, 52,h
2025-03-17 14:20:53.457,559, 653, 561, -2, -9, 3, -7, 4, 6, 929, 887, 368,h
2025-03-17 14:20:53.513,794, 744, 403, -28, 35, 27, -7, 6, 6, 939, 876, 208,h
2025-03-17 14:20:53.566,771, 449, 488, -20, 7, -19, -8, 6, 2, 914, 830, 291,h
2025-03-17 14:20:53.856,675, 613, 431, -7, -1, 0, -8, 6, 4, 860, 635, 73,i
2025-03-17 14:20:53.912,685, 616, 435, -7, -1, 0, -8, 6, 5, 864, 635, 71,i
2025-03-17 14:20:53.962,666, 613, 455, 4, -4, 0, -8, 6, 3, 868, 675, 51,i
2025-03-17 14:20:54.012,681, 604, 435, 3, -2, 1, -8, 6, 5, 871, 705, 56,i
2025-03-17 14:20:54.066,673, 639, 435, 0, -4, 2, -9, 4, 3, 872, 738, 50,i
2025-03-17 14:20:54.116,663, 608, 440, 0, -3, 3, -8, 6, 4, 876, 760, 51,i
2025-03-17 14:20:54.166,666, 607, 419, -4, -5, 2, -7, 6, 5, 894, 792, 50,i
2025-03-17 14:20:54.221,679, 576, 427, -4, -6, -1, -8, 5, 6, 896, 835, 47,i
2025-03-17 14:20:54.276,705, 563, 466, 1, -10, -5, -8, 6, 5, 905, 888, 67,i
2025-03-17 14:20:54.326,739, 716, 514, -10, -7, 10, -10, 6, 6, 955, 918, 40,i
2025-03-17 14:20:54.377,864, 598, 260, -14, 25, 29, -7, 6, 7, 947, 905, 63,i
2025-03-17 14:20:54.436,728, 129, 676, -28, -4, -36, -8, 7, 5, 929, 864, 52,i
2025-03-17 14:20:54.493,405, 649, 841, 0, -39, 5, -10, 8, 6, 926, 894, 54,i
2025-03-17 14:20:54.542,758, 583, 186, 9, -10, -1, -8, 6, 7, 939, 924, 59,i
2025-03-17 14:20:54.596,770, 517, 339, -31, 32, -6, -8, 6, 8, 919, 901, 64,i
2025-03-17 14:20:54.646,560, 621, 571, -21, 28, -17, -10, 5, 6, 912, 874, 73,i
2025-03-17 14:20:55.091,655, 609, 454, 2, 0, -1, -9, 5, 6, 867, 715, 49,j
2025-03-17 14:20:55.140,667, 615, 457, 2, 0, -2, -10, 4, 7, 863, 714, 40,j
2025-03-17 14:20:55.192,672, 624, 418, 0, 1, -1, -8, 5, 6, 861, 706, 52,j
2025-03-17 14:20:55.242,670, 622, 444, 0, -1, 2, -8, 4, 7, 864, 708, 48,j
2025-03-17 14:20:55.291,672, 626, 424, 1, 1, 2, -9, 4, 7, 869, 708, 59,j
2025-03-17 14:20:55.343,670, 613, 439, 0, 0, 3, -10, 6, 5, 875, 710, 52,j
2025-03-17 14:20:55.393,681, 619, 431, 1, 1, 5, -8, 5, 5, 883, 725, 52,j
2025-03-17 14:20:55.443,678, 622, 426, 2, 0, 5, -10, 6, 5, 880, 742, 65,j
2025-03-17 14:20:55.496,645, 607, 439, 4, -6, 9, -9, 6, 6, 887, 780, 72,j
2025-03-17 14:20:55.546,721, 585, 467, 25, -17, 7, -8, 6, 7, 915, 864, 140,j
2025-03-17 14:20:55.596,696, 646, 271, -1, 20, 26, -8, 6, 9, 940, 886, 64,j
2025-03-17 14:20:55.656,483, 732, 372, -62, 31, 33, -7, 6, 7, 951, 895, 34,j
2025-03-17 14:20:55.709,863, -42, 617, -18, -27, -99, -6, 9, 4, 923, 815, 52,j
2025-03-17 14:20:55.766,367, 463, 918, 4, -68, 7, -10, 7, 6, 937, 909, 49,j
2025-03-17 14:20:55.816,737, 728, 49, 32, -15, -7, -8, 6, 11, 947, 930, 51,j
2025-03-17 14:20:55.873,773, 418, 475, -28, 35, 4, -9, 5, 10, 936, 900, 33,j
2025-03-17 14:20:55.926,609, 625, 536, -28, 36, -17, -10, 5, 7, 918, 840, 51,j
2025-03-17 14:20:56.197,695, 626, 403, 2, 1, 2, -8, 6, 7, 879, 690, 64,k
2025-03-17 14:20:56.246,686, 613, 416, 2, 2, 2, -8, 5, 9, 880, 691, 57,k
2025-03-17 14:20:56.298,667, 611, 440, 6, -4, 1, -8, 5, 6, 882, 692, 49,k
2025-03-17 14:20:56.346,678, 616, 410, 3, -5, -2, -7, 5, 10, 869, 711, 57,k
2025-03-17 14:20:56.406,678, 597, 432, -1, -9, -6, -9, 5, 9, 876, 746, 50,k
2025-03-17 14:20:56.458,665, 633, 403, 2, -10, -2, -9, 5, 6, 877, 769, 50,k
2025-03-17 14:20:56.509,671, 601, 392, 1, -11, -1, -9, 4, 9, 887, 827, 59,k
2025-03-17 14:20:56.566,714, 649, 394, 1, -17, -8, -8, 5, 9, 921, 884, 36,k
2025-03-17 14:20:56.616,767, 860, 142, 76, 25, 9, -8, 2, 13, 929, 813, 68,k
2025-03-17 14:20:56.666,786, 518, 372, -28, 25, 20, -6, 4, 10, 932, 699, 46,k
2025-03-17 14:20:56.729,760, 569, 578, -36, -13, 25, -8, 6, 8, 930, 924, 62,k
2025-03-17 14:20:56.776,628, 513, 449, 14, -9, 1, -8, 5, 12, 934, 942, 51,k
2025-03-17 14:20:56.836,636, 509, 241, 1, 13, -18, -7, 6, 10, 914, 887, 54,k
2025-03-17 14:20:56.886,791, 682, 650, 4, -15, 12, -9, 5, 9, 925, 865, 43,k
2025-03-17 14:20:56.942,760, 682, 177, -33, 17, 51, -8, 6, 10, 939, 927, 70,k
2025-03-17 14:20:56.998,699, 325, 542, -11, 8, 10, -8, 8, 10, 942, 928, 37,k
2025-03-17 14:20:57.316,707, 670, 382, -1, -3, -2, -8, 4, 6, 688, 508, 71,l
2025-03-17 14:20:57.373,694, 653, 389, -1, -3, -1, -8, 3, 6, 701, 516, 72,l
2025-03-17 14:20:57.416,664, 648, 399, -2, 0, 2, -8, 5, 6, 746, 587, 56,l
2025-03-17 14:20:57.474,655, 633, 415, 2, -4, 2, -7, 4, 8, 783, 668, 64,l
2025-03-17 14:20:57.526,664, 649, 366, -1, -3, -2, -7, 3, 7, 808, 733, 49,l
2025-03-17 14:20:57.576,649, 639, 387, -4, -7, -8, -7, 3, 7, 795, 764, 59,l
2025-03-17 14:20:57.628,703, 681, 400, 1, -10, -7, -7, 3, 7, 801, 820, 52,l
2025-03-17 14:20:57.678,652, 647, 399, 3, -6, -2, -7, 5, 6, 851, 840, 68,l
2025-03-17 14:20:57.736,675, 617, 297, 1, -10, -8, -6, 3, 8, 903, 867, 73,l
2025-03-17 14:20:57.790,682, 681, 313, 21, 14, 12, -4, 2, 10, 940, 883, 47,l
2025-03-17 14:20:57.841,832, 828, 446, -27, 26, 14, -5, 5, 6, 938, 841, 56,l
2025-03-17 14:20:57.896,722, 730, 335, -22, 27, 23, -6, 5, 6, 934, 817, 37,l
2025-03-17 14:20:57.946,676, 582, 429, -18, 15, -3, -6, 6, 4, 873, 730, 51,l
2025-03-17 14:20:58.007,599, 667, 485, -10, 15, -22, -7, 4, 5, 773, 688, 33,l
2025-03-17 14:20:58.060,616, 633, 495, 3, -10, -6, -8, 5, 3, 729, 691, 68,l
2025-03-17 14:20:58.356,669, 639, 390, -6, 2, 0, -6, 2, 6, 807, 764, 63,m
2025-03-17 14:20:58.409,655, 630, 404, -4, 2, 0, -5, 5, 5, 814, 771, 46,m
2025-03-17 14:20:58.460,656, 644, 404, -4, -1, -1, -9, 5, 5, 824, 778, 70,m
2025-03-17 14:20:58.516,625, 608, 428, 1, -10, -3, -7, 4, 6, 857, 818, 48,m
2025-03-17 14:20:58.566,726, 564, 402, -11, -6, -7, -7, 4, 6, 887, 863, 79,m
2025-03-17 14:20:58.616,672, 784, 364, -1, 23, 16, -4, 5, 8, 937, 875, 65,m
2025-03-17 14:20:58.675,638, 646, 385, -5, 12, 9, -5, 2, 6, 941, 872, 65,m
2025-03-17 14:20:58.726,658, 487, 596, -11, -21, 0, -6, 6, 4, 917, 879, 57,m
2025-03-17 14:20:58.786,776, 678, 523, -17, -25, -5, -7, 5, 5, 928, 910, 62,m
2025-03-17 14:20:58.834,690, 673, 358, -6, 9, 18, -5, 4, 9, 943, 912, 54,m
2025-03-17 14:20:58.886,659, 571, 467, -16, 16, 13, -7, 6, 6, 937, 903, 62,m
2025-03-17 14:20:58.945,664, 440, 577, 24, -46, -24, -7, 5, 4, 923, 905, 69,m
2025-03-17 14:20:58.996,658, 604, 513, 5, -7, 0, -9, 6, 9, 945, 925, 119,m
2025-03-17 14:20:59.046,615, 755, 349, -27, 34, 27, -8, 4, 8, 946, 914, 56,m
2025-03-17 14:20:59.097,719, 409, 500, -9, 1, -18, -8, 7, 6, 931, 895, 50,m
2025-03-17 14:20:59.158,619, 596, 587, -18, 7, -22, -7, 5, 5, 899, 870, 70,m
2025-03-17 14:20:59.438,678, 598, 430, 0, 1, -5, -9, 6, 6, 819, 686, 44,n
2025-03-17 14:20:59.493,684, 607, 433, 1, 1, -6, -9, 7, 5, 814, 684, 66,n
2025-03-17 14:20:59.543,663, 619, 452, 0, -1, -3, -9, 5, 6, 813, 685, 51,n
2025-03-17 14:20:59.597,668, 625, 433, -2, 0, -2, -9, 5, 5, 815, 688, 50,n
2025-03-17 14:20:59.646,645, 614, 443, 5, -1, -2, -9, 4, 5, 803, 674, 45,n
2025-03-17 14:20:59.696,690, 634, 422, 2, -4, 0, -7, 6, 5, 797, 661, 70,n
2025-03-17 14:20:59.746,671, 626, 428, -2, 2, 0, -7, 5, 6, 807, 654, 68,n
2025-03-17 14:20:59.796,666, 616, 433, 1, -3, 0, -8, 6, 4, 818, 663, 64,n
2025-03-17 14:20:59.846,669, 623, 418, 1, -1, -3, -6, 4, 7, 828, 690, 49,n
2025-03-17 14:20:59.896,667, 628, 422, 2, -1, -2, -7, 5, 5, 819, 689, 69,n
2025-03-17 14:20:59.957,672, 625, 421, 0, -1, -2, -9, 5, 6, 816, 678, 71,n
2025-03-17 14:21:00.006,668, 640, 421, 1, 1, -2, -7, 4, 5, 817, 682, 47,n
2025-03-17 14:21:00.059,675, 674, 411, -1, 1, -1, -7, 5, 5, 822, 705, 32,n
2025-03-17 14:21:00.111,651, 631, 428, 0, -1, -1, -7, 5, 5, 821, 715, 45,n
2025-03-17 14:21:00.166,666, 632, 400, 2, -3, -3, -8, 5, 5, 821, 739, 60,n
2025-03-17 14:21:00.210,656, 653, 410, 3, -1, -3, -6, 4, 6, 827, 762, 47,n
2025-03-17 14:21:00.266,658, 609, 435, 2, -6, -1, -6, 4, 5, 845, 806, 50,n
2025-03-17 14:21:00.321,661, 637, 431, -1, -7, -7, -7, 6, 4, 907, 846, 46,n
2025-03-17 14:21:00.375,660, 656, 387, -10, 4, 2, -7, 3, 8, 924, 856, 48,n
2025-03-17 14:21:00.423,661, 605, 442, 1, -2, -2, -6, 4, 6, 917, 860, 50,n
2025-03-17 14:21:00.477,664, 644, 370, 29, -1, -5, -6, 4, 5, 928, 856, 50,n
2025-03-17 14:21:00.526,670, 586, 438, -2, 12, 8, -6, 3, 7, 939, 851, 48,n
2025-03-17 14:21:00.576,662, 717, 370, -14, 14, 10, -7, 5, 6, 926, 836, 42,n
2025-03-17 14:21:00.637,649, 485, 560, 17, -17, -16, -4, 5, 4, 892, 855, 52,n
2025-03-17 14:21:00.693,729, 655, 281, -16, -28, -1, -5, 3, 8, 924, 911, 45,n
2025-03-17 14:21:00.746,599, 519, 327, 10, 5, 11, -7, 2, 8, 951, 916, 44,n
2025-03-17 14:21:00.796,701, 643, 309, -16, 25, 19, -7, 6, 6, 938, 899, 64,n
2025-03-17 14:21:00.846,681, 501, 467, 11, -3, -26, -7, 4, 6, 909, 863, 53,n
2025-03-17 14:21:01.142,675, 650, 403, -13, 1, -2, -8, 4, 6, 756, 665, 45,o
2025-03-17 14:21:01.196,666, 638, 403, -14, 1, -2, -9, 5, 6, 754, 657, 43,o
2025-03-17 14:21:01.246,660, 640, 439, -9, 0, 0, -7, 4, 6, 769, 643, 59,o
2025-03-17 14:21:01.300,655, 629, 410, -2, -3, 0, -9, 6, 5, 781, 667, 53,o
2025-03-17 14:21:01.346,660, 622, 435, -3, -3, -1, -8, 5, 3, 790, 701, 50,o
2025-03-17 14:21:01.407,674, 628, 417, -3, -3, 3, -9, 5, 4, 821, 748, 49,o
2025-03-17 14:21:01.456,660, 640, 454, 6, -6, 11, -7, 5, 4, 862, 818, 56,o
2025-03-17 14:21:01.509,624, 630, 445, 6, -15, 6, -8, 4, 6, 887, 878, 44,o
2025-03-17 14:21:01.559,702, 579, 421, -3, -9, -21, -9, 6, 6, 897, 904, 51,o
2025-03-17 14:21:01.616,775, 616, 333, 74, 8, -15, -6, 4, 8, 926, 869, 39,o
2025-03-17 14:21:01.666,842, 506, 61, -33, 38, 42, -4, 3, 8, 946, 902, 57,o
2025-03-17 14:21:01.723,428, 355, 855, -20, -31, -7, -8, 6, 4, 940, 928, 47,o
2025-03-17 14:21:01.776,888, 604, 199, 40, -10, -31, -8, 6, 6, 878, 880, 203,o
2025-03-17 14:21:01.836,656, 653, 384, -34, 59, -27, -8, 4, 5, 874, 857, 130,o
2025-03-17 14:21:02.123,657, 634, 412, -3, 1, -1, -6, 4, 6, 686, 379, 29,p
2025-03-17 14:21:02.176,653, 644, 416, -4, 1, -1, -9, 5, 5, 681, 379, 44,p
2025-03-17 14:21:02.226,684, 622, 398, 0, -2, -1, -8, 4, 6, 671, 389, 60,p
2025-03-17 14:21:02.283,647, 645, 432, -1, -4, -3, -9, 6, 2, 679, 526, 29,p
2025-03-17 14:21:02.329,646, 625, 431, -7, -7, 3, -9, 4, 3, 776, 728, 62,p
2025-03-17 14:21:02.386,787, 546, 454, 14, -4, -3, -7, 5, 6, 894, 778, 65,p
2025-03-17 14:21:02.439,747, 312, 269, -1, 52, 57, -5, 6, 6, 940, 697, 31,p
2025-03-17 14:21:02.491,686, 626, 389, -25, 15, 16, -5, 6, 3, 924, 779, 47,p
2025-03-17 14:21:02.546,663, 726, 372, 60, -56, -67, -7, 5, 3, 890, 825, 31,p
2025-03-17 14:21:02.596,729, 542, 411, 7, -25, -7, -7, 6, 5, 934, 928, 51,p
2025-03-17 14:21:02.647,552, 772, 405, 5, 5, 18, -7, 6, 8, 950, 930, 36,p
2025-03-17 14:21:02.705,721, 577, 313, -18, 19, 11, -6, 6, 7, 935, 880, 70,p
2025-03-17 14:21:02.758,877, 533, 351, -26, 39, -40, -7, 6, 5, 893, 788, 63,p
2025-03-17 14:21:03.066,683, 611, 455, -1, -1, 5, -7, 5, 4, 831, 722, 54,q
2025-03-17 14:21:03.116,670, 618, 448, 1, -2, 5, -8, 4, 6, 837, 722, 42,q
2025-03-17 14:21:03.166,665, 629, 420, 0, -2, 4, -7, 5, 6, 858, 735, 47,q
2025-03-17 14:21:03.222,643, 603, 442, 4, -9, 4, -7, 5, 7, 881, 797, 29,q
2025-03-17 14:21:03.274,632, 696, 400, -4, -6, -11, -8, 6, 5, 884, 866, 52,q
2025-03-17 14:21:03.326,809, 519, 496, 9, -6, -16, -7, 6, 8, 904, 853, 61,q
2025-03-17 14:21:03.376,741, 947, 255, -30, 27, 18, -5, 4, 9, 941, 835, 53,q
2025-03-17 14:21:03.435,745, 678, 482, -46, 20, 35, -6, 6, 5, 939, 890, 54,q
2025-03-17 14:21:03.491,670, 570, 579, 13, -29, -20, -8, 6, 4, 928, 910, 45,q
2025-03-17 14:21:03.541,795, 576, 412, 28, 4, -5, -6, 5, 6, 931, 892, 64,q
2025-03-17 14:21:03.596,706, 585, 350, -19, 22, 23, -6, 6, 5, 945, 882, 45,q
2025-03-17 14:21:03.651,682, 466, 614, -13, 0, 12, -7, 6, 4, 932, 902, 68,q
2025-03-17 14:21:03.966,690, 633, 433, -4, -2, 4, -9, 5, 5, 847, 653, 37,r
2025-03-17 14:21:04.026,688, 623, 437, -5, -1, 5, -8, 6, 5, 841, 660, 59,r
2025-03-17 14:21:04.076,658, 579, 447, -2, 0, 0, -9, 6, 4, 857, 705, 63,r
2025-03-17 14:21:04.126,664, 600, 457, 6, -6, -1, -7, 6, 5, 863, 751, 39,r
2025-03-17 14:21:04.183,664, 608, 414, 10, -5, -7, -7, 5, 6, 856, 792, 57,r
2025-03-17 14:21:04.236,678, 663, 452, -10, -6, -2, -8, 7, 4, 874, 839, 54,r
2025-03-17 14:21:04.290,680, 600, 443, -7, -6, -6, -7, 6, 3, 926, 879, 31,r
2025-03-17 14:21:04.343,654, 759, 371, -29, 35, 23, -6, 6, 6, 941, 885, 62,r
2025-03-17 14:21:04.396,647, 667, 367, -36, 12, 14, -5, 6, 4, 947, 910, 47,r
2025-03-17 14:21:04.446,905, 390, 513, 26, -48, -40, -8, 7, 2, 931, 926, 63,r
2025-03-17 14:21:04.507,780, 771, 378, -8, -1, 21, -8, 7, 5, 942, 932, 50,r
2025-03-17 14:21:04.559,663, 484, 459, -21, 46, -25, -9, 8, 4, 925, 905, 68,r
2025-03-17 14:21:04.851,658, 600, 473, -9, -1, 4, -9, 7, 4, 885, 772, 61,s
2025-03-17 14:21:04.905,661, 596, 489, -9, -1, 4, -10, 6, 4, 886, 773, 62,s
2025-03-17 14:21:04.958,649, 578, 506, -1, -5, 5, -8, 6, 5, 888, 777, 64,s
2025-03-17 14:21:05.007,688, 585, 461, 7, -14, 7, -9, 8, 5, 896, 807, 49,s
2025-03-17 14:21:05.058,680, 598, 441, -4, -1, 3, -9, 9, 5, 910, 837, 36,s
2025-03-17 14:21:05.107,668, 582, 487, 4, -12, 0, -9, 8, 6, 908, 872, 54,s
2025-03-17 14:21:05.166,617, 610, 467, -13, -3, -10, -8, 6, 6, 921, 895, 65,s
2025-03-17 14:21:05.216,862, 616, 436, 52, 4, -16, -8, 6, 7, 947, 899, 30,s
2025-03-17 14:21:05.273,834, 781, 315, -22, 28, 29, -8, 6, 6, 945, 912, 62,s
2025-03-17 14:21:05.326,615, 730, 406, -10, 14, 16, -6, 8, 3, 958, 920, 42,s
2025-03-17 14:21:05.376,664, 481, 487, -1, 10, -8, -5, 8, 5, 925, 837, 54,s
2025-03-17 14:21:05.436,895, 508, 294, -14, 32, -39, -6, 7, 2, 892, 796, 40,s
2025-03-17 14:21:05.750,668, 596, 453, 5, -10, 0, -7, 5, 5, 855, 797, 49,t
2025-03-17 14:21:05.806,675, 603, 451, 6, -10, -1, -8, 6, 5, 854, 796, 63,t
2025-03-17 14:21:05.857,671, 627, 411, 3, -8, -5, -8, 4, 7, 858, 809, 51,t
2025-03-17 14:21:05.907,653, 616, 461, -5, -17, -7, -9, 5, 5, 863, 838, 48,t
2025-03-17 14:21:05.966,674, 640, 429, -1, -17, -2, -9, 6, 7, 876, 876, 41,t
2025-03-17 14:21:06.023,657, 565, 515, 15, -12, -15, -8, 4, 8, 907, 891, 52,t
2025-03-17 14:21:06.076,578, 1234, 15, -2, 53, 26, -8, 4, 10, 944, 883, 46,t
2025-03-17 14:21:06.126,617, 558, 245, -45, 37, 38, -6, 5, 8, 953, 915, 36,t
2025-03-17 14:21:06.176,538, 183, 662, 12, -27, -61, -7, 5, 5, 917, 887, 48,t
2025-03-17 14:21:06.239,672, 615, 586, -13, -41, -4, -7, 4, 6, 901, 858, 39,t
2025-03-17 14:21:06.290,890, 996, 371, 16, -13, 4, -7, 4, 7, 934, 912, 66,t
2025-03-17 14:21:06.346,669, 663, 495, -26, 4, 28, -8, 6, 7, 946, 924, 39,t
2025-03-17 14:21:06.396,591, 593, 393, 12, 41, -41, -9, 5, 8, 889, 855, 158,t
2025-03-17 14:21:06.666,666, 612, 424, -5, 1, 4, -6, 4, 8, 861, 699, 42,u
2025-03-17 14:21:06.716,650, 615, 424, 0, 1, 5, -6, 4, 8, 852, 697, 38,u
2025-03-17 14:21:06.766,675, 624, 417, 0, -1, 2, -6, 5, 6, 846, 706, 58,u
2025-03-17 14:21:06.816,656, 618, 407, 0, -1, -2, -6, 5, 8, 845, 717, 67,u
2025-03-17 14:21:06.871,620, 639, 447, -9, -5, 2, -7, 6, 6, 866, 764, 42,u
2025-03-17 14:21:06.924,711, 613, 460, 7, -3, -10, -7, 6, 6, 902, 817, 51,u
2025-03-17 14:21:06.976,642, 779, 157, 22, 25, 23, -5, 6, 7, 914, 819, 65,u
2025-03-17 14:21:07.026,584, 570, 282, -43, 18, 38, -7, 6, 7, 942, 889, 43,u
2025-03-17 14:21:07.087,415, 388, 472, -9, -23, -14, -5, 6, 4, 921, 899, 59,u
2025-03-17 14:21:07.138,721, 548, 511, 13, -10, -11, -9, 5, 5, 912, 897, 60,u
2025-03-17 14:21:07.189,651, 529, 359, -27, 30, 37, -10, 6, 7, 920, 896, 48,u
2025-03-17 14:21:07.246,757, 462, 475, -21, 5, -7, -9, 7, 5, 917, 871, 51,u
2025-03-17 14:21:07.551,659, 592, 465, -5, -1, 2, -7, 6, 6, 841, 588, 49,v
2025-03-17 14:21:07.607,652, 591, 467, -3, -2, 3, -8, 7, 4, 832, 585, 53,v
2025-03-17 14:21:07.657,657, 580, 455, 18, -8, 3, -7, 7, 5, 829, 593, 66,v
2025-03-17 14:21:07.708,649, 591, 404, 11, -4, -10, -7, 6, 6, 816, 671, 51,v
2025-03-17 14:21:07.766,709, 689, 423, -7, -2, -10, -7, 5, 4, 845, 776, 60,v
2025-03-17 14:21:07.821,661, 610, 498, -9, -4, -5, -8, 5, 5, 883, 831, 67,v
2025-03-17 14:21:07.874,759, 688, 352, 3, 14, 21, -7, 5, 7, 922, 823, 51,v
2025-03-17 14:21:07.926,649, 487, 397, -22, 19, 29, -6, 6, 4, 919, 814, 64,v
2025-03-17 14:21:07.976,715, 467, 636, -24, -12, 8, -7, 7, 4, 925, 893, 46,v
2025-03-17 14:21:08.031,576, 583, 379, 3, -25, -19, -6, 8, 4, 905, 898, 61,v
2025-03-17 14:21:08.087,727, 588, 357, -8, 6, -9, -8, 6, 7, 906, 870, 41,v
2025-03-17 14:21:08.140,647, 614, 497, -13, 20, -11, -7, 4, 7, 880, 797, 72,v
2025-03-17 14:21:08.439,666, 567, 452, 6, 2, -3, -8, 7, 7, 814, 118, 41,w
2025-03-17 14:21:08.489,655, 580, 462, 10, 2, -3, -8, 6, 6, 820, 178, 52,w
2025-03-17 14:21:08.546,647, 618, 444, 24, -2, -3, -7, 6, 5, 785, 323, 36,w
2025-03-17 14:21:08.596,667, 577, 447, 24, -7, -12, -6, 6, 5, 774, 531, 48,w
2025-03-17 14:21:08.646,729, 649, 388, 4, -7, -12, -6, 5, 4, 887, 799, 50,w
2025-03-17 14:21:08.705,793, 928, 408, -12, 10, 28, -8, 4, 5, 925, 835, 66,w
2025-03-17 14:21:08.757,658, 715, 293, -30, 16, 30, -5, 6, 5, 936, 866, 67,w
2025-03-17 14:21:08.816,742, 423, 690, -27, -24, 6, -5, 8, 5, 928, 906, 59,w
2025-03-17 14:21:08.866,655, 434, 440, -5, -19, -16, -8, 6, 6, 924, 921, 64,w
2025-03-17 14:21:08.923,737, 896, 284, 12, 6, 20, -7, 6, 8, 928, 908, 75,w
2025-03-17 14:21:08.976,745, 764, 310, -29, 7, 27, -8, 6, 7, 932, 916, 66,w
2025-03-17 14:21:09.026,710, 533, 568, -22, -14, 3, -7, 9, 9, 940, 934, 60,w
2025-03-17 14:21:09.086,867, 510, 128, -28, 39, -13, -10, 8, 9, 919, 909, 61,w
2025-03-17 14:21:09.139,517, 586, 777, -16, 37, -24, -10, 9, 5, 906, 893, 54,w
2025-03-17 14:21:09.442,675, 550, 504, -2, 0, -2, -9, 7, 7, 858, 718, 51,x
2025-03-17 14:21:09.490,670, 565, 507, 1, 0, -2, -8, 6, 4, 856, 716, 68,x
2025-03-17 14:21:09.545,671, 596, 487, 9, -7, 0, -10, 7, 7, 865, 725, 31,x
2025-03-17 14:21:09.589,683, 584, 468, 2, -8, 0, -9, 6, 7, 857, 748, 57,x
2025-03-17 14:21:09.647,689, 595, 452, 2, -4, 0, -10, 7, 6, 861, 768, 51,x
2025-03-17 14:21:09.696,668, 587, 469, 2, -6, 2, -7, 6, 7, 863, 779, 52,x
2025-03-17 14:21:09.746,681, 573, 441, 9, -19, 7, -8, 6, 7, 886, 851, 42,x
2025-03-17 14:21:09.804,700, 553, 475, -6, -12, 0, -10, 6, 8, 896, 884, 65,x
2025-03-17 14:21:09.856,460, 602, 509, 32, 8, -8, -9, 6, 9, 928, 885, 51,x
2025-03-17 14:21:09.906,553, 677, 233, 10, 28, 15, -6, 5, 8, 929, 826, 65,x
2025-03-17 14:21:09.956,706, 453, 748, -40, 19, 1, -6, 7, 4, 906, 813, 62,x
2025-03-17 14:21:10.016,681, 811, 353, 25, -22, -14, -6, 5, 5, 903, 855, 34,x
2025-03-17 14:21:10.070,892, 958, 354, 4, -12, 15, -7, 6, 9, 942, 909, 48,x
2025-03-17 14:21:10.122,612, 505, 428, -42, 15, 35, -7, 8, 7, 944, 913, 40,x
2025-03-17 14:21:10.176,642, 434, 412, 8, -1, -33, -8, 6, 7, 916, 864, 74,x
2025-03-17 14:21:10.463,659, 604, 448, -2, -2, 1, -8, 6, 7, 843, 737, 69,y
2025-03-17 14:21:10.511,659, 608, 463, 0, -3, 2, -8, 5, 6, 847, 746, 64,y
2025-03-17 14:21:10.561,686, 597, 442, 4, -6, 1, -9, 6, 5, 846, 782, 52,y
2025-03-17 14:21:10.610,671, 627, 436, 3, 0, -2, -7, 6, 7, 849, 803, 67,y
2025-03-17 14:21:10.666,657, 608, 440, 2, -3, -4, -8, 6, 7, 847, 809, 65,y
2025-03-17 14:21:10.721,607, 614, 465, 1, -10, -2, -8, 6, 6, 853, 830, 25,y
2025-03-17 14:21:10.772,915, 419, 383, -1, -9, -16, -7, 5, 8, 896, 858, 62,y
2025-03-17 14:21:10.826,863, 1161, 248, -25, 27, 45, -6, 4, 11, 945, 896, 42,y
2025-03-17 14:21:10.883,787, 484, 465, -29, 11, 40, -8, 5, 4, 939, 914, 49,y
2025-03-17 14:21:10.937,579, 446, 490, 14, -13, -25, -9, 7, 6, 908, 904, 51,y
2025-03-17 14:21:10.989,856, 568, 430, -12, -3, -3, -9, 6, 6, 926, 920, 37,y
2025-03-17 14:21:11.049,700, 679, 444, -40, 31, 39, -8, 7, 5, 946, 923, 49,y
2025-03-17 14:21:11.096,669, 428, 452, -61, 19, 17, -7, 8, 4, 946, 865, 42,y
2025-03-17 14:21:11.154,873, 627, 292, 6, 31, -56, -7, 7, 1, 888, 745, 47,y
2025-03-17 14:21:11.426,698, 595, 413, -2, 0, -1, -9, 6, 5, 847, 718, 48,z
2025-03-17 14:21:11.483,683, 573, 436, -2, 1, -1, -10, 6, 7, 846, 720, 41,z
2025-03-17 14:21:11.526,658, 588, 480, 0, -3, -6, -7, 6, 7, 852, 729, 41,z
2025-03-17 14:21:11.585,643, 567, 464, 5, -11, -1, -8, 7, 5, 855, 742, 50,z
2025-03-17 14:21:11.638,785, 476, 370, 7, -3, -19, -8, 5, 8, 905, 814, 32,z
2025-03-17 14:21:11.690,809, 786, 389, 27, -22, 24, -7, 4, 9, 930, 919, 67,z
2025-03-17 14:21:11.745,609, 656, 597, 32, -3, 10, -9, 6, 9, 942, 925, 43,z
2025-03-17 14:21:11.803,423, 628, 311, -37, 38, 16, -8, 6, 8, 938, 888, 45,z
2025-03-17 14:21:11.851,849, 766, 379, 5, 6, 17, -6, 5, 7, 943, 909, 46,z
2025-03-17 14:21:11.904,702, 423, 477, 15, -5, 11, -9, 6, 7, 948, 939, 37,z
2025-03-17 14:21:11.956,676, 552, 453, 21, -4, -1, -9, 6, 7, 926, 908, 58,z
2025-03-17 14:21:12.006,515, 666, 353, -1, 10, -59, -8, 6, 8, 900, 722, 30,z
2025-03-17 14:21:12.056,879, 922, 415, -3, -22, 2, -7, 4, 9, 936, 901, 50,z
2025-03-17 14:21:12.116,833, 582, 323, -14, -2, 24, -8, 3, 9, 937, 926, 66,z
2025-03-17 14:21:12.171,755, 531, 342, 6, 19, -10, -7, 4, 9, 916, 889, 62,z
2025-03-17 14:21:12.506,653, 616, 439, 2, -3, 3, -9, 4, 8, 697, 497, 56,0
2025-03-17 14:21:12.556,659, 607, 440, 5, -4, 2, -9, 5, 5, 695, 507, 56,0
2025-03-17 14:21:12.607,686, 623, 386, 4, -5, -5, -7, 3, 7, 653, 553, 52,0
2025-03-17 14:21:12.656,679, 635, 419, 0, -4, -9, -10, 5, 7, 672, 572, 64,0
2025-03-17 14:21:12.716,676, 645, 399, -4, -5, -17, -8, 3, 7, 727, 569, 32,0
2025-03-17 14:21:12.773,619, 663, 421, -9, -11, -16, -9, 1, 9, 777, 573, 38,0
2025-03-17 14:21:12.826,589, 684, 433, -10, -2, 11, -10, 3, 9, 844, 631, 40,0
2025-03-17 14:21:12.876,627, 646, 407, -1, -6, 29, -9, 5, 9, 870, 702, 62,0
2025-03-17 14:21:12.932,712, 640, 345, 0, -5, 18, -8, 2, 9, 901, 748, 46,0
2025-03-17 14:21:12.978,723, 587, 392, -6, 1, 7, -8, 5, 8, 890, 771, 61,0
2025-03-17 14:21:13.032,711, 607, 410, -12, 3, 3, -7, 5, 10, 897, 802, 59,0
2025-03-17 14:21:13.088,694, 611, 405, -3, -2, -1, -7, 4, 9, 912, 826, 33,0
2025-03-17 14:21:13.139,700, 592, 407, -4, -2, -3, -10, 6, 9, 895, 824, 61,0
2025-03-17 14:21:13.189,683, 629, 403, -2, -2, -3, -8, 6, 9, 903, 840, 42,0
2025-03-17 14:21:13.246,704, 614, 402, 0, 0, -3, -7, 5, 9, 904, 840, 47,0
2025-03-17 14:21:13.296,697, 622, 405, -2, 2, -2, -9, 7, 9, 899, 833, 44,0
2025-03-17 14:21:13.346,708, 604, 405, -3, 0, -2, -7, 6, 10, 911, 848, 33,0
2025-03-17 14:21:13.404,690, 618, 418, -3, 0, -1, -8, 5, 10, 896, 841, 62,0
2025-03-17 14:21:13.456,686, 588, 413, 0, -2, -6, -9, 6, 7, 898, 847, 59,0
2025-03-17 14:21:13.506,686, 601, 424, -3, -1, -3, -9, 5, 9, 897, 840, 40,0
2025-03-17 14:21:13.556,697, 623, 405, -5, -1, -3, -9, 6, 10, 894, 835, 40,0
2025-03-17 14:21:13.616,683, 597, 425, -6, 0, -2, -10, 6, 9, 902, 831, 24,0
2025-03-17 14:21:13.670,683, 610, 409, -1, -1, -2, -9, 4, 10, 887, 819, 67,0
2025-03-17 14:21:13.721,690, 628, 408, -2, 0, -3, -9, 6, 9, 890, 817, 40,0
2025-03-17 14:21:13.776,682, 617, 415, -2, -1, -1, -9, 6, 8, 883, 816, 48,0
2025-03-17 14:21:13.826,686, 620, 412, -3, -1, 1, -8, 5, 10, 887, 821, 63,0
2025-03-17 14:21:13.877,692, 625, 412, -4, -1, 0, -8, 4, 9, 897, 831, 25,0
2025-03-17 14:21:13.932,682, 618, 415, -4, -1, 0, -8, 6, 9, 892, 828, 54,0
2025-03-17 14:21:13.986,690, 612, 406, -3, -1, 0, -8, 6, 9, 887, 828, 64,0
2025-03-17 14:21:14.028,682, 614, 410, -4, 0, 0, -9, 6, 9, 896, 836, 51,0
2025-03-17 14:21:14.091,686, 592, 419, -2, -2, -2, -9, 4, 10, 890, 835, 59,0
2025-03-17 14:21:14.139,690, 600, 421, -2, -1, -2, -9, 5, 9, 888, 836, 63,0
2025-03-17 14:21:14.188,689, 620, 410, -3, 0, 0, -11, 6, 9, 906, 851, 31,0
2025-03-17 14:21:14.247,694, 609, 406, -2, -1, -1, -10, 4, 9, 896, 848, 57,0
2025-03-17 14:21:14.297,692, 617, 403, -2, 0, -1, -10, 6, 7, 902, 861, 34,0
2025-03-17 14:21:14.354,689, 633, 414, -1, -1, -3, -9, 6, 9, 899, 855, 46,0
2025-03-17 14:21:14.406,681, 599, 438, 1, -2, 0, -9, 5, 10, 895, 855, 61,0
2025-03-17 14:21:14.456,697, 625, 388, -1, 0, -1, -9, 6, 11, 901, 860, 45,0
2025-03-17 14:21:14.506,683, 619, 415, 2, -2, -1, -9, 4, 9, 898, 861, 56,0
2025-03-17 14:21:14.560,693, 624, 392, -2, 0, -1, -8, 6, 10, 896, 860, 64,0
2025-03-17 14:21:14.620,677, 615, 423, -3, -2, -1, -10, 5, 9, 906, 872, 48,0
2025-03-17 14:21:14.671,691, 591, 442, 0, -7, -2, -8, 5, 11, 906, 880, 45,0
2025-03-17 14:21:14.727,701, 569, 388, 0, -12, -15, -9, 4, 11, 906, 890, 56,0
2025-03-17 14:21:14.776,534, 483, 383, 59, 0, -22, -8, 5, 11, 923, 875, 43,0
2025-03-17 14:21:14.826,844, 889, 74, -27, 54, 75, -6, 3, 11, 942, 906, 52,0
2025-03-17 14:21:14.888,528, 414, 790, -66, -23, 14, -8, 6, 9, 933, 931, 48,0
2025-03-17 14:21:14.946,697, 499, 364, 60, -24, -36, -8, 6, 10, 919, 909, 42,0
2025-03-17 14:21:14.997,776, 632, 298, -21, 32, -18, -7, 6, 10, 893, 875, 68,0
2025-03-17 14:21:15.053,543, 622, 571, -2, -2, 2, -6, 5, 9, 898, 869, 43,0
2025-03-17 14:21:15.326,708, 633, 354, 3, -6, 1, -8, 4, 11, 830, 738, 65,1
2025-03-17 14:21:15.386,700, 639, 350, 1, -4, 0, -6, 5, 10, 839, 743, 36,1
2025-03-17 14:21:15.436,689, 648, 358, -5, 1, -2, -7, 3, 9, 847, 757, 31,1
2025-03-17 14:21:15.488,675, 638, 410, -3, 0, -5, -8, 4, 10, 840, 766, 53,1
2025-03-17 14:21:15.539,653, 645, 399, 3, -4, 2, -7, 4, 11, 856, 783, 46,1
2025-03-17 14:21:15.591,776, 520, 239, 10, -5, -12, -5, 4, 11, 897, 828, 30,1
2025-03-17 14:21:15.646,667, 758, 430, -8, -13, 9, -7, 2, 11, 911, 899, 60,1
2025-03-17 14:21:15.704,625, 544, 463, -3, -10, 4, -6, 3, 13, 928, 928, 32,1
2025-03-17 14:21:15.756,882, 560, 348, 39, 10, 14, -9, 4, 13, 938, 908, 53,1
2025-03-17 14:21:15.806,717, 592, 178, -28, 51, 42, -6, 4, 12, 951, 912, 46,1
2025-03-17 14:21:15.869,608, 407, 536, -45, 25, -11, -6, 6, 9, 915, 827, 64,1
2025-03-17 14:21:15.921,1258, 70, 378, -14, -5, -21, -6, 6, 8, 910, 791, 63,1
2025-03-17 14:21:15.976,675, 572, 262, -26, -12, 30, -6, 6, 9, 950, 935, 24,1
2025-03-17 14:21:16.027,739, 401, 394, 3, 2, -1, -9, 6, 8, 925, 902, 52,1
2025-03-17 14:21:16.076,579, 600, 375, -3, 34, -53, -9, 6, 7, 885, 768, 35,1
2025-03-17 14:21:16.357,682, 637, 391, 1, -3, 3, -8, 3, 11, 809, 692, 41,2
2025-03-17 14:21:16.406,680, 636, 397, 1, -3, 3, -8, 4, 9, 806, 694, 50,2
2025-03-17 14:21:16.457,686, 628, 374, 2, -4, 3, -9, 3, 9, 812, 713, 57,2
2025-03-17 14:21:16.506,684, 635, 386, 0, -1, 1, -7, 4, 9, 820, 734, 42,2
2025-03-17 14:21:16.560,661, 617, 379, 0, -3, -4, -9, 5, 9, 818, 754, 43,2
2025-03-17 14:21:16.606,661, 583, 420, -4, -10, -5, -9, 4, 9, 836, 793, 32,2
2025-03-17 14:21:16.668,799, 520, 354, 20, -5, -6, -6, 3, 10, 906, 898, 55,2
2025-03-17 14:21:16.721,651, 484, 273, 5, -1, 20, -8, 4, 14, 944, 925, 25,2
2025-03-17 14:21:16.772,579, 771, 343, -15, 46, 32, -8, 6, 11, 926, 882, 63,2
2025-03-17 14:21:16.826,850, 495, 395, -17, 8, -1, -8, 5, 10, 941, 902, 37,2
2025-03-17 14:21:16.885,791, 695, 333, -10, -7, 23, -6, 6, 10, 939, 931, 48,2
2025-03-17 14:21:16.938,764, 507, 313, 5, 22, -26, -9, 6, 10, 929, 903, 54,2
2025-03-17 14:21:17.246,682, 660, 370, -9, 0, -4, -8, 4, 9, 729, 649, 62,3
2025-03-17 14:21:17.296,675, 657, 370, -11, 0, -4, -8, 4, 11, 729, 644, 53,3
2025-03-17 14:21:17.352,654, 661, 403, -9, -4, -4, -8, 3, 10, 733, 634, 59,3
2025-03-17 14:21:17.408,626, 660, 405, -13, -9, -2, -8, 3, 9, 760, 674, 58,3
2025-03-17 14:21:17.460,753, 575, 413, 10, -25, -8, -9, 2, 9, 844, 818, 65,3
2025-03-17 14:21:17.516,899, 777, 396, 11, -9, 7, -7, 4, 12, 912, 900, 62,3
2025-03-17 14:21:17.569,577, 653, 442, -6, 4, 14, -6, 3, 12, 933, 920, 49,3
2025-03-17 14:21:17.618,620, 380, 459, 14, 6, 2, -9, 3, 13, 932, 906, 47,3
2025-03-17 14:21:17.676,836, 668, 216, -13, 13, -3, -7, 6, 11, 933, 907, 43,3
2025-03-17 14:21:17.726,748, 776, 517, -19, 22, 22, -8, 6, 10, 953, 920, 45,3
2025-03-17 14:21:17.786,729, 592, 365, -29, 24, 17, -6, 6, 10, 916, 834, 67,3
2025-03-17 14:21:17.837,742, 553, 318, 3, 31, -51, -6, 5, 8, 854, 738, 55,3
2025-03-17 14:21:18.136,666, 620, 423, -3, -17, -1, -9, 4, 10, 837, 807, 52,4
2025-03-17 14:21:18.186,666, 618, 421, -1, -17, 0, -10, 5, 11, 841, 818, 48,4
2025-03-17 14:21:18.246,686, 601, 393, 4, -14, 6, -10, 4, 10, 871, 865, 43,4
2025-03-17 14:21:18.306,717, 634, 382, 2, -11, -2, -10, 4, 13, 900, 890, 49,4
2025-03-17 14:21:18.356,674, 589, 445, 10, -2, -3, -9, 4, 13, 922, 897, 40,4
2025-03-17 14:21:18.412,760, 639, 395, 16, 26, 3, -8, 5, 13, 935, 836, 47,4
2025-03-17 14:21:18.466,876, 686, 179, 33, 17, 5, -6, 4, 13, 931, 889, 67,4
2025-03-17 14:21:18.519,552, 564, 287, -19, -6, 26, -9, 5, 13, 940, 929, 52,4
2025-03-17 14:21:18.571,710, 452, 407, 10, 0, -6, -9, 6, 12, 921, 904, 64,4
2025-03-17 14:21:18.626,589, 779, 466, -10, 0, -21, -7, 2, 11, 911, 880, 206,4
2025-03-17 14:21:18.676,877, 854, 427, 7, -4, 5, -8, 3, 12, 931, 897, 63,4
2025-03-17 14:21:18.737,765, 760, 246, -22, 48, 40, -7, 5, 11, 938, 869, 56,4
2025-03-17 14:21:18.787,761, 393, 416, -3, 18, -34, -9, 6, 7, 904, 714, 55,4
2025-03-17 14:21:19.064,697, 614, 413, -3, -3, 0, -10, 6, 8, 857, 703, 65,5
2025-03-17 14:21:19.116,687, 615, 416, -4, -3, 0, -7, 6, 9, 858, 708, 57,5
2025-03-17 14:21:19.170,653, 608, 414, -7, -3, -4, -8, 6, 7, 859, 717, 54,5
2025-03-17 14:21:19.220,631, 581, 450, -4, -11, -6, -8, 4, 10, 862, 756, 47,5
2025-03-17 14:21:19.276,809, 385, 364, 32, -8, -19, -8, 5, 9, 903, 873, 54,5
2025-03-17 14:21:19.326,827, 704, 360, -22, 0, 28, -9, 4, 8, 935, 927, 46,5
2025-03-17 14:21:19.376,657, 599, 461, 3, -8, 1, -10, 6, 8, 923, 920, 61,5
2025-03-17 14:21:19.437,799, 411, 470, 71, 3, -28, -9, 4, 10, 918, 888, 226,5
2025-03-17 14:21:19.493,811, 1046, 163, -10, 39, 33, -7, 3, 10, 946, 909, 36,5
2025-03-17 14:21:19.547,594, 622, 494, -11, 14, 11, -7, 4, 7, 935, 897, 43,5
2025-03-17 14:21:19.596,897, 479, 361, 11, 7, -26, -7, 5, 4, 877, 775, 56,5
2025-03-17 14:21:19.896,721, 631, 381, 3, -13, 10, -9, 4, 11, 838, 829, 45,6
2025-03-17 14:21:19.956,718, 650, 380, -1, -13, 12, -9, 3, 11, 841, 837, 35,6
2025-03-17 14:21:20.006,693, 628, 342, -10, -8, 6, -10, 5, 12, 859, 853, 64,6
2025-03-17 14:21:20.070,641, 619, 413, -7, -12, 4, -11, 5, 12, 885, 886, 46,6
2025-03-17 14:21:20.120,598, 541, 444, -5, -6, -18, -10, 4, 13, 894, 900, 45,6
2025-03-17 14:21:20.176,517, 498, 436, 44, 8, -23, -9, 3, 13, 908, 882, 66,6
2025-03-17 14:21:20.226,838, 646, 213, -1, 58, 57, -8, 4, 9, 939, 897, 47,6
2025-03-17 14:21:20.289,656, 742, 560, -62, 19, 30, -9, 7, 8, 937, 924, 46,6
2025-03-17 14:21:20.337,812, 513, 413, 51, -27, -35, -7, 6, 10, 919, 906, 46,6
2025-03-17 14:21:20.396,960, 597, 166, -27, 38, -28, -7, 5, 8, 862, 829, 72,6
2025-03-17 14:21:20.714,684, 629, 399, -6, -8, -1, -7, 4, 10, 844, 768, 32,7
2025-03-17 14:21:20.768,673, 624, 395, -8, -6, -2, -7, 6, 9, 831, 762, 64,7
2025-03-17 14:21:20.819,604, 582, 483, 1, -12, 3, -7, 4, 9, 853, 782, 46,7
2025-03-17 14:21:20.870,750, 780, 314, 13, -8, -13, -7, 5, 12, 888, 834, 67,7
2025-03-17 14:21:20.926,713, 718, 265, -18, -8, 29, -7, 5, 11, 933, 925, 36,7
2025-03-17 14:21:20.976,528, 427, 565, 23, -8, 3, -9, 5, 11, 928, 916, 53,7
2025-03-17 14:21:21.037,989, 666, 376, 33, 39, 22, -9, 4, 12, 943, 909, 33,7
2025-03-17 14:21:21.087,678, 554, 261, -42, 34, 21, -8, 5, 11, 922, 886, 55,7
2025-03-17 14:21:21.147,504, 547, 595, -9, -16, -60, -10, 6, 8, 924, 839, 33,7
2025-03-17 14:21:21.202,833, 737, 296, 9, -13, -1, -7, 5, 10, 922, 904, 69,7
2025-03-17 14:21:21.254,598, 586, 286, -17, 0, 32, -7, 6, 12, 926, 918, 71,7
2025-03-17 14:21:21.306,739, 509, 284, -6, 38, -38, -9, 6, 10, 908, 876, 56,7
2025-03-17 14:21:21.366,541, 683, 613, -23, 29, -26, -9, 6, 6, 859, 721, 54,7
2025-03-17 14:21:21.626,665, 608, 429, 1, -3, -1, -8, 5, 8, 762, 141, 65,8
2025-03-17 14:21:21.676,673, 608, 423, 3, -3, 0, -9, 6, 7, 762, 154, 62,8
2025-03-17 14:21:21.726,676, 616, 414, 7, -3, -1, -7, 4, 8, 771, 387, 32,8
2025-03-17 14:21:21.784,664, 624, 440, 5, -2, 2, -9, 6, 7, 753, 525, 50,8
2025-03-17 14:21:21.826,687, 615, 399, 4, -3, 5, -7, 3, 8, 770, 548, 49,8
2025-03-17 14:21:21.876,680, 615, 431, 4, -4, 7, -9, 4, 7, 796, 583, 46,8
2025-03-17 14:21:21.935,678, 621, 405, 7, -7, 10, -9, 4, 8, 830, 653, 36,8
2025-03-17 14:21:21.988,714, 601, 369, 6, -4, 7, -9, 4, 9, 846, 698, 45,8
2025-03-17 14:21:22.037,693, 613, 420, 0, -3, 11, -9, 4, 10, 865, 747, 50,8
2025-03-17 14:21:22.095,666, 627, 422, -5, -11, 2, -10, 5, 10, 887, 829, 52,8
2025-03-17 14:21:22.152,585, 576, 469, -24, -4, -16, -10, 5, 9, 896, 879, 53,8
2025-03-17 14:21:22.206,752, 841, 125, 48, 14, -3, -8, 5, 10, 920, 865, 67,8
2025-03-17 14:21:22.256,664, 531, 312, -47, 25, 35, -7, 5, 9, 930, 898, 67,8
2025-03-17 14:21:22.307,649, 239, 770, 5, -35, -20, -8, 6, 9, 920, 916, 57,8
2025-03-17 14:21:22.369,790, 559, 302, -16, -30, -24, -10, 6, 9, 922, 922, 59,8
2025-03-17 14:21:22.420,661, 894, 328, -1, 5, 13, -8, 6, 13, 925, 917, 63,8
2025-03-17 14:21:22.476,779, 450, 361, -2, 23, 14, -7, 5, 11, 915, 886, 50,8
2025-03-17 14:21:22.766,684, 637, 390, -4, -10, 4, -10, 6, 11, 870, 844, 70,9
2025-03-17 14:21:22.826,694, 656, 383, -10, -10, 4, -8, 5, 13, 872, 851, 68,9
2025-03-17 14:21:22.886,612, 502, 482, 0, -4, -19, -9, 5, 12, 882, 873, 63,9
2025-03-17 14:21:22.937,815, 635, 205, 43, 14, -6, -9, 3, 11, 915, 863, 63,9
2025-03-17 14:21:22.996,788, 581, 216, -37, 41, 48, -7, 6, 11, 925, 895, 47,9
2025-03-17 14:21:23.046,664, 429, 623, -15, 2, 6, -10, 8, 6, 905, 892, 72,9
2025-03-17 14:21:23.103,713, 588, 410, 38, -22, -27, -9, 6, 9, 911, 901, 40,9
2025-03-17 14:21:23.156,707, 867, 209, 9, 19, 23, -9, 4, 11, 917, 890, 62,9
2025-03-17 14:21:23.206,988, 568, 391, -38, 39, 38, -10, 6, 8, 935, 902, 44,9
2025-03-17 14:21:23.266,863, 224, 499, -3, 12, -43, -9, 8, 4, 892, 770, 51,9
2025-03-17 14:21:23.319,642, 577, 526, 1, 32, -34, -8, 8, 4, 843, 730, 44,9
2025-03-17 14:21:23.606,725, 634, 348, 10, -13, 2, -8, 5, 9, 794, 676, 68,+
2025-03-17 14:21:23.656,724, 637, 343, 5, -9, 1, -7, 5, 8, 797, 677, 65,+
2025-03-17 14:21:23.706,681, 617, 388, -5, 1, -3, -8, 4, 10, 837, 712, 40,+
2025-03-17 14:21:23.756,663, 632, 433, -5, -3, -2, -8, 4, 7, 836, 729, 57,+
2025-03-17 14:21:23.807,682, 624, 380, -6, 1, -5, -6, 4, 9, 862, 756, 47,+
2025-03-17 14:21:23.868,671, 624, 423, -7, -1, -1, -7, 5, 9, 851, 761, 67,+
2025-03-17 14:21:23.920,699, 635, 392, -3, -1, -2, -8, 5, 8, 861, 777, 57,+
2025-03-17 14:21:23.970,666, 617, 419, -4, -3, -5, -7, 4, 7, 860, 786, 40,+
2025-03-17 14:21:24.026,686, 625, 416, -5, -4, -6, -10, 6, 11, 853, 787, 63,+
2025-03-17 14:21:24.081,671, 602, 406, -3, -2, -1, -9, 4, 9, 860, 802, 50,+
2025-03-17 14:21:24.135,644, 630, 442, -7, -2, 3, -6, 4, 8, 866, 816, 63,+
2025-03-17 14:21:24.186,785, 459, 477, 15, -8, -9, -8, 5, 9, 894, 863, 55,+
2025-03-17 14:21:24.236,578, 373, 366, 13, 42, 31, -5, 6, 9, 924, 876, 52,+
2025-03-17 14:21:24.286,717, 354, 464, -54, 31, 29, -7, 6, 9, 898, 822, 67,+
2025-03-17 14:21:24.346,547, 385, 640, 14, -10, -50, -6, 6, 4, 865, 743, 64,+
2025-03-17 14:21:24.401,793, 532, 452, 80, -7, -23, -5, 6, 5, 884, 839, 57,+
2025-03-17 14:21:24.453,823, 679, 360, -8, -9, 33, -5, 6, 6, 907, 892, 59,+
2025-03-17 14:21:24.506,699, 431, 445, 2, 15, -10, -7, 6, 7, 896, 865, 69,+
2025-03-17 14:21:24.812,671, 615, 416, -6, 0, -2, -8, 5, 8, 839, 681, 35,-
2025-03-17 14:21:24.868,675, 627, 416, -5, 0, -1, -7, 5, 8, 817, 668, 57,-
2025-03-17 14:21:24.917,679, 617, 432, 6, -4, 0, -7, 5, 7, 820, 666, 62,-
2025-03-17 14:21:24.969,681, 614, 412, 10, -2, -2, -7, 5, 9, 831, 670, 53,-
2025-03-17 14:21:25.019,672, 627, 401, 7, -3, -6, -8, 5, 8, 839, 693, 51,-
2025-03-17 14:21:25.069,630, 658, 442, 4, 3, 0, -7, 3, 10, 848, 705, 63,-
2025-03-17 14:21:25.119,699, 645, 343, 0, -3, 4, -8, 4, 8, 856, 730, 51,-
2025-03-17 14:21:25.170,673, 614, 398, -10, 2, -1, -6, 6, 7, 879, 755, 34,-
2025-03-17 14:21:25.226,655, 608, 404, 3, -4, -2, -6, 4, 10, 854, 754, 70,-
2025-03-17 14:21:25.276,688, 626, 404, -4, 0, -4, -7, 5, 7, 877, 785, 55,-
2025-03-17 14:21:25.334,682, 633, 393, -3, -1, -1, -8, 6, 8, 885, 797, 56,-
2025-03-17 14:21:25.386,680, 637, 399, -4, -1, -2, -8, 5, 9, 877, 796, 51,-
2025-03-17 14:21:25.436,656, 610, 429, -3, 1, 1, -7, 5, 8, 884, 804, 50,-
2025-03-17 14:21:25.486,662, 632, 384, -1, 0, -1, -5, 4, 9, 878, 799, 58,-
2025-03-17 14:21:25.536,639, 633, 430, 5, 6, 0, -7, 5, 8, 870, 786, 64,-
2025-03-17 14:21:25.586,661, 727, 426, -5, 4, -12, -5, 3, 9, 896, 817, 59,-
2025-03-17 14:21:25.650,574, 990, 419, -31, -14, 38, -5, 5, 9, 942, 917, 37,-
2025-03-17 14:21:25.702,768, 696, 509, -2, -2, 23, -8, 4, 9, 934, 924, 48,-
2025-03-17 14:21:25.752,731, 550, 317, 5, 9, -5, -9, 4, 8, 910, 883, 131,-
2025-03-17 14:21:25.806,646, 680, 345, -56, 41, -43, -7, 5, 9, 849, 726, 51,-
2025-03-17 14:21:26.076,663, 644, 403, -12, 1, -2, -8, 5, 8, 820, 654, 53,÷
2025-03-17 14:21:26.126,659, 645, 404, -13, 1, -2, -6, 4, 7, 820, 651, 52,÷
2025-03-17 14:21:26.183,679, 632, 411, -13, 0, -3, -7, 5, 7, 815, 607, 66,÷
2025-03-17 14:21:26.236,684, 635, 397, -11, 1, -5, -7, 4, 7, 834, 598, 32,÷
2025-03-17 14:21:26.289,658, 625, 436, -6, -1, -2, -6, 4, 6, 821, 622, 68,÷
2025-03-17 14:21:26.339,668, 627, 426, -3, -2, 1, -8, 5, 6, 865, 674, 40,÷
2025-03-17 14:21:26.387,672, 624, 421, -3, -1, -1, -7, 5, 7, 856, 684, 63,÷
2025-03-17 14:21:26.438,678, 628, 406, -2, -3, 0, -6, 4, 9, 863, 700, 52,÷
2025-03-17 14:21:26.497,671, 622, 420, -1, -2, -3, -7, 4, 6, 870, 708, 43,÷
2025-03-17 14:21:26.551,682, 627, 411, -1, -3, -1, -6, 5, 8, 859, 712, 56,÷
2025-03-17 14:21:26.605,670, 625, 424, -2, -1, -1, -7, 6, 8, 859, 722, 65,÷
2025-03-17 14:21:26.656,693, 629, 389, -2, -1, -1, -7, 3, 8, 882, 745, 46,÷
2025-03-17 14:21:26.706,656, 631, 422, -4, 1, -1, -7, 4, 9, 862, 749, 70,÷
2025-03-17 14:21:26.756,665, 613, 424, -1, -1, 0, -8, 6, 7, 874, 763, 37,÷
2025-03-17 14:21:26.806,697, 628, 396, -3, -1, -1, -8, 6, 7, 882, 768, 50,÷
2025-03-17 14:21:26.867,666, 619, 434, -4, 2, -1, -6, 4, 7, 868, 767, 74,÷
2025-03-17 14:21:26.920,380, 514, 597, -4, -30, 27, -8, 6, 8, 902, 826, 40,÷
2025-03-17 14:21:26.971,729, 688, 261, 19, -7, -5, -7, 5, 8, 908, 865, 58,÷
2025-03-17 14:21:27.026,858, 709, 375, -42, 46, 36, -6, 6, 10, 885, 735, 61,÷
2025-03-17 14:21:27.076,327, 715, 781, 18, 11, 47, -8, 7, 7, 880, 526, 66,÷
2025-03-17 14:21:27.133,857, 633, 128, -9, 6, 5, -5, 6, 8, 917, 746, 47,÷
2025-03-17 14:21:27.186,720, 599, 501, -16, 3, 10, -5, 6, 4, 894, 700, 34,÷
2025-03-17 14:21:27.236,520, 656, 393, 14, 9, -41, -7, 6, 4, 824, 455, 64,÷
2025-03-17 14:21:27.287,483, -145, 263, 57, -12, -28, -6, 5, 5, 893, 800, 40,÷
2025-03-17 14:21:27.346,555, 493, 145, -1, -20, 18, -4, 4, 7, 923, 906, 55,÷
2025-03-17 14:21:27.399,554, 479, 279, -4, 8, 14, -7, 4, 8, 926, 894, 47,÷
2025-03-17 14:21:27.453,774, 427, 260, 9, 29, -32, -7, 5, 7, 873, 830, 190,÷
2025-03-17 14:21:27.506,590, 642, 580, -35, 33, -28, -7, 5, 5, 797, 586, 32,÷
2025-03-17 14:21:27.766,672, 626, 401, -4, -6, 2, -6, 5, 7, 707, 252, 51,=
2025-03-17 14:21:27.826,672, 624, 401, -4, -6, 2, -7, 5, 6, 715, 244, 44,=
2025-03-17 14:21:27.876,675, 645, 403, -4, -3, 1, -8, 5, 6, 719, 363, 39,=
2025-03-17 14:21:27.926,660, 627, 423, 0, -3, 1, -6, 6, 7, 712, 521, 59,=
2025-03-17 14:21:27.979,680, 631, 394, -2, -2, 0, -7, 5, 7, 717, 558, 59,=
2025-03-17 14:21:28.034,670, 620, 417, -4, -1, -1, -7, 4, 7, 730, 579, 65,=
2025-03-17 14:21:28.083,667, 635, 418, -3, -2, 0, -8, 3, 6, 766, 613, 34,=
2025-03-17 14:21:28.136,676, 628, 399, -3, -2, 0, -7, 5, 7, 763, 620, 62,=
2025-03-17 14:21:28.186,667, 628, 416, -5, -2, 0, -6, 4, 8, 771, 627, 69,=
2025-03-17 14:21:28.236,669, 620, 419, -5, -2, 0, -7, 4, 8, 794, 653, 28,=
2025-03-17 14:21:28.286,670, 612, 417, -4, 0, 1, -6, 5, 6, 800, 664, 49,=
2025-03-17 14:21:28.336,682, 635, 408, -1, -2, 1, -5, 4, 9, 809, 668, 51,=
2025-03-17 14:21:28.394,669, 616, 419, 3, 2, 1, -7, 5, 8, 817, 679, 35,=
2025-03-17 14:21:28.444,663, 632, 389, 1, -1, -6, -5, 4, 7, 818, 679, 48,=
2025-03-17 14:21:28.496,635, 625, 438, 0, -1, -3, -7, 5, 9, 826, 671, 51,=
2025-03-17 14:21:28.550,664, 841, 343, -10, -4, -12, -5, 3, 7, 877, 770, 56,=
2025-03-17 14:21:28.601,669, 608, 381, 3, 5, -3, -6, 3, 9, 895, 835, 68,=
2025-03-17 14:21:28.656,781, 593, 459, 23, -5, -2, -7, 7, 8, 904, 866, 61,=
2025-03-17 14:21:28.706,519, 695, 339, -9, -12, 22, -5, 2, 10, 925, 908, 53,=
2025-03-17 14:21:28.756,650, 636, 420, 8, -2, 4, -6, 2, 12, 922, 903, 56,=
2025-03-17 14:21:28.816,668, 621, 402, 21, 1, -2, -8, 5, 10, 889, 841, 66,=
2025-03-17 14:21:28.868,580, 639, 426, -26, 36, -17, -6, 3, 7, 862, 482, 42,=
2025-03-17 14:21:28.918,791, 462, 330, 97, -4, -20, -3, 4, 9, 892, 699, 64,=
2025-03-17 14:21:28.976,452, 704, 273, -11, -1, 33, -5, 3, 9, 921, 901, 58,=
2025-03-17 14:21:29.027,668, 581, 306, 7, 4, 17, -6, 5, 9, 904, 875, 219,=
2025-03-17 14:21:29.087,731, 517, 226, -14, 42, -47, -6, 4, 8, 864, 782, 197,=
2025-03-17 14:21:29.386,675, 645, 390, -8, -2, -3, -7, 4, 6, 761, 613, 59,≠
2025-03-17 14:21:29.439,669, 636, 399, -8, -1, -3, -9, 4, 7, 769, 614, 58,≠
2025-03-17 14:21:29.486,676, 628, 410, -6, -3, -1, -6, 4, 7, 772, 599, 66,≠
2025-03-17 14:21:29.536,677, 641, 409, -6, -2, 0, -8, 4, 8, 795, 601, 48,≠
2025-03-17 14:21:29.595,676, 633, 409, -6, -5, 0, -8, 6, 8, 791, 613, 61,≠
2025-03-17 14:21:29.646,680, 618, 398, -4, -1, 0, -7, 4, 8, 799, 630, 67,≠
2025-03-17 14:21:29.701,677, 627, 409, -3, -3, -1, -6, 3, 8, 829, 667, 31,≠
2025-03-17 14:21:29.752,679, 622, 392, -1, -2, -2, -8, 5, 7, 811, 674, 69,≠
2025-03-17 14:21:29.802,677, 636, 405, -1, 0, -1, -8, 3, 8, 842, 691, 36,≠
2025-03-17 14:21:29.856,671, 610, 413, 2, 0, -1, -6, 3, 6, 831, 685, 60,≠
2025-03-17 14:21:29.906,692, 618, 390, 2, 1, -1, -6, 6, 7, 838, 698, 56,≠
2025-03-17 14:21:29.956,705, 636, 369, -3, 2, -2, -5, 5, 7, 844, 708, 49,≠
2025-03-17 14:21:30.006,711, 658, 403, 8, -5, 2, -6, 4, 8, 858, 759, 47,≠
2025-03-17 14:21:30.056,616, 613, 408, -23, 6, -6, -4, 6, 7, 867, 743, 54,≠
2025-03-17 14:21:30.107,575, 595, 460, -8, -2, 1, -8, 5, 7, 858, 711, 53,≠
2025-03-17 14:21:30.168,840, 642, 377, 65, -8, -16, -7, 4, 9, 908, 844, 41,≠
2025-03-17 14:21:30.218,478, 584, 80, -23, 1, 53, -7, 4, 13, 922, 909, 49,≠
2025-03-17 14:21:30.268,598, 497, 501, 20, 2, 9, -8, 6, 10, 898, 874, 133,≠
2025-03-17 14:21:30.332,493, 640, 370, -20, 36, -29, -7, 5, 6, 891, 748, 58,≠
2025-03-17 14:21:30.384,859, 783, 282, 53, -12, -3, -3, 2, 10, 906, 840, 56,≠
2025-03-17 14:21:30.436,764, 634, 196, -34, 5, 43, -7, 4, 10, 915, 899, 58,≠
2025-03-17 14:21:30.493,685, 425, 397, -11, -10, -37, -6, 5, 7, 916, 896, 51,≠
2025-03-17 14:21:30.548,561, 778, 727, 4, -29, 4, -8, 4, 7, 902, 875, 69,≠
2025-03-17 14:21:30.596,700, 460, 331, 20, -8, -8, -7, 4, 9, 933, 905, 44,≠
2025-03-17 14:21:30.654,956, 1063, 147, -16, 45, 31, -7, 5, 10, 931, 870, 51,≠
2025-03-17 14:21:30.706,850, 612, 365, -20, 27, 2, -8, 6, 7, 887, 753, 59,≠
2025-03-17 14:21:30.766,661, 685, 337, -27, 20, -32, -6, 5, 7, 837, 722, 69,≠
2025-03-17 14:21:31.027,695, 602, 395, -3, -5, -2, -5, 4, 7, 832, 684, 56,≈
2025-03-17 14:21:31.086,694, 612, 400, -4, -4, -3, -7, 5, 7, 840, 693, 36,≈
2025-03-17 14:21:31.136,667, 625, 420, -5, -2, -2, -7, 3, 7, 832, 722, 47,≈
2025-03-17 14:21:31.186,680, 612, 411, 0, -2, 0, -8, 6, 7, 829, 718, 48,≈
2025-03-17 14:21:31.236,691, 632, 391, -6, 0, -1, -6, 5, 7, 836, 719, 54,≈
2025-03-17 14:21:31.287,681, 612, 416, -3, -1, -3, -8, 3, 8, 856, 741, 40,≈
2025-03-17 14:21:31.346,677, 628, 409, -2, -1, -3, -8, 4, 5, 837, 744, 57,≈
2025-03-17 14:21:31.401,681, 617, 395, -2, 0, -2, -7, 5, 9, 855, 764, 54,≈
2025-03-17 14:21:31.453,678, 633, 422, -2, -1, -1, -6, 4, 6, 855, 767, 67,≈
2025-03-17 14:21:31.502,667, 537, 466, 8, -4, -3, -7, 4, 7, 876, 809, 55,≈
2025-03-17 14:21:31.556,705, 672, 380, 1, 0, -5, -7, 6, 7, 893, 827, 49,≈
2025-03-17 14:21:31.606,913, 669, 457, -4, -13, 18, -8, 6, 8, 918, 887, 45,≈
2025-03-17 14:21:31.659,678, 578, 536, -2, -15, 6, -5, 4, 9, 913, 894, 55,≈
2025-03-17 14:21:31.716,683, 651, 285, -3, -3, 11, -8, 4, 12, 933, 915, 32,≈
2025-03-17 14:21:31.770,716, 641, 350, -4, 7, 22, -8, 6, 11, 910, 895, 62,≈
2025-03-17 14:21:31.819,595, 556, 336, 1, 47, -28, -9, 4, 9, 921, 876, 46,≈
2025-03-17 14:21:31.876,519, 676, 611, 11, -5, 9, -6, 4, 7, 892, 786, 51,≈
2025-03-17 14:21:31.925,839, 997, 29, -33, -6, 2, -6, 5, 7, 913, 865, 54,≈
2025-03-17 14:21:31.982,820, 605, 332, -16, -17, 9, -7, 4, 9, 929, 911, 46,≈
2025-03-17 14:21:32.032,665, 594, 512, 5, -7, 7, -7, 6, 9, 923, 906, 67,≈
2025-03-17 14:21:32.085,726, 572, 281, -12, 22, 23, -6, 6, 9, 923, 900, 56,≈
2025-03-17 14:21:32.136,706, 544, 296, -15, 36, -40, -8, 5, 8, 900, 872, 56,≈
2025-03-17 14:21:32.194,518, 652, 639, -17, 0, -16, -9, 6, 4, 878, 835, 52,≈
2025-03-17 14:21:32.397,684, 620, 431, -4, -3, 1, -9, 4, 9, 838, 642, 43,<
2025-03-17 14:21:32.457,695, 612, 433, -3, -3, 0, -9, 5, 7, 838, 638, 47,<
2025-03-17 14:21:32.506,693, 626, 387, -4, 2, -1, -9, 4, 9, 826, 630, 61,<
2025-03-17 14:21:32.557,658, 622, 458, -2, 1, -1, -8, 4, 6, 825, 635, 47,<
2025-03-17 14:21:32.613,673, 619, 409, -3, 0, -1, -7, 6, 8, 829, 641, 33,<
2025-03-17 14:21:32.666,670, 616, 427, -4, -1, -1, -10, 6, 6, 813, 629, 54,<
2025-03-17 14:21:32.717,665, 615, 434, -3, -2, 0, -7, 4, 10, 816, 624, 54,<
2025-03-17 14:21:32.768,688, 615, 418, -1, -2, -1, -8, 5, 7, 838, 625, 39,<
2025-03-17 14:21:32.826,676, 630, 425, -6, -2, -1, -9, 6, 7, 826, 629, 60,<
2025-03-17 14:21:32.876,673, 617, 433, -4, -2, 1, -8, 4, 7, 859, 659, 26,<
2025-03-17 14:21:32.926,663, 611, 443, 0, -5, 2, -7, 4, 8, 850, 672, 59,<
2025-03-17 14:21:32.982,705, 617, 387, -1, -7, 1, -9, 5, 7, 858, 690, 53,<
2025-03-17 14:21:33.031,682, 625, 416, 0, -5, 2, -9, 5, 9, 862, 741, 62,<
2025-03-17 14:21:33.086,679, 593, 399, -1, -13, 5, -10, 6, 9, 886, 829, 37,<
2025-03-17 14:21:33.136,621, 603, 441, -5, -12, 1, -7, 5, 11, 887, 864, 58,<
2025-03-17 14:21:33.194,704, 599, 381, -10, -3, -4, -8, 6, 11, 917, 897, 32,<
2025-03-17 14:21:33.248,561, 568, 425, 39, 7, -7, -9, 5, 9, 903, 857, 61,<
2025-03-17 14:21:33.301,1034, 583, 427, -6, 8, -9, -6, 6, 9, 918, 778, 39,<
2025-03-17 14:21:33.354,789, 672, 419, -49, 12, 43, -6, 4, 10, 923, 884, 59,<
2025-03-17 14:21:33.406,628, 509, 382, 0, 9, 19, -7, 6, 9, 923, 886, 43,<
2025-03-17 14:21:33.456,716, 544, 321, 5, 31, -43, -8, 6, 8, 879, 754, 64,<
2025-03-17 14:21:33.515,630, 647, 594, -19, 18, -25, -10, 6, 5, 844, 541, 46,<
2025-03-17 14:21:33.761,662, 644, 424, -1, -10, 1, -8, 4, 9, 836, 685, 45,≤
2025-03-17 14:21:33.817,667, 634, 421, 0, -11, 2, -11, 5, 7, 848, 696, 36,≤
2025-03-17 14:21:33.868,692, 634, 387, 4, -12, 1, -10, 4, 10, 844, 737, 43,≤
2025-03-17 14:21:33.917,706, 621, 416, 4, -12, 9, -8, 5, 9, 852, 799, 60,≤
2025-03-17 14:21:33.967,676, 618, 400, 0, -12, 5, -8, 4, 9, 879, 854, 49,≤
2025-03-17 14:21:34.026,713, 557, 364, -2, -10, -7, -8, 5, 10, 896, 886, 42,≤
2025-03-17 14:21:34.084,599, 537, 467, 23, 12, -8, -7, 3, 13, 913, 863, 47,≤
2025-03-17 14:21:34.136,696, 522, 399, 5, 20, -5, -5, 4, 11, 922, 800, 46,≤
2025-03-17 14:21:34.186,968, 707, 552, 1, 2, 27, -7, 5, 10, 914, 882, 60,≤
2025-03-17 14:21:34.242,544, 422, 521, -1, -1, 18, -8, 6, 10, 945, 932, 26,≤
2025-03-17 14:21:34.296,650, 618, 268, 20, 26, 1, -7, 6, 12, 911, 857, 47,≤
2025-03-17 14:21:34.350,684, 650, 556, -37, 17, 3, -6, 5, 8, 903, 624, 47,≤
2025-03-17 14:21:34.399,820, 865, 367, 2, -4, 14, -8, 6, 7, 924, 899, 44,≤
2025-03-17 14:21:34.450,812, 374, 512, 3, 1, 16, -7, 6, 8, 912, 902, 58,≤
2025-03-17 14:21:34.506,789, 444, 261, -1, 29, -31, -7, 6, 7, 911, 860, 40,≤
2025-03-17 14:21:34.809,674, 605, 426, 1, -10, 2, -11, 6, 7, 840, 718, 62,>
2025-03-17 14:21:34.866,671, 599, 435, 2, -10, 2, -9, 5, 9, 846, 730, 55,>
2025-03-17 14:21:34.914,704, 624, 386, 4, -14, 5, -7, 5, 9, 851, 771, 55,>
2025-03-17 14:21:34.967,661, 637, 384, -8, -3, 3, -7, 5, 9, 854, 795, 62,>
2025-03-17 14:21:35.026,708, 627, 400, -1, -4, -10, -8, 5, 10, 886, 850, 46,>
2025-03-17 14:21:35.076,686, 847, 467, -7, -15, 25, -7, 4, 11, 916, 902, 48,>
2025-03-17 14:21:35.132,600, 543, 517, 8, -3, 8, -7, 6, 12, 927, 911, 40,>
2025-03-17 14:21:35.183,389, 601, 316, 28, 34, 6, -9, 6, 13, 911, 874, 65,>
2025-03-17 14:21:35.236,866, 638, 120, -17, 23, 6, -7, 4, 12, 916, 841, 55,>
2025-03-17 14:21:35.292,714, 584, 249, -31, 39, -50, -8, 5, 8, 899, 837, 48,>
2025-03-17 14:21:35.341,458, 671, 754, -5, 8, -7, -10, 6, 5, 884, 801, 48,>
2025-03-17 14:21:35.626,684, 618, 418, -4, -10, -4, -8, 4, 8, 846, 751, 53,≥
2025-03-17 14:21:35.681,689, 640, 412, -7, -11, -3, -9, 5, 8, 852, 764, 47,≥
2025-03-17 14:21:35.733,668, 595, 422, 0, -9, 0, -7, 3, 12, 852, 801, 57,≥
2025-03-17 14:21:35.787,646, 557, 433, 13, -24, 2, -8, 4, 10, 859, 823, 46,≥
2025-03-17 14:21:35.841,794, 665, 238, -9, 0, -9, -8, 4, 11, 879, 855, 59,≥
2025-03-17 14:21:35.898,723, 828, 296, -13, -15, 20, -8, 5, 12, 920, 905, 48,≥
2025-03-17 14:21:35.947,628, 598, 555, 15, -3, 5, -8, 5, 13, 910, 893, 62,≥
2025-03-17 14:21:36.000,839, 753, 403, 24, 28, 8, -7, 3, 13, 946, 888, 38,≥
2025-03-17 14:21:36.056,809, 621, 312, -13, 31, 9, -7, 4, 10, 905, 796, 51,≥
2025-03-17 14:21:36.111,447, 655, 592, -15, 19, -11, -7, 6, 9, 900, 644, 46,≥
2025-03-17 14:21:36.167,763, 1111, 429, 28, -16, -4, -7, 6, 7, 923, 846, 44,≥
2025-03-17 14:21:36.217,899, 381, 429, 2, -7, 24, -7, 6, 9, 933, 906, 51,≥
2025-03-17 14:21:36.267,812, 484, 311, 8, 18, -16, -10, 6, 11, 898, 840, 67,≥
2025-03-17 14:21:36.566,674, 612, 409, -2, -4, -4, -9, 4, 7, 662, 381, 53,±
2025-03-17 14:21:36.626,682, 622, 414, 0, -4, -3, -7, 3, 9, 678, 380, 45,±
2025-03-17 14:21:36.676,699, 626, 388, 0, -7, 1, -8, 4, 8, 689, 390, 43,±
2025-03-17 14:21:36.726,713, 656, 359, -4, 0, 1, -5, 1, 9, 715, 455, 58,±
2025-03-17 14:21:36.777,686, 644, 384, -4, -1, -1, -9, 4, 7, 743, 509, 58,±
2025-03-17 14:21:36.832,682, 624, 396, -2, -3, -3, -7, 3, 9, 757, 539, 33,±
2025-03-17 14:21:36.884,698, 626, 379, -6, -5, -2, -7, 4, 9, 750, 578, 64,±
2025-03-17 14:21:36.936,687, 616, 399, -5, -1, -2, -8, 5, 8, 779, 600, 55,±
2025-03-17 14:21:36.987,669, 634, 386, -1, -5, 1, -8, 4, 9, 812, 632, 33,±
2025-03-17 14:21:37.042,710, 622, 362, -1, -7, -3, -7, 4, 10, 806, 658, 43,±
2025-03-17 14:21:37.098,686, 608, 374, -9, 2, -9, -8, 3, 9, 803, 678, 23,±
2025-03-17 14:21:37.149,697, 616, 387, -11, -5, 6, -7, 3, 12, 838, 711, 53,±
2025-03-17 14:21:37.199,696, 611, 376, -20, 9, -10, -9, 3, 10, 856, 682, 43,±
2025-03-17 14:21:37.256,665, 625, 434, -15, 1, -8, -8, 5, 9, 851, 657, 62,±
2025-03-17 14:21:37.311,744, 645, 367, 7, -2, -1, -7, 4, 10, 859, 704, 36,±
2025-03-17 14:21:37.365,656, 651, 428, 8, 1, -1, -8, 4, 10, 852, 711, 68,±
2025-03-17 14:21:37.416,693, 632, 377, 3, -3, 1, -7, 4, 10, 849, 736, 52,±
2025-03-17 14:21:37.466,644, 631, 440, -8, 5, -1, -7, 4, 10, 864, 723, 33,±
2025-03-17 14:21:37.518,625, 631, 380, -6, -9, 5, -8, 6, 9, 850, 712, 65,±
2025-03-17 14:21:37.576,972, 851, 355, -4, -11, -11, -8, 4, 10, 899, 827, 44,±
2025-03-17 14:21:37.633,700, 599, 218, -36, -11, 39, -7, 4, 13, 915, 899, 64,±
2025-03-17 14:21:37.686,674, 656, 391, 5, -1, 16, -7, 4, 13, 937, 903, 33,±
2025-03-17 14:21:37.741,512, 731, 370, -4, 9, -38, -10, 5, 10, 885, 843, 63,±
2025-03-17 14:21:37.798,827, 183, 254, 39, -12, -14, -9, 5, 10, 941, 900, 31,±
2025-03-17 14:21:37.851,822, 736, 302, -18, 51, 51, -7, 4, 12, 912, 864, 67,±
2025-03-17 14:21:37.900,462, 573, 464, 13, 29, -25, -7, 5, 9, 898, 689, 45,±
2025-03-17 14:21:37.956,876, 661, 291, 64, -14, -15, -7, 5, 9, 923, 872, 29,±
2025-03-17 14:21:38.015,623, 690, 401, -9, -8, 39, -7, 4, 9, 933, 923, 51,±
2025-03-17 14:21:38.066,795, 371, 353, 1, 22, -16, -8, 4, 8, 913, 876, 50,±
2025-03-17 14:21:38.366,699, 633, 387, -3, -5, 2, -8, 4, 9, 859, 718, 54,∓
2025-03-17 14:21:38.420,703, 611, 394, -1, -5, 2, -9, 5, 9, 872, 724, 31,∓
2025-03-17 14:21:38.476,696, 623, 398, -1, -4, -1, -8, 5, 10, 871, 755, 26,∓
2025-03-17 14:21:38.531,695, 611, 387, 1, -6, 0, -7, 3, 9, 863, 785, 53,∓
2025-03-17 14:21:38.582,687, 635, 380, -3, -1, -5, -7, 4, 10, 859, 783, 64,∓
2025-03-17 14:21:38.636,648, 595, 420, 1, -2, -10, -7, 3, 9, 856, 762, 59,∓
2025-03-17 14:21:38.691,749, 592, 431, -16, -24, -1, -9, 3, 10, 886, 814, 55,∓
2025-03-17 14:21:38.749,982, 828, 190, -34, -34, 47, -9, 3, 13, 931, 918, 48,∓
2025-03-17 14:21:38.799,618, 520, 467, 10, -4, 15, -9, 6, 15, 940, 917, 44,∓
2025-03-17 14:21:38.856,670, 459, 200, 28, 52, -16, -9, 4, 13, 909, 829, 60,∓
2025-03-17 14:21:38.910,718, 746, 578, -26, 27, 0, -7, 5, 11, 881, 497, 60,∓
2025-03-17 14:21:38.966,880, 869, 8, -31, -23, 24, -7, 2, 11, 925, 900, 67,∓
2025-03-17 14:21:39.016,686, 469, 533, -5, -1, 30, -7, 6, 10, 929, 913, 64,∓
2025-03-17 14:21:39.076,560, 445, 451, 15, 8, -46, -9, 5, 10, 906, 855, 61,∓
2025-03-17 14:21:39.130,675, 522, 777, 48, -20, -20, -7, 4, 11, 927, 882, 62,∓
2025-03-17 14:21:39.183,708, 467, 121, -9, 43, 33, -5, 5, 12, 935, 879, 32,∓
2025-03-17 14:21:39.236,805, 389, 361, -3, 20, -40, -7, 6, 9, 887, 743, 48,∓
2025-03-17 14:21:39.536,716, 612, 403, 4, -10, 0, -8, 6, 7, 695, 374, 45,∞
2025-03-17 14:21:39.585,715, 626, 384, 1, -8, 0, -7, 5, 7, 692, 369, 42,∞
2025-03-17 14:21:39.636,707, 625, 396, -2, 2, -3, -8, 6, 8, 680, 372, 55,∞
2025-03-17 14:21:39.686,667, 623, 440, -2, 0, -3, -7, 4, 7, 675, 445, 63,∞
2025-03-17 14:21:39.736,687, 619, 401, 1, -5, -6, -8, 5, 6, 681, 482, 30,∞
2025-03-17 14:21:39.789,668, 604, 438, 5, -7, -6, -7, 5, 6, 730, 532, 42,∞
2025-03-17 14:21:39.840,672, 628, 398, 1, -4, -6, -6, 3, 9, 752, 571, 59,∞
2025-03-17 14:21:39.897,645, 645, 426, 7, -3, -3, -8, 4, 7, 773, 593, 49,∞
2025-03-17 14:21:39.949,660, 639, 405, 14, -5, -2, -7, 3, 8, 768, 585, 36,∞
2025-03-17 14:21:39.998,698, 635, 360, 2, -1, 3, -7, 4, 9, 769, 588, 57,∞
2025-03-17 14:21:40.051,672, 643, 389, 2, 9, -1, -6, 3, 10, 778, 582, 57,∞
2025-03-17 14:21:40.102,693, 653, 368, -2, 0, -3, -7, 2, 9, 761, 590, 40,∞
2025-03-17 14:21:40.149,687, 635, 413, -2, 1, 0, -7, 4, 8, 768, 648, 46,∞
2025-03-17 14:21:40.202,665, 627, 403, 5, 2, 2, -6, 3, 8, 782, 643, 67,∞
2025-03-17 14:21:40.256,739, 623, 357, 15, 5, 7, -5, 3, 8, 785, 689, 50,∞
2025-03-17 14:21:40.306,626, 659, 368, -4, 3, -2, -6, 3, 8, 799, 727, 125,∞
2025-03-17 14:21:40.363,656, 647, 423, -7, -10, -2, -5, 4, 8, 796, 735, 60,∞
2025-03-17 14:21:40.415,764, 610, 382, -5, -1, 9, -7, 4, 7, 846, 783, 175,∞
2025-03-17 14:21:40.468,607, 606, 423, -5, -1, 10, -7, 3, 8, 886, 832, 55,∞
2025-03-17 14:21:40.516,949, 690, 482, -2, 8, -2, -7, 5, 8, 924, 856, 43,∞
2025-03-17 14:21:40.576,672, 639, 194, -36, 31, 15, -5, 6, 7, 937, 764, 26,∞
2025-03-17 14:21:40.626,739, 354, 485, -15, 19, -15, -4, 5, 6, 879, 659, 44,∞
2025-03-17 14:21:40.682,799, 816, 341, -16, -28, 5, -4, 4, 6, 927, 884, 43,∞
2025-03-17 14:21:40.736,487, 702, 384, -31, -11, 12, -9, 6, 5, 936, 918, 52,∞
2025-03-17 14:21:40.790,503, 375, 497, 23, -20, -26, -7, 5, 7, 917, 896, 59,∞
2025-03-17 14:21:40.846,734, 814, 236, 24, 19, 6, -7, 5, 9, 938, 880, 42,∞
2025-03-17 14:21:40.899,739, 870, 239, -27, 24, 17, -5, 6, 9, 927, 785, 46,∞
2025-03-17 14:21:40.956,964, 371, 392, -11, 32, -29, -5, 7, 4, 876, 609, 43,∞
2025-03-17 14:21:41.246,572, 717, 455, 19, -3, -10, -9, 1, 5, 379, 583, 191,∑
2025-03-17 14:21:41.298,542, 693, 447, 16, -1, -6, -9, -1, 6, 392, 588, 211,∑
2025-03-17 14:21:41.356,535, 701, 511, 23, 3, 18, -9, -1, 4, 488, 598, 337,∑
2025-03-17 14:21:41.406,577, 628, 305, 13, -3, 28, -8, -3, 5, 559, 622, 373,∑
2025-03-17 14:21:41.464,596, 591, 413, 8, -3, 26, -6, 0, 4, 540, 602, 266,∑
2025-03-17 14:21:41.516,850, 717, 431, 5, -14, 3, -7, 2, 4, 522, 552, 185,∑
2025-03-17 14:21:41.566,560, 647, 365, -23, -2, 2, -6, 1, 5, 663, 603, 46,∑
2025-03-17 14:21:41.616,701, 693, 406, 1, -16, 8, -5, 1, 5, 761, 635, 55,∑
2025-03-17 14:21:41.670,678, 626, 359, -7, -2, -1, -7, 2, 5, 791, 669, 62,∑
2025-03-17 14:21:41.730,696, 652, 369, -13, -1, -2, -5, 3, 6, 818, 712, 37,∑
2025-03-17 14:21:41.781,714, 654, 375, -14, -4, -1, -6, 3, 8, 837, 746, 46,∑
2025-03-17 14:21:41.836,667, 648, 399, -5, -16, 12, -5, 2, 7, 871, 826, 168,∑
2025-03-17 14:21:41.891,607, 610, 401, -11, -7, -3, -8, 4, 9, 865, 828, 206,∑
2025-03-17 14:21:41.947,649, 645, 354, -4, 6, -12, -6, 2, 8, 865, 789, 58,∑
2025-03-17 14:21:41.997,540, 631, 482, 14, 5, 6, -5, 3, 7, 864, 756, 55,∑
2025-03-17 14:21:42.050,792, 717, 268, 1, -3, -12, -6, 4, 8, 911, 847, 38,∑
2025-03-17 14:21:42.098,335, 616, 250, -50, -23, 42, -4, 3, 9, 926, 905, 65,∑
2025-03-17 14:21:42.156,576, 545, 551, 24, -5, 5, -9, 5, 8, 926, 893, 25,∑
2025-03-17 14:21:42.207,517, 617, 393, 1, 28, -30, -6, 2, 8, 880, 770, 48,∑
2025-03-17 14:21:42.266,799, 820, 372, 17, -12, -11, -3, 2, 8, 902, 829, 45,∑
2025-03-17 14:21:42.316,904, 673, 314, -5, -1, 24, -3, 1, 9, 933, 891, 46,∑
2025-03-17 14:21:42.366,580, 630, 574, 18, 1, 5, -4, 5, 6, 908, 838, 62,∑
2025-03-17 14:21:42.416,898, 638, 345, -10, 25, -8, -3, 2, 7, 901, 635, 42,∑
2025-03-17 14:21:42.476,761, 619, 442, -50, 9, 28, -4, 4, 7, 924, 865, 59,∑
2025-03-17 14:21:42.529,643, 650, 454, -5, 4, 17, -4, 6, 6, 919, 864, 47,∑
2025-03-17 14:21:42.581,741, 523, 222, -1, 40, -51, -6, 5, 6, 858, 633, 42,∑
2025-03-17 14:21:42.866,681, 627, 409, 0, -8, -12, -6, 2, 5, 800, 455, 59,∏
2025-03-17 14:21:42.918,690, 624, 416, 3, -8, -13, -5, 2, 7, 802, 434, 51,∏
2025-03-17 14:21:42.976,658, 572, 347, -17, -12, -29, -5, 3, 8, 798, 381, 44,∏
2025-03-17 14:21:43.029,555, 710, 454, -2, -1, -5, -6, 1, 9, 815, 339, 34,∏
2025-03-17 14:21:43.082,604, 668, 436, 8, -4, 19, -5, 1, 9, 827, 378, 45,∏
2025-03-17 14:21:43.133,700, 636, 377, 1, -5, 11, -6, 3, 9, 839, 550, 49,∏
2025-03-17 14:21:43.183,680, 626, 404, -4, 1, 7, -7, 3, 8, 856, 630, 46,∏
2025-03-17 14:21:43.236,662, 644, 393, -4, 0, 4, -5, 2, 7, 854, 660, 58,∏
2025-03-17 14:21:43.286,669, 645, 401, 0, -4, 7, -5, 4, 8, 857, 680, 47,∏
2025-03-17 14:21:43.336,674, 633, 389, -3, 0, 1, -6, 2, 9, 864, 691, 41,∏
2025-03-17 14:21:43.386,662, 630, 383, -4, -1, -2, -6, 3, 8, 873, 699, 26,∏
2025-03-17 14:21:43.442,641, 638, 400, -6, 4, -6, -6, 2, 8, 863, 672, 63,∏
2025-03-17 14:21:43.496,500, 623, 586, 15, -27, 15, -7, 4, 7, 861, 694, 44,∏
2025-03-17 14:21:43.549,921, 439, 191, 28, -6, -7, -5, 3, 8, 927, 884, 22,∏
2025-03-17 14:21:43.601,654, 603, 421, -38, 2, 43, -5, 3, 11, 930, 913, 58,∏
2025-03-17 14:21:43.656,620, 565, 476, 23, -6, 5, -7, 4, 13, 929, 892, 36,∏
2025-03-17 14:21:43.713,611, 639, 306, -9, 26, -44, -7, 3, 9, 883, 784, 36,∏
2025-03-17 14:21:43.766,1028, 229, 516, -23, -11, -11, -6, 3, 8, 928, 856, 30,∏
2025-03-17 14:21:43.816,903, 794, 293, 4, 27, 27, -5, 4, 10, 935, 865, 42,∏
2025-03-17 14:21:43.876,764, 624, 353, -17, 23, 22, -4, 6, 7, 918, 843, 57,∏
2025-03-17 14:21:43.930,556, 761, 520, -6, -24, -9, -5, 5, 6, 897, 870, 150,∏
2025-03-17 14:21:43.986,687, 530, 410, -22, -11, -1, -7, 5, 9, 920, 910, 57,∏
2025-03-17 14:21:44.036,1018, 925, 310, -15, 41, 49, -5, 5, 9, 953, 925, 24,∏
2025-03-17 14:21:44.092,731, 517, 450, -16, 22, 17, -6, 7, 6, 930, 880, 40,∏
2025-03-17 14:21:44.151,738, 589, 316, -29, 56, -51, -7, 6, 2, 888, 812, 35,∏
2025-03-17 14:21:44.199,482, 557, 717, -21, 18, -25, -7, 6, 1, 826, 766, 53,∏
2025-03-17 14:21:44.466,670, 603, 503, 8, -12, 1, -8, 7, 2, 726, 576, 47,√
2025-03-17 14:21:44.516,658, 604, 493, 8, -13, 3, -8, 5, 3, 729, 580, 34,√
2025-03-17 14:21:44.566,698, 618, 422, 4, -6, 1, -8, 6, 5, 721, 589, 46,√
2025-03-17 14:21:44.620,670, 589, 481, -4, 0, -3, -7, 5, 4, 709, 590, 57,√
2025-03-17 14:21:44.670,654, 583, 487, 4, -6, 0, -6, 6, 6, 714, 593, 25,√
2025-03-17 14:21:44.716,671, 579, 488, 4, -8, -1, -7, 7, 4, 711, 598, 37,√
2025-03-17 14:21:44.770,707, 612, 417, 2, -4, 2, -5, 6, 6, 726, 615, 37,√
2025-03-17 14:21:44.826,684, 600, 461, 0, -1, 4, -7, 6, 5, 774, 639, 39,√
2025-03-17 14:21:44.876,704, 596, 443, -2, -3, 5, -6, 6, 5, 823, 677, 26,√
2025-03-17 14:21:44.929,663, 559, 461, 0, -2, 4, -7, 7, 6, 847, 664, 38,√
2025-03-17 14:21:44.981,704, 592, 438, -1, -4, 0, -5, 5, 6, 847, 684, 39,√
2025-03-17 14:21:45.031,695, 557, 458, 5, 7, 8, -7, 6, 6, 857, 679, 49,√
2025-03-17 14:21:45.081,613, 566, 520, 4, 3, -3, -6, 6, 5, 858, 651, 42,√
2025-03-17 14:21:45.133,629, 544, 446, 6, -1, -12, -6, 5, 7, 878, 684, 38,√
2025-03-17 14:21:45.186,686, 600, 511, 15, -20, 20, -5, 6, 6, 889, 752, 46,√
2025-03-17 14:21:45.239,780, 644, 419, 1, 13, 5, -6, 6, 5, 932, 899, 32,√
2025-03-17 14:21:45.287,556, 451, 547, 8, -2, 9, -5, 6, 7, 935, 902, 33,√
2025-03-17 14:21:45.339,722, 645, 404, -9, 26, 39, -5, 6, 6, 939, 894, 46,√
2025-03-17 14:21:45.396,776, 778, 251, -65, 20, 22, -6, 6, 6, 928, 900, 62,√
2025-03-17 14:21:45.448,809, 606, 407, 9, -58, -50, -8, 7, 6, 923, 919, 57,√
2025-03-17 14:21:45.498,614, 616, 242, 15, -17, 9, -8, 6, 9, 935, 932, 52,√
2025-03-17 14:21:45.556,796, 228, 447, 4, 21, -7, -8, 6, 9, 932, 919, 43,√
2025-03-17 14:21:45.606,554, 526, 529, 2, 43, -47, -8, 6, 7, 897, 873, 54,√
2025-03-17 14:21:45.866,691, 636, 410, 1, -3, 5, -6, 4, 6, 844, 652, 32,∛
2025-03-17 14:21:45.916,696, 632, 404, 0, -3, 5, -6, 4, 6, 844, 651, 31,∛
2025-03-17 14:21:45.966,696, 601, 391, -2, 2, 2, -4, 5, 6, 846, 662, 42,∛
2025-03-17 14:21:46.017,706, 615, 387, -2, 1, 1, -4, 4, 6, 848, 670, 37,∛
2025-03-17 14:21:46.072,684, 617, 423, -2, -2, -2, -6, 4, 5, 854, 685, 21,∛
2025-03-17 14:21:46.126,669, 612, 399, -3, 0, -4, -6, 4, 6, 838, 667, 58,∛
2025-03-17 14:21:46.178,646, 588, 423, -4, 3, -6, -4, 3, 6, 845, 664, 44,∛
2025-03-17 14:21:46.230,768, 549, 375, -6, -2, -12, -5, 4, 5, 874, 703, 31,∛
2025-03-17 14:21:46.280,911, 775, 441, -5, -9, 12, -5, 6, 5, 905, 875, 33,∛
2025-03-17 14:21:46.331,575, 548, 472, 6, 1, 19, -4, 5, 7, 919, 887, 43,∛
2025-03-17 14:21:46.386,532, 413, 376, -12, 25, 21, -5, 5, 8, 932, 863, 38,∛
2025-03-17 14:21:46.445,695, 649, 289, -63, 18, 19, -4, 6, 6, 922, 864, 59,∛
2025-03-17 14:21:46.498,443, 383, 628, 8, -44, -47, -4, 6, 6, 921, 882, 38,∛
2025-03-17 14:21:46.548,879, 600, 429, -2, -25, -14, -6, 7, 7, 916, 914, 53,∛
2025-03-17 14:21:46.598,770, 436, 348, -2, -8, 27, -9, 7, 10, 928, 917, 54,∛
2025-03-17 14:21:46.662,720, 229, 272, 19, 15, -37, -7, 6, 11, 912, 887, 59,∛
2025-03-17 14:21:46.714,530, 641, 465, -24, 50, -80, -8, 4, 6, 871, 793, 38,∛
2025-03-17 14:21:46.766,473, 642, 677, 40, -41, 16, -6, 5, 6, 895, 836, 34,∛
2025-03-17 14:21:46.826,777, 1458, 452, -7, -16, -3, -6, 5, 8, 911, 903, 44,∛
2025-03-17 14:21:46.879,613, 613, 410, -6, 2, 13, -6, 4, 7, 923, 914, 44,∛
2025-03-17 14:21:46.928,651, 660, 329, -1, 6, 8, -4, 4, 8, 922, 902, 57,∛
2025-03-17 14:21:46.980,706, 612, 295, -1, 8, -2, -6, 3, 9, 923, 902, 55,∛
2025-03-17 14:21:47.030,665, 771, 407, -1, 10, 11, -3, 3, 8, 925, 892, 38,∛
2025-03-17 14:21:47.086,861, 499, 260, -15, 29, -17, -6, 5, 6, 898, 843, 50,∛
2025-03-17 14:21:47.145,509, 571, 683, -24, 28, -13, -7, 6, 3, 863, 825, 42,∛
2025-03-17 14:21:47.426,657, 616, 476, -1, 0, 7, -5, 4, 6, 810, 496, 51,∜
2025-03-17 14:21:47.480,669, 605, 466, 1, -1, 7, -6, 5, 6, 814, 510, 55,∜
2025-03-17 14:21:47.531,664, 602, 406, 1, 1, 3, -6, 3, 5, 825, 525, 37,∜
2025-03-17 14:21:47.579,623, 608, 473, 1, -1, 4, -4, 5, 5, 830, 450, 37,∜
2025-03-17 14:21:47.632,701, 640, 373, 2, -2, -4, -4, 4, 7, 828, 462, 34,∜
2025-03-17 14:21:47.686,756, 618, 351, 13, 3, -7, -4, 6, 3, 873, 726, 49,∜
2025-03-17 14:21:47.740,542, 544, 404, -14, -20, 20, -6, 6, 5, 915, 881, 36,∜
2025-03-17 14:21:47.791,560, 545, 467, 20, 17, 21, -3, 4, 8, 923, 873, 49,∜
2025-03-17 14:21:47.845,752, 575, 264, -31, 24, 23, -5, 6, 7, 933, 857, 37,∜
2025-03-17 14:21:47.898,658, 484, 674, -59, 5, 8, -6, 6, 5, 911, 870, 56,∜
2025-03-17 14:21:47.956,1076, 592, 386, -3, -46, -42, -7, 7, 7, 912, 903, 41,∜
2025-03-17 14:21:48.006,855, 603, 381, 1, -29, 0, -7, 6, 5, 936, 932, 45,∜
2025-03-17 14:21:48.058,594, 575, 441, 3, -1, 18, -7, 5, 9, 940, 938, 34,∜
2025-03-17 14:21:48.112,744, 402, 226, 15, 32, -26, -6, 6, 9, 915, 896, 54,∜
2025-03-17 14:21:48.165,517, 657, 569, 1, 33, -58, -9, 5, 5, 884, 793, 54,∜
2025-03-17 14:21:48.216,565, 604, 517, 30, -58, 6, -7, 4, 7, 894, 834, 44,∜
2025-03-17 14:21:48.271,754, 634, 157, -33, -7, -2, -6, 3, 9, 912, 906, 43,∜
2025-03-17 14:21:48.329,647, 603, 469, 9, -10, -3, -4, 4, 12, 938, 914, 42,∜
2025-03-17 14:21:48.379,635, 853, 145, -8, 24, 7, -4, 3, 9, 929, 866, 56,∜
2025-03-17 14:21:48.436,1033, 829, 493, -15, 6, 20, -4, 4, 10, 954, 919, 33,∜
2025-03-17 14:21:48.486,631, 630, 428, -21, 4, 19, -6, 5, 9, 941, 921, 42,∜
2025-03-17 14:21:48.540,617, 457, 377, 34, -4, -46, -6, 5, 8, 914, 880, 36,∜
2025-03-17 14:21:48.594,752, 276, 534, 20, -9, -14, -5, 3, 9, 923, 891, 61,∜
2025-03-17 14:21:48.647,785, 755, 287, -23, 35, 38, -3, 4, 9, 940, 886, 47,∜
2025-03-17 14:21:48.706,880, 291, 361, -20, 25, -46, -7, 6, 7, 908, 799, 60,∜
2025-03-17 14:21:48.985,670, 580, 464, -1, -4, 2, -5, 5, 6, 864, 649, 52,∫
2025-03-17 14:21:49.036,672, 583, 463, 0, -4, 1, -6, 6, 5, 869, 639, 48,∫
2025-03-17 14:21:49.086,669, 614, 438, 3, -3, 1, -6, 4, 7, 865, 605, 38,∫
2025-03-17 14:21:49.136,662, 613, 446, 6, -3, 1, -6, 6, 5, 851, 471, 50,∫
2025-03-17 14:21:49.188,695, 619, 393, 8, -1, -3, -4, 3, 8, 844, 391, 46,∫
2025-03-17 14:21:49.236,677, 612, 436, 2, 1, -3, -6, 4, 6, 836, 362, 53,∫
2025-03-17 14:21:49.288,674, 616, 412, 2, 1, -8, -4, 3, 6, 833, 340, 37,∫
2025-03-17 14:21:49.344,646, 615, 460, 4, -3, -9, -4, 5, 6, 835, 437, 35,∫
2025-03-17 14:21:49.394,638, 658, 428, 8, -7, 2, -4, 3, 7, 836, 594, 56,∫
2025-03-17 14:21:49.438,733, 647, 330, 2, -5, 3, -4, 3, 7, 846, 656, 55,∫
2025-03-17 14:21:49.496,691, 620, 406, -3, 1, -2, -4, 3, 6, 859, 706, 49,∫
2025-03-17 14:21:49.546,654, 626, 443, -7, -3, -1, -4, 2, 9, 871, 736, 50,∫
2025-03-17 14:21:49.597,650, 649, 412, -9, -5, 2, -4, 4, 7, 874, 752, 52,∫
2025-03-17 14:21:49.656,735, 546, 407, -4, -7, -2, -4, 3, 10, 897, 810, 48,∫
2025-03-17 14:21:49.701,667, 626, 418, -9, 1, 2, -3, 4, 9, 896, 817, 56,∫
2025-03-17 14:21:49.756,694, 638, 418, -1, -1, -2, -4, 4, 8, 899, 819, 52,∫
2025-03-17 14:21:49.812,733, 583, 431, 5, 0, -5, -3, 4, 7, 905, 813, 23,∫
2025-03-17 14:21:49.864,790, 634, 53, -57, 50, -29, -4, 4, 9, 892, 829, 43,∫
2025-03-17 14:21:49.917,291, 699, 1019, 5, -38, 32, -6, 3, 6, 898, 850, 41,∫
2025-03-17 14:21:49.966,606, 595, 416, 54, -67, 45, -7, 4, 8, 902, 868, 59,∫
2025-03-17 14:21:50.028,637, 611, 380, -14, 11, -7, -6, 5, 11, 907, 885, 54,∫
2025-03-17 14:21:50.079,908, 380, 535, 46, 4, -15, -6, 5, 9, 926, 880, 36,∫
2025-03-17 14:21:50.129,606, 863, 168, 6, 46, 24, -2, 3, 9, 934, 881, 55,∫
2025-03-17 14:21:50.186,618, 783, 514, -25, 34, 23, -4, 6, 7, 941, 869, 36,∫
2025-03-17 14:21:50.239,879, 462, 386, -6, 23, -11, -4, 6, 5, 855, 536, 60,∫
2025-03-17 14:21:50.295,615, 535, 394, -27, 56, -38, -2, 5, 0, 734, 621, 55,∫
2025-03-17 14:21:50.576,601, 643, 450, -1, -8, 12, -3, 3, 9, 820, 607, 58,∮
2025-03-17 14:21:50.629,604, 642, 449, 0, -10, 13, -6, 4, 7, 829, 619, 52,∮
2025-03-17 14:21:50.688,669, 630, 375, -8, -5, 16, -4, 3, 10, 851, 681, 42,∮
2025-03-17 14:21:50.746,692, 614, 405, -7, -3, 11, -4, 4, 10, 872, 718, 30,∮
2025-03-17 14:21:50.794,704, 577, 435, -12, 0, 6, -2, 5, 7, 877, 741, 51,∮
2025-03-17 14:21:50.847,718, 588, 401, -7, -4, 0, -3, 6, 9, 898, 782, 29,∮
2025-03-17 14:21:50.897,677, 595, 449, -3, -2, 2, -5, 6, 11, 898, 819, 34,∮
2025-03-17 14:21:50.946,692, 623, 426, 0, -8, 6, -4, 5, 9, 894, 840, 56,∮
2025-03-17 14:21:50.996,717, 586, 417, -2, -7, 5, -5, 6, 8, 896, 859, 57,∮
2025-03-17 14:21:51.056,694, 581, 414, -6, -2, 5, -5, 5, 10, 915, 888, 20,∮
2025-03-17 14:21:51.111,724, 574, 409, 1, -2, -1, -5, 5, 11, 903, 881, 52,∮
2025-03-17 14:21:51.163,705, 579, 436, -5, -2, 2, -5, 6, 9, 921, 898, 20,∮
2025-03-17 14:21:51.213,719, 592, 403, -4, -1, 2, -6, 5, 9, 915, 887, 48,∮
2025-03-17 14:21:51.264,715, 604, 436, -5, -5, 7, -4, 4, 11, 912, 886, 56,∮
2025-03-17 14:21:51.316,718, 553, 401, -13, -4, 1, -5, 6, 10, 939, 912, 31,∮
2025-03-17 14:21:51.376,634, 441, 483, -8, -3, -10, -6, 6, 10, 929, 916, 40,∮
2025-03-17 14:21:51.430,656, 604, 362, 59, 11, -17, -5, 6, 10, 943, 900, 35,∮
2025-03-17 14:21:51.486,632, 833, 125, -4, 48, 44, -4, 6, 10, 934, 882, 59,∮
2025-03-17 14:21:51.540,625, 338, 720, -13, -8, -5, -6, 8, 5, 919, 883, 54,∮
2025-03-17 14:21:51.594,617, 584, 489, 18, -25, -18, -5, 4, 8, 904, 880, 52,∮
2025-03-17 14:21:51.647,777, 954, 429, -8, -15, 4, -5, 5, 8, 925, 908, 54,∮
2025-03-17 14:21:51.699,492, 774, 568, -24, 20, 30, -5, 6, 8, 939, 916, 37,∮
2025-03-17 14:21:51.752,883, 527, 245, -19, 11, 7, -2, 7, 7, 937, 865, 47,∮
2025-03-17 14:21:51.806,945, 338, 650, 0, -23, -50, -3, 6, 7, 896, 785, 42,∮
2025-03-17 14:21:51.864,484, 579, 823, -19, -33, -10, -6, 6, 8, 902, 875, 53,∮
2025-03-17 14:21:51.916,892, 655, 295, -21, -3, -2, -6, 6, 10, 934, 910, 37,∮
2025-03-17 14:21:51.969,939, 484, 430, 20, 10, -1, -6, 7, 10, 926, 896, 55,∮
2025-03-17 14:21:52.027,581, 495, 647, -33, 46, 65, -3, 7, 9, 938, 906, 53,∮
2025-03-17 14:21:52.080,824, 526, 420, -5, 23, 13, -5, 11, 6, 925, 801, 54,∮
2025-03-17 14:21:52.138,968, 405, 185, -8, 81, -58, -4, 10, 2, 878, 516, 55,∮
2025-03-17 14:21:52.190,413, 557, 916, -17, 58, -44, -5, 9, -3, 777, 473, 42,∮
2025-03-17 14:21:52.456,503, 669, 533, 48, -17, 13, -6, 0, 3, 351, 370, 47,∂
2025-03-17 14:21:52.512,528, 673, 518, 51, -23, 17, -4, -1, 4, 305, 338, 47,∂
2025-03-17 14:21:52.566,630, 583, 202, 14, -21, 37, -3, -1, 6, 393, 344, 117,∂
2025-03-17 14:21:52.617,756, 675, 486, 20, -5, 17, -5, 2, 5, 461, 156, 51,∂
2025-03-17 14:21:52.670,613, 650, 325, -22, -1, 5, -3, 3, 5, 566, 234, 32,∂
2025-03-17 14:21:52.718,737, 688, 452, -3, -16, 6, -4, 2, 7, 662, 363, 53,∂
2025-03-17 14:21:52.777,734, 599, 322, -12, -1, 0, -2, 3, 7, 768, 556, 27,∂
2025-03-17 14:21:52.829,666, 616, 417, -23, 0, -4, -4, 4, 5, 799, 642, 45,∂
2025-03-17 14:21:52.879,665, 630, 451, -18, 2, 2, -4, 5, 6, 853, 719, 47,∂
2025-03-17 14:21:52.936,628, 618, 433, -7, -3, 2, -5, 4, 7, 858, 731, 54,∂
2025-03-17 14:21:52.986,741, 612, 386, -9, -3, 4, -4, 4, 7, 870, 766, 45,∂
2025-03-17 14:21:53.039,644, 583, 477, -4, 6, -2, -4, 4, 6, 877, 764, 37,∂
2025-03-17 14:21:53.088,686, 617, 413, -2, -9, 4, -5, 4, 6, 884, 759, 35,∂
2025-03-17 14:21:53.146,636, 604, 395, -5, -5, -5, -4, 2, 7, 871, 777, 59,∂
2025-03-17 14:21:53.194,695, 599, 414, 0, -14, 7, -4, 4, 7, 883, 799, 38,∂
2025-03-17 14:21:53.246,777, 595, 396, -1, 0, -6, -3, 5, 6, 891, 822, 44,∂
2025-03-17 14:21:53.297,770, 679, 405, -2, 1, 14, -3, 3, 9, 883, 829, 56,∂
2025-03-17 14:21:53.346,688, 583, 399, 8, -3, 8, -5, 4, 7, 896, 844, 43,∂
2025-03-17 14:21:53.396,668, 627, 352, -4, 11, -3, -5, 5, 9, 896, 837, 32,∂
2025-03-17 14:21:53.456,571, 593, 510, 4, -5, -4, -4, 5, 8, 887, 823, 54,∂
2025-03-17 14:21:53.510,784, 666, 273, -9, -6, -10, -3, 3, 10, 898, 864, 51,∂
2025-03-17 14:21:53.562,688, 572, 513, -4, -3, 28, -3, 4, 10, 927, 908, 47,∂
2025-03-17 14:21:53.616,552, 621, 553, 10, 20, 21, -5, 4, 8, 925, 896, 40,∂
2025-03-17 14:21:53.666,1144, 217, 230, -12, 29, 5, -3, 5, 7, 920, 856, 44,∂
2025-03-17 14:21:53.727,893, 471, 592, -17, 7, -12, -3, 4, 6, 912, 887, 48,∂
2025-03-17 14:21:53.779,621, 678, 373, -29, -29, -1, -3, 5, 7, 938, 933, 51,∂
2025-03-17 14:21:53.829,773, 684, 370, 6, 5, 16, -5, 6, 8, 930, 920, 45,∂
2025-03-17 14:21:53.886,714, 524, 371, -25, 68, -34, -5, 7, 3, 915, 900, 38,∂
2025-03-17 14:21:54.221,528, 647, 362, 46, -23, 39, -6, -1, 8, 554, 267, 34,∇
2025-03-17 14:21:54.280,561, 673, 311, 40, -18, 41, -5, -1, 10, 553, 259, 34,∇
2025-03-17 14:21:54.330,599, 560, 321, 6, 9, 30, -6, -1, 9, 574, 201, 23,∇
2025-03-17 14:21:54.386,1036, 805, 320, -7, -8, -4, -4, 3, 5, 611, 224, 47,∇
2025-03-17 14:21:54.438,591, 539, 521, -12, 14, -5, -3, 3, 6, 704, 387, 42,∇
2025-03-17 14:21:54.497,605, 613, 416, -12, -12, 11, -4, 3, 5, 743, 512, 37,∇
2025-03-17 14:21:54.546,713, 679, 352, 2, -11, 3, -4, 2, 6, 753, 539, 39,∇
2025-03-17 14:21:54.596,720, 626, 325, -8, 2, -5, -4, 3, 8, 765, 567, 46,∇
2025-03-17 14:21:54.646,661, 639, 423, -11, -1, -6, -5, 3, 6, 785, 580, 31,∇
2025-03-17 14:21:54.706,663, 642, 392, -7, 2, 1, -4, 4, 7, 804, 592, 21,∇
2025-03-17 14:21:54.760,685, 614, 413, -1, -4, -1, -3, 2, 7, 803, 607, 40,∇
2025-03-17 14:21:54.806,698, 632, 389, -8, 2, -2, -6, 4, 6, 819, 619, 44,∇
2025-03-17 14:21:54.862,635, 658, 414, -8, 1, -4, -2, 5, 7, 831, 640, 40,∇
2025-03-17 14:21:54.913,565, 600, 452, -1, -6, 6, -4, 3, 7, 843, 663, 40,∇
2025-03-17 14:21:54.968,790, 625, 379, -24, 1, -10, -2, 4, 6, 898, 788, 39,∇
2025-03-17 14:21:55.016,940, 644, 396, -29, -13, 44, -3, 5, 7, 944, 918, 21,∇
2025-03-17 14:21:55.068,584, 536, 482, -2, -6, 12, -7, 7, 7, 931, 921, 40,∇
2025-03-17 14:21:55.127,599, 574, 322, 35, -2, -4, -6, 6, 8, 946, 909, 30,∇
2025-03-17 14:21:55.186,1110, 500, 445, -14, 51, 20, -4, 3, 9, 931, 851, 53,∇
2025-03-17 14:21:55.229,740, 625, 369, -39, 30, 8, -2, 6, 6, 909, 697, 43,∇
2025-03-17 14:21:55.288,578, 676, 519, -21, -6, -59, -3, 6, 2, 840, 542, 44,∇
2025-03-17 14:21:55.345,899, 254, 97, 7, -30, -22, -3, 5, 3, 892, 856, 40,∇
2025-03-17 14:21:55.396,899, 1179, 242, -61, 17, 51, -4, 5, 5, 940, 902, 40,∇
2025-03-17 14:21:55.446,677, 374, 559, -14, 12, 25, -3, 8, 3, 928, 872, 55,∇
2025-03-17 14:21:55.509,673, 512, 307, -1, 39, -58, -3, 7, 3, 872, 678, 54,∇
2025-03-17 14:21:55.820,665, 588, 458, 7, -9, -32, -5, 6, 4, 598, 270, 29,∆
2025-03-17 14:21:55.877,652, 600, 447, 10, -9, -34, -5, 6, 4, 571, 215, 25,∆
2025-03-17 14:21:55.930,618, 657, 479, 15, -15, -32, -6, 3, 5, 486, 29, 24,∆
2025-03-17 14:21:55.979,527, 670, 479, 15, -4, 6, -5, 2, 7, 580, 151, 36,∆
2025-03-17 14:21:56.030,621, 663, 424, 14, 3, 35, -6, 2, 6, 713, 361, 25,∆
2025-03-17 14:21:56.086,663, 641, 385, 4, 0, 29, -6, 4, 5, 812, 605, 50,∆
2025-03-17 14:21:56.136,691, 593, 458, -2, -1, 15, -4, 4, 8, 835, 673, 44,∆
2025-03-17 14:21:56.193,670, 604, 430, -1, -7, 13, -4, 5, 4, 852, 713, 42,∆
2025-03-17 14:21:56.243,750, 600, 364, -4, -7, 4, -4, 6, 7, 859, 720, 45,∆
2025-03-17 14:21:56.296,683, 601, 407, -12, 1, -11, -4, 5, 7, 858, 725, 56,∆
2025-03-17 14:21:56.346,693, 595, 460, -7, -4, -2, -3, 4, 7, 870, 751, 35,∆
2025-03-17 14:21:56.401,698, 592, 427, -5, 3, -3, -3, 5, 7, 874, 749, 37,∆
2025-03-17 14:21:56.446,668, 605, 428, -2, 2, 3, -3, 5, 7, 873, 712, 50,∆
