Timestamp,Acc_X,Acc_Y,Acc_Z,Gyro_X,Gyro_Y,Gyro_Z,Mag_X,Mag_Y,Mag_Z,Force1,Force2,Force3,Letter
2025-03-10 12:01:55.890,715, 555, 450, -1, 0, -1, -2, 0, 1, 935, 883, 848,noise
2025-03-10 12:01:55.943,721, 558, 448, -1, 0, -1, -1, -1, 3, 914, 881, 856,noise
2025-03-10 12:01:55.994,706, 559, 449, -1, 0, -1, -3, 0, 2, 905, 866, 843,noise
2025-03-10 12:01:56.050,714, 553, 440, 0, -1, -1, -4, -2, 2, 919, 877, 847,noise
2025-03-10 12:01:56.100,713, 558, 437, -1, 0, -1, -2, 0, 2, 932, 895, 856,noise
2025-03-10 12:01:56.150,712, 556, 449, -1, 0, 0, -2, 0, 2, 906, 871, 837,noise
2025-03-10 12:01:56.209,711, 558, 440, -2, 0, -1, -3, -1, 3, 914, 876, 847,noise
2025-03-10 12:01:56.260,713, 563, 450, -2, 0, -1, -3, -1, 2, 907, 881, 851,noise
2025-03-10 12:01:56.318,718, 561, 441, -2, 0, -1, -3, -1, 2, 906, 872, 839,noise
2025-03-10 12:01:56.370,718, 561, 441, -2, 0, -1, -1, 0, 2, 905, 872, 839,noise
2025-03-10 12:01:56.426,714, 564, 446, -3, -1, -1, -2, 1, 2, 913, 877, 846,noise
2025-03-10 12:01:56.477,719, 566, 444, -2, 0, -1, -3, 0, 2, 915, 884, 849,noise
2025-03-10 12:01:56.531,710, 557, 446, -1, 0, 0, -2, 1, 0, 906, 877, 851,noise
2025-03-10 12:01:56.580,713, 555, 444, 0, 0, 0, -2, -1, 2, 929, 898, 868,noise
2025-03-10 12:01:56.630,717, 551, 434, -2, 0, -1, -2, -2, 2, 917, 880, 847,noise
2025-03-10 12:01:56.682,708, 564, 440, -2, 0, 0, -2, 0, 2, 919, 888, 849,noise
2025-03-10 12:01:56.742,721, 561, 438, -3, 0, 0, -3, 0, 2, 922, 887, 857,noise
2025-03-10 12:01:56.793,711, 561, 440, -2, 0, -1, -3, -1, 3, 909, 878, 839,noise
2025-03-10 12:01:56.844,716, 561, 445, -3, 1, -1, -2, -1, 3, 918, 888, 854,noise
2025-03-10 12:01:56.900,711, 552, 435, -3, 1, -1, -3, -1, 2, 908, 875, 837,noise
2025-03-10 12:01:56.950,713, 555, 438, -1, -2, 0, -2, 1, 2, 919, 885, 848,noise
2025-03-10 12:01:57.007,716, 554, 428, -1, -1, 0, -3, 0, 2, 922, 883, 851,noise
2025-03-10 12:01:57.060,712, 556, 435, -2, 0, -1, -2, -1, 1, 908, 874, 837,noise
2025-03-10 12:01:57.111,711, 553, 448, -1, 0, -1, -2, 0, 3, 903, 870, 832,noise
2025-03-10 12:01:57.172,714, 560, 442, -2, 0, -1, -3, -1, 1, 913, 877, 843,noise
2025-03-10 12:01:57.220,707, 555, 449, 0, 0, -1, -3, 1, 3, 905, 873, 847,noise
2025-03-10 12:01:57.274,713, 553, 443, -1, 0, -1, -2, -2, 1, 919, 889, 848,noise
2025-03-10 12:01:57.326,724, 561, 451, -2, 0, -1, -4, 0, 3, 938, 892, 857,noise
2025-03-10 12:01:57.380,715, 563, 443, -2, 1, -1, -2, 0, 1, 921, 894, 856,noise
2025-03-10 12:01:58.110,722, 564, 446, -1, 0, 0, -2, -1, 3, 936, 900, 864,A
2025-03-10 12:01:58.163,718, 555, 439, -1, 0, 0, -1, 1, 1, 934, 899, 868,A
2025-03-10 12:01:58.215,711, 547, 448, 2, -1, 0, -2, -1, 3, 938, 902, 863,A
2025-03-10 12:01:58.264,717, 559, 445, 0, 0, 0, -2, -1, 0, 931, 897, 858,A
2025-03-10 12:01:58.312,715, 553, 445, -1, 1, 0, -1, -1, 3, 936, 908, 871,A
2025-03-10 12:01:58.370,726, 562, 445, 0, 1, 0, -2, 1, 3, 934, 900, 862,A
2025-03-10 12:01:58.425,720, 558, 452, -2, 1, -1, -1, 0, 1, 931, 903, 865,A
2025-03-10 12:01:58.476,722, 546, 443, -1, 1, -1, -3, -1, 1, 944, 909, 868,A
2025-03-10 12:01:58.526,715, 568, 435, 0, 2, 0, -3, 0, 1, 926, 900, 868,A
2025-03-10 12:01:58.580,716, 549, 435, -1, 3, 0, -2, -1, 2, 930, 899, 866,A
2025-03-10 12:01:58.630,710, 564, 445, -1, 3, 3, -1, -1, 2, 932, 910, 873,A
2025-03-10 12:01:58.681,688, 548, 474, -5, -1, 1, -2, -1, 3, 944, 915, 876,A
2025-03-10 12:01:58.741,710, 551, 449, -4, -6, 0, -1, 1, 1, 938, 917, 882,A
2025-03-10 12:01:58.794,699, 543, 448, -6, -6, -1, -3, 0, 1, 941, 914, 864,A
2025-03-10 12:01:58.850,697, 534, 437, 2, -14, 2, -3, -1, 2, 954, 925, 872,A
2025-03-10 12:01:58.900,746, 566, 399, -5, -3, -3, -2, 1, 2, 950, 920, 865,A
2025-03-10 12:01:58.957,696, 553, 432, -4, -3, -2, -3, 0, 2, 958, 938, 883,A
2025-03-10 12:01:59.010,711, 541, 460, 6, -5, -5, -3, -1, 1, 954, 934, 876,A
2025-03-10 12:01:59.060,664, 462, 649, 17, -25, -15, -3, 0, 2, 967, 940, 857,A
2025-03-10 12:01:59.121,1736, 532, 445, 27, 24, 7, -2, 1, 4, 957, 921, 811,A
2025-03-10 12:01:59.176,807, 731, 394, -24, 49, 21, -2, -1, 4, 945, 900, 823,A
2025-03-10 12:01:59.231,680, 564, 550, -28, -27, -21, -2, -1, 3, 959, 931, 872,A
2025-03-10 12:01:59.293,759, 603, 530, 42, -24, -4, -2, -1, 4, 959, 936, 866,A
2025-03-10 12:01:59.343,944, 542, 243, 20, 39, 26, -3, -1, 4, 961, 933, 856,A
2025-03-10 12:01:59.401,777, 348, 440, -31, 13, -27, -4, -1, 4, 945, 899, 842,A
2025-03-10 12:01:59.461,759, 878, 587, -4, -24, -6, -3, -1, 3, 949, 920, 821,A
2025-03-10 12:01:59.510,835, 652, 146, 0, 7, 18, -2, -1, 4, 969, 949, 864,A
2025-03-10 12:01:59.567,854, 379, 379, -28, 20, -7, -3, -1, 3, 941, 924, 856,A
2025-03-10 12:01:59.625,577, 538, 583, -49, 43, -42, -1, -2, 1, 938, 905, 834,A
2025-03-10 12:01:59.676,534, 552, 703, 4, -7, 0, -1, 0, 0, 941, 898, 842,A
2025-03-10 12:02:00.066,740, 572, 409, 1, 5, 1, -1, -1, 4, 941, 906, 849,B
2025-03-10 12:02:00.120,740, 593, 431, 0, 6, 2, -1, -1, 3, 940, 909, 852,B
2025-03-10 12:02:00.174,701, 581, 415, -3, 3, 2, -1, -2, 4, 947, 914, 860,B
2025-03-10 12:02:00.227,716, 595, 417, -5, 1, -2, -1, 0, 2, 941, 912, 853,B
2025-03-10 12:02:00.280,707, 588, 419, -9, 4, -3, -2, -1, 2, 945, 914, 855,B
2025-03-10 12:02:00.330,711, 569, 423, -7, 4, -2, -1, -1, 4, 948, 913, 853,B
2025-03-10 12:02:00.391,687, 583, 436, -4, -3, -1, -2, -2, 2, 950, 914, 857,B
2025-03-10 12:02:00.440,725, 552, 418, -4, 2, -1, 0, 0, 2, 942, 913, 857,B
2025-03-10 12:02:00.493,669, 586, 450, 2, -1, 1, -1, -3, 3, 947, 909, 850,B
2025-03-10 12:02:00.550,736, 586, 396, -5, -3, -1, -1, -1, 2, 944, 908, 855,B
2025-03-10 12:02:00.600,693, 579, 436, -14, -3, -3, -2, -2, 1, 943, 909, 846,B
2025-03-10 12:02:00.661,672, 570, 462, -6, -14, 2, -2, 0, 2, 954, 926, 865,B
2025-03-10 12:02:00.711,775, 645, 489, 8, -9, -7, -2, -1, 3, 951, 929, 853,B
2025-03-10 12:02:00.761,157, 451, 315, 55, 52, 30, -3, 0, 4, 966, 924, 813,B
2025-03-10 12:02:00.825,700, 636, 198, -19, 30, 19, -2, -1, 3, 950, 904, 806,B
2025-03-10 12:02:00.880,670, 625, 549, -24, -35, -20, -2, -1, 2, 944, 919, 847,B
2025-03-10 12:02:00.930,753, 708, 415, 26, -10, 4, -3, -2, 3, 964, 948, 873,B
2025-03-10 12:02:00.993,541, 665, 423, 1, 20, 20, -3, -1, 4, 959, 936, 846,B
2025-03-10 12:02:01.044,795, 373, 195, 5, 13, -6, -4, -1, 3, 958, 932, 814,B
2025-03-10 12:02:01.100,542, 696, 642, -2, 1, 11, -2, 0, 3, 960, 934, 817,B
2025-03-10 12:02:01.151,1298, 557, 387, -7, 11, 3, -3, -1, 3, 952, 906, 732,B
2025-03-10 12:02:01.211,1130, 346, 236, -24, 24, -36, -2, 2, 2, 938, 862, 776,B
2025-03-10 12:02:01.263,502, 594, 735, -45, 17, -36, -1, -1, 0, 922, 878, 787,B
2025-03-10 12:02:01.320,519, 619, 655, 18, -34, 8, -1, 0, 0, 916, 880, 808,B
2025-03-10 12:02:01.770,706, 546, 464, -4, -2, -1, -1, 1, 0, 935, 900, 828,C
2025-03-10 12:02:01.825,697, 539, 468, -4, -2, 0, -2, 1, 1, 936, 900, 826,C
2025-03-10 12:02:01.881,704, 540, 461, -1, -2, 0, -2, -1, 2, 926, 897, 820,C
2025-03-10 12:02:01.930,708, 560, 472, 0, -4, 0, -2, 0, 2, 935, 902, 827,C
2025-03-10 12:02:01.981,710, 548, 451, 1, -3, 2, -3, -1, 0, 931, 907, 837,C
2025-03-10 12:02:02.041,686, 554, 485, 3, -12, 6, -2, -1, 2, 937, 913, 842,C
2025-03-10 12:02:02.092,753, 361, 350, 12, -6, -14, -3, 1, 3, 938, 917, 833,C
2025-03-10 12:02:02.152,762, 506, 577, 2, -9, -16, -2, -1, 2, 946, 924, 805,C
2025-03-10 12:02:02.200,631, 528, 358, 73, 15, -8, -2, -2, 3, 951, 915, 749,C
2025-03-10 12:02:02.260,1148, 659, 344, -11, 45, 51, -3, -2, 4, 956, 927, 789,C
2025-03-10 12:02:02.310,691, 481, 602, -8, -1, 7, -4, 0, 4, 954, 937, 867,C
2025-03-10 12:02:02.373,665, 531, 500, -70, 60, -51, -2, 0, 2, 929, 904, 828,C
2025-03-10 12:02:02.430,455, 556, 776, -30, 15, -13, 0, 0, -2, 937, 897, 823,C
2025-03-10 12:02:02.480,631, 550, 575, 11, -24, 10, 0, 0, -2, 944, 895, 824,C
2025-03-10 12:02:02.860,700, 555, 458, 1, -5, 0, -1, 0, -1, 938, 890, 820,D
2025-03-10 12:02:02.910,696, 554, 479, 0, -5, 0, -3, -1, 0, 940, 890, 817,D
2025-03-10 12:02:02.961,677, 533, 505, 5, -4, 2, -2, 0, 0, 935, 889, 812,D
2025-03-10 12:02:03.010,697, 552, 471, 9, -11, 2, -2, 0, 0, 933, 888, 813,D
2025-03-10 12:02:03.067,716, 564, 428, -1, -6, -5, -2, 1, 1, 944, 895, 825,D
2025-03-10 12:02:03.127,640, 548, 586, 0, -36, -3, -3, 0, 1, 939, 897, 824,D
2025-03-10 12:02:03.180,722, 453, 470, 18, -10, -13, -2, 0, 2, 956, 918, 815,D
2025-03-10 12:02:03.230,754, 816, 268, 54, 54, 43, -2, 0, 3, 952, 896, 739,D
2025-03-10 12:02:03.290,717, 484, 479, -25, 23, 1, -3, 0, 2, 939, 879, 772,D
2025-03-10 12:02:03.342,795, 458, 647, -3, -27, -25, -2, -1, 3, 938, 916, 834,D
2025-03-10 12:02:03.400,658, 718, 336, 29, -11, 8, -4, 0, 1, 953, 933, 850,D
2025-03-10 12:02:03.450,640, 738, 368, -21, 36, 29, -4, 0, 3, 964, 919, 783,D
2025-03-10 12:02:03.510,984, 362, 570, -28, 26, -3, -2, -1, 2, 934, 832, 740,D
2025-03-10 12:02:03.568,627, 451, 692, -53, 65, -52, -2, -1, -1, 925, 848, 754,D
2025-03-10 12:02:03.622,350, 561, 795, -12, 1, -6, 1, 0, -3, 921, 865, 769,D
2025-03-10 12:02:03.990,671, 534, 481, 3, -10, 4, -1, 1, 0, 924, 872, 803,E
2025-03-10 12:02:04.042,680, 551, 491, 3, -10, 4, 0, -1, -1, 925, 866, 799,E
2025-03-10 12:02:04.091,695, 543, 496, 4, -11, 3, -2, -1, 0, 938, 880, 811,E
2025-03-10 12:02:04.150,685, 552, 494, 5, -14, 4, -2, -1, -1, 931, 883, 813,E
2025-03-10 12:02:04.208,685, 525, 464, 2, -19, -3, -2, -1, 0, 931, 891, 815,E
2025-03-10 12:02:04.260,650, 707, 483, 10, -4, -14, -1, 0, 2, 930, 900, 800,E
2025-03-10 12:02:04.317,763, 593, 431, 39, 4, -7, -1, -1, 3, 951, 913, 799,E
2025-03-10 12:02:04.370,734, 518, 233, 12, 33, 28, -3, -1, 3, 951, 900, 722,E
2025-03-10 12:02:04.430,791, 156, 566, -52, -46, -43, -3, -1, 3, 938, 887, 798,E
2025-03-10 12:02:04.490,661, -809, -566, -20, -24, -27, -2, 0, 1, 943, 918, 819,E
2025-03-10 12:02:04.541,897, 942, 144, 8, 16, 32, -2, -2, 5, 957, 942, 857,E
2025-03-10 12:02:04.601,667, 446, 437, -16, 24, 3, -3, -1, 3, 954, 932, 869,E
2025-03-10 12:02:04.650,651, 504, 702, 20, -35, 11, -2, -1, 3, 937, 881, 808,E
2025-03-10 12:02:04.710,321, 694, 132, -3, 10, 30, -2, -1, 3, 960, 943, 850,E
2025-03-10 12:02:04.760,560, 510, 428, -5, 28, 16, -4, -1, 3, 958, 922, 867,E
2025-03-10 12:02:04.822,307, 557, 908, -7, -24, -10, -3, -1, 2, 932, 794, 744,E
2025-03-10 12:02:04.880,856, 1085, -39, 48, -7, 25, -1, -3, 6, 953, 927, 785,E
2025-03-10 12:02:04.930,670, 484, 541, -25, 17, 37, -3, 0, 5, 961, 927, 870,E
2025-03-10 12:02:04.992,632, 435, 479, -106, 105, -53, -2, -1, 0, 929, 809, 797,E
2025-03-10 12:02:05.042,351, 549, 849, -11, -5, -12, 0, 1, -3, 919, 763, 777,E
2025-03-10 12:02:05.490,675, 541, 496, 1, -10, 2, -2, 1, 0, 929, 882, 818,F
2025-03-10 12:02:05.541,678, 548, 506, 0, -12, 1, -2, 1, 0, 933, 881, 817,F
2025-03-10 12:02:05.601,706, 545, 478, 0, -10, 2, -2, -1, 0, 939, 885, 820,F
2025-03-10 12:02:05.651,702, 541, 477, -1, -9, 1, -2, 0, 2, 930, 885, 813,F
2025-03-10 12:02:05.700,697, 535, 467, 1, -11, 1, -1, 0, 0, 936, 888, 818,F
2025-03-10 12:02:05.756,668, 552, 521, 5, -34, 1, -3, 0, 0, 938, 905, 829,F
2025-03-10 12:02:05.809,744, 440, 480, 6, -1, -8, -3, 0, 2, 940, 915, 811,F
2025-03-10 12:02:05.866,897, 886, 434, 73, 31, 21, -3, -3, 2, 961, 924, 810,F
2025-03-10 12:02:05.917,784, 711, 37, 6, 16, 8, -2, -2, 2, 951, 899, 745,F
2025-03-10 12:02:05.973,832, 495, 14, -48, -32, -70, -2, -1, 3, 940, 898, 828,F
2025-03-10 12:02:06.030,1157, -153, -5, 25, -28, -29, -2, -2, 2, 949, 929, 833,F
2025-03-10 12:02:06.089,335, 633, 149, -6, 17, 33, -2, -2, 5, 958, 947, 859,F
2025-03-10 12:02:06.141,676, 495, 379, -13, 39, 14, -2, -1, 4, 948, 924, 857,F
2025-03-10 12:02:06.191,550, 541, 804, 4, -36, 4, -1, -1, 2, 943, 845, 770,F
2025-03-10 12:02:06.250,992, 892, 113, 54, -7, 11, -3, -3, 6, 952, 932, 817,F
2025-03-10 12:02:06.309,805, 374, 383, -20, 24, 31, -2, -1, 5, 959, 936, 876,F
2025-03-10 12:02:06.361,474, 527, 591, -98, 88, -54, -2, -1, 1, 940, 886, 823,F
2025-03-10 12:02:06.420,384, 535, 810, -4, -12, 2, 2, -1, 0, 929, 852, 793,F
2025-03-10 12:02:06.771,720, 558, 425, -1, -4, 0, -2, 0, 3, 933, 900, 841,G
2025-03-10 12:02:06.830,713, 556, 429, -1, -3, 1, -2, 0, 3, 935, 903, 840,G
2025-03-10 12:02:06.880,697, 558, 448, -2, -4, 1, -2, -2, 1, 943, 907, 851,G
2025-03-10 12:02:06.930,704, 561, 451, 8, -8, 9, -1, 0, 3, 931, 911, 852,G
2025-03-10 12:02:06.989,674, 534, 431, 6, -19, 7, -2, -1, 3, 937, 919, 860,G
2025-03-10 12:02:07.043,843, 487, 570, 3, -10, -14, -2, 0, 4, 943, 923, 836,G
2025-03-10 12:02:07.100,1235, 483, 361, 45, 24, 3, -2, -1, 2, 953, 918, 801,G
2025-03-10 12:02:07.152,854, 531, 204, 6, 37, 32, -2, -1, 3, 943, 913, 790,G
2025-03-10 12:02:07.211,628, 383, 641, -20, -14, -9, -4, 0, 2, 948, 928, 833,G
2025-03-10 12:02:07.262,695, 373, 804, 27, -23, -16, -1, -1, 2, 947, 930, 846,G
2025-03-10 12:02:07.318,794, 686, 83, 3, 28, 24, -2, 0, 3, 947, 927, 835,G
2025-03-10 12:02:07.375,725, 231, 568, -37, -9, -23, -4, 0, 2, 943, 919, 847,G
2025-03-10 12:02:07.430,1024, 188, 85, 24, -5, -21, -4, -1, 3, 940, 919, 821,G
2025-03-10 12:02:07.480,703, 436, -9, 7, -9, 25, -2, -1, 5, 945, 933, 822,G
2025-03-10 12:02:07.538,599, 568, 488, -17, 11, 18, -3, 0, 4, 953, 940, 870,G
2025-03-10 12:02:07.591,536, 505, 631, -87, 62, -58, -2, 1, 1, 940, 913, 821,G
2025-03-10 12:02:07.643,500, 537, 835, 13, -21, 5, -2, 0, -2, 943, 907, 821,G
2025-03-10 12:02:07.971,717, 550, 422, -7, -1, -1, -2, -1, 1, 934, 879, 817,H
2025-03-10 12:02:08.026,693, 533, 436, -5, 0, -1, -2, -1, 1, 923, 875, 815,H
2025-03-10 12:02:08.080,701, 578, 478, -3, -3, -2, -1, -1, 3, 924, 867, 803,H
2025-03-10 12:02:08.131,648, 546, 497, -1, -14, -5, -3, -1, 1, 919, 879, 809,H
2025-03-10 12:02:08.194,826, 422, 452, 9, -4, -14, -2, 0, 1, 929, 900, 809,H
2025-03-10 12:02:08.242,702, 527, 472, 24, 0, -8, -2, -1, 1, 959, 917, 806,H
2025-03-10 12:02:08.300,843, 597, 320, 9, 17, 19, -3, -1, 3, 947, 891, 725,H
2025-03-10 12:02:08.353,724, 458, 562, -46, 3, -6, -2, -1, 4, 943, 851, 744,H
2025-03-10 12:02:08.410,453, 583, 760, 24, -45, 14, -1, 0, 3, 934, 877, 757,H
2025-03-10 12:02:08.460,645, 657, 106, 15, 16, 37, -3, -1, 3, 940, 920, 821,H
2025-03-10 12:02:08.522,815, 247, 282, -39, -2, -33, -4, -1, 3, 943, 931, 867,H
2025-03-10 12:02:08.578,505, 667, 730, 8, -32, 25, -3, -1, 2, 934, 916, 848,H
2025-03-10 12:02:08.630,767, 619, 224, 33, 23, 17, -4, 0, 3, 956, 925, 823,H
2025-03-10 12:02:08.681,654, 444, 576, -6, 33, 24, -2, 1, 4, 961, 918, 820,H
2025-03-10 12:02:08.740,800, 496, 112, -61, 52, -47, -3, 0, 1, 940, 894, 828,H
2025-03-10 12:02:08.790,413, 567, 886, -19, -14, -10, -2, 0, 0, 926, 895, 819,H
2025-03-10 12:02:09.140,715, 539, 444, -4, 0, -6, -2, -1, 2, 925, 867, 767,I
2025-03-10 12:02:09.200,705, 541, 463, -3, 0, -6, -2, -1, 0, 928, 867, 771,I
2025-03-10 12:02:09.251,686, 556, 466, 5, -7, 2, -4, 0, 0, 936, 874, 777,I
2025-03-10 12:02:09.305,682, 580, 450, -3, 5, -6, -3, 1, 2, 927, 871, 765,I
2025-03-10 12:02:09.360,720, 392, 477, 18, -2, -7, -3, -1, 1, 939, 906, 731,I
2025-03-10 12:02:09.410,512, 725, 309, 35, 1, 36, -2, -1, 4, 950, 940, 843,I
2025-03-10 12:02:09.462,636, 475, 541, 0, 3, 3, -3, -1, 2, 946, 932, 866,I
2025-03-10 12:02:09.521,620, 535, 522, -43, 8, -40, -3, -1, 1, 941, 905, 834,I
2025-03-10 12:02:09.577,649, 339, 449, 38, -6, -3, -2, -1, 1, 950, 918, 816,I
2025-03-10 12:02:09.632,756, 656, 145, 17, 38, 37, -3, -1, 2, 948, 909, 805,I
2025-03-10 12:02:09.688,708, 420, 450, -26, 15, -51, -4, 2, 4, 951, 858, 773,I
2025-03-10 12:02:09.740,773, 557, 291, 29, -30, -10, -1, -1, 2, 944, 914, 763,I
2025-03-10 12:02:09.791,802, 733, 365, -7, 22, 46, -2, -1, 5, 950, 932, 837,I
2025-03-10 12:02:09.857,885, 466, -48, -67, 76, -61, -4, -1, 4, 943, 907, 844,I
2025-03-10 12:02:09.910,446, 631, 846, -42, 14, -21, -1, 1, -1, 933, 869, 769,I
2025-03-10 12:02:10.250,710, 546, 472, -1, -2, -2, -2, -1, -1, 931, 882, 773,J
2025-03-10 12:02:10.310,691, 547, 471, -1, -3, -3, -1, 1, 1, 924, 878, 767,J
2025-03-10 12:02:10.360,703, 563, 478, -4, -5, -3, 0, 0, 3, 912, 870, 762,J
2025-03-10 12:02:10.416,626, 563, 520, -4, -20, 2, -2, -1, 1, 920, 866, 714,J
2025-03-10 12:02:10.471,828, 333, 375, 60, -6, -10, -3, 0, 0, 928, 903, 746,J
2025-03-10 12:02:10.522,790, 524, 319, 10, 3, 27, -2, 0, 3, 960, 943, 853,J
2025-03-10 12:02:10.572,667, 639, 483, -5, -5, 2, -2, 0, 2, 934, 918, 844,J
2025-03-10 12:02:10.630,808, 588, 398, -24, 18, -35, -3, -1, 1, 924, 880, 780,J
2025-03-10 12:02:10.690,647, 540, 524, 11, -10, 12, -2, -1, 1, 931, 902, 831,J
2025-03-10 12:02:10.740,706, 608, 386, -6, -1, 1, -3, -2, 2, 919, 897, 826,J
2025-03-10 12:02:10.790,647, 567, 499, -6, -6, -4, -1, 0, 3, 921, 892, 810,J
2025-03-10 12:02:10.856,752, 606, 297, -8, 0, -4, -2, -1, 3, 922, 899, 803,J
2025-03-10 12:02:10.907,729, 430, 553, 12, -5, -8, -2, -1, 3, 927, 907, 798,J
2025-03-10 12:02:10.960,802, 266, 815, 32, 15, 26, -3, 0, 4, 939, 914, 808,J
2025-03-10 12:02:11.015,581, 794, 46, -13, 26, 31, -2, -1, 3, 954, 923, 705,J
2025-03-10 12:02:11.073,349, 426, 818, -53, 1, -46, -4, 1, 3, 934, 870, 442,J
2025-03-10 12:02:11.130,1020, 571, -45, -26, 73, -22, -2, 0, 2, 920, 838, 679,J
2025-03-10 12:02:11.181,416, 695, 751, -7, 29, 1, -1, 0, 0, 917, 819, 757,J
2025-03-10 12:02:11.230,611, 572, 609, 3, -20, 7, -2, 1, -1, 899, 799, 750,J
2025-03-10 12:02:11.290,709, 517, 501, -17, -14, -5, -3, -1, 1, 910, 778, 704,J
2025-03-10 12:02:11.855,692, 540, 466, 3, -8, 1, -1, 0, 1, 932, 878, 761,K
2025-03-10 12:02:11.910,712, 527, 475, 5, -9, 0, -1, 0, 1, 918, 873, 766,K
2025-03-10 12:02:11.961,723, 541, 448, -1, -4, -3, -2, 0, 0, 912, 870, 757,K
2025-03-10 12:02:12.016,708, 543, 454, -1, -4, -3, -1, -1, 1, 911, 872, 769,K
2025-03-10 12:02:12.074,691, 546, 461, 0, -11, -2, -1, -1, 2, 925, 888, 783,K
2025-03-10 12:02:12.123,745, 487, 464, 1, 0, -9, -2, 1, 2, 932, 905, 771,K
2025-03-10 12:02:12.180,706, 550, 457, 17, -8, -7, -1, -2, 1, 945, 920, 780,K
2025-03-10 12:02:12.240,1178, 746, 481, 49, 31, 23, -1, -2, 3, 938, 890, 712,K
2025-03-10 12:02:12.290,959, 693, 291, 23, 20, 13, -3, -1, 3, 948, 927, 695,K
2025-03-10 12:02:12.350,109, 419, 388, -11, -21, 10, -3, 0, 3, 944, 937, 845,K
2025-03-10 12:02:12.404,631, 625, 122, -18, 4, -3, -3, 1, 4, 938, 906, 840,K
2025-03-10 12:02:12.457,663, 690, 723, 9, -17, 9, -1, -1, 3, 942, 860, 737,K
2025-03-10 12:02:12.510,266, 581, 256, -13, 5, 43, -3, 0, 3, 952, 933, 806,K
2025-03-10 12:02:12.565,741, 466, 427, -11, 22, 25, -4, 0, 4, 953, 936, 860,K
2025-03-10 12:02:12.623,562, 537, 407, -98, 66, -60, -3, 0, 3, 933, 860, 779,K
2025-03-10 12:02:12.673,518, 592, 782, -2, -7, -6, 0, 1, -1, 917, 806, 725,K
2025-03-10 12:02:12.981,768, 550, 365, 1, -6, 0, -1, 0, 1, 916, 860, 764,L
2025-03-10 12:02:13.030,757, 546, 373, 0, -3, -1, -1, -1, 2, 921, 866, 768,L
2025-03-10 12:02:13.088,679, 566, 486, 0, 1, 3, -1, 1, 3, 911, 862, 769,L
2025-03-10 12:02:13.137,757, 561, 377, 2, -5, 1, -1, 0, 3, 914, 869, 786,L
2025-03-10 12:02:13.190,727, 557, 419, -8, -3, -5, -2, -1, 2, 919, 876, 806,L
2025-03-10 12:02:13.250,757, 537, 388, -11, -9, -10, -2, -1, 2, 921, 895, 812,L
2025-03-10 12:02:13.305,716, 507, 560, 10, -9, -7, -2, 0, 1, 931, 911, 803,L
2025-03-10 12:02:13.357,1040, 610, 579, 37, 18, 4, -1, 0, 3, 946, 904, 775,L
2025-03-10 12:02:13.410,815, 705, 162, 13, 19, 14, -1, 0, 4, 937, 882, 603,L
2025-03-10 12:02:13.465,754, 677, 638, 25, -17, 28, -2, -1, 4, 949, 937, 823,L
2025-03-10 12:02:13.522,765, 583, 356, -5, 10, 8, -3, -2, 4, 943, 920, 848,L
2025-03-10 12:02:13.574,615, 585, 501, -93, 76, -42, -2, 0, 2, 932, 805, 756,L
2025-03-10 12:02:13.630,527, 500, 700, -7, 7, -1, -1, -1, 0, 934, 779, 718,L
2025-03-10 12:02:13.680,664, 564, 522, 27, -30, 6, -1, 0, 1, 918, 810, 762,L
2025-03-10 12:02:14.040,742, 583, 408, 2, -8, 0, -2, 0, 1, 925, 855, 760,M
2025-03-10 12:02:14.090,734, 576, 397, 1, -5, -1, -2, 0, 1, 924, 847, 753,M
2025-03-10 12:02:14.146,720, 575, 415, 1, 1, -6, -2, 1, 3, 920, 847, 754,M
2025-03-10 12:02:14.200,690, 583, 455, 0, -5, -2, -2, -1, 2, 924, 850, 756,M
2025-03-10 12:02:14.257,707, 579, 399, 0, -5, -7, -2, -1, 2, 920, 852, 761,M
2025-03-10 12:02:14.310,595, 580, 520, 4, -26, -8, -2, -1, 2, 919, 850, 748,M
2025-03-10 12:02:14.370,750, 595, 336, -6, -11, -15, -1, -1, 4, 933, 884, 729,M
2025-03-10 12:02:14.422,718, 779, 345, 48, 10, 11, -1, -2, 4, 948, 891, 734,M
2025-03-10 12:02:14.480,783, 777, 28, -18, 31, 25, -2, -1, 5, 946, 880, 720,M
2025-03-10 12:02:14.538,685, 374, 423, -25, -32, -27, -3, -1, 3, 932, 897, 799,M
2025-03-10 12:02:14.590,682, 471, 593, 12, -22, -13, -2, -2, 3, 950, 927, 806,M
2025-03-10 12:02:14.642,721, 292, 447, 19, 22, 19, -3, -1, 4, 951, 920, 813,M
2025-03-10 12:02:14.706,680, 547, 481, -17, -8, 5, -2, -2, 4, 945, 923, 832,M
2025-03-10 12:02:14.760,712, 408, 751, 22, -24, -13, -5, -2, 3, 948, 929, 851,M
2025-03-10 12:02:14.816,769, 750, 53, 6, 27, 21, -2, -1, 4, 952, 924, 832,M
2025-03-10 12:02:14.873,937, 359, 190, -45, 37, -31, -2, 0, 4, 953, 919, 843,M
2025-03-10 12:02:14.921,632, 625, 608, -53, 32, -36, -2, 0, 2, 938, 904, 807,M
2025-03-10 12:02:14.980,503, 601, 720, 5, -23, 2, 2, -1, -1, 934, 893, 792,M
2025-03-10 12:02:15.489,704, 567, 420, -3, -2, -1, -1, -1, 2, 926, 870, 758,N
2025-03-10 12:02:15.544,685, 568, 429, -2, -1, -1, -2, -1, 2, 938, 877, 762,N
2025-03-10 12:02:15.600,685, 570, 457, 3, -5, -1, -2, -1, 1, 933, 880, 760,N
2025-03-10 12:02:15.651,712, 570, 402, 2, -4, 1, -1, -1, 1, 937, 885, 765,N
2025-03-10 12:02:15.706,718, 580, 398, -1, -4, -3, -1, 0, 2, 927, 874, 761,N
2025-03-10 12:02:15.759,709, 573, 433, -3, 0, -4, -1, -1, 2, 929, 876, 765,N
2025-03-10 12:02:15.810,694, 573, 463, 2, -10, -4, -2, 0, 3, 929, 879, 759,N
2025-03-10 12:02:15.870,715, 561, 392, -2, -7, -11, -2, -1, 2, 944, 912, 744,N
2025-03-10 12:02:15.925,786, 646, 563, 17, 35, 26, -2, -1, 2, 958, 914, 739,N
2025-03-10 12:02:15.980,768, 604, 250, -1, 17, 9, -3, -1, 4, 953, 910, 752,N
2025-03-10 12:02:16.038,604, 604, 435, -21, -13, -27, -2, -1, 3, 950, 917, 824,N
2025-03-10 12:02:16.091,867, 756, 231, 41, -2, 13, -1, -1, 2, 960, 931, 829,N
2025-03-10 12:02:16.141,401, 522, 269, -27, 21, 29, -2, 0, 4, 958, 929, 802,N
2025-03-10 12:02:16.205,433, 710, 362, 3, -40, -34, -2, -1, 3, 961, 947, 848,N
2025-03-10 12:02:16.258,945, 484, 70, -29, 50, -17, -2, 0, 4, 931, 919, 865,N
2025-03-10 12:02:16.310,532, 633, 697, -29, 46, -11, -1, -1, 2, 920, 870, 819,N
2025-03-10 12:02:16.373,586, 587, 640, 10, -21, 10, -2, 0, 1, 920, 865, 802,N
2025-03-10 12:02:16.741,693, 537, 440, 1, -3, 0, -3, 1, 1, 934, 894, 775,O
2025-03-10 12:02:16.794,690, 569, 424, 3, -4, 1, -1, 0, 3, 933, 895, 777,O
2025-03-10 12:02:16.841,722, 574, 418, 1, -4, 2, -4, -1, 3, 936, 896, 784,O
2025-03-10 12:02:16.901,736, 569, 411, 2, -2, 2, -4, 0, 3, 926, 892, 787,O
2025-03-10 12:02:16.955,688, 560, 463, 11, -5, 5, -3, -1, 3, 939, 902, 818,O
2025-03-10 12:02:17.006,708, 639, 352, 10, -4, -7, -1, 1, 4, 936, 901, 828,O
2025-03-10 12:02:17.061,736, 604, 414, -2, 0, 0, -3, -1, 4, 936, 913, 830,O
2025-03-10 12:02:17.115,754, 633, 477, -6, -13, -15, -1, -1, 3, 932, 911, 795,O
2025-03-10 12:02:17.172,1127, 586, 383, 51, 30, 5, -3, 1, 4, 948, 911, 744,O
2025-03-10 12:02:17.221,895, 989, 190, -27, 35, 45, 0, 0, 5, 955, 932, 799,O
2025-03-10 12:02:17.280,459, 273, 39, -5, -38, -36, -4, 0, 4, 951, 943, 831,O
2025-03-10 12:02:17.338,964, 565, 173, -23, 8, -13, -2, -1, 5, 924, 907, 846,O
2025-03-10 12:02:17.390,596, 678, 612, -31, 56, -19, -1, -2, 3, 926, 860, 784,O
2025-03-10 12:02:17.450,603, 586, 593, 3, -9, 4, -1, -1, 1, 927, 840, 763,O
2025-03-10 12:02:17.504,732, 565, 382, 16, -30, 8, -2, -1, 2, 928, 863, 788,O
2025-03-10 12:02:17.820,709, 581, 401, -2, -2, 1, -2, -1, 3, 921, 882, 806,P
2025-03-10 12:02:17.881,701, 566, 418, 0, -2, 0, -2, 0, 3, 922, 879, 802,P
2025-03-10 12:02:17.931,726, 562, 417, -1, -4, 1, -2, -2, 3, 919, 884, 805,P
2025-03-10 12:02:17.987,718, 594, 400, -3, -3, -1, -1, -1, 3, 913, 880, 803,P
2025-03-10 12:02:18.042,667, 556, 462, -3, -15, -4, -4, -2, 3, 919, 895, 818,P
2025-03-10 12:02:18.093,760, 621, 417, -3, -7, -8, -2, 0, 4, 929, 902, 802,P
2025-03-10 12:02:18.155,824, 585, 497, 35, 28, 25, -1, -1, 4, 943, 908, 787,P
2025-03-10 12:02:18.209,614, 525, 245, 3, 28, 19, -2, -1, 4, 950, 906, 745,P
2025-03-10 12:02:18.260,769, 491, 320, -6, -40, -49, -4, 1, 3, 928, 908, 831,P
2025-03-10 12:02:18.319,782, 561, 596, 25, -30, -2, -2, -2, 6, 954, 944, 874,P
2025-03-10 12:02:18.375,596, 689, 238, -9, 29, 25, -1, -2, 4, 948, 929, 849,P
2025-03-10 12:02:18.430,615, 427, 411, -30, 20, -4, -3, 1, 4, 945, 904, 812,P
2025-03-10 12:02:18.486,709, 563, 424, -31, 40, -35, -2, 0, 3, 940, 899, 795,P
2025-03-10 12:02:18.540,520, 628, 615, -4, -2, -3, -1, -2, 1, 919, 884, 794,P
2025-03-10 12:02:18.860,725, 591, 401, 2, -1, 2, -2, -2, 3, 933, 895, 824,Q
2025-03-10 12:02:18.913,725, 582, 399, 2, 0, 3, -3, -1, 4, 932, 899, 831,Q
2025-03-10 12:02:18.970,717, 569, 415, 4, -4, 4, -4, -2, 5, 935, 898, 835,Q
2025-03-10 12:02:19.019,726, 573, 396, 4, -3, 5, -2, 0, 4, 932, 902, 837,Q
2025-03-10 12:02:19.070,975, 446, 283, 5, -3, -4, -3, 0, 4, 938, 913, 843,Q
2025-03-10 12:02:19.122,798, 586, 356, 0, -7, -22, -3, -2, 5, 934, 922, 819,Q
2025-03-10 12:02:19.180,726, 263, 512, 24, -8, -27, 1, 0, 4, 941, 927, 778,Q
2025-03-10 12:02:19.240,673, 582, 282, -11, 41, 58, -2, -1, 5, 946, 920, 756,Q
2025-03-10 12:02:19.290,665, 563, 784, -26, -9, 9, -3, 0, 3, 951, 938, 804,Q
2025-03-10 12:02:19.340,822, 558, 174, -6, -1, -14, -2, -1, 4, 945, 923, 829,Q
2025-03-10 12:02:19.399,541, 640, 770, 3, -3, -3, -2, 0, 3, 936, 890, 731,Q
2025-03-10 12:02:19.453,754, 832, 65, 7, 1, 36, -4, 1, 4, 950, 934, 789,Q
2025-03-10 12:02:19.505,664, 606, 248, 4, 29, 36, -3, 0, 4, 953, 940, 816,Q
2025-03-10 12:02:19.555,903, 525, 36, -64, 55, -62, -4, 1, 4, 950, 919, 816,Q
2025-03-10 12:02:19.613,559, 687, 792, -31, 22, -32, -1, 0, 0, 929, 880, 759,Q
2025-03-10 12:02:19.670,613, 529, 627, 24, -41, 7, -2, 1, 1, 935, 882, 766,Q
2025-03-10 12:02:19.721,812, 528, 322, 8, -19, 1, -1, 0, 0, 920, 885, 786,Q
2025-03-10 12:02:19.771,719, 579, 458, -5, 1, -8, -3, 0, 1, 924, 877, 782,Q
2025-03-10 12:02:19.830,694, 610, 454, -6, -2, -3, -2, 0, 2, 921, 862, 752,Q
2025-03-10 12:02:20.178,718, 563, 440, 0, -5, 1, -3, -2, 0, 918, 870, 729,R
2025-03-10 12:02:20.231,714, 561, 430, 0, -5, 1, -3, -2, 0, 913, 872, 729,R
2025-03-10 12:02:20.280,706, 564, 411, -3, -2, -1, -4, -1, 1, 928, 878, 738,R
2025-03-10 12:02:20.340,686, 579, 453, -2, -4, -2, -2, 0, 3, 914, 872, 729,R
2025-03-10 12:02:20.390,730, 566, 416, -2, -2, 2, -2, -1, 2, 925, 878, 736,R
2025-03-10 12:02:20.440,714, 570, 438, -2, 1, -2, -4, -1, 3, 915, 869, 729,R
2025-03-10 12:02:20.502,723, 566, 445, 0, -2, 0, -2, 1, 1, 925, 878, 740,R
2025-03-10 12:02:20.554,711, 565, 422, -3, -1, -3, -3, 0, 2, 915, 870, 725,R
2025-03-10 12:02:20.604,650, 560, 497, -2, -12, -2, -2, 1, 2, 924, 888, 729,R
2025-03-10 12:02:20.665,798, 166, -90, -29, -15, -21, -2, 1, 2, 918, 899, 730,R
2025-03-10 12:02:20.721,674, 946, 233, 53, 21, 18, -2, 0, 3, 940, 907, 730,R
2025-03-10 12:02:20.771,733, 603, -49, 19, 24, 20, -4, -1, 5, 951, 914, 637,R
2025-03-10 12:02:20.821,994, 308, 637, 7, -48, -49, -3, 1, 3, 924, 901, 780,R
2025-03-10 12:02:20.886,864, 675, 509, 32, -36, -1, -2, 0, 5, 953, 945, 850,R
2025-03-10 12:02:20.939,414, 785, 169, 4, 19, 20, -2, 0, 6, 952, 929, 830,R
2025-03-10 12:02:20.991,838, 352, 210, -16, 8, -15, -2, -1, 4, 941, 906, 753,R
2025-03-10 12:02:21.050,921, 770, 229, 5, 33, 67, -2, -1, 5, 960, 943, 815,R
2025-03-10 12:02:21.104,834, 542, 303, -21, 27, 10, -4, 0, 5, 943, 925, 843,R
2025-03-10 12:02:21.161,520, 394, 594, -81, 65, -70, -2, -1, 0, 930, 877, 780,R
2025-03-10 12:02:21.587,717, 581, 424, 2, -10, 3, -2, -1, 2, 908, 862, 744,S
2025-03-10 12:02:21.640,715, 576, 413, 1, -9, 3, -3, -1, 2, 904, 866, 745,S
2025-03-10 12:02:21.689,718, 574, 423, 0, -5, 4, -2, -1, 2, 899, 864, 745,S
2025-03-10 12:02:21.740,712, 555, 437, 2, -3, 2, -3, 0, 2, 916, 884, 764,S
2025-03-10 12:02:21.790,730, 587, 427, 13, -8, 10, -3, 0, 3, 899, 872, 769,S
2025-03-10 12:02:21.842,725, 577, 380, 4, -9, 5, -3, 0, 4, 903, 878, 794,S
2025-03-10 12:02:21.902,645, 578, 449, 2, -6, 3, -3, -1, 3, 915, 897, 813,S
2025-03-10 12:02:21.954,669, 503, 509, 9, -6, -14, -3, -1, 3, 914, 903, 780,S
2025-03-10 12:02:22.011,951, 793, 89, 47, 24, 23, -3, -2, 4, 928, 910, 795,S
2025-03-10 12:02:22.062,532, 649, 468, 18, 19, 14, -3, 0, 2, 924, 906, 812,S
2025-03-10 12:02:22.121,1116, 524, 313, -28, 16, 11, -5, -1, 5, 936, 906, 767,S
2025-03-10 12:02:22.180,1142, 349, 110, -52, 54, -45, -3, -1, 3, 917, 838, 740,S
2025-03-10 12:02:22.237,495, 788, 809, -28, 10, -20, 0, 0, -1, 906, 845, 723,S
2025-03-10 12:02:22.291,547, 627, 618, 14, -25, 10, -1, 1, 1, 882, 836, 731,S
2025-03-10 12:02:22.340,735, 521, 452, 12, -32, 12, -2, 1, 2, 870, 831, 743,S
2025-03-10 12:02:22.650,686, 575, 468, -2, -11, 3, -2, 0, 2, 897, 851, 714,T
2025-03-10 12:02:22.704,692, 548, 464, -2, -12, 3, -1, 0, 3, 898, 846, 719,T
2025-03-10 12:02:22.763,705, 577, 431, -3, -10, 1, -2, 0, 3, 913, 862, 732,T
2025-03-10 12:02:22.813,707, 543, 434, -2, -2, -1, -1, -1, 2, 932, 887, 746,T
2025-03-10 12:02:22.869,692, 570, 462, -1, -7, -1, -2, 0, 2, 916, 876, 744,T
2025-03-10 12:02:22.921,697, 554, 447, -1, -8, -2, -3, -1, 2, 922, 887, 752,T
2025-03-10 12:02:22.971,682, 553, 452, -1, -11, -4, -3, -2, 4, 915, 877, 734,T
2025-03-10 12:02:23.037,827, 303, 280, 9, -10, -22, -2, 0, 3, 929, 897, 713,T
2025-03-10 12:02:23.094,989, 1039, 198, 46, -10, 41, -2, -1, 3, 949, 930, 803,T
2025-03-10 12:02:23.140,693, 472, 462, 8, 4, 20, -4, -1, 3, 950, 941, 859,T
2025-03-10 12:02:23.200,696, 441, 320, -28, 14, -24, -3, 1, 4, 942, 917, 838,T
2025-03-10 12:02:23.255,1308, -64, 271, -8, -8, -17, -1, 0, 4, 940, 909, 794,T
2025-03-10 12:02:23.310,603, 625, 489, 0, 29, 34, -2, -2, 4, 955, 927, 782,T
2025-03-10 12:02:23.369,681, 579, 384, -21, 29, 15, -4, -1, 3, 947, 907, 782,T
2025-03-10 12:02:23.421,663, 517, 458, -49, 51, -45, -1, 0, 2, 914, 855, 735,T
2025-03-10 12:02:23.470,502, 576, 747, -12, -8, -7, -2, -1, 1, 896, 845, 720,T
2025-03-10 12:02:23.797,699, 550, 436, -2, -7, -1, -2, 0, 3, 910, 859, 738,U
2025-03-10 12:02:23.852,712, 560, 440, -2, -7, -1, -2, 1, 1, 917, 857, 740,U
2025-03-10 12:02:23.905,731, 567, 398, -5, -2, -1, -2, -2, 3, 907, 858, 735,U
2025-03-10 12:02:23.961,697, 549, 434, -2, -1, 0, -2, -1, 2, 922, 868, 741,U
2025-03-10 12:02:24.014,724, 556, 411, -4, -4, -4, -2, 0, 3, 910, 862, 722,U
2025-03-10 12:02:24.068,712, 569, 437, -11, -7, -6, -2, 0, 2, 917, 870, 709,U
2025-03-10 12:02:24.121,765, 611, 417, -1, -4, -14, -2, 0, 2, 908, 873, 652,U
2025-03-10 12:02:24.171,829, 576, 375, 33, 4, 0, -3, 1, 2, 925, 887, 639,U
2025-03-10 12:02:24.230,986, 1031, 219, 22, 20, 38, -2, -1, 4, 928, 889, 734,U
2025-03-10 12:02:24.286,493, 682, 556, -12, 1, 9, -3, -1, 4, 915, 910, 805,U
2025-03-10 12:02:24.340,705, 469, 525, -20, -20, -16, -4, -1, 5, 923, 922, 838,U
2025-03-10 12:02:24.401,812, 929, 268, 20, 29, 29, -2, 0, 4, 926, 913, 822,U
2025-03-10 12:02:24.454,762, 505, 359, -7, 17, 16, -2, -1, 5, 928, 904, 826,U
2025-03-10 12:02:24.510,654, 541, 480, -53, 39, -46, -2, -1, 3, 904, 884, 804,U
2025-03-10 12:02:24.569,509, 567, 666, -14, -6, -11, -2, -1, 1, 897, 872, 779,U
2025-03-10 12:02:24.900,698, 561, 454, 3, -2, -1, -2, 1, 2, 881, 816, 670,V
2025-03-10 12:02:24.954,689, 561, 435, 3, -2, -1, -2, -1, 2, 867, 805, 665,V
2025-03-10 12:02:25.007,711, 578, 429, 5, -1, -4, -1, -1, 3, 865, 802, 660,V
2025-03-10 12:02:25.060,728, 563, 441, 9, -2, -1, -2, 0, 3, 862, 802, 686,V
2025-03-10 12:02:25.114,714, 583, 393, 6, -2, -1, -2, 0, 3, 880, 819, 728,V
2025-03-10 12:02:25.167,673, 586, 458, 8, -13, -4, -2, -1, 3, 887, 825, 732,V
2025-03-10 12:02:25.221,794, 568, 380, 3, -2, -6, -2, -2, 2, 890, 850, 745,V
2025-03-10 12:02:25.272,694, 550, 432, 3, -1, -6, -3, -1, 4, 892, 876, 753,V
2025-03-10 12:02:25.330,854, 763, 345, 25, 10, 31, -3, -1, 4, 903, 879, 781,V
2025-03-10 12:02:25.385,584, 581, 214, 3, 21, 31, -4, -1, 5, 923, 894, 777,V
2025-03-10 12:02:25.441,507, 147, 754, 10, -47, -21, -4, 0, 5, 935, 919, 799,V
2025-03-10 12:02:25.490,697, 637, 447, -2, -16, -5, -3, -1, 5, 908, 900, 811,V
2025-03-10 12:02:25.554,775, 541, 243, -33, 64, -27, -2, -2, 2, 912, 891, 799,V
2025-03-10 12:02:25.607,518, 587, 629, -14, 17, -7, -1, -1, 2, 919, 880, 772,V
2025-03-10 12:02:25.663,663, 581, 499, 8, -29, 6, -3, -2, 2, 917, 869, 748,V
2025-03-10 12:02:26.022,717, 571, 449, -3, 0, -2, -3, -1, 3, 904, 823, 656,W
2025-03-10 12:02:26.070,717, 572, 454, -4, -1, -2, -3, -2, 3, 916, 829, 655,W
2025-03-10 12:02:26.120,687, 561, 452, 1, -2, -3, -1, -1, 1, 894, 816, 640,W
2025-03-10 12:02:26.180,677, 580, 457, 6, -3, 1, -2, -1, 1, 907, 828, 648,W
2025-03-10 12:02:26.236,758, 583, 373, 4, 1, -1, -2, -1, 3, 905, 836, 657,W
2025-03-10 12:02:26.286,682, 590, 432, 0, -2, -8, -2, -1, 2, 895, 841, 670,W
2025-03-10 12:02:26.341,695, 584, 431, 4, -24, -5, -2, -1, 3, 891, 847, 690,W
2025-03-10 12:02:26.391,732, 541, 552, 20, -5, -9, -1, -2, 3, 919, 890, 723,W
2025-03-10 12:02:26.453,564, 767, 187, 30, 36, 56, -2, -1, 6, 932, 905, 778,W
2025-03-10 12:02:26.510,679, 773, 272, -26, 19, 24, -3, 0, 4, 925, 906, 760,W
2025-03-10 12:02:26.567,662, 545, 637, -13, -25, -15, -4, -1, 3, 919, 921, 805,W
2025-03-10 12:02:26.621,775, 762, 283, 7, 36, 52, -3, 1, 5, 929, 906, 801,W
2025-03-10 12:02:26.670,699, 564, 554, -34, 18, 10, -2, -2, 4, 919, 914, 776,W
2025-03-10 12:02:26.731,839, 504, 482, -3, -4, -3, -3, 0, 4, 939, 923, 852,W
2025-03-10 12:02:26.786,640, 569, 538, -44, 58, -27, -3, 0, 3, 894, 863, 790,W
2025-03-10 12:02:26.840,545, 554, 611, -5, -8, -4, -1, 0, 1, 902, 849, 755,W
2025-03-10 12:02:27.130,690, 553, 458, 4, -10, 3, -2, 0, 4, 916, 869, 721,X
2025-03-10 12:02:27.186,698, 528, 464, 6, -11, 2, -3, 0, 2, 910, 860, 718,X
2025-03-10 12:02:27.236,759, 561, 391, 4, -11, 2, -3, 0, 3, 922, 878, 744,X
2025-03-10 12:02:27.290,745, 557, 398, -5, 2, -2, -1, -1, 2, 914, 881, 751,X
2025-03-10 12:02:27.340,715, 555, 425, -3, -2, -1, -3, 0, 3, 909, 875, 746,X
2025-03-10 12:02:27.391,734, 564, 416, -2, -4, 0, -4, -1, 3, 919, 888, 771,X
2025-03-10 12:02:27.452,677, 552, 450, 9, -10, 6, -3, -1, 2, 916, 893, 784,X
2025-03-10 12:02:27.509,711, 521, 399, -6, -2, -6, -2, -1, 4, 931, 915, 797,X
2025-03-10 12:02:27.563,742, 452, 568, 11, -6, -11, -2, 0, 3, 928, 912, 719,X
2025-03-10 12:02:27.617,724, 938, 346, 6, 30, 8, -3, 0, 2, 943, 906, 311,X
2025-03-10 12:02:27.670,812, 600, 362, -37, 40, 13, -3, -1, 3, 930, 879, 490,X
2025-03-10 12:02:27.720,473, 692, 714, 3, -31, -20, -2, 0, 3, 912, 889, 732,X
2025-03-10 12:02:27.783,769, 690, 419, 42, -15, 8, -2, -1, 5, 961, 932, 779,X
2025-03-10 12:02:27.836,716, 638, 120, -14, 39, 51, -3, 0, 4, 945, 924, 771,X
2025-03-10 12:02:27.890,889, 370, 243, -38, 17, -41, -3, -1, 3, 923, 896, 782,X
2025-03-10 12:02:27.951,629, 566, 681, -45, 23, -49, -1, -1, 0, 907, 855, 598,X
2025-03-10 12:02:28.271,702, 558, 421, -6, -2, -4, -4, 0, 2, 902, 864, 737,Y
2025-03-10 12:02:28.331,702, 560, 433, -4, -2, -3, -3, 0, 2, 902, 868, 738,Y
2025-03-10 12:02:28.385,712, 574, 414, 0, -2, 0, -1, -1, 2, 906, 871, 741,Y
2025-03-10 12:02:28.435,701, 577, 451, -4, -1, -3, -1, 0, 3, 926, 889, 752,Y
2025-03-10 12:02:28.490,725, 570, 405, -6, -3, -4, -2, -1, 2, 917, 881, 723,Y
2025-03-10 12:02:28.540,583, 506, 551, 7, -15, -7, -3, 1, 1, 920, 880, 699,Y
2025-03-10 12:02:28.602,767, 547, 401, -4, -5, -14, -2, 0, 1, 920, 885, 612,Y
2025-03-10 12:02:28.660,917, 1029, 327, 50, 17, 49, -1, -1, 3, 934, 917, 776,Y
2025-03-10 12:02:28.711,655, 311, 445, 12, 20, 20, -3, -1, 4, 954, 936, 849,Y
2025-03-10 12:02:28.770,560, 651, 685, -11, -18, -10, -3, 0, 4, 927, 917, 840,Y
2025-03-10 12:02:28.820,723, 532, 445, 24, -19, -13, -2, 0, 4, 938, 921, 822,Y
2025-03-10 12:02:28.880,762, 337, 455, 19, 29, 17, -4, -1, 3, 951, 910, 724,Y
2025-03-10 12:02:28.936,771, 651, 473, -3, 31, 10, -4, -1, 5, 928, 888, 785,Y
2025-03-10 12:02:28.990,681, 576, 461, -49, 26, -38, -2, 0, 3, 892, 865, 770,Y
2025-03-10 12:02:29.050,478, 585, 677, -24, -3, -5, -1, -2, 1, 902, 878, 767,Y
2025-03-10 12:02:29.380,723, 579, 440, 2, -9, 2, -1, -2, 3, 917, 875, 744,Z
2025-03-10 12:02:29.434,715, 569, 416, 1, -9, 2, -2, -2, 2, 930, 880, 739,Z
2025-03-10 12:02:29.485,724, 581, 416, 0, -5, 0, -2, -1, 0, 916, 873, 741,Z
2025-03-10 12:02:29.540,711, 547, 437, -2, -1, -1, -2, -2, 3, 924, 885, 755,Z
2025-03-10 12:02:29.590,688, 571, 431, -1, -4, -1, -2, -1, 2, 923, 882, 752,Z
2025-03-10 12:02:29.652,751, 207, 226, -12, -12, -18, -2, 0, 4, 924, 888, 694,Z
2025-03-10 12:02:29.703,791, 435, 374, 36, -2, -8, -4, -1, 3, 938, 915, 672,Z
2025-03-10 12:02:29.766,563, 769, 465, 32, -2, 25, -3, -2, 4, 947, 945, 846,Z
2025-03-10 12:02:29.819,393, 718, 302, -10, 31, 10, -3, -1, 4, 964, 926, 806,Z
2025-03-10 12:02:29.870,976, 640, 282, -13, 3, -6, -2, -1, 5, 944, 890, 376,Z
2025-03-10 12:02:29.930,618, 347, 222, 32, 1, 42, -2, -2, 4, 961, 947, 778,Z
2025-03-10 12:02:29.983,639, 657, 569, -23, 3, 4, -4, -2, 6, 948, 933, 831,Z
2025-03-10 12:02:30.041,531, 584, 629, -63, -3, -58, -2, -1, 5, 932, 861, 701,Z
2025-03-10 12:02:30.091,906, 587, 195, 32, -22, 4, -1, -1, 5, 951, 938, 784,Z
2025-03-10 12:02:30.151,736, 730, 212, -14, 17, 33, -2, -3, 6, 958, 946, 839,Z
2025-03-10 12:02:30.203,906, 443, 99, -44, 47, -30, -4, -1, 6, 923, 881, 815,Z
2025-03-10 12:02:30.266,543, 599, 669, -28, 26, -19, -1, -1, 2, 918, 732, 709,Z
2025-03-10 12:02:30.643,714, 565, 426, -2, -2, 2, -2, -1, 4, 911, 797, 674,a
2025-03-10 12:02:30.701,708, 559, 421, -1, -3, 2, -2, 0, 3, 910, 803, 674,a
2025-03-10 12:02:30.754,708, 576, 405, -1, -3, 3, -4, -2, 3, 902, 800, 662,a
2025-03-10 12:02:30.803,732, 557, 411, 3, -2, 7, -3, -1, 3, 917, 820, 669,a
2025-03-10 12:02:30.861,708, 565, 412, 13, -1, 14, -4, 1, 3, 919, 833, 680,a
2025-03-10 12:02:30.917,687, 555, 381, 21, -5, -11, -3, -1, 3, 941, 887, 749,a
2025-03-10 12:02:30.970,905, 530, 522, -5, -6, -14, -4, -1, 6, 918, 895, 727,a
2025-03-10 12:02:31.030,869, 523, 378, 20, -14, -12, -3, -2, 5, 929, 882, 630,a
2025-03-10 12:02:31.085,774, 732, 280, -22, 31, 33, -2, -3, 4, 936, 896, 654,a
2025-03-10 12:02:31.140,612, 485, 619, -3, -33, -19, -6, -1, 5, 946, 929, 788,a
2025-03-10 12:02:31.199,875, 550, 493, 29, -8, -6, -2, -1, 5, 939, 917, 772,a
2025-03-10 12:02:31.253,700, 757, 260, -15, 30, 29, -3, 1, 5, 943, 911, 782,a
2025-03-10 12:02:31.310,683, 556, 417, -37, 37, -33, -4, -1, 3, 935, 901, 799,a
2025-03-10 12:02:31.368,571, 562, 601, -23, -4, -12, -2, -1, 2, 926, 900, 778,a
2025-03-10 12:02:31.630,710, 565, 452, -9, 1, -4, -3, 0, 3, 913, 865, 730,b
2025-03-10 12:02:31.684,692, 573, 456, -9, 0, -4, -2, 1, 2, 917, 868, 739,b
2025-03-10 12:02:31.740,724, 562, 417, -7, -7, -2, -3, -1, 2, 908, 865, 722,b
2025-03-10 12:02:31.790,709, 558, 456, -5, -2, -4, -3, -1, 3, 925, 883, 733,b
2025-03-10 12:02:31.856,653, 556, 462, -1, -14, -3, -2, -1, 3, 922, 877, 718,b
2025-03-10 12:02:31.902,694, 577, 405, -1, -24, -9, -3, 0, 1, 907, 878, 706,b
2025-03-10 12:02:31.966,767, 398, 539, 16, -4, -11, -2, -1, 3, 945, 915, 709,b
2025-03-10 12:02:32.019,903, 497, 537, 47, 43, 44, -1, 0, 4, 939, 902, 699,b
2025-03-10 12:02:32.072,742, 682, 144, 4, 14, 7, -3, -2, 3, 933, 898, 631,b
2025-03-10 12:02:32.126,671, 520, 479, 19, -42, -30, -3, -2, 5, 937, 911, 774,b
2025-03-10 12:02:32.182,590, 652, 427, 14, -8, 2, -2, -2, 5, 956, 934, 816,b
2025-03-10 12:02:32.240,485, 572, 286, -35, 32, 18, -3, 0, 5, 966, 929, 715,b
2025-03-10 12:02:32.290,1243, 210, 255, -22, 20, -31, -3, 0, 3, 927, 848, 593,b
2025-03-10 12:02:32.352,608, 583, 663, -29, 32, -46, -4, -1, 1, 911, 861, 671,b
2025-03-10 12:02:32.408,464, 631, 686, 15, -19, 7, -1, -1, 2, 908, 864, 713,b
2025-03-10 12:02:32.710,733, 559, 414, -10, 1, -2, -2, 1, 3, 928, 869, 703,c
2025-03-10 12:02:32.761,710, 552, 421, -9, 1, -2, -2, 1, 3, 928, 870, 699,c
2025-03-10 12:02:32.818,717, 586, 433, -7, -3, -2, -3, 0, 3, 940, 876, 690,c
2025-03-10 12:02:32.870,718, 563, 426, -5, -1, -2, -1, 0, 1, 932, 881, 688,c
2025-03-10 12:02:32.920,701, 555, 462, 4, -7, 5, -2, -1, 2, 941, 895, 717,c
2025-03-10 12:02:32.980,637, 573, 543, 25, -35, 15, -4, -1, 2, 932, 898, 756,c
2025-03-10 12:02:33.034,562, 429, 467, 2, -8, -22, -3, -1, 3, 951, 928, 640,c
2025-03-10 12:02:33.090,459, 862, 201, 27, 32, 12, -3, -1, 5, 954, 911, 487,c
2025-03-10 12:02:33.140,841, 884, 238, -1, 36, 44, -2, -1, 5, 957, 932, 669,c
2025-03-10 12:02:33.202,950, 286, -21, -32, 40, -47, -3, 0, 3, 959, 940, 813,c
2025-03-10 12:02:33.260,545, 712, 695, -35, 26, -20, -1, -1, 2, 931, 898, 764,c
2025-03-10 12:02:33.310,602, 587, 583, 4, -21, 3, -2, -1, 1, 915, 867, 703,c
2025-03-10 12:02:33.367,741, 537, 375, -1, -16, 4, -2, -1, 1, 920, 857, 664,c
2025-03-10 12:02:33.670,698, 563, 433, 0, -3, 2, -4, 0, 3, 928, 871, 638,d
2025-03-10 12:02:33.723,712, 555, 445, 2, -4, 2, -2, 1, 3, 933, 871, 645,d
2025-03-10 12:02:33.780,731, 557, 435, 8, -8, 4, -2, 0, 2, 937, 883, 691,d
2025-03-10 12:02:33.833,750, 547, 397, 1, -3, 0, -3, -2, 2, 935, 883, 705,d
2025-03-10 12:02:33.884,713, 567, 451, 3, -7, 2, -3, -1, 4, 913, 879, 711,d
2025-03-10 12:02:33.940,745, 570, 377, -3, -1, -12, -4, 0, 3, 901, 873, 640,d
2025-03-10 12:02:33.990,819, 389, 642, 5, -7, -23, -3, -1, 5, 904, 876, 465,d
2025-03-10 12:02:34.050,1089, 954, 57, 19, 35, 31, -4, -1, 4, 906, 875, 365,d
2025-03-10 12:02:34.101,566, 633, 474, -41, -2, 22, -4, -1, 3, 908, 890, 592,d
2025-03-10 12:02:34.165,707, 495, 507, -24, -34, -30, -2, -1, 4, 937, 940, 780,d
2025-03-10 12:02:34.218,796, 908, 120, 24, 23, 12, -2, 0, 5, 953, 929, 773,d
2025-03-10 12:02:34.270,786, 618, 97, -2, 31, 26, -4, -1, 5, 942, 926, 724,d
2025-03-10 12:02:34.320,885, 474, 122, -43, 34, -42, -4, -1, 3, 935, 908, 770,d
2025-03-10 12:02:34.384,524, 650, 709, -24, 10, -13, -1, 1, 2, 912, 889, 736,d
2025-03-10 12:02:34.720,734, 552, 400, -5, -2, -2, -3, -1, 2, 945, 889, 615,e
2025-03-10 12:02:34.772,734, 546, 404, -5, -1, -2, -3, -1, 2, 924, 877, 597,e
2025-03-10 12:02:34.820,722, 558, 444, -2, -1, -1, -2, -1, 2, 918, 866, 562,e
2025-03-10 12:02:34.885,708, 565, 437, -3, 0, -1, -2, -1, 1, 940, 874, 557,e
2025-03-10 12:02:34.934,757, 501, 516, 15, -7, -17, -3, 0, 3, 926, 879, 506,e
2025-03-10 12:02:34.990,842, 903, 477, -7, 7, 24, -3, 1, 4, 958, 926, 721,e
2025-03-10 12:02:35.041,656, 521, 513, -17, 0, -1, -2, 0, 3, 932, 915, 742,e
2025-03-10 12:02:35.101,770, 572, 412, -13, -5, -16, -3, -1, 3, 934, 916, 667,e
2025-03-10 12:02:35.161,784, 1110, -71, 31, 15, 24, -1, 0, 4, 946, 912, 430,e
2025-03-10 12:02:35.211,695, 196, 354, -6, 26, 26, -2, -2, 4, 949, 932, 641,e
2025-03-10 12:02:35.271,893, 311, 344, -17, 6, -15, -3, -1, 4, 947, 920, 788,e
2025-03-10 12:02:35.320,600, 570, 749, -47, 27, -33, -2, -1, 2, 903, 866, 667,e
2025-03-10 12:02:35.380,580, 548, 555, 6, -20, 5, -2, 0, 1, 890, 838, 566,e
2025-03-10 12:02:35.711,749, 554, 403, -3, 0, 3, -2, 0, 4, 913, 839, 552,f
2025-03-10 12:02:35.761,736, 546, 422, -3, 1, 3, -3, 1, 3, 920, 841, 551,f
2025-03-10 12:02:35.816,709, 534, 462, -3, -1, 1, -4, 0, 3, 932, 859, 561,f
2025-03-10 12:02:35.869,697, 552, 487, 6, -12, 9, -3, 0, 2, 918, 855, 539,f
2025-03-10 12:02:35.920,730, 583, 342, -11, 8, -3, -3, 1, 2, 930, 888, 473,f
2025-03-10 12:02:35.980,729, 365, 648, 11, -26, -42, -4, 0, 3, 941, 925, 576,f
2025-03-10 12:02:36.032,741, 510, 354, 4, -33, -7, -4, 0, 3, 944, 943, 774,f
2025-03-10 12:02:36.086,583, 430, 280, 14, 0, 13, -3, -1, 5, 931, 925, 810,f
2025-03-10 12:02:36.140,776, 349, 278, -19, 37, -47, -2, -1, 4, 935, 913, 779,f
2025-03-10 12:02:36.201,656, 644, 723, 27, -54, 36, -1, -1, 3, 935, 901, 669,f
2025-03-10 12:02:36.254,858, 438, 209, 15, 8, 23, -1, -2, 3, 945, 934, 798,f
2025-03-10 12:02:36.302,685, 621, 521, -4, 5, 13, -3, 1, 4, 948, 929, 838,f
2025-03-10 12:02:36.365,678, 549, 368, -48, 55, -30, -2, -2, 3, 923, 886, 790,f
2025-03-10 12:02:36.412,513, 564, 649, 1, -9, 9, -2, 0, 3, 927, 877, 744,f
2025-03-10 12:02:36.721,715, 573, 430, 2, -11, 2, 0, 0, 3, 933, 889, 782,g
2025-03-10 12:02:36.784,714, 559, 420, 0, -12, 2, -4, -1, 4, 933, 896, 773,g
2025-03-10 12:02:36.838,682, 531, 354, 2, -5, -13, -2, -1, 5, 929, 900, 729,g
2025-03-10 12:02:36.898,480, 640, 446, -16, -4, -16, -2, -1, 4, 940, 912, 537,g
2025-03-10 12:02:36.950,868, 694, 207, 30, 16, 9, -3, -2, 4, 950, 903, 522,g
2025-03-10 12:02:37.006,628, 572, 516, -10, 21, 30, -3, -1, 3, 939, 915, 695,g
2025-03-10 12:02:37.065,798, 514, 523, 0, -34, -26, -4, -1, 4, 939, 919, 795,g
2025-03-10 12:02:37.117,724, 676, 441, 26, -7, -7, -2, -2, 4, 941, 923, 819,g
2025-03-10 12:02:37.171,385, 858, 233, -18, 41, 39, -3, -1, 5, 951, 914, 648,g
2025-03-10 12:02:37.222,655, 431, 583, -59, 16, -11, -2, 0, 4, 917, 812, 337,g
2025-03-10 12:02:37.285,600, 428, 427, -40, 72, -61, 1, 0, 1, 823, 790, 430,g
2025-03-10 12:02:37.340,372, 643, 698, -5, -26, 1, 0, 0, -1, 821, 802, 590,g
2025-03-10 12:02:37.390,685, 603, 467, 15, -30, 14, 1, -1, 1, 849, 788, 647,g
2025-03-10 12:02:37.450,740, 528, 379, -3, -4, -6, -1, 0, 1, 845, 759, 623,g
2025-03-10 12:02:37.850,686, 561, 461, -1, -2, 2, 0, 0, -1, 873, 787, 514,h
2025-03-10 12:02:37.902,695, 552, 470, -1, -2, 1, 0, 0, -1, 875, 794, 523,h
2025-03-10 12:02:37.952,686, 561, 483, -2, -2, 1, -2, 0, 1, 867, 803, 543,h
2025-03-10 12:02:38.016,693, 560, 464, -3, -4, 1, -1, -1, -1, 871, 810, 550,h
2025-03-10 12:02:38.068,691, 560, 485, -7, -3, -1, -1, -1, 0, 881, 807, 526,h
2025-03-10 12:02:38.120,672, 556, 475, 3, -11, 3, -2, -1, 0, 877, 811, 510,h
2025-03-10 12:02:38.170,731, 531, 420, 3, -11, 2, -3, 2, 1, 886, 834, 574,h
2025-03-10 12:02:38.232,701, 569, 451, 0, -5, -2, -2, -1, 1, 886, 848, 602,h
2025-03-10 12:02:38.285,709, 515, 505, 10, -26, 5, -2, 0, 2, 916, 888, 632,h
2025-03-10 12:02:38.335,635, 686, 449, 47, 19, 15, -4, 0, 2, 942, 900, 698,h
2025-03-10 12:02:38.390,626, 625, 194, 4, 28, 28, -4, -1, 3, 965, 895, 492,h
2025-03-10 12:02:38.449,790, 330, 735, -4, -27, -8, -4, 1, 5, 945, 901, 609,h
2025-03-10 12:02:38.501,663, 517, 668, 17, -11, -3, -3, 1, 4, 957, 926, 765,h
2025-03-10 12:02:38.561,786, 566, 367, -13, 24, 22, -2, -1, 3, 951, 919, 744,h
2025-03-10 12:02:38.614,794, 315, 464, -9, 4, -12, -4, 0, 2, 945, 902, 785,h
2025-03-10 12:02:38.670,727, 581, 495, -27, 19, -28, -3, 1, 2, 928, 881, 753,h
2025-03-10 12:02:38.720,610, 583, 570, -15, 5, -5, -2, -2, 1, 903, 841, 679,h
2025-03-10 12:02:39.012,712, 551, 434, -2, 0, -1, -5, -1, 2, 929, 861, 691,i
2025-03-10 12:02:39.065,706, 540, 451, -2, 0, -1, -1, -1, 2, 934, 861, 688,i
2025-03-10 12:02:39.120,726, 526, 479, 1, -8, 1, -4, 0, 1, 930, 864, 690,i
2025-03-10 12:02:39.170,695, 532, 467, 6, -16, 0, -4, 0, 3, 935, 889, 715,i
2025-03-10 12:02:39.223,745, 493, 594, 10, -6, -8, -3, 0, 2, 948, 914, 668,i
2025-03-10 12:02:39.281,826, 749, 337, 4, 25, 23, -3, 0, 3, 959, 913, 512,i
2025-03-10 12:02:39.335,781, 359, 720, -22, 1, -13, -3, 0, 3, 948, 900, 683,i
2025-03-10 12:02:39.391,382, 653, 1070, -8, -67, -13, -2, 0, 2, 937, 918, 742,i
2025-03-10 12:02:39.449,750, 552, -115, 19, -5, -4, -2, 0, 3, 951, 937, 738,i
2025-03-10 12:02:39.500,823, 327, 451, -20, 27, 20, -3, 0, 3, 947, 917, 805,i
2025-03-10 12:02:39.550,689, 591, 472, -27, 65, -28, -2, 0, 1, 945, 903, 748,i
2025-03-10 12:02:39.610,451, 570, 756, -5, 3, 0, -2, 0, -2, 924, 885, 688,i
2025-03-10 12:02:39.670,647, 519, 523, 27, -42, 19, -1, -1, 0, 919, 880, 693,i
2025-03-10 12:02:40.110,721, 545, 450, 7, -5, 7, -2, 0, 2, 932, 888, 674,j
2025-03-10 12:02:40.170,731, 541, 448, 6, -5, 7, -4, 0, 2, 939, 883, 675,j
2025-03-10 12:02:40.220,750, 542, 402, 0, 3, 1, -3, 1, 1, 934, 886, 667,j
2025-03-10 12:02:40.270,710, 551, 467, -2, 2, -2, -2, 1, 2, 923, 869, 628,j
2025-03-10 12:02:40.320,718, 529, 475, 3, -2, -1, -2, 0, 3, 926, 867, 632,j
2025-03-10 12:02:40.372,725, 554, 425, 1, -2, 0, -2, 1, 2, 918, 862, 653,j
2025-03-10 12:02:40.432,674, 542, 516, 4, -14, 0, -4, -1, 2, 924, 870, 682,j
2025-03-10 12:02:40.485,779, 726, 370, 25, -9, -7, -2, 0, 3, 942, 900, 703,j
2025-03-10 12:02:40.535,438, 690, 333, 6, 34, 45, -2, 0, 4, 952, 911, 494,j
2025-03-10 12:02:40.590,561, 547, -3, -75, 29, 12, -5, 1, 2, 955, 904, 10,j
2025-03-10 12:02:40.649,729, 580, 23, -65, 7, -95, -2, 0, 2, 938, 906, 327,j
2025-03-10 12:02:40.701,1219, -576, 17, 53, -44, -49, -3, 1, 2, 955, 941, 708,j
2025-03-10 12:02:40.761,930, 807, 407, -9, 36, 24, -2, -2, 3, 952, 929, 744,j
2025-03-10 12:02:40.817,757, 506, 151, -37, 73, -25, -4, 0, 2, 951, 909, 710,j
2025-03-10 12:02:40.870,467, 586, 715, -25, 29, -3, -1, 0, 1, 926, 885, 633,j
2025-03-10 12:02:41.180,736, 570, 388, 2, -2, 5, -3, -2, 3, 933, 881, 673,k
2025-03-10 12:02:41.237,740, 553, 383, 0, -1, 3, -2, -1, 4, 944, 882, 676,k
2025-03-10 12:02:41.297,702, 547, 476, -5, -3, -2, -2, -1, 3, 928, 874, 680,k
2025-03-10 12:02:41.350,697, 546, 412, 1, -15, 2, -2, 0, 2, 934, 881, 706,k
2025-03-10 12:02:41.400,717, 518, 388, -8, 1, -9, -2, -1, 2, 932, 891, 653,k
2025-03-10 12:02:41.452,715, 503, 505, 6, -7, -7, -2, -2, 3, 943, 908, 602,k
2025-03-10 12:02:41.510,537, 673, 477, 8, 20, 10, -3, 1, 3, 954, 890, 422,k
2025-03-10 12:02:41.560,754, 540, 276, 17, 16, 7, -3, 0, 3, 954, 902, 301,k
2025-03-10 12:02:41.614,644, 508, 267, 0, -21, -3, -3, -1, 2, 957, 950, 764,k
2025-03-10 12:02:41.673,722, 582, 553, -18, -9, 2, -4, -1, 3, 940, 915, 788,k
2025-03-10 12:02:41.730,484, 496, 581, -42, 28, -28, -3, 0, 2, 930, 772, 379,k
2025-03-10 12:02:41.783,912, 874, 194, 48, -4, 17, -2, -1, 3, 953, 917, 670,k
2025-03-10 12:02:41.834,522, 403, 267, 2, 28, 37, -3, 1, 4, 952, 937, 798,k
2025-03-10 12:02:41.890,866, 476, 104, -62, 58, -51, -5, -1, 3, 927, 837, 772,k
2025-03-10 12:02:41.947,558, 589, 806, -28, 5, -22, -3, 1, 1, 895, 661, 603,k
2025-03-10 12:02:42.171,725, 530, 403, -8, 2, 2, -1, -1, 2, 870, 608, 569,l
2025-03-10 12:02:42.221,726, 518, 431, -7, 2, 0, -2, 0, 3, 869, 600, 536,l
2025-03-10 12:02:42.271,716, 541, 481, 1, -2, 0, -3, -2, 2, 883, 633, 533,l
2025-03-10 12:02:42.332,741, 541, 436, -2, 1, -3, -2, -1, 2, 897, 652, 560,l
2025-03-10 12:02:42.382,720, 529, 431, 1, 0, -1, -4, 0, 1, 890, 680, 586,l
2025-03-10 12:02:42.432,715, 546, 470, 0, 1, -1, -1, 1, 2, 896, 705, 610,l
2025-03-10 12:02:42.482,732, 552, 420, -5, 2, -1, -3, 0, 1, 876, 703, 568,l
2025-03-10 12:02:42.540,707, 534, 478, -1, -2, 0, -2, -1, 2, 887, 714, 561,l
2025-03-10 12:02:42.598,739, 539, 424, -3, 0, -2, -2, -1, 1, 887, 725, 560,l
2025-03-10 12:02:42.650,707, 544, 465, -1, -3, -1, -2, 0, 1, 889, 735, 564,l
2025-03-10 12:02:42.702,717, 544, 433, -4, -1, -5, -3, 0, 1, 884, 762, 570,l
2025-03-10 12:02:42.756,608, 534, 504, 2, -17, -11, -4, 1, 1, 876, 784, 570,l
2025-03-10 12:02:42.815,2051, 149, -167, -10, -9, -18, -3, 0, 1, 915, 883, 650,l
2025-03-10 12:02:42.875,718, 529, 570, 26, -16, -13, -3, -2, 3, 941, 915, 685,l
2025-03-10 12:02:42.930,324, 377, 462, 48, 28, 18, -2, -1, 3, 959, 906, 556,l
2025-03-10 12:02:42.983,748, 628, 349, 0, 15, 7, -3, -1, 5, 951, 897, 480,l
2025-03-10 12:02:43.032,815, 642, 355, -13, 5, 8, -4, 0, 5, 943, 874, 614,l
2025-03-10 12:02:43.090,590, 536, 435, -39, 32, -26, -2, -1, 3, 926, 866, 617,l
2025-03-10 12:02:43.147,649, 536, 415, 11, -19, 16, -4, 0, 3, 931, 879, 685,l
2025-03-10 12:02:43.205,797, 574, 324, -2, -4, 1, -5, -1, 4, 939, 883, 712,l
2025-03-10 12:02:43.257,714, 576, 453, -6, 4, -4, -3, -1, 2, 924, 860, 694,l
2025-03-10 12:02:43.310,741, 561, 424, -4, -1, -1, -3, 0, 3, 929, 865, 690,l
2025-03-10 12:02:43.364,725, 570, 437, -7, 0, 0, -2, 0, 2, 908, 842, 664,l
2025-03-10 12:02:44.160,722, 552, 422, 0, -1, 0, -3, 1, 3, 909, 824, 550,m
2025-03-10 12:02:44.210,715, 559, 418, 0, -1, 0, -3, -1, 0, 902, 818, 549,m
2025-03-10 12:02:44.265,731, 544, 421, 0, -3, 0, -2, 0, 2, 900, 827, 575,m
2025-03-10 12:02:44.316,723, 541, 436, 0, -2, 0, -4, 2, 3, 908, 844, 591,m
2025-03-10 12:02:44.366,696, 536, 475, 6, -7, 1, -3, 0, 3, 912, 843, 593,m
2025-03-10 12:02:44.420,765, 560, 370, 1, -5, 0, -3, -1, 2, 915, 854, 603,m
2025-03-10 12:02:44.470,713, 548, 420, -5, -3, -1, -4, 1, 2, 916, 863, 594,m
2025-03-10 12:02:44.532,751, 535, 435, 3, -3, -9, -3, -2, 3, 910, 876, 532,m
2025-03-10 12:02:44.583,750, 577, 458, 16, -1, 0, -2, -1, 4, 933, 902, 581,m
2025-03-10 12:02:44.633,660, 464, 356, 3, 10, 12, -3, 1, 5, 928, 885, 423,m
2025-03-10 12:02:44.690,755, 481, 625, -3, 1, 2, -4, 0, 2, 951, 910, 518,m
2025-03-10 12:02:44.749,730, 557, 426, -1, -22, -18, -4, -1, 4, 925, 909, 661,m
2025-03-10 12:02:44.800,715, 544, 479, 10, -10, -4, -2, 0, 3, 925, 918, 706,m
2025-03-10 12:02:44.850,768, 678, 356, 3, 23, 22, -2, -1, 3, 927, 900, 683,m
2025-03-10 12:02:44.913,734, 611, 280, -11, 15, 13, -3, 1, 3, 929, 894, 600,m
2025-03-10 12:02:44.965,731, 526, 470, -1, 1, -4, -3, -1, 5, 936, 917, 613,m
2025-03-10 12:02:45.021,716, 457, 532, 10, -26, -10, -3, -1, 4, 930, 916, 718,m
2025-03-10 12:02:45.074,747, 526, 331, 10, -3, 11, -4, -2, 4, 935, 923, 758,m
2025-03-10 12:02:45.132,732, 382, 567, -4, 12, 12, -3, -2, 5, 959, 938, 712,m
2025-03-10 12:02:45.182,860, 403, 577, 4, 5, -6, -3, 1, 5, 941, 915, 762,m
2025-03-10 12:02:45.240,773, 527, 355, -57, 71, -50, -4, 1, 2, 912, 869, 738,m
2025-03-10 12:02:45.298,460, 556, 676, -33, 26, -15, 0, -1, 0, 908, 787, 611,m
2025-03-10 12:02:45.350,638, 544, 561, 12, -24, 14, -1, 0, 1, 877, 618, 524,m
2025-03-10 12:02:45.407,724, 539, 416, 5, -12, -2, -2, -1, 0, 897, 630, 545,m
2025-03-10 12:02:45.731,686, 536, 465, 0, -4, 1, -3, -1, 1, 902, 720, 535,n
2025-03-10 12:02:45.790,687, 529, 462, 2, -6, 1, -4, 0, 2, 897, 723, 542,n
2025-03-10 12:02:45.842,706, 551, 442, 3, -11, 1, -2, -1, 2, 905, 746, 552,n
2025-03-10 12:02:45.896,742, 552, 391, 1, -4, 0, -3, -1, 1, 908, 775, 590,n
2025-03-10 12:02:45.947,719, 563, 441, 1, -3, -1, -2, 0, 4, 904, 781, 590,n
2025-03-10 12:02:46.000,713, 543, 429, 4, -9, 0, -2, 0, 3, 915, 807, 618,n
2025-03-10 12:02:46.051,701, 557, 457, 7, -17, 3, -3, -1, 2, 933, 859, 649,n
2025-03-10 12:02:46.106,754, 499, 431, 12, 1, -7, -2, -2, 2, 934, 880, 645,n
2025-03-10 12:02:46.162,584, 739, 239, 0, 27, 27, -2, -1, 5, 961, 902, 506,n
2025-03-10 12:02:46.219,815, 665, 436, -10, -2, 4, -2, -1, 3, 944, 904, 448,n
2025-03-10 12:02:46.270,787, 523, 530, 13, -17, -11, -2, -1, 4, 943, 932, 696,n
2025-03-10 12:02:46.330,670, 994, 192, -10, 36, 36, -3, -1, 4, 970, 939, 678,n
2025-03-10 12:02:46.382,875, 303, 399, -24, 28, -12, -4, 0, 4, 949, 910, 739,n
2025-03-10 12:02:46.440,726, 553, 590, -41, 23, -37, -3, -1, 2, 928, 877, 682,n
2025-03-10 12:02:46.500,579, 561, 594, -11, -4, -13, -1, -1, 0, 917, 862, 603,n
2025-03-10 12:02:46.870,716, 551, 432, -3, -1, 0, -3, -1, 0, 915, 839, 469,o
2025-03-10 12:02:46.920,707, 540, 454, -2, -1, 0, -3, 0, 2, 931, 851, 473,o
2025-03-10 12:02:46.973,732, 547, 463, -1, 0, 1, -2, 0, 3, 928, 856, 480,o
2025-03-10 12:02:47.020,714, 529, 469, -1, 0, 1, -2, 0, 2, 922, 846, 479,o
2025-03-10 12:02:47.080,726, 543, 440, 0, -2, 2, -2, 0, 0, 918, 851, 485,o
2025-03-10 12:02:47.129,691, 538, 479, 3, -4, 4, -2, 0, 1, 936, 871, 513,o
2025-03-10 12:02:47.181,700, 512, 492, 11, -14, 6, -4, 0, 1, 932, 870, 534,o
2025-03-10 12:02:47.232,770, 544, 379, 15, -8, 7, -3, 1, 3, 942, 892, 622,o
2025-03-10 12:02:47.290,727, 539, 421, 14, -5, 7, -5, 1, 3, 928, 891, 683,o
2025-03-10 12:02:47.346,753, 534, 396, -4, -4, -8, -4, -2, 4, 938, 920, 659,o
2025-03-10 12:02:47.398,929, 533, 572, 9, -8, -17, -4, -2, 2, 934, 916, 579,o
2025-03-10 12:02:47.456,1056, 776, -76, 33, 44, 39, -2, -2, 3, 953, 919, 529,o
2025-03-10 12:02:47.513,736, 449, 687, -23, 10, 21, -3, 1, 4, 949, 934, 673,o
2025-03-10 12:02:47.570,634, 585, 299, 12, -22, -24, -4, -1, 4, 925, 914, 783,o
2025-03-10 12:02:47.620,758, 545, 292, -35, 42, -23, -2, -1, 2, 908, 863, 757,o
2025-03-10 12:02:47.670,587, 554, 566, -4, 7, 9, -2, 0, 1, 910, 807, 687,o
2025-03-10 12:02:48.001,724, 555, 431, -1, -3, 1, -1, -1, 2, 902, 821, 606,p
2025-03-10 12:02:48.050,721, 547, 425, 0, -3, 1, -2, -1, 1, 902, 818, 604,p
2025-03-10 12:02:48.108,713, 545, 440, -1, -2, 0, -3, -1, 3, 904, 823, 608,p
2025-03-10 12:02:48.160,729, 539, 420, -2, -1, 0, -2, -1, 2, 922, 833, 616,p
2025-03-10 12:02:48.214,717, 563, 436, -2, -3, 1, -3, 1, 2, 911, 836, 634,p
2025-03-10 12:02:48.264,726, 553, 446, 1, -6, 4, -4, 0, 2, 929, 862, 663,p
2025-03-10 12:02:48.320,728, 551, 409, 0, -4, 4, -3, -1, 3, 928, 865, 662,p
2025-03-10 12:02:48.371,716, 546, 405, 1, -4, 2, -3, -1, 2, 921, 873, 681,p
2025-03-10 12:02:48.422,728, 534, 422, 0, -8, -1, -3, 0, 3, 931, 892, 703,p
2025-03-10 12:02:48.480,880, 397, 241, -13, -7, -15, -4, 1, 2, 932, 909, 693,p
2025-03-10 12:02:48.531,748, 416, 488, 22, -6, -8, -2, -1, 3, 936, 915, 654,p
2025-03-10 12:02:48.590,951, 526, 355, 20, 29, 31, -3, -2, 3, 953, 917, 434,p
2025-03-10 12:02:48.648,749, 203, 782, -13, -12, -22, -5, 0, 6, 947, 919, 667,p
2025-03-10 12:02:48.700,886, 516, 413, 7, -31, -16, -3, 0, 3, 948, 940, 808,p
2025-03-10 12:02:48.752,747, 698, 82, 10, 5, 12, -4, 0, 5, 958, 938, 793,p
2025-03-10 12:02:48.812,815, 544, 257, -31, 34, 16, -4, -1, 6, 940, 901, 697,p
2025-03-10 12:02:48.864,758, 507, 354, -42, 50, -38, -3, 1, 2, 943, 891, 693,p
2025-03-10 12:02:49.230,704, 544, 458, 6, -6, 5, -3, -1, 1, 932, 879, 669,q
2025-03-10 12:02:49.281,718, 539, 456, 5, -7, 4, -4, -1, 3, 923, 874, 670,q
2025-03-10 12:02:49.340,712, 569, 433, 6, -6, 5, -2, -1, 1, 934, 888, 705,q
2025-03-10 12:02:49.390,767, 531, 373, 4, -2, 3, -3, -1, 2, 934, 898, 722,q
2025-03-10 12:02:49.447,723, 563, 445, 4, -2, 4, -4, -1, 3, 934, 900, 721,q
2025-03-10 12:02:49.500,751, 537, 403, 12, -6, 7, -3, -1, 4, 949, 919, 759,q
2025-03-10 12:02:49.556,803, 509, 436, 8, -10, -6, -4, 1, 2, 937, 927, 758,q
2025-03-10 12:02:49.611,764, 533, 402, 1, -7, -13, -3, -1, 4, 942, 935, 715,q
2025-03-10 12:02:49.665,833, 507, 269, 55, 11, -13, -3, -2, 4, 947, 923, 684,q
2025-03-10 12:02:49.720,825, 563, 210, -9, 41, 34, -4, -1, 6, 946, 924, 700,q
2025-03-10 12:02:49.778,627, 416, 608, -4, -26, -23, -2, -1, 4, 951, 938, 806,q
2025-03-10 12:02:49.830,638, 777, 105, 15, 5, 3, -4, -1, 5, 948, 927, 797,q
2025-03-10 12:02:49.880,747, 540, 419, -41, 37, 24, -4, 0, 4, 951, 920, 614,q
2025-03-10 12:02:49.936,719, 415, 742, 6, 3, -7, -4, 0, 3, 934, 911, 667,q
2025-03-10 12:02:49.996,722, 588, 391, 6, -13, -11, -6, 0, 3, 952, 932, 762,q
2025-03-10 12:02:50.047,881, 577, 203, -16, 9, -1, -5, 0, 5, 936, 900, 767,q
2025-03-10 12:02:50.106,664, 535, 581, -31, 34, -22, -2, 0, 2, 941, 894, 728,q
2025-03-10 12:02:50.155,628, 553, 599, 4, -6, -9, -2, 0, 2, 929, 881, 753,q
2025-03-10 12:02:50.206,722, 554, 439, 2, -14, 2, -3, 0, 1, 918, 854, 746,q
2025-03-10 12:02:50.264,741, 561, 413, -10, 0, -7, -2, -1, 2, 929, 841, 729,q
2025-03-10 12:02:50.314,695, 553, 486, -4, -1, -3, -2, -1, 1, 911, 828, 706,q
2025-03-10 12:02:51.150,377, 816, 452, -27, 21, -27, 10, -2, -2, 879, 641, 405,r
2025-03-10 12:02:51.200,354, 849, 434, -35, 23, -19, 10, -3, -3, 872, 638, 407,r
2025-03-10 12:02:51.266,253, 827, 358, -88, 25, 44, 9, -2, -4, 886, 651, 459,r
2025-03-10 12:02:51.318,443, 451, 770, -97, 11, 161, 8, 1, -8, 882, 640, 487,r
2025-03-10 12:02:51.370,657, 422, 859, -47, -19, 61, 7, 2, -10, 884, 670, 487,r
2025-03-10 12:02:51.430,642, 334, 795, 19, -6, 2, 3, 4, -11, 847, 623, 554,r
2025-03-10 12:02:51.481,534, 561, 627, -7, 0, 7, 5, 5, -12, 841, 620, 630,r
2025-03-10 12:02:51.532,631, 495, 685, 10, -1, 5, 4, 4, -9, 821, 652, 655,r
2025-03-10 12:02:51.590,569, 452, 767, -2, 19, 1, 3, 4, -9, 835, 718, 636,r
2025-03-10 12:02:51.647,454, 554, 744, 27, -20, 49, 4, 3, -9, 834, 739, 548,r
2025-03-10 12:02:51.700,570, 328, 768, 51, -97, 6, 1, 1, -8, 862, 758, 506,r
2025-03-10 12:02:51.750,659, 457, 493, 62, -84, 40, -1, 2, -5, 881, 736, 585,r
2025-03-10 12:02:51.810,688, 681, 341, 59, 17, -6, -2, 2, -1, 893, 779, 675,r
2025-03-10 12:02:51.864,715, 490, 766, 53, -49, 19, -1, 0, -1, 915, 824, 720,r
2025-03-10 12:02:51.920,700, 516, 271, 15, -20, -2, -3, -1, 2, 916, 859, 734,r
2025-03-10 12:02:51.978,745, 555, 486, -11, -6, -19, -4, -1, 2, 930, 893, 727,r
2025-03-10 12:02:52.031,706, 806, 334, 55, 19, 5, -2, -1, 5, 951, 899, 721,r
2025-03-10 12:02:52.081,841, 729, 9, -17, 23, 21, -4, -3, 4, 951, 881, 549,r
2025-03-10 12:02:52.145,758, 171, 736, -15, -47, -39, -1, 0, 3, 945, 922, 665,r
2025-03-10 12:02:52.195,836, 912, 63, 9, 2, 22, -2, -1, 3, 951, 938, 791,r
2025-03-10 12:02:52.252,886, 427, 231, -42, 59, -24, -2, 0, 2, 947, 905, 778,r
2025-03-10 12:02:52.310,509, 608, 793, -23, 18, -5, -1, -1, -2, 929, 869, 710,r
2025-03-10 12:02:52.711,695, 542, 476, -5, -5, 0, 0, -1, 0, 928, 844, 535,s
2025-03-10 12:02:52.762,686, 557, 464, -4, -5, 1, -2, 1, 1, 932, 845, 535,s
2025-03-10 12:02:52.817,724, 526, 427, -4, -5, 1, -1, 0, 2, 930, 862, 574,s
2025-03-10 12:02:52.870,698, 545, 457, 5, -5, 7, -3, 1, 0, 942, 883, 650,s
2025-03-10 12:02:52.924,645, 536, 540, 8, -22, 6, -2, 1, 2, 935, 889, 681,s
2025-03-10 12:02:52.977,892, 571, 431, -13, -3, -9, -3, 0, 2, 947, 911, 558,s
2025-03-10 12:02:53.030,832, 334, 410, 26, -1, -14, -3, 1, 2, 949, 898, 446,s
2025-03-10 12:02:53.080,724, 640, 308, 8, 33, 24, -4, 1, 3, 955, 912, 570,s
2025-03-10 12:02:53.140,697, 755, 454, -27, 16, 22, -4, 0, 2, 956, 901, 475,s
2025-03-10 12:02:53.195,762, 424, 395, -4, 13, -8, -2, 2, 1, 940, 817, 286,s
2025-03-10 12:02:53.250,741, 476, 285, -46, 61, -30, -2, 0, 0, 908, 808, 362,s
2025-03-10 12:02:53.305,487, 612, 725, -9, 5, -1, -1, 1, -1, 914, 805, 454,s
2025-03-10 12:02:53.622,709, 542, 447, -2, -10, -5, -3, 0, 1, 903, 858, 574,t
2025-03-10 12:02:53.680,683, 545, 469, 0, -12, -5, -2, 0, 1, 907, 863, 595,t
2025-03-10 12:02:53.733,687, 505, 469, 9, -31, -2, -2, 0, 1, 920, 891, 655,t
2025-03-10 12:02:53.791,717, 539, 567, 15, -9, -15, -2, -1, 1, 931, 899, 564,t
2025-03-10 12:02:53.846,369, 958, 130, 64, 49, 32, -1, 0, 3, 947, 894, 430,t
2025-03-10 12:02:53.899,869, 693, 367, -7, 38, 35, -2, 0, 4, 953, 912, 657,t
2025-03-10 12:02:53.951,746, 278, 420, -33, -5, -33, -3, -1, 3, 938, 906, 770,t
2025-03-10 12:02:54.014,418, 654, 790, -31, -19, -29, 0, 0, 2, 933, 875, 645,t
2025-03-10 12:02:54.070,811, 1143, 435, 43, -27, -18, 0, -1, 2, 942, 899, 532,t
2025-03-10 12:02:54.124,587, 519, 422, -10, 9, 43, -2, -2, 2, 951, 942, 747,t
2025-03-10 12:02:54.182,760, 583, 454, -11, 10, 5, -3, -1, 2, 945, 932, 810,t
2025-03-10 12:02:54.232,677, 515, 584, -79, 59, -43, -3, 0, 1, 930, 871, 664,t
2025-03-10 12:02:54.654,669, 566, 490, 1, -6, 4, -1, 1, 1, 916, 809, 540,u
2025-03-10 12:02:54.710,674, 561, 488, 3, -7, 5, -2, 2, 0, 913, 807, 533,u
2025-03-10 12:02:54.763,712, 533, 437, 5, -7, 6, -1, -2, 0, 905, 805, 531,u
2025-03-10 12:02:54.812,702, 563, 452, 3, -4, 4, -1, 0, 1, 913, 812, 527,u
2025-03-10 12:02:54.863,674, 548, 483, 4, -14, -1, -1, 1, 1, 913, 824, 537,u
2025-03-10 12:02:54.920,756, 537, 456, -7, -3, -19, -2, 0, 2, 932, 871, 375,u
2025-03-10 12:02:54.977,760, 863, 332, 75, 26, 31, -1, -1, 2, 939, 876, 521,u
2025-03-10 12:02:55.030,796, 912, 76, -20, 28, 32, -3, 0, 3, 950, 904, 619,u
2025-03-10 12:02:55.080,447, 549, 556, -8, -20, -23, -3, 0, 3, 935, 915, 727,u
2025-03-10 12:02:55.144,722, 710, 269, 28, -20, -6, -3, 0, 3, 937, 911, 725,u
2025-03-10 12:02:55.201,612, 603, 147, -12, 30, 27, -2, -1, 2, 942, 908, 720,u
2025-03-10 12:02:55.250,711, 553, 300, -39, 29, -39, -3, 0, 1, 933, 889, 736,u
2025-03-10 12:02:55.312,599, 575, 649, -25, -10, -10, -2, -1, 0, 922, 880, 665,u
2025-03-10 12:02:55.623,733, 563, 433, -2, -3, -3, -2, -1, 0, 917, 810, 462,v
2025-03-10 12:02:55.681,728, 550, 430, -3, -3, -3, -2, 0, 2, 913, 809, 454,v
2025-03-10 12:02:55.730,710, 559, 476, 7, -7, -2, -1, -1, 1, 918, 822, 477,v
2025-03-10 12:02:55.780,670, 545, 420, 4, 0, -7, -2, 0, 2, 913, 817, 410,v
2025-03-10 12:02:55.840,711, 562, 433, 1, -8, -7, 0, -1, 0, 915, 836, 370,v
2025-03-10 12:02:55.894,711, 648, 436, -2, -4, -11, -2, 0, 1, 931, 872, 321,v
2025-03-10 12:02:55.950,699, 461, 544, 28, -4, -9, -2, -1, 3, 943, 901, 382,v
2025-03-10 12:02:56.000,795, 729, 221, 26, 17, 29, -2, 0, 3, 944, 893, 433,v
2025-03-10 12:02:56.061,763, 455, 438, -15, 15, 19, -2, -1, 2, 953, 894, 414,v
2025-03-10 12:02:56.113,719, 424, 565, -7, -30, -23, -1, -2, 3, 949, 935, 537,v
2025-03-10 12:02:56.171,714, 615, 511, 3, -6, -2, -2, -1, 2, 951, 937, 691,v
2025-03-10 12:02:56.229,911, 353, 166, -38, 55, -7, -3, -1, 2, 954, 911, 699,v
2025-03-10 12:02:56.280,544, 634, 659, -13, 17, -7, -2, 0, 1, 932, 879, 565,v
2025-03-10 12:02:56.330,619, 546, 574, 23, -28, 5, 0, 0, 1, 930, 872, 590,v
2025-03-10 12:02:56.734,676, 591, 458, -1, -1, -1, -1, 0, 1, 891, 760, 439,w
2025-03-10 12:02:56.781,677, 590, 462, 0, -1, 0, -1, 0, 2, 898, 760, 444,w
2025-03-10 12:02:56.840,672, 562, 435, -4, -6, -2, -1, -1, 4, 892, 772, 448,w
2025-03-10 12:02:56.898,1187, 36, 105, -2, -9, -19, -1, -1, 3, 918, 835, 328,w
2025-03-10 12:02:56.951,704, 502, 486, -2, 0, -3, -1, -1, 2, 940, 875, 224,w
2025-03-10 12:02:57.008,696, 1071, 183, 13, 35, 48, -1, 0, 2, 946, 881, 438,w
2025-03-10 12:02:57.062,684, 690, 264, -12, 13, 15, -1, -2, 3, 939, 894, 503,w
2025-03-10 12:02:57.117,799, 511, 484, -16, -20, -15, -2, -1, 3, 946, 915, 699,w
2025-03-10 12:02:57.177,620, 664, 199, -1, 35, 38, -1, -1, 3, 943, 895, 690,w
2025-03-10 12:02:57.232,655, 481, 612, -36, -14, 5, -1, -1, 2, 945, 924, 667,w
2025-03-10 12:02:57.283,719, 534, 197, -1, -3, 1, -4, 0, 2, 932, 911, 787,w
2025-03-10 12:02:57.340,624, 546, 583, -34, 76, -23, -3, 0, 0, 928, 870, 742,w
2025-03-10 12:02:57.390,514, 528, 714, 1, -2, 2, -1, 0, -1, 921, 822, 653,w
2025-03-10 12:02:57.450,694, 547, 489, 13, -38, 6, -1, -1, -1, 918, 811, 641,w
2025-03-10 12:02:57.860,685, 547, 512, 8, -13, 6, -3, -1, 2, 939, 878, 705,x
2025-03-10 12:02:57.912,710, 546, 477, 8, -14, 5, -1, 0, 2, 942, 875, 710,x
2025-03-10 12:02:57.970,730, 541, 415, -1, -2, 0, -4, 1, 1, 930, 874, 716,x
2025-03-10 12:02:58.020,710, 546, 447, 4, -8, 0, -4, -1, 3, 927, 877, 720,x
2025-03-10 12:02:58.076,686, 531, 432, 0, -7, 2, -2, -1, 3, 944, 900, 733,x
2025-03-10 12:02:58.130,628, 561, 462, 8, -4, -13, -2, -1, 2, 950, 906, 602,x
2025-03-10 12:02:58.180,746, 793, 161, 17, 31, 12, -3, 1, 3, 962, 892, 2,x
2025-03-10 12:02:58.230,770, 596, 177, -62, 32, 16, -2, 1, 2, 943, 848, 185,x
2025-03-10 12:02:58.294,397, 567, 809, 32, -22, -10, -2, 0, 1, 939, 874, 551,x
2025-03-10 12:02:58.345,793, 933, 142, -2, 2, 46, -1, -3, 3, 965, 931, 655,x
2025-03-10 12:02:58.400,536, 376, 476, -23, 18, 30, -2, 0, 1, 965, 917, 706,x
2025-03-10 12:02:58.462,681, 604, 276, -52, 40, -52, -2, -1, 1, 934, 875, 611,x
2025-03-10 12:02:58.512,536, 606, 822, -5, -21, -10, 0, 0, -1, 925, 876, 569,x
2025-03-10 12:02:58.804,720, 560, 428, -4, 1, 1, -2, -1, 2, 929, 882, 663,y
2025-03-10 12:02:58.861,703, 550, 446, -3, 1, 0, -2, -1, 3, 931, 884, 661,y
2025-03-10 12:02:58.913,677, 566, 450, 0, -7, -1, -2, 0, 2, 938, 894, 681,y
2025-03-10 12:02:58.970,725, 561, 479, -6, -5, -13, -1, -1, 2, 942, 908, 572,y
2025-03-10 12:02:59.020,785, 690, 280, 53, 17, 21, -2, 0, 3, 962, 922, 626,y
2025-03-10 12:02:59.076,832, 541, 203, 1, 28, 28, -2, -1, 3, 972, 936, 751,y
2025-03-10 12:02:59.130,568, 517, 516, -9, -2, -31, -2, 0, 1, 947, 925, 791,y
2025-03-10 12:02:59.181,857, 833, 342, 3, -4, 7, -3, -2, 2, 956, 933, 775,y
2025-03-10 12:02:59.240,568, 882, 297, -42, 39, 41, -1, 1, 2, 966, 924, 555,y
2025-03-10 12:02:59.297,748, 131, 530, -24, 7, -29, -3, 0, 0, 950, 855, 319,y
2025-03-10 12:02:59.351,588, 482, 698, -31, 39, -47, -2, 1, 1, 913, 889, 567,y
2025-03-10 12:02:59.409,517, 616, 502, 15, -32, 8, -2, -1, -1, 929, 904, 673,y
2025-03-10 12:02:59.736,716, 565, 443, -1, -2, 0, -2, -1, -1, 929, 869, 596,z
2025-03-10 12:02:59.785,729, 561, 426, -2, -1, -1, -1, -1, 1, 928, 867, 596,z
2025-03-10 12:02:59.844,679, 547, 519, 1, -2, -1, -1, -1, 0, 918, 858, 575,z
2025-03-10 12:02:59.894,744, 544, 413, 0, -8, 1, -2, 1, 0, 926, 863, 575,z
2025-03-10 12:02:59.945,708, 523, 459, 0, -1, -6, -4, 0, 0, 929, 871, 475,z
2025-03-10 12:03:00.000,716, 621, 441, 3, -3, -9, -1, -1, 1, 937, 890, 320,z
2025-03-10 12:03:00.059,816, 745, 548, 46, -15, 18, -2, -1, 3, 952, 936, 720,z
2025-03-10 12:03:00.113,672, 616, 507, 29, -6, 3, -2, -2, 4, 969, 953, 797,z
2025-03-10 12:03:00.170,373, 389, 443, -2, 32, 0, -2, -1, 3, 958, 896, 604,z
2025-03-10 12:03:00.220,832, 470, 237, 38, 6, -5, -1, -1, 2, 970, 911, 134,z
2025-03-10 12:03:00.276,320, 500, 141, -2, 0, 20, -4, -2, 3, 963, 952, 729,z
2025-03-10 12:03:00.330,662, 568, 480, -25, -2, 3, -3, 0, 3, 958, 925, 782,z
2025-03-10 12:03:00.380,651, 492, 763, -23, 1, -39, -1, -1, 2, 937, 822, 577,z
2025-03-10 12:03:00.440,938, 927, 314, 14, -26, 24, -2, 0, 3, 964, 943, 761,z
2025-03-10 12:03:00.493,546, 292, 259, -4, 13, 15, -4, 0, 5, 962, 952, 821,z
2025-03-10 12:03:00.550,768, 442, 236, -42, 19, -22, -4, -1, 4, 942, 873, 786,z
2025-03-10 12:03:00.605,607, 601, 679, -27, 19, -21, -1, -2, 0, 925, 698, 640,z
2025-03-10 12:03:00.961,684, 561, 468, -6, -3, 0, -1, -1, 1, 917, 773, 590,0
2025-03-10 12:03:01.012,685, 552, 462, -5, -4, 1, -1, 1, 1, 920, 775, 592,0
2025-03-10 12:03:01.070,719, 562, 430, -4, -4, 4, -4, 0, 2, 931, 798, 591,0
2025-03-10 12:03:01.120,743, 544, 424, -3, -1, 2, -3, 0, 2, 932, 822, 602,0
2025-03-10 12:03:01.177,712, 548, 451, -2, 1, 1, -3, 0, 3, 932, 835, 628,0
2025-03-10 12:03:01.230,724, 536, 443, 0, -3, -1, -2, -1, 2, 934, 848, 675,0
2025-03-10 12:03:01.281,735, 547, 449, -4, 1, -1, -3, 1, 1, 934, 853, 682,0
2025-03-10 12:03:01.330,728, 546, 442, -2, -2, 1, -3, 0, 0, 938, 858, 682,0
2025-03-10 12:03:01.390,732, 549, 458, -2, 0, 1, -2, -1, 0, 935, 862, 664,0
2025-03-10 12:03:01.443,722, 545, 445, -1, 1, -1, -2, -1, 1, 940, 869, 668,0
2025-03-10 12:03:01.494,729, 534, 450, 1, 0, -1, -1, -1, 2, 949, 872, 685,0
2025-03-10 12:03:01.550,728, 553, 438, -2, 1, 0, -2, 0, 2, 937, 868, 685,0
2025-03-10 12:03:01.600,739, 537, 429, -1, -2, -1, -3, -1, 1, 942, 877, 696,0
2025-03-10 12:03:01.650,715, 558, 455, -1, 0, 0, -2, -1, 2, 944, 873, 684,0
2025-03-10 12:03:01.709,727, 547, 438, 1, -3, 3, -4, 0, 1, 941, 879, 690,0
2025-03-10 12:03:01.761,803, 529, 398, 1, -9, -3, -4, 1, 2, 949, 886, 699,0
2025-03-10 12:03:01.811,747, 550, 442, 1, 2, 0, -4, -1, 2, 939, 882, 685,0
2025-03-10 12:03:01.861,854, 584, 218, -14, 16, -10, -4, -1, 2, 950, 885, 720,0
2025-03-10 12:03:01.927,609, 607, 609, -23, 3, -10, -2, -1, 2, 941, 887, 718,0
2025-03-10 12:03:01.980,605, 548, 565, 15, -36, 7, -2, 1, 2, 941, 898, 731,0
2025-03-10 12:03:02.030,750, 664, 409, -4, -10, -25, -2, -1, 2, 950, 925, 735,0
2025-03-10 12:03:02.094,1009, 300, 440, 51, -14, -35, -2, 0, 1, 955, 921, 634,0
2025-03-10 12:03:02.150,846, 1033, -169, 5, 78, 75, -2, -1, 5, 962, 926, 528,0
2025-03-10 12:03:02.205,576, 212, 862, -27, -1, 19, -4, 0, 1, 959, 950, 703,0
2025-03-10 12:03:02.261,404, 448, 462, 9, -25, -38, -3, 1, 4, 949, 932, 803,0
2025-03-10 12:03:02.320,904, 551, 230, -33, 61, -18, -2, -1, 3, 926, 868, 753,0
2025-03-10 12:03:02.370,500, 634, 556, -5, 12, 13, -1, 1, -1, 930, 818, 627,0
2025-03-10 12:03:02.688,732, 558, 409, -1, -4, 1, -4, 0, 0, 919, 802, 529,1
2025-03-10 12:03:02.742,719, 546, 399, -1, -2, 0, -2, 1, 1, 919, 802, 527,1
2025-03-10 12:03:02.792,699, 558, 472, 1, -1, 1, -2, 0, 0, 919, 816, 534,1
2025-03-10 12:03:02.844,738, 561, 425, -3, -3, 1, -2, 1, 2, 920, 831, 563,1
2025-03-10 12:03:02.895,701, 548, 445, 1, -3, 0, -2, 1, 0, 931, 843, 564,1
2025-03-10 12:03:02.950,744, 571, 402, -2, -2, 0, -4, -2, 2, 925, 841, 557,1
2025-03-10 12:03:03.000,729, 556, 436, -4, 0, -2, -2, 1, 1, 931, 850, 542,1
2025-03-10 12:03:03.050,713, 561, 446, -3, -1, -1, -1, 0, 2, 930, 847, 520,1
2025-03-10 12:03:03.111,732, 544, 423, -5, 0, -2, -3, 0, 2, 933, 851, 493,1
2025-03-10 12:03:03.161,634, 518, 514, 6, -6, 2, -2, 0, 0, 929, 856, 441,1
2025-03-10 12:03:03.211,801, 637, 347, 11, -3, -6, -3, -1, 2, 940, 893, 279,1
2025-03-10 12:03:03.270,694, 627, 341, 0, -6, 7, -2, 1, 2, 952, 935, 705,1
2025-03-10 12:03:03.320,679, 578, 500, 32, -13, 2, -2, 0, 3, 959, 938, 767,1
2025-03-10 12:03:03.377,543, 683, -48, 5, 31, 19, -3, -1, 4, 974, 934, 697,1
2025-03-10 12:03:03.430,774, 269, 513, -34, 23, -30, -5, 0, 3, 952, 884, 699,1
2025-03-10 12:03:03.492,935, 1017, 560, 76, -18, -19, -1, -2, 3, 953, 907, 637,1
2025-03-10 12:03:03.543,464, 753, 235, -8, 6, 38, -4, 0, 3, 965, 951, 760,1
2025-03-10 12:03:03.600,820, 335, 356, -26, 4, -34, -4, 0, 4, 946, 913, 792,1
2025-03-10 12:03:03.659,679, 542, 608, -56, 43, -46, -1, -1, 1, 921, 802, 607,1
2025-03-10 12:03:03.880,723, 569, 377, -3, -2, 3, -3, -1, 2, 896, 789, 641,2
2025-03-10 12:03:03.930,736, 560, 378, -4, 1, 2, -3, 0, 2, 896, 784, 633,2
2025-03-10 12:03:03.980,673, 550, 494, -3, 0, 0, -2, -1, 1, 902, 794, 611,2
2025-03-10 12:03:04.040,729, 568, 403, -4, 0, 0, -3, -1, 1, 906, 791, 613,2
2025-03-10 12:03:04.094,683, 586, 449, -5, 0, -1, -1, -1, 2, 907, 786, 601,2
2025-03-10 12:03:04.145,699, 551, 433, -3, 1, -1, -1, 0, 1, 907, 788, 594,2
2025-03-10 12:03:04.200,684, 558, 475, -2, 2, -1, -1, -1, 1, 899, 776, 575,2
2025-03-10 12:03:04.258,695, 559, 447, -2, -3, -1, -2, 0, 1, 902, 783, 568,2
2025-03-10 12:03:04.310,683, 569, 499, 0, -8, 1, -1, -1, 1, 908, 799, 551,2
2025-03-10 12:03:04.361,695, 572, 433, -4, -9, -2, -2, 2, 1, 908, 814, 546,2
2025-03-10 12:03:04.410,640, 545, 500, 1, -25, 2, -2, -2, 2, 923, 837, 462,2
2025-03-10 12:03:04.475,812, 498, 345, 23, -2, -17, -1, -1, 2, 934, 910, 355,2
2025-03-10 12:03:04.527,625, 640, 366, 16, -15, 22, -3, -1, 5, 937, 929, 741,2
2025-03-10 12:03:04.580,422, 590, 421, 10, 33, 23, -1, -1, 3, 961, 921, 716,2
2025-03-10 12:03:04.630,897, 493, 386, -5, 6, -3, -3, -1, 3, 943, 898, 361,2
2025-03-10 12:03:04.691,719, 645, 207, 20, -3, 40, -3, -2, 4, 954, 943, 728,2
2025-03-10 12:03:04.743,686, 479, 383, -17, 8, 0, -1, 0, 4, 940, 914, 791,2
2025-03-10 12:03:04.800,650, 495, 478, -69, 48, -58, -2, 0, 4, 923, 826, 641,2
2025-03-10 12:03:04.850,596, 553, 596, 2, -17, 2, -1, -1, 1, 905, 806, 606,2
2025-03-10 12:03:05.485,714, 573, 420, -4, -3, 1, -3, 0, 1, 907, 845, 569,3
2025-03-10 12:03:05.540,721, 567, 421, -5, -3, 0, -1, 0, 2, 903, 844, 574,3
2025-03-10 12:03:05.596,714, 559, 444, -1, -3, 0, -1, -1, 2, 908, 853, 584,3
2025-03-10 12:03:05.650,727, 554, 421, -1, -2, -1, -2, -2, 2, 916, 861, 598,3
2025-03-10 12:03:05.704,718, 562, 437, -2, -1, 0, -3, -2, 1, 917, 861, 603,3
2025-03-10 12:03:05.755,720, 579, 409, -1, -1, -1, -2, 0, 2, 920, 875, 611,3
2025-03-10 12:03:05.814,662, 467, 461, 1, -6, -5, -1, -1, 2, 914, 872, 555,3
2025-03-10 12:03:05.861,723, 512, 399, 20, -7, -12, -1, -3, 2, 937, 898, 457,3
2025-03-10 12:03:05.925,782, 560, 414, 20, 7, 12, -2, -1, 3, 942, 921, 723,3
2025-03-10 12:03:05.977,619, 654, 432, -6, 15, 9, -2, -2, 4, 943, 911, 681,3
2025-03-10 12:03:06.030,860, 448, 228, 12, 13, -4, -1, -1, 2, 949, 912, 507,3
2025-03-10 12:03:06.080,613, 630, 389, 14, 11, 9, -1, -1, 5, 947, 916, 526,3
2025-03-10 12:03:06.142,749, 632, 243, -23, 23, 10, -2, -2, 3, 944, 873, 460,3
2025-03-10 12:03:06.199,851, 448, 181, -47, 48, -36, -3, -2, 2, 908, 776, 410,3
2025-03-10 12:03:06.250,510, 617, 708, -13, -11, -9, 0, 0, 0, 900, 791, 403,3
2025-03-10 12:03:06.530,711, 560, 425, -2, -4, 0, -2, 1, 2, 902, 826, 515,4
2025-03-10 12:03:06.580,706, 565, 427, -1, -4, 0, -3, -1, 2, 903, 827, 521,4
2025-03-10 12:03:06.640,723, 541, 431, 4, -4, 1, -1, -2, 1, 904, 840, 556,4
2025-03-10 12:03:06.693,725, 581, 404, -2, 1, -1, -2, -1, 2, 917, 855, 582,4
2025-03-10 12:03:06.750,725, 564, 415, -2, -2, -2, -2, -2, 3, 916, 863, 584,4
2025-03-10 12:03:06.800,714, 558, 413, -2, -3, -3, -3, 1, 3, 929, 882, 591,4
2025-03-10 12:03:06.858,718, 616, 517, 17, -8, -8, -2, 0, 2, 932, 892, 627,4
2025-03-10 12:03:06.910,713, 597, 515, -4, -2, 1, -3, -2, 1, 946, 919, 624,4
2025-03-10 12:03:06.969,441, 655, 276, 15, 13, -6, -2, -1, 4, 945, 887, 276,4
2025-03-10 12:03:07.019,763, 531, 192, 6, 16, 3, -1, -1, 4, 954, 874, 7,4
2025-03-10 12:03:07.070,560, 385, 330, 13, 3, 36, -1, -3, 4, 955, 932, 649,4
2025-03-10 12:03:07.127,688, 606, 395, -11, 4, 14, -3, -1, 3, 945, 922, 762,4
2025-03-10 12:03:07.180,447, 583, 539, -61, 17, -51, -2, -2, 3, 924, 864, 675,4
2025-03-10 12:03:07.243,649, 587, 506, 69, -8, -14, -3, -1, 3, 938, 900, 702,4
2025-03-10 12:03:07.294,734, 687, 251, -1, 37, 36, -1, -1, 3, 959, 901, 615,4
2025-03-10 12:03:07.350,940, 175, 377, -18, 19, -33, -2, 0, 2, 930, 730, 639,4
2025-03-10 12:03:07.410,582, 545, 694, -33, 22, -42, -1, -1, 2, 886, 742, 580,4
2025-03-10 12:03:07.710,712, 543, 458, 0, -10, 2, -1, -2, 1, 921, 790, 538,5
2025-03-10 12:03:07.763,718, 547, 434, 1, -9, 1, -1, -2, 1, 917, 796, 552,5
2025-03-10 12:03:07.817,725, 570, 441, -1, -6, 1, -2, 1, 0, 906, 807, 569,5
2025-03-10 12:03:07.870,711, 564, 426, 0, -4, -2, -2, 0, 2, 905, 822, 580,5
2025-03-10 12:03:07.924,644, 523, 513, 0, -14, 0, -4, -1, 1, 926, 843, 559,5
2025-03-10 12:03:07.980,813, 406, 439, 55, -11, -16, -3, -1, 2, 923, 886, 437,5
2025-03-10 12:03:08.030,636, 396, 224, -2, 3, 18, -3, -1, 3, 931, 921, 736,5
2025-03-10 12:03:08.091,588, 430, 404, -12, -3, -9, -3, -1, 4, 922, 895, 737,5
2025-03-10 12:03:08.144,880, 521, 455, 46, 3, -18, -1, -1, 4, 929, 889, 659,5
2025-03-10 12:03:08.200,535, 765, 426, -22, 34, 36, -2, -2, 3, 946, 919, 678,5
2025-03-10 12:03:08.255,789, 534, 423, -34, 24, 14, -1, -1, 2, 947, 881, 430,5
2025-03-10 12:03:08.310,1152, 339, 385, -8, 13, -18, -1, 0, 3, 887, 684, 387,5
2025-03-10 12:03:08.367,583, 645, 765, 0, 26, -19, -2, -1, 2, 865, 729, 553,5
2025-03-10 12:03:08.690,695, 547, 456, 0, -5, 2, -3, 1, 1, 894, 775, 508,6
2025-03-10 12:03:08.742,708, 550, 446, 1, -6, 2, -2, -1, 2, 895, 773, 508,6
2025-03-10 12:03:08.800,731, 562, 402, -2, -2, -2, -3, -2, 1, 893, 778, 517,6
2025-03-10 12:03:08.850,706, 542, 464, 0, -1, 0, -2, 1, 1, 900, 790, 524,6
2025-03-10 12:03:08.900,718, 564, 430, -3, 0, 0, -2, -1, 2, 906, 798, 529,6
2025-03-10 12:03:08.960,728, 561, 441, -3, -2, -1, -2, 0, 2, 905, 807, 533,6
2025-03-10 12:03:09.010,722, 562, 448, -2, -1, -1, -1, 0, 0, 901, 804, 534,6
2025-03-10 12:03:09.070,728, 573, 430, -1, -4, 1, -3, 1, 2, 912, 826, 546,6
2025-03-10 12:03:09.119,754, 550, 470, 7, -8, 2, -4, 2, 2, 916, 845, 604,6
2025-03-10 12:03:09.176,645, 506, 476, 11, -20, -2, -4, 0, 2, 914, 853, 616,6
2025-03-10 12:03:09.230,783, 606, 522, 5, -12, -22, -2, 0, 2, 921, 887, 539,6
2025-03-10 12:03:09.280,896, 809, 315, 82, 38, 11, -2, 0, 3, 960, 901, 117,6
2025-03-10 12:03:09.340,727, 915, 41, -47, 45, 40, -2, -1, 3, 947, 911, 292,6
2025-03-10 12:03:09.393,640, 197, 340, -3, -49, -44, -3, -1, 4, 948, 925, 662,6
2025-03-10 12:03:09.450,1117, 501, 97, -31, 29, -12, -2, 0, 3, 926, 859, 664,6
2025-03-10 12:03:09.509,529, 630, 701, -36, 39, -10, -1, 1, 0, 885, 741, 480,6
2025-03-10 12:03:09.802,697, 570, 433, -3, -2, -2, 0, -2, 1, 870, 741, 381,7
2025-03-10 12:03:09.860,686, 571, 451, -3, -3, -2, -1, 0, 1, 872, 745, 378,7
2025-03-10 12:03:09.910,708, 547, 464, 0, -8, 0, -1, -1, 1, 872, 756, 392,7
2025-03-10 12:03:09.961,680, 567, 438, -5, -10, -3, -1, 0, 3, 863, 750, 315,7
2025-03-10 12:03:10.020,791, 469, 340, 18, 2, -10, -2, 0, 2, 901, 823, 301,7
2025-03-10 12:03:10.074,817, 543, 325, 7, -10, 16, -3, 1, 3, 900, 870, 652,7
2025-03-10 12:03:10.127,491, 554, 538, 47, 7, 2, -2, -1, 4, 928, 886, 687,7
2025-03-10 12:03:10.180,1038, 660, 56, 7, 20, 20, -5, -1, 3, 931, 866, 439,7
2025-03-10 12:03:10.230,609, 291, 877, -39, -6, -28, -4, -1, 1, 921, 819, 500,7
2025-03-10 12:03:10.293,635, 605, 681, 16, -35, -1, -1, -2, 2, 915, 847, 296,7
2025-03-10 12:03:10.342,904, 896, 251, 0, -18, 32, -1, 1, 3, 950, 924, 625,7
2025-03-10 12:03:10.401,680, 547, 507, -2, 2, 20, -3, -2, 3, 964, 939, 761,7
2025-03-10 12:03:10.459,735, 492, 167, -45, 44, -37, -4, 0, 4, 920, 855, 719,7
2025-03-10 12:03:10.510,586, 650, 702, -25, 10, -3, -3, 1, 0, 889, 668, 469,7
2025-03-10 12:03:10.810,718, 535, 446, 2, -3, 0, -2, -1, 2, 915, 740, 552,8
2025-03-10 12:03:10.861,723, 543, 446, 4, -3, 0, -2, 0, 2, 928, 753, 566,8
2025-03-10 12:03:10.920,722, 546, 438, 1, -3, 1, -2, -1, 3, 932, 767, 581,8
2025-03-10 12:03:10.974,712, 560, 446, 0, -2, 2, -3, -2, 3, 909, 757, 570,8
2025-03-10 12:03:11.025,699, 550, 455, 4, -6, 4, -2, -1, 1, 919, 780, 594,8
2025-03-10 12:03:11.080,571, 640, 357, 4, -2, -16, -2, 0, 3, 919, 845, 543,8
2025-03-10 12:03:11.130,746, 459, 547, 16, -4, -18, -2, 0, 2, 926, 858, 249,8
2025-03-10 12:03:11.191,979, 693, 292, -1, 22, 49, -2, 0, 4, 947, 903, 451,8
2025-03-10 12:03:11.242,603, 564, 567, -1, -6, -4, -4, -1, 2, 951, 935, 643,8
2025-03-10 12:03:11.300,911, 368, 272, -23, -39, -47, -3, 0, 3, 935, 920, 726,8
2025-03-10 12:03:11.356,747, 569, 344, 14, -4, 13, -1, -2, 3, 945, 934, 737,8
2025-03-10 12:03:11.410,784, 611, 271, -11, 27, 21, -1, -1, 3, 943, 912, 687,8
2025-03-10 12:03:11.470,953, 448, 295, -53, 34, -31, -2, -2, 3, 930, 825, 566,8
2025-03-10 12:03:11.526,592, 623, 635, -18, 12, -12, -1, -1, 2, 907, 755, 470,8
2025-03-10 12:03:11.960,723, 561, 423, -1, -3, 0, -3, -1, 1, 917, 797, 458,9
2025-03-10 12:03:12.010,708, 557, 424, -1, -2, 1, -3, -1, 1, 910, 798, 463,9
2025-03-10 12:03:12.069,687, 558, 452, 3, -6, 3, -2, -1, 2, 913, 824, 524,9
2025-03-10 12:03:12.120,708, 550, 447, 2, -9, 5, -3, 0, 1, 914, 847, 560,9
2025-03-10 12:03:12.175,705, 507, 440, 11, -25, -1, -3, -2, 2, 926, 876, 562,9
2025-03-10 12:03:12.230,738, 512, 567, 7, -10, -25, -2, -1, 2, 937, 895, 228,9
2025-03-10 12:03:12.289,1172, 854, -77, 47, 31, 19, -2, -1, 4, 955, 905, 182,9
2025-03-10 12:03:12.342,512, 315, 465, 2, 31, 27, -2, -2, 2, 951, 932, 663,9
2025-03-10 12:03:12.400,734, 536, 360, 0, -24, -29, -2, -2, 2, 939, 924, 757,9
2025-03-10 12:03:12.450,890, 921, 173, 14, 12, 16, -2, -1, 3, 956, 926, 723,9
2025-03-10 12:03:12.510,533, 532, 293, -45, 39, 39, -2, -1, 3, 959, 911, 302,9
2025-03-10 12:03:12.560,722, 378, 637, -29, 0, -20, -5, 0, 1, 932, 807, 20,9
2025-03-10 12:03:12.620,730, 472, 411, -17, 43, -42, -1, -1, 0, 768, 732, 81,9
2025-03-10 12:03:12.675,535, 612, 721, -10, -7, 3, 0, 1, -1, 786, 653, 13,9
2025-03-10 12:03:13.160,702, 558, 454, 7, -6, 6, -2, -1, 2, 901, 840, 636,+
2025-03-10 12:03:13.210,682, 547, 452, 9, -7, 5, -2, -1, 0, 886, 827, 628,+
2025-03-10 12:03:13.268,719, 563, 403, 2, -1, 1, -2, 0, 1, 917, 855, 674,+
2025-03-10 12:03:13.320,719, 550, 433, 0, -3, 0, -2, -1, 2, 916, 860, 690,+
2025-03-10 12:03:13.376,731, 556, 408, -5, -3, -3, -2, -1, 1, 910, 860, 688,+
2025-03-10 12:03:13.430,737, 560, 425, -4, 0, -3, -1, 0, 1, 922, 885, 687,+
2025-03-10 12:03:13.480,720, 548, 410, 2, 0, -1, -2, 0, 3, 917, 877, 677,+
2025-03-10 12:03:13.539,725, 549, 445, 1, -2, -7, -1, -2, 1, 926, 904, 661,+
2025-03-10 12:03:13.592,735, 563, 563, 37, -14, -6, -2, -2, 3, 938, 906, 671,+
2025-03-10 12:03:13.642,924, 472, 543, 17, 44, 36, -2, 1, 4, 954, 903, 403,+
2025-03-10 12:03:13.700,742, 599, 480, -38, 27, 18, -2, -1, 2, 939, 861, 488,+
2025-03-10 12:03:13.758,455, 567, 648, -18, -25, -40, -2, 1, 3, 923, 839, 374,+
2025-03-10 12:03:13.816,929, 417, 442, 80, -25, -14, -3, -1, 2, 947, 927, 449,+
2025-03-10 12:03:13.874,343, 552, 204, -12, 19, 30, -2, -1, 5, 955, 945, 771,+
2025-03-10 12:03:13.925,817, 375, 227, -28, 20, -24, -5, 0, 3, 938, 906, 789,+
2025-03-10 12:03:13.980,643, 564, 675, -26, 24, -25, -1, -1, 1, 891, 819, 602,+
2025-03-10 12:03:14.270,722, 561, 454, 1, -5, 0, -2, 1, 2, 910, 797, 577,-
2025-03-10 12:03:14.330,723, 546, 451, 2, -5, 0, -3, -1, 1, 907, 796, 582,-
2025-03-10 12:03:14.380,732, 553, 393, 0, -1, 1, -2, 0, 1, 917, 811, 602,-
2025-03-10 12:03:14.430,712, 561, 448, -1, 1, -1, -1, -1, 1, 918, 815, 605,-
2025-03-10 12:03:14.489,726, 565, 436, -1, 0, -1, -1, -1, 1, 919, 817, 608,-
2025-03-10 12:03:14.542,679, 558, 436, -4, 3, -5, -4, -2, 2, 916, 798, 581,-
2025-03-10 12:03:14.593,706, 587, 449, 1, -4, -5, -2, -1, 1, 916, 790, 460,-
2025-03-10 12:03:14.651,789, 522, 476, 14, -3, -17, -2, -1, 3, 937, 845, 148,-
2025-03-10 12:03:14.710,1086, 686, 349, 8, -27, 41, -3, -1, 3, 961, 937, 627,-
2025-03-10 12:03:14.760,532, 449, 356, 9, -5, 13, -4, -1, 3, 969, 958, 760,-
2025-03-10 12:03:14.817,666, 520, 259, -21, 10, 1, -4, 0, 5, 959, 924, 766,-
2025-03-10 12:03:14.874,843, 565, 369, -40, 24, -22, -3, -1, 4, 932, 808, 619,-
2025-03-10 12:03:14.931,677, 581, 515, -11, 2, -6, -1, -1, 2, 925, 674, 491,-
2025-03-10 12:03:15.296,715, 546, 443, -3, 0, 1, -1, 1, 2, 900, 716, 461,÷
2025-03-10 12:03:15.341,718, 549, 440, -3, 0, 0, -2, 0, 1, 903, 718, 454,÷
2025-03-10 12:03:15.400,725, 567, 436, -4, -1, 0, -2, 0, 1, 908, 737, 495,÷
2025-03-10 12:03:15.455,707, 551, 443, -5, 1, -1, 0, 1, 3, 912, 754, 449,÷
2025-03-10 12:03:15.508,713, 538, 453, -4, -1, -1, -1, -1, 2, 921, 758, 451,÷
2025-03-10 12:03:15.561,723, 578, 454, -5, -1, 1, -2, 0, 1, 915, 778, 453,÷
2025-03-10 12:03:15.610,722, 544, 452, -2, -1, 0, -1, -1, 2, 925, 793, 461,÷
2025-03-10 12:03:15.672,720, 546, 443, -2, -1, 0, -2, -1, 1, 921, 805, 470,÷
2025-03-10 12:03:15.722,723, 558, 440, 4, -1, 2, -2, 1, 1, 924, 814, 543,÷
2025-03-10 12:03:15.774,713, 542, 451, 4, -2, 1, -2, 2, 2, 932, 829, 574,÷
2025-03-10 12:03:15.824,742, 561, 402, 20, -3, 8, -3, 0, 1, 937, 866, 667,÷
2025-03-10 12:03:15.880,691, 554, 448, 5, -1, 0, -4, 1, 3, 928, 866, 714,÷
2025-03-10 12:03:15.930,715, 563, 387, -7, 2, -5, -3, -1, 3, 935, 868, 708,÷
2025-03-10 12:03:15.988,721, 543, 440, -10, -1, -3, -3, 0, 3, 944, 867, 638,÷
2025-03-10 12:03:16.041,720, 570, 420, -2, -1, 1, -1, -1, 2, 938, 867, 620,÷
2025-03-10 12:03:16.091,621, 472, 500, 12, -30, 3, -2, 0, 1, 945, 902, 585,÷
2025-03-10 12:03:16.151,897, 630, 293, -4, 0, -8, -2, -2, 2, 952, 924, 491,÷
2025-03-10 12:03:16.205,798, 1052, 10, 15, 27, 25, -2, -1, 3, 957, 931, 621,÷
2025-03-10 12:03:16.260,762, 582, 515, -14, 16, 15, -3, -1, 3, 960, 939, 681,÷
2025-03-10 12:03:16.310,750, 438, 250, -6, 56, -14, -1, 0, 4, 947, 907, 732,÷
2025-03-10 12:03:16.373,539, 571, 566, 41, -44, 38, -2, 0, 2, 952, 897, 640,÷
2025-03-10 12:03:16.424,743, 647, 416, 0, 16, 5, -3, -2, 4, 954, 924, 546,÷
2025-03-10 12:03:16.474,679, 559, 471, 0, -2, 7, -2, -1, 3, 948, 924, 692,÷
2025-03-10 12:03:16.530,701, 417, 209, -37, 25, -44, -2, -2, 2, 928, 892, 671,÷
2025-03-10 12:03:16.590,511, 611, 813, 18, -71, 36, -1, -1, 1, 939, 903, 610,÷
2025-03-10 12:03:16.642,768, 848, 483, -1, 1, 26, -2, -1, 2, 964, 951, 601,÷
2025-03-10 12:03:16.692,625, 413, 295, 10, 2, 19, -3, 0, 6, 966, 955, 752,÷
2025-03-10 12:03:16.755,895, 489, 312, -19, 22, -4, -5, -1, 2, 951, 921, 770,÷
2025-03-10 12:03:16.810,623, 541, 730, -34, 33, -30, -2, 0, 1, 932, 803, 553,÷
2025-03-10 12:03:17.300,708, 553, 429, -3, -2, 1, -2, 1, 2, 929, 807, 480,=
2025-03-10 12:03:17.356,719, 549, 431, -2, -1, 1, -2, -1, 0, 928, 812, 479,=
2025-03-10 12:03:17.409,697, 531, 503, 3, -4, 0, -2, 1, -1, 921, 813, 475,=
2025-03-10 12:03:17.460,722, 565, 423, 2, -5, 1, -2, -1, 2, 927, 831, 519,=
2025-03-10 12:03:17.510,725, 552, 446, 0, -1, 3, -3, 0, 1, 935, 853, 560,=
2025-03-10 12:03:17.560,705, 543, 454, 2, -2, 2, -2, 1, 1, 934, 856, 574,=
2025-03-10 12:03:17.617,722, 545, 439, 3, -2, 4, -2, 0, 1, 931, 860, 617,=
2025-03-10 12:03:17.665,721, 547, 455, 2, -3, 3, -2, 1, 2, 936, 864, 640,=
2025-03-10 12:03:17.720,730, 550, 424, 2, -3, 0, -2, -1, 1, 934, 872, 646,=
2025-03-10 12:03:17.774,726, 546, 434, -1, -1, 0, -2, 0, 2, 931, 872, 647,=
2025-03-10 12:03:17.827,735, 547, 439, 1, -1, 1, -3, 1, 0, 943, 883, 658,=
2025-03-10 12:03:17.880,723, 547, 446, 2, -1, 0, -3, 2, 3, 939, 879, 651,=
2025-03-10 12:03:17.930,765, 561, 400, -1, -3, -1, -4, -1, 2, 932, 873, 647,=
2025-03-10 12:03:17.980,725, 544, 449, 0, -1, 1, -3, -1, 2, 932, 876, 645,=
2025-03-10 12:03:18.040,719, 565, 437, 0, 0, -1, -3, 1, 3, 933, 884, 657,=
2025-03-10 12:03:18.091,714, 540, 431, -2, 2, -4, -3, 0, 2, 937, 881, 655,=
2025-03-10 12:03:18.140,745, 555, 416, -3, 0, -1, -3, 1, 2, 940, 872, 596,=
2025-03-10 12:03:18.190,678, 565, 462, -9, 0, -5, -2, 0, 1, 931, 866, 579,=
2025-03-10 12:03:18.250,741, 511, 451, -1, -7, -2, -3, 0, 3, 935, 868, 479,=
2025-03-10 12:03:18.306,693, 516, 497, 1, 0, -16, -2, -1, 2, 947, 892, 256,=
2025-03-10 12:03:18.360,853, 590, 187, 31, -16, 13, -2, -2, 3, 962, 942, 625,=
2025-03-10 12:03:18.415,661, 592, 362, 6, -9, 20, -1, 0, 4, 960, 951, 746,=
2025-03-10 12:03:18.470,709, 651, 349, 12, 10, 12, -2, 1, 4, 953, 930, 790,=
2025-03-10 12:03:18.524,594, 544, 459, -11, 36, -22, -3, -2, 5, 946, 888, 744,=
2025-03-10 12:03:18.580,742, 638, 486, 38, -12, -20, 0, 0, 3, 949, 892, 589,=
2025-03-10 12:03:18.630,561, 496, 334, 24, -14, 35, -3, -1, 4, 958, 944, 733,=
2025-03-10 12:03:18.690,692, 649, 378, -10, 10, 8, -4, -1, 5, 967, 950, 789,=
2025-03-10 12:03:18.740,838, 570, 113, -68, 32, -43, -3, 0, 5, 932, 832, 691,=
2025-03-10 12:03:18.800,589, 649, 697, -28, 7, -8, -2, 1, 3, 917, 693, 487,=
2025-03-10 12:03:19.130,712, 565, 436, -8, -2, 0, -2, 0, 2, 924, 775, 545,≠
2025-03-10 12:03:19.191,705, 545, 436, -7, -2, 1, -3, 1, 2, 927, 781, 541,≠
2025-03-10 12:03:19.245,729, 554, 414, -1, -2, 0, -3, 0, 2, 921, 785, 548,≠
2025-03-10 12:03:19.295,718, 551, 437, -2, 1, 1, -4, 0, 0, 935, 804, 566,≠
2025-03-10 12:03:19.350,721, 557, 419, 0, -2, -1, -2, -1, 2, 922, 803, 576,≠
2025-03-10 12:03:19.405,708, 546, 441, -3, -2, -2, -2, 2, 2, 929, 811, 573,≠
2025-03-10 12:03:19.458,733, 570, 416, -5, -1, -1, -2, -1, 3, 932, 819, 568,≠
2025-03-10 12:03:19.511,721, 549, 427, -3, -2, -1, -4, -1, 1, 929, 832, 557,≠
2025-03-10 12:03:19.560,721, 555, 430, 0, -1, -1, -2, -1, 2, 932, 843, 562,≠
2025-03-10 12:03:19.621,731, 571, 422, -2, 0, -1, -2, -1, 3, 936, 842, 573,≠
2025-03-10 12:03:19.676,728, 547, 447, -2, -1, -3, -2, -1, 3, 929, 843, 534,≠
2025-03-10 12:03:19.730,725, 555, 418, -3, 0, -2, -2, 1, 3, 940, 843, 529,≠
2025-03-10 12:03:19.780,693, 560, 442, 1, -1, -1, -3, 1, 1, 928, 838, 515,≠
2025-03-10 12:03:19.830,725, 600, 390, 1, -3, 0, -2, 0, 3, 940, 850, 507,≠
2025-03-10 12:03:19.890,738, 539, 397, -2, -1, -2, -3, -1, 1, 933, 843, 504,≠
2025-03-10 12:03:19.940,717, 588, 415, 0, 0, -2, -3, 0, 2, 934, 844, 510,≠
2025-03-10 12:03:19.990,740, 540, 444, -1, 0, -2, -2, 1, 2, 934, 839, 494,≠
2025-03-10 12:03:20.040,753, 601, 403, 17, 2, 3, -2, -1, 2, 931, 870, 638,≠
2025-03-10 12:03:20.100,652, 562, 434, -15, 6, -9, -3, 1, 3, 944, 882, 617,≠
2025-03-10 12:03:20.156,597, 542, 501, 1, -20, -1, -1, -1, 2, 942, 863, 341,≠
2025-03-10 12:03:20.214,1019, 454, 549, 84, -14, -11, -1, -2, 3, 962, 928, 504,≠
2025-03-10 12:03:20.266,664, 383, 430, 22, 4, 21, -4, -1, 4, 963, 952, 768,≠
2025-03-10 12:03:20.323,543, 427, 180, -19, 33, -11, -3, -2, 5, 945, 909, 752,≠
2025-03-10 12:03:20.380,1266, 505, 339, 46, 7, -26, -1, -1, 3, 945, 850, 384,≠
2025-03-10 12:03:20.430,999, 691, 232, 13, 7, 39, -2, 0, 5, 976, 953, 664,≠
2025-03-10 12:03:20.488,704, 530, 552, -7, 1, 2, -3, 0, 5, 949, 920, 763,≠
2025-03-10 12:03:20.540,456, 615, 808, 5, -11, -29, -1, -1, 3, 941, 900, 758,≠
2025-03-10 12:03:20.600,602, 1062, -64, -3, -19, 0, -2, -1, 5, 954, 927, 742,≠
2025-03-10 12:03:20.656,382, 586, 347, -18, 52, 25, -2, -2, 5, 965, 893, 497,≠
2025-03-10 12:03:20.710,897, 643, 452, -2, 25, 14, -1, 0, 4, 937, 763, 619,≠
2025-03-10 12:03:20.764,644, 516, 543, -45, 27, -43, -2, -1, 1, 914, 792, 625,≠
2025-03-10 12:03:20.821,510, 551, 666, -4, -15, 8, -1, -1, 2, 912, 789, 583,≠
2025-03-10 12:03:21.110,716, 553, 441, 1, -7, -1, -1, 1, 2, 913, 772, 506,≈
2025-03-10 12:03:21.160,721, 579, 440, 1, -7, -1, -2, -1, 3, 916, 778, 507,≈
2025-03-10 12:03:21.223,717, 565, 422, -3, -6, -2, -3, -1, 2, 921, 793, 503,≈
2025-03-10 12:03:21.273,730, 580, 395, 0, -3, 1, -3, 0, 3, 913, 804, 482,≈
2025-03-10 12:03:21.330,732, 540, 414, -1, -1, -2, -3, -1, 2, 917, 825, 486,≈
2025-03-10 12:03:21.382,691, 563, 420, -1, -1, -3, -2, -1, 3, 924, 845, 492,≈
2025-03-10 12:03:21.440,679, 599, 467, 0, -2, -14, -4, -1, 3, 938, 872, 217,≈
2025-03-10 12:03:21.492,948, 751, 562, 47, -21, 3, 0, -3, 2, 954, 930, 608,≈
2025-03-10 12:03:21.550,814, 572, 501, 25, -12, 11, -2, -1, 4, 958, 940, 752,≈
2025-03-10 12:03:21.604,731, 694, 278, -11, 17, 20, -1, -2, 5, 969, 931, 742,≈
2025-03-10 12:03:21.660,802, 509, 447, -10, 14, -6, -3, -1, 5, 951, 909, 754,≈
2025-03-10 12:03:21.715,515, 640, 663, -15, 15, -15, -1, -1, 3, 940, 850, 614,≈
2025-03-10 12:03:21.776,853, 791, 270, 31, -4, -15, -2, -2, 5, 953, 893, 560,≈
2025-03-10 12:03:21.828,311, 494, 419, -7, -3, 10, -2, -1, 4, 968, 939, 694,≈
2025-03-10 12:03:21.880,648, 538, 277, 10, 14, 19, -4, -2, 6, 966, 930, 670,≈
2025-03-10 12:03:21.938,768, 547, 581, 0, -3, 8, -4, -1, 5, 952, 913, 743,≈
2025-03-10 12:03:21.993,730, 530, 340, -44, 42, -30, -3, 1, 5, 938, 874, 743,≈
2025-03-10 12:03:22.050,534, 567, 613, -26, 4, -11, -3, -1, 1, 921, 762, 586,≈
2025-03-10 12:03:22.570,715, 560, 435, -3, -2, -1, 0, 0, 0, 925, 774, 179,<
2025-03-10 12:03:22.621,719, 560, 432, -4, -1, -1, 0, 0, 0, 926, 773, 161,<
2025-03-10 12:03:22.680,713, 546, 458, -4, 1, -1, -2, -1, 0, 930, 778, 128,<
2025-03-10 12:03:22.730,709, 545, 455, -2, -2, -2, -2, 0, 1, 923, 778, 174,<
2025-03-10 12:03:22.787,719, 547, 460, -1, -2, 1, -2, 0, 0, 933, 798, 240,<
2025-03-10 12:03:22.840,732, 551, 449, -3, 0, -2, -3, 0, 3, 924, 804, 263,<
2025-03-10 12:03:22.890,721, 541, 464, -1, -2, 1, -2, 0, 1, 932, 818, 277,<
2025-03-10 12:03:22.941,720, 554, 440, -3, 1, -2, -2, 0, 2, 929, 817, 284,<
2025-03-10 12:03:22.992,708, 545, 455, -1, -3, 0, -2, 0, 1, 934, 834, 314,<
2025-03-10 12:03:23.050,717, 552, 449, -3, 0, -1, -2, 0, 0, 934, 837, 344,<
2025-03-10 12:03:23.100,715, 552, 442, -3, -2, 1, -2, 0, 2, 935, 838, 345,<
2025-03-10 12:03:23.156,724, 538, 449, -2, -2, 1, -3, -1, 0, 937, 850, 393,<
2025-03-10 12:03:23.206,733, 538, 453, 2, -5, 2, -1, 0, 1, 940, 860, 434,<
2025-03-10 12:03:23.260,763, 544, 420, 11, -9, 3, -4, -1, 1, 942, 882, 538,<
2025-03-10 12:03:23.320,1033, 344, 286, 3, -7, -11, -3, 0, 1, 952, 917, 627,<
2025-03-10 12:03:23.373,737, 579, 358, 5, -11, -8, -2, 1, 2, 961, 943, 537,<
2025-03-10 12:03:23.423,567, 437, 422, 11, 3, -14, -5, 0, 2, 966, 935, 443,<
2025-03-10 12:03:23.480,1357, 511, 634, -4, 15, 1, -2, -2, 2, 965, 880, 8,<
2025-03-10 12:03:23.531,883, 739, 338, -9, 11, 61, -3, -1, 1, 966, 928, 14,<
2025-03-10 12:03:23.590,362, 544, 509, -18, 4, 22, -4, 1, 3, 966, 943, 406,<
2025-03-10 12:03:23.640,872, 468, 66, -22, 24, -41, -4, 0, 1, 935, 852, 596,<
2025-03-10 12:03:23.700,607, 630, 790, -25, 22, -22, -2, 2, 1, 927, 721, 169,<
2025-03-10 12:03:24.020,739, 552, 397, -1, -4, 0, -3, 0, 3, 935, 869, 678,≤
2025-03-10 12:03:24.071,749, 539, 391, -1, -3, 0, -2, 1, 3, 934, 869, 681,≤
2025-03-10 12:03:24.130,717, 564, 439, -1, -1, 1, -3, -1, 2, 935, 871, 682,≤
2025-03-10 12:03:24.180,738, 551, 407, 1, -2, 0, -3, 0, 1, 937, 879, 696,≤
2025-03-10 12:03:24.237,717, 555, 426, 0, -1, 0, -3, 1, 2, 936, 884, 702,≤
2025-03-10 12:03:24.290,745, 547, 393, 0, -1, -1, -4, -1, 4, 942, 894, 715,≤
2025-03-10 12:03:24.340,727, 564, 434, -2, -1, 0, -2, -1, 2, 942, 900, 716,≤
2025-03-10 12:03:24.396,730, 565, 393, -1, 0, 0, -4, 0, 2, 937, 896, 712,≤
2025-03-10 12:03:24.450,728, 562, 422, -2, 0, 0, -3, -2, 3, 946, 901, 711,≤
2025-03-10 12:03:24.503,742, 556, 414, -1, 0, 0, -3, -1, 3, 938, 900, 704,≤
2025-03-10 12:03:24.556,731, 533, 427, 1, 0, -1, -2, 0, 2, 945, 904, 710,≤
2025-03-10 12:03:24.605,732, 545, 411, 2, -1, 1, -2, -1, 1, 949, 911, 711,≤
2025-03-10 12:03:24.660,741, 543, 384, -2, -2, -3, -2, -1, 3, 949, 917, 682,≤
2025-03-10 12:03:24.716,733, 545, 388, 2, 1, -3, -1, -1, 1, 958, 922, 656,≤
2025-03-10 12:03:24.770,693, 499, 473, 7, -7, -4, -4, -1, 1, 954, 936, 653,≤
2025-03-10 12:03:24.823,630, 638, 320, 21, 19, -6, -2, 0, 2, 959, 908, 412,≤
2025-03-10 12:03:24.873,799, 553, 356, -6, 8, 0, -2, -2, 3, 959, 896, 12,≤
2025-03-10 12:03:24.923,421, 786, 264, 3, -6, 25, -3, -1, 3, 969, 951, 562,≤
2025-03-10 12:03:24.980,736, 516, 477, 17, 0, 5, -4, -1, 3, 964, 940, 710,≤
2025-03-10 12:03:25.039,688, 464, 436, -27, 51, -31, -4, -1, 3, 948, 793, 534,≤
2025-03-10 12:03:25.090,922, 612, 312, 67, -7, -23, -3, 1, 4, 958, 878, 522,≤
2025-03-10 12:03:25.140,956, 733, 525, 8, -7, 42, -4, 0, 4, 970, 956, 619,≤
2025-03-10 12:03:25.190,711, 468, 387, 11, 7, 4, -4, -1, 6, 962, 936, 746,≤
2025-03-10 12:03:25.256,764, 517, 151, -79, 78, -44, -3, -1, 5, 942, 725, 653,≤
2025-03-10 12:03:25.315,533, 617, 769, -25, -15, 1, -1, 0, 2, 906, 282, 306,≤
2025-03-10 12:03:25.690,724, 553, 423, -2, -2, -1, -3, -1, 2, 921, 744, 488,>
2025-03-10 12:03:25.740,727, 546, 425, -4, -2, -1, -1, 1, 2, 921, 747, 489,>
2025-03-10 12:03:25.800,718, 554, 440, -4, -4, -3, -3, 0, 2, 930, 760, 495,>
2025-03-10 12:03:25.855,733, 541, 442, 0, -5, -1, -2, 0, 2, 929, 774, 496,>
2025-03-10 12:03:25.906,731, 556, 418, -4, -3, -3, -3, -1, 1, 929, 793, 503,>
2025-03-10 12:03:25.964,744, 564, 423, -4, -5, -2, -3, -1, 2, 933, 813, 483,>
2025-03-10 12:03:26.014,713, 551, 437, -4, 0, -3, -4, 1, 2, 934, 825, 461,>
2025-03-10 12:03:26.072,736, 546, 417, -4, -5, -2, -2, 0, 3, 935, 838, 447,>
2025-03-10 12:03:26.122,693, 556, 459, -5, -6, -3, 0, 0, 1, 934, 845, 439,>
2025-03-10 12:03:26.173,702, 582, 435, -4, -6, -17, -3, -1, 3, 952, 880, 228,>
2025-03-10 12:03:26.236,815, 1059, 569, 66, -8, 23, -1, -1, 2, 953, 932, 649,>
2025-03-10 12:03:26.289,687, 613, 501, 15, 5, 15, -2, -2, 3, 961, 946, 771,>
2025-03-10 12:03:26.341,1210, 546, 437, 3, 27, 4, -2, -1, 4, 972, 940, 592,>
2025-03-10 12:03:26.391,1150, 486, 478, -2, 28, 2, -2, 0, 2, 965, 893, 13,>
2025-03-10 12:03:26.453,891, 315, 270, -8, 15, -10, -4, -1, 3, 947, 885, 666,>
2025-03-10 12:03:26.510,561, 652, 677, -20, 12, -18, -2, -1, 1, 937, 855, 661,>
2025-03-10 12:03:27.132,704, 575, 461, -7, -7, 0, -3, 0, 2, 926, 772, 497,≥
2025-03-10 12:03:27.187,706, 563, 468, -7, -8, 1, -3, 1, 1, 928, 779, 496,≥
2025-03-10 12:03:27.237,744, 536, 408, 2, -6, -2, -5, -1, 3, 926, 792, 514,≥
2025-03-10 12:03:27.290,719, 545, 437, -4, -3, -2, -3, 0, 1, 932, 814, 527,≥
2025-03-10 12:03:27.340,718, 559, 419, -4, -2, -1, -2, 0, 2, 933, 820, 525,≥
2025-03-10 12:03:27.403,724, 559, 434, -5, -3, -2, -2, -1, 1, 939, 830, 513,≥
2025-03-10 12:03:27.454,717, 550, 407, -4, -3, -2, -2, 0, 4, 934, 825, 476,≥
2025-03-10 12:03:27.514,682, 549, 482, 12, -26, 0, -3, 0, 2, 935, 848, 387,≥
2025-03-10 12:03:27.563,1020, 603, 404, 83, -2, -5, -2, -1, 2, 953, 917, 593,≥
2025-03-10 12:03:27.620,537, 758, 375, 9, 5, 18, -4, 0, 4, 963, 943, 765,≥
2025-03-10 12:03:27.672,658, 561, 506, 1, 20, 4, -1, -1, 5, 961, 935, 735,≥
2025-03-10 12:03:27.726,833, 528, 333, -9, 33, 1, -2, -1, 4, 963, 881, 475,≥
2025-03-10 12:03:27.780,802, 301, 282, -22, 40, -18, -2, -1, 4, 950, 832, 511,≥
2025-03-10 12:03:27.837,495, 594, 708, 46, -58, 30, -2, 0, 1, 955, 856, 364,≥
2025-03-10 12:03:27.890,1195, 1142, 708, 32, -25, 44, -4, -2, 6, 971, 949, 526,≥
2025-03-10 12:03:27.952,592, 436, 320, 14, 5, 13, -4, -1, 4, 968, 954, 696,≥
2025-03-10 12:03:28.005,907, 441, 21, -41, 36, -43, -3, 0, 5, 946, 882, 755,≥
2025-03-10 12:03:28.060,631, 642, 769, -22, 18, -25, -2, -1, 1, 927, 699, 475,≥
2025-03-10 12:03:28.350,700, 554, 436, -5, -4, -1, -2, -1, 2, 921, 738, 526,±
2025-03-10 12:03:28.410,725, 571, 420, -6, -4, -1, -2, -1, 2, 920, 736, 523,±
2025-03-10 12:03:28.464,726, 573, 392, -5, -3, -2, -2, 0, 2, 928, 760, 537,±
2025-03-10 12:03:28.513,716, 567, 413, -3, 1, 0, -3, -2, 3, 931, 762, 547,±
2025-03-10 12:03:28.570,728, 564, 433, -4, 0, -1, -2, -1, 3, 927, 765, 527,±
2025-03-10 12:03:28.622,717, 561, 442, -4, 0, -3, -2, -1, 2, 927, 768, 500,±
2025-03-10 12:03:28.672,725, 569, 412, -5, 1, -1, -2, -1, 2, 925, 771, 442,±
2025-03-10 12:03:28.730,722, 561, 426, -6, -2, -2, -2, 0, 2, 930, 785, 447,±
2025-03-10 12:03:28.787,717, 562, 440, -2, -1, -1, -3, -1, 1, 931, 793, 447,±
2025-03-10 12:03:28.840,725, 566, 429, -3, -3, -2, -3, 0, 2, 937, 809, 457,±
2025-03-10 12:03:28.890,725, 554, 445, -2, -3, 0, -4, 0, 2, 936, 828, 484,±
2025-03-10 12:03:28.940,729, 555, 437, 0, 1, 1, -2, -1, 3, 943, 838, 504,±
2025-03-10 12:03:29.000,724, 600, 404, -4, -4, 2, -1, 0, 3, 941, 845, 523,±
2025-03-10 12:03:29.053,729, 552, 407, 1, -4, -2, -1, 0, 1, 941, 853, 527,±
2025-03-10 12:03:29.105,603, 525, 516, 22, -10, -2, -2, -1, 2, 940, 849, 506,±
2025-03-10 12:03:29.164,886, 631, 437, 17, -9, -13, -3, -1, 3, 960, 900, 137,±
2025-03-10 12:03:29.214,521, 255, 212, 19, 3, 28, -4, -1, 4, 972, 958, 719,±
2025-03-10 12:03:29.270,669, 588, 466, -3, 5, -3, -3, 0, 5, 961, 944, 792,±
2025-03-10 12:03:29.322,672, 557, 547, -32, 0, -34, -4, -1, 3, 950, 911, 724,±
2025-03-10 12:03:29.380,695, 794, 208, 15, 1, 8, -1, -1, 4, 970, 941, 715,±
2025-03-10 12:03:29.433,729, 402, 435, -1, 42, 33, -3, -1, 4, 964, 918, 669,±
2025-03-10 12:03:29.490,604, 496, 344, 3, 44, -39, -3, -1, 2, 952, 843, 630,±
2025-03-10 12:03:29.550,1112, -158, 95, 62, -20, -28, -1, 0, 3, 961, 892, 608,±
2025-03-10 12:03:29.603,781, 689, 208, 18, -5, 43, -3, 0, 6, 975, 958, 650,±
2025-03-10 12:03:29.655,667, 529, 456, -4, 10, 3, -4, 0, 4, 967, 925, 766,±
2025-03-10 12:03:29.713,737, 405, 431, -73, 71, -49, -3, -1, 2, 925, 629, 475,±
2025-03-10 12:03:30.060,749, 542, 428, -3, -5, -4, -1, 1, 2, 916, 804, 546,∓
2025-03-10 12:03:30.119,732, 541, 401, -3, -4, -5, -2, -1, 3, 915, 805, 544,∓
2025-03-10 12:03:30.170,687, 585, 439, -3, -4, -2, -1, 0, 4, 919, 813, 529,∓
2025-03-10 12:03:30.220,697, 570, 434, -6, -1, -6, -3, 1, 1, 921, 821, 488,∓
2025-03-10 12:03:30.271,684, 558, 505, 1, -15, 0, -1, 0, 2, 925, 827, 360,∓
2025-03-10 12:03:30.335,746, 544, 418, 11, -6, -19, -1, -1, 2, 945, 876, 12,∓
2025-03-10 12:03:30.387,869, 641, 338, 41, -31, 40, -1, -2, 3, 968, 945, 694,∓
2025-03-10 12:03:30.440,532, 697, 486, 13, -2, 15, -3, -1, 5, 963, 947, 785,∓
2025-03-10 12:03:30.500,682, 428, 193, -19, 50, -6, -3, -2, 3, 959, 878, 767,∓
2025-03-10 12:03:30.554,668, 678, 714, 15, 23, -6, -1, 0, 4, 939, 716, 418,∓
2025-03-10 12:03:30.610,937, 907, 265, 19, -24, 13, -3, 0, 4, 961, 922, 673,∓
2025-03-10 12:03:30.660,699, 453, 305, 0, 5, 22, -2, -1, 4, 968, 948, 764,∓
2025-03-10 12:03:30.721,705, 424, 173, -43, 15, -45, -3, -2, 4, 955, 907, 781,∓
2025-03-10 12:03:30.771,600, 684, 813, 11, -53, 33, -1, -2, 4, 957, 905, 727,∓
2025-03-10 12:03:30.830,620, 693, 268, -15, 41, 43, -1, -2, 4, 977, 917, 619,∓
2025-03-10 12:03:30.887,943, 125, 299, -35, 34, -34, -3, 1, 3, 942, 647, 587,∓
2025-03-10 12:03:30.940,571, 635, 686, -34, 41, -34, -2, 0, 1, 889, 660, 580,∓
2025-03-10 12:03:31.280,706, 559, 425, -5, 0, 0, -1, 0, 4, 884, 666, 470,∞
2025-03-10 12:03:31.330,704, 551, 440, -5, 0, 0, -1, 0, 4, 882, 666, 469,∞
2025-03-10 12:03:31.388,688, 556, 462, -2, -1, 0, -1, -1, 1, 882, 677, 449,∞
2025-03-10 12:03:31.440,689, 565, 444, -5, 0, 0, -2, -1, 1, 883, 687, 409,∞
2025-03-10 12:03:31.490,689, 572, 462, -5, -2, 0, -1, -1, 1, 893, 696, 398,∞
2025-03-10 12:03:31.540,703, 552, 449, -1, -2, 0, -2, 0, 1, 903, 728, 417,∞
2025-03-10 12:03:31.594,692, 568, 449, 0, -1, 0, -1, 0, 2, 908, 743, 486,∞
2025-03-10 12:03:31.650,705, 574, 445, 0, -1, 1, -2, 0, 0, 916, 759, 554,∞
2025-03-10 12:03:31.703,713, 555, 439, 0, -3, 0, -1, 0, 2, 924, 772, 579,∞
2025-03-10 12:03:31.755,700, 561, 453, -1, -3, 3, -2, -3, 2, 932, 789, 588,∞
2025-03-10 12:03:31.810,705, 563, 405, 4, -12, 3, -3, -2, 2, 939, 820, 613,∞
2025-03-10 12:03:31.860,742, 560, 403, -1, 0, -1, -3, 0, 1, 934, 821, 617,∞
2025-03-10 12:03:31.915,706, 567, 462, -3, 2, -2, -1, -2, 1, 934, 827, 606,∞
2025-03-10 12:03:31.970,739, 566, 410, 1, -2, -1, -2, -1, 3, 930, 828, 619,∞
2025-03-10 12:03:32.023,697, 549, 460, 4, 1, 1, -2, -1, 2, 935, 827, 601,∞
2025-03-10 12:03:32.072,669, 532, 487, 15, -3, 1, -2, -1, 2, 934, 824, 615,∞
2025-03-10 12:03:32.130,712, 574, 394, 8, -10, 4, -2, -2, 2, 932, 821, 609,∞
2025-03-10 12:03:32.183,750, 672, 519, 8, 0, -9, -2, -1, 3, 936, 860, 526,∞
2025-03-10 12:03:32.240,928, 569, 49, -28, 5, -14, -1, 0, 2, 937, 843, 593,∞
2025-03-10 12:03:32.290,557, 745, 783, 2, -8, 2, -2, -1, 1, 942, 868, 624,∞
2025-03-10 12:03:32.340,584, 537, 428, 36, -38, 29, -2, -1, 3, 941, 901, 744,∞
2025-03-10 12:03:32.404,730, 517, 523, 18, 13, -9, -2, 0, 3, 960, 907, 674,∞
2025-03-10 12:03:32.456,820, 704, 330, -32, 29, 11, -1, -1, 4, 962, 901, 166,∞
2025-03-10 12:03:32.515,794, 354, 930, 12, -34, -40, -2, 0, 3, 948, 910, 336,∞
2025-03-10 12:03:32.567,830, 662, 429, 12, -35, 8, -1, -1, 4, 962, 935, 670,∞
2025-03-10 12:03:32.622,645, 943, 403, -6, 13, 30, -2, -1, 3, 970, 943, 623,∞
2025-03-10 12:03:32.680,638, 272, 650, 2, -15, -15, -3, -1, 2, 961, 938, 663,∞
2025-03-10 12:03:32.736,699, 560, 499, 17, -10, -14, -2, -2, 2, 953, 920, 715,∞
2025-03-10 12:03:32.790,457, 576, 207, -31, 34, 14, -3, 0, 2, 962, 873, 317,∞
2025-03-10 12:03:32.851,1023, 267, 554, -14, 15, -26, -2, -1, 3, 936, 783, 489,∞
2025-03-10 12:03:33.162,661, 564, 522, -2, -4, 4, -2, 0, 0, 900, 725, 422,∑
2025-03-10 12:03:33.213,653, 558, 531, 2, -6, 4, -1, 0, 1, 903, 727, 419,∑
2025-03-10 12:03:33.269,708, 562, 456, 2, -7, 4, 0, -1, -1, 910, 726, 422,∑
2025-03-10 12:03:33.320,707, 549, 461, -2, 0, 0, -1, -1, 1, 912, 741, 416,∑
2025-03-10 12:03:33.370,714, 563, 441, -3, -1, 2, 1, -2, 0, 909, 750, 431,∑
2025-03-10 12:03:33.420,703, 560, 469, 0, -1, 1, -2, 1, 0, 917, 770, 446,∑
2025-03-10 12:03:33.480,703, 565, 471, -3, -1, 1, -2, 2, -1, 914, 769, 427,∑
2025-03-10 12:03:33.534,699, 551, 490, -6, 1, -1, -3, 1, 0, 922, 777, 410,∑
2025-03-10 12:03:33.588,697, 572, 468, -1, -1, 0, -3, 0, 0, 920, 785, 399,∑
2025-03-10 12:03:33.640,706, 543, 469, -1, -2, 0, -2, 0, 0, 923, 788, 361,∑
2025-03-10 12:03:33.690,695, 541, 447, 7, -10, 2, -1, 0, 1, 929, 803, 416,∑
2025-03-10 12:03:33.742,753, 565, 431, 5, -7, 1, -2, 0, 2, 929, 816, 478,∑
2025-03-10 12:03:33.791,746, 544, 414, 0, 1, -6, -2, 0, 1, 939, 826, 511,∑
2025-03-10 12:03:33.853,632, 613, 532, 20, -14, 8, -1, -1, 2, 938, 862, 670,∑
2025-03-10 12:03:33.904,654, 550, 538, 17, -29, 20, -3, 0, 2, 947, 893, 738,∑
2025-03-10 12:03:33.960,790, 572, 295, -7, -2, -6, -2, 0, 3, 950, 919, 670,∑
2025-03-10 12:03:34.018,663, 522, 436, 14, 5, -15, -3, -1, 3, 956, 916, 577,∑
2025-03-10 12:03:34.070,822, 560, 384, -21, 2, -10, -2, -2, 3, 962, 891, 10,∑
2025-03-10 12:03:34.120,859, 597, 627, 12, -32, 46, -4, 0, 2, 976, 956, 494,∑
2025-03-10 12:03:34.176,677, 557, 322, 5, 0, 12, -3, 0, 4, 972, 961, 661,∑
2025-03-10 12:03:34.235,618, 441, 344, -5, 17, -10, -5, 0, 4, 954, 912, 700,∑
2025-03-10 12:03:34.286,642, 562, 644, 16, 8, -23, -2, -2, 2, 942, 834, 574,∑
2025-03-10 12:03:34.340,711, 499, 252, -1, 7, -8, -1, -1, 3, 956, 883, 447,∑
2025-03-10 12:03:34.390,864, 591, 336, 24, 5, 11, -2, -2, 4, 972, 927, 447,∑
2025-03-10 12:03:34.452,502, 681, 506, 15, 6, 32, -2, -1, 4, 972, 955, 607,∑
2025-03-10 12:03:34.500,681, 594, 418, 0, -2, 6, -3, 0, 4, 972, 950, 670,∑
2025-03-10 12:03:34.554,763, 516, 436, -27, 33, -18, -3, -2, 5, 962, 846, 249,∑
2025-03-10 12:03:34.610,785, 465, 349, 1, 5, -3, -3, -2, 3, 972, 878, 9,∑
2025-03-10 12:03:34.669,546, 708, 430, -1, -13, 39, -3, -1, 3, 976, 958, 266,∑
2025-03-10 12:03:34.718,749, 542, 372, 2, 10, 8, -4, -1, 4, 971, 950, 419,∑
2025-03-10 12:03:34.770,925, 564, 191, 13, 15, -30, -4, 0, 4, 929, 758, 653,∑
2025-03-10 12:03:34.830,623, 607, 629, -30, 33, -15, -1, 0, 3, 919, 470, 430,∑
2025-03-10 12:03:35.170,715, 542, 419, -6, -2, 0, -2, 0, 2, 902, 536, 166,∏
2025-03-10 12:03:35.220,706, 544, 431, -6, -1, -1, -1, -1, 2, 899, 535, 162,∏
2025-03-10 12:03:35.271,702, 584, 455, -6, -1, 2, -2, 1, 2, 904, 522, 137,∏
2025-03-10 12:03:35.330,710, 546, 454, -2, -2, -1, -3, -1, 3, 897, 536, 130,∏
2025-03-10 12:03:35.390,711, 580, 440, -4, -3, -2, -2, 0, 1, 909, 592, 135,∏
2025-03-10 12:03:35.440,715, 546, 436, 2, -6, -3, -2, 0, 3, 908, 645, 170,∏
2025-03-10 12:03:35.490,687, 573, 455, 0, -6, -1, -3, 0, 1, 909, 680, 252,∏
2025-03-10 12:03:35.550,747, 559, 425, -3, -4, 0, -1, -1, 2, 913, 699, 274,∏
2025-03-10 12:03:35.602,698, 551, 447, 3, -1, -3, -1, -1, 2, 926, 722, 351,∏
2025-03-10 12:03:35.653,757, 561, 404, 4, -8, 0, -2, -1, 3, 921, 733, 400,∏
2025-03-10 12:03:35.710,703, 570, 430, -5, -1, -7, -4, 0, 2, 924, 755, 425,∏
2025-03-10 12:03:35.763,616, 552, 546, 9, -21, -2, -2, -1, 2, 930, 764, 342,∏
2025-03-10 12:03:35.819,1302, 547, 599, 76, -20, 0, -2, -1, 3, 962, 916, 351,∏
2025-03-10 12:03:35.870,863, 618, 345, -13, 3, 34, -4, -1, 4, 966, 945, 678,∏
2025-03-10 12:03:35.930,672, 484, 456, 21, -5, -2, -1, -1, 4, 953, 913, 744,∏
2025-03-10 12:03:35.986,660, 510, 279, -36, 38, -56, -3, 0, 4, 936, 768, 609,∏
2025-03-10 12:03:36.040,703, 593, 643, 30, -47, -15, -2, 0, 4, 944, 863, 654,∏
2025-03-10 12:03:36.090,643, 785, 158, 0, 29, 27, -1, 0, 4, 969, 917, 607,∏
2025-03-10 12:03:36.151,765, 713, 219, -2, 34, 25, -2, -2, 4, 961, 876, 387,∏
2025-03-10 12:03:36.204,773, 382, 257, -6, -26, -43, -1, 0, 5, 940, 881, 748,∏
2025-03-10 12:03:36.261,739, 239, 392, 22, -15, -14, -2, -2, 5, 956, 928, 764,∏
2025-03-10 12:03:36.310,523, 585, 221, 2, 29, 38, -3, 0, 5, 973, 937, 649,∏
2025-03-10 12:03:36.369,762, 535, 374, 5, 18, 10, -5, 1, 4, 963, 878, 682,∏
2025-03-10 12:03:36.420,838, 563, 202, -53, 52, -43, -4, -1, 2, 913, 766, 677,∏
2025-03-10 12:03:36.484,444, 600, 813, -31, 11, -11, -1, 0, 1, 897, 712, 583,∏
2025-03-10 12:03:36.790,702, 546, 488, -1, -2, -3, -2, 1, 2, 908, 717, 438,√
2025-03-10 12:03:36.842,699, 543, 488, 0, -3, -3, -2, 1, 2, 909, 718, 445,√
2025-03-10 12:03:36.902,699, 547, 487, -2, -3, -1, -2, 1, 1, 907, 729, 444,√
2025-03-10 12:03:36.955,727, 565, 434, -4, -1, 0, -1, 0, 1, 909, 727, 425,√
2025-03-10 12:03:37.004,725, 555, 451, -7, 0, 0, -2, 2, 2, 912, 729, 353,√
2025-03-10 12:03:37.060,716, 538, 460, -5, 0, -1, -2, -1, 1, 913, 737, 349,√
2025-03-10 12:03:37.110,706, 547, 464, -3, 0, -1, -2, 1, 1, 921, 747, 378,√
2025-03-10 12:03:37.161,696, 540, 463, -2, 0, 0, -3, 1, 2, 921, 756, 406,√
2025-03-10 12:03:37.217,716, 559, 456, -2, -1, 0, -3, -1, 0, 923, 762, 396,√
2025-03-10 12:03:37.270,706, 537, 461, -2, -1, 0, -2, 0, 2, 925, 770, 361,√
2025-03-10 12:03:37.321,722, 551, 449, -3, -2, 2, -2, -1, 1, 923, 778, 369,√
2025-03-10 12:03:37.371,687, 539, 481, -3, 0, -4, -2, 0, 0, 926, 790, 372,√
2025-03-10 12:03:37.430,654, 560, 484, 1, -5, 3, -2, 0, -1, 931, 800, 375,√
2025-03-10 12:03:37.484,691, 534, 423, 16, -9, 2, -2, 0, 0, 933, 800, 442,√
2025-03-10 12:03:37.536,754, 561, 351, 5, 9, -9, -1, 0, 1, 930, 782, 435,√
2025-03-10 12:03:37.590,630, 534, 550, 15, -13, 5, -1, -1, 2, 934, 829, 322,√
2025-03-10 12:03:37.644,806, 725, 396, 45, 1, -1, -1, -1, 3, 958, 914, 468,√
2025-03-10 12:03:37.700,609, 564, 580, 37, 4, 10, -1, -1, 3, 963, 931, 710,√
2025-03-10 12:03:37.752,881, 775, 94, -1, 26, 24, -4, -1, 3, 960, 900, 493,√
2025-03-10 12:03:37.805,720, 547, 576, -61, 5, 8, -5, -2, 4, 961, 921, 167,√
2025-03-10 12:03:37.863,928, 470, 548, -16, -58, -45, 0, -1, 2, 945, 931, 546,√
2025-03-10 12:03:37.920,977, 808, 501, 47, -46, 12, -2, -1, 3, 961, 946, 729,√
2025-03-10 12:03:37.970,601, 491, 321, 10, 17, 23, -3, -1, 4, 973, 956, 800,√
2025-03-10 12:03:38.030,736, 499, 227, -38, 55, -52, -3, -2, 2, 945, 915, 793,√
2025-03-10 12:03:38.085,741, 723, 727, 3, 18, -15, -2, 1, 2, 924, 839, 662,√
2025-03-10 12:03:38.505,703, 580, 430, -3, -1, 0, -1, -1, 3, 893, 714, 535,∛
2025-03-10 12:03:38.560,694, 578, 423, -3, -1, -1, -2, 0, 2, 895, 716, 529,∛
2025-03-10 12:03:38.610,700, 584, 439, -2, 1, 0, 1, -1, 3, 895, 711, 501,∛
2025-03-10 12:03:38.666,723, 596, 424, 2, -1, -1, -3, -1, 2, 897, 725, 523,∛
2025-03-10 12:03:38.720,691, 589, 427, 2, -1, 1, 0, -1, 3, 901, 729, 512,∛
2025-03-10 12:03:38.771,693, 579, 450, 11, -11, -1, -2, -1, 2, 909, 776, 406,∛
2025-03-10 12:03:38.830,812, 732, 412, 42, 2, -2, -1, -2, 4, 936, 893, 559,∛
2025-03-10 12:03:38.884,499, 621, 484, 14, 1, 13, -1, -1, 3, 951, 923, 759,∛
2025-03-10 12:03:38.935,537, 745, 210, 14, 38, 27, -3, -1, 5, 955, 916, 702,∛
2025-03-10 12:03:38.990,707, 740, 156, -48, 24, 15, -2, -2, 4, 955, 899, 424,∛
2025-03-10 12:03:39.040,501, 553, 469, 5, -42, -35, -2, 0, 3, 948, 929, 569,∛
2025-03-10 12:03:39.102,789, 756, 502, 36, -33, 17, -1, -2, 3, 957, 943, 746,∛
2025-03-10 12:03:39.152,704, 386, 195, 16, 6, 13, -1, -1, 7, 972, 949, 831,∛
2025-03-10 12:03:39.211,724, 366, 265, -44, 46, -54, -2, -2, 5, 945, 924, 818,∛
2025-03-10 12:03:39.270,897, 699, 614, 15, -16, -33, 1, -1, 4, 929, 851, 702,∛
2025-03-10 12:03:39.330,771, 1125, 305, 25, -21, -8, -1, -2, 4, 952, 925, 774,∛
2025-03-10 12:03:39.383,602, 661, 471, -5, 7, 14, 0, -3, 4, 954, 933, 799,∛
2025-03-10 12:03:39.437,707, 476, 367, 7, 12, -1, -1, -3, 5, 953, 927, 776,∛
2025-03-10 12:03:39.490,723, 645, 362, -9, 11, 7, -1, -2, 4, 960, 930, 763,∛
2025-03-10 12:03:39.540,710, 748, 300, -20, 20, 8, -3, -2, 3, 962, 921, 701,∛
2025-03-10 12:03:39.603,1067, 383, 263, -25, 33, -11, -1, 0, 2, 933, 879, 716,∛
2025-03-10 12:03:39.653,488, 685, 827, -7, 14, 0, 0, 0, 1, 925, 863, 701,∛
2025-03-10 12:03:39.711,604, 600, 443, 20, -24, 17, -1, -1, 1, 931, 852, 725,∛
2025-03-10 12:03:40.095,694, 589, 425, 1, -1, -1, -2, 0, 0, 915, 784, 593,∜
2025-03-10 12:03:40.150,694, 591, 423, 0, -1, -1, 0, -1, 3, 917, 785, 592,∜
2025-03-10 12:03:40.202,691, 571, 458, 1, 0, 1, -2, 0, 2, 920, 790, 597,∜
2025-03-10 12:03:40.253,683, 604, 419, 0, 0, -2, -1, -1, 2, 919, 789, 591,∜
2025-03-10 12:03:40.310,603, 555, 457, 2, -4, 0, -2, -3, 3, 912, 785, 493,∜
2025-03-10 12:03:40.362,811, 639, 342, 3, 4, -12, -2, -1, 2, 928, 818, 300,∜
2025-03-10 12:03:40.416,901, 643, 270, -10, -8, 29, -1, -1, 4, 953, 911, 714,∜
2025-03-10 12:03:40.470,502, 654, 488, 60, 10, 15, -1, -1, 4, 957, 915, 759,∜
2025-03-10 12:03:40.530,708, 786, -59, -30, 35, 35, -2, -1, 3, 965, 905, 489,∜
2025-03-10 12:03:40.584,644, 96, 683, -23, -48, -39, -1, 0, 3, 952, 928, 482,∜
2025-03-10 12:03:40.640,861, 527, 470, 14, -51, -20, -2, -1, 3, 960, 948, 644,∜
2025-03-10 12:03:40.690,561, 791, 205, 31, -15, 22, -2, -2, 4, 967, 949, 769,∜
2025-03-10 12:03:40.751,689, 533, 401, -12, 16, 9, -1, -1, 4, 951, 930, 817,∜
2025-03-10 12:03:40.802,438, 592, 516, -32, 35, -76, -1, -2, 4, 938, 874, 731,∜
2025-03-10 12:03:40.866,674, 542, 424, 20, -62, 24, 0, -1, 3, 945, 906, 796,∜
2025-03-10 12:03:40.918,677, 687, 404, 16, -8, -11, -1, -2, 4, 963, 938, 781,∜
2025-03-10 12:03:40.970,439, 581, 215, 11, 18, 6, -1, -2, 6, 965, 922, 721,∜
2025-03-10 12:03:41.030,740, 522, 218, 0, 17, 0, -1, -3, 3, 965, 913, 512,∜
2025-03-10 12:03:41.083,706, 326, 332, 2, 9, 16, -1, -1, 4, 970, 948, 747,∜
2025-03-10 12:03:41.135,652, 548, 408, -16, 0, 3, -1, -1, 3, 959, 937, 796,∜
2025-03-10 12:03:41.190,753, 644, 596, 6, -14, 3, 0, -1, 3, 961, 925, 782,∜
2025-03-10 12:03:41.240,590, 754, 260, -2, 16, 15, -2, -1, 3, 969, 934, 724,∜
2025-03-10 12:03:41.300,681, 587, 418, -29, 30, 24, -2, -1, 3, 961, 883, 692,∜
2025-03-10 12:03:41.352,816, 555, 254, -70, 61, -39, 0, -1, 3, 929, 790, 585,∜
2025-03-10 12:03:41.410,417, 540, 862, -23, 14, -12, 0, 0, -2, 908, 755, 422,∜
2025-03-10 12:03:41.468,638, 547, 519, 11, -23, 10, 0, -1, -2, 900, 691, 456,∜
2025-03-10 12:03:41.520,701, 601, 470, -1, -1, -4, -1, 0, -3, 909, 688, 433,∜
2025-03-10 12:03:41.570,655, 580, 516, -2, 1, -1, 0, 0, -1, 888, 697, 405,∜
2025-03-10 12:03:41.632,674, 574, 477, -11, -2, -1, 0, 1, -2, 899, 652, 310,∜
2025-03-10 12:03:42.112,683, 562, 463, 0, -1, -1, 0, -1, 0, 867, 720, 279,∫
2025-03-10 12:03:42.160,686, 580, 486, -1, 0, 0, 1, 1, 1, 870, 719, 277,∫
2025-03-10 12:03:42.220,666, 560, 489, 3, 1, -1, -1, -1, -1, 876, 720, 288,∫
2025-03-10 12:03:42.275,668, 567, 489, 2, -2, -3, -1, 0, -1, 879, 718, 308,∫
2025-03-10 12:03:42.320,675, 594, 461, 3, -2, 0, 1, -1, -2, 883, 724, 364,∫
2025-03-10 12:03:42.380,681, 603, 479, 13, -8, 6, 1, 2, 1, 901, 740, 518,∫
2025-03-10 12:03:42.430,723, 580, 426, 10, -2, 5, 0, -1, 1, 913, 757, 599,∫
2025-03-10 12:03:42.484,691, 584, 474, 3, 2, 2, 1, 1, 1, 919, 750, 626,∫
2025-03-10 12:03:42.533,686, 578, 470, 7, 1, 3, -1, 0, 2, 922, 747, 629,∫
2025-03-10 12:03:42.586,702, 609, 429, 4, -1, 4, 0, -2, 1, 922, 746, 637,∫
2025-03-10 12:03:42.636,672, 579, 482, 7, 1, 4, -1, -2, 1, 936, 770, 647,∫
2025-03-10 12:03:42.685,757, 579, 411, 0, -7, 8, 1, -1, 3, 933, 782, 658,∫
2025-03-10 12:03:42.740,681, 589, 416, -1, 1, 3, -1, -2, 2, 931, 800, 697,∫
2025-03-10 12:03:42.799,788, 618, 481, 17, -12, 24, -1, -1, 2, 949, 839, 741,∫
2025-03-10 12:03:42.852,636, 529, 367, 4, -14, 14, -3, -1, 4, 940, 878, 754,∫
2025-03-10 12:03:42.910,817, 591, 399, -16, -9, -15, -3, -1, 4, 951, 919, 677,∫
2025-03-10 12:03:42.967,1013, 588, 479, 13, 9, -15, -2, 1, 3, 957, 919, 599,∫
2025-03-10 12:03:43.020,841, 651, 158, 22, 24, 9, -1, -1, 4, 969, 921, 522,∫
2025-03-10 12:03:43.070,555, 725, 534, 5, 29, 22, -2, 0, 3, 966, 919, 232,∫
2025-03-10 12:03:43.120,759, 489, 106, -27, 31, 8, -2, -1, 3, 952, 814, 76,∫
2025-03-10 12:03:43.184,1037, 387, 422, -39, 21, -26, -3, -1, 2, 891, 622, 516,∫
2025-03-10 12:03:43.240,520, 639, 732, -36, 32, -34, -1, -1, -1, 884, 623, 374,∫
2025-03-10 12:03:43.574,698, 569, 454, -3, -7, 0, -2, 0, 0, 901, 755, 482,∮
2025-03-10 12:03:43.630,693, 559, 461, -2, -8, 2, -2, 1, 0, 904, 763, 484,∮
2025-03-10 12:03:43.683,712, 542, 455, -5, -1, 0, -2, 0, 1, 902, 769, 489,∮
2025-03-10 12:03:43.734,700, 558, 479, -3, -2, 1, -1, 0, 2, 923, 785, 495,∮
2025-03-10 12:03:43.784,716, 551, 452, -3, -3, 0, 0, 0, 1, 915, 786, 457,∮
2025-03-10 12:03:43.840,702, 538, 465, -5, -3, 1, -3, -1, 1, 922, 806, 435,∮
2025-03-10 12:03:43.890,711, 546, 458, -3, -2, 0, -3, 1, 0, 928, 823, 436,∮
2025-03-10 12:03:43.940,742, 555, 424, 0, -7, 1, -3, 0, 2, 928, 828, 467,∮
2025-03-10 12:03:43.998,698, 558, 468, -4, -1, 0, -2, 1, 0, 934, 836, 443,∮
2025-03-10 12:03:44.050,729, 521, 430, 1, -2, 1, -2, -1, 0, 935, 836, 474,∮
2025-03-10 12:03:44.101,689, 532, 489, 0, -5, 2, -3, 0, 1, 941, 854, 514,∮
2025-03-10 12:03:44.151,683, 488, 447, -10, -8, -9, -3, -1, 1, 944, 891, 599,∮
2025-03-10 12:03:44.216,605, 502, 566, -19, -5, -17, -3, -1, 1, 950, 918, 501,∮
2025-03-10 12:03:44.270,1033, 638, 397, 71, 16, -1, 0, -1, 3, 955, 900, 237,∮
2025-03-10 12:03:44.320,668, 763, 251, -36, 51, 55, -2, -1, 1, 965, 927, 327,∮
2025-03-10 12:03:44.384,592, 396, 473, 3, -42, -56, -4, 0, 3, 950, 917, 674,∮
2025-03-10 12:03:44.440,849, 571, 568, -3, -19, -19, -1, 0, 3, 948, 931, 702,∮
2025-03-10 12:03:44.490,416, 333, 539, 14, -3, 23, -3, -1, 4, 962, 935, 707,∮
2025-03-10 12:03:44.550,371, 488, 226, -4, 44, 25, -3, -1, 4, 964, 932, 368,∮
2025-03-10 12:03:44.600,769, 420, 453, -38, 34, -6, -1, 0, 3, 943, 809, 20,∮
2025-03-10 12:03:44.661,481, 439, 554, -36, -3, -51, -2, 0, -1, 914, 873, 416,∮
2025-03-10 12:03:44.720,2220, -723, -495, -48, -15, -18, -2, 1, 1, 952, 925, 699,∮
2025-03-10 12:03:44.770,293, 382, 347, 11, 37, 41, -3, -2, 1, 967, 936, 545,∮
2025-03-10 12:03:44.831,494, 420, 203, -49, 34, 21, -3, 1, 0, 963, 886, 8,∮
2025-03-10 12:03:44.884,1067, 222, 559, 26, 11, -19, -3, 1, -2, 906, 700, 149,∮
2025-03-10 12:03:44.940,577, 388, 610, -36, 67, -51, -1, 1, -3, 806, 679, 150,∮
2025-03-10 12:03:44.998,516, 542, 760, 3, -27, 5, -1, 2, -3, 815, 469, 86,∮
2025-03-10 12:03:45.314,673, 499, 548, -1, -5, 2, 1, 1, -3, 832, 553, 15,∂
2025-03-10 12:03:45.368,680, 509, 546, 0, -4, 2, -1, 2, -4, 834, 557, 12,∂
2025-03-10 12:03:45.421,678, 482, 543, 1, -2, -1, 0, 1, -1, 842, 559, 6,∂
2025-03-10 12:03:45.471,698, 542, 541, 6, -3, -1, -1, 2, -2, 838, 583, 10,∂
2025-03-10 12:03:45.521,676, 520, 524, 0, 1, -3, 0, 2, -2, 836, 604, 13,∂
2025-03-10 12:03:45.571,677, 493, 540, -1, -1, 1, -1, 1, -4, 846, 627, 8,∂
2025-03-10 12:03:45.627,690, 535, 535, 2, -4, -1, -1, 1, -2, 843, 656, 6,∂
2025-03-10 12:03:45.670,676, 520, 537, 0, -1, 1, -1, 1, -1, 860, 687, 6,∂
2025-03-10 12:03:45.727,680, 522, 532, -1, -5, 3, 0, 1, -2, 862, 697, 4,∂
2025-03-10 12:03:45.782,714, 524, 506, 3, -5, 2, -2, 0, -2, 884, 741, 148,∂
2025-03-10 12:03:45.834,696, 523, 531, 0, -2, 2, -2, 1, -3, 895, 759, 240,∂
2025-03-10 12:03:45.885,685, 511, 527, 3, -4, 3, 0, 2, -1, 913, 786, 270,∂
2025-03-10 12:03:45.940,683, 520, 543, 14, -7, 6, -3, 1, -1, 925, 814, 382,∂
2025-03-10 12:03:45.990,719, 504, 473, 8, -12, 3, -2, 1, 0, 920, 817, 395,∂
2025-03-10 12:03:46.048,687, 518, 464, 9, 7, -4, -1, 1, -2, 923, 811, 328,∂
2025-03-10 12:03:46.100,693, 525, 455, 9, -13, -7, -2, 1, -1, 915, 821, 327,∂
2025-03-10 12:03:46.151,661, 544, 555, 18, -20, -7, -1, 0, 1, 918, 850, 434,∂
2025-03-10 12:03:46.212,786, 492, 397, 5, 5, -13, -1, -2, 2, 932, 880, 274,∂
2025-03-10 12:03:46.265,787, 573, 459, 37, -10, 20, -2, 0, 1, 952, 931, 632,∂
2025-03-10 12:03:46.317,592, 395, 387, 31, 21, 19, -1, 0, 4, 960, 931, 625,∂
2025-03-10 12:03:46.370,553, 494, 316, -28, 25, 4, -4, 1, 3, 955, 874, 127,∂
2025-03-10 12:03:46.422,917, 318, 686, 39, -15, -30, -4, -1, 1, 945, 877, 9,∂
2025-03-10 12:03:46.484,730, 664, 51, -13, -39, 18, -2, -1, 3, 965, 948, 528,∂
2025-03-10 12:03:46.534,732, 608, 290, -5, 9, 10, -2, -1, 2, 965, 950, 607,∂
2025-03-10 12:03:46.590,979, 562, 69, -42, 45, -40, -2, -2, 2, 931, 866, 633,∂
2025-03-10 12:03:46.972,693, 554, 473, -4, -1, 1, 0, -1, -1, 880, 676, 274,∇
2025-03-10 12:03:47.031,686, 544, 479, -3, -1, 1, -2, 0, 0, 879, 678, 276,∇
2025-03-10 12:03:47.084,686, 553, 483, 0, -4, 3, -2, 0, 0, 882, 701, 307,∇
2025-03-10 12:03:47.133,704, 526, 488, -1, 0, 0, 0, 0, 0, 901, 722, 331,∇
