Timestamp,Acc_X,Acc_Y,Acc_Z,Gyro_X,Gyro_Y,Gyro_Z,Mag_X,Mag_Y,Mag_Z,Force1,Force2,Force3,Letter
2025-03-17 14:32:41.624,529, 698, 519, -2, 3, 2, 3, 2, 6, 638, 691, 441,noise
2025-03-17 14:32:42.640,504, 697, 532, 3, 2, -3, 3, 0, 9, 645, 693,,noise
2025-03-17 14:32:48.504,525, 722, 501, 5, -4, 2, 1, 0, 1, 789, 597, 619,A
2025-03-17 14:32:48.549,522, 714, 504, 6, -4, 3, 0, -1, 0, 788, 596, 615,A
2025-03-17 14:32:48.609,508, 719, 488, 10, -9, 8, -1, -2, 1, 784, 597, 601,A
2025-03-17 14:32:48.660,573, 718, 387, 10, -8, 6, 1, -1, 1, 777, 592, 612,A
2025-03-17 14:32:48.710,595, 699, 395, -16, 9, -6, -1, 0, 0, 779, 590, 605,A
2025-03-17 14:32:48.769,528, 708, 494, -18, 9, -7, -1, -2, 2, 781, 601, 568,A
2025-03-17 14:32:48.825,528, 715, 486, -7, 1, -2, -1, -2, -1, 785, 619, 576,A
2025-03-17 14:32:48.879,540, 710, 493, -5, 0, -2, -1, -1, 0, 784, 638, 582,A
2025-03-17 14:32:48.932,555, 707, 477, -4, 2, -1, 1, 0, -1, 785, 652, 585,A
2025-03-17 14:32:48.984,524, 691, 510, 0, 1, 0, -1, 1, -2, 787, 652, 566,A
2025-03-17 14:32:49.038,536, 701, 501, 8, -4, 4, -1, 0, -1, 790, 650, 567,A
2025-03-17 14:32:49.091,567, 702, 450, 8, -4, 2, 1, -2, 1, 790, 653, 591,A
2025-03-17 14:32:49.144,594, 706, 433, 0, 0, -7, 0, -1, -1, 792, 641, 604,A
2025-03-17 14:32:49.195,536, 780, 470, -23, 5, -1, -1, 0, -2, 804, 667, 600,A
2025-03-17 14:32:49.249,521, 716, 528, -13, -7, 8, 0, -1, 1, 829, 718, 584,A
2025-03-17 14:32:49.307,548, 724, 469, -10, -9, 28, -1, -1, 2, 866, 793, 618,A
2025-03-17 14:32:49.360,589, 670, 487, -7, -9, 22, 0, 0, 2, 903, 844, 623,A
2025-03-17 14:32:49.409,529, 638, 534, -3, -13, 33, 0, 0, 5, 915, 874, 615,A
2025-03-17 14:32:49.469,623, 634, 428, 16, -23, 26, -1, 1, 5, 930, 891, 594,A
2025-03-17 14:32:49.525,708, 629, 342, 6, -11, 8, -2, 0, 4, 926, 893, 622,A
2025-03-17 14:32:49.579,653, 611, 444, -1, -6, -9, -2, 3, 5, 929, 903, 657,A
2025-03-17 14:32:49.631,615, 625, 462, -2, -12, -13, -1, 0, 8, 922, 901, 686,A
2025-03-17 14:32:49.690,563, 661, 523, -5, -32, 7, 0, -1, 10, 924, 906, 723,A
2025-03-17 14:32:49.742,673, 613, 458, 8, -39, 9, -1, 1, 8, 938, 918, 741,A
2025-03-17 14:32:49.793,781, 668, 258, 31, 2, -5, -2, -1, 11, 945, 916, 709,A
2025-03-17 14:32:49.849,712, 744, 118, 2, 45, 18, 0, 0, 11, 950, 897, 592,A
2025-03-17 14:32:49.906,740, 476, 437, -37, 8, -8, -2, 2, 8, 936, 878, 581,A
2025-03-17 14:32:49.959,549, 630, 652, -12, -28, 8, 0, 0, 9, 945, 914, 670,A
2025-03-17 14:32:50.012,760, 766, 171, 8, 4, 10, -1, 0, 11, 954, 924, 692,A
2025-03-17 14:32:50.059,572, 664, 450, -19, 42, 32, -2, 3, 9, 945, 902, 570,A
2025-03-17 14:32:50.123,469, 502, 541, 0, -13, -41, -2, 2, 7, 928, 860, 557,A
2025-03-17 14:32:50.175,889, 666, 363, -3, -23, -7, 0, 1, 8, 954, 926, 592,A
2025-03-17 14:32:50.229,637, 728, 351, -5, 17, 37, -1, 3, 9, 952, 935, 714,A
2025-03-17 14:32:50.282,666, 587, 269, -26, 59, -44, 0, 1, 7, 943, 926, 711,A
2025-03-17 14:32:50.340,520, 645, 607, -31, 45, -44, -1, 0, 4, 914, 867, 660,A
2025-03-17 14:32:50.393,517, 663, 581, -10, 6, -5, 0, 0, 2, 899, 843, 626,A
2025-03-17 14:32:50.443,602, 668, 493, -6, 1, 3, -1, 3, 2, 896, 817, 575,A
2025-03-17 14:32:50.499,602, 635, 512, -6, 0, 0, -1, 3, -1, 887, 799, 554,A
2025-03-17 14:32:50.549,597, 643, 500, -9, 5, 0, 1, 2, 3, 887, 772, 533,A
2025-03-17 14:32:50.864,519, 725, 497, -1, 14, -67, 0, -3, 1, 803, 698, 562,B
2025-03-17 14:32:50.919,526, 734, 498, -2, 15, -69, -1, -1, 1, 799, 701, 578,B
2025-03-17 14:32:50.979,464, 800, 541, -22, 18, -80, 0, -4, 1, 763, 694, 597,B
2025-03-17 14:32:51.029,220, 843, 765, -4, 17, -44, 0, -7, 1, 778, 719, 613,B
2025-03-17 14:32:51.089,20, 833, 767, 36, -40, 46, -1, -10, 2, 800, 745, 578,B
2025-03-17 14:32:51.142,216, 695, 313, 85, -85, 153, -2, -8, 5, 793, 770, 515,B
2025-03-17 14:32:51.199,668, 441, 271, 34, -17, 106, -1, -7, 8, 782, 765, 409,B
2025-03-17 14:32:51.259,793, 670, 187, -13, 11, 27, -2, -4, 8, 809, 785, 446,B
2025-03-17 14:32:51.309,654, 715, 632, -23, 29, 11, -2, -2, 4, 840, 797, 352,B
2025-03-17 14:32:51.372,499, 582, 187, -59, 18, 11, -1, 0, 5, 867, 819, 361,B
2025-03-17 14:32:51.424,710, 779, 729, 11, -31, 21, -2, 2, 3, 885, 831, 380,B
2025-03-17 14:32:51.479,697, 599, 403, 6, -14, 14, 0, 3, 5, 902, 847, 380,B
2025-03-17 14:32:51.529,667, 596, 374, -16, 2, 0, -1, 1, 4, 911, 855, 386,B
2025-03-17 14:32:51.584,655, 622, 466, -10, 2, -2, -1, 4, 5, 912, 865, 374,B
2025-03-17 14:32:51.639,652, 642, 437, -4, 0, -1, -1, 2, 5, 914, 869, 384,B
2025-03-17 14:32:51.692,627, 577, 443, -10, -6, 2, 0, 2, 5, 916, 878, 374,B
2025-03-17 14:32:51.749,750, 622, 521, -11, -7, -16, -2, 3, 5, 923, 894, 345,B
2025-03-17 14:32:51.799,845, 1017, 284, 44, 12, 18, -1, 3, 6, 952, 903, 356,B
2025-03-17 14:32:51.855,584, 752, 115, -8, 36, 37, 1, 3, 8, 953, 892, 42,B
2025-03-17 14:32:51.909,705, 220, 728, 9, -32, -56, 1, 3, 4, 922, 882, 302,B
2025-03-17 14:32:51.959,756, 564, 658, 4, -22, -15, 0, 3, 4, 943, 924, 509,B
2025-03-17 14:32:52.009,594, 782, 432, 1, -2, 11, -1, 3, 7, 953, 930, 537,B
2025-03-17 14:32:52.059,844, 520, 530, -3, 10, 10, -1, 3, 5, 955, 921, 420,B
2025-03-17 14:32:52.124,566, 583, 523, -26, 14, 5, -2, 4, 4, 954, 912, 228,B
2025-03-17 14:32:52.174,484, 702, 244, 2, 16, 9, -1, 2, 7, 949, 892, 78,B
2025-03-17 14:32:52.225,826, 458, 344, -8, 28, -6, -1, 4, 5, 922, 842, 50,B
2025-03-17 14:32:52.284,675, 619, 468, -18, 39, -31, -2, 4, 2, 880, 807, 287,B
2025-03-17 14:32:52.594,660, 615, 436, -7, -2, -5, 0, 3, 4, 873, 814, 373,C
2025-03-17 14:32:52.649,643, 607, 448, -5, -1, -5, 2, 2, 5, 874, 816, 373,C
2025-03-17 14:32:52.699,638, 622, 489, 1, -6, -2, 0, 3, 3, 873, 821, 429,C
2025-03-17 14:32:52.749,666, 612, 453, -7, -1, 0, 0, 3, 6, 881, 833, 426,C
2025-03-17 14:32:52.806,636, 615, 482, -4, -3, 0, -1, 2, 6, 892, 838, 410,C
2025-03-17 14:32:52.859,656, 610, 464, 0, -4, 3, -2, 1, 4, 891, 841, 436,C
2025-03-17 14:32:52.909,670, 597, 459, -1, 1, 1, 0, 3, 5, 897, 848, 430,C
2025-03-17 14:32:52.959,666, 620, 443, -1, -1, 1, -1, 3, 5, 901, 854, 467,C
2025-03-17 14:32:53.009,628, 614, 482, -1, -5, 3, -2, 2, 5, 902, 862, 492,C
2025-03-17 14:32:53.059,637, 582, 487, 6, -24, 9, -2, 4, 5, 909, 888, 430,C
2025-03-17 14:32:53.124,497, 362, 658, 17, -5, -17, -1, 4, 5, 925, 885, 360,C
2025-03-17 14:32:53.179,791, 776, 130, 4, 29, 17, 1, 1, 8, 948, 877, 171,C
2025-03-17 14:32:53.229,825, 525, 628, -19, 24, 39, 0, 4, 3, 939, 898, 119,C
2025-03-17 14:32:53.282,570, 607, 322, -30, 55, -51, 0, 4, 2, 905, 865, 440,C
2025-03-17 14:32:53.583,654, 617, 481, 0, -11, 4, -1, 1, 3, 886, 800, 317,D
2025-03-17 14:32:53.629,662, 602, 478, 1, -11, 4, 0, 3, 1, 889, 801, 307,D
2025-03-17 14:32:53.684,663, 599, 449, 4, -6, 2, 0, 2, 4, 895, 819, 318,D
2025-03-17 14:32:53.740,666, 625, 456, 5, -2, -1, -1, 2, 5, 896, 828, 342,D
2025-03-17 14:32:53.793,637, 606, 433, 4, -2, -5, -1, 1, 3, 893, 832, 365,D
2025-03-17 14:32:53.842,614, 624, 533, 3, -24, -7, 0, 3, 5, 898, 845, 342,D
2025-03-17 14:32:53.899,1024, 479, 341, -11, -8, -11, -1, 0, 5, 914, 877, 327,D
2025-03-17 14:32:53.949,784, 815, 422, 4, 32, 26, 1, 1, 7, 941, 878, 257,D
2025-03-17 14:32:54.006,766, 540, 341, -9, 33, 32, -1, 4, 4, 943, 851, 48,D
2025-03-17 14:32:54.060,511, 237, 779, 30, -4, -19, 0, 4, 3, 915, 860, 93,D
2025-03-17 14:32:54.111,739, 734, 376, 5, -30, -21, 0, 2, 6, 908, 895, 489,D
2025-03-17 14:32:54.162,588, 611, 417, 5, -16, 0, 1, 2, 7, 953, 926, 522,D
2025-03-17 14:32:54.219,580, 654, 399, -16, 29, 26, 0, 0, 7, 953, 912, 301,D
2025-03-17 14:32:54.272,743, 489, 419, -14, 28, 8, 0, 4, 5, 932, 829, 61,D
2025-03-17 14:32:54.325,747, 510, 391, -22, 42, -33, 0, 3, 4, 892, 723, 149,D
2025-03-17 14:32:54.599,651, 636, 429, -8, -1, -1, 1, 1, 4, 841, 752, 315,E
2025-03-17 14:32:54.650,645, 643, 443, -9, 0, 1, 1, 1, 4, 847, 757, 311,E
2025-03-17 14:32:54.699,638, 611, 496, -7, -2, 3, 0, 2, 4, 860, 764, 284,E
2025-03-17 14:32:54.756,662, 619, 439, -5, -3, -1, -1, 3, 4, 867, 769, 286,E
2025-03-17 14:32:54.810,614, 632, 472, -7, -7, -2, -1, 3, 3, 866, 758, 280,E
2025-03-17 14:32:54.861,612, 597, 483, -13, -16, -5, -1, 3, 3, 870, 765, 86,E
2025-03-17 14:32:54.919,729, 631, 418, -10, -17, 1, 0, 2, 5, 889, 840, 68,E
2025-03-17 14:32:54.972,682, 500, 677, 7, -14, -14, -1, 2, 7, 933, 877, 47,E
2025-03-17 14:32:55.024,728, 423, 547, 3, 41, 35, -1, 2, 7, 949, 865, 49,E
2025-03-17 14:32:55.079,814, 687, 335, -30, 35, 35, 1, 5, 5, 942, 824, 47,E
2025-03-17 14:32:55.129,598, 362, 583, 13, -29, -65, 0, 5, 2, 894, 817, 48,E
2025-03-17 14:32:55.183,738, 602, 501, 9, -34, -5, -1, 2, 7, 913, 879, 34,E
2025-03-17 14:32:55.239,694, 857, 314, 2, -14, 18, 0, 2, 5, 938, 923, 266,E
2025-03-17 14:32:55.290,605, 574, 575, 12, 2, 16, -1, 3, 6, 939, 923, 333,E
2025-03-17 14:32:55.341,525, 515, 454, 0, 32, -15, -2, 4, 5, 916, 853, 127,E
2025-03-17 14:32:55.399,778, 998, 387, 64, -4, -9, 0, 2, 8, 928, 876, 68,E
2025-03-17 14:32:55.440,723, 683, 472, 1, 3, 26, 0, 1, 8, 948, 928, 241,E
2025-03-17 14:32:55.499,628, 582, 489, 14, 8, 17, -1, 3, 5, 931, 899, 280,E
2025-03-17 14:32:55.555,580, 610, 481, 5, 21, -17, 0, 2, 4, 899, 760, 132,E
2025-03-17 14:32:55.606,765, 761, 326, -15, -5, 0, -1, 2, 5, 936, 892, 66,E
2025-03-17 14:32:55.659,820, 762, 384, -11, 2, 22, 0, 2, 7, 940, 918, 293,E
2025-03-17 14:32:55.709,764, 456, 395, 7, 15, -9, 0, 2, 5, 925, 896, 406,E
2025-03-17 14:32:55.760,638, 595, 419, -19, 57, -48, -1, 3, 1, 865, 808, 454,E
2025-03-17 14:32:55.824,473, 648, 659, -15, 2, -18, -1, 1, 1, 799, 584, 328,E
2025-03-17 14:32:56.119,652, 620, 440, -3, -9, 4, -2, 3, 3, 844, 689, 275,F
2025-03-17 14:32:56.173,660, 625, 439, -3, -8, 4, 1, 2, 5, 843, 702, 290,F
2025-03-17 14:32:56.229,678, 608, 446, -6, -3, 0, 0, 2, 4, 856, 747, 299,F
2025-03-17 14:32:56.283,649, 623, 461, -6, -1, 0, -1, 3, 4, 873, 769, 299,F
2025-03-17 14:32:56.334,645, 624, 430, -6, -9, -8, 0, 2, 5, 873, 792, 314,F
2025-03-17 14:32:56.390,644, 586, 520, -8, -23, -9, 0, 3, 4, 873, 842, 343,F
2025-03-17 14:32:56.441,708, 582, 446, -7, -14, 1, -1, 2, 4, 898, 874, 324,F
2025-03-17 14:32:56.499,379, 821, 545, 18, 31, 26, -2, 3, 7, 942, 878, 102,F
2025-03-17 14:32:56.549,609, 773, -7, -15, 37, 46, 0, 3, 4, 942, 825, 54,F
2025-03-17 14:32:56.599,645, 222, 627, 7, -18, -52, 1, 3, 4, 908, 824, 73,F
2025-03-17 14:32:56.659,1758, 410, 128, 9, -12, -20, 0, 1, 6, 922, 896, 107,F
2025-03-17 14:32:56.709,735, 700, 248, 1, -9, 23, -1, 4, 7, 944, 929, 464,F
2025-03-17 14:32:56.759,677, 436, 337, 10, 24, 9, -1, 2, 6, 936, 911, 464,F
2025-03-17 14:32:56.810,463, 691, 613, -8, 1, 7, 0, 2, 5, 917, 812, 70,F
2025-03-17 14:32:56.862,771, 609, 108, -3, 6, 5, 0, 2, 5, 949, 911, 84,F
2025-03-17 14:32:56.914,655, 639, 465, -9, 3, 25, 0, 3, 7, 942, 918, 256,F
2025-03-17 14:32:56.972,620, 598, 336, -8, 45, -44, -1, 4, 5, 925, 871, 426,F
2025-03-17 14:32:57.249,643, 631, 463, -6, 0, 1, -1, 1, 6, 885, 824, 448,G
2025-03-17 14:32:57.307,636, 619, 465, -5, -2, 0, -1, 1, 6, 883, 826, 448,G
2025-03-17 14:32:57.359,677, 608, 420, -6, -3, -1, -2, 2, 6, 888, 837, 460,G
2025-03-17 14:32:57.409,657, 639, 423, -4, -5, 0, -1, 4, 5, 891, 847, 489,G
2025-03-17 14:32:57.459,625, 620, 430, -10, -13, 2, -1, 1, 5, 900, 869, 492,G
2025-03-17 14:32:57.523,681, 588, 484, -13, -19, 0, -1, 2, 7, 912, 901, 354,G
2025-03-17 14:32:57.573,610, 439, 555, 4, -9, -15, 0, 2, 9, 943, 906, 110,G
2025-03-17 14:32:57.625,993, 843, 326, 2, 32, 28, 0, 2, 7, 944, 879, 73,G
2025-03-17 14:32:57.679,604, 626, 362, -38, 33, 37, -2, 2, 8, 946, 890, 70,G
2025-03-17 14:32:57.732,512, 422, 507, 4, -21, -22, -1, 5, 5, 939, 911, 67,G
2025-03-17 14:32:57.790,741, 690, 354, 27, -16, -13, -1, 3, 6, 944, 909, 63,G
2025-03-17 14:32:57.840,690, 546, 493, -38, 19, 21, -1, 4, 7, 942, 869, 71,G
2025-03-17 14:32:57.890,477, 525, 631, 15, -19, -34, -1, 5, 5, 924, 849, 49,G
2025-03-17 14:32:57.954,796, 497, 390, 43, -12, -4, -1, 3, 5, 950, 927, 46,G
2025-03-17 14:32:58.005,654, 586, 534, 1, 12, 33, -2, 5, 5, 948, 926, 114,G
2025-03-17 14:32:58.059,669, 548, 337, -15, 56, -48, 0, 3, 5, 922, 859, 232,G
2025-03-17 14:32:58.333,666, 598, 465, 4, -5, 2, 0, 2, 5, 887, 821, 361,H
2025-03-17 14:32:58.384,675, 613, 469, 4, -4, 2, -1, 2, 4, 889, 825, 387,H
2025-03-17 14:32:58.437,660, 606, 459, 2, -4, -1, 0, 1, 8, 887, 830, 402,H
2025-03-17 14:32:58.491,677, 632, 426, 3, -7, -1, -1, 2, 5, 885, 833, 404,H
2025-03-17 14:32:58.542,669, 607, 435, 0, -2, -5, 0, 2, 4, 886, 831, 372,H
2025-03-17 14:32:58.592,629, 628, 431, -8, -8, -13, 0, 1, 7, 878, 820, 368,H
2025-03-17 14:32:58.649,695, 665, 478, -9, -19, 0, -1, 2, 7, 887, 864, 354,H
2025-03-17 14:32:58.706,685, 458, 462, -2, -14, -11, -1, 2, 7, 925, 893, 322,H
2025-03-17 14:32:58.761,508, 642, 384, 12, 37, 29, -1, 2, 9, 954, 872, 33,H
2025-03-17 14:32:58.809,654, 567, 380, -38, 23, 15, 1, 4, 5, 931, 770, 74,H
2025-03-17 14:32:58.859,598, 615, 586, 44, -29, -10, 1, 3, 7, 924, 860, 43,H
2025-03-17 14:32:58.920,673, 773, 261, -16, -5, 28, 0, 2, 8, 950, 930, 461,H
2025-03-17 14:32:58.974,631, 478, 482, -16, 7, -25, -1, 3, 4, 946, 931, 538,H
2025-03-17 14:32:59.029,542, 623, 700, 15, -35, 15, -1, 4, 5, 937, 918, 518,H
2025-03-17 14:32:59.083,793, 901, 32, 15, 34, 23, -2, 3, 6, 947, 913, 462,H
2025-03-17 14:32:59.138,767, 411, 432, 4, 24, -6, -1, 4, 5, 934, 869, 357,H
2025-03-17 14:32:59.419,661, 592, 465, 1, -2, -3, -1, 3, 5, 880, 810, 323,I
2025-03-17 14:32:59.472,665, 630, 458, -1, -1, -2, -1, 2, 5, 880, 814, 324,I
2025-03-17 14:32:59.522,666, 633, 449, -3, -3, -3, -1, 2, 5, 880, 833, 360,I
2025-03-17 14:32:59.579,664, 629, 431, -3, -5, -3, -2, 3, 5, 887, 839, 347,I
2025-03-17 14:32:59.638,612, 627, 456, -4, -5, -7, -2, 3, 6, 885, 826, 266,I
2025-03-17 14:32:59.689,786, 579, 394, -5, -22, -23, -2, 2, 7, 905, 849, 52,I
2025-03-17 14:32:59.740,688, 974, 488, 5, -13, 15, -1, 0, 8, 937, 914, 265,I
2025-03-17 14:32:59.789,546, 497, 427, -3, 3, 14, -1, 1, 9, 952, 929, 460,I
2025-03-17 14:32:59.849,650, 533, 444, 15, -1, -4, -4, 3, 8, 936, 910, 497,I
2025-03-17 14:32:59.906,751, 569, 596, 18, -3, -11, -1, 2, 7, 942, 903, 518,I
2025-03-17 14:32:59.959,656, 791, 412, 1, 40, 33, -1, 2, 7, 948, 893, 396,I
2025-03-17 14:33:00.013,649, 629, 360, -7, 24, 14, -1, 4, 6, 941, 811, 207,I
2025-03-17 14:33:00.065,690, 652, 518, -7, -8, -19, 1, 1, 7, 907, 559, 136,I
2025-03-17 14:33:00.121,811, 759, 416, 4, -8, 14, 1, -1, 8, 945, 912, 370,I
2025-03-17 14:33:00.173,723, 427, 339, -9, 5, 5, -2, 3, 5, 934, 899, 480,I
2025-03-17 14:33:00.227,580, 604, 395, -26, 41, -47, 1, 1, 6, 908, 820, 501,I
2025-03-17 14:33:00.494,637, 621, 458, -3, -7, -1, 1, 1, 7, 828, 708, 314,J
2025-03-17 14:33:00.549,634, 634, 456, -3, -8, -1, -2, 4, 5, 829, 703, 309,J
2025-03-17 14:33:00.604,662, 626, 412, -6, -10, -5, -1, 1, 7, 823, 697, 294,J
2025-03-17 14:33:00.654,657, 625, 434, -3, -7, -4, 0, 2, 5, 834, 737, 282,J
2025-03-17 14:33:00.709,650, 647, 424, -6, -3, -4, 0, 2, 6, 850, 770, 273,J
2025-03-17 14:33:00.760,587, 600, 495, -5, -10, -4, -1, 2, 8, 868, 773, 195,J
2025-03-17 14:33:00.821,775, 520, 315, 15, -10, -17, 0, 1, 8, 910, 849, 128,J
2025-03-17 14:33:00.873,529, 509, 331, -15, -9, 35, -3, 1, 10, 949, 929, 383,J
2025-03-17 14:33:00.929,647, 566, 463, 21, -4, 12, -1, 0, 8, 943, 920, 448,J
2025-03-17 14:33:00.985,528, 612, 418, 17, 14, -29, -2, 2, 9, 918, 863, 481,J
2025-03-17 14:33:01.038,830, 1140, 462, -7, -3, 8, -1, 2, 9, 947, 908, 485,J
2025-03-17 14:33:01.090,769, 632, 210, -4, 40, 35, -1, 2, 8, 954, 911, 60,J
2025-03-17 14:33:01.142,579, 327, 574, -1, 11, -22, -1, 1, 6, 921, 838, 58,J
2025-03-17 14:33:01.199,725, 743, 303, -8, 49, -34, 0, 1, 5, 720, 700, 214,J
2025-03-17 14:33:01.518,646, 636, 425, -1, -8, -3, -1, 0, 7, 734, 667, 172,K
2025-03-17 14:33:01.571,635, 631, 435, -2, -8, -3, -1, 2, 5, 736, 668, 173,K
2025-03-17 14:33:01.623,638, 624, 431, -6, -14, -8, -1, 1, 6, 775, 717, 195,K
2025-03-17 14:33:01.682,612, 654, 444, 3, -17, 1, -1, 2, 7, 836, 803, 200,K
2025-03-17 14:33:01.732,728, 566, 484, 3, -12, -10, -1, 2, 7, 897, 857, 202,K
2025-03-17 14:33:01.787,640, 793, 310, 38, 26, 12, -2, 0, 9, 927, 826, 48,K
2025-03-17 14:33:01.839,792, 695, 216, -30, 22, 17, -2, 0, 8, 936, 736, 59,K
2025-03-17 14:33:01.894,798, 833, 629, -15, -14, 30, -1, 2, 7, 940, 905, 50,K
2025-03-17 14:33:01.949,646, 431, 358, -2, -28, -7, -1, 1, 7, 948, 934, 170,K
2025-03-17 14:33:02.005,659, 607, 336, 23, 0, -10, -1, 0, 10, 922, 876, 309,K
2025-03-17 14:33:02.055,695, 706, 593, 13, 9, 1, 0, 0, 8, 904, 811, 93,K
2025-03-17 14:33:02.109,644, 635, 265, -34, 11, 29, 1, 1, 8, 951, 905, 91,K
2025-03-17 14:33:02.163,706, 571, 371, -15, 16, 37, -1, 4, 7, 944, 896, 63,K
2025-03-17 14:33:02.210,584, 565, 351, 0, 56, -58, 0, 3, 5, 913, 819, 239,K
2025-03-17 14:33:02.513,664, 633, 442, -7, -8, -3, -1, 1, 7, 822, 774, 232,L
2025-03-17 14:33:02.563,671, 628, 437, -9, -9, -4, 0, 1, 6, 829, 784, 228,L
2025-03-17 14:33:02.619,649, 635, 418, -9, -12, -8, 0, 0, 7, 841, 815, 143,L
2025-03-17 14:33:02.671,666, 567, 395, 4, -19, -7, 0, 1, 8, 866, 846, 147,L
2025-03-17 14:33:02.729,862, 596, 401, -3, -12, -9, -1, 0, 9, 898, 867, 56,L
2025-03-17 14:33:02.779,679, 628, 443, 19, -8, -3, -2, 2, 10, 926, 871, 52,L
2025-03-17 14:33:02.836,749, 683, 309, 12, 35, 18, -1, 2, 8, 938, 819, 54,L
2025-03-17 14:33:02.886,899, 679, 351, 9, 28, 20, 0, 1, 8, 946, 852, 41,L
2025-03-17 14:33:02.939,541, 492, 498, 6, -5, 17, -1, 1, 9, 956, 922, 30,L
2025-03-17 14:33:02.989,829, 484, 255, 3, 28, -9, -1, 2, 5, 926, 881, 223,L
2025-03-17 14:33:03.279,662, 626, 410, 1, -8, 0, -1, 1, 6, 824, 789, 279,M
2025-03-17 14:33:03.329,664, 635, 416, -1, -7, 0, -1, 2, 7, 824, 787, 274,M
2025-03-17 14:33:03.386,648, 609, 461, 2, -9, -1, -1, 2, 8, 828, 797, 233,M
2025-03-17 14:33:03.439,650, 627, 431, 0, -5, -7, -1, 2, 6, 828, 793, 179,M
2025-03-17 14:33:03.489,657, 605, 451, 32, -23, -12, 1, 1, 6, 827, 799, 257,M
2025-03-17 14:33:03.549,953, 519, 399, -18, -14, -10, -1, 1, 8, 907, 860, 178,M
2025-03-17 14:33:03.603,364, 846, 113, -8, 44, 28, -1, -1, 9, 949, 852, 86,M
2025-03-17 14:33:03.656,571, 482, 341, -24, 30, 23, -1, 4, 6, 938, 805, 74,M
2025-03-17 14:33:03.709,619, 561, 508, 45, -37, -39, 0, 1, 7, 899, 841, 97,M
2025-03-17 14:33:03.770,712, 583, 544, -10, -18, -7, -1, 1, 10, 929, 910, 233,M
2025-03-17 14:33:03.822,607, 599, 292, -28, 27, 37, 0, 0, 9, 952, 914, 102,M
2025-03-17 14:33:03.872,586, 519, 554, -20, 1, 11, -1, 3, 7, 941, 911, 62,M
2025-03-17 14:33:03.929,676, 473, 630, 13, -13, -10, -1, 2, 5, 946, 921, 273,M
2025-03-17 14:33:03.979,732, 650, 198, 0, 31, 36, -2, 3, 6, 950, 912, 48,M
2025-03-17 14:33:04.039,763, 552, 433, -18, 16, -11, -1, 2, 4, 945, 890, 30,M
2025-03-17 14:33:04.300,670, 610, 449, -4, -1, 0, 0, 2, 7, 877, 792, 161,N
2025-03-17 14:33:04.360,667, 608, 456, -3, -1, 0, -2, 3, 6, 879, 792, 146,N
2025-03-17 14:33:04.409,683, 609, 429, -2, -1, -2, -1, 1, 6, 878, 791, 166,N
2025-03-17 14:33:04.461,652, 629, 468, -2, 0, -1, -1, 2, 5, 878, 786, 123,N
2025-03-17 14:33:04.520,646, 618, 453, 0, -4, -2, -1, 3, 6, 875, 787, 175,N
2025-03-17 14:33:04.571,663, 628, 421, -6, -3, -3, -1, 2, 6, 880, 767, 90,N
2025-03-17 14:33:04.625,646, 600, 458, -7, -4, -7, 0, 2, 7, 879, 777, 96,N
2025-03-17 14:33:04.679,652, 609, 490, -3, -25, 0, -1, 2, 7, 898, 852, 96,N
2025-03-17 14:33:04.729,711, 415, 528, 11, -8, -10, -1, 2, 7, 941, 892, 97,N
2025-03-17 14:33:04.786,677, 802, 202, 1, 46, 41, 0, 1, 8, 950, 867, 126,N
2025-03-17 14:33:04.836,637, 512, 606, -17, 4, 6, 0, 4, 6, 939, 862, 74,N
2025-03-17 14:33:04.890,673, 670, 557, -1, -35, -21, 1, 2, 7, 922, 900, 310,N
2025-03-17 14:33:04.943,802, 754, 505, 29, -6, 16, -1, 3, 7, 953, 922, 336,N
2025-03-17 14:33:04.999,582, 631, 246, -14, 21, 29, -1, 4, 6, 957, 919, 89,N
2025-03-17 14:33:05.053,561, 335, 761, -1, -42, -28, 0, 3, 5, 948, 930, 90,N
2025-03-17 14:33:05.105,754, 531, 247, 1, 53, -31, -1, 1, 7, 917, 902, 404,N
2025-03-17 14:33:05.159,458, 668, 687, -15, 13, -10, 0, 3, 2, 903, 881, 363,N
2025-03-17 14:33:05.209,656, 605, 524, 13, -23, 8, -1, 5, 4, 898, 868, 359,N
2025-03-17 14:33:05.270,736, 597, 354, -5, -3, -2, -1, 3, 5, 891, 863, 343,N
2025-03-17 14:33:05.323,642, 602, 486, -6, 2, -6, -1, 4, 5, 885, 853, 341,N
2025-03-17 14:33:05.371,656, 623, 472, -2, 0, 0, -1, 2, 5, 885, 838, 320,N
2025-03-17 14:33:05.425,665, 602, 468, -1, 0, -1, 0, 1, 6, 876, 830, 313,N
2025-03-17 14:33:05.479,657, 606, 476, -1, -1, 0, 0, 3, 5, 874, 819, 166,N
2025-03-17 14:33:06.423,660, 614, 451, -1, -1, 0, -2, 3, 5, 882, 853, 351,O
2025-03-17 14:33:06.475,664, 614, 447, -1, -1, 0, -2, 5, 5, 883, 854, 361,O
2025-03-17 14:33:06.524,668, 604, 451, -3, 0, 0, -1, 2, 6, 888, 856, 345,O
2025-03-17 14:33:06.579,666, 607, 440, -2, -1, -1, -3, 1, 4, 890, 859, 338,O
2025-03-17 14:33:06.635,662, 605, 461, -1, 0, 0, -2, 2, 5, 891, 862, 357,O
2025-03-17 14:33:06.687,661, 612, 450, -3, 0, 1, -1, 2, 5, 893, 863, 364,O
2025-03-17 14:33:06.740,675, 598, 453, -1, -1, 0, -3, 4, 4, 901, 865, 333,O
2025-03-17 14:33:06.789,680, 610, 444, -2, -2, 1, 0, 2, 7, 905, 870, 326,O
2025-03-17 14:33:06.841,666, 619, 453, -4, -1, 5, -2, 4, 6, 910, 875, 317,O
2025-03-17 14:33:06.899,668, 577, 433, -3, -11, 10, -2, 3, 4, 919, 900, 226,O
2025-03-17 14:33:06.953,618, 498, 482, -23, -1, -10, -1, 2, 6, 922, 914, 108,O
2025-03-17 14:33:07.007,721, 498, 559, 66, 9, -15, 0, 3, 8, 936, 890, 88,O
2025-03-17 14:33:07.059,633, 980, 27, -29, 53, 75, 1, 0, 7, 957, 918, 88,O
2025-03-17 14:33:07.110,437, 297, 850, -21, -23, -4, -1, 4, 3, 955, 936, 106,O
2025-03-17 14:33:07.170,785, 640, 334, 50, -15, -29, 0, 4, 6, 923, 905, 293,O
2025-03-17 14:33:07.226,660, 592, 411, -46, 90, -52, -1, 4, 4, 894, 869, 369,O
2025-03-17 14:33:07.280,432, 736, 844, -18, -1, -1, -1, 4, 1, 865, 861, 309,O
2025-03-17 14:33:07.552,638, 633, 479, -6, -3, 2, -2, 5, 2, 741, 630, 42,P
2025-03-17 14:33:07.606,632, 612, 488, -7, -4, 2, -1, 1, 4, 747, 618, 57,P
2025-03-17 14:33:07.654,638, 600, 476, 3, -10, 3, 0, 5, 2, 756, 637, 49,P
2025-03-17 14:33:07.711,645, 614, 446, 2, -11, 0, 0, 1, 5, 770, 695, 54,P
2025-03-17 14:33:07.759,656, 600, 444, 1, -15, -10, -1, 4, 3, 768, 769, 127,P
2025-03-17 14:33:07.809,729, 587, 506, -3, -16, 0, -1, 2, 6, 862, 837, 49,P
2025-03-17 14:33:07.870,701, 748, 439, 26, 40, 54, -1, 3, 6, 936, 850, 36,P
2025-03-17 14:33:07.921,962, 806, 244, -12, 33, 36, -1, 5, 5, 948, 838, 36,P
2025-03-17 14:33:07.977,552, 61, 774, 1, -21, -40, 2, 5, 3, 919, 852, 57,P
2025-03-17 14:33:08.029,909, 734, 448, 12, -22, -22, -2, 5, 4, 920, 919, 339,P
2025-03-17 14:33:08.087,531, 709, 491, 10, -10, 8, -1, 3, 5, 953, 936, 485,P
2025-03-17 14:33:08.139,622, 596, 388, -5, 20, 15, -1, 4, 5, 954, 916, 303,P
2025-03-17 14:33:08.197,863, 469, 387, -21, 36, -32, -1, 1, 7, 909, 861, 128,P
2025-03-17 14:33:08.479,694, 618, 420, 6, -5, 3, -1, 2, 6, 877, 825, 123,Q
2025-03-17 14:33:08.537,690, 609, 420, 4, -4, 3, -1, 4, 5, 878, 827, 141,Q
2025-03-17 14:33:08.589,662, 602, 477, 2, -4, 0, -1, 2, 8, 878, 840, 269,Q
2025-03-17 14:33:08.639,647, 622, 457, 4, -11, 5, -1, 2, 5, 890, 862, 288,Q
2025-03-17 14:33:08.696,661, 615, 442, -5, -13, -4, -2, 4, 5, 898, 895, 144,Q
2025-03-17 14:33:08.754,544, 571, 526, -15, -7, -14, -1, 2, 7, 916, 913, 58,Q
2025-03-17 14:33:08.809,1133, 865, 210, 74, 30, 0, -1, 3, 7, 947, 886, 46,Q
2025-03-17 14:33:08.858,788, 641, 354, -62, 44, 57, 0, 3, 6, 960, 923, 58,Q
2025-03-17 14:33:08.909,434, 299, 908, -11, -36, -11, 1, 5, 4, 961, 944, 18,Q
2025-03-17 14:33:08.968,806, 597, 225, -8, 20, -36, -1, 5, 4, 928, 895, 50,Q
2025-03-17 14:33:09.021,516, 686, 914, 10, -35, 39, 0, 5, 3, 948, 908, 49,Q
2025-03-17 14:33:09.071,763, 559, 305, -1, 9, 23, 0, 5, 6, 963, 940, 43,Q
2025-03-17 14:33:09.121,798, 372, 375, 0, 25, -16, -2, 5, 3, 950, 919, 48,Q
2025-03-17 14:33:09.419,646, 634, 509, -13, 1, -3, 0, 3, 5, 777, 690, 64,R
2025-03-17 14:33:09.469,637, 614, 505, -13, -2, -1, -1, 4, 4, 780, 685, 37,R
2025-03-17 14:33:09.529,691, 589, 458, 0, -9, -2, -1, 4, 4, 813, 728, 60,R
2025-03-17 14:33:09.579,618, 578, 495, 4, -14, -9, -2, 4, 4, 834, 780, 77,R
2025-03-17 14:33:09.636,690, 617, 384, 2, -17, -1, -1, 2, 7, 852, 842, 85,R
2025-03-17 14:33:09.689,698, 385, 599, 22, -11, -10, -2, 3, 8, 928, 863, 59,R
2025-03-17 14:33:09.739,896, 850, 309, -23, 49, 62, -1, 3, 7, 953, 819, 69,R
2025-03-17 14:33:09.789,641, 599, 561, 14, 9, 2, 1, 5, 5, 927, 797, 60,R
2025-03-17 14:33:09.849,817, 784, 327, 40, -52, -48, -1, 2, 5, 884, 853, 431,R
2025-03-17 14:33:09.902,651, 685, 527, -6, -16, 6, -1, 2, 7, 944, 915, 452,R
2025-03-17 14:33:09.953,728, 582, 381, -30, 27, 29, -2, 1, 9, 954, 911, 71,R
2025-03-17 14:33:10.009,865, 657, 333, -9, 24, 32, -1, 3, 6, 956, 913, 61,R
2025-03-17 14:33:10.061,767, 489, 353, -2, 22, -5, -1, 4, 6, 941, 901, 82,R
2025-03-17 14:33:10.119,491, 556, 587, -10, 42, -45, 0, 3, 2, 898, 807, 222,R
2025-03-17 14:33:10.369,686, 626, 433, -1, -8, 5, -1, 4, 4, 821, 799, 266,S
2025-03-17 14:33:10.420,697, 624, 421, -4, -7, 4, -2, 2, 5, 824, 801, 268,S
2025-03-17 14:33:10.479,669, 596, 459, -7, -2, 0, -1, 4, 4, 840, 811, 268,S
2025-03-17 14:33:10.529,666, 580, 444, -2, -7, 1, 0, 2, 5, 854, 829, 300,S
2025-03-17 14:33:10.586,646, 609, 447, -3, -7, 5, -1, 5, 4, 883, 865, 262,S
2025-03-17 14:33:10.639,667, 574, 435, -2, -14, 5, -2, 3, 7, 894, 891, 111,S
2025-03-17 14:33:10.689,509, 518, 488, -7, -4, -15, 0, 2, 6, 910, 910, 31,S
2025-03-17 14:33:10.740,793, 533, 458, 45, 7, -8, -2, 2, 7, 934, 894, 63,S
2025-03-17 14:33:10.799,759, 919, 244, -22, 42, 31, 1, 1, 7, 950, 912, 66,S
2025-03-17 14:33:10.847,570, 622, 482, -9, 13, 16, 0, 4, 6, 954, 890, 33,S
2025-03-17 14:33:10.903,995, 428, 338, 12, 28, -34, -1, 3, 4, 870, 770, 69,S
2025-03-17 14:33:10.953,503, 534, 695, -21, 40, -40, -1, 3, 2, 799, 789, 39,S
2025-03-17 14:33:11.209,693, 603, 417, 0, -2, -3, -1, 2, 5, 787, 816, 166,T
2025-03-17 14:33:11.260,685, 586, 421, 0, -1, -3, -1, 2, 5, 790, 813, 163,T
2025-03-17 14:33:11.319,635, 625, 459, -7, 2, -1, 0, 3, 5, 803, 810, 164,T
2025-03-17 14:33:11.371,652, 598, 460, 0, -5, -4, -1, 2, 7, 808, 804, 161,T
2025-03-17 14:33:11.419,555, 618, 493, -5, -5, -5, -1, 2, 7, 817, 778, 76,T
2025-03-17 14:33:11.479,774, 471, 396, 1, -13, -22, -1, 1, 7, 899, 829, 48,T
2025-03-17 14:33:11.532,822, 598, 92, -44, -3, 48, -1, 3, 8, 952, 927, 99,T
2025-03-17 14:33:11.585,636, 565, 507, 16, 0, 20, -1, 4, 7, 947, 920, 301,T
2025-03-17 14:33:11.639,509, 534, 453, 18, 3, -29, -1, 2, 9, 925, 885, 468,T
2025-03-17 14:33:11.689,753, 673, 347, 10, -8, 1, -1, 2, 9, 956, 912, 284,T
2025-03-17 14:33:11.739,755, 1014, 172, -23, 46, 45, -1, 4, 6, 953, 890, 46,T
2025-03-17 14:33:11.799,728, 415, 499, -8, 19, -32, 0, 4, 5, 930, 805, 35,T
2025-03-17 14:33:12.089,653, 597, 473, -7, -1, -1, -1, 1, 6, 839, 720, 104,U
2025-03-17 14:33:12.147,668, 599, 464, -7, -1, -2, -2, 3, 5, 837, 718, 102,U
2025-03-17 14:33:12.199,672, 603, 444, -5, 0, -3, -1, 2, 7, 839, 701, 27,U
2025-03-17 14:33:12.254,667, 597, 459, -3, -1, -4, 0, 2, 6, 820, 688, 41,U
2025-03-17 14:33:12.302,660, 619, 432, -6, -1, -4, -1, 2, 5, 821, 702, 58,U
2025-03-17 14:33:12.355,656, 590, 461, -5, -5, -6, 0, 2, 6, 826, 728, 21,U
2025-03-17 14:33:12.409,652, 637, 442, -6, -6, -2, -3, 5, 6, 837, 781, 50,U
2025-03-17 14:33:12.465,711, 561, 476, -10, -11, -6, -1, 3, 7, 886, 836, 41,U
2025-03-17 14:33:12.509,695, 852, 387, 46, 15, 19, -1, 2, 8, 937, 853, 37,U
2025-03-17 14:33:12.571,700, 594, 330, -21, 22, 33, -2, 3, 5, 942, 900, 61,U
2025-03-17 14:33:12.618,536, 376, 615, 14, -32, -27, -3, 4, 5, 929, 916, 61,U
2025-03-17 14:33:12.669,706, 571, 452, 29, -16, -11, -2, 4, 7, 947, 920, 152,U
2025-03-17 14:33:12.736,716, 474, 498, -12, 18, 21, -1, 5, 6, 933, 892, 73,U
2025-03-17 14:33:13.059,649, 610, 483, -4, 1, 0, 0, 3, 6, 788, 639, 38,V
2025-03-17 14:33:13.117,649, 598, 484, -2, 0, 0, -1, 3, 7, 791, 638, 56,V
2025-03-17 14:33:13.163,647, 578, 478, 5, -3, -3, -1, 3, 5, 792, 633, 36,V
2025-03-17 14:33:13.219,651, 588, 454, 4, -7, -5, -1, 2, 6, 788, 645, 55,V
2025-03-17 14:33:13.270,612, 622, 486, -6, -13, 1, -2, 4, 6, 814, 690, 46,V
2025-03-17 14:33:13.323,719, 647, 371, -27, -8, -13, 0, 1, 5, 889, 823, 33,V
2025-03-17 14:33:13.378,680, 597, 521, -11, 7, 2, 0, 1, 8, 904, 865, 57,V
2025-03-17 14:33:13.428,730, 504, 531, 42, -13, -8, -2, 3, 6, 923, 867, 45,V
2025-03-17 14:33:13.486,654, 504, 385, -24, 26, 27, -1, 3, 6, 944, 853, 39,V
2025-03-17 14:33:13.539,771, 654, 467, -16, 4, 15, 0, 3, 7, 940, 899, 42,V
2025-03-17 14:33:13.589,686, 628, 506, 12, -34, -19, -1, 3, 6, 938, 928, 39,V
2025-03-17 14:33:13.648,739, 578, 267, -11, 28, -15, -1, 4, 8, 904, 892, 213,V
2025-03-17 14:33:13.702,550, 646, 657, -9, 30, -18, -1, 3, 4, 875, 863, 134,V
2025-03-17 14:33:13.978,696, 616, 438, 2, -3, -2, 1, 3, 4, 797, 657, 52,W
2025-03-17 14:33:14.039,679, 617, 442, 2, -2, -3, -1, 2, 5, 799, 661, 42,W
2025-03-17 14:33:14.088,674, 623, 448, 6, 1, -2, -1, 3, 5, 801, 654, 50,W
2025-03-17 14:33:14.141,653, 647, 471, 8, -4, -1, 0, 1, 6, 782, 634, 101,W
2025-03-17 14:33:14.193,670, 618, 395, -4, -7, -8, -2, 2, 7, 806, 726, 35,W
2025-03-17 14:33:14.248,678, 633, 465, -9, -4, -10, 0, 3, 5, 866, 835, 35,W
2025-03-17 14:33:14.300,741, 669, 552, 17, -23, 4, 1, 0, 8, 934, 871, 35,W
2025-03-17 14:33:14.354,680, 1013, 277, -48, 37, 48, -2, 3, 6, 949, 884, 35,W
2025-03-17 14:33:14.407,586, 413, 508, -28, -14, 2, -2, 5, 5, 943, 908, 55,W
2025-03-17 14:33:14.464,660, 418, 697, 32, -12, -10, -2, 4, 6, 941, 914, 29,W
2025-03-17 14:33:14.518,791, 789, 234, -4, 12, 23, -1, 3, 6, 941, 905, 48,W
2025-03-17 14:33:14.569,685, 359, 740, 4, -25, -4, -2, 5, 5, 945, 926, 31,W
2025-03-17 14:33:14.624,736, 475, 160, -10, 75, -35, -2, 4, 5, 906, 877, 44,W
2025-03-17 14:33:14.904,685, 586, 465, -7, 1, 0, 0, 3, 6, 866, 795, 40,X
2025-03-17 14:33:14.951,676, 602, 474, -6, 2, 0, -1, 4, 6, 864, 794, 36,X
2025-03-17 14:33:15.008,665, 592, 490, -4, -3, 1, -2, 5, 4, 869, 802, 34,X
2025-03-17 14:33:15.060,682, 598, 445, -4, -4, -1, -1, 2, 5, 877, 813, 38,X
2025-03-17 14:33:15.115,680, 580, 474, -4, 0, -1, -1, 4, 5, 877, 818, 54,X
2025-03-17 14:33:15.168,667, 580, 455, -3, -5, -3, -1, 4, 3, 884, 826, 32,X
2025-03-17 14:33:15.222,685, 588, 458, -6, -9, -3, -2, 4, 6, 890, 846, 43,X
2025-03-17 14:33:15.269,708, 587, 494, 0, -16, 2, -2, 5, 5, 917, 892, 30,X
2025-03-17 14:33:15.324,631, 467, 574, 11, -8, -8, -2, 3, 6, 938, 906, 40,X
2025-03-17 14:33:15.374,934, 551, 645, 4, 52, 34, -2, 2, 7, 940, 872, 52,X
2025-03-17 14:33:15.429,734, 573, 334, -15, 33, 10, -1, 2, 5, 912, 855, 21,X
2025-03-17 14:33:15.488,520, 782, 523, 28, -32, -18, -1, 4, 4, 883, 878, 183,X
2025-03-17 14:33:15.546,773, 1096, 211, -22, -3, 55, -1, 1, 7, 947, 923, 109,X
2025-03-17 14:33:15.598,538, 432, 559, -12, 11, 30, -1, 5, 6, 952, 925, 27,X
2025-03-17 14:33:15.652,694, 546, 331, -4, 30, -58, -1, 5, 3, 910, 879, 69,X
2025-03-17 14:33:15.919,669, 621, 436, -6, -2, -1, -1, 1, 8, 846, 858, 213,Y
2025-03-17 14:33:15.972,670, 617, 439, -5, -2, 0, -2, 3, 7, 847, 857, 208,Y
2025-03-17 14:33:16.025,659, 598, 477, -8, 0, -1, -1, 1, 8, 858, 861, 205,Y
2025-03-17 14:33:16.074,665, 628, 430, -7, 0, 1, 0, 2, 7, 870, 864, 187,Y
2025-03-17 14:33:16.125,626, 621, 493, -5, -5, -3, -2, 4, 5, 874, 865, 127,Y
2025-03-17 14:33:16.184,671, 608, 461, -3, -16, -1, -1, 2, 6, 881, 870, 57,Y
2025-03-17 14:33:16.234,683, 608, 473, -8, -4, -8, -2, 2, 7, 918, 895, 42,Y
2025-03-17 14:33:16.285,696, 663, 288, 16, 14, 44, -1, 3, 7, 939, 914, 92,Y
2025-03-17 14:33:16.339,726, 404, 458, -1, 8, 7, -2, 3, 7, 939, 918, 116,Y
2025-03-17 14:33:16.393,571, 681, 616, 3, -16, -5, -3, 3, 6, 913, 906, 371,Y
2025-03-17 14:33:16.444,712, 659, 246, 25, 2, 5, -1, 3, 8, 946, 915, 294,Y
2025-03-17 14:33:16.500,872, 886, 41, 17, 47, 35, -1, 3, 9, 943, 891, 51,Y
2025-03-17 14:33:16.551,887, 477, 416, -16, 23, -13, -4, 5, 5, 903, 819, 48,Y
2025-03-17 14:33:16.842,665, 593, 460, -5, -5, -4, -2, 4, 5, 832, 831, 178,Z
2025-03-17 14:33:16.894,678, 598, 458, -6, -5, -3, 0, 3, 6, 834, 835, 167,Z
2025-03-17 14:33:16.951,657, 593, 472, -7, -6, -3, -1, 3, 5, 846, 838, 161,Z
2025-03-17 14:33:17.002,644, 606, 458, -13, -6, -4, 0, 3, 7, 867, 838, 45,Z
2025-03-17 14:33:17.058,651, 566, 461, -12, -14, -5, -1, 3, 7, 894, 842, 61,Z
2025-03-17 14:33:17.109,888, 577, 533, 67, -5, -6, -1, 3, 7, 931, 909, 47,Z
2025-03-17 14:33:17.167,532, 418, 468, 19, -3, 17, -1, 2, 7, 952, 931, 53,Z
2025-03-17 14:33:17.219,569, 776, 179, 21, 34, 13, -3, 3, 9, 946, 903, 55,Z
2025-03-17 14:33:17.269,1021, 539, 355, -40, 21, 3, -1, 5, 7, 949, 858, 63,Z
2025-03-17 14:33:17.319,596, 608, 435, -9, -2, 32, 0, 4, 6, 957, 933, 59,Z
2025-03-17 14:33:17.374,572, 445, 509, -3, 0, 9, -1, 5, 7, 954, 929, 44,Z
2025-03-17 14:33:17.429,418, 621, 411, 31, -4, -61, -3, 3, 6, 920, 869, 65,Z
2025-03-17 14:33:17.484,793, 835, 509, 18, -14, -8, -1, 2, 9, 942, 919, 64,Z
2025-03-17 14:33:17.535,587, 506, 264, -27, 5, 34, -1, 3, 8, 958, 939, 56,Z
2025-03-17 14:33:17.594,740, 563, 305, 7, 27, -20, -2, 4, 5, 946, 920, 135,Z
2025-03-17 14:33:17.901,671, 619, 455, -1, -4, 3, -1, 3, 4, 853, 700, 55,a
2025-03-17 14:33:17.951,674, 618, 441, -3, -4, 3, -1, 2, 5, 856, 702, 60,a
2025-03-17 14:33:18.003,692, 601, 422, -6, -1, 3, -2, 1, 5, 873, 714, 41,a
2025-03-17 14:33:18.052,668, 613, 448, -5, 0, 1, -1, 4, 6, 876, 726, 72,a
2025-03-17 14:33:18.102,669, 595, 434, -5, 1, 0, -2, 2, 6, 880, 729, 69,a
2025-03-17 14:33:18.159,667, 595, 459, -6, -1, 0, -2, 3, 5, 883, 731, 65,a
2025-03-17 14:33:18.202,691, 595, 427, 1, -2, 0, -1, 3, 3, 889, 740, 41,a
2025-03-17 14:33:18.259,669, 598, 469, -3, -1, 2, -1, 2, 7, 888, 756, 66,a
2025-03-17 14:33:18.309,660, 637, 457, 0, -10, 4, -2, 5, 6, 899, 795, 57,a
2025-03-17 14:33:18.368,754, 658, 444, -21, 0, -8, -1, 3, 7, 915, 848, 45,a
2025-03-17 14:33:18.417,628, 539, 457, -3, -3, -9, 0, 2, 9, 915, 863, 72,a
2025-03-17 14:33:18.469,760, 493, 489, 0, -1, -12, -1, 4, 7, 929, 852, 59,a
2025-03-17 14:33:18.519,770, 678, 303, -26, 25, 20, -1, 3, 8, 942, 839, 43,a
2025-03-17 14:33:18.569,668, 497, 567, -24, 2, 22, 0, 4, 7, 942, 891, 66,a
2025-03-17 14:33:18.629,797, 455, 515, 11, -20, -22, -1, 3, 6, 923, 905, 72,a
2025-03-17 14:33:18.683,723, 686, 326, 15, 1, 1, -1, 2, 7, 937, 902, 60,a
2025-03-17 14:33:18.735,774, 441, 424, -15, 16, -1, -1, 5, 5, 932, 873, 65,a
2025-03-17 14:33:18.999,666, 596, 453, -2, -2, -2, -2, 4, 4, 872, 788, 70,b
2025-03-17 14:33:19.059,668, 594, 460, -1, -3, -3, -1, 2, 5, 873, 786, 44,b
2025-03-17 14:33:19.109,641, 594, 473, -2, -6, -6, -2, 3, 5, 862, 806, 37,b
2025-03-17 14:33:19.167,655, 595, 455, -3, -8, -9, 0, 1, 7, 853, 834, 72,b
2025-03-17 14:33:19.216,688, 582, 448, 7, -8, -7, -1, 4, 4, 842, 848, 65,b
2025-03-17 14:33:19.269,747, 570, 537, 1, -4, -9, -2, 3, 5, 893, 863, 42,b
2025-03-17 14:33:19.319,678, 713, 200, 37, 46, 46, -1, 1, 7, 943, 860, 59,b
2025-03-17 14:33:19.369,695, 611, 341, -19, 22, 26, -2, 5, 6, 948, 813, 51,b
2025-03-17 14:33:19.429,709, 180, 671, 41, -25, -32, 0, 4, 4, 910, 845, 83,b
2025-03-17 14:33:19.482,598, 589, 509, 7, -14, 8, -1, 4, 5, 946, 926, 115,b
2025-03-17 14:33:19.535,774, 606, 418, -16, 24, 25, -1, 3, 5, 955, 919, 70,b
2025-03-17 14:33:19.589,931, 365, 358, -26, 31, -12, 1, 4, 6, 922, 816, 47,b
2025-03-17 14:33:19.644,569, 581, 603, -24, 28, -35, 0, 3, 2, 873, 800, 66,b
2025-03-17 14:33:19.900,687, 568, 489, -5, -3, 1, -2, 4, 4, 847, 761, 38,c
2025-03-17 14:33:19.950,672, 563, 499, -2, -5, 1, -2, 4, 4, 851, 768, 55,c
2025-03-17 14:33:20.002,686, 609, 442, -1, -7, 4, 1, 3, 7, 864, 787, 81,c
2025-03-17 14:33:20.059,681, 585, 457, -2, -7, 1, -1, 5, 6, 885, 815, 46,c
2025-03-17 14:33:20.109,676, 577, 461, -7, -13, -8, -2, 3, 5, 909, 874, 84,c
2025-03-17 14:33:20.167,705, 621, 510, -14, -3, -9, -1, 3, 8, 928, 906, 85,c
2025-03-17 14:33:20.219,574, 507, 412, 26, 3, -10, 1, 1, 9, 947, 881, 83,c
2025-03-17 14:33:20.269,653, 658, 307, -22, 32, 41, -2, 3, 7, 957, 910, 90,c
2025-03-17 14:33:20.319,671, 475, 592, -8, -10, 11, -1, 5, 5, 951, 913, 57,c
2025-03-17 14:33:20.383,581, 535, 497, -12, 46, -41, -2, 5, 3, 899, 866, 95,c
2025-03-17 14:33:20.649,677, 575, 483, 3, -2, 6, -1, 2, 3, 868, 790, 66,d
2025-03-17 14:33:20.709,680, 577, 475, 2, -3, 6, -1, 5, 5, 870, 787, 38,d
2025-03-17 14:33:20.759,653, 562, 496, -1, -9, 12, 0, 5, 4, 891, 805, 71,d
2025-03-17 14:33:20.809,691, 552, 428, -3, -9, -1, 0, 4, 4, 902, 871, 53,d
2025-03-17 14:33:20.866,667, 640, 470, -9, -9, -16, -1, 4, 7, 905, 896, 64,d
2025-03-17 14:33:20.919,599, 492, 489, 20, -4, -20, -2, 5, 5, 926, 880, 88,d
2025-03-17 14:33:20.969,943, 524, 320, -38, 33, 40, -1, 5, 5, 951, 887, 84,d
2025-03-17 14:33:21.029,623, 391, 697, -45, -6, 10, 0, 4, 6, 952, 923, 86,d
2025-03-17 14:33:21.084,680, 523, 423, 0, -29, -35, -1, 5, 5, 939, 934, 55,d
2025-03-17 14:33:21.133,639, 813, 359, 26, 0, 4, -1, 4, 6, 953, 930, 59,d
2025-03-17 14:33:21.184,690, 629, 237, -13, 23, 24, -2, 4, 6, 957, 915, 29,d
2025-03-17 14:33:21.243,702, 482, 401, -19, 20, -41, 0, 5, 5, 932, 883, 67,d
2025-03-17 14:33:21.529,666, 564, 500, -6, 0, 0, -2, 4, 4, 898, 769, 28,e
2025-03-17 14:33:21.579,669, 554, 497, -4, 0, 0, -2, 4, 4, 896, 768, 36,e
2025-03-17 14:33:21.633,695, 570, 481, -3, 2, 0, -1, 5, 6, 894, 767, 50,e
2025-03-17 14:33:21.679,635, 527, 524, 8, -3, 2, 0, 5, 5, 896, 778, 47,e
2025-03-17 14:33:21.729,646, 510, 493, -2, -4, 4, -1, 4, 4, 904, 808, 69,e
2025-03-17 14:33:21.785,909, 683, 384, 21, 4, 10, 1, 4, 6, 938, 893, 49,e
2025-03-17 14:33:21.837,698, 537, 496, -24, 1, 17, -2, 5, 4, 944, 922, 72,e
2025-03-17 14:33:21.889,681, 354, 601, 3, -21, -23, -1, 5, 4, 939, 922, 60,e
2025-03-17 14:33:21.944,835, 493, 506, 28, -3, -22, 0, 3, 6, 942, 892, 51,e
2025-03-17 14:33:21.990,917, 869, 127, 6, 32, 38, 0, 5, 3, 945, 905, 74,e
2025-03-17 14:33:22.043,742, 311, 542, -7, 4, -20, -1, 6, 4, 937, 898, 59,e
2025-03-17 14:33:22.350,686, 546, 489, 2, 0, 5, -1, 5, 4, 900, 806, 32,f
2025-03-17 14:33:22.400,695, 559, 478, 0, 1, 5, -1, 5, 4, 899, 806, 27,f
2025-03-17 14:33:22.451,688, 536, 502, -1, 2, 3, -1, 4, 2, 896, 806, 63,f
2025-03-17 14:33:22.499,683, 553, 489, -2, 1, 7, -1, 5, 4, 901, 811, 55,f
2025-03-17 14:33:22.550,662, 525, 516, -3, -3, 9, -1, 5, 3, 914, 834, 47,f
2025-03-17 14:33:22.604,696, 739, 475, -21, 3, 6, -1, 5, 3, 930, 877, 43,f
2025-03-17 14:33:22.659,201, 96, 884, 16, -42, -64, -1, 6, 2, 923, 911, 69,f
2025-03-17 14:33:22.709,639, 501, 480, 33, -35, -16, 0, 5, 4, 943, 940, 131,f
2025-03-17 14:33:22.769,667, 582, 399, 22, -13, 2, -2, 3, 8, 945, 941, 295,f
2025-03-17 14:33:22.819,685, 427, 383, -8, 46, -4, -2, 4, 8, 936, 922, 265,f
2025-03-17 14:33:22.874,848, 587, 614, -2, -27, 7, -2, 3, 5, 927, 894, 69,f
2025-03-17 14:33:22.931,810, 730, 457, -13, 5, 14, -1, 4, 7, 952, 938, 84,f
2025-03-17 14:33:22.979,670, 519, 445, 3, -2, 4, -1, 4, 7, 941, 926, 134,f
2025-03-17 14:33:23.249,682, 586, 452, -1, -3, 13, -2, 3, 5, 915, 804, 28,g
2025-03-17 14:33:23.308,674, 577, 439, -5, -3, 12, -2, 3, 5, 913, 808, 32,g
2025-03-17 14:33:23.359,660, 535, 494, -2, -15, 11, 0, 4, 8, 921, 840, 34,g
2025-03-17 14:33:23.415,760, 489, 344, -24, -1, -6, -3, 4, 4, 921, 865, 47,g
2025-03-17 14:33:23.467,743, 526, 486, -17, -9, -19, 0, 4, 6, 929, 877, 33,g
2025-03-17 14:33:23.519,763, 909, 83, 19, 20, 12, -1, 4, 7, 938, 866, 59,g
2025-03-17 14:33:23.570,572, 732, 448, -36, 30, 45, -1, 5, 6, 946, 908, 48,g
2025-03-17 14:33:23.631,670, 353, 449, 15, -18, -23, -1, 5, 5, 937, 916, 46,g
2025-03-17 14:33:23.683,726, 591, 447, 32, -5, -6, -2, 4, 3, 945, 911, 37,g
2025-03-17 14:33:23.734,807, 781, 390, -36, 40, 42, -2, 5, 3, 937, 886, 59,g
2025-03-17 14:33:23.789,937, 166, 497, -10, 25, -51, -2, 7, 4, 906, 769, 72,g
2025-03-17 14:33:24.079,732, 566, 380, 2, -8, 4, -1, 5, 5, 829, 797, 116,h
2025-03-17 14:33:24.135,714, 583, 388, 1, -4, 2, -2, 5, 5, 829, 798, 125,h
2025-03-17 14:33:24.189,671, 602, 475, -2, -6, -2, -1, 4, 5, 841, 807, 133,h
2025-03-17 14:33:24.240,617, 568, 475, 7, -21, -9, -1, 3, 6, 837, 829, 130,h
2025-03-17 14:33:24.292,732, 622, 482, 2, -7, -12, -2, 1, 5, 880, 865, 150,h
2025-03-17 14:33:24.348,916, 830, 166, 8, 27, 36, -1, 2, 6, 943, 868, 39,h
2025-03-17 14:33:24.400,870, 458, 490, -43, 20, 28, -1, 4, 5, 942, 844, 65,h
2025-03-17 14:33:24.450,759, 222, 915, 1, -20, -17, -1, 5, 5, 927, 884, 67,h
2025-03-17 14:33:24.501,677, 546, 562, 11, -16, 0, 0, 5, 6, 943, 912, 63,h
2025-03-17 14:33:24.559,777, 787, 307, -12, 33, 40, -2, 5, 5, 942, 902, 69,h
2025-03-17 14:33:24.616,716, 432, 393, -18, 36, -43, -1, 5, 2, 927, 843, 53,h
2025-03-17 14:33:24.919,691, 582, 465, 6, -9, 9, 0, 3, 4, 868, 745, 52,i
2025-03-17 14:33:24.971,722, 541, 423, 4, -8, 6, 0, 5, 3, 871, 750, 67,i
2025-03-17 14:33:25.019,701, 562, 459, -5, 0, 1, -1, 4, 3, 877, 759, 42,i
2025-03-17 14:33:25.069,658, 548, 471, 5, -16, 1, -2, 4, 4, 887, 802, 32,i
2025-03-17 14:33:25.119,747, 496, 458, 1, 0, -8, -1, 5, 5, 914, 881, 46,i
2025-03-17 14:33:25.169,690, 535, 544, -2, -6, -5, -2, 3, 5, 949, 902, 49,i
2025-03-17 14:33:25.233,1199, 571, 416, -40, 31, 28, -1, 5, 5, 959, 885, 47,i
2025-03-17 14:33:25.283,730, -26, 640, -8, -7, -48, -1, 6, 2, 942, 863, 46,i
2025-03-17 14:33:25.339,491, 615, 791, -3, -52, -2, -2, 6, 5, 940, 917, 32,i
2025-03-17 14:33:25.389,717, 689, 246, 4, 9, 3, -1, 5, 8, 947, 932, 55,i
2025-03-17 14:33:25.442,686, 536, 358, -19, 27, -12, -1, 4, 5, 939, 900, 67,i
2025-03-17 14:33:25.743,618, 537, 527, 6, -7, 9, -1, 5, 5, 892, 753, 47,j
2025-03-17 14:33:25.799,604, 502, 548, 11, -12, 7, -2, 5, 4, 890, 755, 62,j
2025-03-17 14:33:25.850,786, 513, 367, 4, -12, -2, 0, 3, 6, 890, 793, 65,j
2025-03-17 14:33:25.901,680, 599, 512, 6, -1, -3, -2, 5, 4, 884, 837, 66,j
2025-03-17 14:33:25.950,759, 690, 479, -17, 1, 8, 0, 4, 4, 942, 885, 29,j
2025-03-17 14:33:26.001,403, 966, 350, -9, 32, 45, -1, 5, 4, 957, 902, 39,j
2025-03-17 14:33:26.050,763, 383, 385, -61, 8, 1, 0, 7, 2, 945, 868, 70,j
2025-03-17 14:33:26.109,715, 846, 414, -4, -40, -80, -2, 6, 4, 929, 885, 64,j
2025-03-17 14:33:26.167,757, 617, 427, -13, -30, -13, -2, 5, 6, 950, 939, 71,j
2025-03-17 14:33:26.219,849, 735, 487, 9, -2, 26, -2, 5, 7, 950, 930, 36,j
2025-03-17 14:33:26.272,649, 559, 446, -15, 58, -20, -1, 5, 7, 932, 892, 70,j
2025-03-17 14:33:26.559,677, 582, 485, 0, -16, -4, -2, 3, 5, 886, 832, 68,k
2025-03-17 14:33:26.619,671, 550, 464, -3, -16, -5, -3, 3, 3, 891, 841, 60,k
2025-03-17 14:33:26.669,708, 594, 502, -5, -16, 0, -1, 2, 5, 910, 886, 67,k
2025-03-17 14:33:26.724,685, 567, 512, 23, -4, -8, -2, 4, 8, 929, 891, 49,k
2025-03-17 14:33:26.769,714, 558, 467, 6, 31, 26, -2, 3, 8, 939, 817, 48,k
2025-03-17 14:33:26.831,768, 515, 323, -34, 18, 16, -1, 4, 8, 934, 879, 64,k
2025-03-17 14:33:26.885,417, 215, 848, -6, -41, -8, -1, 5, 6, 948, 939, 47,k
2025-03-17 14:33:26.939,666, 604, 464, 20, -10, -2, -2, 5, 6, 931, 912, 73,k
2025-03-17 14:33:26.991,542, 645, 553, -15, 12, -15, -1, 5, 5, 926, 861, 45,k
2025-03-17 14:33:27.047,813, 705, 404, -8, 9, 19, -2, 5, 5, 946, 921, 55,k
2025-03-17 14:33:27.100,734, 249, 573, -8, 17, 22, -2, 5, 5, 949, 917, 41,k
2025-03-17 14:33:27.150,591, 548, 499, -1, 34, -61, 0, 4, 5, 913, 872, 71,k
2025-03-17 14:33:27.409,672, 579, 453, -3, -7, -3, 0, 3, 5, 875, 856, 110,l
2025-03-17 14:33:27.469,677, 594, 454, -4, -8, -4, -1, 3, 4, 871, 857, 122,l
2025-03-17 14:33:27.520,664, 584, 449, -2, -9, -4, 0, 2, 6, 867, 856, 124,l
2025-03-17 14:33:27.569,663, 604, 473, -6, -15, -3, -1, 2, 6, 872, 869, 121,l
2025-03-17 14:33:27.629,759, 525, 426, -2, -12, -12, -1, 5, 6, 912, 903, 48,l
2025-03-17 14:33:27.682,589, 771, 395, 40, 17, 22, -2, 3, 8, 942, 902, 58,l
2025-03-17 14:33:27.739,845, 374, 456, -36, 32, 27, -1, 3, 7, 956, 894, 46,l
2025-03-17 14:33:27.789,788, 461, 742, -6, 3, 11, -1, 4, 6, 930, 875, 71,l
2025-03-17 14:33:27.842,700, 586, 325, -22, 31, -37, -1, 3, 4, 883, 841, 84,l
2025-03-17 14:33:27.893,562, 600, 658, 9, -14, 2, -1, 4, 5, 854, 825, 62,l
2025-03-17 14:33:28.178,681, 594, 468, -4, 0, 1, 0, 3, 7, 814, 702, 29,m
2025-03-17 14:33:28.220,681, 584, 469, -4, 0, 1, 0, 3, 7, 814, 694, 36,m
2025-03-17 14:33:28.271,689, 575, 452, 1, 0, 0, -1, 3, 7, 808, 683, 62,m
2025-03-17 14:33:28.329,667, 576, 469, 2, -4, -2, -2, 4, 6, 808, 708, 57,m
2025-03-17 14:33:28.372,666, 601, 464, 4, -16, -2, 1, 4, 6, 827, 756, 52,m
2025-03-17 14:33:28.433,842, 493, 341, -28, -5, -10, -1, 2, 8, 890, 843, 41,m
2025-03-17 14:33:28.483,634, 602, 472, 1, 6, 6, -2, 5, 6, 930, 868, 70,m
2025-03-17 14:33:28.539,568, 675, 267, -23, 28, 25, -1, 3, 9, 946, 867, 52,m
2025-03-17 14:33:28.589,752, 590, 503, -22, 9, 8, -1, 3, 7, 937, 893, 48,m
2025-03-17 14:33:28.640,883, 667, 431, 8, -37, -25, -1, 5, 6, 936, 920, 55,m
2025-03-17 14:33:28.698,705, 688, 358, 11, -6, 5, -2, 3, 7, 957, 933, 40,m
2025-03-17 14:33:28.749,667, 649, 231, -17, 30, 29, -1, 4, 6, 949, 922, 69,m
2025-03-17 14:33:28.799,548, 219, 783, 18, -36, -26, -1, 5, 7, 946, 929, 46,m
2025-03-17 14:33:28.849,733, 738, 454, 22, -11, 2, -1, 4, 9, 946, 927, 77,m
2025-03-17 14:33:28.909,734, 523, 465, -11, 28, 25, -1, 3, 9, 953, 922, 45,m
2025-03-17 14:33:28.965,734, 470, 388, -3, 21, -36, -1, 6, 4, 925, 891, 56,m
2025-03-17 14:33:29.255,682, 570, 456, -7, 0, 1, 0, 4, 4, 826, 658, 45,n
2025-03-17 14:33:29.299,681, 564, 462, -5, 1, 1, 0, 3, 6, 829, 641, 41,n
2025-03-17 14:33:29.352,676, 554, 488, 2, 0, 0, -1, 3, 6, 825, 639, 57,n
2025-03-17 14:33:29.400,701, 591, 430, -2, -1, -3, -1, 5, 6, 811, 641, 57,n
2025-03-17 14:33:29.459,658, 567, 502, 2, -1, -3, -1, 4, 5, 806, 625, 44,n
2025-03-17 14:33:29.513,677, 585, 425, 2, -5, -5, -1, 3, 7, 792, 616, 69,n
2025-03-17 14:33:29.559,704, 592, 523, 6, -22, 0, -1, 3, 5, 835, 753, 59,n
2025-03-17 14:33:29.615,705, 564, 400, -10, -4, -7, -2, 3, 7, 922, 850, 33,n
2025-03-17 14:33:29.669,917, 721, 400, -19, 40, 41, -1, 4, 7, 938, 854, 51,n
2025-03-17 14:33:29.724,791, 623, 427, -25, 9, 12, -1, 5, 5, 931, 883, 30,n
2025-03-17 14:33:29.779,684, 700, 451, 5, -36, -16, -1, 2, 7, 926, 911, 73,n
2025-03-17 14:33:29.832,676, 668, 118, -6, 26, 29, -1, 4, 8, 944, 910, 56,n
2025-03-17 14:33:29.882,751, 529, 418, -23, 25, -11, -1, 5, 5, 919, 864, 53,n
2025-03-17 14:33:29.939,660, 525, 570, -2, 16, -35, -1, 4, 4, 858, 799, 42,n
2025-03-17 14:33:30.209,703, 569, 455, -1, -1, 4, -1, 3, 5, 847, 762, 68,o
2025-03-17 14:33:30.259,703, 558, 458, -1, -2, 4, -4, 4, 4, 850, 767, 55,o
2025-03-17 14:33:30.309,716, 572, 443, 1, -1, 2, -2, 3, 7, 873, 820, 31,o
2025-03-17 14:33:30.359,682, 561, 467, 3, -7, 5, -1, 5, 6, 887, 852, 50,o
2025-03-17 14:33:30.414,686, 716, 416, -11, -4, -4, -2, 2, 8, 904, 881, 57,o
2025-03-17 14:33:30.465,1067, 531, 489, 8, -7, -19, -3, 4, 7, 912, 900, 36,o
2025-03-17 14:33:30.519,996, 922, -94, 55, 32, 13, 1, 3, 7, 930, 879, 73,o
2025-03-17 14:33:30.569,793, 814, 564, -46, 10, 37, -1, 4, 5, 939, 917, 50,o
2025-03-17 14:33:30.630,710, 416, 509, 29, -34, -30, -1, 4, 6, 928, 916, 52,o
2025-03-17 14:33:30.683,880, 600, 202, 0, 45, -39, -1, 4, 6, 825, 848, 111,o
2025-03-17 14:33:30.979,675, 581, 454, -3, -4, 5, -2, 4, 4, 772, 716, 46,p
2025-03-17 14:33:31.031,679, 573, 453, -2, -5, 5, -1, 3, 6, 774, 718, 52,p
2025-03-17 14:33:31.082,697, 578, 438, 3, -6, 4, -3, 5, 5, 797, 725, 46,p
2025-03-17 14:33:31.134,656, 584, 471, -1, -16, 0, -1, 3, 6, 818, 795, 71,p
2025-03-17 14:33:31.189,701, 574, 348, -19, 0, -8, -2, 4, 5, 873, 879, 53,p
2025-03-17 14:33:31.239,749, 627, 470, 46, -2, 3, -1, 3, 4, 929, 883, 52,p
2025-03-17 14:33:31.292,515, 459, 204, -22, 40, 45, -2, 4, 6, 941, 854, 52,p
2025-03-17 14:33:31.347,695, 503, 564, -21, 2, 0, -1, 5, 4, 935, 874, 43,p
2025-03-17 14:33:31.399,766, 844, 239, 0, -45, -48, -1, 3, 6, 921, 916, 54,p
2025-03-17 14:33:31.450,507, 781, 503, 15, -18, -2, -3, 4, 6, 943, 929, 52,p
2025-03-17 14:33:31.509,423, 713, 321, -32, 39, 36, -2, 4, 6, 944, 917, 60,p
2025-03-17 14:33:31.565,988, 310, 411, -10, 28, -23, 0, 4, 7, 925, 883, 55,p
2025-03-17 14:33:31.843,689, 578, 462, -1, -3, 3, -2, 4, 5, 871, 827, 72,q
2025-03-17 14:33:31.897,684, 569, 473, 0, -4, 4, -1, 3, 6, 874, 832, 62,q
2025-03-17 14:33:31.950,715, 569, 422, 5, -9, 5, -3, 5, 7, 881, 853, 74,q
2025-03-17 14:33:32.000,719, 645, 435, -11, 1, -2, -1, 3, 9, 895, 880, 76,q
2025-03-17 14:33:32.051,634, 510, 594, -4, -12, -18, -2, 4, 9, 918, 907, 31,q
2025-03-17 14:33:32.109,802, 684, 295, 42, 5, -13, -1, 4, 7, 921, 868, 70,q
2025-03-17 14:33:32.162,717, 275, 436, -24, 29, 32, -2, 4, 6, 946, 899, 31,q
2025-03-17 14:33:32.216,640, 341, 577, -6, -20, -10, 0, 5, 5, 935, 916, 55,q
2025-03-17 14:33:32.269,701, 428, 566, 22, -14, -14, 0, 5, 6, 940, 920, 39,q
2025-03-17 14:33:32.319,668, 383, 454, -31, 30, 36, -1, 5, 7, 938, 903, 51,q
2025-03-17 14:33:32.371,758, 459, 680, -23, 3, 15, 0, 5, 5, 942, 921, 77,q
2025-03-17 14:33:32.433,805, 484, 155, -25, 56, -45, -3, 5, 4, 925, 903, 63,q
2025-03-17 14:33:32.675,705, 593, 451, 1, -5, -4, -1, 3, 5, 843, 752, 74,r
2025-03-17 14:33:32.728,704, 603, 455, -1, -5, -3, -1, 4, 5, 845, 751, 61,r
2025-03-17 14:33:32.781,658, 553, 483, 1, -11, -4, -1, 4, 5, 854, 769, 73,r
2025-03-17 14:33:32.833,689, 583, 459, 1, -15, -8, -2, 4, 5, 863, 828, 57,r
2025-03-17 14:33:32.884,708, 528, 440, -14, -1, -6, -3, 4, 5, 900, 876, 51,r
2025-03-17 14:33:32.939,919, 762, 335, 16, 30, 35, 0, 3, 7, 924, 860, 77,r
2025-03-17 14:33:32.990,688, 612, 291, -24, 13, 19, -2, 5, 4, 931, 860, 60,r
2025-03-17 14:33:33.048,655, 212, 728, 11, -30, -36, 0, 6, 4, 911, 908, 81,r
2025-03-17 14:33:33.100,706, 708, 420, 12, -14, 5, -1, 5, 5, 918, 915, 53,r
2025-03-17 14:33:33.149,727, 505, 375, -5, 28, -1, -1, 5, 4, 902, 890, 61,r
2025-03-17 14:33:33.199,598, 555, 617, -6, 13, -14, -2, 5, 4, 866, 834, 90,r
2025-03-17 14:33:33.475,710, 560, 453, -3, -8, 10, -2, 4, 5, 889, 841, 59,s
2025-03-17 14:33:33.530,701, 543, 443, -3, -8, 10, -2, 5, 6, 889, 847, 80,s
2025-03-17 14:33:33.582,700, 517, 464, -6, -6, 5, -2, 4, 6, 911, 875, 55,s
2025-03-17 14:33:33.632,735, 529, 448, -12, -4, -7, -1, 6, 5, 915, 892, 74,s
2025-03-17 14:33:33.689,645, 518, 587, -7, -3, -9, -3, 5, 5, 919, 901, 67,s
2025-03-17 14:33:33.742,786, 567, 290, 27, 6, -6, -1, 3, 8, 932, 903, 59,s
2025-03-17 14:33:33.797,706, 626, 334, -3, 28, 35, -1, 3, 8, 951, 924, 37,s
2025-03-17 14:33:33.849,504, 494, 439, -12, 12, 14, 0, 6, 4, 931, 902, 82,s
2025-03-17 14:33:33.899,886, 374, 425, -1, 18, -32, -1, 5, 7, 904, 829, 79,s
2025-03-17 14:33:33.955,619, 520, 641, -22, 24, -31, -1, 5, 2, 879, 824, 74,s
2025-03-17 14:33:34.241,706, 590, 423, 8, -14, 8, -3, 3, 6, 878, 867, 68,t
2025-03-17 14:33:34.292,696, 583, 420, 6, -13, 7, -2, 4, 9, 882, 871, 81,t
2025-03-17 14:33:34.347,686, 588, 424, -2, -3, 1, -2, 5, 7, 897, 886, 103,t
2025-03-17 14:33:34.399,696, 568, 430, -5, -3, 1, -3, 4, 7, 899, 892, 129,t
2025-03-17 14:33:34.449,659, 556, 484, -11, -12, -3, -2, 4, 7, 905, 906, 138,t
2025-03-17 14:33:34.503,760, 581, 480, 6, -8, -11, -1, 3, 8, 921, 917, 61,t
2025-03-17 14:33:34.559,558, 1014, 20, 57, 36, 15, -2, 3, 9, 942, 899, 55,t
2025-03-17 14:33:34.614,729, 806, 459, -46, 43, 45, -2, 5, 4, 943, 912, 76,t
2025-03-17 14:33:34.669,631, 110, 675, 0, -33, -57, -2, 5, 4, 937, 906, 49,t
2025-03-17 14:33:34.718,879, 499, 442, -9, -33, -16, -1, 1, 7, 926, 895, 65,t
2025-03-17 14:33:34.771,830, 724, 271, -17, -4, 28, -3, 4, 8, 950, 934, 56,t
2025-03-17 14:33:34.828,743, 351, 459, 5, 9, 4, -2, 5, 6, 938, 916, 92,t
2025-03-17 14:33:35.129,654, 577, 511, -2, -1, 1, -1, 3, 8, 894, 777, 64,u
2025-03-17 14:33:35.182,667, 573, 502, -1, -4, 2, -2, 5, 7, 894, 779, 56,u
2025-03-17 14:33:35.235,694, 568, 429, -8, -6, 0, -1, 4, 7, 895, 783, 70,u
2025-03-17 14:33:35.282,679, 572, 461, -16, -12, 2, -1, 4, 6, 914, 838, 56,u
2025-03-17 14:33:35.335,709, 498, 548, 2, 0, -6, -2, 5, 8, 923, 865, 84,u
2025-03-17 14:33:35.391,900, 593, 317, -6, 29, 45, -1, 3, 7, 940, 887, 65,u
2025-03-17 14:33:35.439,678, 512, 446, -49, 8, 24, -1, 6, 7, 936, 911, 76,u
2025-03-17 14:33:35.497,511, 439, 519, 1, -24, -27, -2, 6, 5, 931, 919, 91,u
2025-03-17 14:33:35.549,740, 558, 387, 29, -3, -1, -3, 7, 7, 944, 918, 82,u
2025-03-17 14:33:35.599,724, 750, 460, -11, 13, 25, -1, 5, 6, 941, 913, 76,u
2025-03-17 14:33:35.658,752, 540, 324, -17, 24, -43, -2, 5, 6, 937, 896, 57,u
2025-03-17 14:33:35.939,677, 533, 521, 1, -1, 1, -1, 5, 5, 824, 662, 72,v
2025-03-17 14:33:35.989,678, 544, 520, 2, -2, 2, -1, 5, 2, 824, 661, 77,v
2025-03-17 14:33:36.039,668, 553, 514, 2, -4, 2, -1, 5, 4, 827, 677, 74,v
2025-03-17 14:33:36.089,687, 573, 484, 1, -6, 2, -4, 5, 3, 827, 687, 64,v
2025-03-17 14:33:36.141,665, 568, 500, 2, -6, 2, -2, 4, 5, 830, 674, 66,v
2025-03-17 14:33:36.192,689, 555, 475, 8, -10, -2, -2, 4, 4, 835, 651, 41,v
2025-03-17 14:33:36.247,616, 529, 524, 7, -15, -6, -3, 3, 6, 840, 698, 95,v
2025-03-17 14:33:36.299,697, 375, 244, -14, -6, -15, -2, 6, 7, 906, 831, 70,v
2025-03-17 14:33:36.348,758, 599, 498, 14, 8, 14, -1, 5, 7, 932, 883, 92,v
2025-03-17 14:33:36.399,582, 1108, 47, 13, 23, 35, 0, 3, 8, 939, 904, 106,v
2025-03-17 14:33:36.464,758, 353, 708, -30, -7, 14, -2, 5, 8, 953, 933, 58,v
2025-03-17 14:33:36.514,870, 471, 474, 25, -18, -18, -1, 5, 5, 932, 925, 73,v
2025-03-17 14:33:36.569,718, 461, 330, -16, 33, -21, -2, 6, 7, 914, 904, 102,v
2025-03-17 14:33:36.873,692, 541, 483, -1, -3, 0, -1, 4, 6, 846, 722, 103,w
2025-03-17 14:33:36.930,687, 540, 479, 1, -4, 0, -2, 5, 4, 846, 722, 93,w
2025-03-17 14:33:36.980,680, 561, 474, 6, -7, -2, -1, 3, 6, 847, 726, 75,w
2025-03-17 14:33:37.031,689, 551, 450, 4, -12, -6, -2, 5, 5, 853, 766, 92,w
2025-03-17 14:33:37.088,718, 591, 457, -17, -11, -10, -1, 4, 6, 899, 857, 39,w
2025-03-17 14:33:37.142,806, 421, 678, 26, -10, -9, -1, 4, 6, 932, 903, 78,w
2025-03-17 14:33:37.197,438, 627, 300, 7, 28, 45, -2, 5, 6, 945, 913, 98,w
2025-03-17 14:33:37.249,626, 333, 734, -42, -9, 11, -1, 5, 8, 947, 931, 75,w
2025-03-17 14:33:37.299,692, 400, 631, 25, -15, -15, -1, 5, 6, 942, 938, 70,w
2025-03-17 14:33:37.359,814, 479, 409, -12, 17, 32, -2, 6, 6, 949, 935, 76,w
2025-03-17 14:33:37.414,776, 469, 607, -28, -14, 0, -3, 8, 7, 947, 940, 74,w
2025-03-17 14:33:37.464,844, 471, 90, -12, 48, -35, -3, 8, 8, 923, 925, 63,w
2025-03-17 14:33:37.769,475, 657, 642, -14, 6, 16, -4, 4, 7, 866, 760, 104,x
2025-03-17 14:33:37.819,407, 653, 679, -7, 0, 28, -3, 2, 7, 874, 766, 109,x
2025-03-17 14:33:37.870,759, 571, 353, 14, -23, 37, -1, 3, 5, 887, 782, 75,x
2025-03-17 14:33:37.930,747, 547, 413, -14, 3, 12, -2, 4, 7, 903, 834, 81,x
2025-03-17 14:33:37.981,621, 504, 545, -7, -27, 14, -1, 5, 5, 912, 891, 105,x
2025-03-17 14:33:38.039,686, 521, 414, -14, -4, -7, -3, 5, 9, 933, 919, 76,x
2025-03-17 14:33:38.090,71, 1061, 106, 40, 40, 18, -2, 4, 9, 946, 909, 67,x
2025-03-17 14:33:38.147,793, 572, 301, -34, 29, 17, -1, 3, 8, 924, 862, 100,x
2025-03-17 14:33:38.199,549, 777, 636, 17, -30, -15, -3, 7, 6, 915, 884, 78,x
2025-03-17 14:33:38.252,936, 935, 164, -31, 14, 55, -3, 6, 5, 948, 929, 100,x
2025-03-17 14:33:38.311,722, 299, 568, -13, 7, 6, -2, 9, 5, 945, 915, 90,x
2025-03-17 14:33:38.594,709, 548, 430, -6, 1, -2, -2, 5, 9, 910, 853, 44,y
2025-03-17 14:33:38.646,708, 558, 437, -5, 2, -3, -2, 5, 9, 907, 851, 53,y
2025-03-17 14:33:38.699,663, 530, 532, -1, -4, -1, -1, 5, 5, 904, 848, 91,y
2025-03-17 14:33:38.749,667, 548, 520, -4, -13, -3, -2, 5, 6, 914, 873, 53,y
2025-03-17 14:33:38.799,761, 441, 498, 33, -3, -12, -1, 5, 9, 939, 897, 72,y
2025-03-17 14:33:38.859,689, 558, 238, -29, 25, 43, -2, 4, 7, 954, 917, 62,y
2025-03-17 14:33:38.915,659, 173, 668, 11, -20, -27, -3, 6, 5, 937, 913, 66,y
2025-03-17 14:33:38.969,715, 569, 690, 31, -10, -10, -1, 5, 6, 936, 918, 86,y
2025-03-17 14:33:39.019,742, 653, 381, 15, 35, 40, -1, 5, 6, 952, 923, 66,y
2025-03-17 14:33:39.069,767, 395, 442, -35, 18, 7, -1, 7, 4, 930, 853, 84,y
2025-03-17 14:33:39.129,834, 628, 360, -12, 25, -43, 0, 5, 4, 887, 849, 76,y
2025-03-17 14:33:39.393,695, 573, 486, -7, -2, 0, -4, 6, 5, 877, 805, 76,z
2025-03-17 14:33:39.445,696, 564, 490, -8, -2, 0, -2, 5, 7, 880, 805, 71,z
2025-03-17 14:33:39.498,682, 548, 494, -8, -2, -2, -4, 6, 5, 885, 801, 69,z
2025-03-17 14:33:39.549,684, 543, 466, -5, -10, -5, -1, 5, 5, 895, 792, 89,z
2025-03-17 14:33:39.599,690, 574, 436, -11, 2, -10, -1, 4, 7, 915, 842, 81,z
2025-03-17 14:33:39.659,853, 832, 412, -6, -16, 32, -1, 5, 5, 944, 924, 78,z
2025-03-17 14:33:39.712,538, 531, 437, 32, 9, 30, -2, 5, 7, 950, 919, 74,z
2025-03-17 14:33:39.764,977, 547, 317, -48, 26, 1, 0, 5, 6, 938, 823, 88,z
2025-03-17 14:33:39.815,914, 750, 546, 15, -1, 17, -1, 6, 5, 950, 919, 67,z
2025-03-17 14:33:39.865,699, 571, 548, -7, -3, 17, -2, 5, 5, 951, 930, 78,z
2025-03-17 14:33:39.920,503, 548, 423, 38, 14, -60, -1, 7, 6, 930, 887, 79,z
2025-03-17 14:33:39.978,937, 457, 477, -6, -48, 11, -1, 5, 5, 933, 900, 77,z
2025-03-17 14:33:40.031,759, 673, 273, -24, 6, 28, -1, 5, 7, 947, 934, 93,z
2025-03-17 14:33:40.081,760, 324, 325, 10, 7, -6, -1, 5, 7, 942, 914, 85,z
2025-03-17 14:33:40.416,567, 641, 548, -14, 32, -98, -3, 1, 0, 220, 459, 180,0
2025-03-17 14:33:40.469,561, 734, 563, -19, 37, -96, -2, 0, 0, 232, 468, 186,0
2025-03-17 14:33:40.529,298, 731, 693, -25, 41, -69, -2, -2, -1, 385, 542, 243,0
2025-03-17 14:33:40.579,136, 762, 765, 16, -1, 42, -2, -2, -2, 583, 626, 213,0
2025-03-17 14:33:40.645,202, 713, 785, 60, -86, 155, -3, -2, -1, 658, 654, 45,0
2025-03-17 14:33:40.696,742, 433, 404, 50, -23, 117, -5, 1, 2, 619, 600, 63,0
2025-03-17 14:33:40.749,756, 529, 335, 30, -5, 33, -2, 2, 3, 601, 565, 57,0
2025-03-17 14:33:40.799,873, 561, 458, -5, -13, 3, -3, 5, 3, 677, 661, 69,0
2025-03-17 14:33:40.859,618, 717, 410, -52, 23, -2, -3, 5, 3, 807, 702, 72,0
2025-03-17 14:33:40.912,563, 604, 698, 15, -50, 31, -2, 4, 5, 858, 780, 72,0
2025-03-17 14:33:40.969,567, 625, 365, -18, -13, -23, -1, 4, 7, 895, 874, 65,0
2025-03-17 14:33:41.019,953, 382, 678, 9, -21, -35, -2, 3, 8, 920, 891, 47,0
2025-03-17 14:33:41.069,798, 772, -37, -54, 58, 68, -1, 3, 7, 944, 893, 88,0
2025-03-17 14:33:41.129,437, 277, 946, -72, -17, 16, -1, 6, 3, 949, 930, 64,0
2025-03-17 14:33:41.186,805, 421, 477, 79, -32, -42, -3, 6, 5, 924, 907, 67,0
2025-03-17 14:33:41.244,811, 537, 265, -25, 60, -27, -3, 5, 6, 904, 879, 80,0
2025-03-17 14:33:41.535,667, 565, 483, 5, -13, 3, -3, 5, 4, 853, 754, 91,1
2025-03-17 14:33:41.589,674, 566, 474, 5, -13, 2, -2, 5, 6, 851, 751, 72,1
2025-03-17 14:33:41.639,713, 568, 410, -3, 0, -6, -2, 6, 6, 844, 740, 65,1
2025-03-17 14:33:41.695,660, 587, 497, -4, -2, -3, -4, 5, 8, 844, 743, 60,1
2025-03-17 14:33:41.747,678, 588, 461, -3, -2, -2, -1, 4, 8, 852, 754, 73,1
2025-03-17 14:33:41.799,623, 529, 546, 6, -15, 5, -3, 5, 7, 869, 777, 90,1
2025-03-17 14:33:41.849,737, 746, 339, -15, 0, -6, -3, 4, 8, 899, 841, 67,1
2025-03-17 14:33:41.899,748, 751, 441, -14, -16, 17, -1, 4, 8, 925, 917, 77,1
2025-03-17 14:33:41.960,559, 513, 595, -3, -3, 4, -3, 5, 7, 940, 932, 64,1
2025-03-17 14:33:42.009,622, 595, 400, 51, 9, 9, -2, 5, 9, 945, 921, 83,1
2025-03-17 14:33:42.063,726, 799, 147, 1, 37, 37, -3, 5, 6, 948, 917, 99,1
2025-03-17 14:33:42.113,606, 207, 611, -8, 15, -42, -1, 5, 6, 931, 865, 63,1
2025-03-17 14:33:42.169,884, 622, 422, 41, -11, -12, -1, 5, 7, 937, 899, 77,1
2025-03-17 14:33:42.220,690, 501, 443, -24, 7, 38, -2, 4, 7, 958, 940, 54,1
2025-03-17 14:33:42.280,752, 410, 228, -13, 42, -39, -4, 6, 5, 938, 907, 97,1
2025-03-17 14:33:42.554,699, 550, 431, -9, 3, -2, -2, 5, 6, 834, 768, 74,2
2025-03-17 14:33:42.598,686, 555, 456, -8, 4, -2, -1, 3, 6, 833, 765, 92,2
2025-03-17 14:33:42.649,669, 573, 486, -10, -1, -2, -3, 4, 5, 845, 756, 62,2
2025-03-17 14:33:42.710,681, 579, 466, -7, -4, 1, -1, 4, 7, 858, 765, 88,2
2025-03-17 14:33:42.762,676, 545, 494, -5, -4, -2, -2, 5, 6, 871, 781, 73,2
2025-03-17 14:33:42.813,668, 588, 468, -4, -7, -4, -2, 4, 5, 874, 783, 78,2
2025-03-17 14:33:42.869,666, 550, 476, -11, -17, -10, -1, 4, 7, 884, 830, 73,2
2025-03-17 14:33:42.927,1085, 978, 652, 14, -22, 17, -2, 4, 8, 933, 919, 91,2
2025-03-17 14:33:42.980,518, 519, 590, 35, 6, 12, -2, 4, 8, 945, 919, 69,2
2025-03-17 14:33:43.029,872, 552, 353, -59, 31, 19, -3, 4, 8, 940, 866, 71,2
2025-03-17 14:33:43.080,781, 560, 435, -16, 13, 30, -2, 6, 6, 955, 935, 46,2
2025-03-17 14:33:43.129,758, 443, 414, 8, 5, 6, -2, 7, 7, 937, 916, 82,2
2025-03-17 14:33:43.439,690, 582, 445, -11, -4, -5, -1, 3, 7, 826, 808, 69,3
2025-03-17 14:33:43.495,691, 592, 439, -12, -4, -5, -3, 5, 5, 827, 809, 57,3
2025-03-17 14:33:43.549,651, 577, 475, -17, -4, -4, -2, 4, 6, 844, 808, 88,3
2025-03-17 14:33:43.599,680, 553, 470, -7, -23, 2, -4, 5, 7, 877, 843, 88,3
2025-03-17 14:33:43.651,864, 705, 621, 11, -12, 8, -1, 4, 6, 933, 919, 61,3
2025-03-17 14:33:43.709,608, 576, 541, 24, -3, 7, -3, 4, 10, 939, 917, 91,3
2025-03-17 14:33:43.762,628, 541, 284, 7, 10, 4, -2, 5, 8, 948, 911, 50,3
2025-03-17 14:33:43.812,875, 618, 539, -4, 17, 6, -2, 4, 7, 948, 919, 70,3
2025-03-17 14:33:43.862,645, 792, 419, 2, 11, 22, -3, 6, 7, 949, 921, 78,3
2025-03-17 14:33:43.912,772, 510, 476, -3, 20, 11, -1, 4, 7, 933, 869, 90,3
2025-03-17 14:33:43.969,788, 543, 333, -16, 44, -42, -1, 5, 4, 881, 814, 87,3
2025-03-17 14:33:44.255,704, 576, 444, 0, -13, -6, -3, 5, 7, 843, 814, 75,4
2025-03-17 14:33:44.299,707, 571, 452, -2, -13, -7, -2, 3, 7, 848, 825, 51,4
2025-03-17 14:33:44.361,666, 583, 491, 3, -16, -2, -5, 5, 7, 860, 859, 62,4
2025-03-17 14:33:44.414,682, 569, 477, 5, -20, 5, -3, 4, 8, 882, 884, 84,4
2025-03-17 14:33:44.465,713, 626, 386, -11, -8, -5, -2, 5, 7, 926, 910, 52,4
2025-03-17 14:33:44.519,865, 574, 605, 14, 8, 2, -4, 4, 10, 933, 899, 71,4
2025-03-17 14:33:44.569,611, 773, 1, -14, 23, 1, -1, 3, 10, 939, 844, 66,4
2025-03-17 14:33:44.627,874, 895, 458, -36, 14, 43, -3, 4, 8, 953, 925, 49,4
2025-03-17 14:33:44.680,655, 539, 555, -10, -4, 24, -3, 5, 9, 950, 930, 70,4
2025-03-17 14:33:44.730,706, 383, 306, 19, -9, -56, -2, 5, 8, 943, 917, 43,4
2025-03-17 14:33:44.780,539, 580, 779, 11, -31, 21, -2, 5, 7, 933, 908, 60,4
2025-03-17 14:33:44.839,705, 692, 231, 9, 40, 33, -2, 4, 7, 951, 914, 55,4
2025-03-17 14:33:44.894,707, 527, 452, -8, 20, 15, -2, 5, 8, 934, 861, 75,4
2025-03-17 14:33:44.946,686, 596, 372, 7, 25, -53, -1, 5, 5, 896, 807, 49,4
2025-03-17 14:33:44.999,527, 633, 702, -1, -16, 0, -1, 5, 3, 845, 808, 136,4
2025-03-17 14:33:45.049,774, 588, 363, 2, -19, 9, -1, 5, 4, 856, 818, 140,4
2025-03-17 14:33:45.821,696, 578, 456, 0, -1, 0, -2, 5, 5, 835, 698, 48,5
2025-03-17 14:33:45.877,695, 573, 459, 0, -1, 1, -2, 5, 5, 835, 702, 67,5
2025-03-17 14:33:45.929,681, 577, 483, 0, -1, 1, -3, 5, 7, 843, 716, 81,5
2025-03-17 14:33:45.979,700, 580, 460, 1, -2, 0, -2, 5, 5, 857, 732, 80,5
2025-03-17 14:33:46.030,687, 574, 470, 1, -2, -2, -3, 5, 6, 863, 737, 56,5
2025-03-17 14:33:46.080,673, 575, 476, -2, -4, -2, -2, 5, 5, 863, 740, 78,5
2025-03-17 14:33:46.138,682, 576, 458, -1, -8, 0, -2, 3, 7, 879, 748, 66,5
2025-03-17 14:33:46.189,817, 389, 393, -7, -2, -13, -2, 4, 7, 916, 816, 64,5
2025-03-17 14:33:46.244,726, 808, 315, -17, -2, 23, -3, 5, 5, 936, 917, 80,5
2025-03-17 14:33:46.295,557, 496, 663, 0, -9, 3, -1, 3, 8, 941, 925, 54,5
2025-03-17 14:33:46.347,760, 516, 371, 41, 3, -19, -2, 5, 7, 940, 901, 57,5
2025-03-17 14:33:46.399,770, 436, 509, -27, 27, 26, -1, 3, 9, 948, 916, 69,5
2025-03-17 14:33:46.451,629, 494, 553, -7, 9, 20, -1, 4, 6, 952, 910, 53,5
2025-03-17 14:33:46.500,910, 309, 369, 14, 21, -17, -1, 5, 6, 916, 810, 70,5
2025-03-17 14:33:47.129,693, 571, 486, 1, -2, 0, -2, 4, 3, 798, 631, 82,6
2025-03-17 14:33:47.179,680, 590, 484, 1, -1, 0, -1, 5, 6, 802, 632, 54,6
2025-03-17 14:33:47.232,670, 579, 500, 0, -2, 1, 0, 4, 6, 808, 657, 83,6
2025-03-17 14:33:47.279,679, 580, 479, 0, -4, 0, -3, 4, 5, 823, 700, 51,6
2025-03-17 14:33:47.334,686, 563, 502, 0, -6, 1, -1, 4, 5, 835, 737, 42,6
2025-03-17 14:33:47.384,669, 594, 482, 4, -11, 3, -3, 5, 7, 850, 773, 64,6
2025-03-17 14:33:47.436,692, 563, 448, 8, -18, 10, 0, 4, 8, 874, 854, 67,6
2025-03-17 14:33:47.489,684, 578, 455, -3, -17, 1, -3, 5, 5, 891, 888, 67,6
2025-03-17 14:33:47.543,709, 534, 504, -15, -1, -9, -2, 5, 6, 909, 910, 66,6
2025-03-17 14:33:47.595,750, 514, 593, 77, 3, -20, -2, 3, 8, 929, 889, 64,6
2025-03-17 14:33:47.649,1041, 755, 26, -38, 45, 56, -2, 4, 8, 945, 906, 85,6
2025-03-17 14:33:47.699,501, 492, 856, -20, -12, 1, -1, 5, 4, 939, 919, 84,6
2025-03-17 14:33:47.760,991, 537, 95, 35, -3, -32, -2, 4, 6, 883, 850, 87,6
2025-03-17 14:33:47.813,563, 640, 545, -34, 62, -33, -2, 3, 4, 852, 816, 71,6
2025-03-17 14:33:48.072,710, 599, 410, -1, -7, 1, -3, 5, 5, 759, 704, 62,7
2025-03-17 14:33:48.129,702, 583, 428, -3, -5, -1, -1, 4, 7, 763, 712, 60,7
2025-03-17 14:33:48.180,672, 595, 459, -4, -6, -4, -3, 5, 5, 781, 744, 57,7
2025-03-17 14:33:48.229,596, 566, 539, -11, -17, -6, -2, 5, 6, 808, 765, 85,7
2025-03-17 14:33:48.289,690, 430, 353, 2, -10, -20, -2, 3, 8, 879, 830, 70,7
2025-03-17 14:33:48.344,745, 725, 380, -38, -12, 33, -1, 2, 9, 928, 913, 75,7
2025-03-17 14:33:48.399,636, 467, 716, 45, -12, 3, -2, 2, 8, 944, 913, 68,7
2025-03-17 14:33:48.449,781, 887, 234, 29, 30, 17, -2, 4, 8, 946, 892, 77,7
2025-03-17 14:33:48.499,729, 420, 508, -53, 24, 2, -2, 4, 4, 933, 833, 72,7
2025-03-17 14:33:48.549,725, 733, 548, 27, -36, 3, -3, 4, 8, 925, 880, 71,7
2025-03-17 14:33:48.599,743, 654, 330, 6, -3, 17, -2, 5, 8, 947, 924, 64,7
2025-03-17 14:33:48.661,770, 437, 302, 5, 24, -25, -3, 4, 8, 925, 886, 92,7
2025-03-17 14:33:48.959,667, 574, 493, -2, -2, 7, -1, 4, 5, 836, 652, 67,8
2025-03-17 14:33:49.011,669, 578, 485, 0, -4, 8, -2, 4, 5, 839, 659, 54,8
2025-03-17 14:33:49.062,709, 589, 458, -1, -8, 11, -3, 5, 5, 859, 714, 62,8
2025-03-17 14:33:49.119,720, 593, 423, -1, -15, 5, -2, 4, 6, 894, 792, 62,8
2025-03-17 14:33:49.178,606, 458, 503, -17, -1, -12, -3, 5, 7, 910, 882, 84,8
2025-03-17 14:33:49.227,728, 479, 545, 4, -7, -16, -1, 5, 6, 921, 888, 62,8
2025-03-17 14:33:49.279,1042, 898, 231, 42, 18, 18, -2, 2, 8, 940, 883, 84,8
2025-03-17 14:33:49.336,594, 517, 334, -33, 28, 36, -2, 3, 7, 947, 912, 82,8
2025-03-17 14:33:49.389,750, 225, 729, 22, -43, -47, -2, 5, 5, 939, 926, 79,8
2025-03-17 14:33:49.444,724, 405, 717, 4, -22, -23, -3, 5, 5, 940, 930, 89,8
2025-03-17 14:33:49.499,506, 885, 314, -14, 19, 33, -4, 3, 9, 951, 935, 72,8
2025-03-17 14:33:49.553,923, 348, 280, -20, 29, 0, -3, 5, 7, 936, 904, 93,8
2025-03-17 14:33:49.852,680, 585, 453, -7, 0, -2, -1, 5, 6, 826, 715, 92,9
2025-03-17 14:33:49.910,676, 588, 463, -10, 1, -2, -2, 4, 6, 826, 715, 91,9
2025-03-17 14:33:49.963,669, 585, 500, -5, -6, 1, -2, 5, 5, 829, 716, 92,9
2025-03-17 14:33:50.011,688, 582, 466, -3, -11, 1, -3, 5, 6, 842, 739, 68,9
2025-03-17 14:33:50.066,651, 556, 482, 2, -20, 7, -2, 4, 7, 874, 812, 62,9
2025-03-17 14:33:50.119,680, 701, 429, 2, -9, -13, -1, 4, 8, 905, 896, 97,9
2025-03-17 14:33:50.177,627, 328, 665, 22, -12, -24, -2, 5, 7, 924, 899, 81,9
2025-03-17 14:33:50.229,968, 891, -83, 14, 36, 34, -1, 3, 8, 947, 899, 94,9
2025-03-17 14:33:50.279,596, 573, 675, -20, 8, 26, -2, 5, 8, 946, 919, 67,9
2025-03-17 14:33:50.337,867, 433, 453, 46, -14, -20, -2, 5, 6, 934, 917, 88,9
2025-03-17 14:33:50.389,833, 549, 379, 2, 39, 44, -3, 5, 5, 953, 919, 65,9
2025-03-17 14:33:50.443,661, 431, 359, -36, 19, 14, -1, 5, 4, 936, 865, 83,9
2025-03-17 14:33:50.729,690, 635, 416, -5, -3, -1, -2, 4, 6, 533, 385, 84,+
2025-03-17 14:33:50.780,677, 626, 406, -6, -2, -1, -2, 2, 5, 548, 387, 72,+
2025-03-17 14:33:50.829,666, 633, 466, -3, -2, 2, -1, 3, 5, 629, 563, 143,+
2025-03-17 14:33:50.882,660, 611, 447, 1, -4, -1, -1, 1, 5, 688, 681, 239,+
2025-03-17 14:33:50.935,680, 627, 432, -3, -6, 1, -1, 1, 7, 724, 706, 240,+
2025-03-17 14:33:50.996,682, 614, 424, -6, -2, -2, -2, 4, 7, 754, 736, 261,+
2025-03-17 14:33:51.048,677, 626, 432, -7, -2, -1, -1, 3, 4, 766, 751, 236,+
2025-03-17 14:33:51.099,659, 624, 444, -8, 0, -1, 0, 2, 7, 801, 779, 243,+
2025-03-17 14:33:51.149,661, 609, 443, -4, -6, 0, -2, 4, 4, 818, 795, 207,+
2025-03-17 14:33:51.209,684, 622, 434, -10, -4, 0, -3, 3, 5, 829, 817, 205,+
2025-03-17 14:33:51.261,655, 614, 456, -17, -14, 0, -2, 2, 8, 849, 848, 195,+
2025-03-17 14:33:51.311,661, 544, 497, -8, -12, 1, -2, 3, 7, 886, 878, 188,+
2025-03-17 14:33:51.361,700, 716, 583, -6, 1, 7, -3, 4, 8, 947, 908, 58,+
2025-03-17 14:33:51.422,285, 889, 361, -11, 43, 40, -2, 2, 7, 955, 893, 74,+
2025-03-17 14:33:51.475,667, 615, 467, -49, 20, 12, -1, 6, 5, 921, 810, 69,+
2025-03-17 14:33:51.529,724, 701, 486, 34, -26, -16, -1, 4, 4, 887, 834, 63,+
2025-03-17 14:33:51.579,584, 966, 209, -38, -21, 36, -1, 2, 7, 954, 937, 74,+
2025-03-17 14:33:51.639,604, 501, 535, -7, -1, 21, -2, 4, 7, 942, 919, 163,+
2025-03-17 14:33:51.692,614, 515, 402, 4, 47, -47, -2, 4, 5, 890, 842, 266,+
2025-03-17 14:33:51.939,671, 597, 461, 8, 4, 4, -2, 3, 4, 766, 545, 35,-
2025-03-17 14:33:51.993,660, 584, 474, 8, 4, 4, 0, 2, 6, 767, 569, 71,-
2025-03-17 14:33:52.045,672, 606, 460, 9, -3, 6, -1, 5, 5, 757, 607, 175,-
2025-03-17 14:33:52.099,661, 592, 436, 5, 5, -4, -1, 2, 6, 708, 620, 195,-
2025-03-17 14:33:52.149,622, 620, 460, 0, -1, -4, -2, 3, 6, 687, 551, 100,-
2025-03-17 14:33:52.199,867, 301, 325, -26, 0, -16, -1, 4, 6, 862, 703, 57,-
2025-03-17 14:33:52.258,957, 1023, 291, -24, -15, 47, 0, 3, 8, 947, 911, 76,-
2025-03-17 14:33:52.311,629, 538, 446, -9, 0, 23, -3, 5, 7, 953, 928, 68,-
2025-03-17 14:33:52.363,784, 503, 336, 7, 7, -6, -3, 4, 9, 920, 862, 89,-
2025-03-17 14:33:52.416,666, 618, 455, -12, 45, -37, 0, 4, 4, 755, 690, 77,-
2025-03-17 14:33:52.687,633, 599, 513, -3, -10, -1, -2, 2, 4, 698, 645, 62,÷
2025-03-17 14:33:52.739,642, 596, 503, -1, -11, -1, -1, 3, 6, 704, 663, 61,÷
2025-03-17 14:33:52.793,674, 589, 458, -7, -7, -1, -3, 5, 5, 747, 719, 62,÷
2025-03-17 14:33:52.843,682, 594, 485, -1, -6, 4, -1, 4, 7, 786, 749, 70,÷
2025-03-17 14:33:52.894,686, 589, 456, -5, -2, 1, -1, 5, 7, 818, 763, 74,÷
2025-03-17 14:33:52.949,671, 595, 474, -4, -4, 2, -3, 4, 5, 840, 781, 64,÷
2025-03-17 14:33:52.999,691, 583, 450, -4, -5, 0, 0, 5, 6, 853, 795, 70,÷
2025-03-17 14:33:53.049,672, 583, 475, -2, 1, 0, -3, 5, 8, 861, 804, 65,÷
2025-03-17 14:33:53.099,677, 591, 453, -3, -1, 1, -2, 5, 7, 872, 815, 69,÷
2025-03-17 14:33:53.149,682, 570, 472, -5, -3, 1, -2, 5, 7, 879, 827, 80,÷
2025-03-17 14:33:53.208,695, 595, 447, -4, 0, -2, -2, 5, 6, 884, 829, 68,÷
2025-03-17 14:33:53.260,701, 577, 469, -5, 0, -3, -1, 4, 6, 887, 834, 69,÷
2025-03-17 14:33:53.310,668, 593, 480, -3, 2, 0, -2, 4, 5, 891, 828, 67,÷
2025-03-17 14:33:53.360,693, 573, 446, -2, 6, -3, -2, 3, 7, 892, 823, 67,÷
2025-03-17 14:33:53.410,666, 590, 485, -6, 1, -2, -2, 5, 7, 893, 828, 51,÷
2025-03-17 14:33:53.460,684, 584, 474, 1, -3, 1, -3, 5, 6, 893, 829, 87,÷
2025-03-17 14:33:53.510,666, 578, 486, 2, 1, -1, -3, 4, 7, 893, 829, 82,÷
2025-03-17 14:33:53.561,624, 590, 492, 5, -4, 1, -1, 2, 5, 893, 813, 74,÷
2025-03-17 14:33:53.615,620, 554, 470, 5, -16, 0, -2, 5, 6, 897, 824, 42,÷
2025-03-17 14:33:53.674,709, 568, 403, -16, -7, -14, -3, 5, 7, 928, 875, 85,÷
2025-03-17 14:33:53.726,685, 538, 424, 12, 7, -2, -1, 4, 9, 941, 916, 76,÷
2025-03-17 14:33:53.776,763, 665, 441, 12, -5, 8, -1, 2, 9, 946, 920, 59,÷
2025-03-17 14:33:53.829,788, 568, 234, 2, 61, -8, -2, 4, 6, 917, 860, 68,÷
2025-03-17 14:33:53.879,300, 664, 1020, 24, -18, 66, -2, 5, 5, 924, 836, 85,÷
2025-03-17 14:33:53.935,804, 771, 146, -4, 18, 7, -2, 4, 5, 941, 903, 90,÷
2025-03-17 14:33:53.989,706, 259, 520, -8, -5, -14, -1, 4, 5, 919, 858, 64,÷
2025-03-17 14:33:54.043,457, 621, 664, 17, 2, -37, -1, 2, 6, 853, 790, 70,÷
2025-03-17 14:33:54.099,859, 781, 301, 67, -12, -26, -1, 4, 7, 922, 875, 83,÷
2025-03-17 14:33:54.149,684, 485, 382, -31, -7, 34, -3, 4, 8, 954, 932, 88,÷
2025-03-17 14:33:54.207,637, 520, 490, 4, 3, 23, -2, 4, 8, 943, 919, 138,÷
2025-03-17 14:33:54.260,745, 462, 255, 0, 53, -50, -1, 5, 7, 899, 848, 168,÷
2025-03-17 14:33:54.539,661, 595, 483, -8, 1, -2, -2, 4, 5, 778, 694, 43,=
2025-03-17 14:33:54.592,655, 604, 479, -8, 0, -1, -2, 4, 5, 779, 692, 57,=
2025-03-17 14:33:54.645,670, 613, 456, -3, -1, 0, -1, 2, 6, 782, 696, 87,=
2025-03-17 14:33:54.693,671, 622, 453, -4, 0, 0, -1, 3, 5, 776, 700, 52,=
2025-03-17 14:33:54.743,661, 601, 473, -6, 0, 1, -3, 5, 4, 781, 718, 69,=
2025-03-17 14:33:54.794,669, 580, 460, -6, -2, 1, -2, 4, 7, 804, 727, 88,=
2025-03-17 14:33:54.849,674, 593, 472, -5, 0, -1, -2, 4, 5, 818, 727, 63,=
2025-03-17 14:33:54.899,655, 573, 485, -5, 0, 0, -1, 4, 7, 830, 732, 42,=
2025-03-17 14:33:54.949,686, 582, 470, -5, -2, 0, -2, 5, 6, 837, 742, 58,=
2025-03-17 14:33:54.999,672, 600, 489, -3, -2, 1, -2, 3, 7, 847, 749, 75,=
2025-03-17 14:33:55.049,691, 583, 460, 0, -1, 1, -3, 5, 3, 856, 775, 77,=
2025-03-17 14:33:55.108,654, 575, 508, 3, 1, 1, -2, 4, 7, 860, 767, 57,=
2025-03-17 14:33:55.161,723, 601, 400, -8, -1, -3, -1, 5, 7, 865, 779, 58,=
2025-03-17 14:33:55.209,650, 586, 543, -2, -1, 4, -2, 5, 6, 881, 801, 90,=
2025-03-17 14:33:55.260,666, 564, 459, 7, -2, 4, -3, 3, 6, 888, 795, 55,=
2025-03-17 14:33:55.310,684, 579, 438, 5, -2, -3, -1, 5, 8, 885, 797, 62,=
2025-03-17 14:33:55.360,673, 599, 475, 1, -2, 0, -1, 3, 6, 885, 807, 64,=
2025-03-17 14:33:55.409,593, 553, 549, 7, -10, 0, -2, 4, 5, 897, 811, 75,=
2025-03-17 14:33:55.469,825, 478, 338, 15, 1, -10, -1, 3, 7, 929, 870, 46,=
2025-03-17 14:33:55.526,471, 640, 440, -13, -15, 34, -1, 3, 8, 952, 936, 86,=
2025-03-17 14:33:55.579,626, 512, 571, 25, -5, 5, -2, 5, 7, 958, 937, 48,=
2025-03-17 14:33:55.629,595, 572, 384, 3, 46, -25, -2, 4, 7, 935, 873, 70,=
2025-03-17 14:33:55.679,2710, 308, 152, -43, -9, -18, -1, 3, 6, 939, 880, 78,=
2025-03-17 14:33:55.739,578, 512, 377, -5, 6, 25, -2, 4, 6, 957, 942, 84,=
2025-03-17 14:33:55.785,686, 532, 515, 8, 0, 9, -3, 4, 7, 943, 921, 94,=
2025-03-17 14:33:55.841,675, 551, 341, -17, 47, -50, -2, 5, 5, 903, 812, 80,=
2025-03-17 14:33:56.109,651, 590, 500, -4, -2, 1, -2, 2, 5, 823, 671, 35,≠
2025-03-17 14:33:56.169,648, 604, 501, -4, -3, 3, -2, 2, 5, 823, 676, 47,≠
2025-03-17 14:33:56.219,694, 598, 426, -3, -4, 1, -1, 4, 7, 825, 689, 79,≠
2025-03-17 14:33:56.269,675, 604, 462, -5, -3, 2, -3, 3, 6, 836, 711, 38,≠
2025-03-17 14:33:56.325,694, 574, 462, -6, 1, -3, -1, 4, 7, 846, 737, 63,≠
2025-03-17 14:33:56.375,682, 576, 467, -6, -2, -2, -3, 5, 6, 853, 754, 72,≠
2025-03-17 14:33:56.429,644, 557, 476, -10, -5, -5, -2, 5, 6, 869, 754, 45,≠
2025-03-17 14:33:56.483,678, 582, 444, -16, -5, -4, -1, 3, 9, 893, 797, 69,≠
2025-03-17 14:33:56.535,743, 460, 488, 3, -7, -14, -3, 4, 8, 931, 881, 46,≠
2025-03-17 14:33:56.595,626, 755, 347, -9, -12, 39, -1, 3, 8, 952, 935, 78,≠
2025-03-17 14:33:56.646,540, 312, 519, 13, -4, 10, -3, 4, 8, 955, 940, 52,≠
2025-03-17 14:33:56.696,652, 520, 387, 14, 3, -15, -3, 5, 7, 929, 904, 89,≠
2025-03-17 14:33:56.749,718, 676, 328, -22, 34, -26, -2, 3, 8, 890, 805, 69,≠
2025-03-17 14:33:56.808,556, 622, 684, 2, -8, 12, -1, 3, 8, 885, 550, 70,≠
2025-03-17 14:33:56.857,903, 880, 116, 23, -1, 4, -1, 4, 6, 939, 885, 60,≠
2025-03-17 14:33:56.909,309, 496, 297, -14, -7, 44, -2, 5, 7, 961, 943, 48,≠
2025-03-17 14:33:56.962,657, 465, 438, 3, 4, 21, -4, 4, 7, 952, 926, 59,≠
2025-03-17 14:33:57.009,500, 537, 453, 9, 5, -81, -3, 5, 7, 918, 883, 127,≠
2025-03-17 14:33:57.069,561, 516, 589, 10, -63, 22, -3, 4, 8, 926, 893, 298,≠
2025-03-17 14:33:57.123,701, 699, 395, 35, 26, 8, -3, 4, 10, 954, 913, 49,≠
2025-03-17 14:33:57.176,849, 898, 146, -24, 46, 33, -3, 5, 7, 949, 868, 76,≠
2025-03-17 14:33:57.234,879, 329, 515, -9, 28, -45, -1, 5, 6, 906, 820, 84,≠
2025-03-17 14:33:57.534,690, 579, 456, 1, -8, 0, -2, 3, 7, 862, 766, 39,≈
2025-03-17 14:33:57.585,681, 585, 461, 0, -8, 0, -2, 3, 7, 860, 767, 54,≈
2025-03-17 14:33:57.639,725, 590, 422, 0, -6, 0, -2, 5, 6, 865, 778, 58,≈
2025-03-17 14:33:57.685,666, 568, 483, -6, 1, -6, -1, 3, 6, 868, 782, 61,≈
2025-03-17 14:33:57.741,676, 576, 467, -1, -2, -4, 0, 3, 6, 876, 785, 40,≈
2025-03-17 14:33:57.793,656, 577, 488, -3, -5, -1, -1, 4, 6, 888, 794, 66,≈
2025-03-17 14:33:57.845,765, 607, 334, -10, 2, -7, -1, 3, 7, 914, 844, 63,≈
2025-03-17 14:33:57.899,872, 672, 530, -7, -22, 7, -2, 5, 8, 939, 914, 55,≈
2025-03-17 14:33:57.949,548, 492, 483, 7, -12, 9, -2, 3, 8, 953, 930, 57,≈
2025-03-17 14:33:57.999,619, 571, 424, -11, 6, 19, -4, 4, 8, 956, 936, 62,≈
2025-03-17 14:33:58.057,724, 395, 346, 17, 28, 1, -2, 5, 8, 945, 912, 67,≈
2025-03-17 14:33:58.110,574, 586, 593, 5, 14, -12, -2, 3, 8, 924, 818, 62,≈
2025-03-17 14:33:58.159,780, 881, 331, 9, 3, -6, -1, 3, 7, 936, 900, 55,≈
2025-03-17 14:33:58.210,626, 607, 589, 4, -17, 6, -3, 5, 6, 955, 934, 78,≈
2025-03-17 14:33:58.259,729, 733, 415, 2, 0, 18, -2, 5, 8, 957, 936, 69,≈
2025-03-17 14:33:58.309,780, 407, 386, -3, 14, 5, -2, 4, 8, 947, 919, 81,≈
2025-03-17 14:33:58.359,675, 515, 445, -4, 44, -44, -2, 5, 4, 921, 890, 40,≈
2025-03-17 14:33:58.659,708, 587, 485, -3, -4, -33, -2, 2, 4, 802, 669, 76,<
2025-03-17 14:33:58.711,718, 606, 464, -2, -4, -34, -3, 2, 5, 790, 651, 63,<
2025-03-17 14:33:58.761,599, 599, 559, 3, -7, -41, -3, 3, 7, 774, 609, 74,<
2025-03-17 14:33:58.821,545, 695, 466, 13, -12, -7, -5, -1, 7, 789, 640, 41,<
2025-03-17 14:33:58.870,578, 695, 435, 15, 4, 37, -2, 1, 8, 844, 696, 72,<
2025-03-17 14:33:58.926,692, 644, 387, -5, 7, 32, -2, 3, 7, 871, 736, 75,<
2025-03-17 14:33:58.976,625, 594, 532, -5, 2, 24, -2, 4, 6, 889, 755, 38,<
2025-03-17 14:33:59.029,680, 608, 443, 6, -13, 22, -1, 2, 8, 893, 767, 55,<
2025-03-17 14:33:59.079,779, 532, 375, -6, -4, 6, -3, 5, 6, 897, 774, 70,<
2025-03-17 14:33:59.129,688, 564, 467, -7, 7, 2, -1, 4, 7, 908, 775, 56,<
2025-03-17 14:33:59.184,690, 555, 452, -6, -2, 0, -2, 5, 8, 906, 786, 63,<
2025-03-17 14:33:59.233,744, 581, 434, -8, -4, 1, -1, 3, 7, 917, 836, 55,<
2025-03-17 14:33:59.289,678, 581, 459, -8, -12, 1, -1, 5, 7, 931, 875, 48,<
2025-03-17 14:33:59.342,715, 626, 428, -16, -5, -3, -2, 5, 7, 932, 903, 64,<
2025-03-17 14:33:59.392,670, 521, 587, -14, -4, -1, -2, 4, 9, 946, 918, 55,<
2025-03-17 14:33:59.449,430, 630, 247, 10, 36, 6, -2, 4, 8, 945, 866, 80,<
2025-03-17 14:33:59.503,901, 928, 150, -52, 26, 28, -2, 6, 6, 951, 894, 56,<
2025-03-17 14:33:59.556,515, 485, 412, -16, 3, 26, -1, 8, 5, 958, 932, 66,<
2025-03-17 14:33:59.609,800, 418, 361, -4, 19, -27, -2, 7, 5, 940, 892, 82,<
2025-03-17 14:33:59.896,664, 558, 520, -3, -7, 0, -2, 4, 6, 866, 752, 72,≤
2025-03-17 14:33:59.949,670, 555, 526, -2, -8, 0, -3, 5, 5, 869, 756, 53,≤
2025-03-17 14:33:59.999,704, 568, 443, 0, -13, -1, -3, 5, 6, 871, 774, 51,≤
2025-03-17 14:34:00.056,685, 557, 469, -4, -6, -2, -4, 5, 6, 879, 810, 67,≤
2025-03-17 14:34:00.109,696, 592, 452, 1, -10, 3, -3, 5, 8, 890, 856, 78,≤
2025-03-17 14:34:00.157,676, 536, 487, -3, -9, 1, -3, 5, 8, 910, 883, 56,≤
2025-03-17 14:34:00.211,704, 548, 508, 7, -5, -8, -2, 3, 8, 927, 901, 55,≤
2025-03-17 14:34:00.263,382, 631, 374, 23, 34, 7, -2, 5, 9, 937, 837, 59,≤
2025-03-17 14:34:00.309,887, 707, 132, -4, 27, 22, -1, 4, 7, 948, 885, 52,≤
2025-03-17 14:34:00.369,590, 412, 654, -10, -6, 28, 0, 5, 8, 958, 943, 63,≤
2025-03-17 14:34:00.419,674, 535, 428, 41, -2, 4, -1, 6, 6, 947, 916, 77,≤
2025-03-17 14:34:00.475,488, 597, 577, -13, 36, -11, -1, 4, 4, 925, 806, 45,≤
2025-03-17 14:34:00.525,876, 699, 226, -3, 5, 14, -1, 5, 5, 954, 932, 57,≤
2025-03-17 14:34:00.579,648, 471, 527, -2, -5, 16, -2, 7, 5, 955, 939, 54,≤
2025-03-17 14:34:00.633,775, 451, 286, 2, 48, -41, -1, 6, 5, 921, 892, 68,≤
2025-03-17 14:34:00.909,682, 548, 494, -11, -6, 0, -1, 5, 5, 864, 721, 56,>
2025-03-17 14:34:00.959,667, 539, 496, -8, -7, 0, -1, 4, 6, 868, 727, 64,>
2025-03-17 14:34:01.019,697, 583, 464, -3, -13, 0, -2, 4, 6, 881, 752, 67,>
2025-03-17 14:34:01.073,692, 565, 469, -10, -5, -4, -3, 4, 6, 893, 769, 36,>
2025-03-17 14:34:01.129,625, 570, 499, -6, -10, -5, -4, 5, 6, 895, 790, 64,>
2025-03-17 14:34:01.179,718, 203, 292, -29, -13, -25, -4, 5, 7, 920, 854, 48,>
2025-03-17 14:34:01.240,1003, 723, 347, -21, -17, 15, -2, 3, 9, 948, 931, 63,>
2025-03-17 14:34:01.292,631, 558, 662, 26, -13, -2, -2, 4, 10, 954, 929, 57,>
2025-03-17 14:34:01.343,454, 547, 360, 22, 34, 11, -2, 4, 8, 953, 909, 65,>
2025-03-17 14:34:01.399,768, 589, 400, -22, 30, 15, -1, 3, 7, 934, 827, 61,>
2025-03-17 14:34:01.457,647, 641, 416, -4, 25, -28, -2, 5, 5, 905, 830, 51,>
2025-03-17 14:34:01.506,564, 590, 602, 1, 3, -5, -2, 4, 4, 868, 836, 78,>
2025-03-17 14:34:01.559,710, 581, 442, 3, -5, -2, -2, 2, 4, 844, 787, 69,>
2025-03-17 14:34:01.608,675, 587, 500, -5, 7, -8, -2, 3, 6, 836, 737, 63,>
2025-03-17 14:34:01.895,687, 561, 478, 0, -6, 1, -1, 5, 5, 830, 656, 37,≥
2025-03-17 14:34:01.942,689, 562, 468, -1, -5, 0, -1, 3, 5, 827, 659, 38,≥
2025-03-17 14:34:01.992,678, 571, 485, -6, -2, -3, -1, 4, 6, 832, 685, 65,≥
2025-03-17 14:34:02.049,666, 568, 492, -4, -5, 0, -2, 3, 7, 846, 704, 50,≥
2025-03-17 14:34:02.099,679, 566, 477, -10, -7, -2, -3, 5, 4, 857, 734, 52,≥
2025-03-17 14:34:02.157,571, 569, 565, -4, -23, 1, -3, 5, 6, 877, 767, 41,≥
2025-03-17 14:34:02.209,854, 222, 62, -25, -18, -21, -3, 5, 8, 910, 848, 79,≥
2025-03-17 14:34:02.259,852, 506, 417, -16, -12, 26, -2, 5, 8, 948, 932, 43,≥
2025-03-17 14:34:02.319,631, 398, 645, 41, -16, -3, -2, 3, 8, 952, 931, 61,≥
2025-03-17 14:34:02.374,946, 355, 367, 22, 31, 16, -3, 3, 10, 956, 909, 52,≥
2025-03-17 14:34:02.429,722, 335, 479, -34, 61, -23, -3, 6, 6, 929, 800, 57,≥
2025-03-17 14:34:02.484,742, 240, 547, 55, -63, 19, -1, 6, 5, 936, 871, 66,≥
2025-03-17 14:34:02.539,851, 687, 566, -29, -6, 36, 0, 5, 7, 957, 938, 69,≥
2025-03-17 14:34:02.584,724, 475, 472, 7, 8, 9, -2, 5, 6, 945, 916, 66,≥
2025-03-17 14:34:02.640,677, 490, 357, -35, 79, -61, 0, 5, 4, 909, 817, 75,≥
2025-03-17 14:34:02.919,683, 550, 528, -2, -6, -1, -1, 4, 4, 788, 689, 56,±
2025-03-17 14:34:02.979,671, 568, 523, -3, -5, -1, -2, 4, 4, 790, 695, 70,±
2025-03-17 14:34:03.029,670, 590, 488, 0, -5, -3, -2, 5, 5, 816, 710, 63,±
2025-03-17 14:34:03.084,684, 573, 485, -3, -1, -4, -3, 5, 4, 837, 724, 52,±
2025-03-17 14:34:03.140,650, 560, 506, 10, -7, -8, -1, 4, 3, 847, 733, 54,±
2025-03-17 14:34:03.192,663, 584, 498, 4, -10, -8, -4, 5, 6, 860, 742, 77,±
2025-03-17 14:34:03.242,668, 635, 460, 6, -9, -10, -3, 3, 4, 879, 746, 53,±
2025-03-17 14:34:03.299,639, 619, 497, 5, -14, 12, -2, 2, 7, 896, 767, 69,±
2025-03-17 14:34:03.349,702, 623, 403, 3, -6, 16, -4, 4, 6, 913, 799, 51,±
2025-03-17 14:34:03.399,655, 567, 459, 6, 0, 10, -2, 4, 7, 913, 821, 77,±
2025-03-17 14:34:03.449,755, 595, 370, -7, -4, 0, -2, 3, 8, 914, 828, 71,±
2025-03-17 14:34:03.505,678, 609, 481, -14, 2, -7, -3, 4, 7, 914, 829, 77,±
2025-03-17 14:34:03.558,626, 582, 494, -1, -4, -4, -2, 3, 7, 921, 825, 65,±
2025-03-17 14:34:03.609,704, 518, 457, 6, -13, 0, -2, 4, 6, 914, 831, 58,±
2025-03-17 14:34:03.664,745, 653, 410, -8, 5, -6, -2, 4, 8, 927, 864, 31,±
2025-03-17 14:34:03.709,682, 588, 529, -7, -4, -4, -2, 4, 8, 931, 881, 74,±
2025-03-17 14:34:03.763,692, 614, 407, -8, 3, 1, -3, 4, 6, 935, 896, 61,±
2025-03-17 14:34:03.819,689, 568, 478, -3, 0, -1, -2, 2, 8, 934, 897, 60,±
2025-03-17 14:34:03.869,686, 598, 452, -2, 2, -1, 0, 3, 8, 941, 900, 46,±
2025-03-17 14:34:03.923,688, 572, 461, -4, -1, -1, -1, 3, 7, 936, 900, 56,±
2025-03-17 14:34:03.975,687, 580, 465, -5, 0, -1, -1, 5, 7, 935, 899, 79,±
2025-03-17 14:34:04.029,750, 722, 440, 4, -24, 20, -2, 4, 8, 956, 935, 33,±
2025-03-17 14:34:04.075,729, 571, 357, 2, 1, 15, -2, 3, 10, 950, 935, 76,±
2025-03-17 14:34:04.133,705, 483, 239, -12, 20, -45, -3, 5, 8, 936, 911, 84,±
2025-03-17 14:34:04.189,474, 590, 892, 21, -41, 30, -3, 4, 7, 935, 910, 60,±
2025-03-17 14:34:04.242,568, 841, 185, 8, 15, 10, -4, 2, 11, 958, 930, 42,±
2025-03-17 14:34:04.291,559, 445, 523, -8, 39, 34, -2, 5, 8, 947, 903, 77,±
2025-03-17 14:34:04.349,436, 584, 510, 17, 24, -17, 0, 4, 4, 920, 814, 53,±
2025-03-17 14:34:04.399,836, 950, 296, -16, -13, 7, -1, 4, 6, 945, 913, 78,±
2025-03-17 14:34:04.455,445, 478, 502, -33, 4, 31, -1, 5, 6, 949, 933, 87,±
2025-03-17 14:34:04.508,770, 455, 281, -10, 42, -32, -3, 7, 4, 946, 904, 40,±
2025-03-17 14:34:04.803,700, 549, 488, 1, -8, 2, -3, 4, 6, 870, 756, 70,∓
2025-03-17 14:34:04.849,702, 549, 484, 1, -9, 2, -1, 3, 6, 874, 759, 59,∓
2025-03-17 14:34:04.905,716, 559, 436, 8, -7, 0, -2, 4, 7, 883, 793, 67,∓
2025-03-17 14:34:04.955,680, 579, 465, 0, -4, -1, -1, 4, 8, 889, 810, 33,∓
2025-03-17 14:34:05.007,703, 567, 442, -8, 1, -3, -2, 5, 6, 890, 818, 76,∓
2025-03-17 14:34:05.059,660, 574, 474, -8, -1, -8, -2, 3, 6, 891, 807, 80,∓
2025-03-17 14:34:05.114,625, 554, 555, -5, -21, -4, -2, 4, 7, 908, 811, 51,∓
2025-03-17 14:34:05.167,942, 481, 509, 40, -11, -6, -1, 4, 7, 943, 915, 58,∓
2025-03-17 14:34:05.219,811, 750, 382, -9, -2, 32, -3, 5, 8, 965, 942, 44,∓
2025-03-17 14:34:05.273,674, 530, 499, 60, -4, 5, -4, 5, 10, 941, 887, 79,∓
2025-03-17 14:34:05.324,465, 558, 451, 12, 53, -34, -2, 3, 8, 916, 747, 59,∓
2025-03-17 14:34:05.383,924, 119, 330, 45, -20, -25, 0, 3, 8, 934, 854, 60,∓
2025-03-17 14:34:05.438,441, 459, 275, -26, 1, 29, -2, 4, 7, 960, 940, 37,∓
2025-03-17 14:34:05.483,641, 430, 581, 4, -6, -2, -3, 5, 7, 943, 915, 82,∓
2025-03-17 14:34:05.540,561, 588, 528, 13, -7, -20, -2, 3, 8, 929, 884, 54,∓
2025-03-17 14:34:05.589,469, 696, 195, 2, 27, 28, -3, 4, 9, 956, 910, 58,∓
2025-03-17 14:34:05.641,778, 663, 331, -27, 31, 24, -2, 4, 6, 946, 876, 61,∓
2025-03-17 14:34:05.699,769, 558, 282, -4, 38, -57, -2, 5, 5, 919, 794, 39,∓
2025-03-17 14:34:05.950,671, 578, 485, -13, 1, 1, -2, 5, 5, 847, 671, 73,∞
2025-03-17 14:34:06.010,664, 572, 498, -11, 0, 1, -1, 4, 6, 853, 665, 35,∞
2025-03-17 14:34:06.059,669, 554, 494, -5, -2, 1, -1, 3, 5, 858, 659, 43,∞
2025-03-17 14:34:06.110,692, 557, 470, -6, -1, 0, -2, 5, 5, 855, 657, 61,∞
2025-03-17 14:34:06.161,676, 585, 494, -8, 2, 1, -3, 4, 6, 860, 660, 73,∞
2025-03-17 14:34:06.210,686, 569, 499, -5, -2, 0, -2, 6, 4, 867, 677, 72,∞
2025-03-17 14:34:06.269,688, 578, 480, -8, -3, 2, -4, 5, 5, 875, 674, 51,∞
2025-03-17 14:34:06.322,688, 570, 464, -7, 1, -1, -1, 5, 6, 880, 678, 54,∞
2025-03-17 14:34:06.372,664, 541, 523, -6, -2, 2, -2, 5, 4, 887, 700, 56,∞
2025-03-17 14:34:06.425,681, 544, 488, 1, -3, 0, -2, 5, 5, 892, 724, 51,∞
2025-03-17 14:34:06.475,648, 554, 523, -2, -1, -2, -2, 5, 6, 892, 734, 66,∞
2025-03-17 14:34:06.525,730, 571, 449, 7, -6, -2, -1, 5, 5, 893, 746, 60,∞
2025-03-17 14:34:06.579,674, 545, 492, 2, 1, -2, -4, 5, 6, 899, 791, 37,∞
2025-03-17 14:34:06.634,704, 564, 476, 2, -10, -1, -4, 5, 4, 900, 819, 36,∞
2025-03-17 14:34:06.683,706, 603, 485, 8, 2, 8, -1, 5, 7, 900, 858, 83,∞
2025-03-17 14:34:06.734,645, 552, 492, -2, -6, -2, -3, 5, 6, 908, 871, 58,∞
2025-03-17 14:34:06.789,731, 538, 458, -2, -16, 10, -2, 5, 5, 915, 888, 49,∞
2025-03-17 14:34:06.841,809, -86, 482, -18, 0, -9, -3, 5, 9, 932, 902, 79,∞
2025-03-17 14:34:06.890,846, 620, 330, 14, 28, 22, -2, 4, 6, 952, 909, 48,∞
2025-03-17 14:34:06.949,703, 498, 292, -45, 29, 1, -1, 5, 5, 932, 879, 67,∞
2025-03-17 14:34:06.999,841, 496, 540, 3, -42, -24, -2, 5, 5, 935, 916, 77,∞
2025-03-17 14:34:07.055,596, 776, 253, -28, -17, 16, -3, 6, 7, 954, 938, 72,∞
2025-03-17 14:34:07.113,564, 418, 625, -13, -15, -13, -3, 5, 8, 952, 941, 62,∞
2025-03-17 14:34:07.159,986, 457, 514, 17, -3, -17, -3, 4, 9, 950, 929, 68,∞
2025-03-17 14:34:07.219,763, 852, 487, -11, 37, 24, -3, 5, 8, 959, 923, 60,∞
2025-03-17 14:34:07.273,821, 507, 368, -6, 25, 11, -2, 5, 6, 939, 871, 65,∞
2025-03-17 14:34:07.568,557, 657, 628, -23, 25, -53, -5, 3, -2, 442, 633, 148,∑
2025-03-17 14:34:07.623,522, 651, 652, -23, 23, -50, -1, 3, 1, 453, 636, 147,∑
2025-03-17 14:34:07.677,352, 636, 769, 29, -15, 13, -2, 2, -1, 624, 665, 77,∑
2025-03-17 14:34:07.729,272, 555, 609, 70, -74, 77, -4, 1, 1, 701, 680, 59,∑
2025-03-17 14:34:07.788,646, 531, 370, 37, -13, 73, -3, 2, 5, 664, 669, 38,∑
2025-03-17 14:34:07.840,1004, 743, 350, 28, -38, 7, -2, 3, 7, 646, 660, 63,∑
2025-03-17 14:34:07.895,615, 526, 367, -34, 21, -11, -3, 3, 5, 744, 694, 47,∑
2025-03-17 14:34:07.949,630, 640, 520, -7, -18, 4, -2, 3, 7, 795, 722, 55,∑
2025-03-17 14:34:07.999,709, 638, 402, -5, -4, -1, -2, 2, 7, 809, 738, 56,∑
2025-03-17 14:34:08.055,724, 598, 378, -6, -11, 6, -2, 5, 7, 842, 772, 74,∑
2025-03-17 14:34:08.108,653, 571, 502, -8, 3, -2, -2, 3, 8, 858, 797, 53,∑
2025-03-17 14:34:08.159,702, 599, 404, -9, -1, -5, -2, 3, 8, 864, 808, 54,∑
2025-03-17 14:34:08.209,661, 593, 451, -18, -4, -6, -3, 4, 8, 869, 817, 79,∑
2025-03-17 14:34:08.269,569, 535, 524, -5, -11, -1, -2, 3, 8, 889, 831, 53,∑
2025-03-17 14:34:08.322,823, 363, 428, 19, -4, -8, -2, 4, 8, 930, 906, 79,∑
2025-03-17 14:34:08.374,566, 393, 488, -13, -9, 37, -3, 5, 9, 963, 947, 44,∑
2025-03-17 14:34:08.423,585, 509, 613, 29, -12, 2, -2, 4, 9, 947, 925, 61,∑
2025-03-17 14:34:08.479,594, 606, 315, 3, 22, -37, -4, 1, 10, 917, 859, 57,∑
2025-03-17 14:34:08.537,839, 583, 542, 19, -1, -18, -3, 4, 7, 931, 879, 79,∑
2025-03-17 14:34:08.587,584, 455, 445, -3, 13, 22, -1, 3, 7, 955, 931, 55,∑
2025-03-17 14:34:08.640,564, 561, 590, 17, 8, 10, -2, 4, 8, 951, 934, 54,∑
2025-03-17 14:34:08.690,485, 373, 455, 38, 25, -10, -2, 4, 8, 935, 872, 65,∑
2025-03-17 14:34:08.749,958, 832, 461, -50, 16, 26, -2, 4, 8, 948, 912, 66,∑
2025-03-17 14:34:08.800,677, 488, 444, -16, 8, 28, -2, 5, 4, 957, 935, 64,∑
2025-03-17 14:34:08.856,767, 302, 372, 20, 13, -34, -2, 6, 4, 935, 897, 87,∑
2025-03-17 14:34:09.144,648, 571, 526, -10, -6, 0, -2, 4, 6, 837, 542, 61,∏
2025-03-17 14:34:09.190,660, 564, 518, -6, -7, 2, -4, 5, 4, 838, 544, 57,∏
2025-03-17 14:34:09.240,690, 578, 464, 3, -8, 5, -1, 4, 6, 843, 625, 62,∏
2025-03-17 14:34:09.299,687, 561, 460, -3, -1, -1, -2, 5, 4, 848, 676, 54,∏
2025-03-17 14:34:09.349,670, 555, 486, 1, -4, 0, -2, 5, 5, 853, 700, 57,∏
2025-03-17 14:34:09.399,691, 560, 478, -3, -3, -3, -2, 4, 5, 850, 709, 71,∏
2025-03-17 14:34:09.456,691, 582, 478, -10, 0, -4, -2, 5, 3, 851, 709, 56,∏
2025-03-17 14:34:09.509,681, 561, 508, -7, -3, 0, -4, 5, 5, 854, 699, 49,∏
2025-03-17 14:34:09.559,693, 561, 474, -6, -2, 1, -2, 5, 6, 863, 705, 60,∏
2025-03-17 14:34:09.609,690, 563, 475, -2, -4, 0, -1, 4, 7, 873, 730, 66,∏
2025-03-17 14:34:09.659,700, 567, 486, -1, -3, 2, -4, 5, 6, 882, 747, 50,∏
2025-03-17 14:34:09.711,677, 554, 490, 1, -2, -2, -3, 7, 5, 884, 757, 75,∏
2025-03-17 14:34:09.772,717, 564, 453, -1, -4, -6, -2, 5, 7, 880, 763, 58,∏
2025-03-17 14:34:09.823,645, 570, 509, -12, 7, -12, -3, 5, 6, 885, 759, 56,∏
2025-03-17 14:34:09.878,629, 585, 497, 8, -5, -10, -2, 5, 5, 874, 727, 78,∏
2025-03-17 14:34:09.929,749, 210, 368, 39, -5, -35, -2, 4, 7, 904, 819, 48,∏
2025-03-17 14:34:09.988,1381, 1124, 377, -51, -25, 55, -2, 4, 8, 955, 931, 61,∏
2025-03-17 14:34:10.037,639, 521, 635, -4, 1, 23, -4, 6, 9, 959, 943, 55,∏
2025-03-17 14:34:10.090,561, 410, 297, 33, 0, -11, -3, 5, 7, 945, 914, 62,∏
2025-03-17 14:34:10.140,755, 650, 527, 2, 6, -28, -3, 4, 6, 911, 845, 51,∏
2025-03-17 14:34:10.190,760, 603, 421, -14, -6, 0, -3, 5, 7, 950, 906, 56,∏
2025-03-17 14:34:10.249,778, 735, 160, 6, 34, 43, -2, 4, 8, 953, 902, 82,∏
2025-03-17 14:34:10.300,830, 515, 598, 2, 3, 12, -2, 5, 7, 935, 881, 41,∏
2025-03-17 14:34:10.356,538, 613, 564, -18, -28, 0, -1, 5, 6, 932, 911, 151,∏
2025-03-17 14:34:10.409,695, 566, 486, 1, -12, -7, -3, 5, 8, 954, 935, 61,∏
2025-03-17 14:34:10.459,702, 612, 525, -8, 36, 39, -2, 5, 7, 956, 923, 77,∏
2025-03-17 14:34:10.509,816, 289, 469, -6, 20, -20, -2, 6, 6, 938, 865, 65,∏
2025-03-17 14:34:10.570,740, 593, 523, -34, 41, -39, -2, 5, 7, 882, 815, 51,∏
2025-03-17 14:34:10.839,665, 553, 519, 1, -6, 0, -2, 6, 3, 801, 644, 56,√
2025-03-17 14:34:10.889,669, 574, 510, 1, -7, 1, -2, 4, 4, 802, 647, 75,√
2025-03-17 14:34:10.942,673, 544, 491, 0, -4, -1, -2, 5, 4, 791, 631, 75,√
2025-03-17 14:34:10.989,671, 563, 503, 4, -4, 0, -2, 4, 6, 708, 578, 71,√
2025-03-17 14:34:11.039,717, 583, 470, -5, -4, 1, -3, 4, 7, 680, 550, 57,√
2025-03-17 14:34:11.089,687, 555, 482, -10, 3, -3, -2, 6, 4, 724, 577, 59,√
2025-03-17 14:34:11.149,667, 552, 514, -3, 0, -3, -2, 5, 7, 766, 639, 75,√
2025-03-17 14:34:11.199,669, 580, 501, -3, -1, 0, -3, 5, 5, 783, 670, 54,√
2025-03-17 14:34:11.249,666, 561, 501, 2, 1, 2, -1, 5, 5, 780, 676, 61,√
2025-03-17 14:34:11.304,683, 550, 510, 4, 0, 8, -2, 6, 6, 768, 661, 76,√
2025-03-17 14:34:11.349,726, 533, 455, -1, 0, -3, -2, 4, 5, 771, 664, 59,√
2025-03-17 14:34:11.406,650, 534, 541, -9, 13, -5, -2, 6, 5, 791, 645, 62,√
2025-03-17 14:34:11.454,642, 560, 526, 5, 1, 3, -1, 6, 4, 801, 650, 55,√
2025-03-17 14:34:11.507,706, 552, 469, 11, 1, -1, -1, 4, 4, 815, 698, 73,√
2025-03-17 14:34:11.559,772, 681, 446, 41, 3, -10, -2, 5, 4, 896, 863, 81,√
2025-03-17 14:34:11.613,573, 495, 531, -8, -6, 14, -1, 5, 6, 934, 910, 50,√
2025-03-17 14:34:11.659,759, 764, 305, 29, 17, 26, -2, 5, 6, 940, 894, 68,√
2025-03-17 14:34:11.721,720, 655, 362, -44, 21, 28, 2, 5, 5, 935, 886, 58,√
2025-03-17 14:34:11.775,970, 272, 427, 58, -51, -61, -1, 6, 6, 909, 908, 57,√
2025-03-17 14:34:11.832,658, 572, 605, -10, -20, 1, -3, 5, 4, 941, 935, 48,√
2025-03-17 14:34:11.879,672, 635, 500, 5, 5, 24, -2, 5, 5, 940, 927, 69,√
2025-03-17 14:34:11.933,686, 482, 306, 2, 39, -34, -2, 5, 6, 905, 892, 180,√
2025-03-17 14:34:12.229,650, 598, 500, -3, -3, 9, -1, 1, 6, 751, 529, 82,∛
2025-03-17 14:34:12.273,664, 602, 478, 0, -4, 9, -1, 5, 4, 760, 582, 77,∛
2025-03-17 14:34:12.329,706, 571, 437, -3, -1, 7, -1, 3, 7, 808, 690, 57,∛
2025-03-17 14:34:12.379,637, 597, 494, -4, -1, 0, -1, 3, 5, 822, 743, 59,∛
2025-03-17 14:34:12.434,686, 576, 442, -4, -4, 2, -2, 4, 6, 839, 757, 75,∛
2025-03-17 14:34:12.479,654, 612, 489, -8, 1, 0, 0, 4, 6, 851, 769, 57,∛
2025-03-17 14:34:12.532,651, 578, 463, 0, -2, -1, -1, 5, 6, 855, 774, 59,∛
2025-03-17 14:34:12.589,632, 524, 467, 5, -11, 0, -2, 4, 6, 879, 775, 76,∛
2025-03-17 14:34:12.638,759, 614, 429, 2, 7, -1, -2, 3, 7, 916, 852, 84,∛
2025-03-17 14:34:12.687,644, 500, 492, 9, -5, 3, -2, 3, 7, 933, 897, 51,∛
2025-03-17 14:34:12.739,629, 664, 469, 22, 1, 14, -2, 5, 6, 938, 885, 81,∛
2025-03-17 14:34:12.789,803, 666, 320, 1, 20, 31, 0, 3, 6, 945, 878, 84,∛
2025-03-17 14:34:12.839,684, 565, 555, -52, 10, 9, -1, 6, 5, 938, 898, 83,∛
2025-03-17 14:34:12.899,798, 934, 443, 0, -63, -46, -2, 3, 7, 940, 926, 64,∛
2025-03-17 14:34:12.954,591, 938, 413, -20, -25, 14, -2, 4, 7, 957, 942, 66,∛
2025-03-17 14:34:13.003,569, 512, 639, 3, 4, 8, -3, 4, 7, 950, 934, 79,∛
2025-03-17 14:34:13.059,466, 540, 420, 14, 34, -59, -3, 3, 8, 924, 901, 258,∛
2025-03-17 14:34:13.109,683, 653, 688, 24, -54, 30, -2, 3, 8, 914, 879, 159,∛
2025-03-17 14:34:13.160,779, 842, 373, 0, 10, 4, -1, 4, 9, 935, 919, 198,∛
2025-03-17 14:34:13.219,603, 597, 567, 2, -4, 5, -2, 1, 8, 944, 923, 197,∛
2025-03-17 14:34:13.270,801, 457, 392, 4, 5, 2, -1, 1, 9, 945, 917, 163,∛
2025-03-17 14:34:13.322,666, 662, 462, -23, 20, 15, -3, 4, 7, 939, 894, 70,∛
2025-03-17 14:34:13.372,751, 549, 396, -2, 23, -4, -1, 3, 7, 906, 859, 58,∛
2025-03-17 14:34:13.433,561, 594, 558, -15, 27, -15, -2, 4, 6, 851, 830, 99,∛
2025-03-17 14:34:13.699,654, 614, 486, 0, -3, 8, -1, 3, 7, 850, 734, 69,∜
2025-03-17 14:34:13.753,653, 611, 479, 1, -4, 8, -2, 3, 5, 853, 735, 54,∜
2025-03-17 14:34:13.806,715, 570, 435, -1, -3, 2, -2, 3, 6, 856, 740, 63,∜
2025-03-17 14:34:13.855,675, 599, 476, -3, 2, 0, -2, 4, 6, 861, 740, 40,∜
2025-03-17 14:34:13.908,648, 591, 464, -8, 1, -1, -1, 4, 7, 863, 713, 72,∜
2025-03-17 14:34:13.957,667, 603, 494, 1, -9, 0, 0, 2, 7, 880, 732, 82,∜
2025-03-17 14:34:14.009,936, 591, 381, 29, 5, -2, -2, 4, 4, 918, 875, 58,∜
2025-03-17 14:34:14.059,553, 457, 615, -6, -1, 20, -1, 5, 5, 944, 916, 48,∜
2025-03-17 14:34:14.109,691, 639, 458, -12, 20, 39, 0, 4, 6, 950, 913, 76,∜
2025-03-17 14:34:14.171,671, 607, 421, -47, 22, 25, -1, 6, 4, 950, 919, 80,∜
2025-03-17 14:34:14.223,906, 445, 375, 55, -57, -70, -2, 6, 6, 939, 931, 82,∜
2025-03-17 14:34:14.272,782, 446, 533, 16, -28, -8, -3, 3, 8, 954, 944, 66,∜
2025-03-17 14:34:14.329,699, 710, 495, 4, -2, 13, -3, 6, 9, 938, 934, 87,∜
2025-03-17 14:34:14.383,578, 595, 329, 21, 26, -51, -3, 3, 10, 901, 901, 69,∜
2025-03-17 14:34:14.439,682, 811, 661, -7, -34, -2, -2, 2, 9, 878, 849, 67,∜
2025-03-17 14:34:14.489,733, 669, 143, -37, -9, -2, -4, 4, 8, 944, 925, 37,∜
2025-03-17 14:34:14.539,609, 737, 396, -13, 19, 15, -4, 4, 9, 947, 908, 66,∜
2025-03-17 14:34:14.594,783, 654, 259, -1, 7, 2, -2, 3, 8, 952, 885, 52,∜
2025-03-17 14:34:14.654,773, 811, 671, -43, -9, 40, -3, 4, 9, 958, 934, 77,∜
2025-03-17 14:34:14.705,618, 383, 619, 1, -10, -3, -3, 4, 8, 947, 919, 91,∜
2025-03-17 14:34:14.759,614, 652, 609, 19, -5, -10, -2, 4, 7, 931, 899, 51,∜
2025-03-17 14:34:14.809,615, 906, -31, -9, 25, 27, -3, 3, 9, 952, 915, 80,∜
2025-03-17 14:34:14.861,881, 263, 429, -13, 25, -14, -2, 5, 7, 935, 841, 54,∜
2025-03-17 14:34:15.132,675, 580, 506, -6, 1, 0, -2, 4, 5, 851, 658, 62,∫
2025-03-17 14:34:15.186,673, 586, 499, -7, 2, 0, -3, 5, 6, 848, 652, 81,∫
2025-03-17 14:34:15.240,673, 572, 500, -4, 2, -1, -1, 3, 7, 838, 617, 85,∫
2025-03-17 14:34:15.293,660, 581, 501, -3, 0, 0, -3, 5, 5, 845, 626, 70,∫
2025-03-17 14:34:15.342,660, 563, 498, -2, 0, 1, -2, 3, 7, 844, 639, 59,∫
2025-03-17 14:34:15.393,673, 589, 490, -1, -1, 0, -2, 5, 7, 819, 639, 71,∫
2025-03-17 14:34:15.443,686, 552, 511, 3, 0, -3, -4, 4, 5, 794, 608, 65,∫
2025-03-17 14:34:15.493,668, 574, 480, -1, -1, -1, -2, 4, 7, 780, 601, 85,∫
2025-03-17 14:34:15.548,651, 573, 503, 2, -1, 0, -2, 5, 6, 794, 608, 45,∫
2025-03-17 14:34:15.599,672, 572, 488, 2, -2, 4, -2, 5, 4, 807, 648, 61,∫
2025-03-17 14:34:15.649,658, 569, 477, 2, -2, 1, -4, 5, 7, 819, 676, 63,∫
2025-03-17 14:34:15.702,664, 581, 484, 2, -4, -1, -1, 4, 5, 830, 675, 60,∫
2025-03-17 14:34:15.756,755, 609, 458, 18, -6, 15, -3, 3, 6, 864, 771, 44,∫
2025-03-17 14:34:15.809,603, 592, 475, 2, -13, 3, -3, 4, 6, 878, 852, 66,∫
2025-03-17 14:34:15.859,779, 644, 444, -8, -20, 18, -3, 4, 8, 908, 888, 62,∫
2025-03-17 14:34:15.909,685, 430, 357, -12, -4, -6, -2, 4, 8, 928, 914, 62,∫
2025-03-17 14:34:15.969,480, 477, 458, 2, -1, -15, -3, 5, 8, 932, 918, 67,∫
2025-03-17 14:34:16.021,586, 638, 369, 34, 19, -3, -4, 3, 8, 946, 900, 71,∫
2025-03-17 14:34:16.073,460, 1025, 119, 9, 48, 38, -1, 4, 9, 954, 902, 62,∫
2025-03-17 14:34:16.125,627, 482, 537, -26, 24, 16, -1, 6, 5, 944, 824, 60,∫
2025-03-17 14:34:16.179,977, 327, 429, 28, 25, -33, -1, 5, 5, 854, 671, 91,∫
2025-03-17 14:34:16.469,692, 549, 550, 8, -6, 7, -1, 5, 7, 881, 751, 66,∮
2025-03-17 14:34:16.521,662, 565, 556, 12, -9, 9, -1, 5, 4, 885, 762, 82,∮
2025-03-17 14:34:16.571,701, 553, 425, 9, -11, 8, -3, 4, 7, 895, 815, 39,∮
2025-03-17 14:34:16.628,669, 560, 540, 4, -6, 8, -3, 6, 7, 896, 845, 70,∮
2025-03-17 14:34:16.672,730, 553, 414, 2, -8, 8, -2, 5, 9, 909, 874, 70,∮
2025-03-17 14:34:16.729,666, 526, 516, 0, -11, 3, -3, 4, 7, 917, 891, 65,∮
2025-03-17 14:34:16.779,703, 542, 380, -16, 1, -9, -2, 6, 8, 929, 910, 56,∮
2025-03-17 14:34:16.836,589, 324, 664, 31, -2, -25, -2, 5, 8, 938, 903, 59,∮
2025-03-17 14:34:16.889,604, 657, 138, 16, 44, 35, -1, 3, 7, 953, 884, 46,∮
2025-03-17 14:34:16.939,755, 565, 678, -37, 22, 38, -1, 6, 5, 942, 892, 80,∮
2025-03-17 14:34:16.999,612, 646, 400, 27, -37, -42, -2, 5, 4, 918, 892, 71,∮
2025-03-17 14:34:17.053,784, 511, 465, 5, -14, -6, -2, 5, 8, 936, 920, 86,∮
2025-03-17 14:34:17.105,528, 961, 458, -21, 23, 32, -1, 4, 8, 959, 934, 44,∮
2025-03-17 14:34:17.160,1149, 360, 437, -51, 26, 23, -1, 5, 9, 949, 886, 65,∮
2025-03-17 14:34:17.209,976, 487, 582, 1, -11, -42, 0, 5, 4, 921, 821, 55,∮
2025-03-17 14:34:17.271,462, 565, 677, -6, -40, -23, -3, 6, 4, 921, 901, 66,∮
2025-03-17 14:34:17.322,586, 656, 463, -21, -4, -11, -2, 6, 8, 933, 923, 52,∮
2025-03-17 14:34:17.379,1059, 1137, 452, 16, 16, 38, -2, 6, 8, 949, 919, 86,∮
2025-03-17 14:34:17.432,787, 536, 439, -23, 31, 38, -1, 7, 7, 955, 905, 71,∮
2025-03-17 14:34:17.487,809, 505, 520, -27, 26, 12, -1, 7, 5, 926, 659, 69,∮
2025-03-17 14:34:17.539,769, 423, 365, 15, 85, -74, -1, 7, 2, 779, 593, 85,∮
2025-03-17 14:34:17.799,472, 625, 653, 34, -34, 20, -1, 4, 1, 474, 657, 56,∂
2025-03-17 14:34:17.859,471, 650, 662, 39, -40, 28, -2, 4, 1, 499, 664, 59,∂
2025-03-17 14:34:17.919,578, 659, 440, 61, -50, 69, -2, 4, 3, 495, 660, 193,∂
2025-03-17 14:34:17.972,808, 581, 313, 24, -9, 25, -1, 5, 4, 456, 595, 222,∂
2025-03-17 14:34:18.023,641, 469, 321, -26, 20, -19, -1, 4, 6, 529, 590, 72,∂
2025-03-17 14:34:18.079,826, 757, 713, -5, -2, -23, -1, 2, 4, 637, 653, 82,∂
2025-03-17 14:34:18.135,491, 448, 471, -12, -12, 10, -1, 5, 5, 764, 692, 56,∂
2025-03-17 14:34:18.188,688, 609, 502, 1, -23, 12, -1, 5, 4, 816, 725, 68,∂
2025-03-17 14:34:18.239,775, 555, 376, 1, -11, -6, -1, 4, 7, 834, 745, 53,∂
2025-03-17 14:34:18.289,746, 584, 467, -15, 2, -3, -1, 4, 6, 848, 760, 65,∂
2025-03-17 14:34:18.347,638, 603, 489, -9, -2, -2, 0, 3, 7, 859, 769, 77,∂
2025-03-17 14:34:18.395,679, 571, 460, -2, -7, 1, -2, 4, 8, 872, 779, 58,∂
2025-03-17 14:34:18.449,716, 575, 449, -9, 2, -3, -1, 5, 4, 877, 781, 63,∂
2025-03-17 14:34:18.503,605, 587, 511, -8, 3, -3, -2, 4, 7, 882, 786, 72,∂
2025-03-17 14:34:18.554,600, 556, 486, -7, -8, -8, -3, 5, 7, 889, 787, 58,∂
2025-03-17 14:34:18.609,768, 554, 460, 13, -25, -15, -1, 3, 7, 888, 839, 66,∂
2025-03-17 14:34:18.659,779, 911, 546, 6, -11, 12, -1, 2, 9, 937, 914, 58,∂
2025-03-17 14:34:18.709,562, 471, 606, 21, 24, 30, -2, 4, 8, 949, 922, 70,∂
2025-03-17 14:34:18.770,478, 335, 494, -34, 31, 10, -1, 4, 7, 943, 877, 65,∂
2025-03-17 14:34:18.821,888, 465, 570, 19, 4, -21, 1, 5, 4, 920, 880, 88,∂
2025-03-17 14:34:18.871,633, 376, 390, -24, -22, 10, -1, 5, 5, 950, 940, 88,∂
2025-03-17 14:34:18.929,822, 295, 264, -1, 19, -8, -3, 5, 7, 947, 928, 73,∂
2025-03-17 14:34:19.249,560, 689, 488, 19, -9, -2, -1, 2, 3, 592, 642, 59,∇
2025-03-17 14:34:19.290,546, 677, 477, 18, -8, 3, -1, 1, 5, 612, 651, 72,∇
2025-03-17 14:34:19.352,466, 619, 467, 7, -7, 36, -2, 1, 3, 695, 675, 68,∇
2025-03-17 14:34:19.404,811, 636, 475, 22, -27, 31, 0, 2, 6, 739, 689, 64,∇
2025-03-17 14:34:19.454,705, 532, 351, -12, -1, 3, -1, 1, 7, 797, 718, 71,∇
2025-03-17 14:34:19.504,650, 610, 486, -18, 1, -2, 0, 2, 5, 835, 746, 69,∇
2025-03-17 14:34:19.559,642, 608, 506, -3, -9, 4, -3, 3, 7, 850, 767, 65,∇
2025-03-17 14:34:19.609,706, 579, 443, 3, -11, 4, -2, 4, 6, 855, 777, 75,∇
2025-03-17 14:34:19.659,707, 608, 391, -10, 4, -1, -1, 1, 6, 863, 785, 67,∇
2025-03-17 14:34:19.710,675, 567, 483, -7, -4, 0, -1, 5, 4, 875, 795, 65,∇
2025-03-17 14:34:19.769,666, 594, 437, -8, 1, -3, -2, 4, 7, 881, 797, 70,∇
2025-03-17 14:34:19.821,646, 574, 505, -8, 0, -3, -1, 2, 7, 883, 796, 64,∇
2025-03-17 14:34:19.870,607, 589, 474, 3, -9, -6, -2, 3, 5, 881, 796, 73,∇
2025-03-17 14:34:19.921,875, 739, 472, -3, -10, -23, -1, 3, 7, 913, 841, 65,∇
2025-03-17 14:34:19.986,565, 752, 174, -52, -11, 48, -2, 4, 10, 951, 932, 72,∇
2025-03-17 14:34:20.036,512, 487, 654, 5, -1, 11, -2, 6, 8, 953, 940, 89,∇
2025-03-17 14:34:20.089,522, 693, 179, 42, 7, -1, -1, 2, 10, 953, 930, 91,∇
2025-03-17 14:34:20.139,997, 484, 110, 7, 53, 30, 0, 3, 8, 954, 900, 76,∇
2025-03-17 14:34:20.195,779, 514, 441, -39, 32, 13, -1, 5, 5, 927, 831, 64,∇
2025-03-17 14:34:20.249,514, 655, 611, 19, -37, -51, -1, 3, 6, 859, 804, 48,∇
2025-03-17 14:34:20.303,770, 748, 469, -17, -15, -13, -1, 4, 7, 933, 888, 80,∇
2025-03-17 14:34:20.359,741, 591, 352, -26, 35, 57, -1, 5, 6, 954, 914, 70,∇
2025-03-17 14:34:20.409,764, 419, 476, -18, 20, -19, 0, 5, 5, 928, 849, 73,∇
2025-03-17 14:34:20.459,626, 506, 563, 15, 38, -39, 0, 5, 4, 795, 730, 76,∇
2025-03-17 14:34:20.733,666, 558, 523, -2, -5, 0, -1, 5, 5, 757, 618, 66,∆
2025-03-17 14:34:20.786,661, 571, 516, -2, -6, 1, -1, 5, 6, 762, 627, 70,∆
2025-03-17 14:34:20.837,688, 541, 500, -4, -4, 0, -1, 6, 5, 766, 635, 91,∆
2025-03-17 14:34:20.891,696, 573, 485, -3, -3, 1, -1, 5, 5, 779, 646, 74,∆
2025-03-17 14:34:20.939,677, 554, 511, -4, 0, -1, 0, 4, 6, 781, 651, 46,∆
2025-03-17 14:34:20.989,685, 558, 503, -2, -2, 1, -1, 5, 4, 800, 683, 65,∆
2025-03-17 14:34:21.039,689, 547, 506, 2, -3, 0, -1, 4, 7, 813, 708, 68,∆
2025-03-17 14:34:21.095,704, 558, 490, -3, -3, 2, -1, 5, 6, 838, 735, 66,∆
2025-03-17 14:34:21.149,681, 559, 508, 2, -3, 2, -1, 5, 4, 852, 753, 57,∆
2025-03-17 14:34:21.199,697, 548, 475, -1, -3, 2, -1, 5, 7, 867, 760, 66,∆
2025-03-17 14:34:21.252,679, 565, 500, -3, -3, 2, -1, 4, 6, 878, 778, 89,∆
2025-03-17 14:34:21.303,715, 546, 468, -2, -4, 1, -1, 5, 6, 888, 789, 78,∆
2025-03-17 14:34:21.359,661, 508, 542, -5, -12, 1, -2, 5, 7, 898, 836, 59,∆
2025-03-17 14:34:21.411,673, 567, 574, -26, -8, -8, -1, 5, 8, 926, 892, 95,∆
2025-03-17 14:34:21.465,538, 578, 600, 53, 13, -3, -1, 3, 8, 949, 868, 67,∆
2025-03-17 14:34:21.519,1144, 832, 172, -83, 59, 57, -1, 5, 6, 936, 696, 65,∆
2025-03-17 14:34:21.570,727, 115, 666, -6, -11, -43, 0, 5, 5, 907, 708, 71,∆
2025-03-17 14:34:21.629,592, 573, 687, -1, -48, -24, -1, 5, 6, 891, 847, 84,∆
2025-03-17 14:34:21.679,769, 437, 527, 10, -5, -3, -1, 5, 8, 927, 913, 99,∆
2025-03-17 14:34:21.735,326, 1104, 302, -21, 26, 38, -2, 5, 7, 955, 930, 83,∆
2025-03-17 14:34:21.789,589, 479, 583, 9, 17, 22, -1, 5, 6, 952, 926, 94,∆
2025-03-17 14:34:21.839,598, 446, 582, 31, 13, -27, -1, 7, 4, 930, 881, 101,∆
2025-03-17 14:34:21.895,1003, 491, 354, 5, 13, -3, -1, 5, 3, 890, 746, 77,∆
2025-03-17 14:34:21.952,608, 550, 511, -40, 71, -39, 2, 5, 4, 876, 734, 102,∆
2025-03-17 14:34:22.001,450, 572, 757, -4, 0, -3, 1, 6, 0, 843, 733, 96,∆
2025-03-17 14:34:22.301,644, 596, 558, 12, -16, -17, -1, 2, 4, 594, 595, 64,π
2025-03-17 14:34:22.354,654, 591, 555, 14, -18, -18, -2, 5, 2, 593, 594, 71,π
2025-03-17 14:34:22.409,608, 639, 507, 10, -28, -6, 0, 2, 6, 609, 646, 92,π
2025-03-17 14:34:22.459,583, 636, 432, 16, -28, 15, -1, 1, 7, 616, 651, 69,π
2025-03-17 14:34:22.509,632, 577, 475, 3, 6, 17, -2, 2, 7, 669, 663, 68,π
2025-03-17 14:34:22.567,752, 620, 403, -6, -3, 11, -2, 3, 7, 741, 692, 42,π
2025-03-17 14:34:22.620,666, 598, 480, -14, 0, 2, -1, 5, 7, 822, 742, 94,π
2025-03-17 14:34:22.670,659, 581, 500, -9, -6, 7, -1, 4, 9, 846, 766, 79,π
2025-03-17 14:34:22.719,726, 591, 437, -4, -3, 1, -2, 5, 7, 865, 775, 50,π
2025-03-17 14:34:22.771,680, 563, 473, -9, 2, 0, -1, 4, 9, 876, 779, 81,π
2025-03-17 14:34:22.824,695, 594, 468, -5, 1, -2, -1, 3, 9, 882, 786, 79,π
2025-03-17 14:34:22.875,683, 603, 455, -1, 1, -1, -1, 3, 7, 879, 787, 91,π
2025-03-17 14:34:22.929,633, 601, 475, -7, 7, 1, -2, 4, 7, 878, 775, 68,π
2025-03-17 14:34:22.979,656, 544, 461, 1, 0, -7, -1, 3, 7, 871, 774, 95,π
2025-03-17 14:34:23.034,783, 359, 303, -39, 0, -27, 0, 3, 7, 877, 821, 96,π
2025-03-17 14:34:23.087,757, 447, 417, 25, -2, -11, 0, 4, 8, 925, 894, 44,π
2025-03-17 14:34:23.139,854, 788, 193, -56, -14, 78, -4, 4, 8, 955, 937, 87,π
2025-03-17 14:34:23.189,558, 465, 585, 6, -1, 20, -1, 5, 10, 963, 944, 48,π
2025-03-17 14:34:23.251,610, 584, 388, 23, 26, -46, -1, 5, 9, 934, 900, 86,π
2025-03-17 14:34:23.300,859, 796, 603, 25, -6, 2, -1, 5, 7, 910, 857, 67,π
2025-03-17 14:34:23.353,592, 448, 447, -19, -3, 7, -2, 4, 7, 946, 915, 87,π
2025-03-17 14:34:23.402,846, 247, 410, 6, 36, 32, -2, 4, 8, 949, 902, 72,π
2025-03-17 14:34:23.459,839, 493, 355, -5, 18, 7, -1, 5, 6, 907, 827, 65,π
2025-03-17 14:34:23.509,625, 658, 572, -29, -30, -12, -1, 5, 6, 912, 886, 82,π
2025-03-17 14:34:23.559,626, 527, 673, 10, -7, -12, -2, 4, 6, 940, 931, 57,π
2025-03-17 14:34:23.619,815, 842, 281, 7, 19, 26, -2, 5, 9, 957, 928, 73,π
2025-03-17 14:34:23.672,662, 440, 449, -24, 18, 31, -1, 5, 9, 958, 936, 89,π
2025-03-17 14:34:23.720,735, 646, 600, 0, -4, 13, -3, 5, 7, 950, 940, 85,π
2025-03-17 14:34:23.779,822, 507, 193, -2, 66, -43, -3, 5, 4, 904, 904, 96,π
2025-03-17 14:34:24.079,542, 609, 674, 21, -20, -6, -1, 4, 1, 687, 657, 34,θ
2025-03-17 14:34:24.139,528, 592, 677, 23, -25, -1, -1, 4, 1, 693, 664, 47,θ
2025-03-17 14:34:24.190,577, 623, 625, 64, -58, 43, -1, 4, 2, 707, 676, 49,θ
2025-03-17 14:34:24.250,632, 539, 292, 31, 2, 47, -3, 3, 7, 684, 653, 67,θ
2025-03-17 14:34:24.299,652, 470, 449, 16, -3, 15, -2, 4, 7, 628, 619, 37,θ
2025-03-17 14:34:24.353,918, 770, 342, -20, 15, -19, -1, 3, 7, 657, 661, 86,θ
2025-03-17 14:34:24.409,568, 520, 605, -5, -4, -5, 0, 4, 5, 738, 695, 36,θ
2025-03-17 14:34:24.459,668, 605, 458, 1, -16, 5, -2, 5, 6, 760, 719, 71,θ
2025-03-17 14:34:24.511,735, 553, 426, -3, -6, -3, -1, 4, 6, 774, 732, 84,θ
2025-03-17 14:34:24.559,695, 570, 477, -11, 1, -2, -1, 4, 7, 814, 743, 42,θ
2025-03-17 14:34:24.619,638, 586, 496, -7, -3, -4, -1, 4, 5, 841, 760, 88,θ
2025-03-17 14:34:24.671,666, 562, 485, -6, -10, -1, -1, 4, 5, 855, 777, 59,θ
2025-03-17 14:34:24.729,628, 539, 524, -19, -19, -11, -1, 5, 7, 865, 830, 66,θ
2025-03-17 14:34:24.779,658, 386, 459, 1, -11, -26, -1, 5, 8, 908, 882, 54,θ
2025-03-17 14:34:24.836,861, 900, 173, 78, 35, 29, -2, 3, 9, 941, 859, 89,θ
2025-03-17 14:34:24.889,756, 984, 296, -83, 46, 62, 1, 4, 8, 954, 892, 51,θ
2025-03-17 14:34:24.945,574, 297, 556, 13, -29, -88, -1, 7, 6, 930, 892, 72,θ
2025-03-17 14:34:24.995,737, 683, 775, 4, -57, 9, 0, 5, 6, 924, 917, 43,θ
2025-03-17 14:34:25.042,558, 468, 572, 9, -3, 1, -1, 4, 8, 955, 937, 64,θ
2025-03-17 14:34:25.096,563, 655, 341, -6, 41, 45, -2, 5, 6, 960, 930, 65,θ
2025-03-17 14:34:25.153,793, 374, 444, -42, 27, 15, -1, 6, 7, 942, 857, 64,θ
2025-03-17 14:34:25.204,476, 643, 645, 9, -7, -43, -1, 7, 4, 892, 787, 84,θ
2025-03-17 14:34:25.259,848, 911, 589, 8, -21, -11, -1, 4, 6, 946, 919, 56,θ
2025-03-17 14:34:25.309,806, 373, 381, -11, 0, 33, -1, 5, 7, 957, 934, 67,θ
2025-03-17 14:34:25.368,721, 487, 276, -4, 54, -42, -2, 6, 4, 931, 883, 94,θ
2025-03-17 14:34:25.652,630, 577, 548, -1, -5, 2, -1, 5, 3, 667, 243, 57,λ
2025-03-17 14:34:25.709,627, 564, 548, -1, -4, 2, 0, 5, 2, 672, 259, 56,λ
2025-03-17 14:34:25.753,645, 547, 566, -3, -2, 2, 1, 7, 1, 684, 365, 48,λ
2025-03-17 14:34:25.810,630, 556, 557, -2, 0, -2, 0, 5, 5, 699, 431, 61,λ
2025-03-17 14:34:25.859,618, 567, 578, 0, -4, -1, -1, 5, 2, 698, 517, 58,λ
2025-03-17 14:34:25.913,633, 565, 542, 0, -2, 0, -1, 5, 3, 681, 553, 80,λ
2025-03-17 14:34:25.959,629, 552, 559, -2, -1, 1, -1, 5, 5, 656, 515, 48,λ
2025-03-17 14:34:26.009,627, 546, 576, 1, -4, 1, -2, 5, 3, 688, 551, 80,λ
2025-03-17 14:34:26.068,611, 554, 573, 14, -15, 4, 0, 6, 2, 712, 626, 74,λ
2025-03-17 14:34:26.118,658, 557, 537, 9, -15, 9, -1, 5, 4, 777, 694, 91,λ
2025-03-17 14:34:26.170,689, 566, 517, 10, -19, 11, 0, 4, 6, 837, 727, 44,λ
2025-03-17 14:34:26.220,714, 552, 410, -2, -10, -2, -3, 5, 6, 863, 780, 85,λ
2025-03-17 14:34:26.270,629, 588, 551, -17, 6, -9, -2, 5, 5, 881, 787, 56,λ
2025-03-17 14:34:26.329,617, 530, 564, -8, -14, 5, -2, 5, 7, 900, 767, 65,λ
2025-03-17 14:34:26.384,707, 519, 478, 16, -25, -1, -2, 5, 6, 910, 798, 86,λ
2025-03-17 14:34:26.437,819, 515, 482, 36, 8, -5, -1, 4, 8, 932, 906, 87,λ
2025-03-17 14:34:26.489,564, 603, 678, 3, -11, 16, -1, 5, 6, 949, 936, 90,λ
2025-03-17 14:34:26.544,582, 714, 426, 13, 18, 23, -2, 5, 9, 964, 938, 52,λ
2025-03-17 14:34:26.594,729, 581, 423, -26, 31, 40, -1, 5, 8, 956, 916, 72,λ
2025-03-17 14:34:26.650,521, 632, 594, 8, -13, -44, -2, 5, 6, 936, 904, 42,λ
2025-03-17 14:34:26.702,608, 932, 593, -7, -16, -9, -3, 5, 7, 950, 929, 90,λ
2025-03-17 14:34:26.759,665, 846, 137, 11, 38, 31, -1, 5, 8, 957, 910, 64,λ
2025-03-17 14:34:26.814,969, 315, 505, -18, 33, -12, -2, 5, 5, 923, 826, 81,λ
2025-03-17 14:34:27.097,752, 564, 416, 0, -8, -16, 0, 4, 6, 742, 671, 72,μ
2025-03-17 14:34:27.150,750, 551, 420, -1, -6, -20, -1, 4, 6, 743, 668, 87,μ
2025-03-17 14:34:27.204,705, 462, 570, 15, -22, -66, -2, 3, 5, 747, 611, 60,μ
2025-03-17 14:34:27.259,548, 875, 345, 18, -7, -38, -2, -1, 8, 714, 573, 135,μ
2025-03-17 14:34:27.309,438, 810, 442, 5, 12, 41, -3, 0, 8, 815, 620, 64,μ
2025-03-17 14:34:27.367,699, 655, 467, -9, 5, 62, -1, 2, 6, 859, 668, 55,μ
2025-03-17 14:34:27.421,717, 565, 395, -27, 6, 30, -1, 4, 6, 888, 744, 88,μ
2025-03-17 14:34:27.470,681, 517, 549, -9, -9, 16, -2, 5, 6, 903, 785, 66,μ
2025-03-17 14:34:27.523,739, 572, 421, -4, -2, 3, -1, 5, 7, 910, 810, 86,μ
2025-03-17 14:34:27.571,711, 565, 460, -7, 2, 4, -1, 4, 7, 915, 835, 74,μ
2025-03-17 14:34:27.622,614, 566, 536, -3, 0, 1, -2, 5, 7, 917, 844, 86,μ
2025-03-17 14:34:27.679,753, 544, 422, -5, -4, 1, -1, 3, 7, 920, 837, 70,μ
2025-03-17 14:34:27.726,678, 560, 494, -6, 1, -6, -1, 5, 7, 924, 844, 70,μ
2025-03-17 14:34:27.779,670, 558, 478, -3, -3, -2, -1, 5, 7, 922, 827, 67,μ
2025-03-17 14:34:27.834,662, 561, 471, -5, 3, -7, -1, 6, 8, 918, 811, 72,μ
2025-03-17 14:34:27.885,748, 584, 437, -5, -2, -4, -2, 5, 8, 917, 817, 67,μ
2025-03-17 14:34:27.939,741, 592, 345, -16, 38, 6, 0, 4, 7, 917, 792, 95,μ
2025-03-17 14:34:27.989,527, 594, 724, 7, 8, 24, -1, 5, 4, 918, 747, 60,μ
2025-03-17 14:34:28.039,709, 491, 483, 9, 2, 21, -1, 5, 5, 916, 723, 80,μ
2025-03-17 14:34:28.089,747, 609, 379, -15, 9, 2, 1, 5, 5, 918, 760, 93,μ
2025-03-17 14:34:28.141,703, 650, 500, -21, 4, 4, 1, 7, 6, 925, 873, 93,μ
2025-03-17 14:34:28.193,514, 477, 480, -29, -37, -24, 1, 6, 6, 936, 929, 89,μ
2025-03-17 14:34:28.253,717, 547, 445, -18, -26, -20, -2, 7, 6, 943, 940, 98,μ
2025-03-17 14:34:28.309,686, 431, 559, 18, -18, -17, -2, 7, 6, 957, 946, 59,μ
2025-03-17 14:34:28.359,666, 793, 379, 22, 21, 25, -1, 5, 11, 960, 938, 96,μ
2025-03-17 14:34:28.416,763, 726, 470, -37, 13, 30, 0, 5, 8, 958, 937, 89,μ
2025-03-17 14:34:28.469,702, 451, 597, -17, -19, -17, -2, 7, 5, 957, 939, 67,μ
2025-03-17 14:34:28.519,718, 442, 587, 19, -5, -5, -1, 7, 8, 952, 935, 96,μ
2025-03-17 14:34:28.579,732, 564, 494, -5, 11, 20, -2, 6, 8, 963, 935, 79,μ
2025-03-17 14:34:28.633,754, 430, 622, -28, -6, 7, -2, 7, 6, 961, 941, 78,μ
2025-03-17 14:34:28.685,833, 427, 234, -22, 59, -20, -1, 7, 7, 945, 920, 98,μ
2025-03-17 14:34:28.739,529, 488, 763, -20, 51, -18, -2, 7, 4, 928, 899, 99,μ
2025-03-17 14:34:29.369,755, 639, 472, 11, -17, 11, -2, 3, 6, 600, 531, 61,ω
2025-03-17 14:34:29.419,727, 618, 463, 6, -17, 10, -2, 5, 4, 621, 561, 87,ω
2025-03-17 14:34:29.474,725, 593, 437, 0, -11, 5, -2, 5, 7, 689, 633, 61,ω
2025-03-17 14:34:29.529,647, 551, 500, -5, -3, 2, -1, 5, 6, 758, 671, 85,ω
2025-03-17 14:34:29.582,703, 578, 455, 2, -14, 1, -1, 5, 8, 785, 706, 78,ω
2025-03-17 14:34:29.635,711, 565, 450, -4, -5, -3, -2, 5, 7, 814, 719, 68,ω
2025-03-17 14:34:29.685,710, 570, 462, -8, 0, -4, -2, 5, 7, 839, 732, 90,ω
2025-03-17 14:34:29.739,695, 580, 446, -7, -1, -3, -2, 3, 9, 853, 736, 63,ω
2025-03-17 14:34:29.789,688, 560, 484, -7, -1, -2, -2, 5, 7, 865, 748, 70,ω
2025-03-17 14:34:29.844,680, 580, 463, -6, 1, -1, -2, 5, 7, 875, 764, 71,ω
2025-03-17 14:34:29.899,685, 576, 476, -2, 2, -1, -1, 5, 8, 874, 767, 85,ω
2025-03-17 14:34:29.944,686, 565, 468, -4, 2, -5, -2, 5, 8, 872, 740, 60,ω
2025-03-17 14:34:30.001,709, 574, 446, 0, 1, -2, -1, 4, 9, 872, 748, 69,ω
2025-03-17 14:34:30.054,724, 606, 492, -3, -3, 14, -2, 5, 6, 901, 835, 94,ω
2025-03-17 14:34:30.102,591, 577, 502, -7, -7, -2, -1, 5, 7, 912, 865, 56,ω
2025-03-17 14:34:30.159,821, 574, 388, -21, -5, -4, -1, 5, 9, 927, 900, 71,ω
2025-03-17 14:34:30.209,506, 412, 528, 15, -1, -8, -3, 5, 9, 940, 912, 67,ω
2025-03-17 14:34:30.267,814, 711, 318, -9, 29, 20, -2, 4, 8, 953, 901, 90,ω
2025-03-17 14:34:30.319,561, 555, 383, -38, 23, 35, -1, 5, 6, 953, 917, 72,ω
2025-03-17 14:34:30.369,529, 468, 696, -4, -7, -7, -2, 6, 6, 948, 922, 62,ω
2025-03-17 14:34:30.419,711, 649, 380, 41, -4, -2, 0, 5, 7, 946, 915, 93,ω
2025-03-17 14:34:30.479,696, 635, 437, -32, 5, 12, -2, 8, 6, 953, 937, 69,ω
2025-03-17 14:34:30.534,729, 544, 470, 7, -18, -12, -2, 8, 7, 942, 921, 79,ω
2025-03-17 14:34:30.585,666, 479, 432, -28, 100, -43, -1, 5, 7, 898, 872, 73,ω
2025-03-17 14:34:30.644,463, 517, 924, -16, 15, -16, -2, 8, 1, 851, 791, 82,ω
2025-03-17 14:34:30.914,665, 544, 530, 7, -9, 2, -1, 5, 4, 710, 570, 65,!
2025-03-17 14:34:30.959,686, 548, 529, 6, -8, 2, -3, 6, 3, 714, 562, 67,!
2025-03-17 14:34:31.016,665, 543, 521, 2, -5, 1, -1, 5, 5, 723, 426, 42,!
2025-03-17 14:34:31.065,658, 546, 533, 3, -7, 4, -1, 6, 4, 753, 475, 70,!
2025-03-17 14:34:31.119,680, 553, 503, 9, -9, 1, 0, 5, 5, 758, 590, 82,!
2025-03-17 14:34:31.167,695, 543, 491, 2, -6, -3, -2, 5, 4, 753, 627, 73,!
2025-03-17 14:34:31.219,673, 576, 507, 0, -4, -2, -1, 6, 6, 763, 654, 62,!
2025-03-17 14:34:31.269,692, 545, 518, -1, -6, 3, -1, 5, 5, 801, 691, 71,!
2025-03-17 14:34:31.319,690, 559, 467, -4, -1, 0, -2, 5, 7, 830, 708, 63,!
2025-03-17 14:34:31.369,675, 544, 497, -3, 0, 1, -2, 6, 6, 854, 721, 76,!
2025-03-17 14:34:31.429,703, 558, 493, -5, -3, -4, -1, 5, 4, 853, 720, 38,!
2025-03-17 14:34:31.483,666, 566, 480, -12, -3, -7, -1, 5, 8, 855, 752, 93,!
2025-03-17 14:34:31.535,680, 560, 519, -20, -16, -9, -2, 5, 6, 865, 790, 66,!
2025-03-17 14:34:31.589,676, 500, 544, -16, -18, 4, -2, 6, 7, 895, 871, 66,!
2025-03-17 14:34:31.644,700, 500, 415, -20, -3, -4, -2, 5, 8, 939, 919, 54,!
2025-03-17 14:34:31.700,434, 540, 537, 31, 17, 13, -2, 6, 7, 954, 921, 76,!
2025-03-17 14:34:31.751,653, 608, 317, 15, 23, 31, -1, 6, 6, 965, 917, 62,!
2025-03-17 14:34:31.802,749, 498, 620, -16, 9, 17, -1, 5, 6, 947, 896, 71,!
2025-03-17 14:34:31.859,688, 519, 370, -16, 37, -15, -2, 7, 5, 917, 858, 83,!
2025-03-17 14:34:31.909,560, 523, 706, 0, 12, 7, -2, 8, 4, 914, 834, 73,!
2025-03-17 14:34:31.959,404, 512, 719, 8, -28, 38, -1, 7, 5, 924, 829, 88,!
2025-03-17 14:34:32.009,844, 275, 17, -27, 7, 5, 0, 8, 5, 950, 906, 56,!
2025-03-17 14:34:32.069,988, 358, 302, -18, 25, -27, 1, 6, 4, 929, 862, 73,!
2025-03-17 14:34:32.119,557, 537, 795, -31, 71, -39, -2, 9, 3, 900, 800, 85,!
2025-03-17 14:34:32.169,438, 518, 684, 0, 2, -10, -1, 9, 0, 876, 771, 68,!
2025-03-17 14:34:32.429,704, 529, 509, 5, -11, 1, -1, 6, 7, 844, 663, 81,@
2025-03-17 14:34:32.483,706, 532, 497, 4, -10, 1, 0, 6, 5, 845, 673, 76,@
2025-03-17 14:34:32.534,708, 524, 512, 2, -3, -1, -1, 6, 6, 860, 714, 65,@
2025-03-17 14:34:32.585,685, 524, 564, -4, -6, 0, 0, 5, 7, 879, 773, 98,@
2025-03-17 14:34:32.635,707, 518, 528, -8, -6, -5, -2, 7, 5, 890, 790, 92,@
2025-03-17 14:34:32.684,666, 529, 550, 2, -8, 4, -2, 6, 5, 905, 808, 48,@
2025-03-17 14:34:32.739,642, 495, 526, 6, -19, 3, -2, 5, 8, 919, 855, 69,@
2025-03-17 14:34:32.792,757, 408, 446, -6, -4, -14, -2, 7, 5, 931, 895, 77,@
2025-03-17 14:34:32.843,575, 437, 590, 19, -6, -20, -2, 5, 8, 944, 890, 59,@
2025-03-17 14:34:32.901,846, 1110, 224, -22, 30, 39, -2, 5, 8, 952, 882, 77,@
2025-03-17 14:34:32.951,755, 324, 735, -15, -11, 4, -1, 8, 6, 949, 891, 78,@
2025-03-17 14:34:33.009,683, 411, 645, 25, -9, -11, -1, 5, 9, 940, 905, 89,@
2025-03-17 14:34:33.065,686, 750, 281, 3, 16, 21, -1, 5, 8, 952, 908, 72,@
2025-03-17 14:34:33.117,760, 487, 420, -38, 1, 8, -4, 5, 7, 945, 912, 93,@
2025-03-17 14:34:33.169,654, 527, 539, -18, -21, -32, -3, 5, 9, 930, 917, 91,@
2025-03-17 14:34:33.219,673, 463, 468, 42, 5, -25, -1, 5, 10, 933, 891, 89,@
2025-03-17 14:34:33.273,435, 444, 12, 4, 45, 50, -1, 5, 7, 954, 884, 55,@
2025-03-17 14:34:33.329,654, 303, 616, -42, 14, 52, -1, 6, 6, 951, 913, 83,@
2025-03-17 14:34:33.383,796, 639, 244, -5, 37, -55, -1, 8, 5, 929, 883, 78,@
2025-03-17 14:34:33.439,561, 583, 765, -12, 46, -31, -1, 8, 2, 810, 781, 72,@
2025-03-17 14:34:33.729,714, 533, 479, 5, -12, 1, -2, 6, 5, 809, 668, 62,#
2025-03-17 14:34:33.782,715, 532, 484, 2, -10, 1, -1, 6, 5, 808, 668, 42,#
2025-03-17 14:34:33.835,708, 546, 483, 1, -4, -2, -1, 6, 6, 806, 687, 59,#
2025-03-17 14:34:33.883,688, 534, 508, -6, 1, -4, 0, 4, 7, 815, 695, 61,#
2025-03-17 14:34:33.935,693, 546, 507, 1, -6, 0, -2, 7, 5, 830, 707, 70,#
2025-03-17 14:34:33.989,691, 521, 517, -4, 0, -2, -1, 5, 7, 834, 720, 74,#
2025-03-17 14:34:34.039,682, 537, 509, 2, -4, -3, -2, 7, 5, 839, 724, 48,#
2025-03-17 14:34:34.092,708, 526, 515, -6, 0, -2, -1, 6, 7, 849, 729, 80,#
2025-03-17 14:34:34.140,694, 543, 499, -8, 1, 0, -1, 5, 6, 860, 734, 95,#
2025-03-17 14:34:34.194,700, 526, 505, -3, -1, -1, -2, 6, 6, 870, 742, 93,#
2025-03-17 14:34:34.248,671, 549, 507, -1, -3, -6, 0, 6, 8, 870, 744, 51,#
2025-03-17 14:34:34.301,666, 525, 507, 0, -11, -9, -2, 7, 6, 873, 790, 86,#
2025-03-17 14:34:34.353,700, 510, 508, -6, -6, -3, -2, 5, 9, 884, 828, 62,#
2025-03-17 14:34:34.401,709, 486, 643, -17, -3, -6, -1, 5, 9, 922, 884, 94,#
2025-03-17 14:34:34.459,707, 851, 472, 66, 30, 37, -2, 6, 8, 948, 879, 93,#
2025-03-17 14:34:34.515,760, 546, 111, -59, 39, 49, 0, 6, 5, 946, 828, 66,#
2025-03-17 14:34:34.568,682, 292, 634, 0, -23, -57, -1, 7, 5, 915, 872, 97,#
2025-03-17 14:34:34.619,423, 435, 828, -7, -70, -2, -4, 8, 7, 921, 916, 72,#
2025-03-17 14:34:34.669,837, 785, 361, 44, 7, 11, -4, 5, 9, 946, 921, 92,#
2025-03-17 14:34:34.723,943, 645, 288, -12, 51, 71, -2, 5, 8, 952, 907, 68,#
2025-03-17 14:34:34.779,706, 91, 589, -41, 8, -38, -1, 9, 6, 932, 879, 95,#
2025-03-17 14:34:34.833,531, 550, 776, 1, -40, -37, -1, 6, 6, 895, 830, 62,#
2025-03-17 14:34:34.890,1055, 581, 899, 44, -22, -13, -1, 5, 8, 949, 930, 76,#
2025-03-17 14:34:34.943,408, 454, 517, -20, -8, 25, -2, 5, 9, 958, 939, 71,#
2025-03-17 14:34:34.998,662, 309, 331, 19, 41, -20, -2, 6, 8, 934, 881, 98,#
2025-03-17 14:34:35.050,947, 592, 783, 11, -14, 11, -1, 5, 8, 900, 651, 93,#
2025-03-17 14:34:35.101,1104, 1107, 293, -41, -8, 49, -2, 5, 8, 952, 935, 94,#
2025-03-17 14:34:35.159,616, 399, 579, 9, 1, 26, -4, 7, 8, 949, 923, 77,#
2025-03-17 14:34:35.215,629, 454, 388, -5, 81, -64, -2, 5, 5, 899, 825, 77,#
