Timestamp,Acc_X,Acc_Y,Acc_Z,Gyro_X,Gyro_Y,Gyro_Z,Mag_X,Mag_Y,Mag_Z,Force1,Force2,Force3,Letter
2025-03-17 11:19:20.948,563, 761, 368, -7, 7, 4, -4, -9, 17, 31, 25, 44,noise
2025-03-17 11:19:20.948,564, 764, 321, -8, 12, 6, -2, -10, 19, 53, 49, 50,noise
2025-03-17 11:19:20.951,563, 761, 368, -7, 7, 4, -4, -9, 17, 31, 25, 44,noise
2025-03-17 11:19:27.848,522, 811, 282, 4, -5, -4, 0, 0, 0, 304, 168, 44,A
2025-03-17 11:19:27.902,523, 808, 284, 5, -4, -3, 2, 1, 0, 298, 164, 44,A
2025-03-17 11:19:27.949,544, 815, 274, 1, 0, 1, 2, 0, -2, 232, 62, 31,A
2025-03-17 11:19:27.999,548, 787, 312, 1, 1, 1, 2, -1, -1, 37, 36, 32,A
2025-03-17 11:19:28.049,565, 774, 314, 3, -3, -2, 0, 0, 0, 39, 36, 33,A
2025-03-17 11:19:28.099,524, 811, 281, 0, -4, -3, 3, 0, -1, 23, 23, 23,A
2025-03-17 11:19:28.148,539, 803, 243, 0, -8, 1, 0, 2, -3, 39, 40, 30,A
2025-03-17 11:19:28.194,543, 797, 262, -6, -3, 2, 1, -2, 1, 25, 25, 21,A
2025-03-17 11:19:28.246,565, 793, 276, -8, 1, 4, 0, -4, 0, 45, 46, 48,A
2025-03-17 11:19:28.294,565, 778, 296, -5, 2, 2, 2, 0, -2, 41, 33, 34,A
2025-03-17 11:19:28.344,567, 779, 297, -3, 1, 0, 1, -2, 1, 32, 35, 28,A
2025-03-17 11:19:28.394,539, 778, 319, 0, 0, -1, -1, -2, 0, 28, 33, 39,A
2025-03-17 11:19:28.443,589, 806, 247, 1, 2, 0, 3, -2, 1, 37, 39, 40,A
2025-03-17 11:19:28.492,551, 803, 246, -9, 11, 1, 1, -1, -1, 24, 23, 26,A
2025-03-17 11:19:28.545,608, 881, 275, -13, 18, 10, 1, -2, -1, 42, 41, 41,A
2025-03-17 11:19:28.598,544, 808, 277, -39, 19, 25, -1, 0, -3, 51, 48, 52,A
2025-03-17 11:19:28.648,572, 737, 436, -40, 22, 33, -2, 3, -4, 266, 38, 37,A
2025-03-17 11:19:28.700,585, 777, 415, 6, -24, 40, -1, 2, -2, 359, 42, 46,A
2025-03-17 11:19:28.759,606, 737, 420, 8, -2, 42, -3, 4, -3, 558, 30, 156,A
2025-03-17 11:19:28.812,564, 658, 344, 11, 19, 52, -2, 6, -5, 677, 54, 282,A
2025-03-17 11:19:28.868,531, 414, 346, -13, 50, 59, -4, 8, -6, 797, 390, 203,A
2025-03-17 11:19:28.926,681, 495, 270, 4, 66, 21, -5, 10, -9, 874, 646, 302,A
2025-03-17 11:19:28.978,625, 382, 575, -4, 57, 48, -5, 13, -13, 893, 745, 224,A
2025-03-17 11:19:29.029,636, 466, 545, 8, 25, 29, -4, 16, -17, 904, 801, 156,A
2025-03-17 11:19:29.097,907, 656, 414, -4, -37, -27, -2, 13, -13, 912, 830, 344,A
2025-03-17 11:19:29.148,651, 500, 521, 10, -29, -28, -2, 15, -13, 921, 867, 389,A
2025-03-17 11:19:29.211,732, 468, 497, 9, -11, -23, -2, 12, -12, 923, 869, 389,A
2025-03-17 11:19:29.268,682, 636, 535, 20, -19, -17, -4, 9, -10, 924, 834, 192,A
2025-03-17 11:19:29.327,646, 564, 648, 52, -45, -20, -5, 9, -10, 916, 808, 45,A
2025-03-17 11:19:29.378,715, 717, 145, 82, -46, -49, -2, 8, -7, 888, 736, 57,A
2025-03-17 11:19:29.443,800, 994, 41, -7, -25, -17, -4, 4, -3, 853, 703, 319,A
2025-03-17 11:19:29.494,654, 585, 27, -55, 77, 46, -5, 8, -6, 868, 796, 503,A
2025-03-17 11:19:29.548,516, 574, 327, -70, 51, 17, -2, 5, -8, 891, 832, 461,A
2025-03-17 11:19:29.610,1123, 904, 673, -11, 12, 0, -1, 9, -7, 913, 865, 549,A
2025-03-17 11:19:29.668,441, 515, 541, -10, -32, 11, -2, 10, -9, 925, 897, 502,A
2025-03-17 11:19:29.725,682, 597, 320, -16, -52, 18, -2, 7, -7, 940, 921, 614,A
2025-03-17 11:19:29.778,749, 434, 560, -28, -13, -13, -1, 10, -7, 961, 937, 566,A
2025-03-17 11:19:29.838,911, 900, -13, -2, 68, 43, -3, 9, -8, 967, 928, 396,A
2025-03-17 11:19:29.897,733, 240, 598, -24, -11, -35, -2, 9, -8, 952, 926, 434,A
2025-03-17 11:19:29.948,596, 350, 780, 0, -57, 14, -3, 9, -7, 965, 942, 458,A
2025-03-17 11:19:30.008,652, 985, -34, -15, 54, 40, 0, 9, -6, 970, 941, 344,A
2025-03-17 11:19:30.061,522, 373, 577, 6, 47, -20, -3, 12, -9, 955, 919, 246,A
2025-03-17 11:19:30.118,782, 203, -15, -22, -16, -25, -3, 10, -10, 958, 927, 312,A
2025-03-17 11:19:30.178,889, 634, 231, -6, 0, 34, -2, 12, -8, 969, 950, 180,A
2025-03-17 11:19:30.238,872, 330, -46, -18, 77, -64, -3, 11, -9, 958, 931, 284,A
2025-03-17 11:19:30.294,584, 678, 709, -24, 55, -62, -2, 8, -12, 923, 865, 431,A
2025-03-17 11:19:30.348,516, 622, 705, 21, -5, -24, -1, 9, -13, 877, 803, 426,A
2025-03-17 11:19:30.653,884, 868, 480, 46, -37, -13, 0, 7, -10, 671, 375, 426,B
2025-03-17 11:19:30.711,870, 893, 305, 24, -32, -10, 0, 11, -12, 687, 419, 436,B
2025-03-17 11:19:30.763,663, 557, 399, -9, 8, -7, -1, 8, -10, 765, 594, 439,B
2025-03-17 11:19:30.817,601, 686, 364, -24, 7, 10, -2, 10, -9, 825, 679, 543,B
2025-03-17 11:19:30.876,673, 690, 395, -15, 3, 9, 1, 7, -9, 863, 754, 606,B
2025-03-17 11:19:30.929,666, 614, 392, -12, 5, 5, -1, 9, -9, 882, 794, 609,B
2025-03-17 11:19:30.977,654, 641, 441, -11, 2, 6, -1, 10, -10, 891, 809, 607,B
2025-03-17 11:19:31.044,647, 633, 411, -9, -4, 7, -2, 11, -13, 901, 826, 618,B
2025-03-17 11:19:31.098,649, 612, 410, -14, -9, 2, 0, 11, -12, 911, 850, 638,B
2025-03-17 11:19:31.159,928, 488, 416, -45, -10, -16, -2, 10, -10, 938, 900, 586,B
2025-03-17 11:19:31.213,596, 903, 207, -17, 34, 40, -2, 10, -9, 964, 916, 311,B
2025-03-17 11:19:31.268,643, 560, 455, -5, 27, 31, -2, 11, -12, 955, 902, 49,B
2025-03-17 11:19:31.328,738, 660, 402, 8, -37, -31, -2, 13, -12, 946, 919, 506,B
2025-03-17 11:19:31.388,628, 715, 383, -5, -18, -6, -3, 11, -11, 962, 940, 481,B
2025-03-17 11:19:31.446,815, 588, 275, -10, 14, 13, -2, 12, -10, 965, 937, 286,B
2025-03-17 11:19:31.498,630, 444, 619, -7, 16, 11, -1, 11, -8, 964, 933, 79,B
2025-03-17 11:19:31.553,715, 533, 363, 5, 6, 0, -3, 14, -13, 957, 907, 54,B
2025-03-17 11:19:31.613,872, 338, 530, 4, 14, -26, -2, 14, -14, 917, 865, 200,B
2025-03-17 11:19:31.668,538, 494, 795, -36, -2, -24, -1, 11, -13, 904, 884, 226,B
2025-03-17 11:19:31.958,702, 522, 476, 2, -5, 0, -2, 12, -11, 912, 870, 275,C
2025-03-17 11:19:32.014,702, 545, 470, 0, -5, 0, -5, 11, -13, 912, 874, 271,C
2025-03-17 11:19:32.072,700, 590, 439, -2, -2, -1, -2, 11, -10, 915, 872, 257,C
2025-03-17 11:19:32.128,691, 554, 472, -2, -1, -1, -2, 12, -10, 916, 876, 254,C
2025-03-17 11:19:32.186,705, 557, 444, -3, -6, -1, -2, 12, -10, 920, 884, 259,C
2025-03-17 11:19:32.238,688, 571, 449, 4, -8, 2, 0, 13, -10, 925, 893, 254,C
2025-03-17 11:19:32.295,667, 559, 486, -10, -11, -5, -2, 15, -11, 931, 905, 111,C
2025-03-17 11:19:32.348,329, 346, 468, 40, -6, -22, -4, 12, -8, 945, 906, 104,C
2025-03-17 11:19:32.411,769, 636, 118, -24, 34, 30, -1, 10, -11, 956, 911, 40,C
2025-03-17 11:19:32.468,719, 284, 654, -4, 2, 13, -3, 13, -11, 947, 926, 51,C
2025-03-17 11:19:32.527,533, 605, 727, -15, 31, -36, 0, 9, -11, 928, 900, 325,C
2025-03-17 11:19:32.838,670, 565, 509, -1, -4, -2, -2, 12, -13, 898, 835, 215,D
2025-03-17 11:19:32.895,667, 577, 505, -1, -6, -1, -3, 16, -14, 896, 834, 208,D
2025-03-17 11:19:32.948,690, 572, 474, 0, -7, 1, -1, 11, -11, 899, 839, 223,D
2025-03-17 11:19:32.998,706, 583, 431, 0, -5, 0, -1, 12, -11, 902, 848, 233,D
2025-03-17 11:19:33.061,679, 595, 470, -5, -4, -5, -1, 13, -10, 897, 858, 260,D
2025-03-17 11:19:33.120,735, 479, 493, -11, -21, -7, -4, 16, -13, 915, 882, 270,D
2025-03-17 11:19:33.178,627, 923, 180, 31, 27, 32, -2, 12, -11, 955, 898, 39,D
2025-03-17 11:19:33.235,700, 839, 152, -5, 35, 38, -1, 12, -11, 956, 885, 55,D
2025-03-17 11:19:33.292,629, 205, 649, 81, -41, -68, 0, 12, -12, 913, 882, 311,D
2025-03-17 11:19:33.347,602, 457, 472, -16, -40, -5, -2, 11, -11, 960, 938, 307,D
2025-03-17 11:19:33.408,571, 674, -29, 1, 34, 38, -2, 10, -9, 969, 931, 68,D
2025-03-17 11:19:33.460,1048, 509, 326, 30, 50, -3, 0, 12, -11, 934, 834, 53,D
2025-03-17 11:19:33.518,547, 584, 749, -27, 30, -38, -2, 13, -14, 900, 838, 190,D
2025-03-17 11:19:33.771,732, 624, 408, -8, 3, 2, -2, 11, -10, 896, 849, 250,E
2025-03-17 11:19:33.828,717, 578, 433, -8, 4, 3, -5, 14, -14, 896, 850, 246,E
2025-03-17 11:19:33.886,696, 558, 471, -3, 0, -1, 0, 11, -10, 901, 857, 246,E
2025-03-17 11:19:33.943,691, 583, 444, -5, 0, -4, -2, 10, -10, 898, 858, 258,E
2025-03-17 11:19:34.000,672, 565, 457, -10, -5, -6, -1, 14, -12, 892, 858, 298,E
2025-03-17 11:19:34.060,656, 595, 500, -12, -13, -4, -1, 14, -12, 895, 872, 268,E
2025-03-17 11:19:34.118,739, 479, 520, -7, -12, -13, -1, 11, -7, 945, 896, 153,E
2025-03-17 11:19:34.177,-106, 276, 604, -19, 37, 30, -3, 12, -11, 963, 882, 45,E
2025-03-17 11:19:34.235,742, 477, 510, -9, 14, 24, -1, 12, -12, 930, 842, 31,E
2025-03-17 11:19:34.292,851, 562, 655, -3, -26, -27, -1, 12, -12, 930, 909, 125,E
2025-03-17 11:19:34.348,586, 662, 438, -10, -15, 16, -2, 11, -8, 958, 937, 237,E
2025-03-17 11:19:34.397,585, 446, 348, 23, 38, -1, -1, 12, -9, 933, 887, 321,E
2025-03-17 11:19:34.461,789, 799, 371, 4, -19, -20, 1, 9, -9, 952, 901, 115,E
2025-03-17 11:19:34.518,665, 538, 426, -10, -3, 23, -2, 10, -8, 965, 935, 36,E
2025-03-17 11:19:34.575,529, 470, 314, 23, 45, 9, -2, 12, -11, 939, 852, 58,E
2025-03-17 11:19:34.628,828, 660, 208, -15, -4, -11, -1, 12, -12, 950, 864, 47,E
2025-03-17 11:19:34.688,773, 440, 452, 13, -3, 22, -3, 14, -12, 959, 921, 52,E
2025-03-17 11:19:34.744,649, 576, 264, -11, 61, -57, 1, 12, -10, 919, 855, 171,E
2025-03-17 11:19:35.029,703, 596, 442, -5, 2, 0, -1, 11, -11, 902, 819, 259,F
2025-03-17 11:19:35.086,694, 595, 450, -4, 1, 0, -3, 12, -10, 902, 823, 255,F
2025-03-17 11:19:35.142,706, 596, 427, -6, -1, -3, -2, 10, -11, 901, 833, 305,F
2025-03-17 11:19:35.197,677, 584, 459, -5, -1, -4, -2, 11, -10, 898, 840, 320,F
2025-03-17 11:19:35.258,655, 595, 466, -5, -6, -7, -1, 10, -11, 894, 856, 349,F
2025-03-17 11:19:35.310,620, 564, 505, 10, -20, 5, -1, 12, -11, 900, 883, 421,F
2025-03-17 11:19:35.374,699, 427, 539, 31, -9, -15, -3, 11, -10, 945, 912, 429,F
2025-03-17 11:19:35.427,917, 569, 424, -27, 36, 46, -1, 10, -10, 960, 905, 41,F
2025-03-17 11:19:35.478,580, 194, 723, -3, -9, -19, 0, 12, -11, 922, 885, 51,F
2025-03-17 11:19:35.541,809, 719, 638, 5, -21, -20, -1, 12, -9, 943, 937, 455,F
2025-03-17 11:19:35.598,753, 704, 404, 10, -3, 16, -2, 13, -10, 958, 941, 471,F
2025-03-17 11:19:35.647,500, 463, 446, 11, 43, -10, -1, 12, -9, 939, 900, 395,F
2025-03-17 11:19:35.710,846, 904, 80, -7, -12, -11, -1, 14, -13, 960, 927, 302,F
2025-03-17 11:19:35.768,642, 720, 476, 14, 0, 27, -1, 10, -10, 964, 939, 298,F
2025-03-17 11:19:35.827,618, 564, 434, -16, 64, -43, -1, 13, -11, 929, 875, 411,F
2025-03-17 11:19:36.124,686, 604, 442, -6, -1, -2, -2, 11, -13, 901, 837, 279,G
2025-03-17 11:19:36.177,695, 584, 439, -6, 0, -2, -1, 15, -11, 899, 838, 272,G
2025-03-17 11:19:36.238,679, 577, 454, -3, -5, -2, -2, 12, -12, 910, 841, 281,G
2025-03-17 11:19:36.294,687, 577, 450, -4, -4, -3, -3, 14, -13, 911, 845, 278,G
2025-03-17 11:19:36.347,697, 609, 432, -7, -2, -5, -1, 12, -11, 906, 848, 274,G
2025-03-17 11:19:36.400,691, 582, 457, -5, -6, 0, -1, 11, -10, 913, 860, 301,G
2025-03-17 11:19:36.460,686, 607, 435, -4, 1, 1, -2, 11, -10, 915, 867, 335,G
2025-03-17 11:19:36.510,607, 549, 519, 0, -19, 7, -2, 12, -11, 927, 884, 287,G
2025-03-17 11:19:36.578,642, 520, 435, -21, -6, -13, -4, 13, -12, 944, 917, 231,G
2025-03-17 11:19:36.634,985, 810, -132, 40, 32, 18, -1, 11, -10, 965, 896, 41,G
2025-03-17 11:19:36.692,745, 547, 434, -29, 35, 44, 0, 12, -10, 965, 918, 55,G
2025-03-17 11:19:36.747,594, 416, 653, 17, -23, -19, -2, 13, -11, 958, 927, 51,G
2025-03-17 11:19:36.798,751, 850, 142, -2, 12, 21, -1, 11, -11, 966, 925, 60,G
2025-03-17 11:19:36.859,666, 494, 552, -12, 12, 4, -1, 11, -11, 956, 896, 44,G
2025-03-17 11:19:36.918,810, 435, 392, -18, -13, -18, -3, 14, -12, 957, 918, 34,G
2025-03-17 11:19:36.975,777, 539, 290, 12, -4, 23, -1, 13, -10, 965, 939, 51,G
2025-03-17 11:19:37.036,561, 585, 427, -14, 58, -49, -2, 13, -11, 947, 904, 198,G
2025-03-17 11:19:37.307,660, 575, 511, -5, 1, 0, -3, 13, -12, 907, 817, 252,H
2025-03-17 11:19:37.359,651, 583, 517, -1, -2, 2, -4, 12, -10, 907, 823, 270,H
2025-03-17 11:19:37.418,716, 588, 430, -4, 1, 0, -2, 11, -11, 906, 828, 278,H
2025-03-17 11:19:37.474,662, 588, 463, -8, -2, -3, 0, 12, -9, 907, 845, 307,H
2025-03-17 11:19:37.528,677, 588, 465, -3, -13, -2, -1, 11, -11, 908, 876, 400,H
2025-03-17 11:19:37.588,867, 462, 455, -9, -6, -7, -1, 11, -11, 929, 903, 432,H
2025-03-17 11:19:37.642,567, 817, 359, 7, 33, 41, -1, 12, -11, 959, 904, 47,H
2025-03-17 11:19:37.702,813, 911, 148, -30, 32, 44, -1, 13, -14, 959, 876, 35,H
2025-03-17 11:19:37.761,660, 309, 579, 25, -15, -28, -2, 15, -14, 939, 887, 40,H
2025-03-17 11:19:37.818,681, 666, 379, 9, -28, 13, -3, 14, -12, 960, 938, 225,H
2025-03-17 11:19:37.876,772, 378, 334, -1, 15, -31, -1, 14, -12, 951, 925, 349,H
2025-03-17 11:19:37.928,438, 621, 968, 5, -41, 0, -3, 13, -13, 951, 921, 467,H
2025-03-17 11:19:37.985,627, 742, -172, 0, 0, 4, -1, 11, -10, 972, 937, 301,H
2025-03-17 11:19:38.042,776, 525, 322, 14, 38, 32, -2, 13, -9, 966, 920, 35,H
2025-03-17 11:19:38.100,774, 455, 477, -20, 29, -43, -2, 14, -12, 933, 881, 301,H
2025-03-17 11:19:38.390,678, 557, 470, -5, 2, -2, -2, 13, -13, 897, 822, 148,I
2025-03-17 11:19:38.447,677, 581, 475, -7, 2, -3, -1, 13, -13, 895, 826, 159,I
2025-03-17 11:19:38.507,611, 527, 571, 1, -15, 0, -1, 13, -11, 902, 819, 52,I
2025-03-17 11:19:38.561,801, 507, 400, 8, -3, -8, -1, 13, -11, 945, 887, 55,I
2025-03-17 11:19:38.617,670, 604, 289, 2, -11, 28, -2, 13, -10, 961, 933, 102,I
2025-03-17 11:19:38.668,646, 530, 458, 15, 2, -5, 0, 12, -9, 942, 916, 293,I
2025-03-17 11:19:38.728,744, 546, 678, 2, -14, -16, -2, 12, -10, 952, 921, 357,I
2025-03-17 11:19:38.784,681, 672, 241, 12, 42, 40, -1, 10, -10, 969, 914, 57,I
2025-03-17 11:19:38.842,630, 542, 486, 24, 26, 14, -2, 12, -10, 952, 851, 43,I
2025-03-17 11:19:38.892,789, 628, 657, 8, -18, -23, 0, 11, -10, 917, 818, 49,I
2025-03-17 11:19:38.956,927, 995, 419, -50, -41, 36, -2, 12, -13, 962, 935, 107,I
2025-03-17 11:19:39.008,781, 226, 300, 3, 17, 2, -4, 14, -11, 958, 922, 82,I
2025-03-17 11:19:39.068,531, 673, 761, -42, 47, -51, -2, 12, -14, 910, 853, 243,I
2025-03-17 11:19:39.368,695, 553, 490, -6, -3, 1, -1, 10, -11, 887, 845, 243,J
2025-03-17 11:19:39.424,687, 555, 479, -5, -3, 1, -1, 14, -12, 884, 845, 238,J
2025-03-17 11:19:39.477,692, 559, 479, -6, -2, -2, -3, 13, -11, 894, 847, 179,J
2025-03-17 11:19:39.535,590, 580, 583, 1, -17, 2, -1, 13, -11, 904, 852, 98,J
2025-03-17 11:19:39.592,766, 443, 410, 6, 3, -7, -1, 14, -11, 945, 898, 66,J
2025-03-17 11:19:39.648,705, 486, 456, 20, -7, 21, -1, 10, -11, 963, 935, 236,J
2025-03-17 11:19:39.706,631, 505, 484, 32, -5, -16, -2, 11, -10, 945, 906, 431,J
2025-03-17 11:19:39.759,845, 533, 611, 18, -10, -12, -1, 12, -9, 954, 905, 462,J
2025-03-17 11:19:39.818,791, 534, 338, -22, 43, 52, -1, 12, -9, 970, 924, 60,J
2025-03-17 11:19:39.875,391, 254, 263, -4, 30, -2, -2, 15, -13, 955, 876, 46,J
2025-03-17 11:19:39.934,975, 582, 207, -26, 33, -40, -1, 13, -12, 882, 838, 86,J
2025-03-17 11:19:40.250,675, 557, 476, 1, -1, 2, -4, 15, -14, 916, 856, 206,K
2025-03-17 11:19:40.308,680, 567, 463, 2, -1, 2, 0, 10, -8, 916, 856, 205,K
2025-03-17 11:19:40.364,687, 549, 491, -3, 0, 0, -3, 13, -13, 917, 865, 213,K
2025-03-17 11:19:40.424,693, 614, 424, -5, -4, -1, -3, 12, -10, 921, 871, 215,K
2025-03-17 11:19:40.478,728, 479, 493, -10, -14, -3, -2, 12, -11, 932, 884, 139,K
2025-03-17 11:19:40.534,745, 607, 401, 38, 0, -4, -2, 12, -9, 956, 877, 55,K
2025-03-17 11:19:40.593,776, 740, 24, -5, 27, 27, -2, 13, -10, 954, 810, 58,K
2025-03-17 11:19:40.648,622, 647, 624, 7, -22, 16, -1, 13, -11, 957, 930, 35,K
2025-03-17 11:19:40.699,539, 391, 415, 44, -22, -20, -1, 12, -10, 948, 935, 55,K
2025-03-17 11:19:40.760,598, 673, 338, -12, 54, -32, 0, 10, -10, 921, 837, 44,K
2025-03-17 11:19:40.818,947, 936, 293, -32, -25, 14, -1, 10, -10, 965, 924, 41,K
2025-03-17 11:19:40.878,717, 419, 508, 20, 11, 34, -3, 13, -11, 964, 912, 54,K
2025-03-17 11:19:40.932,547, 567, 422, 5, 52, -60, -3, 12, -11, 908, 773, 27,K
2025-03-17 11:19:41.218,685, 565, 477, -3, -1, 1, 0, 13, -10, 883, 741, 27,L
2025-03-17 11:19:41.277,687, 565, 469, -3, -2, 1, 0, 13, -10, 882, 742, 36,L
2025-03-17 11:19:41.333,687, 591, 453, -5, -3, 1, -2, 11, -11, 879, 741, 37,L
2025-03-17 11:19:41.378,681, 583, 462, 0, -4, 1, -3, 13, -11, 889, 759, 53,L
2025-03-17 11:19:41.441,705, 579, 437, -5, -3, -1, -1, 11, -10, 899, 785, 50,L
2025-03-17 11:19:41.498,698, 577, 421, -7, -2, -4, 1, 11, -11, 897, 805, 28,L
2025-03-17 11:19:41.558,656, 582, 483, -8, -12, -2, -3, 13, -10, 904, 845, 119,L
2025-03-17 11:19:41.609,726, 523, 455, -14, -4, -5, -2, 14, -10, 941, 893, 45,L
2025-03-17 11:19:41.667,438, 854, 210, -1, 41, 42, -2, 13, -11, 964, 871, 41,L
2025-03-17 11:19:41.726,762, 508, 339, -39, 7, 37, -3, 15, -12, 969, 925, 57,L
2025-03-17 11:19:41.783,754, 442, 398, 43, -11, -3, -1, 13, -11, 952, 917, 35,L
2025-03-17 11:19:41.841,537, 641, 587, -39, 60, -35, -1, 11, -11, 925, 842, 54,L
2025-03-17 11:19:42.132,692, 559, 492, -1, -8, 0, -2, 11, -11, 895, 838, 125,M
2025-03-17 11:19:42.189,690, 572, 483, -2, -9, 1, -3, 15, -8, 896, 841, 124,M
2025-03-17 11:19:42.243,724, 535, 425, 0, -3, -1, -4, 15, -12, 902, 850, 176,M
2025-03-17 11:19:42.298,675, 589, 490, 4, -8, 1, -1, 11, -11, 908, 857, 207,M
2025-03-17 11:19:42.358,708, 530, 444, 4, -8, -10, -1, 13, -8, 907, 860, 193,M
2025-03-17 11:19:42.410,691, 538, 508, -5, -17, -14, -2, 13, -12, 918, 884, 206,M
2025-03-17 11:19:42.468,763, 663, 331, 26, -9, -7, -1, 13, -9, 960, 902, 32,M
2025-03-17 11:19:42.525,666, 468, 252, -41, 36, 38, -2, 11, -11, 954, 880, 56,M
2025-03-17 11:19:42.584,575, 429, 654, 30, -33, -50, -1, 14, -11, 928, 901, 121,M
2025-03-17 11:19:42.643,770, 331, 691, -4, -16, -11, -1, 11, -11, 957, 941, 121,M
2025-03-17 11:19:42.698,519, 755, 326, -17, 28, 38, -1, 11, -9, 963, 937, 40,M
2025-03-17 11:19:42.758,677, 271, 431, -1, -20, -21, -2, 14, -11, 956, 939, 47,M
2025-03-17 11:19:42.810,745, 1035, -119, 19, 6, 21, -2, 12, -9, 966, 942, 49,M
2025-03-17 11:19:42.868,794, 299, 456, -10, 29, 6, 0, 12, -9, 960, 926, 32,M
2025-03-17 11:19:42.926,575, 519, 626, -10, 23, -43, -2, 13, -11, 938, 896, 43,M
2025-03-17 11:19:43.197,699, 585, 447, 1, -3, -1, -3, 13, -11, 909, 854, 114,N
2025-03-17 11:19:43.248,699, 591, 444, -1, -3, -1, 1, 14, -13, 909, 851, 98,N
2025-03-17 11:19:43.306,724, 575, 475, -3, -3, -5, -3, 13, -13, 911, 860, 121,N
2025-03-17 11:19:43.358,678, 576, 468, -3, -5, -6, -2, 13, -12, 909, 862, 144,N
2025-03-17 11:19:43.422,738, 529, 461, -6, -19, 1, -2, 13, -11, 925, 887, 137,N
2025-03-17 11:19:43.479,707, 511, 477, 3, -8, -6, -1, 12, -10, 954, 907, 46,N
2025-03-17 11:19:43.533,517, 584, 312, 5, 34, 34, -2, 13, -9, 966, 906, 45,N
2025-03-17 11:19:43.582,756, 618, 399, 2, 23, 28, -3, 13, -11, 963, 897, 43,N
2025-03-17 11:19:43.641,680, 409, 519, 13, 7, 4, -1, 13, -12, 959, 879, 23,N
2025-03-17 11:19:43.691,852, 377, 418, 4, 16, -17, -1, 13, -11, 908, 818, 42,N
2025-03-17 11:19:43.748,408, 705, 996, -8, -50, -11, 0, 11, -13, 899, 882, 211,N
2025-03-17 11:19:43.808,732, 758, 346, -31, -12, -7, -2, 11, -9, 948, 927, 125,N
2025-03-17 11:19:43.872,710, 677, 288, -27, 27, 73, -1, 12, -11, 965, 929, 39,N
2025-03-17 11:19:43.924,674, 633, 306, -29, 8, 21, -3, 14, -13, 964, 934, 42,N
2025-03-17 11:19:43.980,550, 567, 694, 45, -29, -37, -2, 13, -10, 948, 941, 56,N
2025-03-17 11:19:44.040,742, 581, 226, -36, 80, -29, -2, 13, -11, 935, 926, 47,N
2025-03-17 11:19:44.097,463, 564, 770, -1, -8, 10, -2, 12, -12, 931, 887, 45,N
2025-03-17 11:19:44.368,709, 543, 461, -1, -3, 1, -3, 13, -11, 931, 862, 40,O
2025-03-17 11:19:44.428,705, 536, 453, -1, -3, 0, 0, 11, -11, 933, 862, 40,O
2025-03-17 11:19:44.483,724, 569, 425, -1, -2, -4, -2, 12, -12, 931, 867, 42,O
2025-03-17 11:19:44.540,686, 561, 448, -1, -4, 2, -2, 12, -10, 935, 871, 41,O
2025-03-17 11:19:44.592,745, 560, 400, -4, -3, 5, -1, 13, -10, 940, 888, 51,O
2025-03-17 11:19:44.648,750, 473, 515, -16, -1, -10, -4, 14, -11, 941, 915, 43,O
2025-03-17 11:19:44.709,661, 227, 543, 69, -11, -32, -3, 13, -11, 951, 915, 43,O
2025-03-17 11:19:44.768,585, 550, 250, -86, 48, 64, -2, 13, -12, 965, 930, 53,O
2025-03-17 11:19:44.825,235, 18, 819, -9, -57, -51, -3, 15, -12, 960, 944, 50,O
2025-03-17 11:19:44.883,1102, 686, -123, 5, 49, -44, -4, 14, -12, 923, 908, 112,O
2025-03-17 11:19:44.941,377, 773, 1034, -2, 20, -9, -2, 12, -13, 920, 883, 58,O
2025-03-17 11:19:45.208,696, 563, 452, -3, -3, 2, -1, 11, -10, 896, 845, 36,P
2025-03-17 11:19:45.259,695, 571, 458, -3, -3, 3, -1, 13, -13, 897, 844, 47,P
2025-03-17 11:19:45.318,701, 596, 416, 1, -2, 2, -3, 12, -11, 905, 850, 39,P
2025-03-17 11:19:45.375,704, 561, 449, -2, 1, -2, -3, 13, -10, 904, 850, 40,P
2025-03-17 11:19:45.428,689, 546, 457, -1, -1, -3, -1, 13, -10, 900, 852, 72,P
2025-03-17 11:19:45.484,669, 568, 465, -5, -1, -1, -3, 12, -12, 899, 855, 99,P
2025-03-17 11:19:45.548,758, 536, 476, -10, -12, -2, -1, 13, -11, 911, 882, 112,P
2025-03-17 11:19:45.598,763, 562, 533, 7, 10, 13, -1, 10, -10, 950, 895, 38,P
2025-03-17 11:19:45.655,735, 309, 595, 8, 25, 35, -1, 14, -12, 958, 888, 43,P
2025-03-17 11:19:45.710,422, -125, 844, 35, -38, -54, 0, 15, -14, 936, 906, 42,P
2025-03-17 11:19:45.773,671, 445, 671, -43, -47, -17, -1, 12, -10, 958, 943, 37,P
2025-03-17 11:19:45.828,1114, 1016, -47, -7, 20, 35, -1, 11, -8, 970, 943, 46,P
2025-03-17 11:19:45.888,987, 413, 260, 20, 37, -13, -2, 14, -11, 953, 908, 44,P
2025-03-17 11:19:45.944,483, 525, 826, -17, 23, -25, -1, 12, -13, 938, 893, 49,P
2025-03-17 11:19:46.207,697, 546, 510, -3, -1, 3, -1, 11, -11, 929, 845, 28,Q
2025-03-17 11:19:46.258,711, 527, 509, 1, -2, 3, -3, 14, -11, 926, 847, 39,Q
2025-03-17 11:19:46.318,714, 562, 421, -5, 1, 1, -4, 13, -13, 930, 852, 44,Q
2025-03-17 11:19:46.371,676, 563, 477, -5, -7, 2, -2, 12, -11, 935, 864, 51,Q
2025-03-17 11:19:46.427,686, 551, 466, -5, -20, 2, -1, 13, -10, 940, 892, 40,Q
2025-03-17 11:19:46.485,592, 466, 551, -13, -7, -23, -3, 12, -11, 948, 925, 39,Q
2025-03-17 11:19:46.541,1742, 1066, 58, 49, 46, 29, -1, 11, -9, 967, 916, 27,Q
2025-03-17 11:19:46.598,705, 403, 515, -38, 27, 43, -3, 14, -12, 969, 937, 52,Q
2025-03-17 11:19:46.657,541, 394, 383, 50, -31, -50, -3, 13, -9, 960, 940, 53,Q
2025-03-17 11:19:46.708,721, 650, 737, -20, 24, 9, -2, 10, -11, 956, 919, 47,Q
2025-03-17 11:19:46.768,930, 785, 210, -61, -2, 36, -1, 13, -10, 975, 940, 37,Q
2025-03-17 11:19:46.823,849, 276, 333, 10, 16, 17, -2, 15, -12, 967, 915, 43,Q
2025-03-17 11:19:46.883,549, 464, 485, -7, 83, -77, -3, 13, -13, 910, 784, 49,Q
2025-03-17 11:19:47.178,695, 562, 504, -10, -4, -8, -1, 13, -11, 803, 795, 42,R
2025-03-17 11:19:47.239,691, 580, 488, -9, -6, -7, 0, 14, -13, 806, 797, 44,R
2025-03-17 11:19:47.290,741, 497, 517, 7, 0, -5, -1, 12, -10, 761, 797, 48,R
2025-03-17 11:19:47.341,646, 582, 492, 1, -8, 1, -2, 11, -10, 770, 802, 52,R
2025-03-17 11:19:47.398,735, 546, 522, 3, -13, -9, -1, 13, -11, 921, 869, 44,R
2025-03-17 11:19:47.462,472, 283, 526, -34, 55, 59, -1, 12, -12, 957, 864, 50,R
2025-03-17 11:19:47.511,647, 368, 556, -6, 17, 4, -2, 13, -14, 930, 865, 50,R
2025-03-17 11:19:47.576,1019, 838, 281, -30, -31, -26, -3, 13, -11, 940, 922, 91,R
2025-03-17 11:19:47.628,698, 976, 145, -10, 3, 26, 0, 11, -11, 970, 940, 43,R
2025-03-17 11:19:47.683,839, 364, 311, -18, 25, 34, -2, 13, -11, 970, 935, 41,R
2025-03-17 11:19:47.741,692, 260, 536, 6, 5, 34, -4, 15, -13, 969, 928, 45,R
2025-03-17 11:19:47.798,524, 556, 465, -13, 58, -66, -3, 15, -14, 951, 904, 47,R
2025-03-17 11:19:48.088,689, 555, 520, -3, -3, 7, -2, 12, -10, 934, 876, 39,S
2025-03-17 11:19:48.140,684, 561, 521, -3, -6, 8, -5, 13, -12, 936, 877, 48,S
2025-03-17 11:19:48.198,707, 556, 454, -6, -10, 4, -4, 15, -11, 939, 883, 47,S
2025-03-17 11:19:48.258,691, 515, 444, -17, -3, -12, -3, 14, -13, 944, 901, 26,S
2025-03-17 11:19:48.308,976, 173, 625, 43, 4, -26, -2, 12, -9, 954, 890, 38,S
2025-03-17 11:19:48.368,920, 947, 368, 1, 31, 52, -1, 13, -11, 968, 922, 45,S
2025-03-17 11:19:48.423,519, 568, 551, -6, 11, 29, 0, 12, -10, 972, 924, 40,S
2025-03-17 11:19:48.478,910, 372, 424, 51, 28, -12, -1, 14, -12, 928, 833, 46,S
2025-03-17 11:19:48.538,549, 502, 585, -33, 41, -41, 0, 14, -13, 890, 836, 56,S
2025-03-17 11:19:48.834,693, 562, 411, -12, 5, -4, -2, 13, -11, 877, 834, 22,T
2025-03-17 11:19:48.890,691, 566, 455, -11, 5, -4, -2, 13, -11, 877, 833, 34,T
2025-03-17 11:19:48.940,709, 557, 439, -4, 0, -4, -4, 13, -10, 878, 831, 49,T
2025-03-17 11:19:48.998,642, 571, 512, 5, 1, -3, -2, 12, -11, 875, 821, 43,T
2025-03-17 11:19:49.058,797, 467, 398, 6, -10, -15, -1, 12, -11, 928, 870, 44,T
2025-03-17 11:19:49.114,607, 542, 348, -16, -15, 29, -2, 12, -11, 960, 928, 43,T
2025-03-17 11:19:49.172,645, 503, 227, 20, 12, -22, -2, 11, -9, 941, 887, 259,T
2025-03-17 11:19:49.229,697, 595, 779, -7, -17, 15, -2, 12, -10, 948, 887, 162,T
2025-03-17 11:19:49.287,1153, 1021, 137, 10, 26, 38, -1, 11, -9, 976, 922, 53,T
2025-03-17 11:19:49.339,691, 550, 345, 29, 22, 18, -4, 15, -11, 963, 886, 51,T
2025-03-17 11:19:49.398,642, 635, 590, -8, 11, -44, -2, 12, -11, 912, 850, 224,T
2025-03-17 11:19:49.677,660, 560, 488, -5, -1, -3, -1, 11, -11, 875, 820, 108,U
2025-03-17 11:19:49.733,675, 559, 475, -4, -2, -4, -1, 11, -11, 877, 816, 105,U
2025-03-17 11:19:49.791,695, 586, 476, -14, -3, -2, -2, 12, -11, 882, 834, 159,U
2025-03-17 11:19:49.848,705, 520, 553, -7, -4, -9, -2, 12, -12, 928, 880, 157,U
2025-03-17 11:19:49.906,914, 823, 422, 8, 29, 45, -1, 12, -10, 960, 895, 43,U
2025-03-17 11:19:49.958,546, 649, 274, -34, 14, 29, -3, 16, -12, 965, 925, 44,U
2025-03-17 11:19:50.020,633, 494, 567, -2, -37, -42, -2, 13, -12, 946, 930, 251,U
2025-03-17 11:19:50.078,860, 923, 329, 17, -1, 9, -3, 13, -10, 967, 929, 99,U
2025-03-17 11:19:50.135,724, 704, 263, -14, 24, 41, -3, 12, -10, 968, 924, 46,U
2025-03-17 11:19:50.191,681, 547, 424, -15, 38, -48, -2, 13, -11, 939, 883, 48,U
2025-03-17 11:19:50.248,590, 558, 613, 5, -12, -5, -1, 12, -11, 896, 838, 102,U
2025-03-17 11:19:50.508,681, 562, 483, 9, -3, 2, -3, 13, -13, 864, 766, 42,V
2025-03-17 11:19:50.558,686, 557, 486, 9, -3, 2, 2, 14, -11, 862, 769, 48,V
2025-03-17 11:19:50.618,683, 566, 456, 10, -5, 4, -3, 14, -12, 854, 774, 110,V
2025-03-17 11:19:50.671,708, 548, 477, 2, 0, 2, -1, 13, -13, 861, 782, 87,V
2025-03-17 11:19:50.728,705, 566, 450, 2, 0, -4, -1, 12, -11, 865, 788, 134,V
2025-03-17 11:19:50.778,666, 568, 481, -2, -2, -4, -2, 13, -13, 856, 776, 148,V
2025-03-17 11:19:50.839,747, 557, 514, -12, -17, 2, -1, 12, -12, 890, 840, 35,V
2025-03-17 11:19:50.889,833, 398, 666, 18, -9, -4, -2, 13, -12, 953, 899, 44,V
2025-03-17 11:19:50.954,810, 720, 288, -32, 18, 43, -2, 14, -12, 970, 913, 39,V
2025-03-17 11:19:51.008,558, -220, 895, -5, -44, -47, -1, 15, -12, 966, 939, 40,V
2025-03-17 11:19:51.073,909, 653, 186, 29, 20, -18, -1, 12, -10, 929, 926, 304,V
2025-03-17 11:19:51.128,545, 584, 788, 5, 33, -12, -2, 13, -12, 921, 907, 291,V
2025-03-17 11:19:51.398,699, 573, 459, 5, 1, -2, 0, 11, -12, 858, 758, 139,W
2025-03-17 11:19:51.460,695, 571, 473, 5, 1, -2, -1, 12, -13, 854, 759, 142,W
2025-03-17 11:19:51.518,687, 585, 452, 12, -2, -5, -3, 14, -11, 834, 760, 149,W
2025-03-17 11:19:51.573,684, 604, 427, 3, -1, -6, -1, 12, -11, 790, 751, 171,W
2025-03-17 11:19:51.628,729, 599, 493, -8, -15, 5, -1, 11, -11, 847, 801, 181,W
2025-03-17 11:19:51.688,713, 542, 558, -13, -4, -5, -1, 11, -11, 936, 879, 44,W
2025-03-17 11:19:51.743,979, 596, 246, -23, 19, 55, -2, 12, -10, 965, 904, 43,W
2025-03-17 11:19:51.798,579, 637, 361, -39, 1, 16, -4, 14, -12, 967, 928, 35,W
2025-03-17 11:19:51.858,707, 337, 654, 14, -16, -18, -1, 14, -12, 962, 936, 34,W
2025-03-17 11:19:51.908,532, 710, 142, -13, 21, 37, -2, 13, -11, 971, 934, 52,W
2025-03-17 11:19:51.972,628, 77, 741, 5, -38, -20, -2, 14, -11, 968, 941, 45,W
2025-03-17 11:19:52.028,718, 491, 313, -26, 72, -37, -2, 14, -13, 946, 927, 44,W
2025-03-17 11:19:52.308,734, 567, 472, -4, -4, 0, -3, 14, -10, 915, 843, 30,X
2025-03-17 11:19:52.362,719, 556, 471, -4, -5, 0, -3, 14, -10, 913, 844, 25,X
2025-03-17 11:19:52.421,710, 561, 439, -5, -2, -3, -3, 13, -11, 911, 845, 41,X
2025-03-17 11:19:52.478,718, 544, 450, -5, -7, -1, -2, 13, -10, 912, 850, 42,X
2025-03-17 11:19:52.528,698, 566, 469, -7, -11, 1, -2, 13, -10, 918, 873, 37,X
2025-03-17 11:19:52.591,672, 555, 533, -12, -12, -11, -2, 13, -8, 947, 911, 36,X
2025-03-17 11:19:52.641,1287, 677, 260, 20, 43, 41, -3, 12, -9, 964, 883, 46,X
2025-03-17 11:19:52.703,759, 615, 187, -15, 45, 24, -1, 12, -11, 940, 865, 40,X
2025-03-17 11:19:52.758,645, 732, 456, -6, -38, -30, -1, 13, -11, 936, 899, 38,X
2025-03-17 11:19:52.822,925, 1138, -98, -42, -8, 52, -2, 11, -8, 972, 933, 36,X
2025-03-17 11:19:52.873,651, 240, 496, -2, 9, 6, -1, 13, -11, 965, 910, 42,X
2025-03-17 11:19:52.932,659, 530, 542, 17, 19, -52, -2, 13, -11, 915, 862, 54,X
2025-03-17 11:19:53.168,689, 561, 488, -7, -2, -4, -4, 13, -13, 890, 834, 41,Y
2025-03-17 11:19:53.221,680, 562, 469, -6, -1, -3, 1, 12, -12, 890, 838, 50,Y
2025-03-17 11:19:53.275,697, 568, 477, -7, -2, 1, -1, 10, -10, 891, 835, 29,Y
2025-03-17 11:19:53.333,698, 559, 431, 2, -9, 0, -4, 12, -10, 898, 847, 45,Y
2025-03-17 11:19:53.389,701, 614, 429, -5, -4, -12, -1, 11, -12, 929, 872, 39,Y
2025-03-17 11:19:53.442,715, 567, 474, 3, 1, -2, 1, 12, -11, 936, 890, 30,Y
2025-03-17 11:19:53.498,704, 579, 438, 3, -3, -3, -2, 12, -12, 939, 895, 35,Y
2025-03-17 11:19:53.552,696, 588, 464, -3, 1, 0, -2, 13, -13, 941, 896, 30,Y
2025-03-17 11:19:53.605,697, 551, 448, -6, 1, 1, -1, 11, -11, 942, 902, 42,Y
2025-03-17 11:19:53.658,1029, 752, 611, 6, -20, 7, 1, 10, -10, 965, 917, 29,Y
2025-03-17 11:19:53.708,516, 551, 246, -5, 13, 38, -2, 12, -10, 966, 919, 48,Y
2025-03-17 11:19:53.772,452, 662, 680, -24, 16, -40, -2, 13, -10, 951, 915, 198,Y
2025-03-17 11:19:53.833,815, 22, 125, 42, -35, -30, -2, 10, -8, 969, 930, 105,Y
2025-03-17 11:19:53.888,496, 419, 306, 21, 49, 41, -1, 10, -8, 977, 914, 37,Y
2025-03-17 11:19:53.943,736, 466, 349, 31, 35, 10, -1, 13, -12, 956, 842, 34,Y
2025-03-17 11:19:53.998,587, 658, 666, -45, 3, -49, -2, 14, -13, 919, 852, 42,Y
2025-03-17 11:19:54.298,734, 545, 418, 0, -1, 0, -2, 12, -11, 893, 830, 41,Z
2025-03-17 11:19:54.354,729, 553, 428, -1, 1, -1, -2, 14, -11, 891, 830, 32,Z
2025-03-17 11:19:54.407,686, 576, 490, -1, -2, 0, -1, 13, -11, 893, 831, 49,Z
2025-03-17 11:19:54.464,710, 551, 434, 3, -6, -2, -2, 13, -11, 893, 824, 32,Z
2025-03-17 11:19:54.508,678, 546, 464, -2, 0, -3, -3, 15, -11, 892, 814, 46,Z
2025-03-17 11:19:54.572,745, 639, 385, -2, -3, -20, -3, 12, -10, 904, 829, 52,Z
2025-03-17 11:19:54.636,1008, 803, 739, -5, -26, 20, -2, 13, -11, 950, 920, 51,Z
2025-03-17 11:19:54.688,558, 482, 435, 44, -6, 10, -3, 14, -12, 965, 916, 35,Z
2025-03-17 11:19:54.739,1060, 586, 221, -29, 46, 20, -1, 14, -9, 964, 866, 28,Z
2025-03-17 11:19:54.804,706, 697, 538, -41, -6, 37, -2, 14, -11, 970, 927, 44,Z
2025-03-17 11:19:54.855,709, 482, 391, 21, 0, 8, -1, 15, -12, 964, 920, 39,Z
2025-03-17 11:19:54.907,399, 637, 288, 27, 31, -68, -2, 13, -11, 911, 837, 68,Z
2025-03-17 11:19:54.975,750, 900, 410, -27, -28, -11, -4, 15, -11, 958, 923, 27,Z
2025-03-17 11:19:55.028,898, 555, 466, 8, -6, 30, -2, 16, -12, 969, 933, 39,Z
2025-03-17 11:19:55.087,675, 544, 166, -2, 64, -63, -2, 13, -10, 931, 862, 40,Z
2025-03-17 11:19:55.351,677, 566, 426, -20, 7, -10, -4, 12, -13, 842, 706, 22,a
2025-03-17 11:19:55.408,688, 548, 450, -15, 8, -8, -4, 14, -12, 841, 700, 23,a
2025-03-17 11:19:55.468,659, 579, 520, 3, -8, 2, -1, 12, -12, 846, 742, 46,a
2025-03-17 11:19:55.520,701, 564, 432, 2, -4, 0, -1, 12, -9, 850, 768, 39,a
2025-03-17 11:19:55.572,693, 593, 451, -3, -6, 2, -3, 15, -11, 857, 775, 85,a
2025-03-17 11:19:55.628,689, 581, 420, 0, -2, 0, -4, 12, -12, 866, 785, 92,a
2025-03-17 11:19:55.678,698, 585, 462, -7, -4, 1, -2, 12, -10, 868, 785, 93,a
2025-03-17 11:19:55.739,702, 556, 454, -4, -5, -1, -3, 12, -11, 884, 798, 36,a
2025-03-17 11:19:55.789,729, 547, 444, -6, -6, -5, -4, 15, -12, 891, 819, 38,a
2025-03-17 11:19:55.853,671, 588, 457, 4, 3, -1, -3, 11, -10, 890, 801, 36,a
2025-03-17 11:19:55.905,688, 573, 450, 4, 0, 5, -2, 11, -10, 897, 794, 50,a
2025-03-17 11:19:55.955,693, 580, 419, 2, 7, 7, -3, 12, -11, 905, 790, 32,a
2025-03-17 11:19:56.010,716, 583, 465, -4, 2, 14, -3, 13, -11, 924, 794, 39,a
2025-03-17 11:19:56.069,670, 548, 535, -4, -20, 10, -1, 13, -10, 942, 841, 32,a
2025-03-17 11:19:56.121,538, 428, 477, 4, -4, -21, -2, 14, -11, 956, 889, 47,a
2025-03-17 11:19:56.178,704, 798, 213, -48, 33, 49, -2, 12, -11, 969, 909, 39,a
2025-03-17 11:19:56.238,466, 284, 962, -11, -17, 3, -2, 13, -10, 967, 924, 35,a
2025-03-17 11:19:56.297,699, 573, 355, 27, -20, -28, -3, 16, -10, 965, 920, 33,a
2025-03-17 11:19:56.356,684, 571, 519, -25, 29, 36, -3, 14, -10, 966, 907, 33,a
2025-03-17 11:19:56.408,605, 488, 628, -11, 14, -24, -2, 13, -11, 953, 879, 34,a
2025-03-17 11:19:56.667,714, 562, 481, 0, -5, 0, -2, 12, -11, 891, 820, 49,b
2025-03-17 11:19:56.728,699, 549, 463, 1, -5, -1, -4, 15, -12, 888, 820, 37,b
2025-03-17 11:19:56.787,699, 564, 437, -5, -2, 0, -1, 13, -11, 891, 829, 37,b
2025-03-17 11:19:56.840,681, 526, 473, -8, -4, -7, 0, 12, -12, 889, 843, 99,b
2025-03-17 11:19:56.902,705, 454, 473, -13, -4, -13, -3, 14, -11, 906, 877, 139,b
2025-03-17 11:19:56.958,649, 1393, 172, 59, 30, 55, -2, 13, -11, 962, 899, 48,b
2025-03-17 11:19:57.007,798, 495, 264, -15, 20, 23, -4, 15, -11, 965, 887, 49,b
2025-03-17 11:19:57.073,702, 386, 639, 50, -41, -56, -2, 15, -12, 946, 908, 50,b
2025-03-17 11:19:57.128,559, 744, 518, -14, -15, 8, -2, 13, -12, 972, 934, 38,b
2025-03-17 11:19:57.188,635, 548, 203, -10, 28, 23, -1, 13, -11, 966, 904, 38,b
2025-03-17 11:19:57.238,853, 502, 384, -9, 38, -60, -1, 13, -12, 926, 839, 27,b
2025-03-17 11:19:57.302,458, 684, 757, 8, -20, -8, -2, 13, -14, 913, 849, 70,b
2025-03-17 11:19:57.548,713, 566, 476, 0, -4, 2, -3, 14, -12, 897, 806, 39,c
2025-03-17 11:19:57.610,716, 572, 462, -2, -4, 2, -3, 14, -12, 897, 807, 36,c
2025-03-17 11:19:57.667,717, 560, 455, -2, -4, 1, -2, 14, -13, 905, 811, 39,c
2025-03-17 11:19:57.721,728, 531, 440, -1, -4, -1, -2, 13, -11, 908, 817, 38,c
2025-03-17 11:19:57.778,702, 560, 455, -6, -8, 2, -3, 14, -11, 926, 837, 33,c
2025-03-17 11:19:57.835,750, 535, 451, -21, -6, -12, -3, 13, -11, 941, 881, 50,c
2025-03-17 11:19:57.888,860, 622, 346, 67, 2, -9, -4, 12, -11, 961, 864, 35,c
2025-03-17 11:19:57.938,897, 607, 268, -40, 25, 55, -2, 12, -9, 968, 914, 41,c
2025-03-17 11:19:58.008,723, 400, 148, -14, 47, -57, -1, 13, -10, 947, 894, 38,c
2025-03-17 11:19:58.058,531, 715, 810, 4, -15, -4, -3, 13, -12, 897, 842, 51,c
2025-03-17 11:19:58.331,716, 573, 438, 0, 1, 6, 0, 12, -11, 921, 830, 105,d
2025-03-17 11:19:58.387,711, 539, 463, -1, 0, 6, -3, 15, -12, 923, 832, 101,d
2025-03-17 11:19:58.442,722, 566, 422, -3, -3, 3, -2, 12, -11, 930, 836, 39,d
2025-03-17 11:19:58.503,692, 544, 466, -11, -9, 3, -2, 12, -10, 937, 860, 40,d
2025-03-17 11:19:58.558,632, 571, 516, -23, -7, -12, -1, 12, -10, 946, 897, 48,d
2025-03-17 11:19:58.618,659, 424, 503, 45, -14, -31, -1, 14, -10, 960, 887, 31,d
2025-03-17 11:19:58.674,770, 615, 338, -65, 30, 58, -1, 11, -9, 969, 916, 34,d
2025-03-17 11:19:58.728,370, 175, 864, -11, -45, -36, -4, 15, -12, 964, 927, 37,d
2025-03-17 11:19:58.789,783, 612, 421, 54, -28, -28, -1, 12, -10, 968, 922, 34,d
2025-03-17 11:19:58.848,708, 390, 393, 0, 36, 43, -1, 13, -10, 968, 907, 47,d
2025-03-17 11:19:58.905,693, 414, 354, -13, 21, -42, -1, 14, -11, 954, 867, 52,d
2025-03-17 11:19:59.178,731, 546, 456, -3, 0, 0, -2, 13, -11, 932, 812, 49,e
2025-03-17 11:19:59.228,725, 551, 451, -4, 1, 0, -1, 14, -11, 931, 812, 47,e
2025-03-17 11:19:59.285,714, 534, 471, -1, -2, 0, -3, 14, -12, 932, 816, 52,e
2025-03-17 11:19:59.338,704, 535, 474, -4, -1, -3, -1, 12, -9, 933, 812, 35,e
2025-03-17 11:19:59.389,731, 508, 482, 0, -14, 2, -2, 15, -12, 941, 833, 34,e
2025-03-17 11:19:59.453,767, 588, 431, -24, -9, 36, -2, 15, -12, 964, 909, 46,e
2025-03-17 11:19:59.508,543, 302, 734, -7, -15, -4, -2, 17, -13, 962, 921, 43,e
2025-03-17 11:19:59.568,681, 302, 563, 25, -11, -37, -2, 13, -11, 961, 910, 39,e
2025-03-17 11:19:59.620,828, 611, 137, -40, 25, 42, -3, 14, -12, 974, 921, 38,e
2025-03-17 11:19:59.681,756, 127, 539, 2, -1, -14, -2, 16, -12, 965, 904, 33,e
2025-03-17 11:19:59.981,727, 533, 475, 3, 4, 4, -3, 13, -10, 923, 802, 41,f
2025-03-17 11:20:00.043,724, 541, 470, 2, 4, 4, -1, 17, -15, 923, 796, 32,f
2025-03-17 11:20:00.091,729, 516, 468, -1, -1, 2, -2, 15, -13, 925, 798, 43,f
2025-03-17 11:20:00.147,716, 546, 472, -4, 0, 3, -2, 14, -13, 928, 803, 34,f
2025-03-17 11:20:00.203,716, 513, 492, -6, -7, 13, -2, 14, -12, 943, 827, 38,f
2025-03-17 11:20:00.258,736, 576, 336, -42, 5, 9, -2, 14, -10, 953, 874, 30,f
2025-03-17 11:20:00.318,608, 223, 606, -8, -38, -67, -3, 16, -13, 957, 935, 39,f
2025-03-17 11:20:00.375,844, 596, 365, 0, -51, -25, -3, 13, -10, 969, 952, 49,f
2025-03-17 11:20:00.428,774, 702, 184, 46, 5, 16, -4, 13, -7, 970, 949, 49,f
2025-03-17 11:20:00.485,518, 542, 588, 18, 48, -20, -3, 15, -10, 960, 925, 39,f
2025-03-17 11:20:00.538,829, 648, 93, -15, -14, 1, -2, 11, -9, 971, 939, 48,f
2025-03-17 11:20:00.596,743, 561, 391, 13, 8, 29, -3, 13, -9, 971, 942, 42,f
2025-03-17 11:20:00.648,670, 551, 208, -5, 64, -51, -2, 13, -9, 945, 887, 30,f
2025-03-17 11:20:00.917,742, 567, 412, -11, -1, 13, -3, 13, -12, 920, 789, 39,g
2025-03-17 11:20:00.978,739, 567, 426, -14, 0, 15, -2, 15, -10, 918, 788, 45,g
2025-03-17 11:20:01.037,703, 458, 505, -7, -11, 6, -3, 15, -11, 923, 782, 35,g
2025-03-17 11:20:01.094,702, 468, 510, -15, -13, 5, -3, 16, -10, 934, 832, 49,g
2025-03-17 11:20:01.152,695, 453, 592, -8, -10, -14, -3, 15, -10, 949, 886, 34,g
2025-03-17 11:20:01.210,856, 783, 123, -7, 20, 11, -1, 14, -10, 968, 892, 18,g
2025-03-17 11:20:01.268,728, 393, 573, -17, 26, 33, -2, 14, -10, 965, 911, 38,g
2025-03-17 11:20:01.320,670, 472, 644, 22, -18, -21, -1, 16, -12, 957, 907, 41,g
2025-03-17 11:20:01.378,847, 337, 393, -20, 26, 39, -1, 15, -11, 970, 903, 46,g
2025-03-17 11:20:01.438,680, 291, 345, -27, 23, 1, -2, 16, -11, 951, 805, 50,g
2025-03-17 11:20:01.495,775, 524, 526, -27, 29, -71, -1, 17, -13, 887, 794, 24,g
2025-03-17 11:20:01.778,671, 557, 522, 5, -9, 6, -3, 14, -12, 871, 789, 47,h
2025-03-17 11:20:01.837,683, 548, 489, 9, -11, 8, -3, 13, -10, 870, 792, 45,h
2025-03-17 11:20:01.890,739, 558, 391, -7, 3, 5, -4, 13, -11, 876, 798, 41,h
2025-03-17 11:20:01.943,717, 540, 453, -3, -6, -4, -2, 14, -12, 878, 810, 44,h
2025-03-17 11:20:02.004,666, 566, 540, -10, -19, -5, -3, 13, -10, 890, 842, 38,h
2025-03-17 11:20:02.058,787, 605, 458, 28, 17, 21, -2, 12, -10, 952, 866, 29,h
2025-03-17 11:20:02.109,824, 932, 205, -6, 29, 40, -2, 15, -11, 966, 866, 47,h
2025-03-17 11:20:02.169,932, 58, 657, 1, -19, -18, -4, 16, -12, 955, 905, 40,h
2025-03-17 11:20:02.228,591, 557, 439, 22, -18, 0, -4, 17, -12, 968, 924, 37,h
2025-03-17 11:20:02.282,799, 352, 459, 4, 18, 15, -1, 15, -10, 960, 885, 39,h
2025-03-17 11:20:02.338,699, 475, 529, -7, 28, -44, -2, 14, -12, 931, 815, 38,h
2025-03-17 11:20:02.612,745, 531, 440, -4, -2, 2, -2, 13, -11, 896, 734, 35,i
2025-03-17 11:20:02.668,739, 510, 432, -3, -1, 2, 2, 19, -9, 899, 734, 41,i
2025-03-17 11:20:02.719,721, 529, 481, 0, -1, 0, -1, 12, -10, 902, 748, 36,i
2025-03-17 11:20:02.778,727, 498, 467, 0, -3, -3, -1, 12, -10, 903, 764, 34,i
2025-03-17 11:20:02.836,710, 560, 433, -10, -10, 2, -4, 14, -11, 910, 810, 33,i
2025-03-17 11:20:02.887,765, 384, 638, 1, -6, -6, -3, 14, -12, 957, 872, 48,i
2025-03-17 11:20:02.944,613, 317, 573, -40, 23, 39, -2, 15, -12, 967, 870, 49,i
2025-03-17 11:20:03.003,657, 216, 497, 2, -36, -99, -3, 15, -11, 949, 889, 40,i
2025-03-17 11:20:03.058,906, 522, 534, -23, -41, -26, -4, 13, -10, 966, 941, 29,i
2025-03-17 11:20:03.119,857, 844, 528, 21, 16, 32, -2, 14, -10, 956, 908, 36,i
2025-03-17 11:20:03.169,616, 621, 534, -14, 44, -11, -3, 14, -11, 944, 838, 31,i
2025-03-17 11:20:03.227,625, 514, 583, 10, -13, 9, -4, 15, -11, 937, 822, 50,i
2025-03-17 11:20:03.288,782, 557, 372, 13, -18, 10, -2, 14, -12, 928, 815, 50,i
2025-03-17 11:20:03.348,739, 532, 458, -3, 11, -4, -2, 13, -11, 920, 807, 51,i
2025-03-17 11:20:04.298,718, 547, 445, -2, -1, 2, -1, 11, -11, 882, 719, 33,j
2025-03-17 11:20:04.358,717, 538, 443, -1, -1, 2, -1, 11, -11, 884, 722, 28,j
2025-03-17 11:20:04.413,721, 555, 457, -2, -1, 3, -1, 14, -10, 894, 736, 38,j
2025-03-17 11:20:04.467,716, 526, 461, -4, 0, 1, -3, 13, -12, 899, 752, 37,j
2025-03-17 11:20:04.520,722, 541, 455, 0, -3, 1, -3, 14, -11, 897, 773, 47,j
2025-03-17 11:20:04.570,714, 533, 463, -3, -5, 2, -2, 13, -9, 905, 799, 34,j
2025-03-17 11:20:04.628,791, 732, 446, -3, -3, 9, -4, 15, -11, 953, 848, 47,j
2025-03-17 11:20:04.686,507, 524, 377, -26, 26, 40, -2, 15, -11, 967, 852, 44,j
2025-03-17 11:20:04.748,757, -216, 606, -48, -13, -63, -1, 17, -12, 950, 856, 28,j
2025-03-17 11:20:04.802,438, 561, 1208, -22, -86, -2, -4, 15, -11, 956, 935, 37,j
2025-03-17 11:20:04.858,778, 771, -109, 28, 0, -4, -3, 10, -6, 970, 941, 50,j
2025-03-17 11:20:04.919,814, 296, 293, -10, 41, -10, -3, 12, -7, 949, 902, 27,j
2025-03-17 11:20:04.970,534, 578, 648, -9, 28, -13, -3, 12, -11, 933, 853, 35,j
2025-03-17 11:20:05.236,688, 574, 500, 4, 5, 2, -2, 12, -11, 872, 694, 37,k
2025-03-17 11:20:05.288,687, 596, 498, 3, 3, 4, -2, 11, -9, 871, 697, 39,k
2025-03-17 11:20:05.342,714, 564, 447, 3, -3, 1, -4, 14, -12, 870, 701, 36,k
2025-03-17 11:20:05.396,707, 567, 435, 5, -2, 0, -2, 12, -10, 858, 713, 26,k
2025-03-17 11:20:05.448,709, 569, 441, 4, -3, 1, -2, 14, -10, 854, 731, 36,k
2025-03-17 11:20:05.503,706, 552, 456, -1, -2, -2, -2, 11, -10, 846, 740, 28,k
2025-03-17 11:20:05.558,678, 600, 437, -13, -7, -3, -2, 11, -8, 851, 774, 47,k
2025-03-17 11:20:05.620,1041, 366, 389, -26, -11, -10, 0, 12, -9, 917, 853, 48,k
2025-03-17 11:20:05.678,599, 1077, 248, -16, 52, 42, -3, 10, -7, 956, 831, 41,k
2025-03-17 11:20:05.736,690, 881, 187, -50, 10, 37, -1, 13, -10, 965, 912, 39,k
2025-03-17 11:20:05.793,561, 333, 588, 15, -28, -9, -2, 15, -10, 965, 931, 31,k
2025-03-17 11:20:05.846,674, 664, 150, -22, 52, -4, -2, 13, -9, 934, 787, 30,k
2025-03-17 11:20:05.908,2592, 311, 221, -28, -19, -17, -2, 13, -11, 960, 896, 52,k
2025-03-17 11:20:05.958,815, 606, 357, 23, 0, 18, -2, 13, -10, 970, 922, 55,k
2025-03-17 11:20:06.019,668, 428, 203, -8, 67, -67, -2, 14, -10, 943, 807, 41,k
2025-03-17 11:20:06.484,695, 576, 446, 1, 0, -1, -3, 10, -8, 788, 289, 25,l
2025-03-17 11:20:06.539,710, 583, 452, 0, 0, -2, -1, 14, -11, 789, 305, 19,l
2025-03-17 11:20:06.594,674, 586, 448, -2, -1, -2, -1, 11, -10, 790, 408, 34,l
2025-03-17 11:20:06.648,680, 584, 436, -1, -5, 2, -3, 12, -12, 799, 479, 35,l
2025-03-17 11:20:06.706,701, 597, 413, -1, -4, 4, -2, 11, -10, 803, 552, 37,l
2025-03-17 11:20:06.758,712, 577, 450, 0, -2, 4, -3, 12, -12, 819, 592, 23,l
2025-03-17 11:20:06.808,717, 612, 383, -5, 0, -1, -3, 10, -9, 827, 609, 42,l
2025-03-17 11:20:06.869,632, 613, 514, -6, -17, 0, -1, 10, -11, 850, 702, 36,l
2025-03-17 11:20:06.919,808, 562, 484, -8, -31, 10, -1, 11, -9, 929, 853, 30,l
2025-03-17 11:20:06.977,958, 652, 376, 22, 15, 22, -3, 10, -8, 968, 893, 52,l
2025-03-17 11:20:07.034,624, 710, 172, -6, 25, 29, 0, 12, -9, 974, 880, 38,l
2025-03-17 11:20:07.088,919, 222, 580, -4, 15, -7, -3, 13, -10, 951, 801, 36,l
2025-03-17 11:20:07.150,594, 606, 668, -6, 39, -33, -2, 13, -13, 888, 762, 52,l
2025-03-17 11:20:07.428,692, 576, 442, 2, -4, 3, -2, 11, -11, 851, 745, 50,m
2025-03-17 11:20:07.478,692, 576, 443, 2, -4, 4, -3, 15, -7, 852, 745, 48,m
2025-03-17 11:20:07.538,712, 560, 433, 3, -5, 3, -1, 10, -11, 862, 738, 51,m
2025-03-17 11:20:07.588,686, 573, 440, -2, -4, -3, 1, 11, -10, 876, 759, 26,m
2025-03-17 11:20:07.648,929, 551, 393, -5, -17, -9, -2, 12, -11, 919, 850, 52,m
2025-03-17 11:20:07.702,725, 684, 472, 7, 13, 14, -2, 13, -10, 966, 880, 44,m
2025-03-17 11:20:07.758,729, 620, 185, -17, 17, 21, -1, 13, -10, 970, 890, 31,m
2025-03-17 11:20:07.817,810, 381, 455, -6, -41, -35, 1, 15, -13, 958, 919, 27,m
2025-03-17 11:20:07.868,684, 581, 459, 12, -22, -9, -3, 12, -8, 973, 929, 34,m
2025-03-17 11:20:07.928,716, 441, 246, -16, 17, 19, -1, 13, -9, 975, 929, 37,m
2025-03-17 11:20:07.989,651, 264, 637, 0, -48, -38, -3, 15, -11, 967, 932, 48,m
2025-03-17 11:20:08.038,769, 787, 121, 5, 2, 19, -2, 14, -9, 976, 935, 43,m
2025-03-17 11:20:08.095,799, 347, 482, -6, 23, 7, -1, 12, -9, 969, 913, 47,m
2025-03-17 11:20:08.148,720, 465, 499, 3, 20, -40, -1, 12, -9, 940, 871, 31,m
2025-03-17 11:20:08.418,727, 570, 436, 3, 7, 0, -2, 13, -11, 876, 713, 31,n
2025-03-17 11:20:08.468,722, 573, 438, 1, 6, 0, -2, 12, -14, 875, 715, 35,n
2025-03-17 11:20:08.528,713, 562, 458, -2, 0, -1, -2, 14, -11, 876, 719, 46,n
2025-03-17 11:20:08.586,708, 540, 427, -1, -2, -1, -1, 14, -12, 882, 737, 35,n
2025-03-17 11:20:08.640,706, 555, 440, 1, -1, -2, -2, 13, -10, 884, 761, 48,n
2025-03-17 11:20:08.693,662, 552, 483, 2, -11, 1, -1, 12, -9, 891, 791, 38,n
2025-03-17 11:20:08.750,743, 507, 439, -14, -8, -9, 0, 11, -8, 947, 854, 44,n
2025-03-17 11:20:08.808,453, 910, 280, -49, 30, 45, -2, 13, -10, 968, 875, 33,n
2025-03-17 11:20:08.858,793, 311, 907, -13, -21, -6, -2, 13, -12, 960, 904, 45,n
2025-03-17 11:20:08.918,728, 510, 663, 28, -31, -11, -2, 13, -10, 971, 929, 47,n
2025-03-17 11:20:08.975,746, 691, 254, -8, 35, 38, -2, 12, -9, 968, 894, 42,n
2025-03-17 11:20:09.032,669, 527, 484, -13, 31, -41, -2, 12, -8, 942, 855, 49,n
2025-03-17 11:20:09.310,715, 551, 468, -1, -1, 1, -2, 13, -11, 895, 772, 40,o
2025-03-17 11:20:09.368,717, 544, 453, -2, -2, 1, -4, 12, -12, 894, 773, 54,o
2025-03-17 11:20:09.418,716, 570, 442, 1, -5, 0, 0, 12, -9, 896, 774, 39,o
2025-03-17 11:20:09.469,724, 549, 443, -1, 0, -1, -2, 13, -8, 896, 786, 43,o
2025-03-17 11:20:09.528,721, 551, 446, -3, -1, -1, -3, 12, -10, 896, 783, 30,o
2025-03-17 11:20:09.586,715, 548, 455, -2, -1, -1, -2, 12, -11, 897, 789, 51,o
2025-03-17 11:20:09.638,717, 552, 441, -4, 0, 0, -4, 13, -11, 894, 790, 42,o
2025-03-17 11:20:09.688,729, 560, 430, 2, -2, 1, -2, 13, -9, 898, 793, 27,o
2025-03-17 11:20:09.746,717, 544, 448, -1, 1, 1, -3, 15, -10, 899, 799, 40,o
2025-03-17 11:20:09.799,716, 558, 468, 3, -6, 8, -2, 13, -9, 918, 822, 32,o
2025-03-17 11:20:09.858,687, 666, 398, -24, -10, -10, -2, 13, -10, 941, 887, 53,o
2025-03-17 11:20:09.917,1007, 324, 425, 60, -6, -29, -3, 10, -9, 959, 896, 48,o
2025-03-17 11:20:09.969,8, 661, 252, -49, 34, 65, -3, 11, -10, 972, 924, 41,o
2025-03-17 11:20:10.028,548, 150, 839, 5, -38, -26, -2, 15, -11, 964, 931, 53,o
2025-03-17 11:20:10.086,907, 625, 9, -5, 57, -37, -4, 14, -10, 899, 864, 50,o
2025-03-17 11:20:10.378,701, 538, 458, 0, 0, 4, 0, 12, -9, 871, 757, 37,p
2025-03-17 11:20:10.438,694, 545, 464, 1, 0, 4, -1, 14, -10, 874, 758, 39,p
2025-03-17 11:20:10.488,709, 551, 431, -2, -6, 4, -3, 10, -9, 887, 762, 39,p
2025-03-17 11:20:10.538,722, 542, 423, -4, 0, 0, -2, 13, -10, 888, 766, 29,p
2025-03-17 11:20:10.602,700, 574, 448, -8, -4, -1, -1, 13, -13, 889, 792, 41,p
2025-03-17 11:20:10.658,717, 484, 448, -12, -7, -4, -2, 14, -11, 899, 828, 35,p
2025-03-17 11:20:10.708,745, 382, 575, 8, -8, -13, -2, 13, -9, 947, 880, 36,p
2025-03-17 11:20:10.770,662, 588, 385, 6, 33, 40, -2, 14, -10, 968, 888, 38,p
2025-03-17 11:20:10.820,668, 355, 639, -23, 8, 3, -1, 17, -12, 961, 905, 41,p
2025-03-17 11:20:10.878,701, 729, 457, -38, -49, -32, -1, 12, -9, 960, 938, 50,p
2025-03-17 11:20:10.938,766, 720, 316, 18, 1, 20, -2, 12, -7, 973, 939, 39,p
2025-03-17 11:20:10.991,781, 558, 364, -6, 25, 22, -3, 12, -9, 962, 900, 44,p
2025-03-17 11:20:11.049,637, 544, 582, -21, 28, -39, -3, 13, -12, 937, 871, 38,p
2025-03-17 11:20:11.333,735, 540, 436, 2, -3, 3, -4, 13, -10, 922, 844, 36,q
2025-03-17 11:20:11.389,727, 541, 431, 1, -3, 3, -1, 11, -12, 920, 848, 36,q
2025-03-17 11:20:11.439,701, 546, 475, -1, -6, 2, -3, 14, -9, 926, 866, 38,q
2025-03-17 11:20:11.500,728, 578, 384, -11, -3, -6, -5, 14, -9, 936, 891, 21,q
2025-03-17 11:20:11.556,681, 373, 512, -11, -10, -11, -2, 13, -8, 947, 915, 37,q
2025-03-17 11:20:11.608,726, 842, 399, 37, 15, -2, -2, 11, -9, 959, 890, 42,q
2025-03-17 11:20:11.669,771, 806, 63, -22, 20, 24, -1, 12, -10, 965, 907, 49,q
2025-03-17 11:20:11.728,658, 406, 665, -17, -10, -3, -3, 15, -10, 958, 929, 35,q
2025-03-17 11:20:11.786,722, 350, 586, 35, -13, -21, -4, 15, -10, 956, 920, 35,q
2025-03-17 11:20:11.839,691, 384, 448, -9, 14, 32, -3, 13, -10, 968, 901, 22,q
2025-03-17 11:20:11.900,721, 282, 743, -11, -17, 2, -1, 14, -12, 966, 932, 55,q
2025-03-17 11:20:11.958,710, 489, 145, -38, 69, -38, -2, 13, -10, 929, 913, 50,q
2025-03-17 11:20:12.238,664, 540, 511, -3, 2, -2, -4, 13, -11, 827, 728, 45,r
2025-03-17 11:20:12.290,664, 545, 525, 0, 0, -2, -3, 11, -13, 828, 729, 41,r
2025-03-17 11:20:12.347,714, 568, 461, 6, -12, 6, -2, 14, -11, 847, 757, 41,r
2025-03-17 11:20:12.403,736, 505, 442, -2, -2, 2, -4, 14, -12, 860, 774, 39,r
2025-03-17 11:20:12.457,723, 563, 444, 2, -2, 1, -2, 15, -10, 863, 785, 32,r
2025-03-17 11:20:12.509,691, 563, 429, 0, -1, -4, -1, 12, -11, 869, 798, 52,r
2025-03-17 11:20:12.568,669, 542, 463, -11, -4, -7, -2, 12, -8, 870, 827, 37,r
2025-03-17 11:20:12.618,706, 587, 386, -6, -8, 0, -3, 12, -11, 887, 849, 38,r
2025-03-17 11:20:12.678,785, 461, 519, 2, -4, -3, -2, 13, -11, 944, 885, 39,r
2025-03-17 11:20:12.734,675, 651, 303, -32, 21, 39, -2, 13, -12, 962, 898, 39,r
2025-03-17 11:20:12.793,651, -107, 873, -18, -38, -28, 0, 13, -12, 960, 935, 34,r
2025-03-17 11:20:12.842,884, 776, 176, 28, 2, 8, -4, 15, -11, 951, 918, 26,r
2025-03-17 11:20:12.908,544, 665, 757, -20, 58, -15, -4, 17, -12, 947, 885, 39,r
2025-03-17 11:20:12.958,584, 456, 577, 14, -34, 1, -3, 14, -13, 936, 872, 54,r
2025-03-17 11:20:13.218,580, 601, 558, 20, -8, -10, -2, 10, -11, 886, 614, 49,s
2025-03-17 11:20:13.275,540, 538, 608, 12, -24, -8, -4, 9, -12, 892, 597, 44,s
2025-03-17 11:20:13.328,576, 677, 462, -3, -7, 51, -1, 8, -9, 925, 678, 49,s
2025-03-17 11:20:13.388,728, 558, 322, -15, -22, 38, -4, 12, -10, 937, 781, 42,s
2025-03-17 11:20:13.444,776, 512, 341, -21, 8, -1, -3, 13, -10, 952, 870, 41,s
2025-03-17 11:20:13.498,537, 445, 581, 13, 1, -7, -3, 13, -11, 956, 896, 48,s
2025-03-17 11:20:13.551,885, 978, 21, -9, 25, 20, -3, 16, -13, 966, 907, 31,s
2025-03-17 11:20:13.608,611, 624, 508, -12, 10, 25, -1, 14, -10, 969, 914, 42,s
2025-03-17 11:20:13.666,802, 375, 285, 36, 23, 4, -3, 15, -10, 936, 826, 46,s
2025-03-17 11:20:13.718,728, 477, 419, -79, 98, -79, -1, 13, -13, 901, 805, 43,s
2025-03-17 11:20:13.778,319, 623, 854, -12, 2, -64, -3, 13, -14, 858, 787, 26,s
2025-03-17 11:20:14.018,651, 506, 368, 30, -8, 25, -2, 8, -10, 567, 427, 36,t
2025-03-17 11:20:14.068,682, 511, 344, 25, -4, 14, -4, 7, -9, 564, 433, 29,t
2025-03-17 11:20:14.118,642, 652, 513, 9, -2, -6, -2, 10, -11, 630, 554, 45,t
2025-03-17 11:20:14.181,762, 800, 170, -10, -9, -13, -3, 9, -9, 700, 622, 140,t
2025-03-17 11:20:14.238,625, 679, 569, 16, -22, 10, -5, 9, -10, 745, 667, 190,t
2025-03-17 11:20:14.295,682, 653, 306, -8, -13, -3, -2, 8, -9, 817, 748, 308,t
2025-03-17 11:20:14.350,708, 629, 388, -28, -13, -14, -3, 8, -7, 881, 830, 261,t
2025-03-17 11:20:14.408,855, 1109, 209, -19, 36, 33, -3, 7, -5, 954, 861, 38,t
2025-03-17 11:20:14.468,599, 1008, 68, -36, 49, 45, -2, 10, -9, 950, 852, 46,t
2025-03-17 11:20:14.518,350, 434, 650, 62, -20, -75, -2, 12, -11, 859, 747, 33,t
2025-03-17 11:20:14.582,834, 1220, 95, -10, -28, -20, -1, 9, -11, 953, 894, 31,t
2025-03-17 11:20:14.638,712, 539, 586, -8, 4, 38, -3, 11, -10, 949, 899, 79,t
2025-03-17 11:20:14.698,486, 673, 403, -3, 70, -52, -2, 8, -10, 891, 803, 279,t
2025-03-17 11:20:14.958,650, 612, 441, -11, 6, 4, -3, 10, -11, 831, 561, 38,u
2025-03-17 11:20:15.008,656, 600, 459, -9, 5, 3, -3, 11, -10, 834, 553, 40,u
2025-03-17 11:20:15.067,685, 578, 479, 2, -3, 4, -1, 10, -12, 834, 564, 43,u
2025-03-17 11:20:15.119,679, 609, 433, 0, -2, 2, -3, 11, -11, 836, 570, 40,u
2025-03-17 11:20:15.168,640, 592, 476, 4, -4, 6, -2, 11, -10, 852, 617, 42,u
2025-03-17 11:20:15.228,755, 578, 350, 5, -4, -2, -1, 10, -10, 845, 628, 40,u
2025-03-17 11:20:15.284,640, 613, 484, -2, 5, -6, -2, 11, -10, 830, 578, 44,u
2025-03-17 11:20:15.338,656, 603, 457, 1, -9, 0, -3, 12, -11, 835, 627, 36,u
2025-03-17 11:20:15.393,613, 528, 597, 1, -26, 16, -2, 12, -11, 900, 743, 23,u
2025-03-17 11:20:15.450,865, 685, 167, -48, 20, 26, -1, 9, -8, 959, 848, 51,u
2025-03-17 11:20:15.503,687, 563, 403, -19, 6, 27, -2, 13, -10, 954, 890, 36,u
2025-03-17 11:20:15.562,776, 503, 511, 7, -17, -21, -2, 13, -8, 944, 899, 37,u
2025-03-17 11:20:15.618,749, 938, 41, -22, 24, 38, -2, 10, -10, 964, 906, 44,u
2025-03-17 11:20:15.668,777, 371, 513, -14, 15, -11, -3, 13, -8, 952, 855, 44,u
2025-03-17 11:20:15.728,597, 513, 669, 5, 25, -39, -1, 11, -11, 895, 818, 42,u
2025-03-17 11:20:15.988,690, 593, 465, -3, 3, 4, -2, 11, -11, 870, 761, 45,v
2025-03-17 11:20:16.038,678, 554, 466, -2, 3, 3, -2, 13, -9, 870, 757, 50,v
2025-03-17 11:20:16.092,717, 551, 453, 5, -1, 0, -4, 12, -12, 864, 728, 43,v
2025-03-17 11:20:16.148,689, 580, 447, 4, 0, -2, -2, 12, -11, 861, 721, 29,v
2025-03-17 11:20:16.200,666, 590, 439, 8, 0, -2, -2, 13, -11, 858, 735, 45,v
2025-03-17 11:20:16.258,724, 566, 438, -4, -3, -2, -4, 11, -10, 867, 757, 29,v
2025-03-17 11:20:16.307,693, 633, 465, -11, 1, 1, -2, 11, -10, 881, 802, 31,v
2025-03-17 11:20:16.368,706, 578, 430, 0, -4, -7, -1, 11, -9, 907, 852, 45,v
2025-03-17 11:20:16.418,693, 561, 470, -6, -3, -7, -1, 11, -12, 919, 880, 34,v
2025-03-17 11:20:16.478,687, 542, 489, 4, -9, -7, -3, 12, -11, 945, 897, 36,v
2025-03-17 11:20:16.533,679, 586, 298, -29, 27, 36, -2, 12, -10, 962, 895, 51,v
2025-03-17 11:20:16.593,729, 657, 504, -36, 13, 20, -2, 12, -11, 956, 925, 49,v
2025-03-17 11:20:16.650,726, 602, 476, 34, -28, -15, -4, 14, -12, 916, 918, 34,v
2025-03-17 11:20:16.708,658, 478, 266, -43, 76, -29, -3, 12, -10, 901, 878, 30,v
2025-03-17 11:20:16.758,508, 577, 678, 6, -8, 11, -3, 12, -11, 871, 794, 40,v
2025-03-17 11:20:17.064,684, 575, 467, -4, 0, 1, -1, 10, -12, 667, 246, 43,w
2025-03-17 11:20:17.118,686, 567, 472, -4, 0, 1, -2, 13, -11, 675, 268, 38,w
2025-03-17 11:20:17.168,689, 549, 491, 0, 0, -1, -2, 11, -10, 697, 337, 48,w
2025-03-17 11:20:17.218,666, 583, 486, -2, -1, 1, -2, 12, -11, 699, 368, 37,w
2025-03-17 11:20:17.282,665, 579, 474, 4, -6, 1, -4, 13, -12, 719, 415, 35,w
2025-03-17 11:20:17.336,655, 574, 495, 10, -7, 1, -4, 13, -12, 752, 469, 34,w
2025-03-17 11:20:17.388,678, 577, 439, 13, -14, -3, -2, 11, -11, 803, 632, 28,w
2025-03-17 11:20:17.451,768, 577, 364, -15, -8, -7, 0, 13, -10, 947, 873, 44,w
2025-03-17 11:20:17.508,643, 732, 144, -15, 32, 43, -3, 13, -11, 967, 902, 40,w
2025-03-17 11:20:17.565,768, 501, 612, -21, -4, 16, -3, 15, -12, 959, 918, 37,w
2025-03-17 11:20:17.618,681, 437, 520, 25, -15, -17, -1, 13, -9, 957, 923, 28,w
2025-03-17 11:20:17.668,711, 526, 418, -29, 17, 27, -2, 15, -13, 965, 912, 27,w
2025-03-17 11:20:17.737,849, 368, 628, 12, -36, -19, -1, 13, -11, 960, 922, 32,w
2025-03-17 11:20:17.789,729, 535, 219, -29, 84, -33, -2, 13, -9, 928, 856, 49,w
2025-03-17 11:20:17.848,410, 548, 755, 12, -10, 9, -3, 12, -13, 910, 819, 43,w
2025-03-17 11:20:18.088,707, 566, 445, -6, -12, 2, -4, 14, -13, 868, 664, 35,x
2025-03-17 11:20:18.147,724, 546, 443, -4, -9, 2, -2, 12, -10, 870, 658, 28,x
2025-03-17 11:20:18.201,697, 541, 459, -5, -3, 0, -3, 14, -11, 881, 663, 38,x
2025-03-17 11:20:18.258,708, 556, 440, 8, -3, -3, -2, 12, -10, 871, 693, 46,x
2025-03-17 11:20:18.309,732, 579, 426, 2, 0, -6, -2, 14, -10, 855, 698, 32,x
2025-03-17 11:20:18.364,687, 558, 471, -8, -8, -2, -4, 12, -9, 880, 767, 44,x
2025-03-17 11:20:18.419,670, 557, 496, -10, -23, 5, -3, 13, -10, 917, 837, 23,x
2025-03-17 11:20:18.478,835, 464, 390, 56, 0, -15, -2, 12, -8, 946, 851, 30,x
2025-03-17 11:20:18.532,764, 870, 107, -13, 44, 42, -1, 10, -9, 936, 794, 49,x
2025-03-17 11:20:18.588,616, 113, 916, 6, -18, -48, -1, 12, -11, 871, 768, 41,x
2025-03-17 11:20:18.651,946, 744, 395, -10, -34, -9, -2, 10, -10, 963, 920, 31,x
2025-03-17 11:20:18.703,586, 625, 429, -18, 28, 50, -2, 14, -8, 960, 894, 35,x
2025-03-17 11:20:18.758,554, 609, 464, -12, 54, -58, -3, 13, -12, 912, 797, 50,x
2025-03-17 11:20:19.038,672, 559, 505, -1, 2, 0, -2, 11, -11, 850, 731, 47,y
2025-03-17 11:20:19.092,671, 572, 514, 0, 0, 1, -3, 13, -11, 850, 728, 32,y
2025-03-17 11:20:19.141,714, 560, 416, -1, -3, -2, -2, 12, -10, 855, 735, 34,y
2025-03-17 11:20:19.200,652, 584, 498, -4, -4, -1, -2, 12, -11, 854, 769, 36,y
2025-03-17 11:20:19.258,675, 562, 499, -4, -16, 1, -2, 12, -10, 880, 809, 49,y
2025-03-17 11:20:19.318,795, 605, 391, 18, -10, -11, -3, 12, -12, 951, 883, 36,y
2025-03-17 11:20:19.368,652, 527, 270, -11, 23, 34, -3, 14, -12, 961, 908, 50,y
2025-03-17 11:20:19.433,475, 403, 648, 31, -16, -38, -4, 16, -13, 932, 890, 103,y
2025-03-17 11:20:19.483,742, 842, 203, 1, 1, 15, -4, 12, -11, 964, 919, 41,y
2025-03-17 11:20:19.543,797, 882, 483, -54, 36, 51, -4, 13, -11, 968, 908, 46,y
2025-03-17 11:20:19.599,773, 126, 560, 19, 18, -18, -2, 15, -13, 921, 817, 49,y
2025-03-17 11:20:19.924,682, 546, 502, 3, -5, 0, -1, 12, -11, 769, 658, 49,z
2025-03-17 11:20:19.972,705, 549, 494, 3, -6, 0, -1, 13, -11, 770, 663, 44,z
2025-03-17 11:20:20.032,684, 568, 457, -3, -3, -2, -2, 10, -11, 789, 710, 50,z
2025-03-17 11:20:20.088,675, 557, 464, -1, -6, -1, -1, 12, -12, 812, 738, 41,z
2025-03-17 11:20:20.142,627, 526, 573, 11, -26, -1, -2, 11, -10, 854, 749, 37,z
2025-03-17 11:20:20.199,840, 512, 296, 11, -1, -4, -1, 12, -9, 932, 856, 22,z
2025-03-17 11:20:20.258,585, 558, 516, 11, -20, 21, -3, 13, -9, 957, 910, 43,z
2025-03-17 11:20:20.313,548, 495, 255, -1, 27, 12, -3, 12, -8, 953, 838, 37,z
2025-03-17 11:20:20.368,799, 427, 444, -19, 17, 12, -2, 13, -10, 958, 864, 35,z
2025-03-17 11:20:20.418,698, 458, 348, 1, -1, 22, -3, 14, -9, 961, 915, 37,z
2025-03-17 11:20:20.481,762, 383, 273, 19, 25, -36, -3, 16, -10, 909, 803, 48,z
2025-03-17 11:20:20.538,568, 665, 874, -22, 14, -28, -2, 14, -12, 836, 239, 41,z
2025-03-17 11:20:20.599,816, 394, 210, 28, -10, -21, -3, 12, -11, 938, 850, 36,z
2025-03-17 11:20:20.649,765, 424, 514, 2, -30, 31, -2, 13, -11, 965, 929, 37,z
2025-03-17 11:20:20.699,662, 513, 362, 27, 5, 2, -2, 13, -7, 943, 885, 33,z
2025-03-17 11:20:20.763,723, 592, 360, -10, 40, -41, -4, 12, -7, 847, 765, 51,z
2025-03-17 11:20:21.075,685, 590, 428, 9, 1, -3, -3, 10, -8, 625, 229, 35,0
2025-03-17 11:20:21.128,689, 594, 435, 9, 1, -3, -3, 11, -10, 625, 159, 26,0
2025-03-17 11:20:21.182,679, 584, 444, 5, 2, -4, -1, 12, -10, 682, 79, 43,0
2025-03-17 11:20:21.231,686, 621, 427, 2, 4, 0, -2, 12, -11, 692, 41, 39,0
2025-03-17 11:20:21.288,687, 618, 440, -1, 6, -5, -2, 10, -10, 700, 32, 32,0
2025-03-17 11:20:21.341,682, 617, 442, 6, 2, -3, -2, 11, -12, 692, 43, 49,0
2025-03-17 11:20:21.391,672, 604, 460, 8, 1, -1, -2, 9, -10, 704, 27, 27,0
2025-03-17 11:20:21.443,680, 620, 428, 2, -1, 3, 0, 12, -12, 732, 45, 46,0
2025-03-17 11:20:21.497,696, 611, 429, 3, 0, 9, -2, 12, -11, 744, 35, 37,0
2025-03-17 11:20:21.548,692, 603, 419, 8, -2, 12, -1, 11, -10, 758, 39, 37,0
2025-03-17 11:20:21.608,699, 593, 420, -1, -1, 14, -2, 10, -10, 782, 156, 45,0
2025-03-17 11:20:21.661,697, 625, 409, -10, 2, -1, 0, 12, -11, 789, 171, 22,0
2025-03-17 11:20:21.718,715, 579, 423, -8, -5, 2, -3, 12, -12, 824, 400, 143,0
2025-03-17 11:20:21.768,700, 589, 436, -10, 0, -5, -1, 11, -11, 832, 507, 122,0
2025-03-17 11:20:21.828,713, 582, 417, -13, -3, 3, -3, 11, -11, 852, 611, 32,0
2025-03-17 11:20:21.886,667, 599, 438, -9, -2, 4, -4, 14, -10, 876, 691, 38,0
2025-03-17 11:20:21.941,706, 574, 423, -12, -8, 2, -3, 12, -10, 892, 764, 98,0
2025-03-17 11:20:21.997,648, 601, 503, -25, -18, 2, -4, 13, -10, 914, 856, 94,0
2025-03-17 11:20:22.050,568, 309, 584, 26, -2, -24, -3, 13, -9, 943, 856, 39,0
2025-03-17 11:20:22.108,556, 937, 75, -79, 41, 55, -2, 12, -10, 965, 897, 37,0
2025-03-17 11:20:22.168,488, -14, 959, -2, -29, -14, -3, 15, -11, 957, 925, 40,0
2025-03-17 11:20:22.226,981, 686, 19, 31, 10, -34, -2, 11, -9, 889, 861, 248,0
2025-03-17 11:20:22.282,502, 515, 841, -23, 46, -22, -2, 12, -10, 889, 789, 48,0
2025-03-17 11:20:22.548,676, 576, 472, 0, -3, 1, -3, 13, -12, 838, 738, 36,1
2025-03-17 11:20:22.599,680, 571, 466, 0, -3, 1, -1, 11, -13, 840, 742, 48,1
2025-03-17 11:20:22.659,687, 601, 436, 0, -3, -1, -3, 11, -9, 843, 745, 36,1
2025-03-17 11:20:22.713,690, 573, 487, 8, -9, 3, -3, 12, -13, 859, 763, 49,1
2025-03-17 11:20:22.768,895, 365, 258, -19, -2, -8, -2, 12, -12, 904, 820, 41,1
2025-03-17 11:20:22.828,912, 676, 624, -14, -15, 9, -2, 11, -9, 935, 917, 110,1
2025-03-17 11:20:22.883,613, 409, 734, 27, -12, -7, -4, 12, -8, 956, 929, 273,1
2025-03-17 11:20:22.938,778, 844, 32, 5, 36, 33, -3, 14, -9, 967, 928, 52,1
2025-03-17 11:20:22.991,717, 294, 479, -5, 47, 9, -4, 14, -11, 951, 853, 36,1
2025-03-17 11:20:23.050,626, 586, 1043, 47, -57, 19, -1, 12, -12, 929, 834, 54,1
2025-03-17 11:20:23.101,843, 606, 282, -28, -18, 26, -2, 12, -11, 962, 938, 40,1
2025-03-17 11:20:23.164,795, 381, 4, -23, 60, -67, -2, 13, -10, 926, 878, 142,1
2025-03-17 11:20:23.218,478, 715, 922, -8, 27, -34, -1, 12, -13, 737, 671, 48,1
2025-03-17 11:20:23.496,649, 602, 503, -3, -2, 3, -1, 10, -11, 702, 628, 48,2
2025-03-17 11:20:23.548,642, 599, 500, -2, -4, 4, -3, 15, -11, 700, 632, 45,2
2025-03-17 11:20:23.598,686, 577, 459, 4, -14, 6, -2, 11, -11, 749, 652, 36,2
2025-03-17 11:20:23.664,735, 604, 389, -13, 0, 6, -3, 10, -11, 798, 661, 50,2
2025-03-17 11:20:23.715,657, 581, 497, -6, -1, 2, -3, 11, -11, 829, 656, 21,2
2025-03-17 11:20:23.768,653, 568, 478, 2, -18, 0, -3, 13, -11, 855, 702, 38,2
2025-03-17 11:20:23.828,807, 565, 290, 13, -9, -16, -2, 12, -10, 919, 840, 55,2
2025-03-17 11:20:23.881,666, 512, 444, 3, -26, 12, -3, 12, -11, 951, 918, 110,2
2025-03-17 11:20:23.941,478, 682, 183, 0, 43, 11, -1, 12, -10, 953, 848, 35,2
2025-03-17 11:20:23.998,948, 721, 257, -12, 20, 30, -4, 13, -11, 963, 913, 39,2
2025-03-17 11:20:24.050,704, 506, 477, 19, -5, 18, -3, 14, -11, 958, 924, 41,2
2025-03-17 11:20:24.108,675, 572, 248, -3, 50, -52, -2, 13, -11, 906, 844, 41,2
2025-03-17 11:20:24.372,702, 582, 399, -11, -2, -2, -4, 12, -11, 832, 694, 49,3
2025-03-17 11:20:24.429,692, 570, 403, -12, 0, -3, -3, 12, -10, 833, 698, 43,3
2025-03-17 11:20:24.483,686, 579, 486, -4, -8, -1, -1, 10, -9, 843, 720, 50,3
2025-03-17 11:20:24.531,704, 580, 402, -5, -1, -3, 0, 9, -8, 848, 747, 32,3
2025-03-17 11:20:24.592,615, 603, 558, -1, -12, 3, -3, 12, -10, 865, 786, 47,3
2025-03-17 11:20:24.647,1272, 0, 75, 0, -18, -20, -2, 12, -11, 925, 868, 36,3
2025-03-17 11:20:24.698,717, 491, 438, -11, 5, 21, -2, 11, -8, 951, 920, 48,3
2025-03-17 11:20:24.748,588, 296, 457, 7, 13, 6, -2, 11, -9, 957, 908, 41,3
2025-03-17 11:20:24.808,888, 811, 252, -12, 26, 17, -3, 11, -9, 962, 918, 44,3
2025-03-17 11:20:24.868,531, 706, 357, 2, 12, 18, -1, 12, -10, 967, 920, 42,3
2025-03-17 11:20:24.918,767, 562, 254, -5, 28, 21, -2, 14, -11, 947, 830, 48,3
2025-03-17 11:20:24.981,622, 491, 498, -28, 43, -52, -3, 15, -13, 889, 786, 37,3
2025-03-17 11:20:25.274,701, 579, 425, -3, -7, -2, -2, 11, -11, 844, 785, 33,4
2025-03-17 11:20:25.330,694, 579, 436, -5, -7, -2, -5, 13, -10, 845, 790, 36,4
2025-03-17 11:20:25.388,708, 555, 427, -1, -8, -3, -3, 11, -10, 858, 811, 54,4
2025-03-17 11:20:25.446,663, 556, 506, -10, -11, -2, -2, 14, -11, 875, 840, 49,4
2025-03-17 11:20:25.497,709, 554, 375, -14, -7, -9, -4, 12, -10, 926, 894, 30,4
2025-03-17 11:20:25.548,430, 662, 306, 37, 19, 3, -2, 12, -9, 942, 851, 25,4
2025-03-17 11:20:25.613,696, 536, 331, -26, 17, 11, -1, 10, -10, 944, 876, 43,4
2025-03-17 11:20:25.668,550, 500, 525, -37, -14, 28, -3, 12, -10, 955, 947, 41,4
2025-03-17 11:20:25.728,684, 295, 391, 13, 1, -25, -3, 12, -9, 940, 931, 40,4
2025-03-17 11:20:25.781,697, 703, 775, -1, -14, 9, -3, 12, -11, 936, 912, 94,4
2025-03-17 11:20:25.831,844, 880, 201, 2, 16, 38, -3, 13, -9, 962, 927, 47,4
2025-03-17 11:20:25.890,619, 547, 444, -15, 33, 38, -4, 15, -12, 953, 840, 43,4
2025-03-17 11:20:26.191,715, 545, 481, -4, -3, 1, -3, 13, -13, 848, 711, 33,5
2025-03-17 11:20:26.248,728, 527, 469, -5, -1, 1, -3, 13, -13, 849, 709, 28,5
2025-03-17 11:20:26.299,680, 520, 525, -6, 2, -5, -1, 13, -12, 853, 700, 38,5
2025-03-17 11:20:26.358,668, 526, 531, -5, -9, 1, -3, 14, -13, 861, 688, 34,5
2025-03-17 11:20:26.412,711, 537, 476, 0, -9, 3, -2, 13, -11, 869, 662, 40,5
2025-03-17 11:20:26.468,654, 468, 561, 4, -16, 5, -4, 15, -13, 892, 741, 37,5
2025-03-17 11:20:26.520,878, 439, 328, 18, 0, -7, -1, 12, -10, 930, 885, 38,5
2025-03-17 11:20:26.580,619, 501, 458, -5, -7, 12, -4, 13, -10, 941, 918, 47,5
2025-03-17 11:20:26.638,512, 365, 496, 29, -3, -20, -2, 13, -9, 934, 903, 39,5
2025-03-17 11:20:26.690,753, 602, 330, -11, 25, 15, -2, 12, -8, 949, 912, 29,5
2025-03-17 11:20:26.748,600, 529, 538, -14, 13, 22, -3, 14, -10, 955, 917, 52,5
2025-03-17 11:20:26.798,752, 324, 440, 19, 22, -13, -2, 14, -11, 931, 797, 54,5
2025-03-17 11:20:26.863,597, 643, 583, -8, 35, -33, -4, 15, -14, 790, 812, 89,5
2025-03-17 11:20:27.443,683, 570, 498, -2, -3, -1, -3, 13, -12, 718, 704, 35,6
2025-03-17 11:20:27.499,684, 562, 479, -2, -4, -1, -3, 13, -10, 725, 704, 39,6
2025-03-17 11:20:27.549,668, 571, 498, -2, -3, 1, -1, 13, -13, 766, 720, 34,6
2025-03-17 11:20:27.608,685, 551, 502, 2, -9, 5, -4, 13, -12, 795, 742, 41,6
2025-03-17 11:20:27.662,705, 568, 465, 3, -10, 5, 0, 12, -12, 821, 763, 40,6
2025-03-17 11:20:27.719,711, 559, 454, 3, -15, 5, -4, 12, -10, 862, 797, 37,6
2025-03-17 11:20:27.768,679, 541, 526, -5, -21, 2, -2, 13, -10, 894, 843, 45,6
2025-03-17 11:20:27.830,746, 543, 496, -16, -3, -11, -3, 12, -9, 920, 886, 26,6
2025-03-17 11:20:27.882,1102, 966, 91, 61, 22, 8, -2, 11, -8, 951, 860, 23,6
2025-03-17 11:20:27.938,786, 524, 409, -21, 32, 41, -2, 13, -9, 951, 903, 40,6
2025-03-17 11:20:28.001,1091, 217, 527, 72, -44, -45, -4, 13, -10, 885, 881, 44,6
2025-03-17 11:20:28.058,804, 586, 145, -60, 85, -37, -1, 11, -11, 773, 778, 88,6
2025-03-17 11:20:28.378,701, 593, 419, 7, -15, 5, -3, 13, -12, 755, 741, 48,7
2025-03-17 11:20:28.438,712, 587, 403, 5, -14, 4, -3, 12, -8, 755, 742, 47,7
2025-03-17 11:20:28.493,690, 610, 408, -3, 1, -1, -4, 13, -12, 762, 752, 89,7
2025-03-17 11:20:28.550,566, 557, 519, 13, -16, 2, -4, 10, -10, 797, 778, 38,7
2025-03-17 11:20:28.600,786, 679, 82, -1, 6, 1, 1, 11, -9, 924, 900, 36,7
2025-03-17 11:20:28.652,559, 363, 442, 3, -12, 13, -4, 12, -8, 951, 922, 226,7
2025-03-17 11:20:28.708,602, 997, -6, 44, 17, 20, -1, 11, -7, 962, 906, 45,7
2025-03-17 11:20:28.768,599, 593, 245, -33, 40, 38, -3, 13, -10, 954, 860, 53,7
2025-03-17 11:20:28.818,532, 522, 808, 18, -33, -30, -2, 12, -11, 932, 832, 53,7
2025-03-17 11:20:28.881,920, 873, 455, -15, -30, 15, -3, 11, -7, 963, 936, 36,7
2025-03-17 11:20:28.939,834, 318, 340, 7, 20, -18, -2, 11, -7, 948, 895, 43,7
2025-03-17 11:20:28.996,572, 629, 732, -21, 45, -31, -2, 12, -12, 884, 787, 37,7
2025-03-17 11:20:29.251,700, 559, 468, -2, -2, 12, -2, 14, -11, 877, 741, 25,8
2025-03-17 11:20:29.308,701, 540, 445, -1, -3, 10, -2, 14, -11, 879, 742, 30,8
2025-03-17 11:20:29.361,623, 547, 564, 6, -21, 8, -1, 12, -11, 885, 768, 52,8
2025-03-17 11:20:29.417,672, 681, 329, -12, -10, -16, -3, 12, -10, 912, 835, 40,8
2025-03-17 11:20:29.469,808, 467, 587, 10, -8, -17, -3, 11, -9, 940, 853, 47,8
2025-03-17 11:20:29.530,958, 950, 46, -58, 32, 56, -1, 13, -10, 960, 886, 30,8
2025-03-17 11:20:29.588,661, 214, 817, 5, -21, -19, -4, 15, -11, 953, 925, 40,8
2025-03-17 11:20:29.648,969, 583, 357, -8, -24, -32, -3, 11, -10, 948, 940, 41,8
2025-03-17 11:20:29.698,651, 765, 175, 2, 15, 34, -2, 11, -9, 965, 940, 53,8
2025-03-17 11:20:29.758,833, 390, 269, -8, 25, 4, -2, 14, -10, 948, 870, 34,8
2025-03-17 11:20:30.008,695, 583, 450, -5, 3, 0, -2, 11, -9, 801, 679, 51,9
2025-03-17 11:20:30.061,695, 592, 471, -2, 2, 1, -2, 11, -13, 805, 677, 47,9
2025-03-17 11:20:30.115,695, 560, 464, -6, 0, 2, -3, 10, -11, 808, 679, 41,9
2025-03-17 11:20:30.168,693, 575, 452, -3, -2, -3, -3, 12, -10, 814, 702, 44,9
2025-03-17 11:20:30.219,669, 605, 465, -5, 1, 0, -2, 11, -11, 809, 701, 20,9
2025-03-17 11:20:30.282,707, 587, 451, -2, -5, 2, -2, 10, -11, 813, 712, 34,9
2025-03-17 11:20:30.331,670, 581, 477, -1, -2, 5, -2, 10, -9, 844, 740, 42,9
2025-03-17 11:20:30.390,666, 588, 490, -1, -21, 17, -2, 14, -9, 884, 777, 46,9
2025-03-17 11:20:30.448,1128, 375, 284, -50, -19, -22, -2, 12, -10, 925, 882, 33,9
2025-03-17 11:20:30.508,831, 528, 500, 30, -6, -21, -4, 11, -9, 948, 894, 34,9
2025-03-17 11:20:30.562,984, 717, 259, -39, 32, 60, -2, 11, -10, 961, 914, 39,9
2025-03-17 11:20:30.618,477, 286, 901, 15, -19, -16, -1, 13, -10, 955, 919, 40,9
2025-03-17 11:20:30.679,752, 812, 399, 11, -7, 2, -4, 13, -10, 960, 924, 36,9
2025-03-17 11:20:30.730,626, 517, 260, -19, 42, 39, -2, 15, -11, 964, 898, 52,9
2025-03-17 11:20:30.794,895, 140, 529, -10, 39, -29, -3, 17, -14, 917, 723, 54,9
2025-03-17 11:20:30.847,622, 608, 576, -3, 28, -44, -2, 15, -15, 780, 774, 39,9
2025-03-17 11:20:31.118,676, 555, 546, 12, -12, 4, -2, 12, -13, 738, 641, 32,+
2025-03-17 11:20:31.168,692, 564, 525, 12, -13, 5, -3, 14, -11, 736, 645, 36,+
2025-03-17 11:20:31.229,689, 570, 461, 5, -8, 1, -3, 14, -13, 732, 653, 45,+
2025-03-17 11:20:31.282,710, 559, 458, 3, -5, 1, -1, 11, -11, 742, 671, 47,+
2025-03-17 11:20:31.330,702, 587, 457, -2, -3, -3, -1, 10, -10, 750, 678, 53,+
2025-03-17 11:20:31.387,703, 561, 465, 2, -1, -1, -2, 10, -11, 755, 691, 24,+
2025-03-17 11:20:31.445,710, 575, 447, -4, -2, 1, -2, 13, -13, 777, 697, 50,+
2025-03-17 11:20:31.498,686, 586, 464, 2, 1, 0, -1, 13, -12, 790, 704, 41,+
2025-03-17 11:20:31.548,723, 574, 427, -2, 0, -1, -2, 13, -11, 786, 706, 47,+
2025-03-17 11:20:31.608,697, 564, 481, -1, -1, -4, -3, 14, -11, 787, 704, 38,+
2025-03-17 11:20:31.665,703, 594, 429, -3, -4, -4, -1, 12, -11, 787, 701, 31,+
2025-03-17 11:20:31.718,609, 562, 550, -3, -25, -5, -1, 11, -9, 837, 801, 41,+
2025-03-17 11:20:31.778,768, 523, 463, 5, -14, -7, -2, 11, -9, 946, 909, 44,+
2025-03-17 11:20:31.830,501, 942, 225, -30, 40, 49, -3, 11, -9, 967, 912, 34,+
2025-03-17 11:20:31.891,698, 528, 448, -18, 25, 20, -3, 15, -11, 948, 842, 27,+
2025-03-17 11:20:31.948,825, 652, 523, 38, -36, -30, -3, 15, -12, 915, 837, 39,+
2025-03-17 11:20:31.998,625, 726, 237, -25, -31, 19, -2, 12, -10, 959, 935, 45,+
2025-03-17 11:20:32.068,862, 306, 153, -4, 34, -41, -4, 13, -11, 923, 866, 146,+
2025-03-17 11:20:32.118,551, 697, 875, -35, 48, -29, -2, 11, -13, 773, 650, 39,+
2025-03-17 11:20:32.398,682, 564, 460, -4, 0, 1, -2, 11, -10, 779, 665, 40,-
2025-03-17 11:20:32.448,682, 567, 460, -3, -1, 1, 0, 12, -12, 778, 667, 52,-
2025-03-17 11:20:32.512,686, 590, 451, 2, -4, 5, -2, 12, -11, 778, 676, 37,-
2025-03-17 11:20:32.568,693, 564, 451, 7, -2, 0, -5, 12, -11, 724, 653, 33,-
2025-03-17 11:20:32.618,688, 591, 444, 3, -1, 2, -1, 11, -12, 713, 632, 41,-
2025-03-17 11:20:32.668,689, 570, 449, 1, -1, -1, -2, 12, -11, 742, 622, 33,-
2025-03-17 11:20:32.729,703, 584, 424, 2, -4, 3, -3, 13, -12, 776, 640, 37,-
2025-03-17 11:20:32.779,698, 592, 432, 1, 2, 0, -4, 14, -12, 781, 651, 36,-
2025-03-17 11:20:32.838,718, 570, 417, 0, 1, -1, -3, 12, -10, 778, 659, 38,-
2025-03-17 11:20:32.888,691, 590, 447, 1, 1, -1, -3, 11, -11, 781, 661, 35,-
2025-03-17 11:20:32.945,657, 574, 436, 1, 1, -1, -2, 13, -10, 799, 664, 37,-
2025-03-17 11:20:32.997,632, 552, 469, -1, 1, 1, -2, 12, -12, 833, 695, 35,-
2025-03-17 11:20:33.048,880, 503, 311, 32, -9, -7, -3, 11, -10, 924, 842, 28,-
2025-03-17 11:20:33.112,313, 373, 172, -26, -21, 36, -3, 14, -10, 957, 911, 52,-
2025-03-17 11:20:33.163,796, 301, 93, 1, 41, -51, -4, 14, -9, 923, 843, 38,-
2025-03-17 11:20:33.227,585, 571, 461, -43, 63, -47, -1, 14, -13, 801, 522, 28,-
2025-03-17 11:20:33.482,666, 601, 447, 1, -2, 0, -2, 11, -11, 686, 593, 43,÷
2025-03-17 11:20:33.534,671, 589, 439, 0, -1, 0, -1, 11, -12, 688, 589, 37,÷
2025-03-17 11:20:33.588,667, 575, 465, 0, 0, 0, -2, 11, -11, 711, 607, 46,÷
2025-03-17 11:20:33.638,676, 590, 454, 1, -2, 0, -2, 11, -11, 723, 623, 21,÷
2025-03-17 11:20:33.694,688, 609, 451, -2, 0, 1, -2, 11, -12, 742, 637, 42,÷
2025-03-17 11:20:33.746,678, 573, 459, -3, 2, -3, 0, 11, -11, 737, 610, 20,÷
2025-03-17 11:20:33.804,682, 585, 469, 5, 0, -1, -3, 12, -12, 679, 563, 34,÷
2025-03-17 11:20:33.858,687, 603, 450, 2, 1, -1, -2, 11, -11, 628, 558, 23,÷
2025-03-17 11:20:33.911,681, 605, 438, 0, -2, 0, -1, 11, -9, 669, 567, 31,÷
2025-03-17 11:20:33.963,696, 613, 432, -5, 0, 5, -1, 11, -11, 739, 645, 37,÷
2025-03-17 11:20:34.018,659, 597, 482, -4, 1, 3, -3, 10, -11, 799, 644, 49,÷
2025-03-17 11:20:34.068,712, 581, 419, -4, -3, -4, -1, 11, -12, 811, 664, 36,÷
2025-03-17 11:20:34.129,676, 594, 451, -3, 2, 2, -4, 13, -12, 842, 692, 47,÷
2025-03-17 11:20:34.180,673, 584, 469, -4, -1, 4, -4, 13, -13, 849, 685, 40,÷
2025-03-17 11:20:34.238,714, 569, 430, -7, 0, -6, -2, 12, -10, 855, 707, 41,÷
2025-03-17 11:20:34.288,654, 607, 493, -11, -5, 1, -2, 9, -10, 873, 742, 35,÷
2025-03-17 11:20:34.350,561, 518, 593, -2, -39, 21, -1, 11, -10, 915, 832, 31,÷
2025-03-17 11:20:34.398,776, 616, 384, -13, -3, -4, -3, 12, -9, 952, 904, 36,÷
2025-03-17 11:20:34.460,677, 564, 403, 3, 2, 4, -4, 11, -10, 957, 916, 33,÷
2025-03-17 11:20:34.518,733, 434, 538, 27, -7, -3, -4, 14, -11, 921, 865, 26,÷
2025-03-17 11:20:34.568,538, 696, 412, -44, 73, 19, -3, 13, -11, 923, 795, 48,÷
2025-03-17 11:20:34.630,1017, -132, -204, 3, -27, -28, -4, 13, -10, 953, 859, 47,÷
2025-03-17 11:20:34.689,787, 536, 648, 10, 19, 17, -2, 13, -12, 937, 860, 49,÷
2025-03-17 11:20:34.747,524, 555, 412, -16, 32, -35, -2, 15, -12, 884, 772, 46,÷
2025-03-17 11:20:34.808,606, 123, -24, -51, -20, -24, -3, 13, -12, 944, 853, 49,÷
2025-03-17 11:20:34.863,850, 609, 452, -28, -18, 28, -3, 13, -12, 968, 938, 50,÷
2025-03-17 11:20:34.918,692, 530, 399, 32, 5, 4, -2, 12, -11, 951, 915, 43,÷
2025-03-17 11:20:34.977,598, 577, 429, -7, 57, -58, 0, 12, -13, 846, 811, 191,÷
2025-03-17 11:20:35.029,597, 605, 598, 7, -20, 3, -3, 13, -11, 784, 712, 39,÷
2025-03-17 11:20:35.088,767, 643, 342, -2, 0, -3, -3, 12, -11, 742, 422, 40,÷
2025-03-17 11:20:35.382,674, 599, 458, -1, 0, 1, -3, 11, -11, 705, 403, 39,=
2025-03-17 11:20:35.429,676, 596, 464, -1, -1, 1, -2, 11, -11, 702, 407, 41,=
2025-03-17 11:20:35.488,676, 574, 471, -4, 1, 1, -3, 12, -11, 672, 433, 50,=
2025-03-17 11:20:35.546,677, 598, 455, -4, 1, -2, -3, 13, -12, 644, 334, 43,=
2025-03-17 11:20:35.598,667, 584, 495, -7, 0, 0, -1, 11, -11, 652, 276, 32,=
2025-03-17 11:20:35.648,691, 599, 445, -1, -2, -1, -1, 11, -11, 683, 387, 33,=
2025-03-17 11:20:35.710,661, 579, 495, 2, -4, 3, -3, 10, -11, 728, 561, 32,=
2025-03-17 11:20:35.763,673, 605, 441, -5, -3, -1, -2, 13, -13, 755, 633, 43,=
2025-03-17 11:20:35.820,696, 596, 459, 0, -8, 3, -3, 11, -11, 788, 697, 48,=
2025-03-17 11:20:35.873,661, 580, 458, -1, 2, 3, -1, 11, -11, 841, 726, 42,=
2025-03-17 11:20:35.928,647, 545, 515, 8, -6, 3, -3, 12, -12, 858, 719, 58,=
2025-03-17 11:20:35.979,750, 611, 355, -5, -8, -9, -2, 11, -10, 850, 691, 37,=
2025-03-17 11:20:36.029,683, 556, 521, -1, 9, -3, -2, 11, -11, 847, 705, 36,=
2025-03-17 11:20:36.089,694, 595, 403, 2, -5, 2, 0, 9, -11, 852, 724, 46,=
2025-03-17 11:20:36.144,675, 577, 482, -2, 2, 0, -3, 14, -11, 852, 739, 41,=
2025-03-17 11:20:36.196,618, 583, 477, 5, -4, 3, -2, 15, -12, 861, 735, 24,=
2025-03-17 11:20:36.248,797, 658, 471, 31, -17, -17, -2, 12, -10, 931, 852, 41,=
2025-03-17 11:20:36.311,424, 587, 226, -23, -16, 24, -2, 11, -7, 958, 930, 145,=
2025-03-17 11:20:36.368,686, 547, 482, 5, -2, -1, -4, 11, -8, 956, 928, 255,=
2025-03-17 11:20:36.426,719, 560, 411, -2, -1, -3, -4, 11, -7, 957, 926, 237,=
2025-03-17 11:20:36.479,712, 615, 409, 3, -3, -5, -2, 9, -8, 958, 928, 263,=
2025-03-17 11:20:36.529,709, 625, 396, -1, 0, 2, -2, 11, -7, 961, 926, 266,=
2025-03-17 11:20:36.588,795, 561, 371, 29, -1, -1, -3, 12, -10, 940, 893, 333,=
2025-03-17 11:20:36.648,351, 767, 574, 0, 57, -1, -3, 11, -11, 909, 779, 108,=
2025-03-17 11:20:36.698,1132, 233, 77, 39, -14, -26, -4, 12, -11, 948, 844, 48,=
2025-03-17 11:20:36.762,586, 404, 401, -65, -23, 52, -3, 14, -9, 970, 936, 40,=
2025-03-17 11:20:36.818,806, 365, 222, 22, 17, -21, -3, 14, -9, 953, 902, 42,=
2025-03-17 11:20:36.876,611, 630, 442, -63, 79, -37, -2, 10, -11, 909, 795, 38,=
2025-03-17 11:20:37.170,701, 576, 451, -4, 1, 1, -5, 12, -11, 834, 742, 102,≠
2025-03-17 11:20:37.218,700, 569, 447, -3, 0, 0, 1, 10, -11, 832, 740, 103,≠
2025-03-17 11:20:37.280,700, 612, 407, -2, -4, -2, -4, 11, -10, 820, 748, 128,≠
2025-03-17 11:20:37.331,685, 579, 436, -6, 1, 0, -2, 10, -10, 815, 751, 40,≠
2025-03-17 11:20:37.388,667, 599, 425, -9, 0, -4, -2, 12, -10, 815, 708, 45,≠
2025-03-17 11:20:37.447,671, 576, 455, -10, 0, -6, -3, 12, -11, 810, 691, 34,≠
2025-03-17 11:20:37.503,653, 539, 531, -9, -16, 4, -3, 14, -10, 862, 739, 27,≠
2025-03-17 11:20:37.560,936, 1089, 557, -11, -32, 22, -1, 9, -9, 955, 912, 51,≠
2025-03-17 11:20:37.613,712, 576, 577, 15, -12, 17, -4, 12, -6, 960, 921, 47,≠
2025-03-17 11:20:37.668,558, 517, 328, -12, 58, -12, -3, 11, -8, 923, 803, 43,≠
2025-03-17 11:20:37.729,1054, 53, 432, 61, -19, -28, 0, 11, -9, 931, 809, 43,≠
2025-03-17 11:20:37.780,668, 503, 284, -31, -11, 27, -3, 11, -10, 962, 927, 24,≠
2025-03-17 11:20:37.843,854, 194, 256, -4, 13, -31, -3, 13, -9, 940, 890, 34,≠
2025-03-17 11:20:37.898,512, 850, 1015, 6, -21, -11, -3, 11, -10, 912, 866, 254,≠
2025-03-17 11:20:37.961,820, 1276, 252, -6, -30, -3, -2, 10, -7, 965, 924, 124,≠
2025-03-17 11:20:38.012,894, 219, -37, 29, 66, 61, -2, 9, -7, 969, 882, 40,≠
2025-03-17 11:20:38.068,986, 671, 339, 18, 52, 25, -2, 13, -11, 927, 784, 36,≠
2025-03-17 11:20:38.128,529, 572, 575, -48, 35, -49, -2, 13, -12, 907, 837, 36,≠
2025-03-17 11:20:38.408,690, 545, 494, -4, 1, 0, -2, 13, -10, 823, 661, 41,≈
2025-03-17 11:20:38.461,692, 535, 491, -3, -1, 0, -1, 12, -10, 823, 657, 37,≈
2025-03-17 11:20:38.518,695, 570, 470, -3, -5, -2, -2, 11, -11, 830, 658, 38,≈
2025-03-17 11:20:38.568,707, 587, 427, -2, 2, -1, -1, 11, -10, 827, 658, 44,≈
2025-03-17 11:20:38.626,689, 567, 488, 0, 0, 1, -2, 11, -9, 807, 656, 41,≈
2025-03-17 11:20:38.678,710, 582, 430, 2, -2, -1, -3, 13, -10, 784, 635, 36,≈
2025-03-17 11:20:38.731,697, 560, 485, -1, 1, -1, -3, 14, -12, 785, 646, 37,≈
2025-03-17 11:20:38.788,716, 585, 423, 0, -1, -1, -3, 11, -9, 776, 655, 41,≈
2025-03-17 11:20:38.844,690, 543, 497, 2, -2, -1, -2, 12, -9, 802, 703, 51,≈
2025-03-17 11:20:38.898,704, 600, 428, 4, 1, -1, -4, 10, -12, 787, 715, 39,≈
2025-03-17 11:20:38.954,705, 559, 458, 2, 2, -4, -2, 12, -11, 776, 726, 46,≈
2025-03-17 11:20:39.000,708, 562, 444, 0, -1, -2, -3, 12, -11, 777, 728, 35,≈
2025-03-17 11:20:39.062,686, 571, 458, -5, 0, -4, -3, 13, -11, 795, 751, 34,≈
2025-03-17 11:20:39.118,699, 565, 459, -1, -2, 0, -2, 13, -12, 814, 762, 45,≈
2025-03-17 11:20:39.168,666, 618, 441, -1, -1, 3, -2, 11, -11, 842, 773, 43,≈
2025-03-17 11:20:39.228,759, 598, 421, 13, -6, -8, -1, 12, -9, 906, 860, 33,≈
2025-03-17 11:20:39.279,766, 553, 356, -8, -14, 7, -1, 10, -10, 945, 915, 34,≈
2025-03-17 11:20:39.338,529, 625, 494, -7, -7, 2, -4, 11, -9, 960, 925, 38,≈
2025-03-17 11:20:39.392,737, 614, 430, 6, 1, 12, -1, 12, -9, 960, 926, 34,≈
2025-03-17 11:20:39.448,622, 489, 338, 14, 31, -10, -4, 12, -9, 939, 853, 45,≈
2025-03-17 11:20:39.498,691, 630, 599, -8, -7, 5, -2, 13, -10, 925, 805, 50,≈
2025-03-17 11:20:39.560,827, 664, 490, -12, -4, 2, -2, 13, -11, 956, 914, 29,≈
2025-03-17 11:20:39.611,657, 411, 629, 5, -10, -1, -2, 10, -8, 963, 927, 48,≈
2025-03-17 11:20:39.668,747, 695, 244, -2, 11, 15, -3, 12, -10, 967, 926, 36,≈
2025-03-17 11:20:39.726,831, 470, 403, 17, 8, -10, -3, 12, -8, 945, 907, 180,≈
2025-03-17 11:20:39.778,598, 528, 606, -30, 53, -28, -3, 13, -12, 905, 850, 190,≈
2025-03-17 11:20:40.096,692, 553, 465, -6, -1, 1, -3, 14, -12, 813, 653, 21,<
2025-03-17 11:20:40.148,686, 542, 474, -5, -1, 1, -3, 12, -10, 818, 669, 34,<
2025-03-17 11:20:40.198,687, 564, 483, -2, -5, 0, -1, 12, -12, 827, 691, 46,<
2025-03-17 11:20:40.259,687, 575, 467, -2, -3, -1, -3, 13, -11, 825, 708, 28,<
2025-03-17 11:20:40.311,685, 552, 474, -3, -2, 0, -3, 13, -12, 833, 730, 36,<
2025-03-17 11:20:40.369,659, 564, 509, 2, -6, 0, -2, 12, -11, 832, 729, 46,<
2025-03-17 11:20:40.418,751, 582, 431, 2, -11, 0, -3, 13, -10, 814, 734, 36,<
2025-03-17 11:20:40.479,757, 558, 479, 12, 1, 0, -2, 14, -10, 828, 802, 47,<
2025-03-17 11:20:40.529,655, 547, 453, 4, -1, -1, -2, 11, -9, 828, 797, 35,<
2025-03-17 11:20:40.588,717, 548, 474, -3, 1, -3, -1, 12, -10, 831, 788, 50,<
2025-03-17 11:20:40.642,719, 575, 400, -9, 4, -1, 1, 13, -10, 854, 794, 25,<
2025-03-17 11:20:40.698,699, 614, 553, -3, -15, 2, -3, 12, -12, 870, 804, 34,<
2025-03-17 11:20:40.748,718, 540, 418, -9, -2, -5, -4, 13, -11, 885, 824, 51,<
2025-03-17 11:20:40.808,681, 566, 481, -2, 1, -1, -1, 11, -11, 878, 813, 35,<
2025-03-17 11:20:40.861,688, 580, 457, -6, -7, 2, -4, 12, -10, 893, 829, 51,<
2025-03-17 11:20:40.918,639, 538, 528, -2, -17, 9, -4, 12, -11, 920, 873, 38,<
2025-03-17 11:20:40.976,731, 506, 420, -4, -8, -9, -4, 14, -11, 948, 903, 30,<
2025-03-17 11:20:41.028,920, 734, 321, 31, 30, 0, -1, 11, -8, 957, 857, 50,<
2025-03-17 11:20:41.087,1117, 886, 345, 3, 18, 40, -2, 11, -10, 965, 914, 52,<
2025-03-17 11:20:41.144,738, 418, 530, 16, -12, 15, -3, 15, -11, 969, 939, 32,<
2025-03-17 11:20:41.198,798, 480, 132, -6, 53, -58, -3, 13, -10, 935, 864, 34,<
2025-03-17 11:20:41.518,665, 581, 515, 4, -12, 4, -2, 11, -11, 806, 721, 37,≤
2025-03-17 11:20:41.568,689, 577, 492, 6, -14, 5, -4, 13, -11, 804, 732, 27,≤
2025-03-17 11:20:41.629,721, 599, 403, -3, 4, -2, -1, 11, -10, 816, 751, 48,≤
2025-03-17 11:20:41.682,677, 577, 474, 0, -2, 1, -1, 10, -10, 823, 756, 29,≤
2025-03-17 11:20:41.732,698, 572, 439, 0, -1, 1, -3, 12, -13, 825, 771, 36,≤
2025-03-17 11:20:41.792,685, 570, 462, -3, -1, -1, -2, 11, -10, 826, 776, 30,≤
2025-03-17 11:20:41.848,691, 581, 445, -3, -4, -1, -3, 13, -10, 831, 774, 31,≤
2025-03-17 11:20:41.898,705, 580, 434, -5, -1, -2, -2, 13, -10, 830, 764, 47,≤
2025-03-17 11:20:41.960,698, 584, 440, -10, 2, -5, -4, 13, -11, 841, 738, 41,≤
2025-03-17 11:20:42.018,618, 616, 523, -2, -22, 4, -4, 12, -9, 867, 804, 33,≤
2025-03-17 11:20:42.068,770, 340, 318, 4, -13, -15, -2, 12, -9, 933, 876, 43,≤
2025-03-17 11:20:42.128,574, 783, 295, 39, 29, 17, -2, 9, -10, 951, 842, 34,≤
2025-03-17 11:20:42.178,773, 663, 205, 33, 8, 3, -1, 12, -9, 958, 855, 29,≤
2025-03-17 11:20:42.235,900, 376, 519, 5, -6, 21, -2, 13, -11, 966, 937, 39,≤
2025-03-17 11:20:42.288,649, 544, 371, 34, 9, 2, -2, 14, -11, 953, 890, 39,≤
2025-03-17 11:20:42.345,859, 400, 549, -6, 13, -6, -3, 14, -11, 946, 826, 43,≤
2025-03-17 11:20:42.398,739, 338, 410, -17, -13, 17, -1, 14, -12, 969, 939, 38,≤
2025-03-17 11:20:42.459,862, 414, 282, 4, 17, -19, -1, 12, -10, 944, 881, 49,≤
2025-03-17 11:20:42.511,607, 631, 569, -34, 55, -33, -2, 13, -13, 827, 611, 29,≤
2025-03-17 11:20:42.860,673, 602, 468, -3, -4, -4, -1, 11, -12, 737, 376, 36,>
2025-03-17 11:20:42.918,673, 591, 480, -4, -4, -3, -3, 11, -12, 740, 401, 36,>
2025-03-17 11:20:42.968,666, 583, 489, 1, -5, 2, -5, 11, -12, 735, 480, 32,>
2025-03-17 11:20:43.030,690, 564, 479, -1, -4, 0, -2, 11, -11, 734, 525, 45,>
2025-03-17 11:20:43.079,667, 580, 484, 3, -7, -2, -2, 11, -10, 710, 540, 35,>
2025-03-17 11:20:43.139,703, 591, 458, 0, -8, 0, -4, 12, -13, 720, 607, 25,>
2025-03-17 11:20:43.193,674, 574, 462, -2, -2, -1, -2, 12, -11, 754, 661, 31,>
2025-03-17 11:20:43.251,686, 586, 463, -8, -6, -2, -3, 11, -11, 766, 699, 30,>
2025-03-17 11:20:43.308,662, 586, 483, -11, -11, -4, -3, 12, -11, 818, 764, 46,>
2025-03-17 11:20:43.361,711, 553, 524, 6, -37, 5, -4, 12, -9, 871, 815, 37,>
2025-03-17 11:20:43.418,896, 916, 351, -13, -23, 16, -3, 10, -8, 952, 916, 39,>
2025-03-17 11:20:43.476,607, 338, 751, 37, -13, -6, -4, 13, -9, 966, 925, 24,>
2025-03-17 11:20:43.528,643, 571, 78, -5, 34, 16, -2, 12, -6, 970, 908, 43,>
2025-03-17 11:20:43.578,1048, 582, 551, -40, 51, 23, -2, 12, -9, 943, 826, 50,>
2025-03-17 11:20:43.643,574, 560, 528, -51, 56, -46, -2, 12, -13, 898, 806, 43,>
2025-03-17 11:20:43.698,447, 523, 697, 12, -11, 3, -2, 11, -10, 865, 756, 34,>
2025-03-17 11:20:43.758,759, 581, 434, 25, -38, 18, -1, 11, -13, 836, 698, 29,>
2025-03-17 11:20:43.810,773, 563, 373, -9, 9, -6, -2, 10, -12, 820, 644, 41,>
2025-03-17 11:20:44.178,665, 585, 489, -4, 1, -1, -3, 11, -11, 713, 509, 45,≥
2025-03-17 11:20:44.238,662, 590, 498, -3, 1, -1, -3, 11, -12, 712, 508, 28,≥
2025-03-17 11:20:44.291,668, 571, 480, 1, -4, -1, -3, 10, -11, 723, 521, 39,≥
2025-03-17 11:20:44.348,678, 591, 489, 3, -7, -1, -2, 10, -11, 722, 619, 48,≥
2025-03-17 11:20:44.398,672, 579, 461, 3, -5, 0, -2, 11, -11, 735, 637, 30,≥
2025-03-17 11:20:44.458,674, 586, 481, -2, -10, 0, -5, 13, -12, 759, 685, 35,≥
2025-03-17 11:20:44.510,689, 586, 443, 1, -10, 1, -2, 11, -9, 789, 700, 37,≥
2025-03-17 11:20:44.560,668, 586, 463, -1, -13, 1, -2, 10, -9, 814, 725, 48,≥
2025-03-17 11:20:44.618,673, 564, 442, 4, -22, 1, -1, 10, -8, 849, 782, 38,≥
2025-03-17 11:20:44.675,761, 666, 346, 6, -8, -10, -2, 10, -9, 919, 881, 27,≥
2025-03-17 11:20:44.728,639, 534, 389, -7, -21, 9, -2, 11, -8, 955, 932, 44,≥
2025-03-17 11:20:44.780,686, 666, 383, 44, -1, 11, -1, 10, -8, 968, 933, 91,≥
2025-03-17 11:20:44.839,884, 576, 46, -1, 37, 18, -3, 12, -8, 969, 918, 42,≥
2025-03-17 11:20:44.892,784, 298, 419, -27, 54, -12, -3, 13, -8, 937, 836, 28,≥
2025-03-17 11:20:44.948,500, 582, 855, 23, -36, 30, -3, 15, -13, 937, 822, 23,≥
2025-03-17 11:20:45.011,829, 701, 357, -6, -16, 11, -3, 11, -8, 968, 934, 40,≥
2025-03-17 11:20:45.060,740, 424, 468, 23, -2, 17, -3, 11, -9, 963, 920, 42,≥
2025-03-17 11:20:45.118,618, 585, 447, -39, 77, -49, -1, 11, -11, 914, 820, 40,≥
2025-03-17 11:20:45.178,489, 541, 654, 5, -14, 5, -1, 11, -13, 881, 699, 37,≥
2025-03-17 11:20:45.228,780, 626, 410, 20, -28, 7, -1, 11, -13, 848, 632, 38,≥
2025-03-17 11:20:45.288,677, 538, 434, -13, 13, -7, 0, 10, -11, 846, 613, 53,≥
2025-03-17 11:20:45.343,675, 572, 482, 1, -9, 2, -1, 10, -9, 834, 569, 45,≥
2025-03-17 11:20:45.684,683, 597, 446, -3, -1, -1, -2, 11, -11, 740, 146, 39,±
2025-03-17 11:20:45.741,685, 580, 445, -4, 0, -2, -2, 12, -10, 739, 153, 34,±
2025-03-17 11:20:45.794,671, 585, 500, -3, 0, -3, -1, 11, -11, 738, 254, 35,±
2025-03-17 11:20:45.848,680, 589, 441, 0, 0, -1, -1, 10, -10, 728, 219, 47,±
2025-03-17 11:20:45.898,660, 584, 475, -4, 1, 0, -2, 11, -11, 709, 153, 44,±
2025-03-17 11:20:45.958,684, 583, 469, -2, -1, -1, -4, 11, -12, 703, 46, 46,±
2025-03-17 11:20:46.011,668, 591, 475, -2, 1, -2, -4, 14, -11, 679, 20, 22,±
2025-03-17 11:20:46.068,680, 585, 459, 1, -2, 0, -1, 12, -11, 672, 156, 12,±
2025-03-17 11:20:46.118,670, 586, 476, 0, -1, -1, -1, 12, -10, 697, 344, 22,±
2025-03-17 11:20:46.175,668, 594, 451, 0, -3, -1, -2, 10, -9, 706, 440, 19,±
2025-03-17 11:20:46.229,662, 589, 473, 2, -9, -5, -1, 10, -12, 698, 542, 32,±
2025-03-17 11:20:46.279,656, 612, 471, 6, -10, 1, -3, 10, -10, 721, 625, 37,±
2025-03-17 11:20:46.343,705, 625, 389, 0, -10, 1, -2, 12, -10, 757, 674, 19,±
2025-03-17 11:20:46.393,646, 607, 459, -5, -4, 1, -2, 11, -11, 814, 737, 33,±
2025-03-17 11:20:46.448,557, 536, 546, 14, -12, 11, -3, 12, -11, 860, 765, 22,±
2025-03-17 11:20:46.498,801, 602, 120, -1, 0, -3, -3, 12, -10, 943, 899, 18,±
2025-03-17 11:20:46.560,763, 511, 374, 4, -10, 28, -1, 11, -8, 954, 927, 81,±
2025-03-17 11:20:46.618,629, 409, 373, 5, 11, -37, -4, 11, -7, 928, 892, 264,±
2025-03-17 11:20:46.674,723, 465, 717, -3, -29, 14, -3, 10, -9, 946, 902, 89,±
2025-03-17 11:20:46.728,705, 767, 126, -4, 56, 65, -3, 10, -8, 957, 900, 22,±
2025-03-17 11:20:46.778,645, 497, 359, 8, 31, -6, -2, 11, -10, 935, 756, 28,±
2025-03-17 11:20:46.842,816, 657, 444, 39, -10, -18, -2, 12, -11, 940, 866, 26,±
2025-03-17 11:20:46.898,561, 585, 350, -7, -7, 27, -2, 13, -11, 963, 935, 25,±
2025-03-17 11:20:46.957,775, 400, 166, -14, 55, -46, -3, 15, -11, 940, 884, 41,±
2025-03-17 11:20:47.264,693, 593, 453, 0, -9, 0, -3, 12, -11, 815, 670, 34,∓
2025-03-17 11:20:47.318,686, 597, 452, -2, -9, 0, -2, 12, -11, 817, 670, 32,∓
2025-03-17 11:20:47.375,713, 585, 424, 1, -9, 0, -3, 12, -11, 820, 696, 26,∓
2025-03-17 11:20:47.428,693, 575, 434, -1, -1, -1, -2, 12, -11, 828, 707, 18,∓
2025-03-17 11:20:47.480,690, 579, 443, -1, -3, 0, -2, 10, -10, 830, 725, 38,∓
2025-03-17 11:20:47.542,695, 587, 447, -6, -1, -1, -2, 11, -10, 835, 740, 21,∓
2025-03-17 11:20:47.596,714, 590, 418, -7, -2, 2, -3, 10, -9, 851, 750, 37,∓
2025-03-17 11:20:47.648,712, 580, 444, -4, -1, 4, -2, 11, -10, 875, 781, 36,∓
2025-03-17 11:20:47.708,709, 564, 440, -5, 0, -5, -4, 12, -10, 880, 796, 29,∓
2025-03-17 11:20:47.760,680, 580, 457, 0, -4, 0, -1, 12, -10, 885, 807, 18,∓
2025-03-17 11:20:47.813,722, 569, 408, -3, 0, -4, -2, 14, -10, 881, 813, 31,∓
2025-03-17 11:20:47.868,686, 575, 455, -1, -3, -2, -2, 13, -10, 879, 815, 23,∓
2025-03-17 11:20:47.924,690, 579, 439, -3, 0, -2, -2, 10, -9, 880, 820, 33,∓
2025-03-17 11:20:47.978,724, 561, 416, 0, 0, -3, -2, 11, -8, 881, 821, 29,∓
2025-03-17 11:20:48.030,666, 608, 462, -1, 1, 1, -2, 10, -11, 886, 817, 27,∓
2025-03-17 11:20:48.088,600, 543, 519, 0, -13, 1, -3, 12, -11, 899, 832, 23,∓
2025-03-17 11:20:48.144,966, 604, 560, 45, -24, -15, -2, 10, -9, 954, 928, 25,∓
2025-03-17 11:20:48.198,734, 543, 625, 9, -6, 23, -3, 11, -6, 961, 929, 35,∓
2025-03-17 11:20:48.248,682, 483, 275, 41, 11, -13, -2, 12, -7, 934, 896, 268,∓
2025-03-17 11:20:48.310,737, 632, 703, -5, 45, 9, -3, 11, -11, 916, 803, 26,∓
2025-03-17 11:20:48.361,874, 934, 298, -2, -16, 2, -1, 9, -8, 954, 915, 96,∓
2025-03-17 11:20:48.418,783, 663, 399, -2, -8, 31, -3, 11, -7, 961, 932, 180,∓
2025-03-17 11:20:48.477,612, 370, 311, 2, 21, -35, -2, 11, -9, 940, 894, 261,∓
2025-03-17 11:20:48.538,811, 416, 248, -86, -21, -21, -3, 13, -10, 950, 908, 242,∓
2025-03-17 11:20:48.594,666, 1002, 436, -69, 48, 51, -3, 12, -9, 965, 911, 26,∓
2025-03-17 11:20:48.648,805, 262, 288, -5, 46, -41, -2, 13, -11, 934, 789, 37,∓
2025-03-17 11:20:48.951,695, 566, 448, 9, -9, -1, -2, 12, -11, 828, 747, 27,∞
2025-03-17 11:20:49.009,704, 587, 444, 4, -8, -1, -3, 12, -11, 828, 752, 50,∞
2025-03-17 11:20:49.059,700, 567, 454, 0, -5, -1, -2, 11, -9, 833, 757, 45,∞
2025-03-17 11:20:49.108,699, 611, 441, -2, -2, -2, -1, 11, -8, 837, 767, 98,∞
2025-03-17 11:20:49.168,689, 591, 436, 1, -1, 0, -3, 10, -10, 847, 768, 33,∞
2025-03-17 11:20:49.225,686, 584, 434, -1, 0, 0, -1, 10, -10, 844, 775, 100,∞
2025-03-17 11:20:49.278,696, 584, 440, -5, -1, 2, -3, 10, -11, 850, 780, 25,∞
2025-03-17 11:20:49.336,689, 577, 438, -3, -2, -1, -4, 13, -11, 860, 788, 23,∞
2025-03-17 11:20:49.390,688, 586, 451, -3, -1, 0, -3, 12, -12, 862, 786, 34,∞
2025-03-17 11:20:49.442,701, 602, 427, -4, -1, 0, -5, 10, -11, 868, 795, 12,∞
2025-03-17 11:20:49.499,694, 574, 447, 0, -2, 1, -2, 11, -10, 878, 796, 38,∞
2025-03-17 11:20:49.548,711, 584, 423, -4, 0, -2, -2, 11, -10, 878, 804, 31,∞
2025-03-17 11:20:49.609,678, 590, 447, -1, 2, -1, -3, 12, -10, 878, 798, 30,∞
2025-03-17 11:20:49.663,708, 551, 488, 14, 2, 2, -2, 10, -11, 878, 771, 22,∞
2025-03-17 11:20:49.709,760, 583, 362, 1, 2, -2, -3, 10, -10, 862, 742, 17,∞
2025-03-17 11:20:49.774,698, 567, 479, -3, -1, -1, -4, 10, -11, 864, 772, 24,∞
2025-03-17 11:20:49.828,695, 607, 373, -4, -2, 1, -2, 12, -10, 870, 813, 31,∞
2025-03-17 11:20:49.885,704, 565, 505, -5, -6, 3, -1, 11, -10, 889, 827, 18,∞
2025-03-17 11:20:49.941,685, 560, 360, -4, -8, 5, -2, 12, -10, 909, 849, 103,∞
2025-03-17 11:20:49.992,695, 576, 451, -3, -1, 0, -2, 10, -10, 911, 855, 91,∞
2025-03-17 11:20:50.048,709, 491, 524, 8, -13, 13, -3, 12, -11, 942, 887, 29,∞
2025-03-17 11:20:50.106,395, 715, 412, -15, 33, 18, -2, 12, -9, 958, 890, 31,∞
2025-03-17 11:20:50.163,585, 585, 294, -33, 26, 0, -4, 13, -11, 935, 840, 26,∞
2025-03-17 11:20:50.218,977, 496, 651, -1, -43, -23, -2, 12, -11, 943, 914, 24,∞
2025-03-17 11:20:50.278,569, 596, 451, -13, -20, 10, -3, 12, -9, 965, 934, 12,∞
2025-03-17 11:20:50.336,494, 322, 649, 16, -27, -32, -4, 13, -8, 955, 928, 22,∞
2025-03-17 11:20:50.390,597, 617, 405, 20, 5, -5, -4, 12, -8, 960, 917, 25,∞
2025-03-17 11:20:50.442,757, 867, 43, -44, 38, 26, -4, 12, -10, 961, 889, 25,∞
2025-03-17 11:20:50.498,947, 199, 438, -7, 46, -25, -1, 12, -10, 912, 784, 20,∞
2025-03-17 11:20:50.559,584, 523, 625, -42, 39, -33, -2, 11, -13, 833, 815, 30,∞
2025-03-17 11:20:50.618,519, 643, 622, 11, -18, 3, -2, 12, -12, 850, 799, 33,∞
2025-03-17 11:20:50.675,735, 588, 414, 20, -24, 10, -3, 11, -11, 842, 747, 30,∞
2025-03-17 11:20:50.988,679, 581, 478, -1, -2, 0, -2, 9, -11, 788, 646, 36,∑
2025-03-17 11:20:51.041,665, 589, 484, -1, -2, 0, 0, 11, -13, 786, 646, 33,∑
2025-03-17 11:20:51.092,665, 577, 512, 2, -8, 1, -2, 12, -11, 786, 651, 31,∑
2025-03-17 11:20:51.148,698, 579, 454, -5, -8, 2, -3, 13, -12, 790, 648, 20,∑
2025-03-17 11:20:51.200,696, 563, 472, 1, -2, -2, -2, 11, -11, 802, 650, 22,∑
2025-03-17 11:20:51.260,685, 567, 474, -3, -1, -1, -1, 12, -9, 808, 656, 34,∑
2025-03-17 11:20:51.315,680, 576, 483, 0, -3, 0, -1, 12, -10, 821, 669, 18,∑
2025-03-17 11:20:51.368,685, 566, 458, 0, -2, 0, -2, 12, -12, 837, 712, 24,∑
2025-03-17 11:20:51.418,683, 564, 479, 0, -4, 0, -3, 10, -11, 843, 734, 16,∑
2025-03-17 11:20:51.475,697, 586, 445, 1, -4, -1, -3, 10, -9, 845, 743, 30,∑
2025-03-17 11:20:51.528,699, 584, 476, 1, -5, 1, -1, 10, -9, 852, 759, 16,∑
2025-03-17 11:20:51.585,684, 581, 416, -5, 1, -4, -2, 11, -12, 857, 780, 35,∑
2025-03-17 11:20:51.638,658, 587, 489, 0, -6, -2, -3, 11, -10, 868, 769, 13,∑
2025-03-17 11:20:51.691,640, 517, 621, 19, -34, 13, -3, 11, -10, 911, 822, 33,∑
2025-03-17 11:20:51.748,570, 800, 201, -21, -43, 31, -3, 11, -8, 961, 929, 33,∑
2025-03-17 11:20:51.808,586, 505, 558, 44, -5, -1, -3, 12, -10, 947, 915, 25,∑
2025-03-17 11:20:51.868,573, 722, 384, -12, 43, -20, -1, 10, -11, 901, 835, 73,∑
2025-03-17 11:20:51.925,739, 967, 208, 2, -12, -4, -4, 10, -9, 955, 906, 23,∑
2025-03-17 11:20:51.978,677, 746, 378, -6, 2, 36, -2, 11, -10, 960, 929, 38,∑
2025-03-17 11:20:52.028,609, 669, 328, 25, 13, 8, -2, 12, -9, 955, 907, 27,∑
2025-03-17 11:20:52.089,840, 618, 343, 3, 12, -6, -3, 12, -10, 948, 846, 18,∑
2025-03-17 11:20:52.141,784, 474, 369, -21, -10, 26, -1, 13, -12, 963, 928, 29,∑
2025-03-17 11:20:52.198,819, 388, 329, 6, 12, -3, -1, 12, -10, 949, 895, 30,∑
2025-03-17 11:20:52.258,666, 670, 514, -34, 65, -37, -2, 13, -13, 893, 754, 18,∑
2025-03-17 11:20:52.508,699, 593, 483, 7, -7, 2, -1, 12, -10, 810, 613, 30,∏
2025-03-17 11:20:52.560,706, 599, 445, 4, -6, 2, -4, 12, -9, 809, 619, 22,∏
2025-03-17 11:20:52.618,695, 571, 467, -2, 0, -6, -2, 13, -11, 796, 644, 31,∏
2025-03-17 11:20:52.675,678, 562, 483, -3, -6, 1, -2, 12, -10, 817, 691, 28,∏
2025-03-17 11:20:52.728,722, 573, 449, 3, -6, 1, -3, 12, -11, 837, 710, 25,∏
2025-03-17 11:20:52.778,685, 564, 436, -7, 5, -3, -3, 12, -10, 838, 715, 13,∏
2025-03-17 11:20:52.839,693, 566, 467, -5, -6, -1, -2, 12, -10, 842, 723, 34,∏
2025-03-17 11:20:52.894,690, 569, 474, -9, 1, -4, -2, 12, -11, 848, 721, 25,∏
2025-03-17 11:20:52.948,689, 569, 459, -2, 0, 2, -1, 11, -12, 853, 707, 25,∏
2025-03-17 11:20:52.998,707, 571, 437, 0, -1, 2, -3, 13, -11, 855, 727, 36,∏
2025-03-17 11:20:53.056,686, 568, 475, 3, -3, 0, -2, 11, -11, 862, 750, 25,∏
2025-03-17 11:20:53.110,703, 567, 454, -1, -4, -1, -2, 12, -12, 863, 777, 29,∏
2025-03-17 11:20:53.158,682, 592, 434, 2, -1, 1, -4, 12, -11, 867, 784, 27,∏
2025-03-17 11:20:53.224,685, 552, 456, 0, -1, -3, -2, 9, -10, 869, 780, 27,∏
2025-03-17 11:20:53.276,693, 572, 444, -6, 0, -5, -2, 10, -10, 872, 764, 36,∏
2025-03-17 11:20:53.328,623, 555, 516, 3, -3, -5, -4, 11, -12, 870, 744, 25,∏
2025-03-17 11:20:53.391,876, 714, 449, 13, -21, -17, -3, 12, -12, 934, 868, 23,∏
2025-03-17 11:20:53.442,432, 638, 455, -9, -34, 35, -4, 12, -8, 960, 932, 25,∏
2025-03-17 11:20:53.498,707, 474, 414, 44, 5, -4, -3, 11, -7, 930, 894, 25,∏
2025-03-17 11:20:53.559,562, 674, 391, -15, 50, -44, -3, 12, -10, 853, 813, 23,∏
2025-03-17 11:20:53.610,1751, -640, 140, -7, -31, -17, -3, 12, -9, 943, 895, 28,∏
2025-03-17 11:20:53.673,979, 542, 479, -3, 38, 34, -3, 11, -9, 957, 886, 26,∏
2025-03-17 11:20:53.728,821, 300, 479, -7, 27, -10, -3, 15, -10, 919, 832, 33,∏
2025-03-17 11:20:53.778,581, 668, 712, 0, -53, 1, -4, 13, -12, 884, 880, 30,∏
2025-03-17 11:20:53.842,748, 711, 127, -13, -2, -3, -4, 12, -8, 915, 905, 31,∏
2025-03-17 11:20:53.891,706, 478, 522, -13, 1, 0, -3, 12, -9, 924, 910, 34,∏
2025-03-17 11:20:53.948,721, 474, 489, 2, -2, -7, 0, 11, -7, 943, 925, 18,∏
2025-03-17 11:20:54.005,687, 813, 139, 15, 41, 51, -4, 12, -10, 965, 926, 31,∏
2025-03-17 11:20:54.058,751, 472, 382, -4, 25, 24, -4, 14, -11, 952, 888, 23,∏
2025-03-17 11:20:54.108,763, 566, 324, -38, 79, -66, 0, 14, -13, 887, 835, 31,∏
2025-03-17 11:20:54.173,365, 538, 830, 4, -3, -11, -3, 14, -15, 801, 814, 34,∏
2025-03-17 11:20:54.469,667, 576, 493, 2, -5, -1, -1, 12, -13, 697, 651, 34,√
2025-03-17 11:20:54.524,678, 570, 484, 1, -5, -1, -2, 12, -12, 691, 629, 32,√
2025-03-17 11:20:54.583,685, 598, 470, -3, -1, 0, -3, 12, -14, 682, 586, 33,√
2025-03-17 11:20:54.634,669, 580, 503, -6, 1, -2, -2, 12, -11, 677, 558, 27,√
2025-03-17 11:20:54.692,672, 550, 495, -3, 3, -3, -1, 12, -13, 624, 384, 12,√
2025-03-17 11:20:54.741,668, 576, 502, 3, 2, -5, -3, 14, -13, 496, 336, 31,√
2025-03-17 11:20:54.798,657, 589, 504, 2, -1, 0, -4, 14, -13, 500, 436, 22,√
2025-03-17 11:20:54.848,661, 557, 502, 0, -1, 1, -2, 11, -13, 560, 462, 31,√
2025-03-17 11:20:54.909,672, 574, 492, -3, -3, 0, -2, 10, -12, 605, 494, 26,√
2025-03-17 11:20:54.962,664, 582, 500, -1, -4, 2, -2, 12, -14, 610, 501, 24,√
2025-03-17 11:20:55.022,676, 583, 479, -1, -1, -1, -3, 12, -14, 603, 502, 23,√
2025-03-17 11:20:55.078,673, 577, 485, -5, -4, -1, -4, 12, -13, 642, 510, 21,√
2025-03-17 11:20:55.132,667, 575, 503, -4, -3, -1, -4, 12, -13, 672, 563, 28,√
2025-03-17 11:20:55.189,673, 564, 497, 9, -6, -1, -3, 11, -13, 691, 634, 22,√
2025-03-17 11:20:55.240,666, 586, 483, 0, -2, 2, -2, 13, -12, 717, 647, 34,√
2025-03-17 11:20:55.298,618, 590, 547, 14, -6, 19, -2, 11, -11, 769, 635, 28,√
2025-03-17 11:20:55.348,735, 540, 360, 19, -8, 8, -2, 11, -11, 837, 695, 33,√
2025-03-17 11:20:55.408,799, 580, 417, 7, 13, -1, -1, 12, -11, 906, 805, 27,√
2025-03-17 11:20:55.458,685, 530, 553, 6, -28, 4, -2, 12, -12, 931, 903, 24,√
2025-03-17 11:20:55.518,655, 476, 486, 11, 4, 25, -2, 13, -12, 950, 899, 34,√
2025-03-17 11:20:55.574,735, 728, 259, -47, 16, 27, 1, 13, -11, 955, 891, 23,√
2025-03-17 11:20:55.632,1291, 123, 705, -12, -47, -47, -3, 15, -12, 945, 926, 30,√
2025-03-17 11:20:55.691,635, 618, 499, -16, -24, -4, -3, 15, -9, 957, 943, 27,√
2025-03-17 11:20:55.742,687, 586, 355, 17, -4, 6, -4, 14, -8, 956, 942, 36,√
2025-03-17 11:20:55.798,732, 476, 311, 15, 22, -36, -5, 13, -9, 930, 926, 90,√
2025-03-17 11:20:55.857,654, 605, 594, -6, 16, -12, -3, 12, -8, 916, 901, 80,√
2025-03-17 11:20:55.908,709, 597, 383, 2, -4, 4, -3, 12, -9, 913, 879, 89,√
2025-03-17 11:20:55.968,700, 580, 442, -4, 8, 0, -1, 11, -10, 907, 852, 28,√
2025-03-17 11:20:56.018,705, 571, 438, 1, 4, -9, -4, 11, -10, 886, 825, 33,√
2025-03-17 11:20:56.078,680, 598, 451, -11, 9, -13, -2, 10, -11, 861, 797, 34,√
2025-03-17 11:20:56.128,651, 602, 509, 3, 1, -2, -2, 12, -11, 824, 754, 33,√
2025-03-17 11:20:56.399,671, 587, 491, 0, 4, 5, -2, 11, -10, 857, 753, 34,∛
2025-03-17 11:20:56.455,671, 590, 490, 0, 3, 6, -1, 12, -13, 860, 750, 31,∛
2025-03-17 11:20:56.509,684, 572, 464, 0, 3, 6, -2, 11, -11, 864, 736, 26,∛
2025-03-17 11:20:56.561,579, 585, 499, 14, -9, 9, -1, 14, -12, 868, 741, 21,∛
2025-03-17 11:20:56.618,740, 531, 396, 10, -22, 1, -2, 12, -12, 880, 765, 27,∛
2025-03-17 11:20:56.673,862, 483, 530, -4, -2, 0, -1, 10, -11, 926, 893, 33,∛
2025-03-17 11:20:56.728,792, 786, 515, 11, 23, 37, -1, 12, -10, 957, 913, 20,∛
2025-03-17 11:20:56.784,758, 817, 182, -20, 21, 28, -2, 15, -12, 956, 895, 30,∛
2025-03-17 11:20:56.842,599, 39, 920, 28, -63, -61, -2, 15, -12, 933, 924, 35,∛
2025-03-17 11:20:56.898,687, 681, 442, 7, -33, -19, -3, 13, -10, 947, 942, 30,∛
2025-03-17 11:20:56.959,734, 574, 267, 18, -6, 2, -3, 12, -8, 944, 936, 30,∛
2025-03-17 11:20:57.012,495, 628, 279, -7, 57, -62, -2, 11, -7, 923, 921, 86,∛
2025-03-17 11:20:57.068,691, 629, 659, 37, -48, 35, -4, 9, -8, 918, 892, 243,∛
2025-03-17 11:20:57.126,778, 614, 203, -18, 15, 5, -3, 10, -9, 949, 935, 276,∛
2025-03-17 11:20:57.178,611, 625, 538, 2, -5, 8, -4, 10, -7, 952, 939, 319,∛
2025-03-17 11:20:57.234,783, 536, 378, -5, 0, -1, -1, 9, -7, 952, 934, 273,∛
2025-03-17 11:20:57.285,750, 661, 434, -11, 15, 9, -2, 9, -7, 956, 935, 112,∛
2025-03-17 11:20:57.341,513, 706, 390, -7, 18, 14, -3, 13, -11, 949, 914, 29,∛
2025-03-17 11:20:57.398,949, 422, 238, -29, 44, -19, -3, 12, -9, 916, 878, 83,∛
2025-03-17 11:20:57.458,437, 584, 845, -17, 19, -13, -3, 11, -13, 914, 864, 27,∛
2025-03-17 11:20:57.749,703, 586, 437, -1, -1, 6, -4, 12, -11, 839, 700, 28,∜
2025-03-17 11:20:57.807,700, 579, 450, 0, -1, 6, -1, 11, -10, 844, 704, 26,∜
2025-03-17 11:20:57.860,698, 585, 430, 1, -1, 4, -4, 11, -12, 854, 720, 32,∜
2025-03-17 11:20:57.918,709, 585, 430, 1, -5, -1, -2, 13, -11, 853, 726, 20,∜
2025-03-17 11:20:57.971,701, 572, 453, -1, -3, -1, -2, 12, -10, 858, 728, 20,∜
2025-03-17 11:20:58.025,672, 570, 437, 9, -9, 0, -4, 12, -10, 861, 737, 26,∜
2025-03-17 11:20:58.078,772, 664, 290, -11, 8, -2, -2, 12, -11, 907, 829, 13,∜
2025-03-17 11:20:58.139,607, 564, 446, 2, -12, 16, -1, 11, -10, 942, 903, 32,∜
2025-03-17 11:20:58.191,674, 992, 261, -30, 21, 32, -3, 11, -10, 955, 889, 24,∜
2025-03-17 11:20:58.248,701, 626, 331, -46, 22, 22, -1, 12, -10, 952, 899, 25,∜
2025-03-17 11:20:58.309,1122, 819, 371, 22, -69, -64, -3, 10, -8, 940, 935, 18,∜
2025-03-17 11:20:58.367,630, 577, 390, -5, -44, 18, -2, 13, -7, 961, 947, 23,∜
2025-03-17 11:20:58.421,649, 456, 476, 28, -1, 5, -4, 13, -6, 955, 937, 33,∜
2025-03-17 11:20:58.478,582, 594, 400, -3, 66, -59, -3, 13, -8, 936, 912, 130,∜
2025-03-17 11:20:58.534,637, 573, 449, 25, -50, 16, -2, 10, -9, 940, 912, 339,∜
2025-03-17 11:20:58.590,724, 506, 228, -13, -10, -6, -2, 9, -8, 961, 939, 361,∜
2025-03-17 11:20:58.641,685, 700, 165, 0, 17, 7, -3, 10, -6, 963, 928, 270,∜
2025-03-17 11:20:58.698,828, 709, 202, 4, 2, 3, -3, 11, -7, 964, 922, 30,∜
2025-03-17 11:20:58.748,913, 489, 362, -14, -12, 17, -2, 10, -7, 969, 944, 99,∜
2025-03-17 11:20:58.808,618, 385, 503, 11, -5, -21, -2, 10, -7, 949, 931, 309,∜
2025-03-17 11:20:58.858,672, 556, 755, -4, -26, 19, -2, 9, -7, 952, 921, 387,∜
2025-03-17 11:20:58.923,637, 852, -125, -29, 48, 47, -1, 11, -5, 967, 924, 23,∜
2025-03-17 11:20:58.978,892, 289, 241, -9, 51, -50, -3, 10, -9, 933, 809, 81,∜
2025-03-17 11:20:59.258,674, 606, 426, -13, 8, -2, -1, 10, -11, 774, 509, 24,∫
2025-03-17 11:20:59.318,669, 595, 446, -13, 8, -1, -3, 10, -11, 775, 495, 27,∫
2025-03-17 11:20:59.375,675, 596, 461, -8, -2, -1, -3, 12, -11, 791, 409, 16,∫
2025-03-17 11:20:59.428,684, 617, 457, 7, -3, 2, -2, 10, -10, 779, 617, 26,∫
2025-03-17 11:20:59.478,690, 620, 447, -1, 1, 4, -3, 12, -10, 785, 626, 24,∫
2025-03-17 11:20:59.534,693, 578, 443, -4, -1, 2, -2, 11, -13, 805, 645, 24,∫
2025-03-17 11:20:59.592,678, 600, 444, -2, -1, 0, -2, 11, -11, 814, 657, 34,∫
2025-03-17 11:20:59.642,688, 594, 434, -1, 0, 0, -2, 9, -11, 816, 653, 25,∫
2025-03-17 11:20:59.698,677, 614, 466, 0, -1, 4, -4, 12, -12, 829, 662, 29,∫
2025-03-17 11:20:59.748,695, 586, 432, 4, -2, 4, -1, 10, -9, 851, 680, 21,∫
2025-03-17 11:20:59.805,692, 576, 425, 4, 4, 5, -3, 10, -10, 863, 691, 25,∫
2025-03-17 11:20:59.859,765, 641, 422, 1, -13, 4, -4, 12, -12, 884, 754, 33,∫
2025-03-17 11:20:59.909,664, 627, 505, -8, -17, 11, -2, 11, -10, 909, 807, 21,∫
2025-03-17 11:20:59.978,734, 529, 317, -15, -29, 12, -4, 12, -10, 932, 855, 28,∫
2025-03-17 11:21:00.030,665, 553, 468, -4, -17, -1, -4, 11, -7, 941, 892, 30,∫
2025-03-17 11:21:00.088,585, 570, 377, 26, 9, -11, -3, 12, -5, 953, 904, 21,∫
2025-03-17 11:21:00.140,672, 777, 28, 30, 37, 25, -2, 13, -8, 959, 904, 37,∫
2025-03-17 11:21:00.198,863, 390, 429, -3, 27, 17, -3, 12, -11, 967, 905, 19,∫
2025-03-17 11:21:00.248,695, 532, 335, -8, 33, 15, -1, 12, -9, 940, 795, 30,∫
2025-03-17 11:21:00.308,750, 528, 318, -43, 58, -58, -2, 13, -12, 858, 765, 31,∫
2025-03-17 11:21:00.612,691, 593, 461, 1, -6, 3, -3, 13, -12, 871, 774, 23,∮
2025-03-17 11:21:00.658,694, 584, 471, 0, -5, 4, -2, 11, -11, 870, 778, 29,∮
2025-03-17 11:21:00.718,720, 558, 424, 3, -11, 2, -2, 14, -11, 875, 781, 29,∮
2025-03-17 11:21:00.773,720, 571, 471, 0, -5, 1, -3, 13, -12, 882, 790, 31,∮
2025-03-17 11:21:00.828,731, 548, 417, -7, -2, -3, -2, 11, -10, 888, 805, 34,∮
2025-03-17 11:21:00.883,699, 554, 478, 0, -8, 4, -1, 11, -9, 904, 816, 30,∮
2025-03-17 11:21:00.928,689, 573, 411, -6, 2, 0, -3, 13, -11, 907, 823, 18,∮
2025-03-17 11:21:00.994,714, 574, 437, -2, -7, 7, -4, 12, -11, 913, 830, 21,∮
2025-03-17 11:21:01.040,721, 567, 430, -4, -6, 7, -2, 13, -11, 924, 831, 22,∮
2025-03-17 11:21:01.104,702, 546, 482, -4, -21, 6, -4, 14, -8, 935, 867, 30,∮
2025-03-17 11:21:01.156,742, 540, 444, -9, -6, -13, -4, 13, -9, 942, 907, 26,∮
2025-03-17 11:21:01.208,753, 517, 385, 67, 4, -20, -3, 12, -8, 958, 909, 18,∮
2025-03-17 11:21:01.268,826, 819, -102, 1, 41, 42, -1, 10, -9, 965, 917, 27,∮
2025-03-17 11:21:01.323,646, 181, 866, 7, -10, -15, -3, 14, -8, 950, 917, 37,∮
2025-03-17 11:21:01.378,707, 652, 471, 23, -32, -21, -2, 12, -9, 922, 925, 88,∮
2025-03-17 11:21:01.439,857, 749, 407, -17, -15, 4, -2, 11, -8, 958, 939, 22,∮
2025-03-17 11:21:01.489,542, 666, 396, -21, 27, 40, -1, 11, -8, 968, 940, 23,∮
2025-03-17 11:21:01.548,858, 517, 245, -7, 27, 10, -2, 13, -10, 951, 891, 33,∮
2025-03-17 11:21:01.606,789, 547, 534, -37, 8, -42, -2, 14, -11, 930, 893, 22,∮
2025-03-17 11:21:01.658,403, 599, 615, 9, -54, 10, -4, 14, -10, 937, 921, 28,∮
2025-03-17 11:21:01.718,666, 520, 212, 9, 9, -19, -3, 14, -8, 947, 919, 21,∮
2025-03-17 11:21:01.772,1003, 615, 465, 2, 37, 42, -4, 13, -10, 966, 923, 15,∮
2025-03-17 11:21:01.828,727, 743, 448, 1, 26, 33, -2, 14, -9, 969, 912, 23,∮
2025-03-17 11:21:01.887,715, 507, 348, -4, 39, 17, -1, 16, -10, 944, 778, 34,∮
2025-03-17 11:21:01.942,805, 481, 352, -21, 70, -58, 0, 16, -14, 851, 707, 31,∮
2025-03-17 11:21:01.998,361, 607, 1025, -10, 22, -23, -1, 16, -16, 842, 757, 22,∮
2025-03-17 11:21:02.258,698, 596, 448, 8, -10, 3, -1, 12, -11, 608, 565, 30,∂
2025-03-17 11:21:02.311,703, 587, 437, 4, -9, 3, -5, 13, -13, 608, 554, 31,∂
2025-03-17 11:21:02.370,699, 544, 477, -5, 0, -5, -1, 13, -11, 633, 546, 14,∂
2025-03-17 11:21:02.422,653, 561, 520, -1, -1, -5, -1, 12, -13, 657, 541, 34,∂
2025-03-17 11:21:02.476,679, 561, 491, 3, -5, 0, -1, 11, -12, 672, 524, 23,∂
2025-03-17 11:21:02.528,688, 578, 485, -4, 2, -4, -1, 12, -13, 673, 493, 23,∂
2025-03-17 11:21:02.591,666, 577, 509, -3, -3, -1, -1, 12, -12, 703, 525, 34,∂
2025-03-17 11:21:02.643,680, 557, 491, -1, -1, -1, -2, 11, -12, 704, 550, 23,∂
2025-03-17 11:21:02.698,666, 572, 500, -1, -5, 2, -3, 14, -13, 714, 582, 16,∂
2025-03-17 11:21:02.754,695, 571, 477, 8, -11, 2, -4, 12, -13, 741, 625, 25,∂
2025-03-17 11:21:02.808,721, 584, 400, -2, -5, -2, -4, 12, -11, 757, 657, 24,∂
2025-03-17 11:21:02.864,663, 567, 525, -2, 0, -2, -2, 12, -9, 787, 680, 21,∂
2025-03-17 11:21:02.922,675, 555, 444, -2, -2, -2, -3, 13, -11, 806, 695, 30,∂
2025-03-17 11:21:02.973,676, 611, 465, -3, -9, 0, -3, 13, -12, 819, 701, 10,∂
2025-03-17 11:21:03.033,680, 535, 537, 14, -39, 6, -1, 12, -11, 863, 773, 31,∂
2025-03-17 11:21:03.089,933, 626, 458, 45, -15, -8, -2, 11, -10, 923, 895, 23,∂
2025-03-17 11:21:03.143,388, 617, 323, 31, 19, 35, -1, 12, -8, 950, 901, 25,∂
2025-03-17 11:21:03.198,655, 597, 503, -40, 36, 20, -3, 13, -11, 954, 832, 22,∂
2025-03-17 11:21:03.258,840, 512, 405, -5, 16, -4, -2, 15, -12, 950, 891, 40,∂
2025-03-17 11:21:03.308,648, 453, 452, 7, -19, -3, -4, 14, -10, 965, 940, 26,∂
2025-03-17 11:21:03.372,929, 406, 73, -21, 57, -39, -3, 14, -11, 945, 905, 23,∂
2025-03-17 11:21:03.428,510, 587, 884, -29, 55, -21, -1, 13, -15, 892, 829, 21,∂
2025-03-17 11:21:03.658,666, 559, 506, 2, -5, 0, -1, 11, -13, 756, 493, 19,∇
2025-03-17 11:21:03.711,666, 583, 490, 2, -4, 1, -1, 13, -13, 758, 492, 20,∇
2025-03-17 11:21:03.771,692, 551, 489, -4, 1, -2, -4, 13, -14, 758, 490, 11,∇
2025-03-17 11:21:03.823,651, 544, 537, -6, -1, -5, -1, 12, -13, 756, 500, 32,∇
2025-03-17 11:21:03.878,662, 601, 473, -3, -3, -2, -3, 12, -12, 724, 424, 22,∇
2025-03-17 11:21:03.932,654, 553, 513, -2, 0, 0, -2, 12, -10, 735, 423, 21,∇
2025-03-17 11:21:03.988,672, 566, 482, 0, -1, 0, -1, 12, -13, 729, 464, 22,∇
2025-03-17 11:21:04.039,669, 556, 519, -1, 0, 0, -2, 13, -13, 723, 486, 25,∇
2025-03-17 11:21:04.098,670, 573, 500, 0, 0, -2, -3, 14, -12, 716, 497, 32,∇
2025-03-17 11:21:04.148,661, 556, 527, 1, -3, 0, -2, 12, -14, 732, 534, 25,∇
2025-03-17 11:21:04.208,652, 571, 500, 0, -7, -1, -2, 13, -12, 766, 622, 31,∇
2025-03-17 11:21:04.258,633, 565, 593, 10, -21, 5, -1, 12, -12, 808, 712, 29,∇
2025-03-17 11:21:04.320,685, 599, 434, 20, -25, 12, -2, 12, -10, 833, 732, 15,∇
2025-03-17 11:21:04.372,698, 569, 348, 10, -7, -7, -3, 12, -10, 846, 730, 15,∇
2025-03-17 11:21:04.433,752, 549, 502, -8, -3, -12, -3, 13, -10, 896, 792, 36,∇
2025-03-17 11:21:04.488,1045, 871, 556, -20, -32, 33, -3, 12, -10, 947, 919, 34,∇
2025-03-17 11:21:04.548,553, 351, 722, 14, -10, 2, -4, 13, -11, 959, 926, 28,∇
2025-03-17 11:21:04.598,769, 574, 330, 30, 42, 32, -1, 11, -8, 968, 907, 25,∇
2025-03-17 11:21:04.658,624, 498, 502, -32, 54, 28, -2, 15, -11, 948, 846, 18,∇
2025-03-17 11:21:04.721,447, 666, 696, 27, -24, -50, -2, 15, -12, 890, 824, 35,∇
2025-03-17 11:21:04.778,813, 425, 404, -26, -23, -9, -2, 13, -11, 959, 925, 24,∇
2025-03-17 11:21:04.832,674, 522, 688, -38, 41, 57, -4, 14, -12, 966, 905, 27,∇
2025-03-17 11:21:04.889,783, 315, 208, -15, 56, -56, -3, 15, -13, 930, 780, 37,∇
2025-03-17 11:21:05.204,734, 572, 366, 4, -16, 0, -4, 14, -11, 824, 720, 29,∆
2025-03-17 11:21:05.258,741, 563, 371, 2, -12, -1, -3, 12, -9, 825, 720, 26,∆
2025-03-17 11:21:05.308,705, 580, 421, -8, 0, -6, -3, 11, -10, 827, 736, 22,∆
2025-03-17 11:21:05.368,689, 569, 476, -2, -11, 0, -2, 13, -12, 843, 778, 30,∆
2025-03-17 11:21:05.420,692, 560, 470, 0, -10, 3, -3, 13, -9, 878, 796, 19,∆
2025-03-17 11:21:05.478,735, 580, 396, -3, -13, 3, -2, 11, -8, 907, 853, 26,∆
2025-03-17 11:21:05.528,725, 569, 457, -2, -8, -4, -2, 11, -8, 926, 896, 32,∆
2025-03-17 11:21:05.588,725, 623, 435, 5, -10, -1, -2, 12, -7, 926, 900, 21,∆
2025-03-17 11:21:05.638,701, 511, 451, -11, -3, -2, -2, 10, -7, 942, 913, 28,∆
2025-03-17 11:21:05.698,704, 513, 459, 7, -10, -7, -2, 12, -8, 958, 927, 21,∆
2025-03-17 11:21:05.753,396, 747, 576, 13, 57, 11, -4, 12, -8, 961, 897, 28,∆
2025-03-17 11:21:05.808,788, 590, 286, -10, 21, 6, -3, 12, -9, 957, 853, 35,∆
2025-03-17 11:21:05.858,609, 895, 467, -65, -26, 42, -4, 13, -10, 969, 940, 14,∆
2025-03-17 11:21:05.920,690, 495, 301, 11, 6, 11, -4, 15, -11, 969, 937, 23,∆
2025-03-17 11:21:05.978,733, 278, 218, -1, 31, -52, -4, 15, -10, 933, 892, 28,∆
2025-03-17 11:21:06.036,551, 733, 1124, 9, -58, 15, -2, 14, -12, 923, 874, 85,∆
2025-03-17 11:21:06.097,1025, 722, 453, -13, -2, 26, -2, 13, -10, 966, 934, 27,∆
2025-03-17 11:21:06.148,567, 465, 476, -11, 28, 36, -4, 16, -13, 966, 912, 25,∆
2025-03-17 11:21:06.208,758, 424, 376, 8, 51, -71, -3, 16, -11, 922, 806, 20,∆
2025-03-17 11:21:06.258,472, 636, 824, 9, 1, -17, -2, 13, -13, 740, 712, 24,∆
2025-03-17 11:21:06.519,683, 561, 484, -6, 0, -3, -2, 13, -12, 716, 411, 22,π
2025-03-17 11:21:06.571,681, 555, 484, -6, 0, -5, -2, 12, -11, 716, 384, 20,π
2025-03-17 11:21:06.628,684, 555, 502, 1, -3, -2, -3, 12, -12, 730, 398, 21,π
2025-03-17 11:21:06.678,680, 573, 473, 2, -2, 3, -1, 11, -11, 736, 474, 26,π
2025-03-17 11:21:06.736,686, 565, 469, -2, 0, 0, -1, 12, -11, 736, 505, 24,π
2025-03-17 11:21:06.793,688, 562, 484, -3, -1, -1, -3, 12, -12, 735, 517, 19,π
2025-03-17 11:21:06.838,685, 563, 496, -2, 2, 0, -3, 13, -12, 732, 502, 22,π
2025-03-17 11:21:06.898,685, 547, 477, -2, 0, 0, -2, 13, -13, 740, 460, 15,π
2025-03-17 11:21:06.957,658, 578, 519, 11, -11, 5, -2, 12, -11, 761, 339, 23,π
2025-03-17 11:21:07.008,734, 561, 459, 19, -6, 1, -3, 13, -10, 769, 478, 29,π
2025-03-17 11:21:07.068,695, 564, 456, -4, 13, 12, -2, 12, -12, 791, 449, 14,π
2025-03-17 11:21:07.124,691, 552, 474, -8, -5, -11, -1, 10, -11, 804, 658, 31,π
2025-03-17 11:21:07.178,637, 619, 520, -18, -7, -5, -2, 11, -12, 846, 625, 35,π
2025-03-17 11:21:07.238,850, 266, 361, 44, -11, -27, -2, 12, -10, 924, 842, 40,π
2025-03-17 11:21:07.296,493, 422, -32, -46, -31, 52, -2, 11, -9, 966, 934, 26,π
2025-03-17 11:21:07.354,588, 391, 563, 29, -11, 2, -2, 13, -9, 963, 923, 19,π
2025-03-17 11:21:07.408,633, 553, 200, 4, 43, -45, -2, 13, -10, 921, 836, 28,π
2025-03-17 11:21:07.458,735, 630, 635, 2, -22, 18, -2, 12, -11, 937, 864, 30,π
2025-03-17 11:21:07.521,763, 500, 535, -16, 15, 29, -2, 12, -9, 963, 912, 22,π
2025-03-17 11:21:07.578,747, 552, 229, -18, 25, 16, -2, 14, -10, 953, 840, 27,π
2025-03-17 11:21:07.637,745, 604, 589, -7, -32, -31, -3, 15, -12, 933, 868, 32,π
2025-03-17 11:21:07.698,1984, 193, 140, -5, -19, -11, -3, 15, -11, 957, 921, 24,π
2025-03-17 11:21:07.752,941, 576, 420, 27, 28, 25, -4, 15, -9, 965, 912, 26,π
2025-03-17 11:21:07.808,846, 717, 311, -6, 13, 23, -4, 14, -11, 969, 907, 27,π
2025-03-17 11:21:07.858,710, 491, 451, -23, -20, 14, -3, 15, -11, 969, 936, 27,π
2025-03-17 11:21:07.920,730, 474, 386, 16, 9, 3, -4, 16, -11, 961, 917, 19,π
2025-03-17 11:21:07.972,815, 568, 495, -32, 59, -26, -5, 15, -11, 948, 874, 28,π
2025-03-17 11:21:08.028,616, 463, 561, 13, 1, -11, -3, 17, -11, 931, 849, 32,π
2025-03-17 11:21:08.087,755, 559, 372, 5, 7, -12, -4, 15, -13, 893, 759, 27,π
2025-03-17 11:21:08.142,655, 525, 503, -8, 13, -12, -1, 13, -12, 859, 659, 24,π
2025-03-17 11:21:08.202,671, 536, 538, 1, -4, -5, -1, 13, -12, 842, 575, 34,π
2025-03-17 11:21:08.465,688, 551, 479, -3, -4, -1, -2, 13, -12, 755, 207, 31,θ
2025-03-17 11:21:08.522,694, 546, 477, -4, -2, -2, -2, 13, -12, 753, 225, 30,θ
2025-03-17 11:21:08.574,669, 547, 541, -2, 0, 0, -1, 12, -12, 774, 307, 23,θ
2025-03-17 11:21:08.632,687, 532, 500, 0, 0, -1, -4, 13, -12, 765, 314, 24,θ
2025-03-17 11:21:08.685,660, 572, 524, -4, 1, -1, -4, 14, -13, 756, 310, 17,θ
2025-03-17 11:21:08.738,668, 542, 516, 1, -3, 0, -2, 13, -12, 759, 346, 20,θ
2025-03-17 11:21:08.788,658, 546, 512, 4, -5, -2, -2, 13, -12, 755, 397, 28,θ
2025-03-17 11:21:08.848,688, 575, 472, 6, -4, -2, -1, 13, -12, 714, 419, 20,θ
2025-03-17 11:21:08.907,660, 568, 498, -1, -2, -4, -3, 12, -13, 731, 455, 25,θ
2025-03-17 11:21:08.958,654, 555, 500, 4, -11, 2, -2, 14, -12, 774, 533, 27,θ
2025-03-17 11:21:09.009,683, 560, 504, 7, -18, 3, -2, 12, -11, 790, 625, 15,θ
2025-03-17 11:21:09.070,792, 591, 387, 0, -13, 5, -2, 13, -12, 830, 741, 35,θ
2025-03-17 11:21:09.121,665, 576, 477, -4, 3, 0, -4, 14, -12, 865, 777, 29,θ
2025-03-17 11:21:09.178,705, 543, 482, -3, -12, 3, -2, 13, -10, 870, 790, 29,θ
2025-03-17 11:21:09.235,682, 577, 449, -6, -5, 1, -3, 12, -10, 885, 811, 29,θ
2025-03-17 11:21:09.289,607, 532, 476, -4, -16, 2, -1, 13, -10, 897, 851, 24,θ
2025-03-17 11:21:09.348,783, 489, 448, 2, -4, -15, -3, 12, -10, 941, 900, 25,θ
2025-03-17 11:21:09.402,990, 915, 335, 9, 40, 43, -2, 13, -9, 968, 906, 26,θ
2025-03-17 11:21:09.458,719, 581, 523, -47, 39, 53, -3, 14, -11, 960, 914, 18,θ
2025-03-17 11:21:09.508,517, 562, 490, 37, -45, -69, -3, 13, -11, 927, 919, 16,θ
2025-03-17 11:21:09.574,834, 699, 558, -11, -26, -9, -4, 12, -11, 962, 940, 28,θ
2025-03-17 11:21:09.635,616, 1124, 262, -30, 35, 38, -3, 13, -11, 968, 926, 15,θ
2025-03-17 11:21:09.688,700, 245, 331, -18, 31, 0, -2, 15, -12, 943, 841, 27,θ
2025-03-17 11:21:09.748,634, 565, 529, 16, -39, -15, -2, 14, -11, 948, 899, 25,θ
2025-03-17 11:21:09.808,618, 590, 173, -14, -15, 14, -1, 13, -11, 965, 938, 34,θ
2025-03-17 11:21:09.858,822, 367, 261, 3, 18, -35, -2, 13, -10, 940, 891, 25,θ
2025-03-17 11:21:10.173,705, 579, 492, 2, -4, 3, -1, 13, -13, 816, 580, 19,λ
2025-03-17 11:21:10.230,697, 573, 483, 0, -5, 3, 0, 11, -12, 816, 589, 19,λ
2025-03-17 11:21:10.287,701, 571, 458, -1, -2, -3, -2, 13, -12, 813, 641, 27,λ
2025-03-17 11:21:10.338,681, 571, 480, -3, -1, -1, -4, 13, -11, 809, 644, 30,λ
2025-03-17 11:21:10.398,707, 553, 454, -1, -2, -1, -2, 13, -12, 793, 647, 13,λ
2025-03-17 11:21:10.452,686, 561, 488, -5, 0, -4, -4, 11, -10, 774, 641, 25,λ
2025-03-17 11:21:10.508,691, 573, 462, 1, -7, 2, -2, 11, -11, 797, 672, 25,λ
2025-03-17 11:21:10.562,702, 571, 458, -2, 0, -2, -1, 12, -9, 804, 682, 17,λ
2025-03-17 11:21:10.611,685, 571, 476, -3, -3, 1, -2, 11, -11, 825, 705, 26,λ
2025-03-17 11:21:10.668,707, 579, 457, 0, -3, 0, -1, 11, -9, 837, 721, 21,λ
2025-03-17 11:21:10.719,690, 567, 473, -1, 0, -1, -2, 13, -11, 836, 724, 27,λ
2025-03-17 11:21:10.778,705, 545, 479, 3, -2, -1, -3, 13, -11, 822, 721, 22,λ
2025-03-17 11:21:10.828,699, 574, 441, 1, -1, -3, -2, 11, -9, 816, 705, 26,λ
2025-03-17 11:21:10.888,608, 577, 517, 3, -8, 1, -2, 12, -10, 834, 738, 20,λ
2025-03-17 11:21:10.938,862, 529, 364, 2, -11, -21, -3, 13, -8, 889, 813, 23,λ
2025-03-17 11:21:10.988,931, 492, 581, -1, 3, 6, 0, 11, -10, 938, 902, 35,λ
2025-03-17 11:21:11.053,639, 684, 783, -6, -1, 15, -5, 12, -9, 965, 919, 20,λ
2025-03-17 11:21:11.104,715, 748, 316, -1, 12, 27, -3, 13, -9, 966, 916, 34,λ
2025-03-17 11:21:11.158,770, 170, 300, -16, 30, -48, -3, 15, -10, 948, 891, 24,λ
2025-03-17 11:21:11.220,466, 627, 982, 7, -39, 13, -3, 12, -10, 939, 881, 22,λ
2025-03-17 11:21:11.271,838, 546, 239, -7, 11, 6, -3, 11, -8, 965, 911, 25,λ
2025-03-17 11:21:11.328,815, 489, 338, -2, 35, 24, -3, 14, -9, 956, 837, 23,λ
2025-03-17 11:21:11.388,910, 329, 446, -28, 48, -29, -4, 16, -12, 896, 746, 22,λ
2025-03-17 11:21:11.688,693, 562, 459, -3, -1, -2, -2, 12, -11, 782, 687, 26,μ
2025-03-17 11:21:11.738,694, 562, 452, -3, 0, -2, -2, 13, -12, 781, 688, 27,μ
2025-03-17 11:21:11.802,690, 567, 508, -2, -3, -4, -4, 13, -12, 783, 675, 29,μ
2025-03-17 11:21:11.853,676, 593, 474, 3, -6, -2, -3, 12, -11, 801, 695, 14,μ
2025-03-17 11:21:11.908,686, 557, 462, -2, -3, 0, -2, 11, -10, 827, 712, 31,μ
2025-03-17 11:21:11.958,691, 572, 464, -1, -4, 0, -2, 13, -11, 841, 725, 25,μ
2025-03-17 11:21:12.020,686, 577, 481, 2, -4, 1, -3, 12, -10, 848, 731, 21,μ
2025-03-17 11:21:12.070,697, 557, 449, 0, -3, -1, -1, 11, -10, 857, 735, 31,μ
2025-03-17 11:21:12.120,695, 581, 482, 1, -8, 3, -1, 11, -9, 864, 754, 24,μ
2025-03-17 11:21:12.178,719, 594, 394, -4, -2, 0, -3, 13, -11, 871, 777, 30,μ
2025-03-17 11:21:12.237,678, 565, 491, 1, 1, 2, -3, 12, -11, 872, 779, 21,μ
2025-03-17 11:21:12.288,706, 551, 451, 4, -5, -2, -2, 11, -8, 872, 784, 34,μ
2025-03-17 11:21:12.338,757, 540, 449, 8, 2, 5, -2, 12, -9, 878, 784, 21,μ
2025-03-17 11:21:12.388,696, 581, 466, 11, 16, 10, -3, 11, -11, 882, 706, 32,μ
2025-03-17 11:21:12.454,660, 609, 479, 7, 17, 35, -3, 12, -12, 893, 645, 24,μ
2025-03-17 11:21:12.508,705, 564, 336, -9, 11, 21, -3, 15, -12, 914, 676, 31,μ
2025-03-17 11:21:12.559,747, 562, 457, -31, 7, 6, -2, 16, -12, 936, 826, 32,μ
2025-03-17 11:21:12.620,866, 270, 556, -8, -55, -53, -3, 17, -12, 947, 910, 18,μ
2025-03-17 11:21:12.678,852, 450, 390, 2, -15, -12, -5, 14, -10, 952, 931, 14,μ
2025-03-17 11:21:12.735,716, 661, 259, 37, -5, -8, -4, 12, -8, 960, 925, 17,μ
2025-03-17 11:21:12.788,764, 597, 405, -10, 22, 20, -3, 13, -8, 962, 919, 30,μ
2025-03-17 11:21:12.847,621, 454, 467, -29, 6, 18, -4, 14, -11, 963, 915, 28,μ
2025-03-17 11:21:12.903,720, 475, 278, 7, -31, -26, -2, 15, -10, 958, 922, 14,μ
2025-03-17 11:21:12.958,818, 477, 453, 28, 1, 0, -3, 13, -10, 959, 911, 22,μ
2025-03-17 11:21:13.008,751, 580, 311, -24, 2, 12, -2, 15, -10, 963, 920, 24,μ
2025-03-17 11:21:13.068,904, 589, 99, 1, 18, -23, -2, 14, -10, 944, 908, 21,μ
2025-03-17 11:21:13.128,561, 471, 596, -37, 73, -28, -4, 15, -12, 926, 867, 22,μ
2025-03-17 11:21:13.408,671, 558, 511, 6, -9, 4, -1, 13, -12, 801, 343, 28,ω
2025-03-17 11:21:13.458,688, 555, 492, 3, -9, 4, -2, 14, -12, 802, 345, 21,ω
2025-03-17 11:21:13.519,707, 530, 483, 0, -4, -2, -2, 12, -12, 794, 440, 20,ω
2025-03-17 11:21:13.572,684, 540, 496, -2, -1, -5, -2, 11, -11, 771, 491, 22,ω
2025-03-17 11:21:13.628,670, 536, 522, -3, -5, -1, -2, 12, -10, 782, 507, 30,ω
2025-03-17 11:21:13.686,711, 552, 484, 2, -15, 2, -2, 12, -11, 814, 572, 14,ω
2025-03-17 11:21:13.739,702, 532, 484, 5, -10, 6, -2, 14, -11, 845, 647, 31,ω
2025-03-17 11:21:13.798,658, 560, 499, -2, -17, 7, -4, 11, -10, 871, 747, 22,ω
2025-03-17 11:21:13.851,744, 543, 415, 8, -26, 3, -5, 14, -11, 899, 812, 23,ω
2025-03-17 11:21:13.908,777, 398, 631, 18, -1, -10, -3, 13, -9, 939, 847, 26,ω
2025-03-17 11:21:13.958,691, 471, 423, -57, 14, 28, -2, 14, -11, 962, 897, 32,ω
2025-03-17 11:21:14.021,571, 269, 662, -20, -13, -3, -4, 16, -8, 960, 925, 33,ω
2025-03-17 11:21:14.079,771, 408, 447, 47, -16, -20, -3, 14, -8, 959, 924, 22,ω
2025-03-17 11:21:14.135,737, 680, 168, -45, 10, 29, -2, 13, -8, 964, 930, 20,ω
