Timestamp,Acc_X,Acc_Y,Acc_Z,Gyro_X,Gyro_Y,Gyro_Z,Mag_X,Mag_Y,Mag_Z,Force1,Force2,Force3,Letter
2025-03-10 12:15:52.103,531, 663, 548, -5, -9, 3, 8, -1, -7, 820, 633, 317,noise
2025-03-10 12:15:52.108,531, 663, 548, -5, -9, 3, 8, -1, -7, 820, 633, 317,noise
2025-03-10 12:15:59.008,626, 506, 565, -25, 7, 2, -1, 1, -4, 889, 326, 30,A
2025-03-10 12:15:59.058,625, 519, 573, -25, 7, 2, -2, 3, -5, 888, 329, 33,A
2025-03-10 12:15:59.118,627, 483, 596, -21, 4, 7, -2, 1, -5, 888, 342, 19,A
2025-03-10 12:15:59.171,637, 481, 602, -2, 3, -1, -3, 3, -5, 897, 386, 64,A
2025-03-10 12:15:59.224,614, 479, 607, -1, -1, -4, -3, 3, -4, 896, 419, 26,A
2025-03-10 12:15:59.278,619, 488, 597, 44, -10, -13, -2, 1, -5, 884, 550, 40,A
2025-03-10 12:15:59.339,637, 567, 545, 43, -14, -8, -3, 2, -3, 845, 691, 254,A
2025-03-10 12:15:59.390,661, 574, 532, 18, -9, -4, -2, 0, -3, 798, 720, 436,A
2025-03-10 12:15:59.440,657, 586, 512, 1, -3, 1, -3, -1, -1, 809, 756, 502,A
2025-03-10 12:15:59.498,646, 555, 525, -1, 1, -5, -2, 1, -2, 839, 789, 525,A
2025-03-10 12:15:59.555,647, 580, 529, -11, -1, -1, -2, 1, -3, 871, 819, 531,A
2025-03-10 12:15:59.608,660, 585, 541, -17, 1, -3, -1, 0, -2, 875, 806, 409,A
2025-03-10 12:15:59.666,663, 554, 510, -15, -2, -6, -2, 1, -3, 902, 834, 340,A
2025-03-10 12:15:59.723,696, 535, 577, -13, -1, -12, -1, 2, -2, 915, 848, 297,A
2025-03-10 12:15:59.778,669, 491, 590, 21, -20, -33, 0, 1, -3, 930, 875, 371,A
2025-03-10 12:15:59.838,556, 574, 515, 26, -28, -38, -2, 0, -1, 948, 902, 523,A
2025-03-10 12:15:59.890,447, 677, 507, 9, -9, 6, 0, -1, 0, 957, 928, 642,A
2025-03-10 12:15:59.940,546, 711, 509, 26, -13, 49, -1, 0, 1, 963, 948, 708,A
2025-03-10 12:15:59.998,698, 587, 440, 39, -17, 53, -3, 1, 0, 968, 957, 762,A
2025-03-10 12:16:00.056,804, 558, 356, 19, -10, 33, -5, 0, 3, 971, 964, 783,A
2025-03-10 12:16:00.105,799, 545, 347, 6, 7, 2, -6, 0, 3, 971, 961, 790,A
2025-03-10 12:16:00.158,698, 594, 423, -8, 5, -9, -7, 1, 2, 972, 960, 803,A
2025-03-10 12:16:00.208,657, 614, 461, -6, -18, 3, -6, 0, 3, 970, 957, 805,A
2025-03-10 12:16:00.268,685, 549, 445, 13, -52, 25, -8, 1, 3, 972, 963, 832,A
2025-03-10 12:16:00.324,562, 411, 562, 23, -13, -27, -6, 0, 6, 979, 962, 758,A
2025-03-10 12:16:00.378,570, 875, -283, 17, 39, 12, -5, -2, 7, 978, 944, 561,A
2025-03-10 12:16:00.428,918, 505, 826, -42, -1, 7, -8, -1, 4, 969, 929, 732,A
2025-03-10 12:16:00.494,518, 576, 779, -18, -30, -4, -8, 0, 3, 973, 958, 763,A
2025-03-10 12:16:00.540,605, 762, -35, 23, 12, 23, -7, -2, 5, 980, 959, 686,A
2025-03-10 12:16:00.604,691, 631, 355, -48, 26, 19, -6, 1, 4, 974, 908, 625,A
2025-03-10 12:16:00.658,1538, 226, 364, -9, -15, -36, -7, -1, 3, 968, 901, 564,A
2025-03-10 12:16:00.718,1029, 701, -92, 15, -12, 28, -6, -1, 5, 981, 969, 692,A
2025-03-10 12:16:00.772,828, 491, 371, -34, 18, 2, -6, 0, 4, 973, 958, 774,A
2025-03-10 12:16:00.828,728, 441, 419, -69, 68, -68, -4, 1, 0, 957, 900, 610,A
2025-03-10 12:16:01.198,696, 601, 431, 5, -8, 5, -6, 1, 2, 955, 907, 699,B
2025-03-10 12:16:01.256,717, 570, 396, 5, -7, 5, -5, -1, 1, 956, 911, 710,B
2025-03-10 12:16:01.309,757, 566, 366, -1, -4, 5, -5, 0, 3, 958, 915, 715,B
2025-03-10 12:16:01.358,728, 561, 421, 0, -3, 2, -5, -1, 3, 957, 921, 719,B
2025-03-10 12:16:01.409,748, 556, 380, -3, -3, -3, -5, 0, 5, 958, 924, 721,B
2025-03-10 12:16:01.473,720, 591, 422, -11, -8, -2, -5, -1, 5, 959, 928, 713,B
2025-03-10 12:16:01.523,796, 632, 397, 1, -6, -11, -7, 1, 3, 965, 944, 686,B
2025-03-10 12:16:01.578,796, 622, 375, 32, 2, 2, -7, 0, 3, 976, 950, 609,B
2025-03-10 12:16:01.628,771, 702, 164, 6, 33, 33, -6, 0, 3, 980, 943, 396,B
2025-03-10 12:16:01.678,761, 406, 864, -30, 3, 0, -8, 0, 3, 971, 923, 528,B
2025-03-10 12:16:01.740,800, 528, 483, -18, -30, -19, -5, -1, 1, 973, 954, 690,B
2025-03-10 12:16:01.791,575, 673, 382, 14, -6, 2, -5, -1, 4, 980, 966, 726,B
2025-03-10 12:16:01.854,1053, 665, 344, -10, 31, 29, -6, -1, 3, 981, 962, 630,B
2025-03-10 12:16:01.906,873, 422, 382, -7, 21, 8, -6, 0, 3, 981, 959, 589,B
2025-03-10 12:16:01.958,671, 746, 419, -13, 1, 9, -7, 0, 3, 982, 959, 457,B
2025-03-10 12:16:02.018,1128, 483, 232, -21, 35, 8, -6, -1, 2, 974, 895, 214,B
2025-03-10 12:16:02.071,802, 330, 135, -53, 76, -44, -5, 0, 0, 961, 866, 223,B
2025-03-10 12:16:02.128,447, 652, 833, -13, 7, -27, -5, 1, -1, 960, 894, 406,B
2025-03-10 12:16:02.178,541, 595, 644, 20, -36, 6, -2, 1, -3, 951, 894, 470,B
2025-03-10 12:16:02.474,701, 552, 455, 3, -12, 4, -7, 0, 0, 952, 888, 479,C
2025-03-10 12:16:02.528,706, 553, 450, 3, -12, 3, -6, 0, 0, 953, 889, 479,C
2025-03-10 12:16:02.579,743, 539, 395, 0, -7, 3, -7, 0, 0, 952, 888, 470,C
2025-03-10 12:16:02.628,724, 545, 439, -2, -2, 0, -6, 1, 1, 952, 889, 468,C
2025-03-10 12:16:02.678,721, 538, 446, 0, -6, 1, -6, 2, 0, 955, 893, 474,C
2025-03-10 12:16:02.738,738, 559, 447, 2, -8, 3, -3, 0, 3, 956, 897, 504,C
2025-03-10 12:16:02.788,687, 536, 509, 10, -20, 9, -5, 0, 2, 959, 909, 548,C
2025-03-10 12:16:02.839,644, 617, 424, 2, -15, -19, -6, 1, 2, 964, 934, 504,C
2025-03-10 12:16:02.906,1067, 445, 552, 29, -18, -23, -5, -1, 2, 976, 946, 403,C
2025-03-10 12:16:02.958,1106, 608, 46, 36, 41, 23, -5, -1, 3, 982, 945, 348,C
2025-03-10 12:16:03.008,837, 215, 518, 20, 20, 24, -6, -3, 4, 980, 960, 688,C
2025-03-10 12:16:03.070,776, 472, 153, -51, 69, -51, -6, -3, 6, 970, 950, 718,C
2025-03-10 12:16:03.128,522, 688, 717, -41, 20, -25, -2, 0, 1, 963, 927, 651,C
2025-03-10 12:16:03.178,586, 614, 593, 4, -27, 10, -4, -1, -2, 960, 907, 588,C
2025-03-10 12:16:03.238,760, 534, 361, 7, -23, 12, -6, 0, 1, 958, 900, 602,C
2025-03-10 12:16:03.580,708, 538, 471, 3, -6, 2, -4, 1, 0, 948, 878, 478,D
2025-03-10 12:16:03.628,716, 561, 472, 2, -6, 2, -4, 1, 2, 949, 878, 476,D
2025-03-10 12:16:03.688,722, 556, 454, -2, -4, 2, -4, -1, 2, 951, 882, 490,D
2025-03-10 12:16:03.738,715, 550, 459, 0, -5, 1, -5, 0, 1, 951, 886, 474,D
2025-03-10 12:16:03.790,711, 564, 443, -2, -9, 0, -5, 1, 2, 950, 884, 451,D
2025-03-10 12:16:03.848,627, 546, 527, -3, -26, -2, -5, 0, 0, 953, 900, 496,D
2025-03-10 12:16:03.898,750, 561, 444, 8, -10, -17, -6, 0, 2, 960, 918, 405,D
2025-03-10 12:16:03.958,896, 621, 381, 44, 42, 15, -6, 0, 3, 975, 922, 345,D
2025-03-10 12:16:04.008,759, 659, 135, 2, 22, 16, -6, 0, 2, 970, 908, 361,D
2025-03-10 12:16:04.063,632, 481, 461, -3, -51, -41, -6, 0, 3, 956, 886, 691,D
2025-03-10 12:16:04.122,810, 548, 527, 29, -37, -7, -5, -2, 4, 971, 949, 732,D
2025-03-10 12:16:04.172,726, 817, 317, -3, 17, 19, -5, -1, 5, 983, 955, 639,D
2025-03-10 12:16:04.228,1269, 311, 154, -42, 46, 20, -7, -1, 5, 977, 902, 303,D
2025-03-10 12:16:04.288,894, 394, 174, -37, 63, -39, -7, 0, 3, 960, 836, 531,D
2025-03-10 12:16:04.338,464, 702, 736, -26, 8, -32, -2, 0, 0, 957, 864, 548,D
2025-03-10 12:16:04.718,690, 549, 463, -4, -4, -1, -6, 1, 0, 948, 871, 454,E
2025-03-10 12:16:04.775,696, 552, 477, -4, -5, 0, -5, 0, 1, 948, 871, 453,E
2025-03-10 12:16:04.828,698, 554, 445, -2, -10, 2, -6, -2, 1, 951, 875, 433,E
2025-03-10 12:16:04.882,726, 545, 419, 1, -10, 3, -5, 0, 1, 951, 868, 412,E
2025-03-10 12:16:04.938,745, 554, 416, -4, -13, -3, -5, -1, 3, 953, 878, 440,E
2025-03-10 12:16:04.989,715, 605, 363, -1, -3, -13, -5, -1, 2, 958, 910, 367,E
2025-03-10 12:16:05.045,613, 659, 382, 77, 12, 1, -5, 1, 2, 977, 925, 323,E
2025-03-10 12:16:05.098,702, 573, 115, -3, 31, 24, -7, 0, 5, 977, 905, 144,E
2025-03-10 12:16:05.158,869, 172, 347, -36, -50, -59, -6, 1, 3, 959, 875, 519,E
2025-03-10 12:16:05.208,795, 512, 692, 76, -27, -24, -5, 0, 3, 973, 950, 618,E
2025-03-10 12:16:05.258,669, 603, 165, 3, 15, 28, -6, 0, 4, 981, 966, 729,E
2025-03-10 12:16:05.322,719, 392, 336, -24, 30, 1, -6, -1, 5, 971, 938, 717,E
2025-03-10 12:16:05.374,946, 425, 691, 11, -21, -7, -6, -1, 1, 972, 881, 484,E
2025-03-10 12:16:05.428,682, 603, 349, 23, 5, 18, -5, -1, 5, 983, 958, 647,E
2025-03-10 12:16:05.487,609, 663, 325, -24, 27, 21, -6, -1, 4, 974, 905, 691,E
2025-03-10 12:16:05.541,863, 655, 386, 35, 2, -14, -7, -1, 4, 975, 877, 453,E
2025-03-10 12:16:05.590,727, 536, 137, 22, 8, 33, -9, 0, 4, 983, 957, 696,E
2025-03-10 12:16:05.654,1083, 336, -49, -53, 52, -46, -6, -1, 5, 964, 921, 740,E
2025-03-10 12:16:05.748,530, 489, 666, -90, 91, -73, -4, 2, 0, 938, 580, 257,E
2025-03-10 12:16:14.293,450, 497, 485, -6, 4, -3, -3, 0, 1, 928, 798, 322,F
2025-03-10 12:16:14.338,424, 491, 476, -5, -2, 3, -3, 0, 0, 928, 800, 308,F
2025-03-10 12:16:14.404,1552, 1176, 909, 45, -94, -30, -4, -1, 3, 937, 811, 591,F
2025-03-10 12:16:14.461,708, 439, 591, 30, -13, -15, -4, -1, 4, 941, 832, 476,F
2025-03-10 12:16:14.518,694, 511, 380, -11, 11, 8, -3, -1, 3, 945, 850, 551,F
2025-03-10 12:16:14.571,667, 680, 423, -13, 13, 1, -5, 0, 4, 950, 867, 585,F
2025-03-10 12:16:14.622,698, 612, 395, -12, 14, -2, -3, -1, 2, 951, 877, 600,F
2025-03-10 12:16:14.678,656, 582, 477, -14, 15, -3, -3, 0, 1, 953, 883, 551,F
2025-03-10 12:16:14.735,675, 584, 485, -5, 0, 4, -2, 0, 2, 955, 893, 545,F
2025-03-10 12:16:14.788,663, 591, 514, 4, -10, 5, -4, 0, 0, 955, 894, 529,F
2025-03-10 12:16:14.838,704, 570, 440, 9, -12, 8, -3, 0, 3, 957, 898, 522,F
2025-03-10 12:16:14.888,726, 564, 390, -2, 1, -1, -5, 0, 2, 959, 903, 486,F
2025-03-10 12:16:14.938,667, 597, 466, -8, 4, -2, -4, 0, 3, 959, 906, 465,F
2025-03-10 12:16:15.002,655, 581, 487, -2, -13, 3, -5, 0, 1, 959, 911, 499,F
2025-03-10 12:16:15.055,678, 559, 430, -15, -35, -16, -4, 1, 1, 959, 912, 570,F
2025-03-10 12:16:15.108,601, 570, 641, 17, -62, 6, -5, -1, 3, 966, 929, 655,F
2025-03-10 12:16:15.164,1171, 871, 233, 65, 34, 3, -4, 0, 3, 979, 934, 455,F
2025-03-10 12:16:15.220,816, 726, -136, -15, 55, 38, -6, -2, 4, 980, 916, 383,F
2025-03-10 12:16:15.278,578, 375, 453, -31, -38, -66, -5, 0, 4, 966, 894, 562,F
2025-03-10 12:16:15.336,797, 431, 219, 74, -46, -25, -4, -1, 4, 978, 959, 594,F
2025-03-10 12:16:15.388,741, 603, 335, -5, 23, 24, -5, -3, 6, 979, 962, 750,F
2025-03-10 12:16:15.448,369, 567, 590, -15, 33, -31, -6, -1, 4, 968, 892, 658,F
2025-03-10 12:16:15.502,858, 362, 39, 66, -23, -17, -4, -2, 5, 981, 937, 434,F
2025-03-10 12:16:15.562,753, 496, 315, -10, 22, 27, -4, -1, 5, 981, 955, 733,F
2025-03-10 12:16:15.619,672, 552, 185, -69, 81, -60, -5, -3, 4, 964, 886, 686,F
2025-03-10 12:16:15.938,718, 576, 373, 3, -5, 3, -3, -1, 3, 957, 883, 610,G
2025-03-10 12:16:15.988,709, 598, 373, 2, -4, 2, -4, 0, 3, 959, 884, 612,G
2025-03-10 12:16:16.042,708, 598, 388, -7, -2, -1, -5, 1, 4, 960, 891, 614,G
2025-03-10 12:16:16.100,717, 604, 413, -4, -7, 0, -4, -1, 3, 961, 899, 620,G
2025-03-10 12:16:16.152,684, 610, 428, -2, -11, 5, -4, 0, 2, 962, 908, 629,G
2025-03-10 12:16:16.208,630, 484, 328, 21, -15, -18, -5, 0, 1, 969, 928, 581,G
2025-03-10 12:16:16.261,315, 415, 478, 16, -3, -17, -6, 0, 3, 975, 933, 358,G
2025-03-10 12:16:16.321,744, 694, 259, 48, 29, 26, -3, -2, 4, 982, 923, 69,G
2025-03-10 12:16:16.371,824, 626, 454, -43, 42, 37, -4, -1, 4, 980, 946, 486,G
2025-03-10 12:16:16.430,590, 535, 562, -7, -23, -20, -5, -1, 5, 978, 948, 676,G
2025-03-10 12:16:16.484,1241, 885, 74, 1, 26, 30, -5, -1, 5, 983, 950, 555,G
2025-03-10 12:16:16.538,710, 660, 482, -28, 5, 5, -7, 0, 6, 977, 932, 621,G
2025-03-10 12:16:16.588,538, 290, 83, -65, -27, -36, -5, 0, 3, 972, 907, 357,G
2025-03-10 12:16:16.652,956, 1103, 234, 41, -25, 17, -4, 0, 6, 986, 961, 492,G
2025-03-10 12:16:16.702,653, 700, 380, -1, 17, 21, -5, -1, 6, 983, 963, 723,G
2025-03-10 12:16:16.763,664, 515, 235, -84, 78, -54, -5, 1, 2, 967, 904, 561,G
2025-03-10 12:16:16.812,473, 698, 830, -22, 0, -8, -4, 0, 0, 960, 848, 421,G
2025-03-10 12:16:17.110,666, 592, 457, -1, -4, -2, -4, 0, 2, 954, 871, 482,H
2025-03-10 12:16:17.168,663, 581, 450, 0, -5, -2, -4, -1, 2, 953, 867, 452,H
2025-03-10 12:16:17.220,706, 588, 387, -4, -2, 0, -4, -1, 2, 953, 861, 447,H
2025-03-10 12:16:17.278,668, 586, 417, -4, -8, -5, -3, 0, 1, 954, 863, 443,H
2025-03-10 12:16:17.328,702, 558, 485, 9, -44, 10, -4, -1, 3, 959, 894, 411,H
2025-03-10 12:16:17.385,630, 748, 317, 58, 10, 0, -4, 0, 3, 978, 913, 330,H
2025-03-10 12:16:17.438,937, 762, 173, 12, 30, 34, -5, -1, 3, 980, 886, 150,H
2025-03-10 12:16:17.488,611, 202, 791, -38, -25, -29, -5, 0, 3, 964, 826, 482,H
2025-03-10 12:16:17.553,792, 559, 683, 43, -30, -19, -3, -2, 4, 976, 911, 403,H
2025-03-10 12:16:17.608,596, 439, 275, -14, 22, 30, -6, -1, 7, 981, 955, 732,H
2025-03-10 12:16:17.667,356, 611, 657, -38, 10, -36, -6, -1, 4, 975, 945, 742,H
2025-03-10 12:16:17.721,895, 1105, 158, 24, -8, 9, -4, -1, 5, 986, 950, 682,H
2025-03-10 12:16:17.778,606, 462, 114, 0, 39, 38, -5, -1, 4, 985, 937, 614,H
2025-03-10 12:16:17.828,1016, 247, 411, -40, 5, -33, -6, 0, 5, 969, 879, 702,H
2025-03-10 12:16:18.169,688, 586, 427, -4, 1, -3, -5, -1, 2, 959, 871, 534,I
2025-03-10 12:16:18.229,696, 586, 435, -5, 0, -3, -5, 0, 2, 960, 873, 525,I
2025-03-10 12:16:18.283,718, 594, 416, -3, -3, -3, -4, -1, 4, 958, 872, 485,I
2025-03-10 12:16:18.338,708, 584, 402, -4, -1, -4, -5, -1, 3, 959, 872, 445,I
2025-03-10 12:16:18.388,630, 610, 449, 5, -9, 1, -3, 1, 1, 959, 863, 403,I
2025-03-10 12:16:18.438,866, 467, 420, 58, -13, -16, -6, -1, 3, 972, 908, 132,I
2025-03-10 12:16:18.500,503, 447, 149, 21, 5, 30, -5, -2, 5, 981, 961, 708,I
2025-03-10 12:16:18.552,611, 561, 435, -6, 10, 6, -4, -1, 6, 973, 949, 764,I
2025-03-10 12:16:18.608,540, 684, 683, -28, -14, 2, -5, -1, 4, 967, 894, 611,I
2025-03-10 12:16:18.667,478, 758, 181, 10, 27, 41, -4, -1, 4, 986, 940, 541,I
2025-03-10 12:16:18.719,625, 729, 263, -24, 36, 16, -6, -1, 4, 977, 886, 621,I
2025-03-10 12:16:18.778,1070, 414, 428, -7, 0, -30, -4, -1, 3, 967, 742, 26,I
2025-03-10 12:16:18.838,1103, 1246, -109, -11, -44, 56, -5, -3, 5, 984, 956, 518,I
2025-03-10 12:16:18.888,809, 674, 333, -23, 22, 5, -4, 0, 4, 979, 940, 744,I
2025-03-10 12:16:18.950,674, 433, 645, -74, 59, -62, -4, 0, 1, 963, 828, 430,I
2025-03-10 12:16:19.228,712, 599, 396, -8, 1, -2, -4, -1, 3, 955, 861, 501,J
2025-03-10 12:16:19.288,683, 582, 422, -6, 2, -2, -2, 0, 3, 955, 860, 492,J
2025-03-10 12:16:19.338,684, 606, 423, -7, -5, -3, -3, 0, 1, 953, 851, 376,J
2025-03-10 12:16:19.388,645, 605, 436, -2, -10, -1, -5, 1, 3, 951, 833, 302,J
2025-03-10 12:16:19.452,743, 632, 448, 65, -12, -22, -4, -2, 3, 963, 886, 172,J
2025-03-10 12:16:19.508,359, 661, 103, -1, 3, 39, -3, -1, 4, 979, 958, 697,J
2025-03-10 12:16:19.558,604, 678, 386, -6, 8, 7, -6, 0, 6, 970, 941, 739,J
2025-03-10 12:16:19.618,561, 641, 624, -21, -6, -12, -4, -1, 4, 960, 871, 524,J
2025-03-10 12:16:19.668,380, 793, -97, 30, 48, 62, -4, -2, 5, 984, 943, 580,J
2025-03-10 12:16:19.728,692, 533, 391, -75, 36, 19, -5, -1, 4, 983, 923, 129,J
2025-03-10 12:16:19.785,1216, 336, 543, 70, 0, -11, -5, -1, 3, 931, 723, 112,J
2025-03-10 12:16:19.838,468, 589, 615, -16, 50, -28, -4, 0, 2, 931, 840, 584,J
2025-03-10 12:16:19.888,468, 601, 581, -22, -17, 0, -4, 0, 1, 935, 810, 506,J
2025-03-10 12:16:20.199,705, 590, 449, 3, -12, 1, -3, -1, 2, 933, 839, 298,K
2025-03-10 12:16:20.252,725, 593, 428, 2, -12, 2, -5, 0, 0, 934, 836, 282,K
2025-03-10 12:16:20.302,716, 563, 416, 1, 0, -2, -3, -1, 3, 933, 836, 292,K
2025-03-10 12:16:20.358,685, 566, 463, 5, -10, -2, -5, 0, 2, 941, 852, 336,K
2025-03-10 12:16:20.411,680, 570, 441, 8, -21, 4, -3, 0, 3, 948, 882, 443,K
2025-03-10 12:16:20.468,709, 602, 506, 5, -6, -8, -3, -1, 2, 965, 909, 370,K
2025-03-10 12:16:20.519,458, 957, 141, 12, 62, 30, -5, -1, 4, 977, 884, 34,K
2025-03-10 12:16:20.569,789, 639, -11, 19, 28, 9, -5, -1, 3, 978, 926, 44,K
2025-03-10 12:16:20.634,926, 794, 1000, -11, -57, -13, -5, 1, 4, 980, 968, 643,K
2025-03-10 12:16:20.686,687, 661, 352, -11, -9, 0, -5, 1, 1, 973, 931, 656,K
2025-03-10 12:16:20.739,631, 522, 513, -33, 15, -15, -4, 1, 3, 963, 820, 96,K
2025-03-10 12:16:20.790,825, 913, 421, 32, -7, 11, -3, -1, 4, 982, 936, 428,K
2025-03-10 12:16:20.850,683, 503, 240, -10, 34, 33, -5, 0, 4, 987, 947, 640,K
2025-03-10 12:16:20.908,760, 602, 1, -64, 60, -70, -4, -2, 2, 967, 884, 626,K
2025-03-10 12:16:20.960,516, 732, 881, -31, 13, -38, -3, 1, -2, 946, 816, 415,K
2025-03-10 12:16:21.248,728, 582, 424, -2, -5, -2, -3, 0, 2, 950, 853, 344,L
2025-03-10 12:16:21.302,691, 556, 423, 0, -6, -3, -5, 0, 2, 952, 858, 377,L
2025-03-10 12:16:21.362,696, 601, 434, 1, -12, -1, -5, 0, 1, 951, 864, 437,L
2025-03-10 12:16:21.409,695, 552, 402, 1, -12, 0, -6, 1, 3, 957, 890, 395,L
2025-03-10 12:16:21.499,718, 603, 479, 7, -7, -9, -5, 1, 1, 968, 913, 294,L
2025-03-10 12:16:21.518,794, 557, 531, 52, 15, 6, -5, 0, 3, 979, 911, 107,L
2025-03-10 12:16:21.569,876, 742, 251, -14, 26, 21, -5, 0, 6, 984, 894, 43,L
2025-03-10 12:16:21.628,980, 553, 590, 0, -11, 34, -5, -1, 5, 986, 954, 321,L
2025-03-10 12:16:21.678,669, 597, 394, 9, 0, 5, -5, 1, 5, 985, 957, 674,L
2025-03-10 12:16:21.735,952, 383, 128, -58, 44, -43, -5, -1, 3, 966, 890, 615,L
2025-03-10 12:16:21.788,566, 680, 690, -39, 18, -22, -4, 0, 0, 957, 826, 248,L
2025-03-10 12:16:22.198,704, 575, 414, 1, -13, 3, -4, 0, 1, 940, 825, 136,M
2025-03-10 12:16:22.251,711, 569, 410, 2, -12, 3, -4, 0, 1, 941, 825, 143,M
2025-03-10 12:16:22.303,699, 560, 418, 0, -5, -2, -4, 1, 1, 941, 833, 234,M
2025-03-10 12:16:22.358,685, 589, 429, -5, -6, -4, -3, 0, 0, 940, 842, 267,M
2025-03-10 12:16:22.411,620, 594, 527, 3, -33, 2, -4, 0, 1, 944, 865, 303,M
2025-03-10 12:16:22.458,671, 469, 436, 32, -8, -15, -3, -1, 3, 971, 905, 206,M
2025-03-10 12:16:22.516,946, 885, 308, 2, 49, 41, -2, 0, 3, 980, 897, 24,M
2025-03-10 12:16:22.568,789, 604, 586, -20, 5, 9, -5, -1, 3, 967, 888, 260,M
2025-03-10 12:16:22.628,571, 660, 475, -9, -27, -17, -4, -1, 3, 961, 926, 534,M
2025-03-10 12:16:22.684,603, 825, 154, 28, -13, 6, -4, -2, 5, 979, 952, 535,M
2025-03-10 12:16:22.738,767, 705, 244, -13, 21, 21, -4, 1, 4, 980, 949, 578,M
2025-03-10 12:16:22.788,686, 544, 421, -14, -16, -9, -6, -2, 1, 975, 944, 682,M
2025-03-10 12:16:22.849,888, 550, 319, 16, 24, 30, -5, -1, 4, 983, 942, 595,M
2025-03-10 12:16:22.901,864, 623, 365, -9, 19, 16, -6, -1, 3, 974, 915, 668,M
2025-03-10 12:16:22.959,655, 489, 532, -52, 52, -51, -4, 0, 0, 960, 897, 603,M
2025-03-10 12:16:23.305,712, 587, 411, -1, -4, -4, -5, -1, 2, 952, 847, 339,N
2025-03-10 12:16:23.358,709, 590, 413, -2, -4, -4, -5, 1, 1, 951, 847, 335,N
2025-03-10 12:16:23.409,711, 580, 414, -4, -6, -4, -4, -2, 3, 953, 852, 327,N
2025-03-10 12:16:23.463,723, 596, 398, -7, -7, -4, -4, 0, 2, 954, 863, 312,N
2025-03-10 12:16:23.520,687, 573, 436, 3, -14, 2, -5, -1, 2, 959, 884, 347,N
2025-03-10 12:16:23.570,731, 576, 495, 32, -6, -6, -5, -1, 2, 974, 902, 224,N
2025-03-10 12:16:23.632,768, 777, 254, -15, 41, 36, -6, -1, 4, 977, 859, 34,N
2025-03-10 12:16:23.685,634, 304, 860, -5, -29, -18, -6, 0, 1, 963, 861, 425,N
2025-03-10 12:16:23.739,696, 612, 520, -4, -18, -21, -4, -1, 2, 965, 923, 514,N
2025-03-10 12:16:23.800,693, 715, 89, -12, 43, 61, -5, -1, 4, 981, 928, 481,N
2025-03-10 12:16:23.853,718, 720, 37, -24, 23, 10, -6, 1, 4, 981, 933, 409,N
2025-03-10 12:16:23.904,776, 756, 487, -2, -21, -3, -5, 0, 3, 966, 933, 666,N
2025-03-10 12:16:23.963,689, 476, 276, -36, 91, -37, -3, -1, 3, 957, 889, 649,N
2025-03-10 12:16:24.017,396, 622, 724, -6, 9, 3, -3, -1, 2, 959, 846, 510,N
2025-03-10 12:16:24.293,696, 576, 450, -1, 0, -1, -6, -1, 1, 953, 882, 429,O
2025-03-10 12:16:24.338,696, 575, 452, 0, -1, -1, -6, 1, 2, 955, 884, 437,O
2025-03-10 12:16:24.389,723, 569, 395, -1, -4, 0, -5, 1, 1, 953, 883, 439,O
2025-03-10 12:16:24.451,707, 598, 417, -1, -3, 3, -4, -2, 2, 954, 883, 475,O
2025-03-10 12:16:24.508,662, 583, 478, 6, -17, 7, -5, 1, 2, 957, 890, 505,O
2025-03-10 12:16:24.565,660, 550, 357, -14, -8, -21, -6, -1, 4, 961, 914, 299,O
2025-03-10 12:16:24.618,726, 609, 295, 61, 20, -1, -3, -1, 3, 973, 890, 26,O
2025-03-10 12:16:24.668,740, 670, 71, -14, 37, 37, -4, -1, 4, 980, 923, 107,O
2025-03-10 12:16:24.729,711, 374, 681, -19, -24, -12, -5, -1, 4, 968, 924, 552,O
2025-03-10 12:16:24.783,700, 588, 346, 0, -30, -26, -4, 1, 3, 928, 834, 473,O
2025-03-10 12:16:24.838,809, 575, 179, -40, 60, -27, -5, -1, 3, 929, 787, 322,O
2025-03-10 12:16:24.888,525, 623, 653, -23, 31, -7, -2, -1, 1, 931, 749, 238,O
2025-03-10 12:16:24.950,619, 621, 534, 5, -14, 5, -4, 0, 1, 922, 733, 256,O
2025-03-10 12:16:25.244,689, 597, 427, -1, -8, -1, -3, 1, 1, 912, 742, 185,P
2025-03-10 12:16:25.299,686, 591, 426, -2, -9, -1, -3, 1, 1, 912, 741, 179,P
2025-03-10 12:16:25.351,720, 590, 422, -6, -6, 1, -5, 0, 2, 913, 761, 146,P
2025-03-10 12:16:25.402,631, 578, 541, 9, -32, 4, -5, 1, 1, 920, 777, 207,P
2025-03-10 12:16:25.461,721, 704, 333, 17, -8, -14, -4, -1, 1, 948, 832, 36,P
2025-03-10 12:16:25.516,757, 869, 262, 29, 53, 49, -4, -1, 4, 975, 865, 74,P
2025-03-10 12:16:25.568,786, 701, 128, -19, 27, 15, -6, 0, 3, 969, 874, 86,P
2025-03-10 12:16:25.618,758, 623, 277, -9, -51, -43, -4, -1, 4, 957, 909, 535,P
2025-03-10 12:16:25.683,778, 901, 244, 25, -34, 11, -5, -2, 4, 979, 952, 646,P
2025-03-10 12:16:25.734,452, 657, 302, -29, 34, 24, -5, 1, 3, 983, 948, 473,P
2025-03-10 12:16:25.788,914, 457, 306, -37, 26, 15, -5, 0, 2, 969, 866, 143,P
2025-03-10 12:16:25.848,570, 611, 674, 0, 41, -36, -3, -1, -1, 969, 893, 442,P
2025-03-10 12:16:25.901,490, 629, 564, 21, -20, 14, -4, 1, 0, 967, 897, 554,P
2025-03-10 12:16:26.192,683, 581, 451, 2, -4, 2, -4, -1, 3, 953, 850, 433,Q
2025-03-10 12:16:26.238,692, 578, 441, 4, -5, 2, -4, 1, 1, 953, 854, 449,Q
2025-03-10 12:16:26.298,721, 581, 399, 0, -3, 2, -3, 0, 2, 954, 861, 457,Q
2025-03-10 12:16:26.351,628, 580, 494, 10, -16, 6, -5, 1, 2, 954, 869, 464,Q
2025-03-10 12:16:26.401,584, 657, 291, -2, -9, -21, -4, 0, 3, 966, 910, 354,Q
2025-03-10 12:16:26.461,708, 428, 502, 24, -9, -24, -5, -1, 4, 972, 907, 35,Q
2025-03-10 12:16:26.515,721, 730, 116, -33, 58, 72, -5, -1, 4, 982, 930, 185,Q
2025-03-10 12:16:26.568,448, 473, 876, 6, -13, -5, -4, 0, 2, 979, 945, 640,Q
2025-03-10 12:16:26.618,793, 510, 242, -34, -4, -24, -5, 0, 3, 961, 905, 551,Q
2025-03-10 12:16:26.683,620, 679, 688, 9, -13, 23, -4, -1, 4, 974, 924, 498,Q
2025-03-10 12:16:26.734,850, 683, 315, 22, 4, 24, -3, -1, 2, 988, 952, 462,Q
2025-03-10 12:16:26.788,699, 483, 370, -11, 26, 28, -5, 0, 2, 981, 932, 573,Q
2025-03-10 12:16:26.839,782, 453, 215, -75, 82, -45, -5, -1, 2, 954, 785, 315,Q
2025-03-10 12:16:26.901,400, 608, 808, -14, 6, -15, -3, 1, -3, 939, 697, 70,Q
2025-03-10 12:16:27.193,691, 569, 464, -2, -4, -3, -3, 2, 1, 916, 705, 60,R
2025-03-10 12:16:27.248,697, 566, 461, -3, -5, -3, -4, 1, 1, 913, 700, 45,R
2025-03-10 12:16:27.302,669, 570, 468, -1, -6, -3, -5, 1, 1, 911, 703, 29,R
2025-03-10 12:16:27.355,712, 561, 426, -3, -10, -4, -3, 1, 1, 909, 707, 66,R
2025-03-10 12:16:27.412,691, 583, 443, -8, -10, -11, -5, 0, 1, 901, 719, 37,R
2025-03-10 12:16:27.466,689, 569, 443, -5, -16, -1, -4, 1, 0, 917, 779, 69,R
2025-03-10 12:16:27.518,746, 562, 449, 11, -3, -13, -4, 1, 1, 947, 847, 53,R
2025-03-10 12:16:27.569,702, 1035, 238, 68, 44, 43, -4, -1, 3, 976, 888, 69,R
2025-03-10 12:16:27.625,691, 505, 124, 2, 23, 12, -6, 0, 2, 972, 887, 184,R
2025-03-10 12:16:27.682,678, 649, 455, -3, -37, -42, -4, 1, 3, 962, 915, 596,R
2025-03-10 12:16:27.738,803, 880, 384, 12, -33, 18, -4, 1, 3, 981, 954, 661,R
2025-03-10 12:16:27.788,421, 783, 331, -8, 26, 22, -5, 2, 2, 983, 945, 542,R
2025-03-10 12:16:27.838,848, 257, 364, -7, 16, 11, -6, 0, 3, 983, 921, 54,R
2025-03-10 12:16:27.899,704, 556, 553, -7, 10, 33, -5, 2, 3, 981, 935, 428,R
2025-03-10 12:16:27.951,571, 461, 484, -29, 57, -40, -4, 1, 1, 966, 895, 441,R
2025-03-10 12:16:28.014,517, 609, 642, -17, -7, -11, -2, -2, 0, 946, 796, 232,R
2025-03-10 12:16:28.309,695, 570, 460, 1, -13, 5, -5, 1, 0, 936, 776, 336,S
2025-03-10 12:16:28.366,701, 580, 439, 2, -12, 5, -5, 1, -1, 935, 776, 331,S
2025-03-10 12:16:28.418,716, 572, 431, 4, -6, 6, -4, 1, 0, 939, 785, 356,S
2025-03-10 12:16:28.468,682, 572, 450, 8, -10, 10, -6, -2, 1, 945, 806, 441,S
2025-03-10 12:16:28.528,686, 542, 409, 4, -14, -1, -7, 0, 1, 946, 849, 449,S
2025-03-10 12:16:28.583,553, 500, 578, 1, -4, -21, -5, 1, 2, 961, 900, 335,S
2025-03-10 12:16:28.634,956, 565, 238, 43, 9, -3, -4, -1, 1, 975, 911, 87,S
2025-03-10 12:16:28.688,581, 645, 487, -11, 29, 25, -6, -1, 5, 981, 931, 367,S
2025-03-10 12:16:28.748,755, 696, 384, -32, 27, 14, -5, -1, 2, 979, 907, 47,S
2025-03-10 12:16:28.800,973, 482, 493, -10, 17, 2, -6, 0, 1, 950, 766, 30,S
2025-03-10 12:16:28.858,614, 429, 558, -32, 62, -49, -5, 0, -1, 943, 788, 77,S
2025-03-10 12:16:28.906,411, 672, 676, -3, -7, 5, -1, 1, 0, 934, 777, 162,S
2025-03-10 12:16:29.228,667, 575, 475, -10, -12, -4, -4, 0, -1, 918, 799, 170,T
2025-03-10 12:16:29.290,669, 572, 476, -8, -12, -4, -4, 0, 1, 920, 801, 154,T
2025-03-10 12:16:29.339,712, 573, 447, -3, -15, 0, -5, 2, 1, 923, 803, 43,T
2025-03-10 12:16:29.398,706, 559, 429, -1, -6, -7, -3, -1, 1, 918, 806, 48,T
2025-03-10 12:16:29.450,581, 544, 556, 12, -18, -4, -3, 0, 1, 918, 818, 61,T
2025-03-10 12:16:29.508,798, 499, 362, 81, -21, -22, -3, 0, 3, 970, 915, 191,T
2025-03-10 12:16:29.566,686, 988, 443, -17, 12, 37, -3, -3, 4, 981, 947, 627,T
2025-03-10 12:16:29.618,667, 620, 344, -3, 12, 15, -7, -1, 3, 968, 918, 695,T
2025-03-10 12:16:29.668,588, 672, 563, -23, -7, -16, -5, 0, 3, 959, 865, 430,T
2025-03-10 12:16:29.731,957, 667, 363, 18, 18, 23, -4, 0, 4, 981, 919, 353,T
2025-03-10 12:16:29.783,792, 722, 112, -17, 44, 37, -5, 0, 4, 982, 890, 305,T
2025-03-10 12:16:29.840,874, 413, 190, -44, 42, -52, -7, 0, 1, 954, 787, 175,T
2025-03-10 12:16:29.898,468, 673, 833, -15, -6, -22, -4, 0, 1, 936, 815, 270,T
2025-03-10 12:16:30.278,700, 577, 393, -2, -5, -2, -4, 0, 1, 926, 797, 189,U
2025-03-10 12:16:30.334,708, 585, 408, -3, -5, -2, -5, -1, 1, 925, 803, 194,U
2025-03-10 12:16:30.388,708, 590, 413, -3, -2, 0, -4, -1, 2, 928, 815, 219,U
2025-03-10 12:16:30.443,691, 567, 424, -5, -2, 0, -4, 0, 2, 932, 820, 227,U
2025-03-10 12:16:30.497,710, 576, 414, -6, -4, -1, -4, -1, 0, 934, 825, 203,U
2025-03-10 12:16:30.554,673, 585, 435, -11, -10, -4, -4, 0, 1, 940, 847, 177,U
2025-03-10 12:16:30.608,712, 509, 467, -7, -5, -13, -4, 1, 2, 962, 885, 52,U
2025-03-10 12:16:30.664,747, 684, 337, 50, 18, 14, -4, -1, 2, 978, 904, 48,U
2025-03-10 12:16:30.718,435, 499, 331, 2, 22, 25, -4, -1, 3, 982, 914, 250,U
2025-03-10 12:16:30.770,578, 399, 583, -2, -16, -12, -6, 0, 2, 975, 933, 503,U
2025-03-10 12:16:30.828,658, 410, 653, 4, -18, -19, -5, -2, 3, 972, 937, 534,U
2025-03-10 12:16:30.881,700, 713, 337, 6, 39, 39, -4, -1, 3, 984, 936, 447,U
2025-03-10 12:16:30.938,856, 376, 450, -19, 16, -8, -3, -1, 3, 974, 915, 567,U
2025-03-10 12:16:30.988,633, 488, 669, -40, 31, -45, -4, 0, 3, 940, 874, 485,U
2025-03-10 12:16:31.298,701, 583, 433, -3, -3, -2, -4, 0, 1, 930, 813, 259,V
2025-03-10 12:16:31.350,698, 561, 430, -1, -3, -2, -4, -1, 2, 930, 812, 256,V
2025-03-10 12:16:31.408,714, 580, 436, -2, -5, -1, -4, -1, 2, 930, 806, 224,V
2025-03-10 12:16:31.466,714, 589, 406, 0, -1, -3, -4, -1, 0, 928, 799, 220,V
2025-03-10 12:16:31.518,673, 584, 446, -3, -7, -5, -5, -1, 2, 929, 811, 239,V
2025-03-10 12:16:31.578,700, 581, 433, 1, -20, -3, -5, -1, 3, 936, 848, 252,V
2025-03-10 12:16:31.631,751, 463, 588, 11, -8, -10, -4, 0, 1, 969, 901, 206,V
2025-03-10 12:16:31.683,806, 537, 391, 16, 37, 46, -4, 0, 4, 980, 909, 304,V
2025-03-10 12:16:31.738,619, 350, 646, -43, -19, -2, -5, 0, 3, 980, 941, 305,V
2025-03-10 12:16:31.798,616, 385, 606, 27, -21, -9, -6, -1, 2, 973, 948, 654,V
2025-03-10 12:16:31.849,824, 403, -4, -58, 108, -45, -5, 1, 0, 958, 899, 565,V
2025-03-10 12:16:31.909,387, 643, 848, -31, 41, -9, -3, 0, -2, 952, 768, 314,V
2025-03-10 12:16:32.217,686, 554, 442, -1, -1, -5, -5, 1, 2, 919, 732, 44,W
2025-03-10 12:16:32.265,678, 554, 458, 0, -2, -6, -5, 1, 0, 918, 735, 43,W
2025-03-10 12:16:32.318,672, 572, 460, 3, -10, -3, -4, 0, 1, 915, 747, 39,W
2025-03-10 12:16:32.368,693, 607, 431, -3, -13, -2, -4, 1, 1, 920, 778, 64,W
2025-03-10 12:16:32.430,724, 545, 471, 5, -5, -12, -4, -1, 0, 951, 830, 54,W
2025-03-10 12:16:32.478,487, 797, 431, 25, 17, 51, -4, 0, 2, 978, 906, 64,W
2025-03-10 12:16:32.532,635, 714, 207, -24, 18, 25, -6, -1, 1, 980, 918, 28,W
2025-03-10 12:16:32.589,596, 414, 331, 22, -33, -35, -5, 0, 0, 974, 938, 330,W
2025-03-10 12:16:32.646,605, 938, 124, 33, 26, 41, -6, 0, 0, 980, 918, 480,W
2025-03-10 12:16:32.698,748, 857, 8, -28, 22, 26, -6, 0, 0, 981, 933, 456,W
2025-03-10 12:16:32.749,676, 559, 544, 18, -18, -5, -5, 0, 0, 970, 912, 689,W
2025-03-10 12:16:32.808,668, 480, 499, -32, 59, -38, -5, 1, 1, 958, 853, 645,W
2025-03-10 12:16:33.092,709, 569, 430, 6, -12, 6, -4, 1, 0, 941, 742, 360,X
2025-03-10 12:16:33.148,710, 572, 423, 5, -11, 5, -5, 0, 0, 943, 740, 361,X
2025-03-10 12:16:33.202,736, 554, 395, 0, -3, 3, -6, 0, 1, 943, 741, 383,X
2025-03-10 12:16:33.257,729, 552, 441, -3, -5, 0, -4, -1, 1, 943, 745, 386,X
2025-03-10 12:16:33.308,706, 570, 479, -1, -11, 5, -5, 0, 1, 949, 798, 464,X
2025-03-10 12:16:33.368,758, 291, 303, -25, -24, -11, -6, 1, 1, 966, 876, 480,X
2025-03-10 12:16:33.420,926, 610, 425, 11, 15, 4, -6, 0, 1, 977, 897, 68,X
2025-03-10 12:16:33.470,680, 465, 39, -10, 42, 18, -6, 1, 1, 975, 851, 39,X
2025-03-10 12:16:33.532,891, 148, 418, -9, -20, -78, -5, 1, -1, 960, 864, 77,X
2025-03-10 12:16:33.584,826, 414, 640, 80, -31, -29, -6, 1, 2, 979, 939, 365,X
2025-03-10 12:16:33.638,797, 508, 400, -8, 47, 54, -6, -1, 4, 985, 944, 408,X
2025-03-10 12:16:33.696,923, 282, 275, -28, 28, -38, -7, 1, 4, 974, 907, 485,X
2025-03-10 12:16:33.753,633, 549, 703, -37, 32, -58, -3, -1, 0, 941, 807, 171,X
2025-03-10 12:16:34.050,700, 582, 389, -5, -2, -1, -4, 1, 1, 943, 859, 392,Y
2025-03-10 12:16:34.103,689, 560, 405, -3, -3, -2, -5, 1, 1, 944, 863, 391,Y
2025-03-10 12:16:34.158,702, 574, 416, 0, -3, -2, -4, 0, 3, 944, 873, 392,Y
2025-03-10 12:16:34.211,700, 583, 414, -5, 0, -3, -4, -1, 2, 944, 875, 370,Y
2025-03-10 12:16:34.265,676, 574, 444, -4, -9, -4, -4, 0, 1, 945, 884, 316,Y
2025-03-10 12:16:34.318,681, 515, 430, -6, -6, -15, -5, 0, 1, 964, 909, 88,Y
2025-03-10 12:16:34.375,625, 567, 195, 25, 13, 37, -3, 0, 3, 983, 939, 415,Y
2025-03-10 12:16:34.428,716, 653, 378, 9, 17, 26, -6, 0, 3, 982, 926, 607,Y
2025-03-10 12:16:34.482,578, 604, 629, -21, -2, -18, -5, -1, 4, 973, 914, 685,Y
2025-03-10 12:16:34.539,463, 918, 217, 19, -6, -1, -6, -1, 3, 983, 923, 569,Y
2025-03-10 12:16:34.588,828, 795, 85, 14, 45, 33, -6, 0, 3, 984, 888, 142,Y
2025-03-10 12:16:34.638,940, 696, 740, -5, 21, 18, -6, -1, 2, 958, 802, 585,Y
2025-03-10 12:16:34.698,574, 514, 596, -50, 41, -54, -3, -2, 3, 954, 844, 501,Y
2025-03-10 12:16:35.048,700, 571, 437, -3, -4, -3, -4, 0, 1, 952, 835, 314,Z
2025-03-10 12:16:35.102,692, 578, 437, -2, -4, -3, -5, 0, 1, 954, 838, 318,Z
2025-03-10 12:16:35.155,690, 588, 437, 2, -8, 1, -3, 0, 0, 952, 847, 322,Z
2025-03-10 12:16:35.208,645, 577, 447, 3, -11, 1, -7, 1, 2, 959, 851, 294,Z
2025-03-10 12:16:35.263,790, 543, 393, 1, -5, -17, -5, -1, 3, 975, 914, 68,Z
2025-03-10 12:16:35.315,670, 659, 98, 28, -7, 16, -4, -2, 2, 983, 952, 604,Z
2025-03-10 12:16:35.368,706, 513, 612, 12, -8, -2, -5, -2, 5, 984, 946, 692,Z
2025-03-10 12:16:35.421,562, 647, 349, 10, 34, 11, -3, -2, 3, 981, 894, 380,Z
2025-03-10 12:16:35.481,966, 375, 482, -3, 7, -7, -3, 1, 4, 975, 837, 32,Z
2025-03-10 12:16:35.531,409, 762, 516, 13, -15, 29, -5, -3, 3, 987, 946, 424,Z
2025-03-10 12:16:35.581,649, 535, 339, 11, 0, 10, -6, 0, 3, 989, 955, 612,Z
2025-03-10 12:16:35.638,645, 502, 249, -37, 11, -11, -6, -1, 6, 977, 905, 517,Z
2025-03-10 12:16:35.698,611, 602, 869, 20, 6, -30, -6, 0, 2, 962, 797, 37,Z
2025-03-10 12:16:35.755,961, 1097, 239, 49, -37, 11, -4, 0, 3, 984, 943, 494,Z
2025-03-10 12:16:35.808,602, 420, 256, 9, 12, 24, -7, -2, 3, 986, 951, 713,Z
2025-03-10 12:16:35.864,925, 438, 84, -58, 43, -40, -6, -1, 4, 968, 875, 665,Z
2025-03-10 12:16:35.923,629, 650, 694, -51, 66, -42, -4, -1, 2, 943, 649, 102,Z
2025-03-10 12:16:36.208,491, 675, 572, -12, -13, -63, 1, -2, 0, 831, 329, 37,a
2025-03-10 12:16:36.265,462, 591, 618, 8, -34, -54, 1, -2, 0, 827, 344, 24,a
2025-03-10 12:16:36.318,480, 777, 347, -4, -12, -45, 3, -3, 2, 853, 419, 134,a
2025-03-10 12:16:36.378,353, 818, 491, 17, -15, 21, 3, -2, 0, 898, 543, 235,a
2025-03-10 12:16:36.433,455, 807, 317, 12, 22, 94, 1, -4, 2, 931, 677, 312,a
2025-03-10 12:16:36.488,736, 611, 306, 6, -12, 58, -1, -2, 3, 944, 746, 287,a
2025-03-10 12:16:36.541,746, 568, 469, -6, -1, 36, -2, -1, 2, 957, 808, 324,a
2025-03-10 12:16:36.598,715, 595, 367, 8, -5, 15, -3, -2, 3, 961, 840, 343,a
2025-03-10 12:16:36.648,570, 626, 539, 18, -39, 25, -5, -2, 3, 965, 870, 483,a
2025-03-10 12:16:36.708,532, 518, 291, -19, -19, -24, -3, -1, 4, 974, 919, 260,a
2025-03-10 12:16:36.764,596, 575, 153, 37, 4, -12, -5, -2, 5, 979, 914, 114,a
2025-03-10 12:16:36.818,823, 784, 263, -37, 25, 30, -4, -2, 4, 982, 918, 42,a
2025-03-10 12:16:36.868,513, 486, 520, 16, -35, -23, -4, -1, 3, 976, 924, 362,a
2025-03-10 12:16:36.930,594, 1086, -42, 1, 26, 26, -4, -2, 4, 980, 925, 358,a
2025-03-10 12:16:36.988,682, 652, 491, -9, 20, 20, -6, -1, 2, 976, 913, 461,a
2025-03-10 12:16:37.045,668, 561, 459, -33, 14, -33, -6, 2, 1, 966, 895, 450,a
2025-03-10 12:16:37.368,694, 597, 386, -6, -6, -3, -4, -1, 1, 946, 819, 185,b
2025-03-10 12:16:37.418,678, 588, 382, -4, -7, -4, -5, 0, 2, 942, 815, 155,b
2025-03-10 12:16:37.470,707, 592, 436, -1, -6, 1, -3, -1, 2, 940, 837, 228,b
2025-03-10 12:16:37.530,718, 567, 343, -2, 3, -8, -5, -1, 4, 952, 862, 141,b
2025-03-10 12:16:37.580,923, 664, 417, 53, 17, 20, -6, 0, 3, 972, 878, 144,b
2025-03-10 12:16:37.638,558, 725, 176, -10, 33, 26, -5, -1, 4, 974, 837, 43,b
2025-03-10 12:16:37.696,928, 173, 673, 23, -27, -31, -4, -2, 3, 959, 855, 48,b
2025-03-10 12:16:37.753,651, 812, 445, -1, -18, 18, -4, -2, 3, 978, 924, 381,b
2025-03-10 12:16:37.808,708, 960, 175, -45, 37, 25, -4, 0, 3, 982, 909, 35,b
2025-03-10 12:16:37.856,899, 385, 463, -6, 22, 6, -6, 0, 1, 964, 759, 42,b
2025-03-10 12:16:37.914,659, 429, 413, -30, 73, -58, -4, 0, 2, 941, 794, 36,b
2025-03-10 12:16:37.964,297, 699, 669, 5, -18, 10, -2, 0, -2, 946, 838, 292,b
2025-03-10 12:16:38.248,698, 567, 433, 2, -7, 2, -4, 0, 3, 946, 807, 115,c
2025-03-10 12:16:38.298,713, 580, 423, 1, -6, 2, -4, 1, 2, 945, 803, 123,c
2025-03-10 12:16:38.357,702, 572, 450, 2, -5, 3, -5, 0, 1, 946, 803, 176,c
2025-03-10 12:16:38.408,693, 566, 428, 10, -15, 3, -3, -1, 3, 947, 805, 288,c
2025-03-10 12:16:38.463,728, 521, 333, 7, -7, -13, -6, 1, 2, 958, 849, 223,c
2025-03-10 12:16:38.515,718, 498, 576, 8, -4, -10, -6, 1, 2, 972, 885, 62,c
2025-03-10 12:16:38.568,802, 726, -70, -37, 42, 27, -6, -1, 4, 980, 890, 37,c
2025-03-10 12:16:38.619,767, 534, 674, 14, 11, 32, -7, 0, 3, 976, 922, 252,c
2025-03-10 12:16:38.681,772, 505, 104, -50, 63, -46, -4, 0, 4, 946, 873, 445,c
2025-03-10 12:16:38.731,504, 681, 751, -40, 2, -12, -3, -2, 0, 933, 770, 30,c
2025-03-10 12:16:38.788,635, 583, 545, 8, -24, 9, -3, 1, -1, 926, 727, 51,c
2025-03-10 12:16:39.098,689, 562, 445, 4, -4, 0, -4, 0, 1, 932, 784, 60,d
2025-03-10 12:16:39.148,698, 560, 439, 3, -4, 1, -4, -1, 2, 932, 784, 66,d
2025-03-10 12:16:39.198,685, 575, 451, 5, -6, 2, -5, -1, 1, 934, 786, 92,d
2025-03-10 12:16:39.257,680, 571, 442, 6, -9, 4, -5, -1, 1, 936, 795, 135,d
2025-03-10 12:16:39.310,729, 560, 399, 8, -14, 7, -5, -1, 3, 938, 813, 234,d
2025-03-10 12:16:39.368,702, 489, 244, -2, -1, -14, -4, -1, 2, 944, 858, 203,d
2025-03-10 12:16:39.418,549, 470, 553, 8, -1, -18, -4, -1, 3, 966, 895, 30,d
2025-03-10 12:16:39.468,1024, 952, 196, 1, 37, 36, -6, -1, 4, 980, 900, 50,d
2025-03-10 12:16:39.531,725, 670, 377, -45, 17, 28, -6, -1, 2, 979, 929, 28,d
2025-03-10 12:16:39.588,699, 630, 525, -13, -51, -38, -5, 0, 3, 961, 925, 412,d
2025-03-10 12:16:39.638,587, 789, 245, 53, 8, 5, -5, -1, 3, 978, 922, 340,d
2025-03-10 12:16:39.696,824, 370, 268, -10, 37, 31, -5, 0, 3, 983, 917, 64,d
2025-03-10 12:16:39.750,865, 342, 339, -11, 2, -36, -4, 1, 2, 966, 894, 395,d
2025-03-10 12:16:39.801,527, 651, 712, -11, 9, -21, -3, 0, 1, 958, 896, 344,d
2025-03-10 12:16:40.123,718, 580, 440, -4, -4, 0, -5, 1, 2, 950, 849, 226,e
2025-03-10 12:16:40.180,705, 566, 426, -4, -3, 0, -5, -2, 1, 950, 845, 215,e
2025-03-10 12:16:40.233,715, 567, 438, -1, -3, -2, -4, -1, 2, 949, 834, 162,e
2025-03-10 12:16:40.285,729, 581, 417, -4, -2, -1, -5, 0, 2, 948, 828, 69,e
2025-03-10 12:16:40.338,684, 543, 459, 1, -1, 0, -6, 0, 0, 946, 817, 42,e
2025-03-10 12:16:40.388,704, 557, 441, 2, -5, 1, -5, -1, 1, 949, 821, 25,e
2025-03-10 12:16:40.438,685, 567, 460, 4, -7, 5, -6, 1, 1, 950, 822, 39,e
2025-03-10 12:16:40.494,742, 667, 382, -2, 5, -5, -5, 0, 3, 970, 878, 42,e
2025-03-10 12:16:40.547,613, 453, 305, -3, 10, 21, -5, 1, 3, 981, 925, 314,e
2025-03-10 12:16:40.598,616, 481, 497, -8, -18, -15, -7, 1, 1, 973, 925, 473,e
2025-03-10 12:16:40.648,734, 569, 472, 8, -1, -25, -6, 1, 3, 976, 908, 36,e
2025-03-10 12:16:40.711,936, 1036, 118, -26, 30, 42, -4, 0, 4, 986, 925, 51,e
2025-03-10 12:16:40.764,679, 491, 707, 13, -9, 5, -7, 0, 1, 975, 906, 445,e
2025-03-10 12:16:40.813,673, 481, 564, -4, 10, -14, -5, -1, 1, 946, 816, 449,e
2025-03-10 12:16:40.868,733, 556, 341, -6, 1, -3, -5, -1, 3, 942, 770, 372,e
2025-03-10 12:16:41.188,755, 528, 371, 0, -1, 0, -5, 0, 2, 942, 742, 291,f
2025-03-10 12:16:41.248,754, 527, 383, -1, 0, -1, -5, 0, 2, 944, 747, 310,f
2025-03-10 12:16:41.298,706, 579, 460, -2, 2, 5, -6, 0, 3, 948, 753, 331,f
2025-03-10 12:16:41.349,725, 561, 398, -1, 1, 6, -5, -1, 4, 953, 760, 304,f
2025-03-10 12:16:41.399,724, 577, 382, -6, 4, -1, -8, 1, 2, 965, 807, 139,f
2025-03-10 12:16:41.461,695, 390, 367, -23, 1, -20, -5, 1, 3, 970, 892, 26,f
2025-03-10 12:16:41.519,1107, 586, 268, 28, -58, -28, -6, -1, 1, 979, 948, 423,f
2025-03-10 12:16:41.569,714, 769, 337, 18, -11, 12, -5, -1, 3, 983, 938, 605,f
2025-03-10 12:16:41.629,785, 376, 381, -24, 34, -26, -6, -1, 3, 974, 914, 317,f
2025-03-10 12:16:41.683,927, 91, 361, 54, -11, -27, -5, 0, 3, 976, 916, 104,f
2025-03-10 12:16:41.738,503, 577, 224, 4, 11, 32, -6, -2, 3, 986, 946, 413,f
2025-03-10 12:16:41.788,733, 565, 478, -3, 7, 7, -6, 0, 3, 977, 913, 600,f
2025-03-10 12:16:41.848,662, 504, 422, -55, 48, -45, -6, -1, 0, 961, 803, 343,f
2025-03-10 12:16:42.117,721, 586, 409, 0, 1, 8, -5, -1, 3, 960, 779, 499,g
2025-03-10 12:16:42.166,718, 575, 406, 1, 1, 9, -7, -2, 1, 963, 788, 506,g
2025-03-10 12:16:42.218,654, 566, 480, 5, -14, 15, -5, 0, 3, 968, 815, 524,g
2025-03-10 12:16:42.270,750, 609, 293, -23, -6, -11, -5, 0, 2, 971, 863, 400,g
2025-03-10 12:16:42.330,919, 418, 535, -5, -8, -16, -6, -1, 3, 975, 893, 150,g
2025-03-10 12:16:42.382,864, 851, 183, -4, 27, 31, -5, 0, 4, 985, 893, 44,g
2025-03-10 12:16:42.444,735, 419, 442, -25, 31, 25, -5, -1, 2, 984, 912, 177,g
2025-03-10 12:16:42.497,764, 457, 506, 24, -24, -30, -6, 0, 4, 967, 887, 565,g
2025-03-10 12:16:42.548,646, 692, 345, 2, 11, 19, -7, -1, 3, 981, 895, 441,g
2025-03-10 12:16:42.608,740, 550, 304, -49, 35, 28, -6, 0, 3, 982, 882, 46,g
2025-03-10 12:16:42.661,980, 189, 506, -5, 3, -40, -6, -1, 1, 947, 629, 65,g
2025-03-10 12:16:42.718,636, 409, 508, -13, 56, -58, -3, 1, -1, 881, 657, 45,g
2025-03-10 12:16:43.018,673, 558, 489, 3, -7, 3, -4, -1, 1, 912, 716, 191,h
2025-03-10 12:16:43.068,683, 577, 475, 3, -10, 3, -5, 0, 2, 913, 718, 204,h
2025-03-10 12:16:43.118,730, 549, 419, -3, -10, 1, -5, 0, 1, 917, 739, 192,h
2025-03-10 12:16:43.180,682, 566, 442, -7, -14, -4, -6, 1, 1, 923, 771, 292,h
2025-03-10 12:16:43.234,735, 479, 518, 29, -5, -12, -4, 0, 1, 958, 853, 272,h
2025-03-10 12:16:43.288,792, 799, 159, 12, 48, 44, -5, 1, 3, 981, 885, 52,h
2025-03-10 12:16:43.338,744, 471, 384, -12, 14, 9, -6, 1, 2, 982, 876, 36,h
2025-03-10 12:16:43.394,758, 322, 498, 20, -37, -26, -6, 0, 1, 979, 914, 70,h
2025-03-10 12:16:43.446,624, 532, 506, 8, -16, 2, -6, 0, 3, 985, 928, 390,h
2025-03-10 12:16:43.498,837, 448, 394, -8, 24, 26, -7, 0, 3, 989, 920, 213,h
2025-03-10 12:16:43.558,865, 269, 477, 8, 6, -19, -6, 2, 0, 974, 866, 424,h
2025-03-10 12:16:43.610,620, 517, 572, -28, 45, -45, -5, 0, 1, 958, 835, 361,h
2025-03-10 12:16:43.918,705, 527, 460, 5, -7, 6, -6, 2, -1, 950, 753, 266,i
2025-03-10 12:16:43.968,718, 530, 450, 7, -9, 5, -6, 2, -1, 950, 753, 294,i
2025-03-10 12:16:44.023,743, 539, 395, 2, -7, 0, -5, 0, 2, 952, 763, 337,i
2025-03-10 12:16:44.078,651, 530, 583, 18, -36, 8, -5, 0, 3, 961, 827, 466,i
2025-03-10 12:16:44.129,789, 542, 453, 12, 2, 0, -5, 0, 3, 981, 890, 333,i
2025-03-10 12:16:44.179,705, 577, 366, -5, 26, 28, -8, 1, 4, 984, 890, 123,i
2025-03-10 12:16:44.238,862, 239, 190, -23, -15, -91, -4, 0, 2, 968, 883, 430,i
2025-03-10 12:16:44.298,593, -560, -220, 33, -29, -27, -5, 2, 3, 975, 927, 439,i
2025-03-10 12:16:44.348,849, 635, 376, 25, 19, 8, -5, -1, 4, 974, 886, 517,i
2025-03-10 12:16:44.408,754, 528, 204, -18, 67, -27, -7, 0, 3, 966, 817, 448,i
2025-03-10 12:16:44.728,714, 560, 432, -2, 3, 4, -6, -2, 3, 956, 760, 424,j
2025-03-10 12:16:44.779,721, 548, 428, -1, 3, 4, -7, 0, 3, 957, 757, 419,j
2025-03-10 12:16:44.832,711, 531, 427, -5, 0, 2, -6, -1, 1, 956, 754, 394,j
2025-03-10 12:16:44.882,670, 550, 497, 1, -15, 6, -6, 0, 2, 958, 792, 457,j
2025-03-10 12:16:44.939,758, 588, 364, -7, 6, 5, -8, 0, 4, 974, 846, 382,j
2025-03-10 12:16:44.988,787, 761, 326, -54, 37, 42, -8, 2, 2, 981, 869, 48,j
2025-03-10 12:16:45.048,798, -114, 678, -24, -24, -48, -8, 2, -1, 975, 865, 23,j
2025-03-10 12:16:45.098,405, 758, 1030, 1, -44, -26, -5, -1, 0, 974, 925, 209,j
2025-03-10 12:16:45.163,759, 627, -101, 26, -15, -2, -6, 0, 3, 985, 922, 245,j
2025-03-10 12:16:45.212,920, 184, 380, -19, 35, 11, -7, 3, 1, 974, 880, 407,j
2025-03-10 12:16:45.268,632, 570, 542, -26, 62, -36, -5, 0, -1, 968, 854, 39,j
2025-03-10 12:16:45.326,462, 546, 735, 4, -6, 2, -5, 0, -2, 966, 843, 50,j
2025-03-10 12:16:45.620,709, 552, 443, 3, -11, 2, -7, 1, 1, 950, 779, 211,k
2025-03-10 12:16:45.668,708, 534, 434, 3, -12, 2, -7, 0, 2, 951, 780, 226,k
2025-03-10 12:16:45.723,712, 548, 408, 7, -15, 1, -6, 1, 2, 950, 802, 318,k
2025-03-10 12:16:45.778,732, 681, 431, 2, -7, -9, -6, 0, 1, 965, 854, 289,k
2025-03-10 12:16:45.830,761, 610, 402, 23, 3, 1, -6, -1, 3, 978, 870, 254,k
2025-03-10 12:16:45.880,958, 561, 280, -3, 28, 24, -6, -1, 3, 980, 835, 48,k
2025-03-10 12:16:45.938,1019, 720, 547, 22, 4, 14, -7, 0, 3, 981, 915, 40,k
2025-03-10 12:16:45.995,770, 547, 290, 28, -21, -1, -8, -1, 3, 983, 945, 566,k
2025-03-10 12:16:46.048,720, 611, 341, -4, -4, -5, -7, 0, 5, 972, 879, 505,k
2025-03-10 12:16:46.098,680, 588, 673, -9, 5, -4, -6, -1, 2, 968, 760, 29,k
2025-03-10 12:16:46.148,655, 499, 212, 0, 5, 30, -7, -2, 4, 985, 918, 286,k
2025-03-10 12:16:46.208,714, 63, 355, 15, 22, 22, -7, 0, 4, 983, 920, 491,k
2025-03-10 12:16:46.263,810, 427, 128, -35, 38, -55, -7, 1, 4, 963, 827, 396,k
2025-03-10 12:16:46.318,579, 735, 831, -11, 6, -30, -4, 0, 1, 943, 759, 126,k
2025-03-10 12:16:46.582,729, 565, 427, -2, 1, -1, -5, 0, 3, 952, 807, 541,l
2025-03-10 12:16:46.638,720, 568, 434, -1, 1, 0, -6, 1, 2, 952, 807, 537,l
2025-03-10 12:16:46.690,736, 569, 396, -1, -4, 0, -5, -2, 3, 951, 807, 543,l
2025-03-10 12:16:46.744,732, 575, 398, 0, -2, 0, -6, -2, 1, 953, 816, 552,l
2025-03-10 12:16:46.798,717, 569, 430, -1, -11, -2, -7, 1, 3, 953, 821, 566,l
2025-03-10 12:16:46.848,724, 559, 427, -7, -17, 1, -6, 1, 3, 959, 847, 547,l
2025-03-10 12:16:46.908,735, 526, 433, 0, -3, -5, -6, -1, 3, 964, 860, 485,l
2025-03-10 12:16:46.960,702, 682, 322, 25, 14, 10, -6, -1, 4, 979, 872, 377,l
2025-03-10 12:16:47.011,720, 738, 90, -26, 33, 31, -8, 0, 4, 982, 853, 29,l
2025-03-10 12:16:47.068,965, 468, 516, 11, 7, -3, -6, 0, 4, 967, 809, 436,l
2025-03-10 12:16:47.118,440, 713, 849, -1, -3, -22, -5, 0, 4, 965, 843, 448,l
2025-03-10 12:16:47.179,768, 515, 255, 18, -36, 21, -6, 1, 3, 968, 858, 562,l
2025-03-10 12:16:47.231,802, 541, 345, -12, 15, -2, -6, -1, 4, 965, 829, 482,l
2025-03-10 12:16:47.288,724, 562, 411, -5, 9, -5, -5, 0, 4, 964, 830, 494,l
2025-03-10 12:16:47.347,756, 547, 344, -11, 14, -10, -6, -1, 3, 962, 823, 485,l
2025-03-10 12:16:47.398,652, 580, 486, -12, 11, -8, -5, -1, 2, 959, 794, 452,l
2025-03-10 12:16:47.448,729, 585, 415, -1, -7, 1, -5, -1, 3, 958, 772, 409,l
2025-03-10 12:16:48.172,733, 569, 380, 2, -6, 1, -7, -1, 3, 951, 770, 306,m
2025-03-10 12:16:48.228,718, 571, 375, 1, -5, 1, -4, -1, 3, 952, 768, 286,m
2025-03-10 12:16:48.281,726, 558, 398, -4, 0, -3, -6, -1, 3, 950, 773, 264,m
2025-03-10 12:16:48.338,720, 565, 407, 2, -8, -5, -5, -1, 1, 949, 788, 267,m
2025-03-10 12:16:48.388,685, 568, 459, 6, -21, -2, -6, -1, 4, 954, 830, 326,m
2025-03-10 12:16:48.448,759, 525, 412, 14, -6, -10, -5, -1, 3, 967, 875, 290,m
2025-03-10 12:16:48.499,526, 560, 395, 9, 26, 15, -5, -1, 5, 977, 874, 174,m
2025-03-10 12:16:48.556,751, 595, 127, -24, 25, 9, -5, -1, 5, 975, 884, 42,m
2025-03-10 12:16:48.612,743, 575, 375, -2, -40, -20, -4, 1, 4, 975, 904, 445,m
2025-03-10 12:16:48.662,639, 761, 76, 3, 13, 17, -5, 0, 5, 982, 905, 434,m
2025-03-10 12:16:48.718,760, 658, 35, -22, 21, 15, -6, -1, 4, 981, 903, 297,m
2025-03-10 12:16:48.776,844, 634, 571, 15, -37, -12, -6, 0, 4, 980, 917, 526,m
2025-03-10 12:16:48.828,653, 661, 97, -4, 36, 29, -7, 1, 4, 983, 907, 560,m
2025-03-10 12:16:48.878,936, 354, 234, -34, 38, -24, -8, -1, 4, 977, 875, 576,m
2025-03-10 12:16:48.938,684, 607, 651, -35, 16, -43, -5, 0, -1, 961, 842, 477,m
2025-03-10 12:16:49.341,711, 570, 392, -7, -3, 1, -5, 1, 2, 939, 694, 97,n
2025-03-10 12:16:49.398,723, 559, 396, -4, -2, 1, -5, 1, 2, 940, 698, 115,n
2025-03-10 12:16:49.449,713, 558, 426, 4, -1, 0, -6, -1, 2, 939, 704, 111,n
2025-03-10 12:16:49.499,724, 585, 425, 0, -3, 2, -5, 2, 2, 940, 719, 179,n
2025-03-10 12:16:49.559,725, 561, 398, 1, -7, 1, -6, 1, 3, 942, 734, 261,n
2025-03-10 12:16:49.612,708, 590, 415, 1, -11, -3, -5, -1, 4, 941, 757, 296,n
2025-03-10 12:16:49.663,718, 544, 373, 2, -5, 1, -5, -1, 4, 943, 771, 351,n
2025-03-10 12:16:49.718,726, 524, 449, 2, -1, -10, -5, 0, 4, 966, 856, 322,n
2025-03-10 12:16:49.776,959, 621, 385, -14, 29, 33, -5, 1, 2, 981, 878, 191,n
2025-03-10 12:16:49.828,759, 601, 184, -14, 22, 11, -6, 0, 3, 976, 878, 32,n
2025-03-10 12:16:49.878,712, 736, 517, 20, -47, -14, -5, -1, 3, 978, 911, 527,n
2025-03-10 12:16:49.938,723, 509, 80, -4, 24, 18, -7, -1, 4, 985, 923, 522,n
2025-03-10 12:16:49.992,879, 419, 421, -9, 31, 14, -6, -1, 3, 981, 885, 595,n
2025-03-10 12:16:50.048,631, 516, 680, -21, 22, -43, -6, 0, 2, 965, 859, 544,n
2025-03-10 12:16:50.340,711, 557, 419, -2, 1, 0, -5, -1, 4, 956, 803, 441,o
2025-03-10 12:16:50.393,729, 566, 431, -2, -1, 0, -6, 1, 2, 958, 801, 444,o
2025-03-10 12:16:50.443,741, 567, 409, -2, 0, 0, -5, 1, 2, 956, 800, 435,o
2025-03-10 12:16:50.498,737, 560, 396, -1, -1, 0, -5, -1, 3, 959, 805, 448,o
2025-03-10 12:16:50.548,739, 562, 413, 0, 0, 0, -8, 2, 3, 958, 802, 446,o
2025-03-10 12:16:50.598,734, 553, 416, 4, -2, 2, -7, 0, 3, 959, 819, 490,o
2025-03-10 12:16:50.649,723, 558, 413, 9, -12, 5, -7, -1, 3, 962, 838, 532,o
2025-03-10 12:16:50.711,712, 522, 401, -8, -5, -12, -7, -1, 3, 966, 874, 442,o
2025-03-10 12:16:50.768,645, 383, 650, 17, -22, -22, -6, -1, 3, 972, 909, 199,o
2025-03-10 12:16:50.820,894, 924, -85, -39, 57, 70, -7, -1, 5, 984, 909, 238,o
2025-03-10 12:16:50.878,745, 331, 849, -15, -13, -11, -7, 1, 3, 982, 935, 527,o
2025-03-10 12:16:50.938,736, 654, 191, 10, -24, -24, -6, -1, 4, 962, 882, 610,o
2025-03-10 12:16:50.994,660, 543, 324, -41, 71, -34, -4, 0, 3, 953, 797, 464,o
2025-03-10 12:16:51.048,510, 560, 678, 2, 7, 9, -5, -1, 1, 955, 734, 467,o
2025-03-10 12:16:51.098,672, 563, 498, 18, -28, 16, -4, 0, 3, 948, 738, 504,o
2025-03-10 12:16:51.148,781, 549, 307, 8, -16, 1, -6, 0, 4, 944, 719, 559,o
2025-03-10 12:16:51.209,747, 566, 369, -7, 6, -5, -5, -2, 2, 937, 682, 492,o
2025-03-10 12:16:51.488,703, 572, 448, -1, 2, -2, -5, -1, 3, 931, 671, 386,p
2025-03-10 12:16:51.541,695, 582, 453, -1, 1, -1, -3, 0, 2, 929, 671, 386,p
2025-03-10 12:16:51.594,717, 570, 405, -2, -1, 0, -6, 0, 3, 930, 672, 385,p
2025-03-10 12:16:51.646,701, 571, 442, -1, 0, -2, -4, 1, 2, 931, 671, 362,p
2025-03-10 12:16:51.698,716, 570, 415, -3, -1, -1, -4, -1, 2, 931, 676, 388,p
2025-03-10 12:16:51.758,707, 569, 426, -6, 0, -4, -5, -1, 3, 927, 673, 372,p
2025-03-10 12:16:51.811,694, 587, 430, -1, -5, 0, -6, -1, 2, 932, 699, 395,p
2025-03-10 12:16:51.863,711, 568, 454, 2, -5, 2, -5, -1, 2, 932, 710, 379,p
2025-03-10 12:16:51.918,689, 592, 439, 5, -16, 7, -5, -1, 1, 936, 731, 426,p
2025-03-10 12:16:51.968,671, 569, 414, 10, -30, 6, -6, 0, 4, 939, 776, 472,p
2025-03-10 12:16:52.028,761, 457, 459, 5, -5, -11, -5, -2, 2, 962, 852, 391,p
2025-03-10 12:16:52.078,1002, 605, 124, 6, 54, 52, -6, 0, 5, 982, 852, 258,p
2025-03-10 12:16:52.135,801, 627, 183, -15, 36, 18, -8, 1, 3, 979, 874, 194,p
2025-03-10 12:16:52.193,1025, 661, 514, 30, -66, -57, -7, -2, 5, 971, 913, 650,p
2025-03-10 12:16:52.248,594, 606, 476, 6, -35, -2, -4, -1, 4, 983, 933, 678,p
2025-03-10 12:16:52.298,1010, 1047, -41, -26, 49, 29, -7, -2, 4, 984, 911, 450,p
2025-03-10 12:16:52.360,1229, 184, 330, -28, 37, -42, -7, 1, 4, 968, 836, 542,p
2025-03-10 12:16:52.418,586, 687, 687, -47, 61, -64, -5, -1, 2, 954, 795, 472,p
2025-03-10 12:16:52.478,470, 639, 672, -9, 16, -14, -2, -1, -2, 932, 658, 404,p
2025-03-10 12:16:53.152,850, 773, 499, 4, -5, 0, -3, -1, 4, 889, 684, 169,q
2025-03-10 12:16:53.198,848, 821, 467, -7, -5, 3, -4, 0, 3, 894, 694, 169,q
2025-03-10 12:16:53.261,594, 500, 454, -5, -5, 6, -4, -1, 3, 911, 733, 187,q
2025-03-10 12:16:53.310,730, 612, 346, 1, -8, 5, -3, 1, 3, 921, 760, 298,q
2025-03-10 12:16:53.360,755, 624, 295, -1, 8, -4, -4, -1, 5, 924, 749, 295,q
2025-03-10 12:16:53.416,664, 616, 396, 2, 2, 7, -5, -2, 2, 936, 771, 357,q
2025-03-10 12:16:53.468,702, 331, 241, 9, -10, -19, -5, 0, 2, 949, 831, 342,q
2025-03-10 12:16:53.528,886, 571, 593, -7, -16, -13, -5, -1, 5, 960, 868, 125,q
2025-03-10 12:16:53.578,897, 926, -98, -21, 27, 13, -5, -1, 5, 977, 838, 42,q
2025-03-10 12:16:53.642,632, 546, 634, -33, 15, 23, -4, -1, 3, 972, 887, 66,q
2025-03-10 12:16:53.693,651, 517, 632, 17, -16, -11, -4, 0, 3, 971, 900, 422,q
2025-03-10 12:16:53.748,911, 674, 327, -10, 35, 29, -4, 0, 4, 979, 815, 49,q
2025-03-10 12:16:53.798,688, 640, 671, -14, 8, 15, -6, -2, 4, 977, 911, 262,q
2025-03-10 12:16:53.859,997, 415, 70, -20, 17, -15, -5, 0, 4, 959, 884, 659,q
2025-03-10 12:16:53.912,477, 662, 770, -46, 41, -34, -5, 0, 0, 953, 754, 446,q
2025-03-10 12:16:54.208,735, 582, 396, 0, -2, -1, -4, 0, 3, 939, 756, 270,r
2025-03-10 12:16:54.264,724, 583, 389, -1, 0, 0, -4, -1, 3, 939, 763, 273,r
2025-03-10 12:16:54.318,700, 591, 411, -1, -4, -2, -5, 0, 2, 936, 760, 244,r
2025-03-10 12:16:54.368,728, 569, 403, -3, -3, 0, -4, 1, 3, 937, 758, 219,r
2025-03-10 12:16:54.428,805, 529, 388, -8, 1, -3, -6, -1, 2, 949, 793, 226,r
2025-03-10 12:16:54.478,709, 502, 542, 7, -7, -8, -6, -1, 2, 964, 844, 151,r
2025-03-10 12:16:54.532,917, 581, 363, -17, 35, 22, -4, 0, 4, 976, 830, 69,r
2025-03-10 12:16:54.588,712, 535, 575, -33, 17, 8, -4, -1, 1, 970, 885, 37,r
2025-03-10 12:16:54.644,704, 569, 448, 8, -20, -9, -5, -1, 1, 975, 936, 447,r
2025-03-10 12:16:54.698,772, 842, 229, -2, 26, 27, -5, -1, 2, 972, 900, 604,r
2025-03-10 12:16:54.748,598, 555, 458, -36, 50, -19, -5, 0, 2, 963, 819, 367,r
2025-03-10 12:16:54.809,588, 557, 583, 3, -15, 5, -4, -1, 0, 960, 802, 285,r
2025-03-10 12:16:55.128,705, 554, 458, -3, -1, 1, -4, -1, 1, 948, 778, 268,s
2025-03-10 12:16:55.178,698, 553, 464, -1, -2, 0, -5, 1, 1, 949, 779, 266,s
2025-03-10 12:16:55.233,724, 567, 446, -1, -3, 3, -4, 0, 1, 951, 784, 298,s
2025-03-10 12:16:55.278,712, 549, 451, 1, -3, 5, -3, 1, 1, 954, 786, 348,s
2025-03-10 12:16:55.342,600, 555, 523, 15, -30, 10, -5, 0, 1, 960, 826, 431,s
2025-03-10 12:16:55.392,732, 448, 479, -5, -3, -14, -4, 0, 1, 967, 882, 104,s
2025-03-10 12:16:55.448,784, 555, 372, 42, 6, -9, -5, 0, 1, 976, 886, 44,s
2025-03-10 12:16:55.498,633, 522, 461, 13, 20, 14, -5, 0, 3, 982, 903, 129,s
2025-03-10 12:16:55.548,578, 590, 416, -47, 36, 20, -6, 1, 3, 976, 859, 53,s
2025-03-10 12:16:55.611,1064, 423, 389, -7, 14, -14, -5, -1, 1, 942, 715, 42,s
2025-03-10 12:16:55.668,597, 509, 698, -19, 55, -42, -4, -1, 0, 934, 717, 33,s
2025-03-10 12:16:55.720,447, 594, 676, 8, -6, 6, -2, -1, -1, 932, 700, 162,s
2025-03-10 12:16:56.013,668, 576, 495, 10, -16, 6, -5, 0, -1, 918, 707, 57,t
2025-03-10 12:16:56.069,669, 575, 498, 12, -17, 7, -4, 0, 0, 919, 704, 84,t
2025-03-10 12:16:56.124,708, 553, 427, 10, -21, 5, -6, -1, 1, 930, 717, 218,t
2025-03-10 12:16:56.177,674, 579, 502, 2, -34, 0, -5, 0, 2, 942, 791, 359,t
2025-03-10 12:16:56.235,546, 576, 533, -8, -20, -19, -3, 0, 3, 968, 886, 226,t
2025-03-10 12:16:56.288,910, 769, 125, 53, 49, 21, -5, -1, 3, 982, 884, 64,t
2025-03-10 12:16:56.344,790, 729, 254, -7, 46, 39, -5, -1, 3, 982, 900, 206,t
2025-03-10 12:16:56.398,736, 330, 349, -28, -28, -63, -6, 0, 3, 964, 888, 571,t
2025-03-10 12:16:56.449,677, 583, 741, 12, -72, -24, -6, 0, 2, 968, 878, 83,t
2025-03-10 12:16:56.509,279, 851, 118, -57, 2, 40, -5, -2, 1, 984, 937, 279,t
2025-03-10 12:16:56.561,630, 557, 541, 1, 9, 22, -6, -1, 2, 979, 912, 597,t
2025-03-10 12:16:56.619,657, 465, 333, -54, 52, -41, -5, 0, 2, 952, 747, 388,t
2025-03-10 12:16:56.918,706, 559, 410, -1, 0, 0, -5, -1, 2, 927, 673, 112,u
2025-03-10 12:16:56.968,706, 555, 433, 0, -1, -2, -5, 1, 2, 925, 667, 86,u
2025-03-10 12:16:57.018,717, 578, 419, -1, -5, -2, -3, 1, 2, 927, 681, 98,u
2025-03-10 12:16:57.074,692, 580, 427, 0, -6, -1, -6, 0, 2, 927, 707, 102,u
2025-03-10 12:16:57.128,695, 510, 366, -12, -9, -4, -4, 1, 2, 939, 772, 61,u
2025-03-10 12:16:57.178,740, 576, 527, 4, -9, -8, -4, -1, 2, 966, 827, 64,u
2025-03-10 12:16:57.238,633, 813, 179, 29, 17, 20, -4, -1, 3, 979, 862, 39,u
2025-03-10 12:16:57.291,787, 429, 361, -8, 12, 14, -4, -1, 3, 976, 894, 430,u
2025-03-10 12:16:57.348,855, 584, 404, -14, -29, -23, -5, 1, 2, 962, 905, 522,u
2025-03-10 12:16:57.398,942, 979, 70, 14, 29, 24, -5, -2, 5, 980, 910, 420,u
2025-03-10 12:16:57.459,730, 543, 228, -12, 35, 27, -5, 1, 3, 981, 905, 416,u
2025-03-10 12:16:57.512,819, 515, 158, -23, 17, -41, -7, 1, 1, 958, 872, 533,u
2025-03-10 12:16:57.574,558, 629, 645, -19, 11, -32, -3, -1, -1, 934, 819, 348,u
2025-03-10 12:16:57.849,708, 580, 440, 0, -1, -1, -5, 1, 3, 920, 705, 82,v
2025-03-10 12:16:57.898,709, 568, 439, 0, -1, -1, -5, 1, 3, 921, 703, 81,v
2025-03-10 12:16:57.951,709, 571, 405, -3, 0, -1, -6, 0, 5, 921, 709, 89,v
2025-03-10 12:16:58.008,700, 587, 427, 0, -2, -1, -4, -1, 1, 921, 710, 78,v
2025-03-10 12:16:58.062,656, 557, 499, 5, -23, -1, -5, -1, 3, 925, 767, 53,v
2025-03-10 12:16:58.118,773, 513, 397, -12, -1, -11, -5, 0, 2, 955, 837, 28,v
2025-03-10 12:16:58.170,848, 649, 397, 34, 25, 43, -4, -2, 4, 978, 873, 41,v
2025-03-10 12:16:58.225,652, 469, 174, -3, 20, 16, -6, 0, 1, 980, 862, 21,v
2025-03-10 12:16:58.279,700, 488, 372, -8, -35, -26, -5, 1, 1, 977, 934, 376,v
2025-03-10 12:16:58.328,1014, 651, 47, -15, 20, -2, -7, -1, 4, 960, 886, 589,v
2025-03-10 12:16:58.393,556, 681, 650, -59, 81, -35, -5, 0, 2, 953, 678, 73,v
2025-03-10 12:16:58.445,470, 523, 744, 3, -12, 1, -3, 0, -3, 948, 658, 48,v
2025-03-10 12:16:58.788,696, 568, 468, 2, -3, -2, -5, -2, 1, 895, 528, 40,w
2025-03-10 12:16:58.843,703, 568, 459, 0, -4, -2, -5, -2, 1, 894, 530, 36,w
2025-03-10 12:16:58.895,697, 568, 439, 3, -5, 0, -3, 0, 1, 892, 544, 42,w
2025-03-10 12:16:58.948,697, 589, 446, 8, -8, -3, -4, -1, 2, 892, 578, 41,w
2025-03-10 12:16:58.998,640, 557, 474, 10, -11, -2, -5, 0, 1, 886, 596, 41,w
2025-03-10 12:16:59.059,907, 476, 397, 36, -13, -24, -5, -1, 3, 955, 778, 23,w
2025-03-10 12:16:59.110,803, 754, 336, -9, 38, 43, -5, -1, 1, 979, 866, 60,w
2025-03-10 12:16:59.168,722, 498, 281, -1, 24, 17, -5, -2, 3, 979, 866, 67,w
2025-03-10 12:16:59.224,499, 332, 659, 18, -35, -31, -7, 0, 2, 974, 913, 312,w
2025-03-10 12:16:59.278,872, 618, 471, 29, -17, 3, -5, 0, 3, 978, 900, 413,w
2025-03-10 12:16:59.328,867, 519, 212, -23, 18, 37, -6, 1, 3, 981, 888, 28,w
2025-03-10 12:16:59.388,713, 362, 756, 49, -27, -18, -7, 1, 1, 978, 924, 452,w
2025-03-10 12:16:59.441,823, 353, 10, -55, 83, -42, -6, 1, 3, 963, 834, 587,w
2025-03-10 12:16:59.768,724, 548, 437, -5, -8, 0, -5, 0, 1, 927, 635, 22,x
2025-03-10 12:16:59.823,711, 533, 437, -2, -7, 0, -5, 1, 1, 930, 640, 27,x
2025-03-10 12:16:59.875,728, 543, 443, 1, -14, 0, -5, -1, 2, 933, 686, 58,x
2025-03-10 12:16:59.928,750, 554, 408, 8, -10, 0, -5, -1, 2, 936, 702, 47,x
2025-03-10 12:16:59.978,718, 553, 451, 9, -8, 3, -6, 0, 2, 944, 752, 221,x
2025-03-10 12:17:00.040,806, 490, 360, -6, -11, -5, -6, -2, 3, 950, 796, 260,x
2025-03-10 12:17:00.092,681, 542, 475, -17, -7, -10, -6, -1, 2, 966, 857, 61,x
2025-03-10 12:17:00.148,521, 821, 370, 28, 31, -12, -5, -2, 3, 974, 859, 53,x
2025-03-10 12:17:00.198,939, 591, 8, -44, 37, 13, -6, 0, 0, 960, 757, 34,x
2025-03-10 12:17:00.256,630, 402, 522, 51, -43, -45, -5, 0, 3, 937, 819, 58,x
2025-03-10 12:17:00.309,785, 1062, 208, 24, -27, 16, -5, -1, 4, 980, 905, 26,x
2025-03-10 12:17:00.359,735, 441, 363, -25, 37, 37, -7, 0, 3, 982, 899, 310,x
2025-03-10 12:17:00.424,661, 469, 206, -37, 44, -53, -6, 1, 1, 953, 786, 263,x
2025-03-10 12:17:00.475,549, 708, 851, -8, -8, -20, -4, 1, -1, 915, 713, 42,x
2025-03-10 12:17:00.748,702, 570, 451, -3, -1, -2, -6, -1, 2, 926, 755, 82,y
2025-03-10 12:17:00.798,700, 565, 438, -2, -2, -2, -6, 0, 1, 926, 756, 65,y
2025-03-10 12:17:00.848,711, 567, 403, -3, -2, -2, -5, 1, 3, 928, 755, 79,y
2025-03-10 12:17:00.908,706, 565, 435, -6, -3, -3, -5, 0, 2, 923, 757, 99,y
2025-03-10 12:17:00.959,695, 561, 423, -5, -1, -3, -5, 0, 1, 922, 724, 46,y
2025-03-10 12:17:01.009,640, 553, 545, 7, -27, 4, -5, -1, 2, 930, 770, 63,y
2025-03-10 12:17:01.067,813, 579, 384, 59, 0, -9, -4, -1, 2, 969, 831, 35,y
2025-03-10 12:17:01.118,745, 643, 280, 32, 17, 20, -5, 0, 3, 976, 885, 377,y
2025-03-10 12:17:01.178,797, 329, 444, -13, -7, -20, -6, -1, 5, 955, 865, 668,y
2025-03-10 12:17:01.228,440, 754, 942, 34, -32, 37, -4, -1, 3, 958, 861, 683,y
2025-03-10 12:17:01.288,430, 822, -6, -17, 34, 26, -6, -1, 4, 983, 904, 367,y
2025-03-10 12:17:01.341,580, 495, 418, -58, 42, 17, -6, 1, 2, 973, 811, 57,y
2025-03-10 12:17:01.398,1022, 388, 169, -64, 29, -56, -6, 1, 1, 921, 670, 49,y
2025-03-10 12:17:01.448,441, 752, 998, 11, -29, -21, -2, 1, 0, 922, 784, 50,y
2025-03-10 12:17:01.812,731, 587, 407, -5, -1, 0, -7, -1, 1, 914, 728, 40,z
2025-03-10 12:17:01.860,722, 571, 406, -6, 0, 1, -5, 0, 2, 917, 730, 44,z
2025-03-10 12:17:01.911,707, 570, 432, 1, 0, 0, -4, 0, 1, 921, 736, 35,z
2025-03-10 12:17:01.968,741, 279, 346, 0, -5, -18, -3, 0, 1, 939, 771, 30,z
2025-03-10 12:17:02.018,1035, 700, 527, 72, -17, 0, -4, 0, 5, 972, 898, 98,z
2025-03-10 12:17:02.075,531, 685, 393, 24, 1, 13, -4, 1, 5, 981, 910, 515,z
2025-03-10 12:17:02.128,325, 539, 319, -38, 50, 8, -6, -1, 5, 978, 857, 50,z
2025-03-10 12:17:02.178,826, 675, 279, 21, 6, 3, -6, 1, 2, 982, 873, 24,z
2025-03-10 12:17:02.228,847, 636, 541, -14, -6, 19, -7, 0, 3, 982, 911, 120,z
2025-03-10 12:17:02.293,716, 372, 170, -22, 16, -50, -7, -1, 4, 962, 795, 241,z
2025-03-10 12:17:02.343,664, 697, 895, 35, -71, 34, -6, 0, 3, 968, 798, 50,z
2025-03-10 12:17:02.398,555, 887, 98, -43, -17, 40, -6, -1, 2, 985, 933, 261,z
2025-03-10 12:17:02.456,622, 573, 438, 12, 7, 15, -7, -1, 5, 978, 892, 580,z
2025-03-10 12:17:02.509,791, 466, 137, -84, 62, -46, -6, 0, 2, 941, 680, 207,z
2025-03-10 12:17:02.838,706, 567, 431, 3, -6, 1, -4, -1, 2, 918, 693, 196,0
2025-03-10 12:17:02.894,717, 567, 420, 2, -6, 0, -4, -1, 2, 917, 690, 186,0
2025-03-10 12:17:02.948,722, 583, 421, -1, -3, -1, -7, 1, 3, 920, 695, 212,0
2025-03-10 12:17:03.005,724, 597, 418, -6, -2, -1, -5, 0, 3, 921, 699, 167,0
2025-03-10 12:17:03.058,720, 567, 413, -4, -1, -3, -4, 0, 3, 927, 709, 125,0
2025-03-10 12:17:03.110,707, 557, 441, -6, 0, -1, -5, -1, 2, 934, 716, 105,0
2025-03-10 12:17:03.161,721, 571, 433, -5, -1, -3, -5, 0, 1, 938, 726, 133,0
2025-03-10 12:17:03.218,708, 574, 443, -5, -2, -1, -5, 0, 2, 944, 745, 95,0
2025-03-10 12:17:03.270,717, 563, 421, -7, 1, -1, -5, -1, 2, 949, 768, 97,0
2025-03-10 12:17:03.324,718, 567, 447, -5, -2, 0, -5, 0, 1, 953, 778, 69,0
2025-03-10 12:17:03.378,715, 555, 424, 1, -2, 1, -5, -1, 2, 957, 782, 58,0
2025-03-10 12:17:03.425,726, 560, 417, 9, -1, 4, -5, 0, 2, 958, 803, 194,0
2025-03-10 12:17:03.478,719, 577, 433, 2, 1, 0, -5, 0, 3, 958, 796, 293,0
2025-03-10 12:17:03.528,711, 559, 419, -1, -1, -1, -5, 1, 2, 957, 795, 296,0
2025-03-10 12:17:03.580,708, 570, 425, -4, -2, -1, -5, 1, 2, 959, 795, 240,0
2025-03-10 12:17:03.640,706, 582, 399, -5, -7, 3, -5, -1, 2, 960, 819, 212,0
2025-03-10 12:17:03.692,672, 750, 414, -1, -10, -22, -5, 1, 0, 965, 891, 132,0
2025-03-10 12:17:03.748,494, 457, 559, 14, -3, -36, -7, -1, 2, 973, 909, 42,0
2025-03-10 12:17:03.807,1250, 1113, 0, 66, 46, 45, -4, -1, 3, 985, 909, 53,0
2025-03-10 12:17:03.859,476, 680, 586, -49, 16, 34, -6, 0, 3, 984, 933, 205,0
2025-03-10 12:17:03.918,728, 514, 381, 12, -34, -34, -4, 1, 1, 960, 908, 463,0
2025-03-10 12:17:03.974,940, 489, 138, -31, 27, -25, -3, -1, 3, 932, 830, 365,0
2025-03-10 12:17:04.286,708, 582, 416, -2, -3, 0, -5, 0, 2, 919, 746, 215,1
2025-03-10 12:17:04.340,715, 581, 409, -3, -3, 0, -6, 1, 2, 920, 747, 207,1
2025-03-10 12:17:04.390,713, 591, 411, -3, -1, -1, -6, -1, 2, 922, 762, 222,1
2025-03-10 12:17:04.441,699, 571, 425, -1, -4, 0, -5, 0, 3, 925, 766, 219,1
2025-03-10 12:17:04.498,720, 556, 404, -2, -1, -1, -4, -1, 2, 926, 767, 230,1
2025-03-10 12:17:04.548,706, 578, 422, -3, -3, 0, -6, 1, 2, 931, 779, 237,1
2025-03-10 12:17:04.609,700, 581, 420, -5, -3, -2, -5, 1, 1, 934, 786, 203,1
2025-03-10 12:17:04.659,578, 567, 601, 17, -27, 10, -4, -1, 2, 948, 816, 37,1
2025-03-10 12:17:04.717,820, 638, 251, 30, 2, -3, -5, 0, 3, 972, 919, 111,1
2025-03-10 12:17:04.768,707, 390, 458, 2, -6, 11, -5, -1, 3, 982, 940, 547,1
2025-03-10 12:17:04.823,881, 764, 273, 40, 26, 20, -5, 1, 4, 987, 931, 516,1
2025-03-10 12:17:04.878,911, 270, 279, -27, 44, 28, -6, 0, 3, 986, 916, 335,1
2025-03-10 12:17:04.938,601, 418, 541, -2, 18, -33, -5, -2, 4, 974, 832, 327,1
2025-03-10 12:17:04.991,976, 598, 415, -10, -19, -3, -6, -1, 4, 978, 894, 59,1
2025-03-10 12:17:05.040,349, 243, 227, 15, -2, 28, -5, 1, 4, 985, 925, 445,1
2025-03-10 12:17:05.098,839, 463, 269, -6, 9, -40, -6, 0, 5, 953, 795, 599,1
2025-03-10 12:17:05.155,638, 569, 570, -86, 63, -76, -4, -1, 2, 877, 447, 52,1
2025-03-10 12:17:05.432,716, 586, 374, -6, -3, 0, -4, 0, 3, 887, 700, 194,2
2025-03-10 12:17:05.478,714, 580, 377, -6, -2, 0, -4, -2, 3, 889, 698, 195,2
2025-03-10 12:17:05.541,684, 573, 442, -4, -4, -3, -5, -1, 0, 893, 722, 187,2
2025-03-10 12:17:05.592,707, 570, 397, -6, -5, -2, -5, 0, 2, 887, 716, 175,2
2025-03-10 12:17:05.647,708, 589, 420, -7, -1, 0, -3, 0, 1, 851, 673, 49,2
2025-03-10 12:17:05.698,713, 577, 422, -2, -7, 1, -5, 0, 3, 859, 699, 35,2
2025-03-10 12:17:05.748,615, 559, 477, 3, -21, 2, -6, -1, 3, 883, 743, 63,2
2025-03-10 12:17:05.806,848, 515, 346, 27, -12, -16, -3, -1, 3, 944, 850, 45,2
2025-03-10 12:17:05.864,621, 714, 266, 18, -18, 36, -5, -1, 3, 974, 896, 497,2
2025-03-10 12:17:05.918,727, 638, 217, 19, 28, 19, -6, -2, 5, 974, 856, 475,2
2025-03-10 12:17:05.974,890, 483, 320, -24, 18, -1, -5, 1, 3, 977, 824, 35,2
2025-03-10 12:17:06.024,787, 394, 339, 0, 7, 30, -7, 1, 3, 984, 931, 443,2
2025-03-10 12:17:06.073,712, 513, 425, 18, 8, 11, -5, 0, 4, 976, 885, 606,2
2025-03-10 12:17:06.128,683, 454, 228, -63, 67, -62, -5, -2, 3, 931, 713, 368,2
2025-03-10 12:17:06.188,538, 703, 833, -14, -2, -8, -4, 0, 1, 892, 536, 38,2
2025-03-10 12:17:06.241,673, 544, 456, 21, -32, 9, -6, -1, 1, 865, 519, 54,2
2025-03-10 12:17:06.298,805, 567, 276, -3, -18, 2, -6, 0, 3, 841, 482, 38,2
2025-03-10 12:17:06.348,705, 591, 409, -6, 8, -10, -4, 1, 3, 840, 448, 43,2
2025-03-10 12:17:06.398,672, 568, 447, -3, 0, 1, -4, -1, 2, 837, 475, 68,2
2025-03-10 12:17:06.858,689, 579, 443, -8, -7, -4, -4, -2, 1, 825, 590, 36,3
2025-03-10 12:17:06.908,694, 578, 444, -9, -7, -5, -5, -2, 2, 827, 594, 36,3
2025-03-10 12:17:06.968,696, 570, 458, -6, -7, -3, -5, -1, 1, 851, 640, 43,3
2025-03-10 12:17:07.023,692, 577, 438, -1, -11, -3, -5, 0, 1, 855, 654, 20,3
2025-03-10 12:17:07.076,712, 585, 422, 5, -6, 0, -4, -1, 3, 862, 676, 36,3
2025-03-10 12:17:07.126,680, 571, 431, 2, -3, 0, -4, -1, 2, 866, 683, 42,3
2025-03-10 12:17:07.178,621, 601, 526, 22, -38, 15, -5, 1, 4, 892, 730, 42,3
2025-03-10 12:17:07.228,846, 389, 261, 55, 0, -14, -5, 1, 3, 954, 833, 158,3
2025-03-10 12:17:07.289,712, 431, 314, 15, -1, 6, -4, -2, 4, 967, 874, 459,3
2025-03-10 12:17:07.342,655, 672, 225, 4, 13, 5, -5, -1, 4, 971, 859, 337,3
2025-03-10 12:17:07.392,797, 534, 225, 2, 12, 4, -7, -2, 4, 977, 865, 32,3
2025-03-10 12:17:07.448,671, 576, 464, 4, 14, 10, -6, -1, 5, 981, 882, 143,3
2025-03-10 12:17:07.498,608, 638, 257, -30, 22, 8, -6, -2, 4, 975, 800, 33,3
2025-03-10 12:17:07.556,1033, 303, 483, -15, 19, -2, -5, 1, 2, 917, 597, 47,3
2025-03-10 12:17:07.608,616, 448, 599, -27, 63, -51, -2, -1, 0, 884, 602, 23,3
2025-03-10 12:17:07.658,432, 646, 675, 6, -20, 2, -3, -1, -1, 887, 684, 58,3
2025-03-10 12:17:07.970,696, 567, 438, 1, -11, 3, -4, 0, 1, 882, 726, 33,4
2025-03-10 12:17:08.022,698, 562, 439, 5, -11, 3, -4, 0, 3, 884, 727, 43,4
2025-03-10 12:17:08.074,722, 558, 418, 2, -11, 4, -7, 0, 2, 882, 733, 40,4
2025-03-10 12:17:08.128,716, 567, 399, -1, -8, -2, -6, 1, 3, 885, 740, 112,4
2025-03-10 12:17:08.178,709, 574, 400, -8, -10, -2, -6, -1, 2, 901, 770, 195,4
2025-03-10 12:17:08.239,713, 614, 442, 9, -5, -7, -5, -1, 1, 942, 840, 290,4
2025-03-10 12:17:08.292,720, 597, 440, -5, -5, -3, -5, -1, 2, 964, 878, 284,4
2025-03-10 12:17:08.348,579, 752, 381, 27, 15, -2, -5, -1, 4, 973, 862, 45,4
2025-03-10 12:17:08.398,637, 450, 351, -20, 25, 12, -5, -1, 3, 975, 828, 42,4
2025-03-10 12:17:08.458,122, 893, 116, -26, -8, 45, -6, 0, 3, 981, 928, 173,4
2025-03-10 12:17:08.508,683, 555, 442, 14, -2, 8, -5, -1, 1, 971, 888, 542,4
2025-03-10 12:17:08.566,518, 599, 404, -45, 4, -46, -6, 0, 3, 960, 835, 373,4
2025-03-10 12:17:08.618,729, 886, 277, 8, -18, 0, -5, 0, 2, 979, 889, 246,4
2025-03-10 12:17:08.674,784, 771, 150, -5, 44, 41, -6, -1, 2, 984, 862, 41,4
2025-03-10 12:17:08.724,707, 617, 446, 3, 19, 11, -6, 1, 3, 958, 628, 36,4
2025-03-10 12:17:09.098,697, 550, 448, -2, -3, -4, -5, 0, 0, 898, 679, 62,5
2025-03-10 12:17:09.157,704, 555, 454, -1, -4, -4, -3, -1, 1, 895, 678, 57,5
2025-03-10 12:17:09.211,709, 563, 437, -1, -4, 0, -5, -1, 1, 897, 683, 43,5
2025-03-10 12:17:09.261,680, 561, 446, 0, -4, -4, -5, 0, 0, 902, 710, 70,5
2025-03-10 12:17:09.311,616, 568, 532, 9, -24, 6, -5, 0, 2, 906, 701, 29,5
2025-03-10 12:17:09.368,778, 519, 322, 40, -6, -17, -4, 0, 3, 958, 839, 40,5
2025-03-10 12:17:09.418,786, 499, 482, 6, -4, 8, -5, 0, 1, 967, 877, 335,5
2025-03-10 12:17:09.473,629, 540, 254, 0, -11, 15, -6, 0, 3, 975, 894, 538,5
2025-03-10 12:17:09.528,586, 493, 481, -10, -3, -7, -7, 0, 3, 970, 895, 520,5
2025-03-10 12:17:09.588,1694, 467, 309, 14, 10, -28, -5, -1, 4, 971, 880, 105,5
2025-03-10 12:17:09.640,688, 904, 151, 4, 31, 44, -6, -2, 5, 983, 924, 382,5
2025-03-10 12:17:09.695,677, 714, 410, -4, 10, 14, -8, 1, 3, 985, 916, 305,5
2025-03-10 12:17:09.746,708, 404, 387, -53, 27, -9, -6, 1, 3, 964, 681, 57,5
2025-03-10 12:17:09.805,924, 390, 140, -45, 53, -43, -7, 1, 3, 911, 506, 49,5
2025-03-10 12:17:09.858,444, 771, 871, 1, 30, -22, -2, 1, -1, 895, 573, 60,5
2025-03-10 12:17:09.910,549, 583, 538, 7, -31, 11, -2, 1, -2, 890, 597, 65,5
2025-03-10 12:17:10.218,737, 587, 400, -2, -2, 1, -5, -1, 1, 925, 758, 281,6
2025-03-10 12:17:10.273,734, 566, 394, -4, -1, 0, -5, 1, 0, 925, 758, 284,6
2025-03-10 12:17:10.328,668, 576, 495, 1, -1, -1, -4, 1, 1, 929, 771, 315,6
2025-03-10 12:17:10.373,730, 569, 412, 5, -4, 3, -5, 0, 3, 927, 775, 341,6
2025-03-10 12:17:10.428,696, 567, 457, 3, 0, 1, -5, 1, 0, 928, 782, 361,6
2025-03-10 12:17:10.478,714, 570, 421, 0, -4, 3, -5, 0, 1, 934, 793, 390,6
2025-03-10 12:17:10.537,610, 591, 505, 13, -25, 10, -6, -2, 2, 945, 819, 435,6
2025-03-10 12:17:10.593,676, 569, 367, -23, -8, -22, -6, 0, 1, 960, 883, 333,6
2025-03-10 12:17:10.639,710, 581, 412, 57, 6, -16, -5, -1, 3, 973, 892, 33,6
2025-03-10 12:17:10.698,498, 722, 209, -26, 46, 59, -5, -1, 5, 983, 913, 48,6
2025-03-10 12:17:10.758,634, 476, 746, -18, -5, 2, -6, -1, 2, 975, 922, 338,6
2025-03-10 12:17:10.808,985, 518, 188, -2, 6, -13, -4, 1, 4, 890, 814, 366,6
2025-03-10 12:17:10.868,626, 427, 446, -57, 99, -58, -4, 1, 1, 885, 783, 173,6
2025-03-10 12:17:10.922,406, 624, 758, -28, 12, -5, 1, 1, -2, 887, 741, 31,6
2025-03-10 12:17:10.978,549, 603, 656, 17, -40, 13, -2, -1, -2, 868, 726, 136,6
2025-03-10 12:17:11.288,665, 566, 445, 9, -15, 2, -4, 0, 0, 839, 748, 26,7
2025-03-10 12:17:11.348,646, 588, 476, 10, -15, 3, -4, 0, 0, 840, 748, 43,7
2025-03-10 12:17:11.398,601, 583, 520, 23, -32, 8, -4, 0, 1, 855, 750, 49,7
2025-03-10 12:17:11.455,827, 538, 278, 21, -1, -9, -4, 0, 1, 933, 870, 50,7
2025-03-10 12:17:11.508,519, 518, 381, 1, 12, 20, -4, -1, 1, 966, 909, 482,7
2025-03-10 12:17:11.559,570, 885, 293, 46, 25, 10, -6, 1, 4, 976, 900, 436,7
2025-03-10 12:17:11.618,734, 552, 111, -17, 27, 12, -5, -1, 4, 975, 873, 205,7
2025-03-10 12:17:11.671,621, 346, 448, -42, -17, -53, -5, 0, 4, 936, 788, 61,7
2025-03-10 12:17:11.728,867, 731, 482, 30, -12, -19, -5, -1, 3, 958, 862, 32,7
2025-03-10 12:17:11.787,724, 469, 169, 8, -11, 30, -6, -1, 3, 980, 929, 455,7
2025-03-10 12:17:11.840,893, 422, 295, -2, 17, -17, -5, -1, 1, 967, 881, 619,7
2025-03-10 12:17:11.891,612, 623, 604, -76, 57, -41, -3, 1, 1, 938, 718, 65,7
2025-03-10 12:17:11.948,593, 563, 574, -1, -18, 9, -3, -1, -1, 920, 700, 42,7
2025-03-10 12:17:12.238,715, 581, 436, 9, -3, 7, -4, -1, 2, 925, 752, 275,8
2025-03-10 12:17:12.298,690, 578, 421, 8, -3, 7, -5, -1, 3, 924, 747, 277,8
2025-03-10 12:17:12.348,716, 560, 412, 8, -5, 7, -5, -1, 3, 930, 748, 296,8
2025-03-10 12:17:12.409,665, 539, 441, 7, -15, -9, -6, 0, 3, 943, 794, 328,8
2025-03-10 12:17:12.458,721, 621, 431, -11, 2, -11, -3, -1, 3, 952, 845, 191,8
2025-03-10 12:17:12.520,708, 546, 424, 11, -10, -20, -6, -1, 4, 964, 870, 37,8
2025-03-10 12:17:12.573,706, 767, 221, -7, 36, 43, -4, 0, 5, 980, 880, 65,8
2025-03-10 12:17:12.624,710, 578, 492, 7, 16, 10, -5, -1, 4, 975, 905, 163,8
2025-03-10 12:17:12.681,407, 454, 373, 10, -53, -55, -5, -1, 4, 944, 910, 347,8
2025-03-10 12:17:12.737,707, 665, 511, 4, -36, -2, -5, -2, 4, 971, 929, 517,8
2025-03-10 12:17:12.791,487, 885, 70, -11, 29, 24, -5, -1, 6, 981, 921, 386,8
2025-03-10 12:17:12.841,726, 553, 329, -20, 26, 6, -5, -1, 4, 955, 828, 280,8
2025-03-10 12:17:12.904,708, 496, 397, -37, 52, -39, -3, 0, 3, 921, 793, 134,8
2025-03-10 12:17:12.954,459, 624, 649, 0, 4, 0, -2, 0, 0, 921, 776, 174,8
2025-03-10 12:17:13.289,717, 575, 411, 9, -11, 8, -5, 0, 2, 909, 763, 290,9
2025-03-10 12:17:13.343,707, 582, 406, 9, -12, 8, -6, 0, 4, 910, 765, 293,9
2025-03-10 12:17:13.398,686, 564, 415, 11, -22, 5, -6, 1, 3, 924, 806, 328,9
2025-03-10 12:17:13.453,630, 619, 406, -2, -5, -20, -5, -1, 3, 946, 878, 57,9
2025-03-10 12:17:13.506,930, 626, 305, 72, 20, 1, -3, -1, 3, 971, 885, 51,9
2025-03-10 12:17:13.558,664, 462, 244, -8, 33, 24, -4, 0, 3, 976, 912, 166,9
2025-03-10 12:17:13.618,593, 360, 569, 11, -33, -19, -6, -1, 2, 957, 898, 460,9
2025-03-10 12:17:13.671,811, 569, 366, 32, -2, -5, -5, 0, 4, 963, 873, 501,9
2025-03-10 12:17:13.728,350, 815, 67, -17, 58, 41, -6, 0, 3, 977, 867, 203,9
2025-03-10 12:17:13.778,466, 503, 400, -32, 22, -1, -6, -1, 4, 950, 727, 35,9
2025-03-10 12:17:13.831,873, 453, 168, -45, 44, -54, -5, 0, 2, 758, 610, 45,9
2025-03-10 12:17:13.891,486, 785, 806, -20, 25, -38, -2, -1, 0, 716, 622, 44,9
2025-03-10 12:17:13.948,562, 619, 575, -5, -16, 12, -3, 0, -1, 744, 514, 49,9
2025-03-10 12:17:13.998,735, 549, 449, -4, -17, 4, -1, 1, 1, 748, 470, 60,9
2025-03-10 12:17:14.048,683, 578, 471, -9, 4, -7, -3, 0, -1, 768, 403, 42,9
2025-03-10 12:17:14.368,658, 557, 499, -1, -2, -1, -2, 0, -1, 784, 544, 31,+
2025-03-10 12:17:14.423,661, 554, 499, 0, -2, -1, -2, 0, -1, 786, 545, 38,+
2025-03-10 12:17:14.478,648, 580, 500, -3, 1, -2, -1, 0, 0, 774, 554, 26,+
2025-03-10 12:17:14.528,652, 582, 506, -1, -2, 0, -3, 1, 1, 774, 590, 39,+
2025-03-10 12:17:14.578,670, 577, 496, 1, -1, -3, -3, 0, -1, 742, 596, 53,+
2025-03-10 12:17:14.628,658, 589, 501, 3, -3, -1, -2, 0, -1, 720, 592, 18,+
2025-03-10 12:17:14.686,657, 596, 499, -2, -3, 2, -4, 1, 0, 766, 610, 65,+
2025-03-10 12:17:14.739,653, 591, 494, 4, -13, 7, -3, -1, 1, 800, 636, 41,+
2025-03-10 12:17:14.789,630, 554, 524, 7, -22, 2, -3, -1, -1, 820, 688, 43,+
2025-03-10 12:17:14.839,567, 590, 570, 26, -59, 9, -4, -1, 2, 864, 768, 57,+
2025-03-10 12:17:14.904,834, 685, 298, 0, -11, -19, -5, -1, 3, 941, 835, 33,+
2025-03-10 12:17:14.955,849, 854, 79, -14, 39, 40, -2, -1, 4, 974, 863, 63,+
2025-03-10 12:17:15.008,782, 582, 341, 10, 17, 14, -5, 0, 3, 969, 823, 63,+
2025-03-10 12:17:15.058,827, 290, 318, -24, 4, -23, -4, 0, 3, 937, 772, 206,+
2025-03-10 12:17:15.120,620, 713, 711, -8, 3, -16, -4, -1, 1, 936, 783, 160,+
2025-03-10 12:17:15.172,666, 588, 442, 2, -8, 2, -4, 0, 3, 937, 792, 195,+
2025-03-10 12:17:15.222,747, 551, 376, -2, -8, 3, -4, 1, 2, 936, 795, 233,+
2025-03-10 12:17:15.272,705, 604, 440, -5, 1, -4, -3, 0, 2, 937, 803, 261,+
2025-03-10 12:17:15.328,710, 579, 412, -3, -4, -1, -5, -1, 2, 937, 806, 220,+
2025-03-10 12:17:15.386,713, 567, 414, -8, 0, -3, -5, -1, 2, 940, 816, 198,+
2025-03-10 12:17:15.440,671, 570, 478, 3, -5, -4, -4, 0, 2, 941, 816, 131,+
2025-03-10 12:17:15.489,615, 575, 437, 13, -8, -2, -5, -1, 1, 941, 810, 49,+
2025-03-10 12:17:15.548,703, 676, 496, 0, -10, -17, -4, -1, 3, 966, 858, 40,+
2025-03-10 12:17:15.603,488, 418, 196, 11, -7, 44, -5, 0, 4, 987, 945, 404,+
2025-03-10 12:17:15.656,700, 655, 476, 18, 6, 9, -5, 0, 3, 985, 934, 590,+
2025-03-10 12:17:15.708,950, 410, -52, -57, 61, -73, -5, 0, 4, 955, 850, 466,+
2025-03-10 12:17:15.768,495, 688, 944, -25, 44, -34, -2, 0, -1, 910, 675, 57,+
2025-03-10 12:17:15.821,560, 616, 589, 12, -14, 13, -2, 0, 0, 871, 630, 39,+
2025-03-10 12:17:16.291,678, 608, 457, 1, -11, 8, -3, 0, 1, 898, 735, 37,-
2025-03-10 12:17:16.348,673, 589, 439, 1, -11, 8, -2, -1, 1, 904, 747, 42,-
2025-03-10 12:17:16.403,684, 579, 426, 5, -8, 11, -4, -1, 0, 931, 788, 181,-
2025-03-10 12:17:16.456,708, 555, 430, -1, 1, 7, -4, 0, 2, 950, 823, 262,-
2025-03-10 12:17:16.505,719, 565, 447, 2, -4, 6, -4, 0, 2, 956, 842, 263,-
2025-03-10 12:17:16.558,713, 565, 422, 7, -4, 3, -4, 1, 0, 959, 851, 283,-
2025-03-10 12:17:16.609,677, 548, 433, 3, 4, -4, -5, -1, 1, 960, 848, 227,-
2025-03-10 12:17:16.665,833, 367, 400, 8, 0, -20, -5, -1, 1, 959, 849, 26,-
2025-03-10 12:17:16.718,784, 365, 381, 22, -15, -16, -4, -1, 1, 974, 907, 55,-
2025-03-10 12:17:16.772,705, 827, 101, -5, 5, 38, -5, -2, 3, 986, 948, 465,-
2025-03-10 12:17:16.828,713, 560, 430, 11, 10, 8, -5, 0, 4, 976, 918, 593,-
2025-03-10 12:17:16.881,788, 591, 179, -66, 42, -46, -7, 1, 3, 942, 783, 243,-
2025-03-10 12:17:16.928,652, 630, 630, -10, 8, -6, -4, 0, 1, 916, 728, 65,-
2025-03-10 12:17:17.481,682, 585, 460, 0, -2, 0, -4, 1, 0, 881, 681, 68,÷
2025-03-10 12:17:17.528,686, 582, 440, 0, -3, 0, -3, 0, 2, 883, 680, 59,÷
2025-03-10 12:17:17.582,701, 578, 433, -1, -1, 0, -5, -1, 2, 890, 708, 35,÷
2025-03-10 12:17:17.636,694, 585, 431, 0, -1, 0, -4, 0, 1, 898, 723, 147,÷
2025-03-10 12:17:17.688,708, 583, 417, -1, -2, 1, -5, 1, 1, 904, 741, 179,÷
2025-03-10 12:17:17.739,707, 584, 440, 2, -2, 0, -3, 0, 3, 903, 745, 164,÷
2025-03-10 12:17:17.791,727, 581, 403, -4, 0, -2, -3, 1, 1, 909, 753, 186,÷
2025-03-10 12:17:17.848,696, 584, 451, -1, -1, 0, -4, 0, 2, 912, 763, 193,÷
2025-03-10 12:17:17.902,705, 571, 400, -5, 0, -1, -4, 0, 2, 915, 765, 192,÷
2025-03-10 12:17:17.954,686, 589, 456, -1, -1, 0, -3, 0, 1, 914, 775, 176,÷
2025-03-10 12:17:18.008,700, 583, 429, -1, -2, -4, -3, -1, 1, 913, 776, 144,÷
2025-03-10 12:17:18.057,694, 588, 410, -2, 0, 0, -5, 1, 2, 915, 763, 40,÷
2025-03-10 12:17:18.108,717, 588, 392, -4, -2, -4, -4, 0, 2, 917, 768, 58,÷
2025-03-10 12:17:18.169,715, 628, 409, 20, -11, 10, -3, 0, 3, 923, 802, 322,÷
2025-03-10 12:17:18.221,699, 565, 409, -7, 2, -7, -3, -1, 2, 926, 824, 393,÷
2025-03-10 12:17:18.272,700, 582, 411, -10, 1, -3, -3, 0, 3, 928, 823, 346,÷
2025-03-10 12:17:18.328,695, 587, 415, -7, 1, 0, -4, 1, 2, 928, 816, 319,÷
2025-03-10 12:17:18.378,628, 595, 481, 2, -12, 11, -5, -1, 3, 943, 847, 363,÷
2025-03-10 12:17:18.438,779, 603, 278, -9, -8, -13, -5, -1, 2, 963, 896, 293,÷
2025-03-10 12:17:18.493,726, 369, 618, 21, -15, -16, -5, 1, 3, 971, 912, 222,÷
2025-03-10 12:17:18.548,580, 547, 288, -28, 22, 27, -5, -2, 4, 978, 923, 180,÷
2025-03-10 12:17:18.602,828, 373, 485, -2, 18, 0, -4, 1, 4, 964, 898, 396,÷
2025-03-10 12:17:18.658,428, 761, 900, 35, -4, 30, -4, 1, 2, 965, 854, 314,÷
2025-03-10 12:17:18.708,810, 572, 238, 1, 9, -1, -5, -1, 3, 975, 901, 93,÷
2025-03-10 12:17:18.758,726, 433, 385, 2, -4, 7, -5, 1, 2, 970, 900, 303,÷
2025-03-10 12:17:18.819,538, 554, 359, -13, 10, -34, -4, 0, 1, 946, 837, 226,÷
2025-03-10 12:17:18.872,813, 774, 590, 22, -19, -22, -3, 0, 1, 972, 883, 62,÷
2025-03-10 12:17:18.924,957, 528, 192, 6, 1, 39, -4, 0, 2, 986, 945, 312,÷
2025-03-10 12:17:18.973,663, 495, 370, 6, 5, 12, -5, 0, 2, 982, 931, 533,÷
2025-03-10 12:17:19.028,909, 374, 197, -22, 37, -36, -6, 0, 2, 953, 857, 460,÷
2025-03-10 12:17:19.088,534, 561, 836, -42, 49, -33, -5, 1, -1, 926, 723, 55,÷
2025-03-10 12:17:19.142,582, 589, 578, 5, -15, 6, -3, 0, -2, 911, 632, 42,÷
2025-03-10 12:17:19.195,741, 545, 420, 13, -27, 5, -4, -1, 1, 898, 614, 45,÷
2025-03-10 12:17:19.548,681, 578, 457, -4, 0, -2, -3, 0, 1, 774, 554, 63,=
2025-03-10 12:17:19.602,676, 562, 465, -6, 0, -2, -4, -1, 0, 772, 555, 61,=
2025-03-10 12:17:19.653,671, 575, 483, -2, -2, -2, -4, 1, 0, 795, 560, 64,=
2025-03-10 12:17:19.708,693, 574, 463, -2, -2, -1, -5, -1, 1, 805, 590, 38,=
2025-03-10 12:17:19.758,681, 567, 482, -7, 0, -1, -3, 0, -1, 814, 613, 39,=
2025-03-10 12:17:19.813,685, 568, 479, -2, -2, 0, -3, 1, 0, 830, 638, 63,=
2025-03-10 12:17:19.868,690, 578, 464, -2, -1, 0, -3, 1, -1, 830, 626, 31,=
2025-03-10 12:17:19.919,677, 575, 470, -2, -1, 1, -4, 1, -2, 861, 654, 65,=
2025-03-10 12:17:19.969,685, 560, 462, -1, -3, 3, -3, 1, 0, 874, 676, 38,=
2025-03-10 12:17:20.019,691, 565, 465, -1, -3, 1, -5, -1, -1, 890, 696, 40,=
2025-03-10 12:17:20.069,696, 576, 478, 2, -5, 3, -3, 1, -1, 902, 734, 53,=
2025-03-10 12:17:20.128,687, 556, 462, 2, -3, 1, -4, 0, 0, 910, 747, 47,=
2025-03-10 12:17:20.178,712, 561, 424, 0, -2, 1, -4, 0, -1, 915, 764, 38,=
2025-03-10 12:17:20.228,681, 582, 460, 0, 0, 3, -3, 0, 1, 926, 777, 63,=
2025-03-10 12:17:20.282,653, 555, 505, 14, -9, 3, -4, 1, 1, 928, 774, 43,=
2025-03-10 12:17:20.335,787, 552, 334, 2, -10, 2, -4, 1, 2, 927, 779, 59,=
2025-03-10 12:17:20.387,716, 584, 422, -6, 5, -5, -5, 1, 1, 926, 778, 39,=
2025-03-10 12:17:20.438,685, 558, 479, -1, -3, -3, -5, 1, 1, 927, 776, 39,=
2025-03-10 12:17:20.489,636, 537, 491, 6, -11, 1, -4, 0, 2, 934, 785, 64,=
2025-03-10 12:17:20.548,871, 318, 528, 80, -24, -21, -4, 0, 2, 971, 894, 42,=
2025-03-10 12:17:20.599,491, 750, 118, -5, 8, 23, -5, 0, 2, 980, 919, 468,=
2025-03-10 12:17:20.648,669, 576, 437, 24, 8, 7, -6, 0, 4, 963, 848, 520,=
2025-03-10 12:17:20.704,456, 655, 453, -66, 33, -26, -5, 0, 3, 939, 458, 42,=
2025-03-10 12:17:20.763,761, 417, 332, 112, -26, -20, -4, -1, 5, 970, 854, 29,=
2025-03-10 12:17:20.818,330, 807, 479, -26, 13, 37, -4, -2, 5, 981, 922, 430,=
2025-03-10 12:17:20.871,765, 579, 411, 1, 6, 1, -6, 0, 3, 962, 847, 590,=
2025-03-10 12:17:20.928,758, 506, 363, -72, 63, -39, -4, -1, 3, 924, 639, 168,=
2025-03-10 12:17:21.238,686, 572, 462, 2, -6, -1, -3, -2, 1, 869, 653, 50,≠
2025-03-10 12:17:21.288,688, 571, 455, 2, -6, -1, -5, 0, 2, 868, 667, 65,≠
2025-03-10 12:17:21.342,696, 584, 429, 6, -9, -2, -5, -1, 2, 863, 696, 56,≠
2025-03-10 12:17:21.398,690, 575, 433, 16, -15, -3, -5, -2, 2, 835, 708, 35,≠
2025-03-10 12:17:21.448,716, 575, 344, 4, -3, -8, -6, 0, 3, 860, 738, 58,≠
2025-03-10 12:17:21.501,729, 545, 495, 8, 0, -21, -5, -1, 2, 896, 758, 33,≠
2025-03-10 12:17:21.558,776, 482, 454, 31, -18, -16, -3, -1, 4, 954, 854, 64,≠
2025-03-10 12:17:21.611,313, 404, 87, -29, -1, 41, -5, -1, 5, 984, 936, 349,≠
2025-03-10 12:17:21.662,663, 594, 558, 18, 5, 4, -6, 0, 5, 978, 914, 561,≠
2025-03-10 12:17:21.721,523, 634, 322, -36, 47, -29, -5, 0, 4, 944, 746, 162,≠
2025-03-10 12:17:21.778,868, 392, 544, 80, -16, -26, -3, -2, 3, 965, 843, 47,≠
2025-03-10 12:17:21.828,743, 766, 155, -25, 5, 49, -4, -3, 5, 983, 932, 327,≠
2025-03-10 12:17:21.887,685, 652, 478, -6, 8, 14, -5, 0, 4, 971, 876, 496,≠
2025-03-10 12:17:21.938,490, 681, 770, 11, -9, -15, -4, -1, 1, 953, 876, 460,≠
2025-03-10 12:17:21.993,779, 558, 329, -20, -23, -8, -4, 0, 3, 977, 912, 397,≠
2025-03-10 12:17:22.048,817, 455, 311, -1, 46, 30, -5, -2, 4, 980, 866, 35,≠
2025-03-10 12:17:22.103,830, 408, 324, -4, 31, 10, -5, 1, 2, 954, 717, 49,≠
2025-03-10 12:17:22.158,562, 526, 224, -37, 48, -45, -4, -1, 1, 929, 783, 238,≠
2025-03-10 12:17:22.219,504, 729, 573, -3, -21, 11, -3, -1, 0, 920, 767, 295,≠
2025-03-10 12:17:22.271,742, 581, 445, 12, -25, 8, -3, -2, 2, 908, 717, 213,≠
2025-03-10 12:17:22.698,699, 583, 416, 6, 1, -8, -5, -1, 3, 871, 687, 31,≈
2025-03-10 12:17:22.751,689, 589, 424, 5, 1, -6, -5, -1, 3, 867, 689, 26,≈
2025-03-10 12:17:22.803,701, 580, 414, 10, -1, 1, -4, -1, 3, 888, 715, 57,≈
2025-03-10 12:17:22.853,665, 582, 380, 4, 8, -10, -4, 1, 2, 922, 762, 49,≈
2025-03-10 12:17:22.908,686, 645, 266, 24, 3, -5, -3, -3, 3, 946, 791, 65,≈
2025-03-10 12:17:22.959,689, 659, 322, -3, 7, 1, -4, -1, 4, 948, 831, 29,≈
2025-03-10 12:17:23.017,787, 646, 395, 27, -19, -11, -2, -2, 4, 958, 907, 61,≈
2025-03-10 12:17:23.070,647, 463, 471, -2, -16, 7, -2, -1, 4, 973, 922, 343,≈
2025-03-10 12:17:23.128,550, 854, 185, -12, 30, 35, -5, -1, 3, 982, 916, 418,≈
2025-03-10 12:17:23.185,729, 635, 447, -22, 4, 16, -7, -1, 4, 982, 922, 399,≈
2025-03-10 12:17:23.238,689, 585, 422, 17, -8, 0, -6, -1, 4, 976, 903, 519,≈
2025-03-10 12:17:23.288,639, 499, 296, -9, 51, -21, -6, 0, 3, 966, 817, 419,≈
2025-03-10 12:17:23.348,672, 646, 586, -5, 10, -3, -5, -1, 3, 948, 437, 36,≈
2025-03-10 12:17:23.402,898, 662, 283, 34, 2, -15, -4, -2, 5, 965, 840, 62,≈
2025-03-10 12:17:23.453,799, 516, 498, -9, -16, 8, -4, -1, 4, 977, 912, 345,≈
2025-03-10 12:17:23.508,692, 829, 216, 8, 4, 17, -4, 0, 5, 982, 899, 425,≈
2025-03-10 12:17:23.564,809, 557, 240, -13, 13, 20, -5, -2, 4, 982, 886, 249,≈
2025-03-10 12:17:23.619,780, 477, 565, 18, -22, 0, -6, -1, 4, 981, 910, 489,≈
2025-03-10 12:17:23.669,824, 457, 64, -42, 72, -43, -5, -2, 3, 966, 849, 556,≈
2025-03-10 12:17:23.734,423, 688, 758, -49, 45, -25, -1, 1, -1, 946, 662, 165,≈
2025-03-10 12:17:24.254,663, 584, 475, 1, -5, -1, -3, 1, 0, 876, 606, 56,<
2025-03-10 12:17:24.306,668, 576, 476, 1, -5, -1, -3, 0, -1, 876, 608, 57,<
2025-03-10 12:17:24.352,672, 587, 488, 3, -8, 1, -3, 0, 2, 882, 647, 55,<
2025-03-10 12:17:24.403,689, 585, 460, 1, -9, 3, -2, 0, 0, 893, 683, 93,<
2025-03-10 12:17:24.458,698, 588, 449, 0, -7, 3, -4, -1, 1, 907, 711, 158,<
2025-03-10 12:17:24.508,693, 563, 452, -4, -4, 2, -4, 0, 0, 918, 731, 267,<
2025-03-10 12:17:24.563,680, 567, 467, 1, -5, 2, -4, 1, 1, 926, 756, 289,<
2025-03-10 12:17:24.619,688, 571, 447, -1, -8, 2, -4, 0, 0, 931, 769, 289,<
2025-03-10 12:17:24.671,715, 582, 417, 0, -6, 0, -5, 0, 1, 929, 782, 290,<
2025-03-10 12:17:24.721,721, 566, 422, -3, -2, -1, -2, 0, 1, 931, 789, 273,<
2025-03-10 12:17:24.778,712, 576, 447, -3, 0, -2, -5, 0, 0, 932, 794, 248,<
2025-03-10 12:17:24.828,710, 581, 453, 1, -2, 1, -4, 0, 1, 934, 798, 258,<
2025-03-10 12:17:24.878,725, 575, 416, 0, -4, 0, -6, -1, 2, 937, 802, 258,<
2025-03-10 12:17:24.938,698, 581, 502, 29, -16, 14, -5, -1, 1, 946, 842, 402,<
2025-03-10 12:17:24.990,692, 660, 417, -8, -7, -7, -5, 0, 3, 962, 874, 416,<
2025-03-10 12:17:25.048,690, 582, 484, -5, -7, -5, -6, -1, 3, 975, 921, 388,<
2025-03-10 12:17:25.101,279, 470, 518, -17, 10, -18, -3, -2, 3, 978, 889, 41,<
2025-03-10 12:17:25.153,852, 491, 407, 17, 4, 3, -3, -2, 1, 982, 890, 43,<
2025-03-10 12:17:25.213,850, 1041, 651, -32, 9, 47, -4, 0, 2, 988, 933, 169,<
2025-03-10 12:17:25.261,708, 589, 490, 7, 7, 7, -6, 1, 2, 978, 903, 431,<
2025-03-10 12:17:25.319,927, 541, 201, -37, 21, -40, -5, -1, 4, 934, 707, 209,<
2025-03-10 12:17:25.369,626, 651, 629, -18, 16, -13, -4, -1, 0, 913, 593, 67,<
2025-03-10 12:17:25.598,717, 580, 431, 2, -4, 1, -3, 1, 1, 894, 566, 31,≤
2025-03-10 12:17:25.638,715, 567, 402, 1, -3, 1, -4, 1, 1, 898, 578, 62,≤
2025-03-10 12:17:25.700,686, 563, 460, 0, 2, -3, -5, 2, 1, 905, 604, 47,≤
2025-03-10 12:17:25.748,712, 584, 455, 1, -2, 1, -4, -1, 1, 904, 623, 63,≤
2025-03-10 12:17:25.801,701, 561, 450, -3, 1, -2, -3, 1, 1, 899, 616, 23,≤
2025-03-10 12:17:25.852,694, 568, 458, 0, -2, -1, -6, 1, 0, 903, 636, 41,≤
2025-03-10 12:17:25.902,713, 576, 432, -5, 1, -3, -3, 1, 1, 903, 628, 55,≤
2025-03-10 12:17:25.962,684, 575, 462, -3, -3, -3, -5, -1, 0, 898, 630, 63,≤
2025-03-10 12:17:26.011,711, 585, 440, 1, -5, 1, -4, -1, 0, 904, 678, 65,≤
2025-03-10 12:17:26.062,681, 572, 475, 7, -9, 3, -4, -1, 2, 921, 716, 165,≤
2025-03-10 12:17:26.119,663, 583, 503, 6, -33, 7, -5, -1, 3, 935, 786, 316,≤
2025-03-10 12:17:26.170,694, 647, 393, -5, -4, -9, -5, -1, 1, 963, 879, 367,≤
2025-03-10 12:17:26.228,718, 566, 460, 0, -13, -5, -5, -2, 1, 977, 916, 321,≤
2025-03-10 12:17:26.278,811, 551, 544, 36, 13, -8, -5, 0, 3, 979, 906, 48,≤
2025-03-10 12:17:26.334,898, 571, 277, -41, 20, 4, -5, 0, 4, 978, 878, 61,≤
2025-03-10 12:17:26.388,1005, 903, 398, -35, 18, 63, -3, -1, 3, 985, 925, 42,≤
2025-03-10 12:17:26.438,592, 467, 336, 10, 5, 10, -6, 1, 3, 985, 927, 367,≤
2025-03-10 12:17:26.503,736, 443, 350, -21, 56, -11, -6, 0, 2, 963, 730, 146,≤
2025-03-10 12:17:26.558,770, -467, 541, -7, -16, -19, -5, -1, 2, 968, 777, 51,≤
2025-03-10 12:17:26.613,753, 497, 239, -20, -2, 32, -6, 0, 3, 987, 931, 277,≤
2025-03-10 12:17:26.667,674, 559, 378, 9, 7, 8, -6, -1, 3, 976, 867, 415,≤
2025-03-10 12:17:26.719,888, 458, 59, -91, 54, -50, -5, 1, 2, 910, 472, 61,≤
2025-03-10 12:17:26.769,483, 527, 948, -29, 27, -24, -5, 1, 1, 889, 72, 50,≤
2025-03-10 12:17:27.068,687, 575, 480, -1, -3, -3, -4, 0, 0, 844, 544, 57,>
2025-03-10 12:17:27.120,694, 587, 470, -3, -3, -3, -5, -1, 1, 842, 535, 30,>
2025-03-10 12:17:27.178,695, 590, 446, -3, -6, -1, -3, 0, 0, 853, 584, 31,>
2025-03-10 12:17:27.228,694, 577, 463, 3, -8, 1, -4, 1, 1, 879, 661, 64,>
2025-03-10 12:17:27.278,712, 570, 429, -2, -7, 0, -4, -1, 2, 889, 686, 66,>
2025-03-10 12:17:27.334,708, 568, 451, 1, -6, -2, -6, -1, 1, 898, 715, 44,>
2025-03-10 12:17:27.386,701, 574, 442, -8, -6, -2, -3, 2, 1, 906, 737, 57,>
2025-03-10 12:17:27.438,676, 575, 473, -1, -15, -2, -5, -2, 2, 910, 752, 30,>
2025-03-10 12:17:27.498,727, 548, 403, -3, -15, 2, -4, -1, 3, 923, 776, 67,>
2025-03-10 12:17:27.551,715, 540, 561, -1, -4, -16, -4, 2, 2, 944, 806, 59,>
2025-03-10 12:17:27.603,927, 947, 598, 74, -32, 8, -5, 0, 2, 971, 888, 165,>
2025-03-10 12:17:27.660,600, 346, 515, 11, -2, 10, -4, -2, 4, 977, 896, 468,>
2025-03-10 12:17:27.712,522, 715, 375, 8, 31, -3, -6, -1, 4, 980, 889, 68,>
2025-03-10 12:17:27.769,895, 375, 477, -17, 34, 8, -6, -1, 2, 974, 803, 46,>
2025-03-10 12:17:27.822,807, 399, 168, -16, 34, -22, -5, 1, 2, 949, 777, 43,>
2025-03-10 12:17:27.878,549, 726, 733, -19, 19, -14, -3, 0, -1, 943, 718, 73,>
2025-03-10 12:17:27.928,639, 572, 508, 4, -14, 2, -3, -1, 1, 917, 627, 33,>
2025-03-10 12:17:28.269,693, 573, 462, 3, -10, -1, -4, 1, 0, 900, 667, 40,≥
2025-03-10 12:17:28.317,684, 573, 449, 4, -9, -1, -5, 0, 1, 901, 682, 30,≥
2025-03-10 12:17:28.370,709, 580, 443, 0, -9, 0, -3, 0, 0, 903, 713, 19,≥
2025-03-10 12:17:28.419,698, 574, 436, -2, -10, -2, -4, 1, 1, 907, 739, 41,≥
2025-03-10 12:17:28.469,662, 567, 492, -3, -20, -1, -4, 0, 0, 916, 771, 48,≥
2025-03-10 12:17:28.528,653, 623, 365, 17, -6, -21, -4, 0, 0, 945, 813, 60,≥
2025-03-10 12:17:28.587,868, 856, 546, 65, -21, 17, -4, 0, 3, 974, 892, 182,≥
2025-03-10 12:17:28.638,684, 301, 453, 29, 1, 6, -5, 0, 3, 981, 912, 495,≥
2025-03-10 12:17:28.688,733, 665, 272, 12, 24, 10, -5, -1, 3, 983, 909, 296,≥
2025-03-10 12:17:28.741,579, 661, 268, -48, 52, 18, -5, 1, 2, 975, 764, 64,≥
2025-03-10 12:17:28.802,536, 379, 369, -25, 58, -23, -5, 0, 2, 960, 542, 59,≥
2025-03-10 12:17:28.858,864, 406, 533, 27, -73, -2, -5, -1, 1, 970, 746, 66,≥
2025-03-10 12:17:28.912,722, 727, 195, -30, -15, 41, -5, -1, 4, 985, 925, 196,≥
2025-03-10 12:17:28.969,710, 678, 413, 8, 7, 10, -6, 0, 4, 981, 890, 430,≥
2025-03-10 12:17:29.019,900, 381, 21, -68, 55, -52, -6, 0, 2, 932, 694, 252,≥
2025-03-10 12:17:29.078,513, 683, 982, -42, 41, -31, -3, 0, 0, 908, 526, 63,≥
2025-03-10 12:17:29.426,673, 581, 488, -5, -3, -3, -3, 1, 0, 790, 341, 57,±
2025-03-10 12:17:29.478,671, 573, 490, -1, -3, -3, -3, 0, -2, 787, 361, 45,±
2025-03-10 12:17:29.534,680, 571, 466, 2, -3, 1, -4, 2, 0, 795, 430, 32,±
2025-03-10 12:17:29.583,677, 555, 481, 0, -2, 1, -4, 1, 0, 808, 502, 28,±
2025-03-10 12:17:29.636,672, 561, 498, 0, -3, 2, -4, 0, -1, 826, 550, 27,±
2025-03-10 12:17:29.688,698, 573, 473, 0, -7, 1, -4, 1, -3, 851, 586, 38,±
2025-03-10 12:17:29.738,693, 561, 479, 2, -7, 1, -2, 0, 0, 877, 625, 52,±
2025-03-10 12:17:29.788,686, 563, 459, 3, -5, 2, -5, 1, 0, 892, 657, 35,±
2025-03-10 12:17:29.838,696, 559, 439, 0, -5, 0, -4, 1, -1, 904, 703, 33,±
2025-03-10 12:17:29.888,701, 571, 458, 0, -6, 4, -5, 1, 1, 913, 722, 54,±
2025-03-10 12:17:29.941,715, 558, 426, -2, -4, 0, -5, 0, 1, 923, 746, 53,±
2025-03-10 12:17:29.988,700, 570, 453, -2, -4, -1, -4, 0, 1, 927, 760, 43,±
2025-03-10 12:17:30.052,699, 559, 450, -1, -2, -1, -5, 1, -2, 928, 770, 44,±
2025-03-10 12:17:30.102,706, 563, 459, 4, -7, -2, -4, 0, -2, 931, 776, 42,±
2025-03-10 12:17:30.152,706, 547, 401, -2, -2, -2, -6, 0, 1, 933, 764, 56,±
2025-03-10 12:17:30.208,737, 576, 397, -4, 0, -2, -3, 0, 1, 931, 751, 41,±
2025-03-10 12:17:30.262,698, 581, 472, 0, 0, 1, -5, 1, -1, 931, 763, 36,±
2025-03-10 12:17:30.312,721, 564, 410, 3, -2, -2, -5, 0, 2, 930, 778, 40,±
2025-03-10 12:17:30.360,680, 571, 460, 4, 2, 1, -3, 0, 2, 936, 787, 62,±
2025-03-10 12:17:30.410,655, 548, 445, 7, -6, 0, -4, 0, 1, 936, 782, 32,±
2025-03-10 12:17:30.468,644, 550, 530, 12, -11, -29, -5, 0, 1, 960, 824, 38,±
2025-03-10 12:17:30.525,1337, 1311, 379, -12, -36, 46, -5, -1, 3, 982, 929, 61,±
2025-03-10 12:17:30.578,524, 425, 377, 11, 16, 9, -5, 0, 4, 983, 929, 507,±
2025-03-10 12:17:30.635,668, 388, 366, -8, -16, -53, -5, 0, 3, 956, 883, 423,±
2025-03-10 12:17:30.688,812, 216, 697, 9, -15, -18, -5, 1, 2, 971, 902, 227,±
2025-03-10 12:17:30.750,828, 1029, -107, -26, 43, 43, -5, -2, 4, 983, 907, 151,±
2025-03-10 12:17:30.801,727, 698, 477, -16, 36, 21, -6, 0, 3, 964, 724, 29,±
2025-03-10 12:17:30.851,553, 541, 761, 22, 12, -9, -4, -1, 1, 925, 446, 49,±
2025-03-10 12:17:30.908,1009, 1032, 363, 18, -32, 3, -4, -2, 4, 980, 901, 35,±
2025-03-10 12:17:30.967,456, 602, 523, -14, 1, 33, -6, -1, 3, 982, 923, 357,±
2025-03-10 12:17:31.025,855, 433, 280, -27, 21, -29, -7, 0, 5, 929, 736, 390,±
2025-03-10 12:17:31.082,536, 540, 601, -50, 75, -43, -3, -1, 1, 807, 250, 38,±
2025-03-10 12:17:31.368,710, 559, 428, 3, -12, 3, -4, 1, 1, 818, 624, 29,∓
2025-03-10 12:17:31.418,726, 565, 428, 3, -11, 2, -4, 1, 1, 823, 626, 17,∓
2025-03-10 12:17:31.468,729, 569, 391, -5, -3, -4, -4, 0, 1, 834, 661, 41,∓
2025-03-10 12:17:31.528,678, 589, 454, -4, -1, -6, -4, 0, 1, 829, 696, 47,∓
2025-03-10 12:17:31.582,709, 563, 424, -8, -2, -10, -3, 0, 1, 750, 640, 39,∓
2025-03-10 12:17:31.634,606, 593, 529, -1, -8, 5, -4, 1, 1, 758, 607, 26,∓
2025-03-10 12:17:31.688,944, 531, 371, 36, -5, -21, -4, 0, 1, 933, 755, 41,∓
2025-03-10 12:17:31.738,210, 682, -336, -11, -14, 73, -5, -1, 3, 978, 885, 360,∓
2025-03-10 12:17:31.799,637, 507, 526, 28, 2, 4, -5, -1, 4, 970, 813, 568,∓
2025-03-10 12:17:31.852,609, 603, 258, -111, 57, -49, -5, 0, 2, 927, 191, 36,∓
2025-03-10 12:17:31.910,739, 538, 816, 99, -35, -12, -4, -1, 4, 940, 684, 42,∓
2025-03-10 12:17:31.967,493, 593, 97, -36, -6, 36, -5, -1, 4, 977, 882, 205,∓
2025-03-10 12:17:32.018,666, 669, 407, 15, 10, 10, -6, 1, 2, 966, 810, 478,∓
2025-03-10 12:17:32.078,490, 533, 382, -10, -7, -33, -5, -1, 4, 933, 695, 287,∓
2025-03-10 12:17:32.134,762, 738, 288, 13, -23, -2, -5, -1, 5, 979, 832, 67,∓
2025-03-10 12:17:32.188,591, 512, 217, -28, 44, 26, -6, 1, 3, 979, 758, 65,∓
2025-03-10 12:17:32.238,999, 288, 368, -26, 30, -27, -6, -2, 1, 914, 349, 62,∓
2025-03-10 12:17:32.299,673, 458, 510, -66, 81, -68, -4, 0, -1, 785, 383, 54,∓
2025-03-10 12:17:32.668,604, 714, 421, 0, -7, 13, 1, -2, 3, 871, 659, 367,∞
2025-03-10 12:17:32.719,593, 695, 430, -6, -7, 13, 0, -2, 4, 875, 697, 378,∞
2025-03-10 12:17:32.782,631, 696, 400, -17, -12, 15, 0, -2, 4, 904, 812, 572,∞
2025-03-10 12:17:32.838,629, 638, 429, -22, -2, 14, -1, -3, 2, 925, 835, 640,∞
2025-03-10 12:17:32.888,645, 638, 404, -16, -5, 9, 0, -2, 2, 941, 873, 618,∞
2025-03-10 12:17:32.938,671, 622, 418, -5, -2, -2, -1, -1, 2, 955, 882, 624,∞
2025-03-10 12:17:32.998,668, 639, 426, 1, -3, 2, -2, -2, 2, 961, 897, 626,∞
2025-03-10 12:17:33.051,661, 643, 411, -10, 3, 3, -2, -1, 3, 960, 893, 596,∞
2025-03-10 12:17:33.108,653, 642, 449, -9, -1, 7, -2, -2, 3, 962, 887, 579,∞
2025-03-10 12:17:33.158,654, 638, 436, -5, -5, 8, -2, 0, 3, 965, 874, 569,∞
2025-03-10 12:17:33.215,673, 626, 431, -5, -10, 7, -4, 0, 2, 960, 859, 533,∞
2025-03-10 12:17:33.265,705, 607, 403, 4, -8, 6, -3, 1, 2, 961, 857, 504,∞
2025-03-10 12:17:33.318,691, 603, 395, 8, -4, 5, -3, -1, 3, 960, 863, 523,∞
2025-03-10 12:17:33.368,694, 604, 378, 1, -3, -2, -5, -1, 2, 957, 856, 509,∞
2025-03-10 12:17:33.418,678, 610, 436, -3, -3, 0, -4, 0, 4, 957, 841, 436,∞
2025-03-10 12:17:33.482,729, 602, 354, -9, -3, -3, -2, 0, 4, 955, 845, 435,∞
2025-03-10 12:17:33.528,666, 612, 435, 2, 5, 1, -3, -1, 4, 956, 865, 480,∞
2025-03-10 12:17:33.584,699, 614, 395, 0, -1, 0, -3, 0, 4, 957, 865, 475,∞
2025-03-10 12:17:33.638,676, 620, 432, 4, 6, 7, -4, -2, 4, 957, 844, 421,∞
2025-03-10 12:17:33.688,741, 575, 306, -4, -2, 0, -3, -1, 3, 959, 849, 466,∞
2025-03-10 12:17:33.738,737, 641, 450, 12, -16, 9, -3, -2, 3, 956, 882, 532,∞
2025-03-10 12:17:33.790,627, 583, 350, 1, -9, 5, -6, -1, 4, 960, 916, 584,∞
2025-03-10 12:17:33.851,548, 600, 524, 7, -18, 11, -4, -2, 4, 966, 922, 556,∞
2025-03-10 12:17:33.901,466, 885, 49, 17, 20, 4, -4, -1, 4, 977, 916, 89,∞
2025-03-10 12:17:33.961,604, 704, 260, -49, 36, 11, -5, -1, 4, 974, 876, 41,∞
2025-03-10 12:17:34.018,1048, 428, 852, 22, -43, -26, -3, 0, 3, 965, 894, 45,∞
2025-03-10 12:17:34.068,750, 561, 301, 5, -31, 18, -3, -1, 5, 982, 952, 519,∞
2025-03-10 12:17:34.118,614, 748, 83, -22, 10, 6, -5, -1, 4, 981, 949, 509,∞
2025-03-10 12:17:34.183,657, 536, 425, -18, -30, -28, -3, -1, 6, 971, 928, 560,∞
2025-03-10 12:17:34.238,556, 716, 239, 21, 27, 18, -4, -1, 4, 979, 918, 214,∞
2025-03-10 12:17:34.288,585, 554, 289, -35, 36, 12, -4, -2, 4, 978, 862, 41,∞
2025-03-10 12:17:34.350,1153, 165, 480, -39, 27, -15, -3, 0, 1, 932, 692, 66,∞
2025-03-10 12:17:34.408,568, 522, 596, -50, 83, -72, -2, -1, -1, 892, 655, 46,∞
2025-03-10 12:17:34.772,670, 586, 482, 8, -5, -3, -3, 1, -2, 818, 307, 49,∑
2025-03-10 12:17:34.828,671, 589, 474, 3, -3, -2, -2, 3, -3, 816, 309, 34,∑
2025-03-10 12:17:34.883,660, 559, 519, 2, -4, -3, -3, 0, -2, 821, 384, 60,∑
2025-03-10 12:17:34.933,669, 555, 514, 5, -2, 0, -2, 0, -4, 815, 405, 27,∑
2025-03-10 12:17:34.988,663, 573, 508, -1, 0, -1, -3, 1, -2, 822, 459, 52,∑
2025-03-10 12:17:35.038,661, 580, 500, -5, 0, 0, -2, 1, -2, 823, 389, 35,∑
2025-03-10 12:17:35.088,659, 567, 498, 1, 0, -5, -3, 2, -2, 811, 295, 20,∑
2025-03-10 12:17:35.142,639, 580, 500, 5, -2, -1, -4, 1, -1, 823, 372, 60,∑
2025-03-10 12:17:35.198,655, 581, 493, 0, -1, 1, -2, 2, 0, 827, 446, 43,∑
2025-03-10 12:17:35.248,662, 581, 520, 2, -5, 2, -3, 0, -1, 849, 466, 27,∑
2025-03-10 12:17:35.300,643, 577, 508, 12, -13, 6, -2, 2, -1, 882, 571, 30,∑
2025-03-10 12:17:35.350,664, 540, 478, 14, -17, 7, -4, 0, 0, 899, 652, 40,∑
2025-03-10 12:17:35.401,718, 579, 424, 12, -14, 4, -4, 0, 0, 913, 717, 42,∑
2025-03-10 12:17:35.464,715, 589, 404, 12, -9, -1, -5, -1, -1, 923, 763, 52,∑
2025-03-10 12:17:35.518,729, 618, 404, 16, -2, 1, -3, -1, 3, 929, 809, 38,∑
2025-03-10 12:17:35.567,664, 617, 474, 13, -3, 3, -4, 0, 2, 934, 835, 83,∑
2025-03-10 12:17:35.618,729, 597, 434, 4, -4, 2, -5, -1, 2, 939, 850, 205,∑
2025-03-10 12:17:35.668,655, 587, 393, 1, -3, 4, -4, -1, 3, 945, 863, 270,∑
2025-03-10 12:17:35.718,689, 600, 395, -11, 3, -3, -5, -2, 3, 949, 863, 65,∑
2025-03-10 12:17:35.780,619, 582, 499, 4, -10, 4, -5, 1, 2, 953, 836, 52,∑
2025-03-10 12:17:35.833,755, 485, 423, 100, -13, -20, -3, -1, 3, 970, 910, 68,∑
2025-03-10 12:17:35.888,579, 553, -14, -11, 8, 34, -6, -2, 4, 984, 968, 496,∑
2025-03-10 12:17:35.943,640, 679, 413, -4, 7, 10, -5, 0, 5, 969, 945, 555,∑
2025-03-10 12:17:36.001,602, 643, 358, -64, 28, -31, -4, -2, 5, 946, 787, 58,∑
2025-03-10 12:17:36.058,855, 685, 354, 56, -18, -13, -3, -2, 4, 970, 903, 56,∑
2025-03-10 12:17:36.109,824, 766, 283, 0, 12, 30, -4, -4, 6, 980, 947, 387,∑
2025-03-10 12:17:36.164,673, 660, 405, -3, 3, 6, -4, -2, 5, 976, 926, 382,∑
2025-03-10 12:17:36.218,727, 656, 434, -99, 38, -8, -4, -1, 3, 964, 626, 52,∑
2025-03-10 12:17:36.268,865, 692, 514, 85, -5, 4, -3, -2, 3, 978, 889, 66,∑
2025-03-10 12:17:36.328,934, 424, 381, 11, -10, 36, -6, -2, 5, 987, 960, 228,∑
2025-03-10 12:17:36.383,684, 651, 415, -16, 11, 7, -4, -1, 6, 969, 915, 397,∑
2025-03-10 12:17:36.438,785, 494, 303, -89, 76, -39, -4, -1, 1, 922, 467, 24,∑
2025-03-10 12:17:36.758,681, 595, 457, -9, -1, -2, -3, 0, 1, 849, 415, 34,∏
2025-03-10 12:17:36.818,667, 584, 456, -10, -2, -2, -5, 1, 0, 852, 425, 45,∏
2025-03-10 12:17:36.871,684, 570, 440, -4, -6, -2, -4, 1, 0, 865, 562, 51,∏
2025-03-10 12:17:36.931,694, 595, 454, 0, -5, -1, -3, -1, 0, 892, 675, 38,∏
2025-03-10 12:17:36.978,700, 580, 456, 4, -6, 2, -4, 0, 2, 914, 738, 54,∏
2025-03-10 12:17:37.033,694, 578, 447, -1, -1, -1, -4, 0, 0, 932, 778, 39,∏
2025-03-10 12:17:37.082,670, 589, 460, 5, -1, 3, -3, 0, 1, 946, 819, 47,∏
2025-03-10 12:17:37.134,688, 598, 419, 4, -3, 5, -3, 0, -1, 955, 859, 189,∏
2025-03-10 12:17:37.188,703, 569, 435, -6, 1, 0, -3, 0, 1, 961, 880, 227,∏
2025-03-10 12:17:37.238,695, 584, 441, 2, -2, 0, -4, 1, 3, 962, 892, 264,∏
2025-03-10 12:17:37.288,700, 579, 430, 1, -1, 0, -4, -1, 2, 962, 896, 278,∏
2025-03-10 12:17:37.339,684, 594, 452, 3, -1, 1, -2, 1, 2, 962, 890, 227,∏
2025-03-10 12:17:37.398,690, 575, 424, 9, -6, 6, -6, -1, 3, 960, 865, 215,∏
2025-03-10 12:17:37.450,738, 586, 308, -10, -5, -14, -5, 0, 3, 956, 857, 67,∏
2025-03-10 12:17:37.508,641, 634, 515, -9, 3, -13, -3, -1, 3, 945, 798, 46,∏
2025-03-10 12:17:37.561,960, -49, 250, -4, -7, -35, -4, -1, 2, 954, 830, 45,∏
2025-03-10 12:17:37.619,1757, 1145, 381, -29, -59, 49, -3, -2, 4, 984, 957, 195,∏
2025-03-10 12:17:37.668,679, 828, 485, 7, 4, 30, -5, -2, 5, 987, 968, 467,∏
2025-03-10 12:17:37.728,606, 468, 106, -25, 14, -6, -5, 0, 5, 971, 922, 362,∏
2025-03-10 12:17:37.784,836, 540, 444, 12, 23, -31, -3, -2, 3, 952, 792, 65,∏
2025-03-10 12:17:37.838,693, 722, 436, 20, -13, -5, -5, 0, 4, 974, 917, 268,∏
2025-03-10 12:17:37.888,439, 748, 86, -28, 33, 18, -2, -2, 5, 982, 903, 49,∏
2025-03-10 12:17:37.951,846, 634, 281, -15, 30, 19, -4, -1, 3, 953, 763, 35,∏
2025-03-10 12:17:38.008,449, 588, 475, -5, -16, -40, -6, -1, 3, 943, 860, 367,∏
2025-03-10 12:17:38.065,655, 233, 554, 49, -28, -21, -4, -1, 4, 971, 932, 505,∏
2025-03-10 12:17:38.118,444, 922, 40, -32, 59, 53, -6, -2, 4, 986, 942, 52,∏
2025-03-10 12:17:38.168,770, 525, 323, -13, 26, 13, -8, 0, 3, 976, 875, 31,∏
2025-03-10 12:17:38.228,917, 549, 24, -45, 53, -64, -4, -1, 3, 929, 806, 295,∏
2025-03-10 12:17:38.282,409, 731, 859, -47, 42, -42, 0, -1, 0, 917, 740, 190,∏
2025-03-10 12:17:38.668,665, 577, 481, -9, 1, 1, -3, 0, 0, 819, 385, 62,√
2025-03-10 12:17:38.724,661, 566, 474, -8, 1, 0, -3, 1, 0, 815, 376, 56,√
2025-03-10 12:17:38.778,664, 583, 494, -8, 1, -1, -3, 0, -2, 805, 351, 33,√
2025-03-10 12:17:38.819,668, 571, 489, -8, 0, -1, -3, 0, 0, 798, 297, 37,√
2025-03-10 12:17:38.882,657, 571, 501, -4, 0, -2, -3, 0, -2, 796, 290, 47,√
2025-03-10 12:17:38.933,678, 598, 492, 0, -5, 2, -2, 1, -1, 759, 291, 22,√
2025-03-10 12:17:38.986,678, 579, 463, -2, 1, 0, -3, 2, -3, 752, 340, 37,√
2025-03-10 12:17:39.038,665, 561, 515, -2, -1, 4, -3, 0, -1, 775, 376, 55,√
2025-03-10 12:17:39.088,700, 571, 474, 0, -4, 0, -3, 1, -1, 786, 404, 25,√
2025-03-10 12:17:39.138,677, 565, 495, 0, -1, -3, -3, 1, -2, 775, 419, 37,√
2025-03-10 12:17:39.196,666, 558, 513, 3, -6, 0, -2, -1, 0, 808, 501, 61,√
2025-03-10 12:17:39.249,670, 571, 462, -3, -2, 2, -3, 0, -1, 830, 561, 23,√
2025-03-10 12:17:39.300,661, 572, 555, 22, -26, 5, -3, 2, -1, 851, 629, 62,√
2025-03-10 12:17:39.349,743, 550, 393, 13, -17, 0, -5, 0, 2, 845, 647, 35,√
2025-03-10 12:17:39.409,749, 610, 377, -1, 4, 0, -3, -1, 2, 867, 628, 38,√
2025-03-10 12:17:39.458,635, 590, 483, 2, 9, -3, -3, 0, 2, 877, 615, 55,√
2025-03-10 12:17:39.508,676, 553, 427, 19, -6, -2, -4, 1, 1, 856, 620, 25,√
2025-03-10 12:17:39.565,618, 570, 462, 32, -8, 3, -3, 0, 2, 876, 678, 49,√
2025-03-10 12:17:39.618,1027, 843, 520, 111, -14, -12, -1, -2, 5, 949, 890, 42,√
2025-03-10 12:17:39.668,507, 554, 535, 5, 5, 15, -6, -2, 5, 967, 932, 482,√
2025-03-10 12:17:39.728,628, 702, 171, -34, 34, 25, -3, -1, 4, 975, 911, 74,√
2025-03-10 12:17:39.783,648, 708, 127, -64, 23, 20, -5, -1, 3, 974, 916, 46,√
2025-03-10 12:17:39.838,976, 499, 308, 7, -61, -39, -5, 0, 4, 968, 949, 376,√
2025-03-10 12:17:39.897,601, 612, 304, 26, -39, 5, -5, -1, 4, 980, 965, 579,√
2025-03-10 12:17:39.949,703, 666, 198, 6, 13, 15, -5, -1, 5, 978, 956, 626,√
2025-03-10 12:17:39.999,790, 413, 140, -44, 59, -55, -5, 1, 2, 946, 906, 440,√
2025-03-10 12:17:40.378,686, 583, 445, 3, -1, 6, -3, 0, 2, 777, 422, 57,∛
2025-03-10 12:17:40.428,681, 579, 436, 8, -2, 6, -3, 0, 2, 777, 447, 46,∛
2025-03-10 12:17:40.482,686, 607, 398, 16, 2, 6, -4, 0, 2, 776, 517, 30,∛
2025-03-10 12:17:40.532,739, 583, 398, 22, -3, 10, -4, 0, 4, 775, 611, 43,∛
2025-03-10 12:17:40.588,720, 601, 329, 14, -2, 0, -4, -1, 3, 813, 701, 63,∛
2025-03-10 12:17:40.638,631, 641, 456, 12, 1, 1, -3, 0, 3, 835, 734, 169,∛
2025-03-10 12:17:40.688,677, 607, 353, -3, 0, -2, -3, -1, 4, 853, 752, 66,∛
2025-03-10 12:17:40.738,869, 542, 479, 16, 0, -20, -3, -3, 5, 892, 763, 38,∛
2025-03-10 12:17:40.799,815, 924, 461, 11, -16, 21, -3, 0, 4, 951, 898, 29,∛
2025-03-10 12:17:40.853,398, 288, 703, 29, 12, 16, -5, -1, 5, 970, 925, 381,∛
2025-03-10 12:17:40.908,770, 549, 248, -29, 13, 12, -4, -1, 5, 973, 895, 46,∛
2025-03-10 12:17:40.965,716, 185, 711, -32, -27, -24, -6, 1, 3, 953, 907, 41,∛
2025-03-10 12:17:41.018,889, 637, 414, -18, -57, -27, -4, -2, 4, 942, 937, 284,∛
2025-03-10 12:17:41.080,448, 445, 77, 17, -23, 13, -5, -2, 5, 977, 956, 469,∛
2025-03-10 12:17:41.132,708, 600, 469, 11, 7, 6, -7, -2, 4, 971, 949, 555,∛
2025-03-10 12:17:41.190,595, 406, 293, -40, 47, -65, -6, -2, 5, 945, 876, 312,∛
2025-03-10 12:17:41.238,796, 814, 697, 4, -22, 5, -2, -1, 3, 904, 731, 49,∛
2025-03-10 12:17:41.296,761, 788, 252, 27, 6, -21, -2, -1, 4, 936, 886, 36,∛
2025-03-10 12:17:41.349,673, 682, 260, 14, -8, -3, -4, -2, 5, 960, 936, 148,∛
2025-03-10 12:17:41.404,694, 620, 298, 3, -7, -1, -5, -2, 5, 962, 935, 37,∛
2025-03-10 12:17:41.455,688, 667, 336, -7, 4, 2, -3, -1, 6, 961, 937, 69,∛
2025-03-10 12:17:41.508,686, 550, 328, 8, -2, -5, -2, -2, 5, 966, 941, 46,∛
2025-03-10 12:17:41.563,662, 614, 169, 1, -12, 17, -3, -1, 7, 976, 952, 412,∛
2025-03-10 12:17:41.618,552, 770, 109, -9, 33, 12, -3, -2, 5, 974, 928, 368,∛
2025-03-10 12:17:41.668,679, 505, 347, 7, 8, -9, -3, -3, 5, 976, 886, 43,∛
2025-03-10 12:17:41.718,567, 658, 117, -7, -3, 19, -3, -3, 7, 982, 955, 320,∛
2025-03-10 12:17:41.779,621, 642, 361, -11, 6, 6, -3, -1, 5, 975, 932, 393,∛
2025-03-10 12:17:41.838,654, 568, 406, -5, 25, -15, -4, -2, 5, 955, 885, 335,∛
2025-03-10 12:17:41.887,686, 577, 328, 0, 2, 2, -5, -2, 4, 951, 874, 446,∛
2025-03-10 12:17:41.938,694, 648, 373, -15, 5, -5, -3, -2, 3, 951, 857, 394,∛
2025-03-10 12:17:41.996,641, 642, 424, -9, -4, -1, -3, -1, 3, 952, 828, 320,∛
2025-03-10 12:17:42.049,668, 644, 332, -25, -12, -13, -5, -3, 3, 936, 770, 43,∛
2025-03-10 12:17:42.108,2096, -136, 48, -36, -7, -23, -3, 0, 4, 955, 861, 26,∛
2025-03-10 12:17:42.165,930, 814, 207, 6, -11, 16, -3, -2, 6, 980, 941, 229,∛
2025-03-10 12:17:42.218,601, 481, 347, 14, 0, 5, -4, -2, 5, 982, 950, 513,∛
2025-03-10 12:17:42.268,609, 745, 351, -9, 28, 2, -3, -3, 5, 980, 934, 361,∛
2025-03-10 12:17:42.321,811, 637, 281, -3, 4, -5, -2, 0, 4, 981, 911, 54,∛
2025-03-10 12:17:42.378,698, 597, 327, -13, 6, 8, -4, -2, 5, 980, 917, 64,∛
2025-03-10 12:17:42.432,675, 575, 465, -8, 6, 6, -5, -1, 5, 979, 898, 28,∛
2025-03-10 12:17:42.482,747, 571, 330, 1, 21, 5, -3, -1, 3, 964, 792, 53,∛
2025-03-10 12:17:42.538,833, 575, 399, -12, -1, -1, -5, 0, 4, 922, 723, 68,∛
2025-03-10 12:17:42.588,706, 602, 409, -57, 59, -40, -3, -1, 0, 830, 496, 36,∛
2025-03-10 12:17:42.649,440, 572, 629, -29, 21, -10, -1, -1, 0, 832, 258, 34,∛
2025-03-10 12:17:42.699,617, 626, 524, 11, -19, 5, -1, -1, -1, 780, 309, 69,∛
2025-03-10 12:17:43.078,706, 620, 367, 2, 0, 3, -3, -1, 3, 809, 523, 27,∜
2025-03-10 12:17:43.128,699, 624, 372, 2, 2, 3, -3, -1, 3, 818, 534, 23,∜
2025-03-10 12:17:43.181,675, 638, 420, 7, 1, 4, -4, 0, 4, 849, 619, 42,∜
2025-03-10 12:17:43.230,685, 599, 408, 6, -4, 1, -3, -1, 2, 864, 647, 60,∜
2025-03-10 12:17:43.283,703, 613, 390, 1, 0, 1, -3, -3, 3, 859, 651, 24,∜
2025-03-10 12:17:43.333,672, 627, 397, -10, -1, -5, -3, -1, 4, 863, 594, 30,∜
2025-03-10 12:17:43.388,701, 609, 419, 4, -8, 2, -4, -1, 4, 866, 570, 38,∜
2025-03-10 12:17:43.440,679, 610, 388, -2, -2, 0, -3, -3, 3, 868, 622, 36,∜
2025-03-10 12:17:43.496,699, 709, 365, 29, -3, -16, -3, -1, 4, 907, 732, 42,∜
2025-03-10 12:17:43.550,704, 658, 331, 2, 2, -2, -2, -1, 6, 917, 767, 32,∜
2025-03-10 12:17:43.600,682, 667, 373, 2, -1, -1, -2, -1, 5, 926, 799, 53,∜
2025-03-10 12:17:43.650,628, 588, 413, 7, -3, -9, -3, -2, 5, 935, 821, 44,∜
2025-03-10 12:17:43.709,783, 495, 369, 24, -3, -5, -1, -3, 6, 961, 883, 58,∜
2025-03-10 12:17:43.763,755, 632, 255, 2, 3, 17, -4, -1, 4, 975, 927, 62,∜
2025-03-10 12:17:43.815,981, 626, 373, -7, 43, 27, -5, -2, 5, 979, 897, 43,∜
2025-03-10 12:17:43.868,594, 502, 113, -6, 21, 19, -5, -1, 5, 980, 882, 69,∜
2025-03-10 12:17:43.918,596, 163, 658, 0, -44, -52, -6, -1, 2, 969, 930, 42,∜
2025-03-10 12:17:43.979,741, 517, 650, 25, -42, -11, -3, -3, 5, 978, 952, 384,∜
2025-03-10 12:17:44.035,458, 580, 106, -1, -4, 16, -5, -2, 5, 984, 958, 506,∜
2025-03-10 12:17:44.088,681, 632, 319, -3, 13, 5, -4, -2, 7, 965, 927, 530,∜
2025-03-10 12:17:44.148,635, 563, 254, -29, 50, -68, -3, -1, 4, 919, 783, 36,∜
2025-03-10 12:17:44.198,580, 637, 533, -6, -28, 3, -1, -2, 4, 920, 807, 67,∜
2025-03-10 12:17:44.258,656, 636, 420, 36, -59, 14, -3, -2, 5, 937, 890, 154,∜
2025-03-10 12:17:44.311,687, 742, 452, 8, -18, -11, -4, -2, 7, 971, 940, 119,∜
2025-03-10 12:17:44.364,607, 786, 208, 4, 32, 15, -3, -2, 6, 976, 917, 61,∜
2025-03-10 12:17:44.413,756, 672, 97, 3, 5, 1, -4, -3, 6, 981, 908, 61,∜
2025-03-10 12:17:44.468,572, 383, 264, -33, 2, 24, -4, -2, 6, 985, 955, 46,∜
2025-03-10 12:17:44.518,688, 698, 264, -9, 11, 6, -3, -3, 5, 977, 935, 385,∜
2025-03-10 12:17:44.581,600, 703, 458, -9, -2, -11, -3, -2, 5, 959, 903, 374,∜
2025-03-10 12:17:44.631,703, 512, 206, 25, -9, 1, -2, -3, 5, 983, 936, 208,∜
2025-03-10 12:17:44.688,685, 772, 92, -45, 51, 32, -4, -1, 4, 980, 883, 34,∜
2025-03-10 12:17:44.746,965, 336, 110, -16, 38, -49, -4, -1, 2, 934, 768, 191,∜
2025-03-10 12:17:44.799,558, 670, 706, -58, 46, -39, -1, -2, 1, 912, 766, 42,∜
2025-03-10 12:17:44.848,456, 651, 740, -4, -11, 6, -1, 0, 1, 902, 717, 44,∜
2025-03-10 12:17:45.178,640, 620, 466, 3, -6, 4, -1, 0, 2, 856, 689, 63,∫
2025-03-10 12:17:45.230,649, 609, 458, 5, -6, 4, -3, 1, 0, 857, 695, 67,∫
2025-03-10 12:17:45.282,666, 617, 421, 4, -4, 4, -2, -1, 1, 851, 692, 41,∫
2025-03-10 12:17:45.334,661, 620, 436, -3, -1, 3, -2, 0, 2, 858, 702, 51,∫
2025-03-10 12:17:45.388,650, 612, 457, 5, -6, 4, -3, -1, 1, 858, 708, 42,∫
2025-03-10 12:17:45.438,675, 610, 404, 6, -7, 3, -2, -1, 3, 866, 716, 37,∫
2025-03-10 12:17:45.488,686, 602, 417, 3, -3, -1, -3, 0, 2, 867, 711, 59,∫
2025-03-10 12:17:45.539,670, 644, 403, 9, -5, 3, -4, -2, 2, 878, 720, 49,∫
2025-03-10 12:17:45.589,686, 610, 395, 5, -1, 3, -2, -3, 4, 884, 725, 21,∫
2025-03-10 12:17:45.647,683, 623, 411, 0, -2, 2, -2, -2, 2, 891, 736, 48,∫
2025-03-10 12:17:45.700,688, 613, 415, 1, -2, 0, -5, -2, 1, 899, 744, 65,∫
2025-03-10 12:17:45.752,694, 622, 382, 3, -2, -4, -1, -2, 3, 897, 733, 36,∫
2025-03-10 12:17:45.800,695, 633, 372, 4, 5, 2, -3, -2, 2, 893, 724, 58,∫
2025-03-10 12:17:45.850,677, 648, 405, 2, 0, 1, -3, -2, 3, 896, 730, 51,∫
2025-03-10 12:17:45.904,706, 615, 391, 3, -2, 4, -3, -1, 2, 905, 737, 45,∫
2025-03-10 12:17:45.958,724, 611, 395, 1, 0, 3, -3, -1, 3, 913, 744, 41,∫
2025-03-10 12:17:46.012,701, 609, 397, 4, -1, 4, -3, -1, 4, 925, 775, 182,∫
2025-03-10 12:17:46.064,692, 601, 369, 6, -6, 8, -4, -1, 4, 934, 763, 361,∫
2025-03-10 12:17:46.118,693, 680, 387, 12, -21, 20, -6, -1, 3, 949, 807, 457,∫
2025-03-10 12:17:46.168,655, 684, 309, -17, 1, -4, -4, -1, 6, 959, 866, 469,∫
2025-03-10 12:17:46.231,614, 568, 398, -1, -8, -11, -5, -3, 6, 964, 902, 478,∫
2025-03-10 12:17:46.281,330, 647, 294, 37, 20, -16, -2, -1, 4, 970, 901, 181,∫
2025-03-10 12:17:46.338,717, 607, 286, 28, 48, 29, -3, -2, 5, 979, 921, 68,∫
2025-03-10 12:17:46.396,583, 725, 235, -25, 30, 17, -5, -2, 6, 980, 891, 67,∫
2025-03-10 12:17:46.448,800, 654, 397, -4, 32, 5, -3, -2, 3, 918, 599, 27,∫
2025-03-10 12:17:46.498,761, 350, 124, -77, 85, -60, -3, -2, 1, 778, 619, 64,∫
2025-03-10 12:17:46.798,667, 615, 417, 3, -11, 5, -2, -1, 1, 809, 658, 27,∮
2025-03-10 12:17:46.852,662, 619, 401, 1, -10, 4, -2, -1, 1, 813, 658, 25,∮
2025-03-10 12:17:46.908,673, 607, 439, 0, -4, 3, -3, 0, 3, 846, 692, 42,∮
2025-03-10 12:17:46.962,645, 624, 448, -1, -7, 4, -2, -1, 2, 855, 698, 34,∮
2025-03-10 12:17:47.013,686, 597, 427, -1, -8, 3, -2, -1, 3, 876, 718, 40,∮
2025-03-10 12:17:47.063,682, 599, 416, -3, 0, 1, -3, -1, 1, 881, 725, 39,∮
2025-03-10 12:17:47.118,673, 601, 427, -4, -2, 1, -3, -1, 2, 885, 734, 51,∮
2025-03-10 12:17:47.168,681, 617, 401, 0, -5, 3, -3, -2, 2, 894, 767, 62,∮
2025-03-10 12:17:47.218,697, 594, 420, -5, 0, 0, -4, 1, 3, 897, 767, 42,∮
2025-03-10 12:17:47.268,677, 597, 436, -3, -2, 2, -2, 0, 2, 900, 764, 39,∮
2025-03-10 12:17:47.323,694, 598, 422, -3, -5, 2, -4, -1, 3, 907, 773, 44,∮
2025-03-10 12:17:47.380,701, 590, 418, -4, -1, 2, -4, 0, 1, 916, 779, 49,∮
2025-03-10 12:17:47.429,711, 600, 426, 0, -3, 3, -4, 0, 1, 923, 793, 55,∮
2025-03-10 12:17:47.479,732, 589, 450, 21, -8, 14, -5, -1, 3, 935, 805, 63,∮
2025-03-10 12:17:47.530,713, 573, 345, 7, -8, 7, -4, -1, 4, 939, 837, 321,∮
2025-03-10 12:17:47.588,721, 597, 438, -5, 1, 4, -5, 0, 4, 942, 845, 341,∮
2025-03-10 12:17:47.638,701, 578, 388, 0, -3, 3, -3, -1, 3, 948, 855, 343,∮
2025-03-10 12:17:47.695,625, 573, 509, 10, -28, 8, -5, -2, 4, 953, 872, 244,∮
2025-03-10 12:17:47.748,583, 580, 573, -1, -13, -22, -5, 0, 4, 960, 911, 42,∮
2025-03-10 12:17:47.798,900, 963, 80, 64, 14, -6, -4, -2, 5, 975, 905, 64,∮
2025-03-10 12:17:47.858,779, 441, 75, -32, 46, 56, -6, 0, 3, 979, 923, 46,∮
2025-03-10 12:17:47.912,588, 294, 625, 6, -59, -58, -6, -3, 4, 960, 913, 431,∮
2025-03-10 12:17:47.968,817, 672, 714, 19, -16, -24, -4, 0, 5, 963, 933, 476,∮
2025-03-10 12:17:48.026,458, 642, 297, -14, 11, 30, -4, -1, 5, 981, 944, 367,∮
2025-03-10 12:17:48.080,280, 834, 191, -46, 44, 32, -6, -1, 4, 981, 919, 64,∮
2025-03-10 12:17:48.131,945, 395, 528, -16, 17, -14, -5, -1, 3, 944, 766, 50,∮
2025-03-10 12:17:48.194,346, 631, 393, -13, -8, -47, -3, -1, 2, 942, 879, 288,∮
2025-03-10 12:17:48.248,1022, -395, 236, 58, -18, -22, -5, 0, 3, 969, 928, 510,∮
2025-03-10 12:17:48.298,569, 631, 543, -32, 42, 46, -3, -2, 3, 987, 927, 66,∮
2025-03-10 12:17:48.362,923, 463, 320, -57, 43, 23, -7, 0, 1, 976, 799, 29,∮
2025-03-10 12:17:48.415,1118, 207, 699, 59, 12, -21, -4, 0, 0, 883, 506, 43,∮
2025-03-10 12:17:48.468,592, 468, 386, -13, 71, -68, -3, 0, -2, 757, 601, 32,∮
2025-03-10 12:17:48.526,335, 633, 807, -39, 8, -4, -3, 0, -4, 812, 512, 66,∮
2025-03-10 12:17:48.820,660, 577, 529, -5, 2, 1, -2, 1, -2, 787, 480, 42,∂
2025-03-10 12:17:48.868,653, 578, 537, -6, 1, 1, -3, -1, -2, 783, 472, 33,∂
2025-03-10 12:17:48.928,649, 550, 541, 3, -4, -1, -3, 0, -2, 772, 493, 41,∂
2025-03-10 12:17:48.981,661, 568, 525, 4, -7, 0, -2, 0, -2, 773, 511, 38,∂
2025-03-10 12:17:49.031,655, 554, 519, 4, -6, 2, -4, -1, -3, 764, 523, 56,∂
2025-03-10 12:17:49.080,685, 573, 499, 4, -10, 4, -2, 0, -1, 757, 554, 24,∂
2025-03-10 12:17:49.130,688, 563, 496, 3, -4, 2, -3, 1, 0, 805, 604, 62,∂
2025-03-10 12:17:49.188,677, 567, 510, 7, -8, 2, -4, 1, 1, 825, 640, 54,∂
2025-03-10 12:17:49.238,704, 579, 473, 4, -6, 3, -4, 0, 0, 844, 651, 32,∂
2025-03-10 12:17:49.288,688, 560, 462, -1, -2, 2, -3, 1, -1, 862, 665, 27,∂
2025-03-10 12:17:49.345,682, 569, 484, 2, -6, 1, -3, 0, -1, 882, 710, 51,∂
2025-03-10 12:17:49.398,676, 563, 477, 2, -3, -2, -4, -1, 1, 887, 738, 40,∂
2025-03-10 12:17:49.448,670, 553, 479, 6, -8, -1, -3, 1, 0, 897, 765, 61,∂
2025-03-10 12:17:49.498,628, 595, 531, 4, -15, 1, -3, 0, 1, 902, 757, 43,∂
2025-03-10 12:17:49.548,657, 596, 445, 9, -28, -2, -5, 1, 0, 908, 770, 27,∂
2025-03-10 12:17:49.606,881, 410, 412, 61, -9, -26, -5, 0, 2, 945, 896, 70,∂
2025-03-10 12:17:49.663,855, 515, 157, 10, -15, 26, -5, -2, 3, 975, 937, 487,∂
2025-03-10 12:17:49.718,512, 858, 67, 15, 47, 41, -6, -1, 4, 980, 928, 208,∂
2025-03-10 12:17:49.768,707, 621, 286, -90, 38, 11, -5, 0, 4, 971, 834, 25,∂
2025-03-10 12:17:49.829,862, 279, 692, 60, -30, -23, -5, -1, 2, 971, 922, 35,∂
2025-03-10 12:17:49.881,623, 887, 436, 2, -16, 13, -3, 0, 4, 984, 956, 310,∂
2025-03-10 12:17:49.938,799, 583, 291, -26, 14, 5, -5, -2, 4, 971, 918, 379,∂
2025-03-10 12:17:49.988,671, 438, 479, -92, 90, -48, -4, 1, 0, 939, 706, 40,∂
2025-03-10 12:17:50.045,463, 525, 694, -9, 9, -8, 0, 0, -2, 909, 652, 24,∂
2025-03-10 12:17:50.098,610, 620, 583, 24, -28, 4, -3, 1, -2, 873, 602, 65,∂
2025-03-10 12:17:50.148,706, 587, 402, 9, -16, 0, -3, 1, -1, 842, 593, 54,∂
2025-03-10 12:17:50.794,666, 598, 481, -4, 2, -1, -3, -2, -1, 826, 655, 44,∇
2025-03-10 12:17:50.848,660, 598, 478, -4, 1, -1, -3, 2, 0, 826, 653, 47,∇
2025-03-10 12:17:50.898,669, 593, 467, -1, 0, 0, -3, 0, 0, 831, 652, 49,∇
2025-03-10 12:17:50.948,668, 590, 487, -1, 1, 1, -3, 1, 0, 828, 655, 54,∇
2025-03-10 12:17:50.998,682, 578, 473, -2, 1, -1, -3, -1, 0, 826, 653, 37,∇
2025-03-10 12:17:51.055,660, 591, 464, -4, 0, -2, -4, 0, -1, 828, 656, 63,∇
2025-03-10 12:17:51.111,661, 594, 470, -2, -2, -1, -2, 0, 0, 827, 665, 46,∇
2025-03-10 12:17:51.163,661, 590, 473, -1, -2, 0, -2, -1, 1, 837, 678, 20,∇
2025-03-10 12:17:51.214,668, 583, 461, 1, -5, 1, -3, 1, 1, 856, 718, 62,∇
2025-03-10 12:17:51.265,671, 604, 460, 1, -5, 2, -5, 1, -1, 869, 748, 60,∇
2025-03-10 12:17:51.313,677, 576, 451, -2, -2, 1, -4, 0, 1, 886, 768, 37,∇
2025-03-10 12:17:51.368,654, 601, 510, 8, -15, 5, -4, -1, 1, 897, 797, 41,∇
2025-03-10 12:17:51.418,657, 597, 425, 5, -17, 4, -3, 0, 1, 904, 790, 54,∇
2025-03-10 12:17:51.470,625, 571, 500, 16, -21, 5, -3, 1, 2, 912, 784, 45,∇
2025-03-10 12:17:51.532,800, 492, 417, 43, -13, -25, -4, -2, 3, 951, 853, 53,∇
2025-03-10 12:17:51.579,739, 1033, 86, 7, -36, 54, -2, -2, 5, 982, 953, 216,∇
2025-03-10 12:17:51.638,341, 110, 429, 8, 4, 10, -6, 0, 5, 988, 958, 489,∇
2025-03-10 12:17:51.688,808, 667, -3, 26, 39, 5, -5, -3, 4, 987, 945, 298,∇
2025-03-10 12:17:51.745,836, 619, 45, -54, 47, 18, -5, -1, 6, 982, 880, 37,∇
2025-03-10 12:17:51.798,707, 320, 927, -29, -5, -15, -5, 0, 2, 951, 811, 36,∇
2025-03-10 12:17:51.851,486, 719, 747, 20, -38, -17, -5, 0, 2, 931, 848, 44,∇
2025-03-10 12:17:51.913,886, 584, 341, 55, -28, -15, -4, -1, 4, 979, 927, 58,∇
2025-03-10 12:17:51.963,583, 310, 356, -44, 50, 51, -5, 1, 3, 981, 911, 25,∇
2025-03-10 12:17:52.018,911, 276, 375, -40, 14, -40, -5, 0, 0, 950, 764, 36,∇
2025-03-10 12:17:52.077,659, 465, 707, -4, 49, -59, -4, -2, -1, 813, 701, 42,∇
2025-03-10 12:17:52.378,690, 562, 458, -12, 2, -2, -3, 0, 1, 872, 655, 39,∆
2025-03-10 12:17:52.429,689, 557, 468, -9, 0, -2, -3, -1, 0, 869, 655, 46,∆
2025-03-10 12:17:52.488,709, 579, 446, 8, -6, 1, -4, 1, 2, 880, 703, 57,∆
2025-03-10 12:17:52.535,669, 576, 414, 4, 0, 1, -4, -2, 1, 898, 737, 54,∆
2025-03-10 12:17:52.588,673, 593, 493, 22, -19, 9, -5, 0, 2, 913, 771, 171,∆
2025-03-10 12:17:52.638,679, 620, 372, 6, -4, -10, -4, 0, 3, 940, 848, 232,∆
2025-03-10 12:17:52.699,674, 500, 520, -1, -17, -11, -4, -2, 3, 965, 898, 37,∆
2025-03-10 12:17:52.753,-258, 800, -36, 32, 41, 7, -4, 0, 3, 975, 863, 67,∆
2025-03-10 12:17:52.806,782, 776, -69, -20, 51, 13, -4, 0, 3, 951, 809, 42,∆
2025-03-10 12:17:52.863,561, 404, 366, 21, -49, -34, -5, -1, 3, 941, 869, 45,∆
2025-03-10 12:17:52.913,910, 838, 439, 44, -31, 5, -3, -1, 5, 974, 924, 145,∆
2025-03-10 12:17:52.968,519, 180, 263, 13, 45, 40, -5, -1, 4, 983, 933, 43,∆
2025-03-10 12:17:53.028,501, 614, 296, -37, 27, 8, -6, -1, 3, 977, 919, 38,∆
2025-03-10 12:17:53.080,1460, 554, 393, 37, 6, -23, -4, -1, 3, 959, 845, 41,∆
2025-03-10 12:17:53.138,1139, 357, -98, -81, 66, -14, -4, -1, 4, 944, 761, 54,∆
2025-03-10 12:17:53.195,362, 756, 1008, -43, 55, -32, -3, 0, -1, 927, 615, 46,∆
2025-03-10 12:17:53.248,546, 518, 602, -1, -30, 9, -3, 1, -2, 897, 407, 31,∆
2025-03-10 12:17:53.298,712, 507, 442, 3, -29, 1, -2, 1, -2, 860, 225, 40,∆
2025-03-10 12:17:53.628,667, 598, 498, 1, -7, -1, -2, 1, 0, 820, 643, 47,π
2025-03-10 12:17:53.679,672, 596, 481, 1, -7, 1, -4, 0, 1, 822, 649, 66,π
2025-03-10 12:17:53.732,665, 587, 470, 6, -10, 1, -2, 1, 0, 830, 653, 39,π
2025-03-10 12:17:53.781,687, 575, 446, 2, -5, 0, -3, 0, 1, 855, 677, 44,π
2025-03-10 12:17:53.834,671, 587, 472, 1, -2, 1, -4, 0, 1, 860, 684, 30,π
2025-03-10 12:17:53.880,674, 592, 462, 2, -3, 1, -4, 0, 0, 881, 721, 32,π
2025-03-10 12:17:53.932,681, 589, 454, 3, -4, 1, -4, 1, 1, 890, 736, 45,π
2025-03-10 12:17:53.980,674, 568, 466, 1, -6, 3, -3, 1, 1, 897, 759, 60,π
2025-03-10 12:17:54.038,691, 586, 423, 4, -5, 3, -2, 1, 1, 904, 765, 64,π
2025-03-10 12:17:54.088,697, 578, 431, 1, -5, -3, -5, 1, 2, 906, 772, 41,π
2025-03-10 12:17:54.141,698, 593, 430, -7, 1, -1, -4, -1, 2, 913, 781, 50,π
2025-03-10 12:17:54.194,679, 581, 461, -4, -3, -4, -5, 0, 1, 909, 761, 62,π
2025-03-10 12:17:54.248,688, 584, 444, -6, -2, -3, -4, -1, 3, 909, 747, 26,π
2025-03-10 12:17:54.298,570, 552, 522, 7, -6, 6, -4, 1, 1, 910, 747, 49,π
2025-03-10 12:17:54.348,691, 605, 363, 44, -7, -36, -4, -1, 0, 938, 795, 55,π
2025-03-10 12:17:54.412,1238, 942, 498, 35, -43, 32, -2, -1, 3, 979, 937, 42,π
2025-03-10 12:17:54.463,882, 681, 440, -4, 8, 33, -7, -1, 2, 987, 952, 324,π
2025-03-10 12:17:54.518,722, 500, 358, 10, 3, 5, -5, -1, 4, 976, 924, 403,π
2025-03-10 12:17:54.568,684, 513, 238, -42, 38, -52, -5, -1, 3, 939, 777, 28,π
2025-03-10 12:17:54.629,829, -89, 372, -41, -17, -19, -4, -2, 3, 947, 833, 50,π
2025-03-10 12:17:54.679,697, 765, 402, -24, 7, 19, -5, -2, 3, 978, 901, 56,π
2025-03-10 12:17:54.738,842, 575, 378, -53, 34, 21, -5, 0, 0, 975, 793, 50,π
2025-03-10 12:17:54.795,1013, 211, 900, 30, -37, -27, -5, 1, 3, 921, 759, 66,π
2025-03-10 12:17:54.848,369, 752, 878, 36, -47, 18, -5, 0, 2, 963, 895, 161,π
2025-03-10 12:17:54.899,629, 604, 67, 8, 8, 2, -4, 1, 3, 979, 909, 43,π
2025-03-10 12:17:54.956,1075, 1016, 312, -52, 43, 54, -5, 0, 1, 984, 877, 42,π
2025-03-10 12:17:55.010,740, 571, 690, 9, -6, 20, -6, -1, 2, 986, 942, 58,π
2025-03-10 12:17:55.063,740, 532, 314, 30, 2, 4, -7, 1, 1, 980, 935, 340,π
2025-03-10 12:17:55.113,829, 456, 21, -86, 96, -50, -6, 1, 3, 965, 846, 40,π
2025-03-10 12:17:55.170,473, 649, 930, -45, 32, -13, -3, -1, -3, 944, 539, 37,π
2025-03-10 12:17:55.226,640, 567, 582, 16, -27, -4, -2, 0, -1, 921, 476, 48,π
2025-03-10 12:17:55.898,674, 567, 479, 0, -1, 0, -3, 1, -2, 811, 448, 43,θ
2025-03-10 12:17:55.948,677, 565, 478, 1, 0, 0, -3, 1, 1, 814, 459, 64,θ
2025-03-10 12:17:55.998,686, 581, 480, -2, 0, -1, -3, 1, 0, 810, 461, 37,θ
2025-03-10 12:17:56.048,686, 583, 475, -3, 0, -2, -4, 1, 0, 807, 465, 33,θ
2025-03-10 12:17:56.103,680, 569, 492, -1, 0, -1, -3, 1, 0, 805, 480, 47,θ
2025-03-10 12:17:56.156,674, 579, 480, -3, 1, -1, -4, 0, -1, 791, 463, 31,θ
2025-03-10 12:17:56.210,673, 571, 484, -4, 1, -1, -2, 1, -1, 769, 447, 38,θ
2025-03-10 12:17:56.262,677, 565, 480, 2, -2, -3, -3, 2, 0, 765, 433, 63,θ
