Timestamp,Acc_X,Acc_Y,Acc_Z,Gyro_X,Gyro_Y,Gyro_Z,Mag_X,Mag_Y,Mag_Z,Force1,Force2,Force3,Letter
2025-03-17 14:14:26.246,608, 673, 453, -5, 2, -3, -2, 4, -11, 778, 301, 136,noise
2025-03-17 14:14:26.247,590, 670, 481, 2, 0, 2, -2, 1, -10, 784, 334, 170,noise
2025-03-17 14:14:26.249,608, 673, 453, -5, 2, -3, -2, 4, -11, 778, 301, 136,noise
2025-03-17 14:14:26.250,590, 670, 481, 2, 0, 2, -2, 1, -10, 784, 334, 170,noise
2025-03-17 14:14:33.150,620, 665, 440, -3, 0, -1, -1, 1, -3, 806, 406, 323,A
2025-03-17 14:14:33.203,625, 659, 445, -3, 0, 0, -2, 0, 0, 807, 407, 325,A
2025-03-17 14:14:33.256,623, 654, 433, -6, 1, -1, -1, 2, -2, 808, 429, 337,A
2025-03-17 14:14:33.304,612, 660, 450, -4, 0, 0, -3, 1, -3, 808, 419, 319,A
2025-03-17 14:14:33.364,618, 659, 450, -5, 0, 1, -2, 1, -3, 812, 445, 326,A
2025-03-17 14:14:33.415,619, 666, 448, -4, 0, 0, 0, 1, -3, 815, 462, 326,A
2025-03-17 14:14:33.466,621, 661, 447, -3, 0, -1, -1, 1, -1, 821, 502, 345,A
2025-03-17 14:14:33.523,625, 656, 453, -3, -1, 0, -4, 1, -4, 824, 503, 346,A
2025-03-17 14:14:33.573,625, 658, 454, -3, -1, 0, -3, 1, -3, 827, 508, 343,A
2025-03-17 14:14:33.630,625, 655, 453, -4, 0, 0, -2, 1, -2, 834, 525, 350,A
2025-03-17 14:14:33.683,632, 649, 462, -5, -1, -1, -1, -1, -2, 838, 534, 338,A
2025-03-17 14:14:33.733,629, 653, 460, -7, -1, 2, -2, 2, -1, 851, 600, 339,A
2025-03-17 14:14:33.798,646, 638, 470, -12, -5, 3, -3, 2, -2, 870, 686, 423,A
2025-03-17 14:14:33.849,642, 642, 486, -12, -2, 8, -1, 2, -2, 889, 743, 441,A
2025-03-17 14:14:33.902,634, 604, 469, -6, -2, 8, -4, 5, -1, 910, 801, 485,A
2025-03-17 14:14:33.957,645, 607, 503, 7, -6, 9, -3, 5, -1, 925, 844, 540,A
2025-03-17 14:14:34.004,648, 618, 453, 15, -7, 10, -2, 2, 2, 936, 884, 588,A
2025-03-17 14:14:34.064,679, 629, 412, 8, -6, 7, -3, 2, 2, 947, 902, 646,A
2025-03-17 14:14:34.115,638, 634, 450, 8, -5, 10, -4, 4, 3, 951, 916, 681,A
2025-03-17 14:14:34.166,664, 621, 428, 6, -11, 6, -2, 3, 4, 958, 924, 710,A
2025-03-17 14:14:34.222,679, 617, 378, 0, -5, 5, -2, 3, 5, 959, 928, 717,A
2025-03-17 14:14:34.273,661, 644, 412, -5, -9, 5, -3, 2, 4, 959, 929, 723,A
2025-03-17 14:14:34.331,671, 596, 468, 2, -28, 16, -3, 4, 5, 962, 932, 734,A
2025-03-17 14:14:34.382,772, 546, 388, 17, -29, 6, -4, 4, 8, 962, 935, 750,A
2025-03-17 14:14:34.432,595, 315, 358, 33, -19, -20, -3, 2, 13, 967, 935, 706,A
2025-03-17 14:14:34.492,878, 755, 64, 31, 27, 7, -1, 3, 14, 969, 923, 605,A
2025-03-17 14:14:34.547,867, 635, 126, -30, 26, 3, -2, 3, 12, 961, 907, 570,A
2025-03-17 14:14:34.602,588, 733, 577, -34, -25, -10, -3, 4, 9, 958, 919, 638,A
2025-03-17 14:14:34.663,908, 554, 293, 23, -26, -10, -3, 4, 11, 964, 933, 689,A
2025-03-17 14:14:34.716,469, 596, 290, 11, 44, 42, -2, 4, 12, 969, 928, 572,A
2025-03-17 14:14:34.772,699, 490, 239, -36, 29, -20, -2, 5, 11, 965, 919, 531,A
2025-03-17 14:14:34.831,760, 639, 629, -5, -42, 3, -1, 2, 10, 960, 911, 563,A
2025-03-17 14:14:34.882,867, 904, 33, 4, 1, 19, -4, 4, 12, 973, 949, 580,A
2025-03-17 14:14:34.932,773, 422, 372, -7, 20, 13, -4, 5, 12, 971, 951, 680,A
2025-03-17 14:14:34.993,660, 579, 381, -35, 59, -43, -2, 3, 6, 958, 929, 657,A
2025-03-17 14:14:35.047,583, 630, 621, -27, 18, -24, -3, 3, 2, 947, 882, 600,A
2025-03-17 14:14:35.384,673, 624, 495, 19, -3, -22, -3, 3, 1, 897, 748, 528,B
2025-03-17 14:14:35.443,667, 640, 491, 20, -3, -21, -3, 1, 2, 896, 749, 531,B
2025-03-17 14:14:35.498,627, 723, 460, 23, -8, 3, -2, 2, 3, 894, 773, 531,B
2025-03-17 14:14:35.552,596, 623, 341, 31, -27, 26, -1, -2, 8, 898, 764, 476,B
2025-03-17 14:14:35.602,635, 583, 173, -6, 11, 22, -4, 1, 8, 906, 769, 433,B
2025-03-17 14:14:35.662,745, 644, 494, 1, -6, 13, -2, 1, 6, 914, 797, 411,B
2025-03-17 14:14:35.715,739, 645, 346, -13, 4, -8, -2, 3, 6, 919, 828, 461,B
2025-03-17 14:14:35.766,581, 647, 510, 6, -35, 2, -2, 2, 6, 926, 864, 445,B
2025-03-17 14:14:35.822,721, 661, 333, -12, -21, 5, -2, 3, 8, 934, 907, 446,B
2025-03-17 14:14:35.879,736, 480, 382, 15, -3, -13, -2, 5, 7, 960, 923, 412,B
2025-03-17 14:14:35.931,411, 793, 162, 16, 47, 24, -1, 3, 8, 962, 917, 301,B
2025-03-17 14:14:35.987,635, 316, 555, -26, -3, -30, -1, 3, 6, 950, 911, 541,B
2025-03-17 14:14:36.042,782, 481, 542, -24, -18, -1, -2, 3, 7, 958, 935, 602,B
2025-03-17 14:14:36.096,698, 709, 326, 4, 11, 13, -3, 3, 6, 963, 941, 612,B
2025-03-17 14:14:36.148,586, 546, 578, 10, 13, 16, -3, 4, 6, 968, 940, 595,B
2025-03-17 14:14:36.203,781, 576, 199, 4, 9, 4, -1, 4, 6, 964, 936, 559,B
2025-03-17 14:14:36.253,579, 523, 569, 11, 9, 5, -2, 3, 6, 968, 938, 505,B
2025-03-17 14:14:36.302,723, 576, 300, -4, 12, 8, -2, 3, 7, 962, 918, 397,B
2025-03-17 14:14:36.363,823, 581, 328, -15, 23, -28, -1, 4, 3, 950, 888, 473,B
2025-03-17 14:14:36.415,558, 627, 607, -11, -2, -17, -1, 4, 0, 939, 883, 507,B
2025-03-17 14:14:36.725,729, 593, 414, -2, -7, 6, -3, 5, 4, 936, 879, 519,C
2025-03-17 14:14:36.780,728, 590, 388, -2, -6, 6, -3, 5, 4, 934, 881, 519,C
2025-03-17 14:14:36.833,725, 570, 398, -2, -4, 4, -4, 4, 5, 939, 892, 519,C
2025-03-17 14:14:36.882,723, 591, 380, 3, -5, 2, -2, 3, 7, 939, 900, 551,C
2025-03-17 14:14:36.933,698, 577, 416, -2, -5, 2, -4, 4, 3, 941, 908, 554,C
2025-03-17 14:14:36.993,699, 611, 416, 2, -13, 1, -2, 5, 5, 942, 917, 559,C
2025-03-17 14:14:37.046,754, 592, 360, -4, -3, -5, -3, 4, 7, 948, 926, 531,C
2025-03-17 14:14:37.099,649, 549, 458, -1, -4, -11, -2, 3, 6, 954, 933, 327,C
2025-03-17 14:14:37.152,856, 543, 461, 47, -2, -13, -2, 5, 7, 958, 922, 297,C
2025-03-17 14:14:37.204,833, 613, 321, -10, 38, 36, -2, 5, 8, 965, 928, 295,C
2025-03-17 14:14:37.266,698, 599, 498, -13, 10, 16, -1, 5, 6, 968, 941, 498,C
2025-03-17 14:14:37.315,786, 599, 249, -24, 52, -29, -1, 5, 4, 954, 930, 649,C
2025-03-17 14:14:37.377,591, 621, 675, -20, 31, -21, -3, 3, -2, 943, 889, 618,C
2025-03-17 14:14:37.678,677, 584, 455, 6, -19, 2, -2, 4, 1, 931, 871, 524,D
2025-03-17 14:14:37.731,699, 598, 436, 7, -17, 3, -3, 4, 1, 932, 873, 517,D
2025-03-17 14:14:37.784,729, 604, 381, 5, -10, 1, -4, 4, 3, 932, 880, 542,D
2025-03-17 14:14:37.836,714, 611, 401, -1, -4, -1, -3, 4, 2, 932, 885, 559,D
2025-03-17 14:14:37.887,685, 607, 395, 0, -6, -4, -4, 5, 3, 935, 890, 535,D
2025-03-17 14:14:37.948,676, 591, 434, -3, -10, -1, -1, 2, 5, 932, 898, 513,D
2025-03-17 14:14:37.997,728, 607, 356, -1, -5, 0, 0, 3, 6, 941, 907, 486,D
2025-03-17 14:14:38.050,696, 613, 402, -2, 0, 2, -3, 6, 4, 941, 911, 493,D
2025-03-17 14:14:38.103,715, 611, 392, -4, -2, -2, -1, 3, 6, 944, 918, 452,D
2025-03-17 14:14:38.153,793, 604, 440, 28, 13, 9, -1, 3, 5, 954, 920, 399,D
2025-03-17 14:14:38.206,681, 626, 326, 12, 29, 34, -2, 4, 3, 962, 917, 220,D
2025-03-17 14:14:38.267,752, 529, 397, -24, 15, -1, -1, 5, 4, 955, 911, 278,D
2025-03-17 14:14:38.323,627, 809, 469, -15, -35, -27, 0, 4, 3, 940, 906, 520,D
2025-03-17 14:14:38.373,802, 497, 393, -3, -16, -3, -3, 3, 4, 960, 945, 566,D
2025-03-17 14:14:38.431,691, 678, 318, 24, 24, 24, -1, 4, 4, 972, 943, 481,D
2025-03-17 14:14:38.484,881, 359, 541, 3, 34, 23, -1, 3, 6, 968, 926, 181,D
2025-03-17 14:14:38.533,976, 395, 409, 5, 16, -40, 0, 3, 4, 949, 862, 443,D
2025-03-17 14:14:38.592,605, 555, 600, -20, 27, -29, -1, 4, 1, 935, 850, 530,D
2025-03-17 14:14:38.865,687, 602, 418, -5, -6, 2, -1, 2, 5, 918, 838, 434,E
2025-03-17 14:14:38.914,686, 610, 421, -4, -6, 2, -1, 2, 5, 918, 838, 442,E
2025-03-17 14:14:38.973,695, 595, 433, 4, -6, 2, -3, 4, 2, 918, 853, 453,E
2025-03-17 14:14:39.028,713, 592, 392, 3, -5, 0, -1, 3, 3, 916, 860, 469,E
2025-03-17 14:14:39.082,714, 622, 375, 0, -2, -2, -1, 5, 4, 918, 866, 471,E
2025-03-17 14:14:39.133,669, 583, 410, -7, -13, -9, -2, 4, 3, 918, 875, 502,E
2025-03-17 14:14:39.187,708, 597, 395, 0, -18, 1, -1, 3, 3, 927, 902, 511,E
2025-03-17 14:14:39.240,721, 569, 345, 2, -6, -6, -2, 4, 6, 950, 924, 468,E
2025-03-17 14:14:39.295,801, 624, 320, 27, 31, 26, -2, 3, 5, 961, 920, 304,E
2025-03-17 14:14:39.347,760, 644, 228, 1, 21, 21, 0, 3, 6, 958, 909, 226,E
2025-03-17 14:14:39.402,576, 303, 520, -13, -36, -48, -2, 3, 5, 935, 882, 400,E
2025-03-17 14:14:39.453,699, 605, 502, 1, -36, -5, -2, 3, 8, 935, 900, 326,E
2025-03-17 14:14:39.512,689, 867, 240, 1, -11, 11, -3, 3, 7, 957, 932, 397,E
2025-03-17 14:14:39.565,682, 539, 428, 8, 8, 14, -4, 2, 7, 959, 932, 507,E
2025-03-17 14:14:39.613,655, 476, 424, 24, 19, -29, -1, 2, 9, 933, 867, 526,E
2025-03-17 14:14:39.676,850, 744, 301, 7, -19, 15, -1, 2, 11, 949, 863, 508,E
2025-03-17 14:14:39.728,671, 738, 364, -2, 11, 20, -2, 2, 9, 961, 927, 565,E
2025-03-17 14:14:39.782,730, 459, 312, 17, 23, -7, -1, 1, 9, 950, 894, 607,E
2025-03-17 14:14:39.832,658, 793, 419, 23, 6, -8, -2, 1, 6, 939, 710, 563,E
2025-03-17 14:14:39.892,746, 921, 238, -10, -6, 14, -2, 3, 7, 963, 922, 564,E
2025-03-17 14:14:39.946,773, 424, 333, -5, 11, -1, -1, 2, 9, 959, 930, 640,E
2025-03-17 14:14:40.002,643, 533, 349, -12, 57, -56, -1, 1, 3, 924, 825, 638,E
2025-03-17 14:14:40.052,505, 704, 632, -14, 3, -14, -1, 2, 0, 899, 517, 539,E
2025-03-17 14:14:40.103,706, 651, 352, 4, -12, -2, -1, 1, 0, 881, 370, 517,E
2025-03-17 14:14:40.393,687, 643, 378, -6, -6, 6, -2, 2, 1, 894, 770, 498,F
2025-03-17 14:14:40.452,679, 647, 393, -7, -6, 6, -2, 1, 4, 895, 773, 487,F
2025-03-17 14:14:40.502,688, 628, 377, -1, -7, 5, -3, 3, 3, 905, 807, 493,F
2025-03-17 14:14:40.554,717, 599, 377, -2, -4, 3, -2, 1, 5, 912, 832, 535,F
2025-03-17 14:14:40.603,691, 643, 364, -2, -1, 1, -3, 3, 5, 919, 848, 541,F
2025-03-17 14:14:40.665,690, 621, 377, -5, -6, -1, -3, 1, 4, 921, 861, 581,F
2025-03-17 14:14:40.720,667, 627, 381, -12, -18, 0, -2, 2, 5, 921, 882, 595,F
2025-03-17 14:14:40.773,719, 619, 410, -6, -20, 4, -3, 2, 5, 927, 906, 596,F
2025-03-17 14:14:40.830,739, 547, 386, 12, -10, -7, -3, 3, 7, 952, 925, 549,F
2025-03-17 14:14:40.882,566, 645, 233, 30, 45, 30, -1, 3, 8, 962, 919, 393,F
2025-03-17 14:14:40.933,750, 644, 136, -23, 24, 15, -1, 0, 8, 958, 917, 339,F
2025-03-17 14:14:40.995,555, 877, 458, -26, -38, -32, -4, 2, 5, 942, 910, 597,F
2025-03-17 14:14:41.047,755, 755, 159, -1, -25, 1, -3, 4, 7, 963, 943, 480,F
2025-03-17 14:14:41.102,644, 594, 357, -4, 17, 24, -4, 3, 9, 966, 946, 568,F
2025-03-17 14:14:41.153,643, 447, 410, 24, 31, -21, -3, 2, 9, 950, 906, 558,F
2025-03-17 14:14:41.211,845, 658, 202, 10, -29, 9, -2, 2, 9, 953, 882, 462,F
2025-03-17 14:14:41.263,768, 672, 406, -15, 9, 21, -2, 2, 10, 965, 939, 434,F
2025-03-17 14:14:41.320,888, 459, 183, -9, 42, -21, -2, 1, 8, 954, 922, 554,F
2025-03-17 14:14:41.379,546, 599, 570, -23, 36, -34, -3, 1, 3, 933, 804, 497,F
2025-03-17 14:14:41.643,707, 645, 364, 3, -7, 8, -3, 3, 3, 903, 817, 597,G
2025-03-17 14:14:41.697,704, 616, 347, 1, -6, 7, -3, 0, 4, 903, 817, 588,G
2025-03-17 14:14:41.752,709, 632, 335, -5, -1, 0, -2, 1, 4, 905, 829, 564,G
2025-03-17 14:14:41.802,688, 635, 388, -4, -1, 1, -2, 0, 5, 903, 843, 559,G
2025-03-17 14:14:41.852,690, 633, 381, -3, -2, 1, -2, 1, 6, 903, 852, 552,G
2025-03-17 14:14:41.908,708, 625, 373, -5, 0, 4, -4, 3, 3, 908, 869, 562,G
2025-03-17 14:14:41.961,685, 608, 400, -2, -1, 5, -2, 1, 5, 918, 876, 552,G
2025-03-17 14:14:42.013,702, 622, 365, -2, 0, 5, -2, 2, 5, 922, 889, 581,G
2025-03-17 14:14:42.066,699, 612, 388, -3, 0, 4, -6, 2, 4, 926, 892, 581,G
2025-03-17 14:14:42.114,717, 621, 375, -3, -2, 6, -4, 2, 4, 931, 897, 586,G
2025-03-17 14:14:42.173,671, 604, 402, -4, -8, 7, -3, 3, 4, 934, 910, 599,G
2025-03-17 14:14:42.228,1191, 439, 265, -9, -19, -14, -2, 2, 5, 942, 926, 552,G
2025-03-17 14:14:42.283,766, 558, 352, 13, -10, -18, -2, 3, 7, 950, 935, 409,G
2025-03-17 14:14:42.342,1213, 962, 129, 24, 42, 30, -1, 0, 10, 962, 930, 325,G
2025-03-17 14:14:42.395,713, 557, 403, -41, 25, 23, -2, 3, 6, 964, 944, 236,G
2025-03-17 14:14:42.453,779, 542, 394, -5, -22, -19, -3, 4, 4, 957, 943, 395,G
2025-03-17 14:14:42.503,720, 753, 205, -1, 15, 22, -3, 3, 5, 964, 944, 378,G
2025-03-17 14:14:42.555,794, 541, 339, -22, 20, 0, -2, 5, 5, 965, 934, 306,G
2025-03-17 14:14:42.614,538, 728, 563, 12, -35, -14, -2, 4, 6, 954, 920, 321,G
2025-03-17 14:14:42.664,815, 747, 195, -3, 2, 15, -2, 4, 7, 966, 952, 358,G
2025-03-17 14:14:42.723,856, 325, 348, -3, 30, -13, -2, 4, 5, 961, 945, 494,G
2025-03-17 14:14:43.012,656, 612, 429, -5, 0, -2, -2, 3, 2, 912, 841, 496,H
2025-03-17 14:14:43.067,666, 609, 427, -4, -1, -2, -2, 2, 3, 912, 836, 490,H
2025-03-17 14:14:43.114,689, 597, 403, -4, -4, 0, -2, 2, 2, 906, 831, 485,H
2025-03-17 14:14:43.178,676, 619, 406, -1, -4, -1, -3, 3, 3, 907, 846, 511,H
2025-03-17 14:14:43.231,684, 607, 413, -2, -1, -1, -3, 3, 2, 910, 854, 505,H
2025-03-17 14:14:43.280,685, 619, 407, 1, -9, 2, 1, 2, 4, 911, 860, 474,H
2025-03-17 14:14:43.332,703, 595, 369, -5, -13, -2, -2, 1, 4, 916, 874, 470,H
2025-03-17 14:14:43.390,642, 623, 416, -9, -22, -1, -2, 4, 3, 917, 892, 490,H
2025-03-17 14:14:43.444,787, 505, 482, 0, -21, 1, -3, 2, 5, 941, 922, 442,H
2025-03-17 14:14:43.498,637, 819, 446, 35, 32, 31, -3, 2, 7, 962, 919, 310,H
2025-03-17 14:14:43.548,816, 499, 139, -19, 23, 23, 0, 3, 9, 961, 896, 77,H
2025-03-17 14:14:43.606,540, 303, 507, 14, -18, -63, -2, 5, 4, 947, 851, 151,H
2025-03-17 14:14:43.663,961, -52, 275, -21, -28, -16, -2, 2, 7, 956, 919, 234,H
2025-03-17 14:14:43.717,788, 742, 271, -10, 26, 34, -2, 3, 8, 962, 937, 464,H
2025-03-17 14:14:43.773,458, 511, 633, -5, -20, -27, -4, 4, 6, 955, 929, 512,H
2025-03-17 14:14:43.829,752, 1026, 288, 64, -20, 2, -5, 4, 8, 960, 920, 577,H
2025-03-17 14:14:43.883,709, 838, -5, 21, 42, 32, -2, 3, 10, 963, 914, 500,H
2025-03-17 14:14:43.933,837, 455, 217, -39, 48, -48, -1, 3, 9, 949, 890, 531,H
2025-03-17 14:14:44.192,694, 621, 363, -5, 0, 1, -2, 3, 5, 905, 835, 525,I
2025-03-17 14:14:44.247,695, 609, 371, -2, 0, 1, -1, 1, 8, 903, 835, 532,I
2025-03-17 14:14:44.303,715, 606, 352, -5, -2, 0, -2, 4, 6, 896, 825, 527,I
2025-03-17 14:14:44.353,699, 611, 364, -6, -3, -4, -2, 0, 7, 897, 835, 505,I
2025-03-17 14:14:44.414,706, 617, 371, -5, -3, -3, -2, 3, 6, 895, 838, 425,I
2025-03-17 14:14:44.465,700, 618, 369, -3, -3, -3, -2, 3, 5, 898, 849, 424,I
2025-03-17 14:14:44.515,712, 644, 379, -2, -3, -2, -3, 3, 5, 902, 856, 424,I
2025-03-17 14:14:44.572,705, 601, 361, 1, -4, -2, -2, 2, 7, 906, 863, 422,I
2025-03-17 14:14:44.628,689, 640, 375, 0, -2, -2, -3, 3, 6, 908, 871, 412,I
2025-03-17 14:14:44.680,695, 560, 433, 5, -18, -4, -3, 1, 7, 917, 887, 245,I
2025-03-17 14:14:44.732,892, 547, 362, 4, -9, -1, -1, 2, 9, 955, 935, 223,I
2025-03-17 14:14:44.786,692, 768, 328, 7, -1, 24, -3, 2, 9, 964, 944, 518,I
2025-03-17 14:14:44.839,670, 505, 375, 18, 13, 5, -3, 2, 9, 955, 918, 605,I
2025-03-17 14:14:44.894,701, 676, 488, 5, -12, -2, -2, 1, 8, 951, 898, 594,I
2025-03-17 14:14:44.947,471, 577, 337, 16, 33, 32, -3, 3, 8, 963, 909, 500,I
2025-03-17 14:14:44.997,640, 486, 229, 23, 22, 2, -3, 3, 9, 958, 886, 508,I
2025-03-17 14:14:45.053,636, 604, 476, 29, -9, -36, 0, 2, 7, 938, 754, 541,I
2025-03-17 14:14:45.103,809, 725, 172, -23, 0, 21, 1, 0, 9, 962, 930, 514,I
2025-03-17 14:14:45.162,663, 533, 326, -7, 13, 14, -1, 2, 7, 958, 934, 551,I
2025-03-17 14:14:45.213,585, 545, 341, -8, 44, -55, -1, 2, 5, 925, 878, 547,I
2025-03-17 14:14:45.463,673, 615, 396, -13, -6, 2, -1, 2, 3, 890, 791, 572,J
2025-03-17 14:14:45.522,670, 613, 393, -10, -6, 2, -1, 2, 3, 893, 795, 571,J
2025-03-17 14:14:45.577,692, 615, 395, -3, -6, 4, -1, 1, 2, 896, 818, 569,J
2025-03-17 14:14:45.631,701, 628, 365, -1, -5, 0, -2, 2, 3, 900, 823, 566,J
2025-03-17 14:14:45.682,691, 625, 373, -7, -7, -2, -2, 2, 5, 902, 840, 568,J
2025-03-17 14:14:45.732,697, 615, 354, -6, -7, -2, -1, 1, 6, 907, 856, 590,J
2025-03-17 14:14:45.791,694, 605, 380, -7, -4, -2, -2, 2, 5, 912, 870, 580,J
2025-03-17 14:14:45.845,709, 608, 375, 1, 1, -4, -3, 2, 3, 913, 873, 573,J
2025-03-17 14:14:45.898,693, 647, 366, 6, -3, -3, -2, 1, 7, 915, 865, 566,J
2025-03-17 14:14:45.949,678, 636, 385, -4, -8, -5, -1, 2, 6, 918, 866, 524,J
2025-03-17 14:14:46.002,684, 618, 353, -6, -10, -6, -2, 2, 5, 923, 863, 425,J
2025-03-17 14:14:46.062,766, 601, 359, 7, -15, -5, -2, 2, 6, 936, 884, 355,J
2025-03-17 14:14:46.112,999, 1053, 430, 6, -1, 18, -1, 2, 7, 958, 930, 446,J
2025-03-17 14:14:46.168,674, 739, 413, -2, 16, 25, -2, 3, 6, 960, 935, 630,J
2025-03-17 14:14:46.216,675, 522, 285, 3, 11, -9, -3, 3, 5, 944, 916, 651,J
2025-03-17 14:14:46.273,829, 704, 464, 12, -9, -8, 0, 0, 4, 937, 897, 621,J
2025-03-17 14:14:46.327,515, 698, 245, 8, 18, 21, -3, 3, 5, 964, 929, 576,J
2025-03-17 14:14:46.379,733, 645, 287, -2, 29, 18, -1, 3, 4, 970, 935, 372,J
2025-03-17 14:14:46.434,708, 504, 532, 15, -6, -41, 0, 2, 4, 945, 888, 500,J
2025-03-17 14:14:46.487,786, 556, 257, -29, 44, -31, 0, 1, 3, 906, 874, 590,J
2025-03-17 14:14:46.784,691, 636, 372, -1, -2, 3, -1, 0, 6, 880, 757, 411,K
2025-03-17 14:14:46.838,697, 633, 371, -1, -2, 2, -1, 4, 3, 879, 762, 421,K
2025-03-17 14:14:46.893,689, 637, 381, -1, -2, 1, -1, 1, 4, 880, 771, 414,K
2025-03-17 14:14:46.946,685, 633, 362, -4, -3, -1, -1, 1, 4, 880, 776, 408,K
2025-03-17 14:14:46.999,696, 625, 369, -6, -3, -1, -2, 2, 3, 886, 792, 423,K
2025-03-17 14:14:47.052,698, 622, 370, -4, -1, 0, -1, 2, 4, 890, 798, 423,K
2025-03-17 14:14:47.103,677, 644, 362, -1, 0, 1, -2, 2, 4, 893, 796, 442,K
2025-03-17 14:14:47.153,699, 622, 354, -4, -6, -2, -1, 2, 4, 892, 814, 471,K
2025-03-17 14:14:47.212,664, 656, 372, -7, -8, -4, -1, 1, 5, 894, 836, 478,K
2025-03-17 14:14:47.264,695, 610, 418, -9, -13, 3, -2, 2, 3, 908, 871, 496,K
2025-03-17 14:14:47.323,709, 628, 399, -9, -4, -2, -2, 3, 4, 931, 896, 477,K
2025-03-17 14:14:47.376,621, 808, 355, 26, 24, 15, -2, 2, 5, 948, 877, 421,K
2025-03-17 14:14:47.429,722, 622, 243, 10, 19, 15, 0, 2, 5, 955, 829, 56,K
2025-03-17 14:14:47.482,891, 625, 500, -40, 0, 19, -1, 3, 5, 957, 920, 120,K
2025-03-17 14:14:47.532,645, 627, 440, 5, -33, -13, -2, 3, 5, 959, 942, 491,K
2025-03-17 14:14:47.587,682, 564, 338, 28, -8, -9, -4, 3, 7, 945, 917, 586,K
2025-03-17 14:14:47.646,642, 703, 466, 26, 24, -20, -1, 2, 6, 931, 848, 432,K
2025-03-17 14:14:47.696,791, 1255, 256, -30, 5, 32, -3, 2, 6, 964, 918, 413,K
2025-03-17 14:14:47.753,594, 683, 429, -30, 27, 40, -1, 1, 7, 968, 933, 368,K
2025-03-17 14:14:47.810,657, 538, 246, 2, 27, -54, -1, 2, 5, 943, 875, 486,K
2025-03-17 14:14:48.105,674, 619, 390, -3, -1, -1, -2, 2, 4, 895, 770, 468,L
2025-03-17 14:14:48.162,690, 631, 403, -3, -1, -1, -3, 2, 4, 896, 775, 482,L
2025-03-17 14:14:48.213,691, 610, 393, -3, -2, -1, -2, 2, 5, 895, 778, 439,L
2025-03-17 14:14:48.269,696, 620, 378, -4, -2, -1, -2, 2, 6, 893, 761, 425,L
2025-03-17 14:14:48.323,700, 622, 391, -8, 0, 0, -3, 4, 4, 892, 735, 365,L
2025-03-17 14:14:48.373,694, 598, 399, -4, -1, 0, -3, 3, 3, 889, 729, 286,L
2025-03-17 14:14:48.428,708, 602, 375, -3, 0, -1, -2, 3, 6, 888, 744, 311,L
2025-03-17 14:14:48.482,700, 606, 402, -2, -2, -1, -2, 2, 4, 890, 747, 315,L
2025-03-17 14:14:48.533,684, 626, 399, -6, -2, -2, -1, 2, 5, 896, 774, 329,L
2025-03-17 14:14:48.587,688, 595, 405, -4, -6, -2, -3, 2, 4, 903, 795, 319,L
2025-03-17 14:14:48.646,697, 617, 390, -10, -11, -6, -3, 4, 4, 907, 817, 314,L
2025-03-17 14:14:48.702,705, 604, 409, -11, -24, -1, -2, 5, 5, 923, 873, 298,L
2025-03-17 14:14:48.752,707, 585, 370, 4, -10, -6, -1, 3, 7, 944, 905, 286,L
2025-03-17 14:14:48.810,676, 577, 461, 33, 24, 7, -1, 3, 10, 953, 879, 220,L
2025-03-17 14:14:48.862,829, 590, 245, -7, 15, 10, -1, 5, 7, 960, 862, 37,L
2025-03-17 14:14:48.912,562, 529, 409, -6, 5, 17, -1, 4, 5, 960, 932, 364,L
2025-03-17 14:14:48.962,825, 556, 222, -1, 26, -19, -1, 2, 6, 948, 917, 559,L
2025-03-17 14:14:49.027,592, 572, 528, -29, 38, -28, -1, 2, 1, 916, 788, 483,L
2025-03-17 14:14:49.282,690, 626, 405, -6, 0, -4, -2, 2, 4, 883, 773, 391,M
2025-03-17 14:14:49.333,680, 625, 402, -6, 0, -3, -2, 2, 4, 884, 773, 393,M
2025-03-17 14:14:49.387,679, 619, 417, -1, -4, 1, -1, 0, 3, 888, 783, 400,M
2025-03-17 14:14:49.444,686, 602, 401, -2, -2, -1, -1, 2, 4, 889, 790, 400,M
2025-03-17 14:14:49.500,702, 620, 396, -3, -2, -1, -1, 3, 3, 890, 791, 367,M
2025-03-17 14:14:49.556,696, 606, 418, -1, -3, -4, -1, 2, 3, 891, 794, 360,M
2025-03-17 14:14:49.606,701, 605, 378, -2, -4, -1, -1, 3, 4, 896, 811, 357,M
2025-03-17 14:14:49.662,680, 625, 406, -3, -4, -1, -2, 3, 2, 902, 823, 369,M
2025-03-17 14:14:49.713,706, 598, 396, -3, -5, 1, 0, 2, 6, 910, 840, 362,M
2025-03-17 14:14:49.762,707, 615, 380, -3, -4, -2, -1, 3, 6, 912, 854, 378,M
2025-03-17 14:14:49.813,664, 604, 420, -5, -6, -2, -3, 3, 5, 912, 866, 379,M
2025-03-17 14:14:49.879,689, 619, 369, -12, -21, -6, -2, 3, 3, 918, 888, 379,M
2025-03-17 14:14:49.932,770, 671, 387, 4, -9, -6, -2, 3, 6, 934, 927, 392,M
2025-03-17 14:14:49.982,720, 928, 226, 54, 27, 20, -2, 3, 8, 958, 926, 370,M
2025-03-17 14:14:50.038,812, 905, 18, -5, 31, 26, -2, 3, 7, 963, 903, 175,M
2025-03-17 14:14:50.095,677, 357, 436, -4, -31, -55, -1, 1, 6, 943, 910, 521,M
2025-03-17 14:14:50.145,798, 464, 468, -1, -10, -9, -1, 1, 6, 957, 949, 573,M
2025-03-17 14:14:50.195,782, 853, 122, 10, 18, 18, -2, 3, 7, 963, 942, 540,M
2025-03-17 14:14:50.259,727, 645, 336, -16, 5, 11, -2, 5, 7, 961, 943, 513,M
2025-03-17 14:14:50.312,639, 590, 528, -3, -12, -8, -3, 3, 8, 960, 940, 587,M
2025-03-17 14:14:50.362,849, 653, 96, 20, 14, 32, -2, 2, 10, 965, 937, 564,M
2025-03-17 14:14:50.417,840, 472, 314, -20, 17, 4, -2, 5, 8, 962, 933, 469,M
2025-03-17 14:14:50.477,669, 628, 467, -18, 20, -28, -2, 3, 6, 944, 915, 514,M
2025-03-17 14:14:50.722,708, 622, 368, 0, 1, 2, -3, 3, 6, 912, 841, 455,N
2025-03-17 14:14:50.776,704, 610, 366, -1, 1, 2, -2, 3, 9, 913, 841, 445,N
2025-03-17 14:14:50.828,697, 592, 386, -2, 0, -1, -2, 2, 7, 913, 839, 431,N
2025-03-17 14:14:50.882,707, 626, 375, -4, 1, 0, -2, 2, 6, 911, 841, 432,N
2025-03-17 14:14:50.932,708, 618, 382, -3, 0, -2, -3, 4, 6, 905, 838, 411,N
2025-03-17 14:14:50.988,711, 607, 374, -2, 0, -1, -3, 3, 6, 902, 834, 349,N
2025-03-17 14:14:51.037,695, 618, 412, -1, -1, -1, -2, 3, 6, 898, 831, 345,N
2025-03-17 14:14:51.095,694, 590, 385, 0, -5, -2, -2, 2, 5, 902, 842, 333,N
2025-03-17 14:14:51.146,690, 616, 381, -6, -3, -3, -2, 2, 6, 909, 852, 319,N
2025-03-17 14:14:51.202,716, 607, 382, -3, -8, -5, -2, 3, 4, 917, 863, 291,N
2025-03-17 14:14:51.252,701, 585, 431, -1, -16, -3, -4, 3, 4, 922, 892, 330,N
2025-03-17 14:14:51.312,727, 592, 385, -7, -9, -7, -3, 4, 7, 947, 924, 286,N
2025-03-17 14:14:51.362,571, 395, 475, 23, 35, 32, -2, 3, 9, 963, 917, 198,N
2025-03-17 14:14:51.413,721, 531, 271, -11, 15, 9, 0, 3, 7, 962, 903, 231,N
2025-03-17 14:14:51.477,584, 843, 461, -17, -33, -11, -2, 2, 7, 955, 923, 561,N
2025-03-17 14:14:51.528,835, 761, 405, 25, -8, 7, -2, 4, 9, 967, 937, 557,N
2025-03-17 14:14:51.587,663, 557, 132, -24, 27, 32, -2, 4, 10, 969, 933, 315,N
2025-03-17 14:14:51.637,483, 432, 623, 1, -41, -33, -4, 3, 7, 967, 946, 405,N
2025-03-17 14:14:51.694,899, 735, 40, -2, 56, -14, -3, 6, 6, 950, 921, 620,N
2025-03-17 14:14:51.745,534, 645, 630, -10, 43, -18, -2, 3, 3, 934, 886, 607,N
2025-03-17 14:14:51.803,607, 596, 458, 15, -18, 12, -1, 1, 2, 929, 850, 499,N
2025-03-17 14:14:51.861,766, 581, 281, 1, -10, 2, -4, 2, 4, 922, 813, 469,N
2025-03-17 14:14:52.152,683, 605, 405, -2, -3, 0, -1, 3, 4, 921, 827, 464,O
2025-03-17 14:14:52.203,674, 613, 422, -2, -5, 0, -2, 1, 5, 922, 825, 461,O
2025-03-17 14:14:52.259,708, 604, 388, -2, -5, 0, -3, 5, 4, 922, 836, 483,O
2025-03-17 14:14:52.311,696, 607, 400, -5, -4, -2, -4, 4, 4, 923, 845, 476,O
2025-03-17 14:14:52.363,711, 613, 388, -3, -4, 1, -1, 3, 5, 926, 855, 482,O
2025-03-17 14:14:52.412,685, 613, 417, -3, -5, 1, -3, 2, 4, 925, 864, 489,O
2025-03-17 14:14:52.462,706, 592, 382, 1, -8, 4, -4, 5, 4, 926, 873, 518,O
2025-03-17 14:14:52.523,715, 607, 360, -2, -2, 0, -3, 2, 5, 929, 880, 522,O
2025-03-17 14:14:52.577,717, 595, 391, -1, -1, 2, -3, 1, 5, 933, 887, 518,O
2025-03-17 14:14:52.629,673, 635, 416, -2, -7, 7, -3, 2, 6, 937, 895, 522,O
2025-03-17 14:14:52.688,1502, 509, 198, -11, -13, -12, -3, 3, 7, 940, 920, 483,O
2025-03-17 14:14:52.744,802, 459, 430, 20, -16, -21, -1, 3, 9, 942, 923, 276,O
2025-03-17 14:14:52.795,1100, 849, -66, 20, 52, 45, -1, 4, 9, 961, 903, 263,O
2025-03-17 14:14:52.852,480, 571, 555, -59, 28, 26, -2, 4, 4, 962, 925, 76,O
2025-03-17 14:14:52.903,717, 466, 479, 24, -51, -42, -3, 4, 5, 944, 920, 173,O
2025-03-17 14:14:52.963,960, 724, -31, -9, 46, -13, -2, 2, 8, 918, 845, 462,O
2025-03-17 14:14:53.013,538, 711, 549, -23, 35, -18, -2, 3, 1, 911, 778, 357,O
2025-03-17 14:14:53.303,702, 612, 372, -3, -1, 0, -2, 3, 4, 892, 776, 280,P
2025-03-17 14:14:53.360,700, 613, 382, -3, -1, -1, -2, 2, 6, 894, 780, 286,P
2025-03-17 14:14:53.412,710, 613, 374, -6, -4, 0, -2, 4, 4, 899, 802, 295,P
2025-03-17 14:14:53.462,707, 611, 375, -6, -2, -2, -1, 2, 4, 905, 815, 272,P
2025-03-17 14:14:53.518,721, 600, 383, -4, -4, -2, -3, 3, 5, 910, 832, 283,P
2025-03-17 14:14:53.573,711, 649, 352, -4, -2, -2, -2, 4, 5, 915, 853, 272,P
2025-03-17 14:14:53.628,719, 619, 375, -4, -8, -2, -2, 2, 6, 917, 876, 249,P
2025-03-17 14:14:53.683,745, 580, 367, -7, -7, -5, -1, 0, 7, 931, 900, 209,P
2025-03-17 14:14:53.738,751, 737, 352, 26, 15, 12, -4, 5, 8, 956, 907, 173,P
2025-03-17 14:14:53.787,654, 876, -27, 12, 32, 30, -1, 4, 7, 961, 910, 54,P
2025-03-17 14:14:53.843,653, 181, 596, -4, -26, -34, -1, 3, 7, 949, 908, 68,P
2025-03-17 14:14:53.895,783, 526, 476, -17, -35, -5, -2, 1, 7, 944, 932, 490,P
2025-03-17 14:14:53.959,558, 663, 304, -12, -10, 14, -3, 4, 7, 968, 946, 324,P
2025-03-17 14:14:54.011,769, 490, 433, 2, 21, 6, -2, 4, 10, 962, 942, 157,P
2025-03-17 14:14:54.062,1074, 522, 118, -7, 27, -23, 0, 2, 8, 951, 909, 363,P
2025-03-17 14:14:54.369,712, 604, 360, -2, -2, 0, -2, 1, 7, 918, 837, 337,Q
2025-03-17 14:14:54.425,715, 600, 374, -2, -3, 0, -3, 3, 5, 919, 839, 353,Q
2025-03-17 14:14:54.477,708, 612, 389, 2, -3, 1, -2, 3, 7, 919, 847, 409,Q
2025-03-17 14:14:54.528,707, 600, 381, -3, -3, 5, -3, 3, 6, 924, 852, 386,Q
2025-03-17 14:14:54.583,720, 611, 353, -1, -6, 11, -2, 2, 7, 923, 879, 327,Q
2025-03-17 14:14:54.641,582, 510, 478, -6, -13, -14, -4, 4, 6, 926, 908, 298,Q
2025-03-17 14:14:54.694,538, 523, 424, 13, -19, -25, -3, 5, 7, 931, 927, 212,Q
2025-03-17 14:14:54.753,1058, 763, 196, 69, 19, 7, -2, 2, 9, 951, 893, 220,Q
2025-03-17 14:14:54.803,724, 723, 172, -73, 62, 50, -1, 2, 8, 964, 922, 144,Q
2025-03-17 14:14:54.862,484, 476, 759, -15, -36, -22, -2, 3, 4, 958, 938, 155,Q
2025-03-17 14:14:54.914,851, 515, 109, 22, 12, -20, -2, 3, 8, 936, 896, 305,Q
2025-03-17 14:14:54.973,558, 734, 637, -6, -4, 10, -1, 2, 5, 947, 892, 26,Q
2025-03-17 14:14:55.027,781, 384, 182, -66, 13, 43, -2, 3, 5, 968, 938, 73,Q
2025-03-17 14:14:55.078,764, 398, 463, -10, 22, 25, -1, 6, 5, 969, 934, 51,Q
2025-03-17 14:14:55.132,568, 466, 440, 10, 41, -59, -3, 4, 2, 939, 871, 195,Q
2025-03-17 14:14:55.422,675, 603, 429, -2, -13, 1, -1, 3, 4, 901, 817, 256,R
2025-03-17 14:14:55.477,685, 600, 410, 0, -13, 2, -2, 3, 2, 902, 818, 233,R
2025-03-17 14:14:55.535,728, 577, 360, -1, -4, -1, -3, 5, 3, 902, 825, 251,R
2025-03-17 14:14:55.588,702, 621, 399, -2, -5, -1, -2, 3, 3, 907, 832, 265,R
2025-03-17 14:14:55.641,698, 600, 383, -3, -3, -3, -2, 4, 5, 909, 836, 270,R
2025-03-17 14:14:55.693,667, 594, 400, -4, -16, -10, -2, 2, 4, 907, 842, 275,R
2025-03-17 14:14:55.745,716, 587, 381, 0, -19, -6, -1, 4, 4, 916, 887, 317,R
2025-03-17 14:14:55.802,675, 674, 346, 45, 12, 2, -3, 4, 7, 951, 906, 200,R
2025-03-17 14:14:55.858,1026, 602, 435, 4, 30, 24, -1, 2, 7, 960, 895, 46,R
2025-03-17 14:14:55.910,631, 386, 635, -4, 1, -19, -1, 2, 5, 946, 901, 60,R
2025-03-17 14:14:55.962,775, 820, 329, -19, -34, -11, -2, 1, 5, 939, 925, 400,R
2025-03-17 14:14:56.023,662, 834, 270, -18, -3, 20, -3, 2, 7, 967, 943, 227,R
2025-03-17 14:14:56.076,453, 566, 350, -22, 22, 20, -2, 3, 7, 960, 934, 64,R
2025-03-17 14:14:56.126,871, 541, 305, -43, 19, 31, -2, 6, 6, 966, 945, 60,R
2025-03-17 14:14:56.186,778, 423, 340, -7, 31, -12, -1, 3, 7, 962, 939, 62,R
2025-03-17 14:14:56.235,487, 496, 591, 12, 20, -50, -3, 2, 0, 941, 903, 56,R
2025-03-17 14:14:56.506,686, 629, 404, -6, -5, 1, -3, 3, 4, 907, 870, 231,S
2025-03-17 14:14:56.552,683, 630, 429, -6, -6, 4, -3, 2, 3, 910, 872, 220,S
2025-03-17 14:14:56.609,702, 602, 389, 0, -12, 6, -3, 3, 5, 916, 885, 269,S
2025-03-17 14:14:56.661,727, 593, 330, -3, -1, 4, -3, 2, 7, 926, 890, 229,S
2025-03-17 14:14:56.713,691, 634, 399, -6, -3, 3, -2, 0, 6, 928, 907, 217,S
2025-03-17 14:14:56.763,703, 580, 382, -7, -11, 2, -3, 4, 4, 934, 918, 279,S
2025-03-17 14:14:56.826,720, 639, 451, -3, -9, -11, -3, 5, 6, 939, 935, 234,S
2025-03-17 14:14:56.877,642, 491, 348, 40, 5, -14, -2, 4, 7, 944, 928, 112,S
2025-03-17 14:14:56.927,794, 855, 214, 15, 39, 27, -2, 3, 7, 958, 927, 68,S
2025-03-17 14:14:56.985,544, 506, 537, 1, 20, 15, -2, 2, 6, 963, 937, 52,S
2025-03-17 14:14:57.034,681, 405, 431, 10, 9, -2, -1, 4, 5, 949, 918, 42,S
2025-03-17 14:14:57.091,946, 575, 216, -28, 32, -32, -1, 2, 3, 922, 885, 80,S
2025-03-17 14:14:57.395,708, 625, 353, 1, -4, 1, -1, 2, 5, 897, 868, 177,T
2025-03-17 14:14:57.448,706, 629, 375, 0, -4, 1, -1, 3, 5, 898, 866, 193,T
2025-03-17 14:14:57.499,690, 618, 363, 0, -4, -4, -2, 2, 6, 899, 868, 198,T
2025-03-17 14:14:57.553,678, 621, 393, -5, -4, -5, -2, 3, 5, 899, 869, 159,T
2025-03-17 14:14:57.607,667, 643, 386, -3, -10, -4, -3, 5, 7, 905, 865, 92,T
2025-03-17 14:14:57.663,771, 551, 301, -5, -13, -8, -1, 1, 9, 925, 883, 56,T
2025-03-17 14:14:57.713,931, 1083, 326, -20, 0, 36, -2, 1, 8, 953, 928, 105,T
2025-03-17 14:14:57.775,611, 652, 416, -14, 12, 24, -3, 4, 7, 959, 930, 386,T
2025-03-17 14:14:57.827,554, 507, 488, -5, 7, -20, -4, 4, 5, 939, 897, 472,T
2025-03-17 14:14:57.877,833, 706, 442, 14, -6, -3, -3, 4, 6, 958, 909, 403,T
2025-03-17 14:14:57.934,710, 480, 250, 14, 30, 24, -2, 3, 6, 963, 918, 371,T
2025-03-17 14:14:57.992,809, 427, 373, -21, 18, -30, -1, 4, 5, 950, 869, 422,T
2025-03-17 14:14:58.304,720, 607, 356, -5, -6, -3, -1, 3, 6, 903, 820, 264,U
2025-03-17 14:14:58.360,711, 618, 379, -8, -5, -3, -3, 4, 4, 904, 823, 266,U
2025-03-17 14:14:58.413,700, 563, 428, -6, -10, -6, -1, 5, 5, 908, 827, 258,U
2025-03-17 14:14:58.463,718, 612, 361, -2, -8, -6, -3, 3, 8, 916, 845, 215,U
2025-03-17 14:14:58.513,690, 595, 423, 0, -10, -4, -2, 3, 6, 918, 872, 218,U
2025-03-17 14:14:58.574,719, 608, 368, -6, -7, -6, -2, 3, 8, 930, 893, 97,U
2025-03-17 14:14:58.627,735, 612, 400, -3, -7, -6, -2, 5, 7, 943, 903, 121,U
2025-03-17 14:14:58.682,764, 859, 470, 24, 25, 24, -3, 5, 9, 960, 906, 156,U
2025-03-17 14:14:58.736,580, 563, 296, -1, 18, 25, -2, 2, 10, 960, 922, 140,U
2025-03-17 14:14:58.791,622, 465, 397, -34, -7, 2, 0, 5, 6, 956, 935, 181,U
2025-03-17 14:14:58.844,682, 607, 571, -2, -11, -6, -2, 4, 5, 951, 937, 422,U
2025-03-17 14:14:58.894,718, 615, 315, 24, 35, 29, -2, 4, 7, 962, 929, 235,U
2025-03-17 14:14:58.952,727, 581, 255, -3, 17, 9, -2, 5, 7, 960, 927, 319,U
2025-03-17 14:14:59.263,699, 614, 404, -4, 0, -4, -2, 3, 6, 915, 811, 241,V
2025-03-17 14:14:59.313,705, 595, 403, -3, -1, -4, -2, 3, 6, 916, 806, 233,V
2025-03-17 14:14:59.363,717, 614, 383, -8, -1, -5, -1, 4, 6, 919, 789, 235,V
2025-03-17 14:14:59.422,711, 572, 406, -2, -4, -7, -2, 4, 6, 919, 806, 247,V
2025-03-17 14:14:59.477,680, 595, 381, -1, -3, -7, -1, 3, 4, 920, 821, 253,V
2025-03-17 14:14:59.528,730, 601, 398, 1, -9, -3, -1, 5, 4, 922, 855, 293,V
2025-03-17 14:14:59.584,761, 576, 320, -2, -4, -5, -3, 2, 6, 936, 896, 263,V
2025-03-17 14:14:59.636,705, 634, 392, 2, -1, -3, -1, 2, 7, 945, 906, 288,V
2025-03-17 14:14:59.693,703, 616, 351, -1, -1, -1, -1, 2, 7, 952, 917, 266,V
2025-03-17 14:14:59.742,792, 996, 306, 21, 30, 49, -2, 3, 5, 960, 915, 301,V
2025-03-17 14:14:59.792,733, 635, 183, -13, 15, 23, -1, 4, 6, 963, 917, 46,V
2025-03-17 14:14:59.856,564, 359, 526, -31, -34, -19, -1, 5, 6, 960, 948, 177,V
2025-03-17 14:14:59.909,810, 529, 312, 14, 8, -5, -3, 5, 7, 955, 940, 485,V
2025-03-17 14:14:59.963,603, 551, 507, -21, 59, -34, -1, 5, 2, 949, 930, 400,V
2025-03-17 14:15:00.243,703, 630, 356, 6, -4, -9, -1, 1, 5, 905, 764, 217,W
2025-03-17 14:15:00.292,705, 627, 377, 6, -5, -9, 0, 3, 3, 905, 763, 205,W
2025-03-17 14:15:00.343,690, 645, 386, 5, -11, -4, -1, 1, 7, 904, 767, 240,W
2025-03-17 14:15:00.403,695, 630, 350, 3, -6, -3, -2, 3, 6, 910, 785, 244,W
2025-03-17 14:15:00.458,679, 622, 377, 5, -11, 0, -1, 2, 6, 911, 815, 258,W
2025-03-17 14:15:00.510,727, 583, 331, -6, -6, -6, -1, 2, 7, 935, 885, 220,W
2025-03-17 14:15:00.563,773, 561, 445, 28, -10, -4, -2, 3, 7, 952, 898, 234,W
2025-03-17 14:15:00.623,480, 521, 320, -16, 27, 24, -1, 5, 7, 960, 889, 228,W
2025-03-17 14:15:00.677,717, 421, 528, -47, -14, 10, -2, 4, 7, 951, 926, 151,W
2025-03-17 14:15:00.732,695, 347, 517, 7, -12, -6, -1, 3, 6, 949, 921, 281,W
2025-03-17 14:15:00.785,556, 557, 386, -5, 34, 36, -3, 4, 8, 960, 890, 251,W
2025-03-17 14:15:00.842,732, 465, 553, -77, -12, 13, -2, 5, 6, 957, 935, 60,W
2025-03-17 14:15:00.893,770, 487, 349, 38, 4, -4, -4, 5, 6, 950, 906, 401,W
2025-03-17 14:15:00.943,664, 433, 531, 10, 27, -27, -2, 4, 5, 944, 886, 418,W
2025-03-17 14:15:01.193,702, 613, 394, -5, -3, 0, -3, 5, 6, 923, 830, 221,X
2025-03-17 14:15:01.242,703, 618, 383, -5, -4, 1, -3, 2, 9, 925, 832, 214,X
2025-03-17 14:15:01.302,731, 565, 361, 1, -7, 0, -4, 4, 7, 924, 851, 233,X
2025-03-17 14:15:01.353,734, 633, 371, 2, -7, 1, -3, 4, 10, 927, 860, 210,X
2025-03-17 14:15:01.408,731, 566, 379, -6, -5, -2, -3, 5, 10, 927, 871, 235,X
2025-03-17 14:15:01.463,675, 589, 458, -10, -13, 6, -3, 4, 10, 938, 890, 190,X
2025-03-17 14:15:01.524,729, 583, 322, -9, -11, -4, -4, 4, 11, 947, 913, 140,X
2025-03-17 14:15:01.576,810, 683, 348, 72, 24, -5, -1, 4, 12, 956, 891, 51,X
2025-03-17 14:15:01.626,986, 708, 52, -15, 40, 13, -3, 3, 11, 956, 864, 30,X
2025-03-17 14:15:01.686,639, 237, 697, -8, -27, -68, -2, 4, 7, 925, 868, 105,X
2025-03-17 14:15:01.740,815, 437, 533, 8, -28, 5, -3, 2, 9, 944, 918, 265,X
2025-03-17 14:15:01.792,569, 865, -21, -47, 51, 66, -2, 1, 12, 966, 932, 52,X
2025-03-17 14:15:01.843,702, 489, 412, -7, 20, 10, -1, 4, 9, 958, 916, 58,X
2025-03-17 14:15:02.146,683, 610, 368, -11, -5, -5, -1, 2, 8, 899, 834, 167,Y
2025-03-17 14:15:02.202,702, 610, 368, -9, -5, -5, -3, 4, 7, 900, 839, 183,Y
2025-03-17 14:15:02.257,700, 617, 365, -1, -2, -1, -4, 2, 7, 905, 840, 144,Y
2025-03-17 14:15:02.307,695, 619, 369, -2, -5, -4, -1, 2, 9, 909, 854, 152,Y
2025-03-17 14:15:02.365,701, 609, 362, -4, -4, -5, -2, 2, 8, 915, 865, 101,Y
2025-03-17 14:15:02.414,741, 596, 406, -5, -16, 0, -1, 3, 9, 925, 887, 50,Y
2025-03-17 14:15:02.473,875, 1044, 284, 22, 4, 24, -1, 3, 10, 962, 931, 198,Y
2025-03-17 14:15:02.525,701, 724, 193, 6, 29, 33, -2, 6, 9, 964, 934, 162,Y
2025-03-17 14:15:02.582,659, 401, 467, -8, -10, -32, -2, 4, 7, 956, 929, 419,Y
2025-03-17 14:15:02.634,729, 493, 571, -14, -14, -10, -4, 3, 9, 959, 929, 456,Y
2025-03-17 14:15:02.692,903, 777, 215, 32, 34, 15, 0, 2, 10, 968, 912, 342,Y
2025-03-17 14:15:02.743,755, 584, 292, 2, 24, 2, 0, 2, 9, 956, 877, 366,Y
2025-03-17 14:15:02.797,663, 626, 363, -30, 21, -32, -2, 3, 4, 928, 850, 454,Y
2025-03-17 14:15:02.852,583, 664, 542, -4, -9, -12, -2, 2, 4, 917, 837, 452,Y
2025-03-17 14:15:03.132,693, 602, 382, 2, -5, -3, -3, 3, 6, 923, 863, 219,Z
2025-03-17 14:15:03.190,697, 613, 387, 1, -5, -3, -2, 1, 7, 922, 865, 230,Z
2025-03-17 14:15:03.243,669, 615, 392, 1, -5, -2, -4, 5, 6, 921, 859, 206,Z
2025-03-17 14:15:03.293,919, 521, 342, -14, -7, -15, -3, 3, 7, 933, 878, 38,Z
2025-03-17 14:15:03.342,843, 708, 420, 22, -1, 1, -2, 3, 8, 958, 931, 201,Z
2025-03-17 14:15:03.403,609, 494, 363, 22, 7, 12, -2, 4, 8, 961, 938, 297,Z
2025-03-17 14:15:03.457,377, 511, 426, 25, 32, -1, -2, 2, 9, 952, 899, 161,Z
2025-03-17 14:15:03.502,817, 672, 142, 7, 3, -2, 0, 3, 9, 960, 866, 75,Z
2025-03-17 14:15:03.558,764, 464, 369, -13, 8, 29, -1, 4, 7, 966, 938, 45,Z
2025-03-17 14:15:03.612,694, 547, 386, 8, 3, 3, -1, 4, 9, 958, 931, 71,Z
2025-03-17 14:15:03.665,466, 645, 454, 3, -5, -58, -2, 3, 5, 944, 868, 375,Z
2025-03-17 14:15:03.713,840, 410, 97, 26, -14, -12, -1, 2, 8, 961, 924, 417,Z
2025-03-17 14:15:03.775,717, 552, 289, -12, 14, 27, -2, 4, 8, 968, 942, 307,Z
2025-03-17 14:15:03.826,809, 630, 188, -1, 36, -39, -3, 2, 8, 949, 910, 474,Z
2025-03-17 14:15:04.102,707, 632, 357, -6, -2, -2, -1, 1, 7, 916, 755, 294,a
2025-03-17 14:15:04.156,705, 622, 348, -6, -1, -1, -3, 3, 5, 916, 755, 298,a
2025-03-17 14:15:04.207,686, 632, 365, -4, -2, 2, -2, 1, 6, 914, 756, 281,a
2025-03-17 14:15:04.264,711, 611, 393, 2, -8, 4, -2, 1, 7, 916, 759, 265,a
2025-03-17 14:15:04.317,715, 637, 318, -7, 0, 1, -2, 3, 6, 917, 785, 269,a
2025-03-17 14:15:04.363,707, 626, 374, -4, -3, 1, -1, 2, 7, 921, 804, 249,a
2025-03-17 14:15:04.412,711, 609, 354, -2, 0, 3, -2, 1, 8, 925, 831, 299,a
2025-03-17 14:15:04.471,708, 601, 362, 0, -2, 0, -2, 1, 8, 925, 843, 324,a
2025-03-17 14:15:04.513,700, 600, 371, -2, 0, 0, -1, 2, 7, 927, 849, 316,a
2025-03-17 14:15:04.575,726, 619, 352, -3, -2, 0, -3, 4, 6, 934, 859, 321,a
2025-03-17 14:15:04.626,711, 603, 375, 0, -3, 2, -1, 3, 10, 934, 872, 374,a
2025-03-17 14:15:04.677,681, 625, 399, 2, -13, 7, -5, 4, 7, 942, 888, 369,a
2025-03-17 14:15:04.735,659, 618, 343, -9, -12, -16, -4, 4, 9, 947, 917, 136,a
2025-03-17 14:15:04.791,729, 717, 275, 37, 9, -6, -2, 3, 10, 961, 913, 44,a
2025-03-17 14:15:04.843,632, 493, 326, -59, 32, 33, -2, 5, 9, 968, 935, 50,a
2025-03-17 14:15:04.892,511, 494, 780, 5, -32, -19, -1, 5, 7, 966, 946, 27,a
2025-03-17 14:15:04.956,789, 653, 258, 27, -4, -8, -1, 4, 9, 962, 937, 120,a
2025-03-17 14:15:05.003,803, 445, 374, -7, 19, 1, -2, 3, 9, 959, 921, 93,a
2025-03-17 14:15:05.262,687, 611, 411, -5, -4, 0, -3, 3, 8, 927, 866, 232,b
2025-03-17 14:15:05.313,696, 606, 406, -5, -5, 0, -3, 3, 8, 927, 868, 231,b
2025-03-17 14:15:05.363,735, 604, 326, -6, -5, -2, -2, 3, 7, 928, 877, 226,b
2025-03-17 14:15:05.423,700, 614, 402, -5, -1, 1, -4, 4, 8, 926, 881, 218,b
2025-03-17 14:15:05.476,692, 590, 346, -4, -8, -7, -2, 2, 7, 925, 881, 226,b
2025-03-17 14:15:05.533,744, 599, 394, -6, -3, -7, -3, 2, 10, 929, 899, 232,b
2025-03-17 14:15:05.584,720, 794, 239, 45, 32, 30, -1, 2, 8, 956, 900, 225,b
2025-03-17 14:15:05.639,662, 745, 242, -10, 29, 21, -1, 5, 5, 961, 904, 72,b
2025-03-17 14:15:05.694,811, 308, 558, 22, -24, -27, -3, 3, 8, 951, 909, 158,b
2025-03-17 14:15:05.744,661, 472, 365, 12, -5, 11, -1, 2, 9, 965, 932, 301,b
2025-03-17 14:15:05.803,603, 600, 316, -19, 28, 19, -3, 3, 9, 966, 931, 50,b
2025-03-17 14:15:05.857,964, 356, 282, -7, 25, -40, -1, 3, 7, 952, 872, 29,b
2025-03-17 14:15:05.913,556, 617, 659, -12, 9, -18, -1, 2, 2, 946, 884, 172,b
2025-03-17 14:15:06.162,715, 602, 356, -6, -2, 1, -2, 4, 5, 933, 872, 177,c
2025-03-17 14:15:06.217,712, 599, 378, -6, -3, 1, -2, 2, 7, 936, 871, 174,c
2025-03-17 14:15:06.267,722, 590, 368, -6, -3, 2, -2, 4, 6, 934, 867, 204,c
2025-03-17 14:15:06.324,714, 601, 382, -4, -6, 2, -3, 4, 6, 936, 872, 189,c
2025-03-17 14:15:06.375,707, 602, 415, -4, -16, 3, -3, 3, 9, 939, 888, 137,c
2025-03-17 14:15:06.432,601, 539, 554, -11, -11, -15, -3, 4, 8, 946, 919, 76,c
2025-03-17 14:15:06.487,675, 687, 168, 44, 16, -7, -2, 1, 10, 959, 914, 40,c
2025-03-17 14:15:06.541,540, 483, 329, -26, 35, 35, -2, 4, 9, 968, 932, 57,c
2025-03-17 14:15:06.592,718, 401, 549, 11, -1, 5, -2, 6, 5, 962, 934, 51,c
2025-03-17 14:15:06.642,647, 563, 415, -7, 37, -25, 0, 3, 5, 940, 895, 358,c
2025-03-17 14:15:06.942,719, 587, 381, 0, -4, 1, -2, 3, 6, 921, 836, 193,d
2025-03-17 14:15:06.996,716, 587, 388, -1, -5, 1, -3, 4, 5, 921, 838, 191,d
2025-03-17 14:15:07.047,723, 595, 386, -1, -5, 1, -2, 2, 7, 922, 849, 191,d
2025-03-17 14:15:07.103,714, 582, 388, -4, -9, 1, -3, 2, 7, 929, 864, 163,d
2025-03-17 14:15:07.156,727, 673, 389, -4, -10, -7, -4, 4, 8, 932, 893, 125,d
2025-03-17 14:15:07.208,714, 559, 469, 1, -14, -16, -3, 4, 7, 939, 911, 49,d
2025-03-17 14:15:07.263,618, 484, 357, 37, -3, -19, -2, 3, 9, 947, 898, 73,d
2025-03-17 14:15:07.312,875, 830, 118, 1, 26, 37, -1, 3, 10, 961, 911, 46,d
2025-03-17 14:15:07.373,674, 450, 515, -59, -1, 13, -2, 5, 6, 959, 938, 52,d
2025-03-17 14:15:07.426,651, 382, 515, 1, -34, -33, -2, 5, 7, 950, 937, 243,d
2025-03-17 14:15:07.477,677, 725, 244, 37, 11, 1, -5, 4, 10, 958, 922, 291,d
2025-03-17 14:15:07.532,723, 522, 286, -3, 23, 21, -3, 5, 8, 959, 915, 68,d
2025-03-17 14:15:07.588,725, 522, 318, -15, 17, -30, -2, 2, 8, 944, 889, 269,d
2025-03-17 14:15:07.847,707, 597, 375, -6, 1, 0, -3, 3, 6, 919, 826, 169,e
2025-03-17 14:15:07.896,712, 589, 387, -5, 1, 1, -2, 2, 5, 920, 823, 149,e
2025-03-17 14:15:07.946,720, 587, 381, -1, 0, 0, -3, 2, 5, 922, 821, 125,e
2025-03-17 14:15:08.006,714, 587, 396, -4, -1, -1, -3, 2, 7, 924, 832, 114,e
2025-03-17 14:15:08.057,706, 571, 375, -2, -2, -1, -2, 5, 6, 925, 842, 114,e
2025-03-17 14:15:08.108,697, 603, 408, 0, -5, 1, -2, 4, 7, 929, 850, 106,e
2025-03-17 14:15:08.163,742, 599, 373, 6, -14, 3, -2, 3, 9, 943, 882, 73,e
2025-03-17 14:15:08.213,787, 690, 272, -20, 11, 26, -3, 4, 7, 960, 926, 33,e
2025-03-17 14:15:08.273,642, 583, 514, -19, -12, -1, -2, 4, 6, 954, 935, 51,e
2025-03-17 14:15:08.326,615, 514, 424, 36, -13, -25, -2, 5, 7, 956, 917, 102,e
2025-03-17 14:15:08.383,838, 801, 180, -11, 30, 25, -2, 3, 9, 960, 922, 68,e
2025-03-17 14:15:08.435,739, 590, 492, -16, 14, 17, -1, 4, 6, 957, 927, 71,e
2025-03-17 14:15:08.490,701, 572, 361, -17, 17, -24, 0, 1, 6, 944, 898, 276,e
2025-03-17 14:15:08.753,701, 585, 412, 2, 3, 3, -2, 3, 5, 927, 844, 135,f
2025-03-17 14:15:08.806,702, 585, 415, 4, 2, 3, -2, 2, 6, 926, 842, 125,f
2025-03-17 14:15:08.858,713, 589, 382, 2, 0, 4, -1, 4, 6, 927, 842, 164,f
2025-03-17 14:15:08.912,729, 604, 393, -1, 1, 6, -2, 4, 4, 933, 851, 157,f
2025-03-17 14:15:08.963,726, 591, 354, -2, 2, 1, -2, 2, 6, 931, 859, 153,f
2025-03-17 14:15:09.013,716, 588, 408, -3, 1, 3, -2, 3, 4, 932, 867, 140,f
2025-03-17 14:15:09.063,719, 582, 406, -3, 1, 3, -2, 5, 3, 941, 877, 89,f
2025-03-17 14:15:09.113,708, 521, 445, 2, -8, 9, 1, 5, 4, 943, 890, 54,f
2025-03-17 14:15:09.163,761, 623, 263, -26, 4, 5, -2, 5, 5, 949, 912, 64,f
2025-03-17 14:15:09.224,286, 466, 497, 0, -42, -56, -1, 5, 6, 950, 945, 76,f
2025-03-17 14:15:09.274,776, 579, 408, 12, -25, -6, -2, 4, 7, 961, 953, 187,f
2025-03-17 14:15:09.325,746, 712, 367, 3, 9, 14, -2, 3, 8, 964, 954, 272,f
2025-03-17 14:15:09.383,696, 455, 383, 2, 36, -40, -2, 3, 7, 963, 944, 90,f
2025-03-17 14:15:09.433,740, 662, 475, 17, -39, 18, -1, 3, 5, 957, 930, 148,f
2025-03-17 14:15:09.492,821, 780, 191, -12, 10, 25, -2, 4, 9, 968, 955, 43,f
2025-03-17 14:15:09.542,739, 459, 436, 7, 7, 4, -3, 2, 8, 965, 942, 332,f
2025-03-17 14:15:09.592,656, 563, 352, -5, 31, -30, -3, 4, 6, 946, 903, 423,f
2025-03-17 14:15:09.643,595, 658, 512, 0, -1, -7, -2, 3, 4, 928, 852, 387,f
2025-03-17 14:15:09.903,706, 607, 366, 1, -2, 10, -3, 3, 5, 935, 861, 318,g
2025-03-17 14:15:09.960,709, 612, 374, -1, -1, 10, -2, 2, 5, 936, 864, 310,g
2025-03-17 14:15:10.008,710, 589, 402, 0, -5, 8, -1, 3, 5, 936, 865, 309,g
2025-03-17 14:15:10.062,686, 589, 378, -2, -15, 6, -3, 2, 8, 945, 887, 183,g
2025-03-17 14:15:10.112,809, 563, 272, -19, -7, -9, -3, 1, 9, 948, 922, 44,g
2025-03-17 14:15:10.174,580, 585, 332, 37, 0, -14, -1, 4, 9, 956, 920, 55,g
2025-03-17 14:15:10.225,653, 606, 397, -22, 38, 33, -2, 3, 9, 967, 926, 67,g
2025-03-17 14:15:10.275,697, 476, 621, -14, 12, 11, -2, 3, 5, 964, 935, 67,g
2025-03-17 14:15:10.333,764, 654, 476, 20, -11, -9, -2, 3, 5, 956, 922, 332,g
2025-03-17 14:15:10.385,813, 707, 326, -1, 37, 31, -2, 2, 8, 962, 921, 82,g
2025-03-17 14:15:10.440,784, 309, 358, -20, 20, 9, -2, 2, 5, 959, 905, 50,g
2025-03-17 14:15:10.492,829, 656, 246, -1, 17, -49, -1, 5, 3, 928, 847, 80,g
2025-03-17 14:15:10.773,710, 617, 354, -3, -2, -1, -1, 1, 6, 887, 807, 239,h
2025-03-17 14:15:10.832,707, 607, 380, -3, -1, 0, -3, 1, 5, 887, 810, 244,h
2025-03-17 14:15:10.883,680, 626, 384, -3, -4, 0, -2, 2, 6, 896, 820, 258,h
2025-03-17 14:15:10.940,705, 611, 372, -1, -8, 0, -2, 1, 8, 903, 832, 224,h
2025-03-17 14:15:10.992,682, 622, 358, -5, -9, -4, -3, 4, 6, 905, 847, 261,h
2025-03-17 14:15:11.043,708, 627, 375, -3, -17, 5, -1, 1, 7, 921, 875, 245,h
2025-03-17 14:15:11.093,724, 543, 273, -6, -1, -3, -2, 1, 9, 939, 901, 251,h
2025-03-17 14:15:11.153,711, 642, 418, 20, 31, 24, -2, 3, 8, 957, 905, 112,h
2025-03-17 14:15:11.205,650, 614, 221, -8, 18, 16, 0, 3, 8, 961, 898, 67,h
2025-03-17 14:15:11.263,776, 498, 664, -13, -23, -7, -2, 5, 6, 952, 913, 69,h
2025-03-17 14:15:11.313,629, 682, 505, -6, -6, 9, -2, 5, 8, 961, 931, 49,h
2025-03-17 14:15:11.366,641, 538, 191, -10, 32, 26, 1, 3, 8, 966, 932, 62,h
2025-03-17 14:15:11.413,756, 371, 473, -9, 8, -29, 0, 5, 6, 955, 904, 57,h
2025-03-17 14:15:11.732,708, 598, 382, -12, -3, -4, -3, 3, 6, 927, 864, 107,i
2025-03-17 14:15:11.796,705, 595, 397, -11, -4, -3, -3, 5, 5, 927, 864, 108,i
2025-03-17 14:15:11.845,717, 585, 401, 2, -5, 1, -2, 3, 7, 930, 869, 119,i
2025-03-17 14:15:11.894,719, 601, 379, -3, -3, -1, -1, 3, 6, 933, 870, 100,i
2025-03-17 14:15:11.943,711, 570, 383, 2, -1, -2, -4, 5, 5, 936, 871, 137,i
2025-03-17 14:15:12.006,704, 577, 392, -2, -2, -2, -1, 4, 6, 938, 876, 128,i
2025-03-17 14:15:12.057,723, 584, 381, 1, -2, -2, -1, 3, 9, 937, 875, 172,i
2025-03-17 14:15:12.106,718, 617, 357, 0, -1, -1, -2, 3, 7, 941, 876, 143,i
2025-03-17 14:15:12.163,699, 594, 399, -2, -2, -4, -1, 4, 7, 937, 880, 189,i
2025-03-17 14:15:12.221,701, 575, 380, -2, -4, -7, -2, 3, 6, 939, 877, 149,i
2025-03-17 14:15:12.274,670, 608, 444, -2, -13, -3, -1, 4, 7, 939, 881, 112,i
2025-03-17 14:15:12.322,761, 604, 231, -14, -9, -8, -2, 5, 7, 948, 897, 49,i
2025-03-17 14:15:12.373,716, 527, 397, 0, 1, -5, -3, 3, 9, 951, 908, 74,i
2025-03-17 14:15:12.433,719, 647, 399, 3, -4, 16, -2, 4, 7, 960, 935, 74,i
2025-03-17 14:15:12.483,668, 507, 383, -2, 2, 4, -2, 4, 7, 964, 942, 47,i
2025-03-17 14:15:12.537,719, 625, 312, -3, 1, -3, -1, 2, 11, 958, 940, 167,i
2025-03-17 14:15:12.590,733, 636, 369, 5, -7, -9, -2, 5, 9, 959, 942, 109,i
2025-03-17 14:15:12.643,723, 623, 338, 7, 4, 0, -1, 3, 10, 956, 939, 246,i
2025-03-17 14:15:12.693,832, 602, 190, 4, 16, -25, -2, 4, 9, 938, 913, 411,i
2025-03-17 14:15:12.743,583, 669, 471, -1, 21, -4, -2, 3, 6, 946, 909, 235,i
2025-03-17 14:15:12.806,607, 647, 427, 11, -19, 21, -1, 2, 7, 947, 912, 187,i
2025-03-17 14:15:12.856,757, 550, 276, 2, -17, 8, -1, 2, 9, 954, 927, 208,i
2025-03-17 14:15:12.906,721, 524, 416, 5, -5, -8, -2, 3, 9, 966, 942, 48,i
2025-03-17 14:15:12.963,617, 864, 138, -16, 36, 31, -1, 3, 10, 975, 948, 42,i
2025-03-17 14:15:13.021,807, 408, 360, -41, 27, 3, -1, 4, 9, 964, 938, 77,i
2025-03-17 14:15:13.073,396, 838, 732, -29, -27, -32, -1, 2, 6, 958, 938, 40,i
2025-03-17 14:15:13.123,819, 815, 315, -30, -24, 0, -2, 3, 9, 966, 959, 53,i
2025-03-17 14:15:13.183,841, 772, 412, -7, 20, 25, -2, 3, 8, 962, 951, 262,i
2025-03-17 14:15:13.237,679, 608, 356, -16, 59, -29, -4, 5, 6, 953, 936, 265,i
2025-03-17 14:15:13.292,529, 654, 575, -12, 21, -11, -3, 5, 1, 943, 908, 155,i
2025-03-17 14:15:13.343,609, 604, 498, 13, -14, 7, -1, 4, 1, 933, 880, 117,i
2025-03-17 14:15:13.603,703, 609, 416, 2, 3, 8, -2, 4, 4, 923, 784, 157,j
2025-03-17 14:15:13.663,705, 612, 410, 3, 4, 8, -3, 3, 6, 923, 781, 147,j
2025-03-17 14:15:13.713,670, 607, 423, 2, 0, 13, -2, 4, 5, 925, 785, 129,j
2025-03-17 14:15:13.763,709, 599, 372, 5, -6, 10, -3, 5, 5, 933, 802, 120,j
2025-03-17 14:15:13.813,700, 590, 395, -3, -5, 2, -1, 2, 6, 928, 823, 192,j
2025-03-17 14:15:13.872,748, 535, 454, 1, -15, 6, -1, 5, 5, 939, 860, 149,j
2025-03-17 14:15:13.923,572, 827, 268, -16, 29, 35, -3, 5, 6, 958, 894, 75,j
2025-03-17 14:15:13.983,591, 395, 448, -58, 32, 37, -1, 6, 7, 961, 907, 74,j
2025-03-17 14:15:14.033,799, 612, 300, 25, -52, -120, 0, 5, 6, 946, 901, 71,j
2025-03-17 14:15:14.089,654, 386, 679, 20, -55, -2, -2, 5, 8, 960, 951, 33,j
2025-03-17 14:15:14.142,806, 654, 189, 25, 14, 7, -3, 4, 10, 960, 940, 73,j
2025-03-17 14:15:14.193,748, 433, 332, -1, 38, -19, -2, 5, 9, 951, 905, 42,j
2025-03-17 14:15:14.493,688, 610, 386, -3, -5, 1, -3, 4, 7, 932, 863, 315,k
2025-03-17 14:15:14.543,671, 613, 409, -2, -7, 2, -2, 3, 7, 932, 864, 323,k
2025-03-17 14:15:14.596,736, 575, 375, -3, -13, 1, -1, 3, 7, 936, 886, 304,k
2025-03-17 14:15:14.657,722, 544, 352, -1, -2, -4, -1, 4, 9, 944, 906, 274,k
2025-03-17 14:15:14.712,716, 580, 376, 25, -1, -2, -2, 4, 10, 952, 895, 276,k
2025-03-17 14:15:14.763,494, 650, 234, 10, 13, 12, -1, 4, 10, 963, 863, 74,k
2025-03-17 14:15:14.822,789, 727, 383, -33, 12, 15, -1, 3, 10, 962, 919, 53,k
2025-03-17 14:15:14.873,659, 532, 284, 1, -19, 0, -1, 3, 10, 966, 948, 43,k
2025-03-17 14:15:14.923,715, 571, 359, 18, 0, -7, -2, 4, 8, 952, 917, 247,k
2025-03-17 14:15:14.982,625, 727, 510, 3, -6, -10, -2, 3, 9, 951, 860, 154,k
2025-03-17 14:15:15.033,862, 607, -70, -26, 19, 37, -1, 1, 10, 967, 928, 62,k
2025-03-17 14:15:15.088,793, 274, 452, -2, 14, -3, -1, 3, 8, 963, 921, 50,k
2025-03-17 14:15:15.396,718, 627, 350, -11, -9, -6, -2, 3, 9, 919, 860, 263,l
2025-03-17 14:15:15.443,714, 645, 366, -13, -6, -3, -2, 3, 9, 919, 863, 265,l
2025-03-17 14:15:15.502,715, 626, 331, -4, -4, -2, -1, 2, 9, 918, 866, 288,l
2025-03-17 14:15:15.556,684, 626, 395, -8, -10, -2, -1, 3, 10, 921, 879, 280,l
2025-03-17 14:15:15.613,1151, 494, 297, -20, -14, -6, -4, 4, 8, 936, 911, 265,l
2025-03-17 14:15:15.670,705, 502, 451, 20, -6, -7, -2, 4, 11, 954, 919, 242,l
2025-03-17 14:15:15.728,666, 621, 394, 14, 34, 23, -2, 4, 10, 965, 909, 42,l
2025-03-17 14:15:15.772,767, 588, 336, -13, 23, 9, -1, 3, 9, 956, 902, 73,l
2025-03-17 14:15:15.833,777, 729, 138, -33, 34, -41, -1, 1, 6, 933, 866, 359,l
2025-03-17 14:15:15.888,526, 696, 675, -2, -8, -3, -2, 3, 1, 918, 841, 337,l
2025-03-17 14:15:16.150,690, 607, 388, -3, -3, -1, 0, 2, 6, 915, 793, 194,m
2025-03-17 14:15:16.202,705, 595, 382, -2, -4, -1, -2, 3, 6, 915, 791, 189,m
2025-03-17 14:15:16.254,698, 607, 368, -3, -9, -6, -1, 2, 8, 914, 799, 171,m
2025-03-17 14:15:16.313,706, 583, 405, -6, -17, -1, -1, 5, 6, 923, 864, 126,m
2025-03-17 14:15:16.363,721, 569, 386, 22, -3, -8, -1, 3, 8, 947, 890, 103,m
2025-03-17 14:15:16.420,792, 536, 402, -4, 18, 16, -2, 3, 10, 961, 888, 36,m
2025-03-17 14:15:16.473,748, 670, 366, -19, 10, 5, 0, 2, 8, 951, 902, 44,m
2025-03-17 14:15:16.525,706, 791, 356, -24, -30, -13, -1, 2, 9, 951, 926, 83,m
2025-03-17 14:15:16.582,637, 716, 340, 19, 3, 10, -2, 4, 10, 961, 934, 126,m
2025-03-17 14:15:16.637,875, 571, 173, -9, 23, 18, 0, 2, 10, 967, 933, 52,m
2025-03-17 14:15:16.687,854, 370, 609, -11, -30, -11, -1, 4, 7, 961, 941, 56,m
2025-03-17 14:15:16.743,666, 567, 533, 9, -18, 0, -2, 4, 9, 964, 945, 55,m
2025-03-17 14:15:16.797,873, 836, 86, -13, 42, 31, -3, 6, 12, 966, 939, 53,m
2025-03-17 14:15:16.847,772, 365, 491, 2, 0, -37, -1, 3, 10, 960, 917, 260,m
2025-03-17 14:15:16.905,697, 609, 446, -10, -2, -22, -1, 5, 6, 938, 889, 412,m
2025-03-17 14:15:17.134,709, 640, 365, -5, 2, -2, -2, 4, 8, 921, 829, 238,n
2025-03-17 14:15:17.193,707, 608, 368, -4, 2, -1, -1, 2, 8, 922, 828, 240,n
2025-03-17 14:15:17.247,707, 589, 370, -1, 0, -5, -2, 4, 8, 921, 808, 221,n
2025-03-17 14:15:17.297,692, 617, 374, -4, -3, -9, -1, 3, 7, 916, 786, 186,n
2025-03-17 14:15:17.355,671, 603, 401, -2, -14, 3, -2, 2, 8, 924, 835, 178,n
2025-03-17 14:15:17.405,705, 670, 382, 6, -5, -2, -1, 2, 10, 951, 896, 182,n
2025-03-17 14:15:17.463,637, 648, 382, -2, 26, 15, 1, 2, 10, 959, 899, 71,n
2025-03-17 14:15:17.513,790, 605, 423, -20, -2, 3, -1, 2, 8, 957, 910, 36,n
2025-03-17 14:15:17.571,653, 706, 202, -17, -26, -4, -3, 3, 9, 954, 929, 283,n
2025-03-17 14:15:17.623,681, 922, 1, -6, 23, 23, -2, 5, 10, 968, 934, 238,n
2025-03-17 14:15:17.672,822, 451, 330, -12, 23, 2, -1, 4, 9, 960, 914, 282,n
2025-03-17 14:15:17.732,678, 616, 433, -19, 22, -31, 0, 4, 6, 943, 873, 363,n
2025-03-17 14:15:17.996,707, 585, 399, -4, -2, 1, -2, 4, 6, 928, 829, 184,o
2025-03-17 14:15:18.046,700, 597, 406, -4, -2, 2, -2, 4, 6, 928, 830, 182,o
2025-03-17 14:15:18.103,708, 607, 392, -3, -2, 2, -4, 4, 5, 927, 838, 191,o
2025-03-17 14:15:18.153,712, 591, 378, -3, -1, 0, 0, 4, 6, 929, 844, 193,o
2025-03-17 14:15:18.206,704, 594, 398, -1, -3, 3, -1, 5, 5, 930, 857, 203,o
2025-03-17 14:15:18.256,710, 595, 408, 1, -5, 4, -2, 4, 5, 934, 877, 188,o
2025-03-17 14:15:18.312,717, 591, 378, 1, -10, 5, 0, 4, 7, 940, 895, 201,o
2025-03-17 14:15:18.365,653, 520, 392, -8, -11, -14, -3, 5, 6, 942, 920, 113,o
2025-03-17 14:15:18.422,524, 410, 406, 58, -16, -23, -2, 4, 8, 950, 927, 46,o
2025-03-17 14:15:18.472,867, 723, 169, -42, 55, 54, -1, 3, 9, 971, 935, 41,o
2025-03-17 14:15:18.522,639, 404, 736, -47, -4, 10, -1, 5, 4, 969, 948, 53,o
2025-03-17 14:15:18.586,787, 478, 229, 53, -20, -27, -2, 5, 6, 954, 937, 315,o
2025-03-17 14:15:18.643,744, 636, 290, -19, 44, -27, -1, 1, 7, 933, 907, 424,o
2025-03-17 14:15:18.894,704, 602, 372, -5, 1, 2, -1, 4, 7, 916, 799, 201,p
2025-03-17 14:15:18.943,703, 588, 403, -2, 0, 2, -1, 3, 6, 916, 799, 215,p
2025-03-17 14:15:18.995,707, 576, 384, 1, -6, 1, -2, 3, 6, 917, 805, 197,p
2025-03-17 14:15:19.054,697, 577, 401, -5, -13, 1, -2, 5, 7, 921, 841, 186,p
2025-03-17 14:15:19.105,726, 633, 421, -23, -4, -2, -2, 4, 7, 938, 893, 59,p
2025-03-17 14:15:19.155,319, 942, 241, 11, 47, 43, -2, 5, 6, 965, 902, 36,p
2025-03-17 14:15:19.213,708, 524, 306, -24, 33, 30, 0, 6, 7, 961, 905, 66,p
2025-03-17 14:15:19.263,412, 30, 529, 26, -68, -75, 0, 5, 5, 950, 918, 65,p
2025-03-17 14:15:19.319,665, 560, 577, -31, -23, -4, -3, 4, 7, 962, 952, 43,p
2025-03-17 14:15:19.373,714, 684, 190, 0, 18, 25, -3, 3, 11, 970, 954, 40,p
2025-03-17 14:15:19.423,810, 438, 276, 12, 17, 3, -2, 5, 9, 962, 936, 59,p
2025-03-17 14:15:19.472,809, 637, 303, -21, 30, -31, -1, 4, 8, 947, 909, 52,p
2025-03-17 14:15:19.748,695, 572, 426, 1, -9, 7, -3, 4, 6, 941, 890, 55,q
2025-03-17 14:15:19.803,676, 586, 413, 1, -12, 8, -2, 4, 7, 942, 893, 73,q
2025-03-17 14:15:19.855,745, 602, 371, -6, -14, 3, -1, 5, 7, 950, 911, 32,q
2025-03-17 14:15:19.904,713, 670, 449, -11, -4, -6, -3, 3, 7, 947, 928, 72,q
2025-03-17 14:15:19.963,815, 557, 336, 43, 3, -12, -3, 3, 10, 954, 910, 47,q
2025-03-17 14:15:20.013,833, 970, 124, -19, 35, 33, 0, 3, 10, 961, 918, 72,q
2025-03-17 14:15:20.073,667, 446, 756, -36, -15, -5, -1, 4, 7, 964, 950, 49,q
2025-03-17 14:15:20.123,718, 410, 466, 3, -13, -12, -1, 7, 6, 955, 947, 64,q
2025-03-17 14:15:20.173,868, 635, 409, 22, 34, 25, -3, 5, 7, 963, 938, 70,q
2025-03-17 14:15:20.233,791, 552, 239, -11, 18, 15, -1, 4, 8, 967, 945, 60,q
2025-03-17 14:15:20.282,753, 423, 513, 7, -9, -1, 0, 5, 7, 966, 950, 56,q
2025-03-17 14:15:20.586,731, 587, 354, 1, -2, 1, -3, 5, 4, 935, 902, 206,r
2025-03-17 14:15:20.643,738, 595, 365, -2, 0, 1, -2, 3, 6, 937, 903, 193,r
2025-03-17 14:15:20.693,676, 596, 433, -3, -3, 0, -1, 2, 5, 935, 903, 239,r
2025-03-17 14:15:20.743,726, 587, 375, -3, -19, -2, -1, 2, 6, 932, 916, 300,r
2025-03-17 14:15:20.806,756, 556, 347, -6, -5, -6, -2, 4, 7, 948, 939, 286,r
2025-03-17 14:15:20.856,755, 541, 479, 15, 34, 23, -1, 5, 6, 957, 933, 288,r
2025-03-17 14:15:20.913,722, 599, 208, -28, 14, 14, 1, 2, 8, 964, 935, 129,r
2025-03-17 14:15:20.970,680, 572, 422, -19, -33, -16, -1, 5, 6, 959, 949, 230,r
2025-03-17 14:15:21.023,825, 587, 196, -7, 20, 15, -3, 5, 6, 958, 943, 419,r
2025-03-17 14:15:21.073,592, 601, 514, -21, 34, -22, -2, 3, 5, 956, 928, 303,r
2025-03-17 14:15:21.363,720, 579, 432, 5, -7, 7, -1, 5, 5, 949, 911, 263,s
2025-03-17 14:15:21.413,723, 582, 408, 5, -8, 7, -2, 5, 6, 949, 913, 246,s
2025-03-17 14:15:21.466,742, 561, 389, 3, -8, 3, -2, 6, 6, 953, 919, 255,s
2025-03-17 14:15:21.523,703, 546, 374, -17, -2, -5, -2, 5, 4, 955, 933, 136,s
2025-03-17 14:15:21.572,773, 456, 466, 11, -8, -14, -1, 4, 9, 957, 941, 56,s
2025-03-17 14:15:21.623,838, 630, 149, 28, 21, 2, -2, 5, 10, 962, 938, 106,s
2025-03-17 14:15:21.683,766, 686, 461, 10, 21, 22, -1, 6, 6, 968, 942, 55,s
2025-03-17 14:15:21.737,732, 456, 336, -1, 9, 12, -2, 6, 6, 964, 938, 62,s
2025-03-17 14:15:21.787,1032, 440, 177, -7, 29, -31, 0, 6, 5, 945, 874, 177,s
2025-03-17 14:15:21.844,535, 605, 729, -21, 23, -30, -1, 4, 0, 937, 876, 142,s
2025-03-17 14:15:22.113,747, 581, 355, -7, -7, -2, -1, 3, 5, 929, 889, 226,t
2025-03-17 14:15:22.173,738, 579, 369, -9, -6, -3, -2, 4, 5, 932, 890, 213,t
2025-03-17 14:15:22.223,699, 547, 436, -4, -17, -5, -1, 4, 6, 931, 898, 243,t
2025-03-17 14:15:22.285,755, 397, 314, -5, -17, -17, -3, 3, 8, 940, 913, 185,t
2025-03-17 14:15:22.337,845, 458, 452, 74, -3, -16, -2, 4, 9, 953, 908, 157,t
2025-03-17 14:15:22.391,903, 745, -72, -2, 54, 52, -1, 5, 7, 966, 911, 92,t
2025-03-17 14:15:22.443,648, 438, 669, -31, -1, -4, -2, 5, 5, 956, 917, 214,t
2025-03-17 14:15:22.502,642, 621, 436, 12, -42, -21, -1, 5, 5, 943, 894, 409,t
2025-03-17 14:15:22.554,864, 828, 216, -5, 0, 3, -1, 4, 8, 966, 948, 258,t
2025-03-17 14:15:22.613,651, 516, 448, -14, 14, 23, -1, 5, 10, 961, 941, 378,t
2025-03-17 14:15:22.908,714, 593, 381, 1, 0, 2, -2, 4, 5, 930, 806, 180,u
2025-03-17 14:15:22.958,712, 605, 368, -1, 0, 4, -1, 2, 7, 930, 806, 194,u
2025-03-17 14:15:23.011,675, 620, 405, -1, 0, 1, -1, 3, 6, 930, 802, 187,u
2025-03-17 14:15:23.063,684, 635, 376, 8, -17, 7, -1, 2, 7, 932, 810, 166,u
2025-03-17 14:15:23.117,777, 529, 417, -12, 0, -5, -1, 4, 7, 945, 867, 53,u
2025-03-17 14:15:23.173,1012, 767, 212, -1, 30, 37, -1, 3, 9, 966, 908, 50,u
2025-03-17 14:15:23.223,657, 431, 386, -41, 4, 21, 0, 4, 7, 964, 935, 68,u
2025-03-17 14:15:23.272,753, 537, 387, 4, -21, -22, -3, 4, 5, 952, 938, 72,u
2025-03-17 14:15:23.323,817, 700, 247, 10, 14, 12, -1, 4, 8, 963, 934, 72,u
2025-03-17 14:15:23.388,766, 600, 258, -11, 14, 14, -1, 6, 6, 964, 935, 57,u
2025-03-17 14:15:23.441,653, 631, 348, -17, 24, -40, -2, 5, 4, 951, 916, 42,u
2025-03-17 14:15:23.718,683, 582, 415, 2, 1, -5, -1, 4, 5, 911, 784, 119,v
2025-03-17 14:15:23.770,697, 594, 422, 2, 0, -4, -1, 3, 5, 912, 781, 134,v
2025-03-17 14:15:23.823,684, 579, 379, 1, -3, -3, 0, 3, 5, 913, 769, 117,v
2025-03-17 14:15:23.873,738, 615, 395, 1, -18, -4, 0, 3, 6, 924, 823, 88,v
2025-03-17 14:15:23.923,753, 481, 404, -10, -3, -9, -1, 3, 6, 943, 914, 72,v
2025-03-17 14:15:23.978,893, 855, 314, 17, 15, 35, -2, 5, 6, 960, 922, 70,v
2025-03-17 14:15:24.033,712, 609, 198, -6, 8, 16, -2, 6, 6, 967, 930, 41,v
2025-03-17 14:15:24.088,423, 131, 579, 4, -56, -25, -3, 5, 7, 960, 954, 73,v
2025-03-17 14:15:24.139,974, 682, 32, 17, 38, -6, -3, 3, 7, 952, 936, 128,v
2025-03-17 14:15:24.193,513, 685, 551, -13, 48, -35, -2, 5, 3, 935, 909, 52,v
2025-03-17 14:15:24.242,576, 573, 464, 16, -19, 6, -1, 3, 0, 932, 864, 44,v
2025-03-17 14:15:24.516,679, 592, 413, 2, -4, -5, -2, 2, 5, 902, 689, 95,w
2025-03-17 14:15:24.571,689, 599, 410, 2, -4, -6, -1, 4, 4, 901, 674, 91,w
2025-03-17 14:15:24.623,696, 613, 372, -1, -1, -6, 0, 3, 6, 895, 670, 115,w
2025-03-17 14:15:24.672,706, 616, 387, 4, -6, -3, -1, 3, 5, 895, 700, 100,w
2025-03-17 14:15:24.723,682, 605, 428, 6, -20, 2, -1, 2, 7, 909, 792, 101,w
2025-03-17 14:15:24.785,751, 607, 365, -14, -7, -4, 0, 3, 7, 940, 899, 70,w
2025-03-17 14:15:24.837,569, 645, 393, -17, 36, 45, -1, 2, 7, 966, 914, 28,w
2025-03-17 14:15:24.888,695, 593, 292, -55, 14, 22, -1, 3, 7, 963, 940, 55,w
2025-03-17 14:15:24.945,665, 694, 296, -1, -19, -14, -2, 3, 7, 959, 944, 36,w
2025-03-17 14:15:25.001,551, 594, 117, 41, 37, 36, -2, 4, 7, 963, 919, 51,w
2025-03-17 14:15:25.054,782, 839, 179, -72, 5, 23, -2, 6, 6, 964, 939, 48,w
2025-03-17 14:15:25.105,741, 618, 296, 36, -9, -5, -3, 4, 8, 956, 931, 67,w
2025-03-17 14:15:25.155,670, 532, 459, -15, 55, -32, -4, 5, 4, 946, 911, 49,w
2025-03-17 14:15:25.433,716, 584, 424, -4, -4, 3, -2, 3, 6, 927, 860, 220,x
2025-03-17 14:15:25.493,714, 578, 416, -3, -6, 3, -1, 4, 4, 929, 860, 211,x
2025-03-17 14:15:25.543,744, 576, 360, -2, -10, 3, 0, 3, 7, 930, 873, 261,x
2025-03-17 14:15:25.595,711, 551, 451, -3, -16, 4, -2, 4, 7, 941, 893, 254,x
2025-03-17 14:15:25.651,652, 470, 461, 13, -7, -10, -2, 6, 7, 949, 913, 53,x
2025-03-17 14:15:25.705,2067, 499, 480, 37, 22, 1, -1, 4, 8, 953, 878, 50,x
2025-03-17 14:15:25.756,738, 546, 227, -26, 30, 3, -1, 4, 6, 940, 852, 47,x
2025-03-17 14:15:25.806,617, 639, 479, 29, -41, -40, -1, 3, 5, 920, 836, 232,x
2025-03-17 14:15:25.863,889, 791, 279, 23, -5, 12, 1, 2, 7, 955, 908, 204,x
2025-03-17 14:15:25.923,507, 515, 266, -27, 28, 28, -2, 5, 7, 960, 918, 78,x
2025-03-17 14:15:25.973,737, 453, 332, -9, 13, -38, -2, 3, 6, 945, 876, 261,x
2025-03-17 14:15:26.253,667, 602, 434, -13, -11, -1, -1, 3, 4, 901, 767, 91,y
2025-03-17 14:15:26.304,646, 583, 457, -11, -16, -1, -2, 2, 6, 906, 779, 101,y
2025-03-17 14:15:26.363,767, 471, 352, 1, -9, -9, -1, 2, 8, 932, 869, 38,y
2025-03-17 14:15:26.413,803, 592, 307, 39, 6, -2, -1, 5, 7, 955, 883, 49,y
2025-03-17 14:15:26.467,835, 713, 245, 1, 31, 44, -1, 3, 9, 960, 917, 71,y
2025-03-17 14:15:26.520,595, 349, 709, 8, -17, -14, -1, 3, 5, 952, 918, 217,y
2025-03-17 14:15:26.572,682, 583, 581, 11, -9, -3, -2, 3, 4, 944, 899, 437,y
2025-03-17 14:15:26.623,310, 898, 271, 2, 36, 44, -1, 3, 6, 965, 913, 51,y
2025-03-17 14:15:26.673,705, 263, 495, -20, 33, 24, 1, 4, 5, 960, 896, 50,y
2025-03-17 14:15:26.733,954, 445, 317, 29, 10, -65, -1, 3, 4, 929, 775, 47,y
2025-03-17 14:15:26.787,503, 577, 734, -9, 10, -25, 0, 4, 1, 905, 807, 267,y
2025-03-17 14:15:27.047,681, 596, 437, 2, -13, 0, -2, 3, 4, 908, 771, 117,z
2025-03-17 14:15:27.102,680, 587, 437, 2, -14, 0, -2, 2, 4, 910, 772, 116,z
2025-03-17 14:15:27.153,739, 558, 421, -1, -26, 0, -2, 4, 7, 921, 794, 44,z
2025-03-17 14:15:27.204,746, 524, 275, -11, 1, -8, -1, 4, 8, 940, 884, 75,z
2025-03-17 14:15:27.254,725, 627, 389, 21, -6, -4, -1, 4, 8, 952, 921, 49,z
2025-03-17 14:15:27.307,753, 452, 276, 10, -2, 12, -1, 3, 9, 960, 936, 40,z
2025-03-17 14:15:27.363,696, 567, 456, 13, -2, 9, 0, 3, 9, 961, 938, 78,z
2025-03-17 14:15:27.418,679, 620, 287, 26, 8, 13, -2, 3, 10, 962, 923, 225,z
2025-03-17 14:15:27.473,578, 631, 198, -17, 11, -18, -1, 4, 8, 957, 859, 46,z
2025-03-17 14:15:27.525,879, 854, 433, 8, 4, 17, -1, 3, 9, 963, 927, 75,z
2025-03-17 14:15:27.573,710, 725, 348, -11, 10, 29, -1, 3, 9, 969, 949, 66,z
2025-03-17 14:15:27.629,732, 184, 375, 24, 7, -56, -1, 3, 9, 955, 919, 59,z
2025-03-17 14:15:27.687,739, 902, 579, 27, -36, 11, -2, 0, 7, 950, 884, 257,z
2025-03-17 14:15:27.737,604, 736, 35, -22, 8, 20, -2, 4, 9, 967, 944, 131,z
2025-03-17 14:15:27.787,874, 248, 316, 0, 27, -19, 0, 4, 6, 959, 929, 293,z
2025-03-17 14:15:28.065,711, 621, 360, -6, 0, 3, -3, 2, 7, 926, 811, 338,0
2025-03-17 14:15:28.118,712, 606, 362, -7, 0, 2, -3, 2, 7, 923, 814, 357,0
2025-03-17 14:15:28.171,716, 602, 377, -5, -1, 1, -2, 3, 5, 923, 815, 341,0
2025-03-17 14:15:28.223,719, 615, 328, -8, -1, 2, -1, 1, 7, 928, 816, 233,0
2025-03-17 14:15:28.272,726, 600, 361, -6, 1, 0, -2, 3, 8, 926, 829, 218,0
2025-03-17 14:15:28.326,711, 601, 376, -5, -3, 0, 0, 3, 7, 928, 841, 196,0
2025-03-17 14:15:28.380,729, 600, 351, -5, -3, 1, -2, 1, 8, 932, 851, 154,0
2025-03-17 14:15:28.434,719, 593, 375, -4, 0, -1, -2, 4, 7, 929, 857, 189,0
2025-03-17 14:15:28.486,727, 605, 364, -1, -2, 1, -1, 3, 8, 934, 862, 153,0
2025-03-17 14:15:28.538,723, 581, 371, -1, 0, 0, -2, 4, 7, 933, 865, 171,0
2025-03-17 14:15:28.593,730, 600, 369, -1, -1, 2, -3, 3, 5, 935, 869, 175,0
2025-03-17 14:15:28.643,728, 570, 365, 1, 0, 1, -1, 3, 5, 937, 872, 174,0
2025-03-17 14:15:28.692,733, 599, 360, -1, 1, 0, -3, 3, 7, 936, 875, 193,0
2025-03-17 14:15:28.743,720, 585, 367, -2, -1, -1, -1, 1, 8, 936, 877, 183,0
2025-03-17 14:15:28.801,726, 605, 355, -3, 0, -1, -1, 2, 8, 938, 883, 171,0
2025-03-17 14:15:28.853,726, 589, 357, -2, -1, 0, -2, 3, 7, 937, 883, 196,0
2025-03-17 14:15:28.904,730, 594, 353, -2, 1, -1, -2, 2, 8, 942, 888, 167,0
2025-03-17 14:15:28.952,719, 583, 370, -1, 0, -1, -2, 2, 8, 937, 886, 212,0
2025-03-17 14:15:29.013,734, 592, 362, -3, 0, -1, -2, 4, 6, 939, 890, 181,0
2025-03-17 14:15:29.068,729, 582, 374, -3, -1, -3, -2, 5, 6, 938, 891, 201,0
2025-03-17 14:15:29.120,725, 593, 374, -4, -1, 0, -2, 3, 6, 938, 892, 188,0
2025-03-17 14:15:29.173,736, 616, 351, -5, 0, -1, -2, 5, 7, 944, 894, 177,0
2025-03-17 14:15:29.223,730, 584, 373, -5, -2, 1, 1, 3, 7, 940, 898, 135,0
2025-03-17 14:15:29.273,728, 591, 377, -4, -2, -1, -2, 4, 7, 943, 899, 119,0
2025-03-17 14:15:29.334,732, 584, 365, -2, -2, -1, -2, 4, 6, 944, 902, 130,0
2025-03-17 14:15:29.386,732, 609, 370, -5, -1, 0, -3, 4, 9, 947, 903, 117,0
2025-03-17 14:15:29.436,734, 590, 375, -4, -1, -1, -2, 4, 9, 941, 902, 149,0
2025-03-17 14:15:29.493,729, 597, 358, -4, -1, 0, -4, 4, 6, 943, 902, 120,0
2025-03-17 14:15:29.545,736, 580, 372, -3, -2, -1, -2, 3, 7, 944, 906, 103,0
2025-03-17 14:15:29.600,732, 583, 364, -4, 0, 0, -2, 4, 8, 945, 907, 43,0
2025-03-17 14:15:29.650,738, 590, 352, -2, 0, -2, -2, 3, 8, 944, 909, 27,0
2025-03-17 14:15:29.702,730, 592, 379, -3, 0, 0, -4, 3, 7, 943, 908, 42,0
2025-03-17 14:15:29.751,738, 584, 362, -4, 0, -2, -4, 5, 7, 944, 910, 49,0
2025-03-17 14:15:29.803,733, 606, 378, -3, -1, -3, -2, 4, 7, 944, 910, 58,0
2025-03-17 14:15:29.853,733, 604, 349, -3, 0, -2, -3, 2, 8, 943, 910, 52,0
2025-03-17 14:15:29.902,729, 583, 371, -2, -1, -1, -3, 4, 6, 945, 912, 43,0
2025-03-17 14:15:29.958,724, 603, 359, -1, 0, 0, -2, 3, 8, 947, 915, 52,0
2025-03-17 14:15:30.013,719, 583, 372, -1, 0, 0, -2, 4, 7, 949, 917, 56,0
2025-03-17 14:15:30.063,722, 596, 381, -2, 0, 1, -3, 4, 8, 946, 917, 72,0
2025-03-17 14:15:30.116,683, 565, 449, 2, -6, 1, -2, 3, 7, 948, 922, 62,0
2025-03-17 14:15:30.169,716, 589, 369, -10, -1, -5, -1, 3, 9, 950, 932, 59,0
2025-03-17 14:15:30.223,848, 383, 491, 29, -14, -21, -2, 4, 8, 955, 935, 52,0
2025-03-17 14:15:30.273,640, 744, -45, 8, 49, 29, -3, 5, 8, 966, 921, 50,0
2025-03-17 14:15:30.328,480, 675, 633, -75, 24, 32, -2, 5, 5, 966, 943, 71,0
2025-03-17 14:15:30.385,919, 604, 240, 42, -42, -31, -1, 4, 6, 956, 938, 173,0
2025-03-17 14:15:30.443,863, 612, 148, -23, 51, -35, -2, 1, 7, 938, 900, 443,0
2025-03-17 14:15:30.723,713, 583, 383, 0, -8, 2, -4, 4, 7, 911, 785, 68,1
2025-03-17 14:15:30.773,713, 583, 359, 2, -8, 0, 0, 3, 9, 912, 785, 59,1
2025-03-17 14:15:30.824,726, 604, 359, 2, -5, 1, -2, 5, 7, 916, 800, 33,1
2025-03-17 14:15:30.873,716, 612, 364, -3, -2, -1, -2, 2, 8, 915, 814, 50,1
2025-03-17 14:15:30.924,699, 628, 364, -7, -2, -2, -2, 3, 8, 916, 831, 73,1
2025-03-17 14:15:30.985,724, 614, 359, -3, -1, -3, -2, 3, 8, 921, 836, 36,1
2025-03-17 14:15:31.036,703, 600, 383, -1, -4, -1, -1, 1, 7, 921, 845, 71,1
2025-03-17 14:15:31.085,678, 515, 291, 2, -11, -13, 0, 2, 10, 938, 881, 34,1
2025-03-17 14:15:31.136,708, 761, 264, -7, 1, 6, -1, 3, 9, 951, 932, 51,1
2025-03-17 14:15:31.193,632, 483, 382, -4, 1, 3, -1, 3, 10, 956, 940, 192,1
2025-03-17 14:15:31.244,790, 729, 277, 39, 3, 16, -3, 3, 9, 965, 938, 161,1
2025-03-17 14:15:31.301,674, 585, 171, 23, 40, 30, 1, 3, 10, 967, 937, 58,1
2025-03-17 14:15:31.353,680, 376, 411, -11, 22, -27, -2, 4, 8, 957, 912, 34,1
2025-03-17 14:15:31.403,861, 657, 454, 11, -29, 9, -1, 4, 7, 955, 902, 43,1
2025-03-17 14:15:31.463,772, 543, 307, -13, 6, 32, -1, 3, 8, 966, 944, 55,1
2025-03-17 14:15:31.517,923, 467, 158, -14, 36, -26, -1, 5, 7, 954, 932, 315,1
2025-03-17 14:15:31.791,689, 614, 362, -9, -5, 0, 0, 2, 7, 893, 801, 217,2
2025-03-17 14:15:31.845,692, 611, 380, -9, -5, 0, -1, 3, 4, 895, 803, 216,2
2025-03-17 14:15:31.893,705, 590, 410, -6, -7, 1, -2, 2, 6, 901, 816, 189,2
2025-03-17 14:15:31.946,736, 625, 350, -3, -5, 2, -1, 3, 7, 905, 813, 139,2
2025-03-17 14:15:32.003,659, 590, 412, -5, -10, -3, -2, 3, 6, 915, 821, 109,2
2025-03-17 14:15:32.053,751, 639, 340, -2, -20, 0, -1, 3, 8, 926, 870, 49,2
2025-03-17 14:15:32.103,870, 794, 523, 4, -12, 10, -1, 5, 9, 950, 923, 141,2
2025-03-17 14:15:32.163,689, 532, 470, 28, -3, 9, -1, 3, 9, 958, 928, 206,2
2025-03-17 14:15:32.218,576, 495, 352, 1, 19, 2, -1, 3, 10, 960, 876, 46,2
2025-03-17 14:15:32.269,991, 950, 151, -5, 15, 32, -1, 4, 9, 964, 927, 75,2
2025-03-17 14:15:32.318,653, 533, 450, 21, 6, 12, 1, 3, 10, 966, 940, 37,2
2025-03-17 14:15:32.373,767, 462, 167, 6, 33, -43, -1, 3, 7, 951, 903, 394,2
2025-03-17 14:15:32.645,712, 607, 373, -4, -3, 0, -1, 4, 7, 918, 854, 288,3
2025-03-17 14:15:32.701,695, 622, 381, -5, -3, 1, -2, 2, 7, 917, 858, 297,3
2025-03-17 14:15:32.754,707, 616, 348, -6, -5, 0, -2, 3, 7, 922, 866, 312,3
2025-03-17 14:15:32.803,711, 622, 372, -2, 1, 2, -1, 4, 5, 929, 869, 268,3
2025-03-17 14:15:32.853,648, 595, 436, 3, -13, 5, -2, 3, 6, 930, 880, 239,3
2025-03-17 14:15:32.903,707, 652, 283, -4, -8, -8, -1, 5, 7, 947, 911, 133,3
2025-03-17 14:15:32.963,808, 716, 391, -4, 2, 17, -1, 3, 8, 961, 935, 225,3
2025-03-17 14:15:33.016,645, 658, 525, 11, -1, 2, -3, 3, 9, 960, 931, 362,3
2025-03-17 14:15:33.069,868, 475, 200, 15, 3, -3, -2, 4, 10, 959, 924, 245,3
2025-03-17 14:15:33.123,657, 494, 443, -4, 21, 13, -2, 3, 9, 964, 932, 51,3
2025-03-17 14:15:33.172,689, 570, 398, 9, 5, 10, 0, 3, 9, 963, 927, 56,3
2025-03-17 14:15:33.229,908, 473, 206, 0, 23, -10, -1, 3, 7, 948, 867, 191,3
2025-03-17 14:15:33.533,695, 567, 424, 6, -16, 5, -1, 2, 9, 942, 907, 171,4
2025-03-17 14:15:33.585,707, 597, 413, 10, -18, 4, -1, 6, 10, 941, 906, 177,4
2025-03-17 14:15:33.643,723, 607, 338, -3, -1, -3, -1, 3, 12, 950, 919, 118,4
2025-03-17 14:15:33.700,798, 567, 462, 25, -2, -9, -2, 2, 12, 955, 906, 109,4
2025-03-17 14:15:33.753,635, 631, 275, -13, 17, 6, -1, 5, 10, 958, 874, 46,4
2025-03-17 14:15:33.803,894, 875, 394, -29, 18, 24, -2, 5, 9, 964, 931, 68,4
2025-03-17 14:15:33.853,746, 578, 321, -3, 4, 16, -1, 4, 10, 969, 945, 48,4
2025-03-17 14:15:33.917,674, 380, 436, 18, -11, -29, -2, 3, 8, 951, 923, 238,4
2025-03-17 14:15:33.969,1406, 458, 337, -6, -2, -4, -2, 4, 8, 959, 924, 364,4
2025-03-17 14:15:34.023,671, 448, 336, 11, 33, 26, -2, 4, 9, 966, 918, 296,4
2025-03-17 14:15:34.073,738, 435, 341, 9, 23, 4, 0, 4, 8, 955, 896, 356,4
2025-03-17 14:15:34.124,714, 540, 338, -32, 16, -47, -1, 2, 4, 936, 870, 454,4
2025-03-17 14:15:34.383,708, 607, 373, -10, -7, -4, -1, 4, 6, 926, 824, 117,5
2025-03-17 14:15:34.435,704, 595, 393, -11, -8, -5, -1, 3, 6, 926, 826, 74,5
2025-03-17 14:15:34.493,709, 592, 395, -7, -13, -1, -1, 3, 7, 928, 853, 78,5
2025-03-17 14:15:34.549,744, 572, 387, 4, -19, -1, -1, 4, 7, 935, 883, 45,5
2025-03-17 14:15:34.601,813, 620, 366, 23, 3, -2, -1, 3, 8, 955, 930, 75,5
2025-03-17 14:15:34.653,642, 555, 365, 0, 2, 10, -2, 2, 10, 963, 943, 40,5
2025-03-17 14:15:34.703,594, 445, 485, 17, -8, -5, -4, 4, 9, 955, 936, 312,5
2025-03-17 14:15:34.753,743, 490, 247, 41, 4, -10, -1, 2, 10, 960, 928, 357,5
2025-03-17 14:15:34.813,766, 852, 216, -21, 40, 36, -2, 2, 9, 966, 938, 60,5
2025-03-17 14:15:34.868,679, 516, 361, 4, 17, 9, -1, 3, 8, 961, 926, 32,5
2025-03-17 14:15:34.918,965, 567, 107, -13, 32, -36, 0, 4, 7, 928, 853, 419,5
2025-03-17 14:15:35.183,733, 605, 347, 2, -10, 9, -3, 2, 6, 925, 846, 234,6
2025-03-17 14:15:35.234,719, 605, 374, 4, -9, 10, -2, 2, 7, 923, 846, 275,6
2025-03-17 14:15:35.284,706, 572, 407, 7, -17, 7, -2, 2, 7, 926, 854, 268,6
2025-03-17 14:15:35.343,711, 651, 319, -6, -6, -7, -3, 2, 8, 930, 888, 233,6
2025-03-17 14:15:35.392,780, 530, 432, 17, -5, -12, -1, 2, 9, 937, 891, 216,6
2025-03-17 14:15:35.453,970, 895, -136, 28, 49, 26, -2, 2, 11, 959, 886, 48,6
2025-03-17 14:15:35.505,716, 635, 412, -54, 39, 35, -1, 4, 6, 967, 927, 37,6
2025-03-17 14:15:35.556,536, 318, 529, 43, -52, -38, -1, 2, 8, 953, 933, 57,6
2025-03-17 14:15:35.616,1093, 607, -36, 3, 26, -28, -1, 2, 9, 924, 865, 373,6
2025-03-17 14:15:35.668,507, 704, 485, -44, 56, -29, -1, 2, 2, 920, 805, 174,6
2025-03-17 14:15:35.958,699, 621, 389, -4, -5, 0, -2, 2, 5, 887, 754, 59,7
2025-03-17 14:15:36.008,709, 617, 384, -3, -4, 1, -3, 2, 7, 889, 755, 45,7
2025-03-17 14:15:36.063,696, 623, 389, -4, -3, 1, -2, 2, 5, 893, 757, 101,7
2025-03-17 14:15:36.116,669, 643, 391, -2, -12, 1, -1, 2, 7, 896, 760, 70,7
2025-03-17 14:15:36.168,704, 564, 418, -1, -29, 10, 0, 3, 8, 916, 794, 22,7
2025-03-17 14:15:36.218,859, 641, 247, 6, 4, 4, -4, 4, 7, 945, 891, 78,7
2025-03-17 14:15:36.273,721, 486, 458, 7, 6, 15, -2, 3, 9, 958, 919, 53,7
2025-03-17 14:15:36.323,647, 648, 356, 38, 13, 14, -3, 4, 9, 960, 907, 44,7
2025-03-17 14:15:36.373,956, 554, 140, 27, 12, 15, -1, 4, 8, 961, 894, 67,7
2025-03-17 14:15:36.432,619, 371, 558, -8, -7, -37, -1, 5, 9, 945, 876, 62,7
2025-03-17 14:15:36.484,890, 646, 406, -7, -38, -11, -1, 3, 8, 948, 867, 30,7
2025-03-17 14:15:36.543,898, 888, 400, -14, -3, 27, -2, 3, 11, 961, 933, 78,7
2025-03-17 14:15:36.593,651, 592, 434, 1, 12, 12, -2, 3, 10, 958, 925, 205,7
2025-03-17 14:15:36.653,619, 541, 389, -11, 31, -37, -2, 4, 5, 943, 883, 320,7
2025-03-17 14:15:36.890,703, 602, 394, -2, 1, 5, -1, 3, 7, 933, 820, 244,8
2025-03-17 14:15:36.943,695, 607, 410, -2, 0, 7, -3, 4, 6, 933, 823, 258,8
2025-03-17 14:15:36.993,730, 588, 360, 3, -4, 14, 0, 2, 8, 937, 839, 266,8
2025-03-17 14:15:37.050,726, 528, 381, -1, -16, 4, -2, 5, 6, 943, 887, 172,8
2025-03-17 14:15:37.103,596, 753, 495, -5, -10, -14, -2, 4, 7, 944, 918, 101,8
2025-03-17 14:15:37.153,859, 662, 164, 43, 7, -8, 0, 2, 11, 957, 908, 41,8
2025-03-17 14:15:37.203,653, 709, 275, -46, 40, 40, 0, 3, 9, 967, 929, 52,8
2025-03-17 14:15:37.267,589, 373, 616, -13, -14, -11, -1, 7, 5, 958, 937, 74,8
2025-03-17 14:15:37.322,960, 612, 122, -27, -31, -27, -1, 3, 7, 952, 939, 235,8
2025-03-17 14:15:37.373,605, 626, 310, 8, -3, 2, -3, 3, 9, 963, 942, 192,8
2025-03-17 14:15:37.423,709, 606, 264, 0, 22, 16, -2, 3, 7, 959, 935, 83,8
2025-03-17 14:15:37.483,805, 525, 327, -18, 26, -37, -1, 2, 8, 948, 911, 225,8
2025-03-17 14:15:37.743,703, 579, 414, 0, -12, 10, -1, 4, 8, 945, 901, 97,9
2025-03-17 14:15:37.800,729, 566, 381, 0, -14, 8, -2, 4, 8, 944, 904, 134,9
2025-03-17 14:15:37.853,710, 505, 444, -14, -6, -9, -2, 3, 8, 949, 927, 31,9
2025-03-17 14:15:37.903,687, 456, 376, 18, -10, -18, -2, 4, 9, 954, 930, 50,9
2025-03-17 14:15:37.964,1007, 682, 198, -5, 28, 19, -1, 3, 9, 965, 935, 30,9
2025-03-17 14:15:38.017,761, 638, 459, -31, 24, 19, -1, 4, 7, 966, 943, 61,9
2025-03-17 14:15:38.067,735, 544, 558, 25, -15, -15, -1, 3, 7, 962, 943, 32,9
2025-03-17 14:15:38.123,588, 740, 300, 2, 25, 30, -2, 3, 7, 963, 936, 71,9
2025-03-17 14:15:38.173,717, 443, 422, -18, 28, 22, -1, 5, 5, 963, 937, 47,9
2025-03-17 14:15:38.223,894, 406, 333, 6, 23, -58, 0, 3, 5, 940, 868, 81,9
2025-03-17 14:15:38.283,548, 608, 636, -17, 28, -27, 0, 3, 1, 905, 817, 284,9
2025-03-17 14:15:39.053,688, 596, 410, -1, -6, 2, -2, 2, 3, 894, 793, 60,+
2025-03-17 14:15:39.103,682, 602, 402, 0, -6, 3, -1, 2, 5, 895, 795, 44,+
2025-03-17 14:15:39.153,710, 594, 401, 1, -8, 5, -1, 4, 3, 907, 821, 72,+
2025-03-17 14:15:39.202,708, 594, 397, -1, -6, 4, -2, 2, 5, 917, 841, 151,+
2025-03-17 14:15:39.263,713, 586, 384, 0, -6, 3, -1, 4, 5, 928, 860, 125,+
2025-03-17 14:15:39.306,723, 585, 378, 0, -6, 3, -2, 2, 8, 932, 875, 167,+
2025-03-17 14:15:39.366,734, 594, 356, -5, -3, -2, -1, 5, 6, 931, 885, 178,+
2025-03-17 14:15:39.423,672, 578, 459, -9, -19, -1, -2, 5, 7, 936, 897, 147,+
2025-03-17 14:15:39.473,776, 509, 305, -2, -5, -6, -1, 3, 9, 944, 922, 132,+
2025-03-17 14:15:39.523,727, 611, 432, 19, 0, 2, -1, 3, 9, 958, 927, 142,+
2025-03-17 14:15:39.581,479, 452, 482, 38, 35, 32, -2, 5, 7, 961, 909, 48,+
2025-03-17 14:15:39.631,711, 608, 327, -16, 18, 5, 1, 2, 8, 957, 881, 52,+
2025-03-17 14:15:39.682,562, 707, 470, 2, -30, -38, 0, 2, 8, 935, 796, 134,+
2025-03-17 14:15:39.742,886, 747, 193, 2, -12, 16, -1, 1, 8, 960, 926, 72,+
2025-03-17 14:15:39.793,780, 652, 428, 3, 14, 25, -2, 5, 8, 963, 929, 213,+
2025-03-17 14:15:39.848,710, 557, 235, -11, 35, -42, -2, 3, 7, 942, 876, 377,+
2025-03-17 14:15:40.113,706, 613, 382, -5, 1, 0, -2, 2, 6, 905, 758, 161,-
2025-03-17 14:15:40.164,691, 616, 384, -4, 1, 0, -1, 2, 6, 906, 760, 150,-
2025-03-17 14:15:40.216,725, 616, 349, -2, -1, 1, -1, 3, 6, 908, 764, 126,-
2025-03-17 14:15:40.267,715, 607, 381, -3, 0, -1, 0, 2, 7, 907, 762, 129,-
2025-03-17 14:15:40.323,700, 614, 388, -2, -3, -4, -2, 3, 7, 908, 743, 120,-
2025-03-17 14:15:40.373,675, 558, 462, 7, -20, -1, 0, 1, 8, 920, 753, 44,-
2025-03-17 14:15:40.423,920, 787, 303, 9, 0, 13, -1, 3, 10, 960, 911, 24,-
2025-03-17 14:15:40.473,805, 408, 448, 0, 6, 23, -2, 5, 9, 964, 939, 93,-
2025-03-17 14:15:40.523,728, 528, 343, 32, 1, 0, -2, 3, 8, 955, 920, 65,-
2025-03-17 14:15:40.583,762, 559, 316, 0, 36, -48, -2, 4, 7, 920, 833, 307,-
2025-03-17 14:15:40.886,702, 617, 371, -3, -4, 2, -2, 2, 6, 885, 649, 110,÷
2025-03-17 14:15:40.943,713, 630, 370, -3, -4, 2, -2, 2, 6, 885, 650, 126,÷
2025-03-17 14:15:40.993,711, 609, 375, -6, -4, 1, -2, 4, 6, 894, 718, 117,÷
2025-03-17 14:15:41.049,718, 609, 359, -1, -2, 0, -1, 2, 7, 898, 750, 153,÷
2025-03-17 14:15:41.101,718, 594, 379, -4, -2, -1, -4, 3, 6, 905, 766, 160,÷
2025-03-17 14:15:41.153,717, 603, 362, -4, -1, -1, -2, 2, 7, 911, 794, 150,÷
2025-03-17 14:15:41.203,711, 604, 384, -3, -3, 0, -2, 2, 8, 917, 807, 143,÷
2025-03-17 14:15:41.255,718, 597, 358, -6, 1, -1, -1, 4, 7, 922, 823, 162,÷
2025-03-17 14:15:41.314,714, 584, 373, -2, -2, -1, -1, 3, 7, 924, 835, 151,÷
2025-03-17 14:15:41.367,730, 595, 372, -3, -1, -1, -1, 2, 7, 929, 846, 140,÷
2025-03-17 14:15:41.423,734, 600, 360, -3, 1, -2, -1, 4, 7, 931, 848, 151,÷
2025-03-17 14:15:41.478,711, 600, 370, -8, 3, -7, -2, 5, 6, 931, 853, 143,÷
2025-03-17 14:15:41.522,743, 623, 335, -7, 4, -4, -2, 3, 7, 930, 859, 139,÷
2025-03-17 14:15:41.581,660, 594, 456, -1, 0, -1, -1, 3, 4, 935, 856, 80,÷
2025-03-17 14:15:41.632,726, 600, 367, -4, -3, 2, -1, 4, 5, 934, 871, 131,÷
2025-03-17 14:15:41.683,694, 605, 376, -2, 2, 4, -1, 3, 7, 937, 885, 125,÷
2025-03-17 14:15:41.733,838, 442, 617, -54, -21, -13, 0, 5, 6, 960, 921, 31,÷
2025-03-17 14:15:41.793,801, 465, 270, 1, 10, 9, -2, 3, 8, 959, 930, 60,÷
2025-03-17 14:15:41.847,945, 544, 131, 6, 55, -12, -3, 3, 7, 948, 839, 102,÷
2025-03-17 14:15:41.900,345, 908, 700, 35, -36, 46, -3, 3, 5, 952, 822, 44,÷
2025-03-17 14:15:41.953,761, 384, -137, -17, 19, 14, 0, 2, 10, 959, 914, 29,÷
2025-03-17 14:15:42.003,768, 492, 320, -7, 5, -48, -1, 2, 8, 943, 845, 108,÷
2025-03-17 14:15:42.060,724, 808, 511, 14, -36, 9, 1, 1, 9, 937, 761, 27,÷
2025-03-17 14:15:42.114,733, 532, 171, -22, -3, 18, 0, 3, 8, 963, 933, 66,÷
2025-03-17 14:15:42.163,690, 473, 379, 3, 7, 15, 1, 4, 8, 965, 939, 48,÷
2025-03-17 14:15:42.216,881, 410, 255, 13, 26, -13, -2, 3, 7, 949, 898, 281,÷
2025-03-17 14:15:42.273,616, 623, 539, -3, 24, -31, -1, 2, 5, 917, 801, 299,÷
2025-03-17 14:15:42.543,724, 598, 379, -1, -8, 3, -2, 3, 5, 905, 747, 189,=
2025-03-17 14:15:42.597,723, 596, 360, -2, -7, 2, -2, 3, 5, 904, 748, 186,=
2025-03-17 14:15:42.650,734, 608, 366, -6, 0, -1, -1, 3, 6, 906, 762, 163,=
2025-03-17 14:15:42.703,712, 602, 375, -7, 0, -1, -1, 4, 6, 905, 788, 183,=
2025-03-17 14:15:42.752,712, 599, 384, -7, 0, 0, -2, 3, 7, 905, 792, 157,=
2025-03-17 14:15:42.803,724, 587, 388, -4, -2, 0, -1, 2, 6, 907, 803, 154,=
2025-03-17 14:15:42.863,719, 574, 389, -5, -2, -2, -3, 4, 5, 908, 814, 142,=
2025-03-17 14:15:42.916,708, 578, 385, -7, -2, -3, -3, 5, 6, 912, 820, 75,=
2025-03-17 14:15:42.966,723, 586, 379, -6, -2, -1, -1, 3, 5, 911, 815, 68,=
2025-03-17 14:15:43.016,712, 609, 396, 1, -2, -1, -2, 4, 5, 912, 786, 34,=
2025-03-17 14:15:43.066,738, 589, 389, -4, 0, 0, -2, 5, 5, 910, 790, 62,=
2025-03-17 14:15:43.116,711, 586, 408, -2, 0, -1, 1, 3, 6, 914, 805, 44,=
2025-03-17 14:15:43.173,757, 613, 338, 0, -3, -1, -1, 4, 6, 915, 803, 43,=
2025-03-17 14:15:43.223,686, 587, 432, -3, 0, -1, -3, 4, 7, 919, 822, 36,=
2025-03-17 14:15:43.275,712, 536, 402, 11, -1, 0, -3, 6, 6, 918, 818, 67,=
2025-03-17 14:15:43.323,724, 609, 360, 1, 4, -4, 0, 4, 8, 918, 813, 53,=
2025-03-17 14:15:43.375,647, 581, 414, 1, -5, -5, -2, 5, 7, 921, 831, 73,=
2025-03-17 14:15:43.423,741, 600, 354, 1, -2, 0, -1, 3, 7, 926, 847, 50,=
2025-03-17 14:15:43.481,727, 612, 337, -3, 1, 1, -1, 3, 8, 927, 851, 42,=
2025-03-17 14:15:43.531,683, 591, 429, 0, -6, 1, -1, 5, 6, 927, 869, 67,=
2025-03-17 14:15:43.583,735, 669, 321, -2, -13, -11, -1, 1, 9, 935, 893, 58,=
2025-03-17 14:15:43.632,809, 861, 342, 5, -3, 14, -1, 4, 9, 958, 933, 68,=
2025-03-17 14:15:43.688,833, 558, 318, 15, -1, 19, -3, 4, 9, 961, 942, 73,=
2025-03-17 14:15:43.743,742, 619, 372, 20, 2, 6, -2, 4, 8, 961, 932, 325,=
2025-03-17 14:15:43.797,675, 588, 329, 20, 35, -29, -1, 2, 7, 935, 879, 362,=
2025-03-17 14:15:43.853,892, 566, 403, 12, -7, -19, 0, 2, 8, 944, 868, 184,=
2025-03-17 14:15:43.903,826, 537, 350, -56, 11, 51, 0, 1, 8, 964, 943, 64,=
2025-03-17 14:15:43.956,679, 563, 302, 3, 0, 12, -2, 4, 8, 966, 944, 97,=
2025-03-17 14:15:44.003,787, 404, 238, 13, 14, -34, -2, 2, 8, 949, 900, 226,=
2025-03-17 14:15:44.065,676, 634, 476, -12, 20, -21, 0, 2, 6, 919, 808, 236,=
2025-03-17 14:15:44.313,735, 574, 362, 0, -3, -1, 0, 1, 8, 896, 721, 118,≠
2025-03-17 14:15:44.373,729, 593, 370, 2, -3, -1, -1, 5, 5, 894, 723, 120,≠
2025-03-17 14:15:44.423,713, 608, 375, -1, -2, -2, -1, 2, 7, 895, 743, 137,≠
2025-03-17 14:15:44.480,719, 614, 359, 0, -5, -2, -2, 2, 8, 896, 733, 98,≠
2025-03-17 14:15:44.533,723, 618, 362, -6, 1, -5, -1, 3, 7, 896, 726, 108,≠
2025-03-17 14:15:44.582,696, 626, 354, -5, -3, -4, -1, 2, 5, 901, 728, 64,≠
2025-03-17 14:15:44.641,661, 544, 432, 6, -16, -2, -2, 2, 7, 912, 778, 38,≠
2025-03-17 14:15:44.683,844, 558, 384, 42, -10, -5, 0, 1, 9, 952, 913, 76,≠
2025-03-17 14:15:44.743,767, 449, 375, -17, 6, 27, -1, 3, 7, 968, 940, 54,≠
2025-03-17 14:15:44.796,685, 524, 538, 20, -2, 1, -3, 4, 9, 954, 910, 237,≠
2025-03-17 14:15:44.853,631, 561, 436, 12, 11, -30, -1, 1, 9, 936, 761, 162,≠
2025-03-17 14:15:44.903,881, 715, 272, 1, 1, 9, -1, 1, 10, 955, 906, 202,≠
2025-03-17 14:15:44.953,778, 719, 258, -9, 17, 32, -3, 3, 8, 964, 936, 53,≠
2025-03-17 14:15:45.013,844, 425, 247, -2, 11, -35, -2, 5, 7, 949, 920, 325,≠
2025-03-17 14:15:45.065,562, 767, 621, 6, -41, 8, -2, 3, 6, 938, 894, 476,≠
2025-03-17 14:15:45.115,707, 417, 216, 4, -12, -3, -2, 1, 9, 959, 919, 437,≠
2025-03-17 14:15:45.173,1487, 578, 48, 29, 47, 24, -1, 2, 10, 965, 913, 287,≠
2025-03-17 14:15:45.230,898, 584, 217, -13, 31, -10, 0, 2, 10, 945, 880, 404,≠
2025-03-17 14:15:45.283,576, 705, 517, -54, 41, -31, -1, 2, 4, 929, 864, 371,≠
2025-03-17 14:15:45.333,501, 598, 623, 1, -11, 10, -2, 4, -1, 917, 799, 232,≠
2025-03-17 14:15:45.393,766, 594, 321, 5, -16, 8, -1, 2, 1, 905, 748, 194,≠
2025-03-17 14:15:45.447,711, 598, 397, -4, 2, -3, -2, 1, 5, 907, 733, 52,≠
2025-03-17 14:15:45.499,699, 622, 405, -2, -2, -1, -2, 2, 6, 895, 682, 49,≠
2025-03-17 14:15:45.793,709, 606, 398, 1, -7, -8, 0, 1, 4, 840, 573, 65,≈
2025-03-17 14:15:45.848,704, 619, 404, 1, -8, -8, -2, 2, 3, 828, 566, 55,≈
2025-03-17 14:15:45.903,693, 616, 399, 10, -5, -7, -1, 3, 7, 792, 544, 69,≈
2025-03-17 14:15:45.952,721, 654, 336, 8, -7, -13, -1, 1, 5, 793, 544, 160,≈
2025-03-17 14:15:46.013,682, 638, 423, 12, -10, -15, -3, 0, 5, 809, 598, 185,≈
2025-03-17 14:15:46.065,627, 676, 427, 16, -15, -4, -3, -1, 9, 819, 634, 206,≈
2025-03-17 14:15:46.123,670, 699, 264, 21, -23, 9, -2, 0, 11, 840, 661, 238,≈
2025-03-17 14:15:46.180,691, 687, 207, 7, -9, 9, -4, -1, 12, 851, 681, 242,≈
2025-03-17 14:15:46.233,685, 583, 278, -9, 4, 12, -1, 0, 13, 851, 686, 188,≈
2025-03-17 14:15:46.283,723, 627, 249, -16, 11, 7, -1, 0, 13, 851, 704, 155,≈
2025-03-17 14:15:46.343,776, 699, 333, -16, 19, -6, -1, 1, 12, 870, 713, 117,≈
2025-03-17 14:15:46.397,644, 687, 443, -3, 2, 5, -2, 2, 8, 881, 716, 139,≈
2025-03-17 14:15:46.447,695, 621, 314, 4, -1, 3, -1, 3, 10, 892, 726, 129,≈
2025-03-17 14:15:46.500,738, 618, 283, -2, 3, -1, 1, 1, 11, 895, 736, 142,≈
2025-03-17 14:15:46.553,674, 640, 380, -1, 0, 0, -2, 2, 9, 902, 760, 137,≈
2025-03-17 14:15:46.603,693, 616, 319, 1, 3, 0, -1, 1, 9, 906, 766, 127,≈
2025-03-17 14:15:46.653,660, 639, 347, -14, 4, -6, 0, 2, 8, 904, 774, 121,≈
2025-03-17 14:15:46.703,703, 626, 353, -2, -6, -3, 0, 1, 8, 907, 773, 94,≈
2025-03-17 14:15:46.765,866, 557, 396, -6, -12, -11, 1, 0, 10, 928, 878, 64,≈
2025-03-17 14:15:46.815,897, 663, 200, -14, -8, 20, -3, 2, 10, 951, 926, 161,≈
2025-03-17 14:15:46.873,635, 708, 430, 3, 1, 8, -2, 3, 8, 956, 931, 132,≈
2025-03-17 14:15:46.920,740, 616, 266, 11, 6, 8, 0, 2, 10, 953, 921, 74,≈
2025-03-17 14:15:46.979,589, 638, 379, 17, 36, -21, -2, 3, 9, 940, 852, 220,≈
2025-03-17 14:15:47.032,799, 590, 318, 13, -23, 1, 0, 2, 9, 932, 808, 190,≈
2025-03-17 14:15:47.085,868, 582, 432, -17, -6, 0, 0, 1, 11, 955, 928, 106,≈
2025-03-17 14:15:47.132,776, 754, 226, -11, 7, 26, -2, 3, 9, 966, 936, 63,≈
2025-03-17 14:15:47.190,743, 656, 136, 2, 13, 14, -1, 3, 10, 960, 937, 29,≈
2025-03-17 14:15:47.246,932, 495, 83, -33, 63, -48, 1, 2, 7, 936, 894, 392,≈
2025-03-17 14:15:47.303,604, 550, 593, -64, 88, -64, -2, 3, -2, 897, 823, 322,≈
2025-03-17 14:15:47.613,472, 582, 493, 35, -14, 49, -3, -1, -4, 779, 683, 220,<
2025-03-17 14:15:47.671,510, 565, 477, 40, -21, 47, -2, -4, -5, 776, 676, 220,<
2025-03-17 14:15:47.728,684, 667, 420, 35, -26, 30, -2, -1, -2, 740, 616, 241,<
2025-03-17 14:15:47.782,806, 670, 327, 21, -8, 6, 0, -2, 1, 751, 608, 300,<
2025-03-17 14:15:47.833,632, 646, 417, -2, -1, -4, -1, 0, -2, 774, 622, 247,<
2025-03-17 14:15:47.893,663, 687, 474, 12, -19, 11, 0, 0, -1, 805, 670, 277,<
2025-03-17 14:15:47.941,679, 659, 323, -1, -15, 1, 1, 0, 3, 846, 732, 252,<
2025-03-17 14:15:47.998,672, 652, 377, -4, -16, 3, -1, 0, 4, 881, 788, 223,<
2025-03-17 14:15:48.050,711, 639, 309, -9, -7, -4, 1, 1, 4, 896, 823, 205,<
2025-03-17 14:15:48.098,688, 652, 390, -14, -1, 3, 1, 1, 5, 910, 843, 53,<
2025-03-17 14:15:48.153,728, 633, 369, -1, -5, 9, -1, 2, 4, 923, 879, 163,<
2025-03-17 14:15:48.203,668, 669, 384, -11, -8, 2, 1, 1, 7, 928, 881, 209,<
2025-03-17 14:15:48.253,684, 634, 391, -4, -10, 8, 0, 1, 6, 933, 891, 242,<
2025-03-17 14:15:48.315,684, 628, 391, -6, -23, 11, -2, 2, 8, 940, 901, 251,<
2025-03-17 14:15:48.365,750, 589, 380, 0, -27, 8, -1, 3, 7, 951, 924, 189,<
2025-03-17 14:15:48.423,691, 556, 437, -1, -9, -6, -1, 2, 12, 954, 931, 74,<
2025-03-17 14:15:48.473,901, 764, 156, 27, 10, -1, -1, 2, 13, 957, 904, 73,<
2025-03-17 14:15:48.531,780, 683, 276, -23, 23, 23, -1, 3, 12, 967, 933, 56,<
2025-03-17 14:15:48.582,641, 680, 465, -2, 3, 15, 1, 5, 10, 968, 948, 84,<
2025-03-17 14:15:48.632,826, 341, 233, 19, 17, -33, -1, 5, 9, 951, 916, 302,<
2025-03-17 14:15:48.695,600, 675, 547, -18, 24, -31, -1, 3, 7, 913, 820, 240,<
2025-03-17 14:15:48.937,717, 620, 360, -6, -12, -5, -2, 3, 6, 913, 822, 171,≤
2025-03-17 14:15:48.997,691, 616, 346, -4, -11, -4, -1, 2, 8, 913, 826, 173,≤
2025-03-17 14:15:49.048,696, 647, 362, 1, -9, 5, -2, 2, 9, 919, 835, 161,≤
2025-03-17 14:15:49.099,723, 640, 296, -3, -4, -1, -2, 2, 9, 923, 852, 176,≤
2025-03-17 14:15:49.153,705, 623, 358, -1, -3, 3, -2, 2, 9, 926, 862, 183,≤
2025-03-17 14:15:49.203,710, 637, 340, -2, -5, 5, -1, 3, 10, 931, 882, 229,≤
2025-03-17 14:15:49.265,698, 584, 410, 2, -17, 5, -1, 1, 11, 940, 905, 258,≤
2025-03-17 14:15:49.315,704, 647, 331, -7, -5, -3, -1, 1, 12, 952, 923, 135,≤
2025-03-17 14:15:49.366,845, 794, 286, 37, 23, 1, -2, 3, 12, 953, 884, 72,≤
2025-03-17 14:15:49.423,815, 530, 21, -4, 20, 7, -1, 2, 11, 963, 908, 59,≤
2025-03-17 14:15:49.473,702, 521, 535, -8, 6, 18, -1, 3, 12, 965, 942, 97,≤
2025-03-17 14:15:49.531,745, 520, 283, 47, 15, -8, -1, 3, 10, 958, 905, 38,≤
2025-03-17 14:15:49.583,663, 708, 395, 23, -2, -3, 0, 2, 10, 948, 831, 84,≤
2025-03-17 14:15:49.633,735, 619, 59, -18, 11, 13, -1, 3, 9, 965, 937, 56,≤
2025-03-17 14:15:49.689,803, 564, 383, 3, 17, 21, -1, 4, 9, 965, 938, 63,≤
2025-03-17 14:15:49.743,716, 512, 284, 4, 37, -39, 1, 2, 10, 940, 885, 257,≤
2025-03-17 14:15:50.013,684, 607, 389, -2, -3, 3, -2, 1, 7, 903, 796, 210,>
2025-03-17 14:15:50.065,694, 627, 378, 0, -4, 3, -1, 0, 7, 906, 801, 214,>
2025-03-17 14:15:50.115,708, 634, 371, -1, -6, 2, -1, 2, 8, 909, 829, 222,>
2025-03-17 14:15:50.173,707, 631, 322, 3, -7, 1, -2, 3, 9, 920, 844, 207,>
2025-03-17 14:15:50.223,706, 629, 334, -4, -8, 0, -3, 3, 7, 926, 860, 221,>
2025-03-17 14:15:50.281,675, 621, 375, -5, -11, 2, -2, 2, 9, 929, 880, 195,>
2025-03-17 14:15:50.337,879, 316, 275, -28, -21, -17, -1, 3, 12, 951, 904, 35,>
2025-03-17 14:15:50.395,814, 824, 151, -3, -1, 30, -3, 2, 10, 966, 940, 130,>
2025-03-17 14:15:50.448,645, 621, 563, 9, -12, 3, -3, 3, 11, 969, 942, 219,>
2025-03-17 14:15:50.498,895, 766, -93, 20, 22, -7, -1, 2, 13, 972, 932, 42,>
2025-03-17 14:15:50.553,931, 474, 259, -16, 37, -14, -2, 2, 11, 956, 882, 136,>
2025-03-17 14:15:50.614,577, 629, 530, -29, 33, -18, -2, 2, 6, 932, 866, 308,>
2025-03-17 14:15:50.893,688, 651, 378, -5, -7, 5, -1, 3, 7, 927, 855, 186,≥
2025-03-17 14:15:50.948,700, 625, 376, -5, -7, 6, -1, 2, 7, 930, 858, 184,≥
2025-03-17 14:15:50.998,673, 616, 387, 0, -12, 3, -1, 2, 6, 932, 873, 174,≥
2025-03-17 14:15:51.053,754, 572, 361, -1, -28, 9, -2, 3, 8, 942, 895, 127,≥
2025-03-17 14:15:51.103,878, 630, 411, 22, -3, 0, -2, 4, 10, 963, 935, 97,≥
2025-03-17 14:15:51.153,624, 428, 502, 6, 8, 9, -2, 3, 10, 967, 944, 357,≥
2025-03-17 14:15:51.204,656, 563, 308, 30, 4, 2, -3, 3, 9, 966, 938, 295,≥
2025-03-17 14:15:51.264,935, 670, 242, 12, 31, 10, -2, 2, 10, 963, 918, 270,≥
2025-03-17 14:15:51.314,424, 688, 566, 2, 28, -20, 1, 2, 8, 956, 885, 252,≥
2025-03-17 14:15:51.378,1733, 209, -46, 35, -29, -18, -2, 3, 9, 964, 917, 370,≥
2025-03-17 14:15:51.430,800, 706, 341, -18, 14, 33, 0, 3, 11, 971, 943, 163,≥
2025-03-17 14:15:51.483,850, 550, 209, -2, 36, -26, -2, 2, 8, 958, 910, 391,≥
2025-03-17 14:15:51.773,706, 609, 372, -6, -12, -23, -3, 2, 5, 907, 747, 178,±
2025-03-17 14:15:51.835,690, 614, 405, -2, -14, -23, 0, 0, 7, 905, 737, 173,±
2025-03-17 14:15:51.885,679, 629, 359, 0, -10, -14, -2, 3, 5, 903, 657, 130,±
2025-03-17 14:15:51.943,593, 704, 366, 5, -2, 3, -2, 1, 7, 902, 668, 137,±
2025-03-17 14:15:51.993,683, 678, 338, 8, 0, 16, -2, 1, 8, 909, 692, 145,±
2025-03-17 14:15:52.046,692, 661, 343, -1, 1, 10, -3, 1, 8, 916, 770, 158,±
2025-03-17 14:15:52.099,704, 643, 344, -4, 0, 7, -2, 1, 9, 922, 820, 158,±
2025-03-17 14:15:52.153,673, 649, 365, -1, -1, 5, -2, 3, 9, 924, 840, 142,±
2025-03-17 14:15:52.203,713, 644, 314, -3, -5, 9, -1, 3, 8, 928, 852, 116,±
2025-03-17 14:15:52.254,712, 646, 332, -4, -2, 4, 0, 2, 10, 932, 865, 122,±
2025-03-17 14:15:52.303,699, 614, 326, -6, 1, 0, -2, 1, 8, 938, 876, 66,±
2025-03-17 14:15:52.362,696, 617, 374, -2, -2, 0, -2, 2, 8, 936, 877, 98,±
2025-03-17 14:15:52.415,750, 618, 309, -6, -2, 0, -1, 2, 9, 937, 881, 112,±
2025-03-17 14:15:52.463,658, 636, 403, 1, 3, -2, -2, 2, 8, 936, 878, 42,±
2025-03-17 14:15:52.515,717, 618, 306, -1, -3, -4, -1, 2, 7, 935, 871, 74,±
2025-03-17 14:15:52.564,666, 635, 393, -3, 0, -2, -1, 3, 9, 938, 876, 60,±
2025-03-17 14:15:52.623,749, 606, 423, 11, -24, 6, -1, 0, 9, 943, 883, 39,±
2025-03-17 14:15:52.673,888, 1017, 236, -26, 11, 32, 1, 1, 11, 962, 931, 47,±
2025-03-17 14:15:52.733,609, 520, 276, -14, 28, 28, -1, 2, 8, 965, 935, 83,±
2025-03-17 14:15:52.783,427, 672, 713, -8, -5, -18, -1, 5, 4, 955, 911, 431,±
2025-03-17 14:15:52.840,716, 1178, 273, 7, -12, 9, -2, 3, 6, 962, 921, 376,±
2025-03-17 14:15:52.893,745, 498, 352, 5, 46, 43, 1, 3, 8, 962, 904, 313,±
2025-03-17 14:15:52.946,568, 642, 336, 11, 29, -31, -1, 3, 6, 954, 823, 287,±
2025-03-17 14:15:53.003,1119, -31, 146, 6, -12, -10, 1, 1, 7, 958, 903, 85,±
2025-03-17 14:15:53.053,608, 538, 377, -13, 12, 38, -1, 1, 8, 971, 945, 43,±
2025-03-17 14:15:53.103,758, 597, 270, 6, 36, -34, -2, 6, 4, 953, 908, 271,±
2025-03-17 14:15:53.438,731, 589, 377, -3, -8, 3, -2, 3, 6, 919, 847, 205,∓
2025-03-17 14:15:53.491,754, 599, 362, -4, -8, 2, -1, 3, 6, 919, 850, 218,∓
2025-03-17 14:15:53.545,726, 604, 391, -8, -8, 8, -2, 2, 4, 929, 866, 203,∓
2025-03-17 14:15:53.595,706, 579, 382, 2, -8, 5, -2, 2, 8, 930, 867, 323,∓
2025-03-17 14:15:53.648,730, 591, 349, -5, -6, 4, -3, 3, 7, 935, 869, 309,∓
2025-03-17 14:15:53.703,722, 567, 412, -5, -7, -1, -4, 5, 5, 941, 882, 285,∓
2025-03-17 14:15:53.753,729, 594, 344, -29, -19, -1, -2, 2, 10, 947, 895, 68,∓
2025-03-17 14:15:53.812,866, 527, 404, -22, -5, 1, -2, 5, 10, 965, 940, 71,∓
2025-03-17 14:15:53.865,635, 565, 318, 5, -7, 26, -5, 6, 9, 970, 950, 194,∓
2025-03-17 14:15:53.916,719, 575, 384, 32, 7, 1, -5, 5, 10, 961, 929, 86,∓
2025-03-17 14:15:53.975,736, 614, 351, 24, 31, -36, -5, 5, 9, 949, 904, 322,∓
2025-03-17 14:15:54.023,648, 645, 447, 5, 0, -3, -3, 3, 8, 948, 889, 256,∓
2025-03-17 14:15:54.078,823, 895, 271, -16, -14, 1, -2, 1, 9, 958, 920, 57,∓
2025-03-17 14:15:54.131,635, 432, 333, -8, -1, 26, -4, 2, 9, 970, 944, 84,∓
2025-03-17 14:15:54.183,700, 556, 401, 21, 4, 2, -4, 5, 9, 961, 925, 232,∓
2025-03-17 14:15:54.241,594, 615, 418, -16, -7, -35, -4, 2, 9, 955, 906, 313,∓
2025-03-17 14:15:54.294,841, 507, 225, -8, -10, 10, -3, 4, 11, 965, 929, 181,∓
2025-03-17 14:15:54.348,811, 651, 125, -7, 46, 36, -1, 7, 10, 969, 928, 59,∓
2025-03-17 14:15:54.403,774, 605, 282, -31, 50, -56, -2, 3, 7, 958, 897, 286,∓
2025-03-17 14:15:54.665,702, 580, 410, 1, -4, 2, -2, 3, 5, 885, 500, 122,∞
2025-03-17 14:15:54.713,708, 573, 395, 2, -4, 0, -2, 3, 4, 885, 499, 132,∞
2025-03-17 14:15:54.773,706, 615, 394, -2, 0, -2, -1, 3, 5, 876, 516, 163,∞
2025-03-17 14:15:54.828,700, 616, 395, -4, 0, -3, -2, 3, 5, 869, 524, 161,∞
2025-03-17 14:15:54.883,703, 641, 364, -5, -1, -3, -2, 3, 4, 863, 522, 151,∞
2025-03-17 14:15:54.938,680, 612, 413, -8, -2, -7, -2, 3, 4, 859, 527, 155,∞
2025-03-17 14:15:54.989,691, 636, 381, -5, -4, -1, -3, 4, 4, 869, 581, 139,∞
2025-03-17 14:15:55.045,679, 623, 427, -3, -8, 1, -2, 2, 5, 884, 684, 139,∞
2025-03-17 14:15:55.095,676, 615, 376, 2, -14, 7, -1, 2, 5, 907, 756, 119,∞
2025-03-17 14:15:55.145,723, 592, 332, 4, -10, 4, -2, 3, 6, 916, 808, 139,∞
2025-03-17 14:15:55.198,720, 608, 364, 2, 1, -1, -1, 3, 5, 921, 826, 166,∞
2025-03-17 14:15:55.253,731, 607, 373, 4, -6, 1, -3, 3, 9, 924, 842, 175,∞
2025-03-17 14:15:55.306,710, 604, 355, 1, 6, -4, -2, 3, 7, 929, 842, 138,∞
2025-03-17 14:15:55.358,756, 621, 342, 3, -6, -3, -2, 3, 7, 930, 844, 154,∞
2025-03-17 14:15:55.408,725, 613, 388, 2, 0, 5, -2, 3, 7, 928, 872, 187,∞
2025-03-17 14:15:55.461,721, 607, 283, 2, -3, 2, -1, 3, 8, 935, 889, 283,∞
2025-03-17 14:15:55.513,751, 666, 387, 8, -5, 9, -2, 1, 10, 938, 889, 394,∞
2025-03-17 14:15:55.563,646, 604, 357, 4, -10, 7, -3, 3, 7, 944, 897, 417,∞
2025-03-17 14:15:55.623,1655, 291, 312, 26, -18, -11, -3, 3, 8, 954, 908, 365,∞
2025-03-17 14:15:55.678,242, 847, 141, -8, 37, 10, -3, 3, 10, 966, 912, 37,∞
2025-03-17 14:15:55.730,955, 585, 140, -30, 16, -13, 0, 3, 12, 952, 904, 59,∞
2025-03-17 14:15:55.783,889, 413, 416, -25, -18, 9, -1, 3, 9, 965, 932, 50,∞
2025-03-17 14:15:55.843,562, 774, 199, -6, -2, 16, -3, 5, 10, 968, 942, 45,∞
2025-03-17 14:15:55.895,573, 503, 590, -10, -15, -11, -2, 6, 9, 963, 938, 51,∞
2025-03-17 14:15:55.953,731, 597, 268, 18, -7, -8, -4, 5, 12, 964, 935, 55,∞
2025-03-17 14:15:56.002,571, 473, 300, 7, 33, 2, -3, 4, 9, 963, 927, 72,∞
2025-03-17 14:15:56.053,1084, 474, 192, -19, 31, -31, 0, 3, 11, 949, 893, 296,∞
2025-03-17 14:15:56.113,554, 588, 590, -53, 69, -43, -2, 2, 4, 934, 875, 356,∞
2025-03-17 14:15:56.163,432, 578, 750, -1, 4, -10, -1, 2, -1, 917, 814, 243,∞
2025-03-17 14:15:56.227,655, 625, 425, 15, -20, 7, -3, 2, -2, 898, 693, 179,∞
2025-03-17 14:15:56.280,726, 594, 274, 6, -4, -10, -3, 2, 2, 876, 571, 190,∞
2025-03-17 14:15:56.579,459, 664, 505, 54, -63, 60, -4, 0, 1, 839, 538, 189,∑
2025-03-17 14:15:56.633,456, 631, 464, 62, -70, 64, -4, -1, 4, 836, 530, 205,∑
2025-03-17 14:15:56.689,759, 518, 148, 27, -21, 42, -2, -1, 9, 827, 452, 204,∑
2025-03-17 14:15:56.746,782, 678, 308, 5, 11, 10, -1, -1, 10, 826, 346, 139,∑
2025-03-17 14:15:56.796,740, 660, 304, 3, 2, 1, -3, 1, 6, 852, 516, 214,∑
2025-03-17 14:15:56.846,730, 640, 326, -4, 1, 2, -2, 0, 8, 879, 608, 233,∑
2025-03-17 14:15:56.903,690, 633, 365, -11, -3, 1, -1, 1, 8, 901, 715, 225,∑
2025-03-17 14:15:56.953,729, 644, 286, -7, -8, -4, -2, 0, 9, 913, 795, 193,∑
2025-03-17 14:15:57.010,701, 625, 324, -5, 2, -1, -1, 0, 8, 925, 837, 218,∑
2025-03-17 14:15:57.063,673, 633, 369, -8, -2, -3, -1, 2, 8, 926, 853, 228,∑
2025-03-17 14:15:57.113,720, 636, 286, -6, -5, -7, -2, 3, 8, 927, 864, 214,∑
2025-03-17 14:15:57.173,598, 641, 432, -8, -9, -2, -1, -1, 9, 922, 863, 50,∑
2025-03-17 14:15:57.227,770, 686, 126, -10, -14, -8, 1, 1, 11, 949, 913, 66,∑
2025-03-17 14:15:57.283,697, 585, 201, -28, 18, 48, -3, 3, 10, 967, 944, 46,∑
2025-03-17 14:15:57.337,630, 490, 524, 13, 2, 6, -3, 3, 10, 959, 931, 117,∑
2025-03-17 14:15:57.388,541, 573, 372, 16, 7, -32, -1, 3, 8, 945, 892, 275,∑
2025-03-17 14:15:57.443,847, 784, 347, 12, -8, -9, -1, 3, 7, 951, 909, 146,∑
2025-03-17 14:15:57.496,727, 397, 281, 0, 18, 19, -1, 3, 11, 968, 938, 99,∑
2025-03-17 14:15:57.549,567, 560, 470, 18, 13, 12, -1, 3, 9, 959, 923, 60,∑
2025-03-17 14:15:57.604,970, 560, 382, -12, -3, -23, -1, 3, 6, 953, 777, 51,∑
2025-03-17 14:15:57.653,788, 814, 335, -57, 12, 43, -1, 3, 7, 964, 934, 50,∑
2025-03-17 14:15:57.710,674, 606, 373, 4, 10, 12, -1, 3, 8, 966, 933, 38,∑
2025-03-17 14:15:58.013,699, 615, 357, -10, -1, -4, -2, 3, 5, 912, 737, 137,∏
2025-03-17 14:15:58.063,694, 614, 355, -9, -1, -4, -1, 2, 7, 912, 738, 129,∏
2025-03-17 14:15:58.120,715, 623, 360, -7, -4, -2, -1, 2, 5, 911, 718, 51,∏
2025-03-17 14:15:58.173,702, 604, 377, -5, -6, 1, -2, 3, 6, 914, 739, 53,∏
2025-03-17 14:15:58.222,716, 623, 337, -2, -1, 2, 0, 3, 7, 915, 750, 57,∏
2025-03-17 14:15:58.273,717, 606, 369, -6, 1, -1, -2, 3, 6, 915, 753, 68,∏
2025-03-17 14:15:58.329,713, 617, 371, -3, -2, 1, -2, 4, 7, 921, 764, 33,∏
2025-03-17 14:15:58.380,731, 617, 354, -1, -1, -2, -1, 5, 5, 920, 783, 50,∏
2025-03-17 14:15:58.429,713, 621, 357, -4, -1, 1, -2, 3, 9, 921, 808, 62,∏
2025-03-17 14:15:58.483,699, 609, 361, -1, -1, 0, -3, 3, 7, 924, 815, 20,∏
2025-03-17 14:15:58.538,708, 624, 372, -3, 0, -1, -1, 4, 7, 923, 820, 59,∏
2025-03-17 14:15:58.585,719, 623, 341, -2, 0, -2, -1, 1, 9, 924, 822, 68,∏
2025-03-17 14:15:58.637,729, 616, 377, -3, -7, -4, -2, 3, 5, 923, 829, 53,∏
2025-03-17 14:15:58.693,700, 620, 353, -3, 4, -2, -3, 3, 7, 924, 841, 52,∏
2025-03-17 14:15:58.745,698, 606, 378, -1, -2, -2, -2, 3, 8, 922, 834, 75,∏
2025-03-17 14:15:58.796,654, 614, 382, -2, -5, -9, -1, 4, 8, 920, 824, 26,∏
2025-03-17 14:15:58.853,764, 568, 445, 5, -26, -7, -2, 3, 9, 920, 834, 75,∏
2025-03-17 14:15:58.902,860, 374, 270, 33, -2, -9, -2, 2, 10, 953, 923, 42,∏
2025-03-17 14:15:58.963,787, 563, 436, -25, -2, 46, -4, 5, 10, 969, 948, 69,∏
2025-03-17 14:15:59.013,653, 504, 502, 19, 2, 3, -3, 4, 10, 967, 944, 64,∏
2025-03-17 14:15:59.063,713, 594, 273, 29, 19, -45, -5, 4, 10, 940, 899, 211,∏
2025-03-17 14:15:59.123,787, 768, 462, 8, -18, 1, -1, 2, 11, 934, 864, 173,∏
2025-03-17 14:15:59.177,776, 601, 199, -1, 11, 11, -2, 2, 11, 960, 918, 59,∏
2025-03-17 14:15:59.228,632, 613, 64, -5, 39, 26, -2, 3, 9, 969, 916, 47,∏
2025-03-17 14:15:59.283,809, 362, 400, -5, -13, -21, 0, 3, 7, 948, 906, 244,∏
2025-03-17 14:15:59.340,585, 593, 604, -9, -21, 9, -4, 5, 9, 954, 932, 308,∏
2025-03-17 14:15:59.393,654, 710, 166, 11, 12, 20, -2, 3, 9, 965, 936, 142,∏
2025-03-17 14:15:59.446,695, 426, 320, -3, 25, 11, -1, 2, 9, 966, 923, 48,∏
2025-03-17 14:15:59.500,811, 623, 150, -29, 32, -47, -3, 5, 7, 944, 879, 320,∏
2025-03-17 14:15:59.788,701, 605, 419, 3, -11, 6, -3, 4, 3, 881, 745, 57,√
2025-03-17 14:15:59.840,700, 585, 397, 4, -11, 5, -2, 2, 5, 881, 743, 41,√
2025-03-17 14:15:59.893,731, 598, 356, 1, -6, 0, -3, 4, 5, 878, 720, 45,√
2025-03-17 14:15:59.946,718, 594, 373, -7, -1, -5, -1, 3, 6, 879, 720, 42,√
2025-03-17 14:15:59.996,705, 615, 395, -6, -2, -3, -5, 5, 5, 882, 712, 47,√
2025-03-17 14:16:00.046,703, 587, 408, -4, -1, 1, -3, 3, 5, 886, 716, 51,√
2025-03-17 14:16:00.103,711, 612, 386, 0, -1, 2, -2, 2, 7, 885, 728, 78,√
2025-03-17 14:16:00.146,710, 574, 398, -4, -1, 0, -1, 4, 6, 889, 744, 74,√
2025-03-17 14:16:00.203,712, 591, 387, 1, -5, 1, -2, 3, 6, 893, 767, 57,√
2025-03-17 14:16:00.253,713, 589, 368, -5, 0, -5, -2, 4, 7, 893, 777, 45,√
2025-03-17 14:16:00.303,721, 613, 389, -2, -2, 1, -3, 2, 5, 899, 797, 48,√
2025-03-17 14:16:00.361,692, 615, 411, 1, 3, -2, -3, 3, 4, 902, 798, 46,√
2025-03-17 14:16:00.410,741, 616, 367, 5, -4, -1, -1, 3, 6, 902, 785, 45,√
2025-03-17 14:16:00.463,691, 581, 370, 4, 9, -4, -1, 2, 6, 905, 782, 34,√
2025-03-17 14:16:00.511,619, 607, 413, 15, 2, -2, -3, 5, 5, 901, 747, 50,√
2025-03-17 14:16:00.563,694, 626, 368, 21, 7, -12, -1, 2, 7, 891, 725, 71,√
2025-03-17 14:16:00.613,702, 624, 407, 17, -22, 9, 0, 2, 9, 913, 799, 21,√
2025-03-17 14:16:00.668,749, 611, 224, 4, -1, 4, -1, 3, 7, 935, 907, 99,√
2025-03-17 14:16:00.725,692, 486, 435, 32, 14, 20, -2, 3, 7, 948, 909, 103,√
2025-03-17 14:16:00.773,718, 652, 234, -11, 5, 10, 0, 3, 6, 957, 903, 40,√
2025-03-17 14:16:00.831,694, 350, 383, -51, -34, -21, -2, 2, 6, 945, 926, 61,√
2025-03-17 14:16:00.883,724, 627, 526, -22, -14, 6, -3, 2, 8, 956, 947, 34,√
2025-03-17 14:16:00.942,517, 839, 158, -18, 12, 30, -5, 5, 9, 962, 948, 134,√
2025-03-17 14:16:00.995,782, 497, 282, 7, 31, -66, -3, 5, 7, 945, 933, 331,√
2025-03-17 14:16:01.045,646, 695, 617, 2, 5, -29, -2, 1, 5, 916, 889, 303,√
2025-03-17 14:16:01.320,693, 631, 362, 1, -5, 3, -2, 2, 7, 879, 708, 106,∛
2025-03-17 14:16:01.377,704, 635, 357, 1, -6, 3, -1, 2, 9, 875, 704, 84,∛
2025-03-17 14:16:01.428,748, 623, 303, -9, 0, 0, -2, 2, 7, 873, 713, 98,∛
2025-03-17 14:16:01.478,689, 635, 381, -8, 2, 2, -1, 2, 9, 881, 732, 103,∛
2025-03-17 14:16:01.534,702, 604, 379, -3, -1, 1, -1, 3, 7, 888, 756, 116,∛
2025-03-17 14:16:01.584,704, 626, 341, -1, 2, -2, -1, 1, 8, 892, 746, 90,∛
2025-03-17 14:16:01.637,691, 620, 373, 1, 2, 0, -3, 2, 7, 892, 730, 113,∛
2025-03-17 14:16:01.687,690, 663, 336, 0, 1, -2, -1, 2, 8, 888, 698, 110,∛
2025-03-17 14:16:01.735,712, 610, 353, 1, 0, 0, 0, 2, 9, 883, 670, 70,∛
2025-03-17 14:16:01.788,691, 619, 349, -2, 2, -2, -1, 2, 7, 883, 657, 52,∛
2025-03-17 14:16:01.842,711, 628, 354, -5, -4, 2, -1, 1, 8, 891, 664, 34,∛
2025-03-17 14:16:01.892,759, 721, 269, -3, 5, 2, -2, 3, 7, 921, 822, 55,∛
2025-03-17 14:16:01.945,714, 613, 457, -22, -4, 14, -2, 0, 7, 934, 893, 97,∛
2025-03-17 14:16:01.994,812, 611, 432, 22, 17, 23, -2, 2, 7, 952, 882, 94,∛
2025-03-17 14:16:02.052,730, 648, 40, -11, 19, 21, -1, 4, 7, 956, 891, 77,∛
2025-03-17 14:16:02.109,362, 253, 710, -24, -60, -23, -2, 3, 7, 956, 937, 41,∛
2025-03-17 14:16:02.162,716, 473, 438, 0, -25, -6, -3, 4, 7, 962, 948, 52,∛
2025-03-17 14:16:02.215,723, 578, 337, 8, 10, 4, -3, 6, 9, 960, 942, 220,∛
2025-03-17 14:16:02.264,561, 577, 401, 7, 28, -49, -3, 3, 6, 947, 932, 339,∛
2025-03-17 14:16:02.315,602, 651, 502, 20, -36, -20, -4, 2, 5, 935, 890, 209,∛
2025-03-17 14:16:02.378,811, 963, 22, -21, -6, -5, -4, 3, 9, 952, 927, 146,∛
2025-03-17 14:16:02.428,642, 559, 357, -2, 7, 10, -2, 2, 8, 961, 945, 158,∛
2025-03-17 14:16:02.478,603, 542, 378, 7, 7, 5, -1, 2, 9, 954, 935, 137,∛
2025-03-17 14:16:02.535,769, 581, 286, -4, 11, -2, -3, 3, 9, 958, 933, 136,∛
2025-03-17 14:16:02.588,653, 659, 388, 4, 8, 4, -3, 3, 7, 957, 923, 130,∛
2025-03-17 14:16:02.642,894, 544, 126, -19, 40, -32, -1, 3, 6, 933, 882, 235,∛
2025-03-17 14:16:02.699,481, 595, 691, -26, 35, -16, -1, 1, 2, 910, 835, 152,∛
2025-03-17 14:16:02.965,689, 625, 364, 8, -3, 9, -2, 2, 6, 880, 674, 67,∜
2025-03-17 14:16:03.014,697, 629, 362, 8, -3, 8, -2, 2, 6, 881, 678, 73,∜
2025-03-17 14:16:03.071,708, 620, 357, 3, -2, 3, -1, 3, 5, 884, 700, 101,∜
2025-03-17 14:16:03.114,698, 638, 370, -1, 0, 1, 0, 2, 6, 890, 709, 80,∜
2025-03-17 14:16:03.166,696, 612, 365, -1, 0, 2, 1, 2, 7, 897, 725, 95,∜
2025-03-17 14:16:03.215,679, 652, 362, -4, 0, -2, -1, 2, 5, 897, 732, 85,∜
2025-03-17 14:16:03.276,651, 623, 451, 8, -14, -1, -1, 3, 5, 899, 747, 76,∜
2025-03-17 14:16:03.328,746, 662, 186, -16, -1, -3, 1, 2, 7, 934, 846, 47,∜
2025-03-17 14:16:03.378,556, 561, 406, -16, 4, 22, 1, 3, 8, 951, 908, 113,∜
2025-03-17 14:16:03.427,618, 800, 347, 2, 27, 27, -2, 3, 6, 960, 898, 61,∜
2025-03-17 14:16:03.487,671, 692, 164, -49, 18, 16, -1, 3, 7, 958, 904, 41,∜
2025-03-17 14:16:03.543,768, 567, 255, 4, -56, -49, -1, 3, 7, 952, 937, 67,∜
2025-03-17 14:16:03.594,772, 596, 282, 14, -22, 17, -3, 2, 10, 965, 948, 35,∜
2025-03-17 14:16:03.645,679, 509, 409, 2, 9, 5, -2, 4, 9, 961, 941, 157,∜
2025-03-17 14:16:03.695,680, 564, 317, 15, 11, -43, -4, 3, 8, 944, 917, 384,∜
2025-03-17 14:16:03.760,652, 788, 432, 2, -23, -45, -3, 3, 7, 922, 838, 358,∜
2025-03-17 14:16:03.810,791, 620, 273, -10, -26, 6, -3, 3, 10, 949, 913, 403,∜
2025-03-17 14:16:03.865,685, 602, 471, -4, -11, -5, -2, 2, 13, 961, 943, 182,∜
2025-03-17 14:16:03.917,561, 729, 205, 15, 19, 3, -2, 2, 13, 968, 915, 62,∜
2025-03-17 14:16:03.977,871, 653, 184, -6, 18, 10, -3, 4, 12, 971, 940, 26,∜
2025-03-17 14:16:04.028,658, 327, 409, -15, 4, 13, -3, 5, 10, 971, 957, 59,∜
2025-03-17 14:16:04.087,764, 342, 220, 22, 8, -46, -2, 4, 10, 957, 935, 398,∜
2025-03-17 14:16:04.136,662, 509, 722, 13, -28, 22, -3, 2, 9, 965, 940, 457,∜
2025-03-17 14:16:04.195,632, 1134, 107, -34, 53, 35, -3, 3, 11, 970, 937, 328,∜
2025-03-17 14:16:04.255,881, 439, 229, -12, 31, -48, -1, 3, 5, 959, 884, 407,∜
2025-03-17 14:16:04.509,700, 645, 392, 8, -8, 6, -1, 2, 6, 917, 734, 92,∫
2025-03-17 14:16:04.564,709, 655, 359, 8, -7, 7, -1, 3, 5, 919, 742, 119,∫
2025-03-17 14:16:04.615,693, 622, 356, 7, 1, 4, -2, 2, 6, 917, 746, 109,∫
2025-03-17 14:16:04.664,688, 624, 382, 4, -1, 4, -1, 2, 5, 914, 734, 155,∫
2025-03-17 14:16:04.716,700, 615, 366, 0, -4, 4, 0, 3, 7, 920, 754, 145,∫
2025-03-17 14:16:04.764,716, 628, 367, -1, 0, 1, -3, 3, 6, 918, 766, 164,∫
2025-03-17 14:16:04.814,690, 600, 381, 3, 0, 2, 0, 3, 6, 918, 763, 163,∫
2025-03-17 14:16:04.866,704, 630, 356, 3, -3, 1, -2, 2, 5, 918, 775, 196,∫
2025-03-17 14:16:04.916,706, 615, 372, -2, 0, 1, -1, 4, 5, 926, 780, 176,∫
2025-03-17 14:16:04.976,709, 628, 349, -2, 1, 0, 1, 3, 6, 926, 782, 147,∫
2025-03-17 14:16:05.028,701, 600, 377, -1, 1, 0, -1, 4, 7, 928, 800, 112,∫
2025-03-17 14:16:05.078,719, 645, 331, -4, -1, 5, -2, 2, 7, 930, 824, 164,∫
2025-03-17 14:16:05.127,735, 597, 373, 0, -4, 5, -3, 4, 7, 933, 839, 165,∫
2025-03-17 14:16:05.185,690, 630, 360, -1, -6, 17, -2, 3, 8, 938, 857, 179,∫
2025-03-17 14:16:05.237,675, 570, 384, -9, -16, 7, -2, 3, 9, 947, 889, 92,∫
2025-03-17 14:16:05.294,616, 518, 431, -18, -5, -7, -2, 5, 8, 946, 911, 66,∫
2025-03-17 14:16:05.348,886, 436, 343, 36, -3, -17, -4, 4, 8, 958, 903, 48,∫
2025-03-17 14:16:05.398,733, 622, 302, -7, 54, 22, -1, 2, 10, 964, 910, 78,∫
2025-03-17 14:16:05.455,643, 587, 277, -4, 16, 8, -1, 4, 9, 959, 892, 50,∫
2025-03-17 14:16:05.509,1037, 528, 188, 24, 26, -22, -1, 2, 8, 915, 774, 94,∫
2025-03-17 14:16:05.785,766, 621, 390, 4, -8, 17, -3, 4, 5, 912, 838, 59,∮
2025-03-17 14:16:05.838,759, 608, 352, 5, -9, 18, -1, 1, 7, 914, 841, 106,∮
2025-03-17 14:16:05.893,711, 589, 324, -2, -1, 7, -3, 4, 6, 919, 853, 199,∮
2025-03-17 14:16:05.943,721, 595, 357, -5, -5, 4, -4, 4, 6, 929, 861, 28,∮
2025-03-17 14:16:05.995,725, 577, 356, -8, -5, 3, -4, 4, 7, 934, 874, 88,∮
2025-03-17 14:16:06.045,728, 561, 368, -4, -7, 4, -3, 4, 9, 938, 885, 110,∮
2025-03-17 14:16:06.095,709, 593, 331, -6, -9, 9, -4, 4, 9, 947, 896, 85,∮
2025-03-17 14:16:06.155,672, 579, 408, -14, -18, 5, -4, 5, 9, 945, 906, 73,∮
2025-03-17 14:16:06.209,745, 459, 412, -6, -7, -11, -5, 4, 10, 954, 925, 49,∮
2025-03-17 14:16:06.261,732, 744, 66, 39, 34, 17, -3, 1, 12, 961, 917, 91,∮
2025-03-17 14:16:06.315,753, 642, 290, -39, 42, 36, -3, 5, 9, 968, 927, 48,∮
2025-03-17 14:16:06.365,613, 458, 514, 14, -41, -44, -2, 5, 5, 954, 921, 58,∮
2025-03-17 14:16:06.426,776, 569, 231, 9, -23, -15, -5, 3, 8, 951, 920, 62,∮
2025-03-17 14:16:06.477,834, 711, 211, -34, 3, 26, -3, 3, 9, 963, 929, 80,∮
2025-03-17 14:16:06.533,710, 708, 344, -2, 26, 29, -4, 6, 11, 970, 934, 127,∮
2025-03-17 14:16:06.586,900, 446, 153, -12, 21, -2, -3, 5, 8, 960, 916, 62,∮
2025-03-17 14:16:06.643,806, 737, 350, -54, 8, -32, -3, 5, 7, 951, 918, 48,∮
2025-03-17 14:16:06.695,550, 652, 567, -11, -48, 6, -4, 6, 5, 957, 937, 52,∮
2025-03-17 14:16:06.744,744, 565, 275, -16, -8, -1, -6, 6, 9, 958, 944, 44,∮
2025-03-17 14:16:06.798,877, 445, 424, 47, 7, -7, -4, 4, 10, 965, 942, 62,∮
2025-03-17 14:16:06.855,906, 992, 108, 28, 45, 38, -2, 4, 10, 969, 941, 72,∮
2025-03-17 14:16:06.910,802, 398, 290, -4, 26, 3, -2, 7, 7, 962, 920, 73,∮
2025-03-17 14:16:06.962,866, 567, 191, 0, 60, -54, -2, 5, 3, 939, 885, 44,∮
2025-03-17 14:16:07.265,662, 638, 456, -1, -5, -7, -3, 3, -2, 741, 530, 26,∂
2025-03-17 14:16:07.315,672, 632, 458, -3, -5, -7, -4, 1, -2, 731, 539, 48,∂
2025-03-17 14:16:07.377,639, 632, 436, -6, -4, -6, -4, 1, -1, 708, 535, 36,∂
2025-03-17 14:16:07.426,666, 599, 456, -1, 2, 3, -3, 1, -1, 743, 541, 75,∂
2025-03-17 14:16:07.478,600, 622, 482, -1, 2, 10, -4, 2, 0, 762, 547, 47,∂
2025-03-17 14:16:07.527,673, 627, 466, 4, -3, 20, -4, 2, -2, 812, 578, 69,∂
2025-03-17 14:16:07.585,689, 609, 424, 11, -15, 14, -2, 2, -1, 850, 660, 57,∂
2025-03-17 14:16:07.643,731, 571, 413, 12, -18, 17, -2, 1, 2, 900, 763, 78,∂
2025-03-17 14:16:07.693,698, 626, 407, 3, -10, 8, -5, 3, 2, 919, 805, 72,∂
2025-03-17 14:16:07.746,718, 576, 393, 1, -14, 3, -2, 4, 3, 925, 833, 44,∂
2025-03-17 14:16:07.797,760, 585, 342, -2, -5, 2, -3, 2, 7, 930, 854, 47,∂
2025-03-17 14:16:07.847,745, 575, 393, -2, -3, -1, -3, 3, 5, 929, 864, 49,∂
2025-03-17 14:16:07.895,704, 583, 373, -2, 1, -2, -5, 5, 5, 933, 868, 40,∂
2025-03-17 14:16:07.953,729, 559, 369, -5, -3, -5, -3, 4, 6, 935, 874, 50,∂
2025-03-17 14:16:08.006,583, 614, 527, 8, -20, 5, -2, 3, 7, 933, 873, 74,∂
2025-03-17 14:16:08.060,738, 852, 272, -11, -19, -9, -3, 3, 9, 945, 906, 30,∂
2025-03-17 14:16:08.113,884, 775, 367, 23, -5, 18, -4, 3, 8, 957, 927, 65,∂
2025-03-17 14:16:08.165,724, 518, 391, 38, 5, 24, -4, 6, 9, 960, 905, 354,∂
2025-03-17 14:16:08.215,751, 610, 235, 23, 30, 10, -3, 2, 9, 957, 880, 239,∂
2025-03-17 14:16:08.277,728, 605, 204, -36, 10, -19, -2, 3, 11, 955, 877, 43,∂
2025-03-17 14:16:08.327,951, 592, 455, -41, -29, -2, -3, 5, 9, 959, 937, 80,∂
2025-03-17 14:16:08.384,700, 626, 217, 15, 2, 15, -5, 6, 9, 965, 942, 154,∂
2025-03-17 14:16:08.441,833, 413, 183, -22, 58, -52, -4, 4, 8, 956, 918, 67,∂
2025-03-17 14:16:08.750,707, 640, 370, 5, -6, 1, -4, 3, 2, 882, 676, 82,∇
2025-03-17 14:16:08.806,707, 604, 395, 5, -7, 1, -2, 1, 5, 881, 677, 78,∇
2025-03-17 14:16:08.859,709, 624, 354, 8, -9, -3, -4, 2, 6, 874, 685, 96,∇
2025-03-17 14:16:08.909,699, 636, 341, 6, -2, -7, -3, 2, 6, 872, 680, 93,∇
2025-03-17 14:16:08.961,716, 628, 359, -1, -1, -5, -2, 1, 5, 882, 696, 121,∇
2025-03-17 14:16:09.015,701, 657, 359, -3, -2, -3, -1, 2, 5, 892, 722, 91,∇
2025-03-17 14:16:09.065,717, 623, 359, -4, -4, 4, -2, 2, 4, 901, 769, 108,∇
2025-03-17 14:16:09.119,705, 636, 343, -1, -3, 4, -1, 2, 6, 915, 795, 124,∇
2025-03-17 14:16:09.175,705, 629, 356, -2, -3, 6, -2, 1, 7, 924, 817, 90,∇
2025-03-17 14:16:09.227,716, 605, 375, 0, -2, 1, -4, 4, 6, 922, 829, 113,∇
2025-03-17 14:16:09.279,756, 615, 284, -4, -1, 2, -2, 2, 9, 925, 834, 126,∇
2025-03-17 14:16:09.327,703, 631, 369, -8, 0, -3, -2, 1, 8, 930, 833, 89,∇
2025-03-17 14:16:09.377,693, 636, 356, -6, -3, -5, -2, 4, 8, 927, 838, 121,∇
2025-03-17 14:16:09.436,695, 604, 392, -8, -6, -2, -2, 2, 7, 930, 851, 33,∇
2025-03-17 14:16:09.491,647, 594, 371, 1, -8, 1, -2, 3, 7, 932, 854, 56,∇
2025-03-17 14:16:09.543,845, 650, 212, 13, -9, -15, -3, 2, 10, 940, 893, 75,∇
2025-03-17 14:16:09.596,583, 576, 186, -15, -2, 45, -2, 2, 11, 964, 931, 54,∇
2025-03-17 14:16:09.645,582, 542, 691, 13, 0, 5, -4, 3, 7, 961, 929, 62,∇
2025-03-17 14:16:09.695,445, 506, 280, 30, 13, -2, -3, 4, 10, 967, 920, 42,∇
2025-03-17 14:16:09.755,826, 687, 152, -41, 30, 4, -2, 2, 9, 954, 898, 54,∇
2025-03-17 14:16:09.810,378, 686, 580, -2, -19, -61, -4, 4, 6, 935, 865, 48,∇
2025-03-17 14:16:09.865,861, 643, 344, 13, -14, -4, -2, 2, 9, 958, 922, 49,∇
2025-03-17 14:16:09.920,761, 563, 247, -29, 41, 49, -2, 4, 7, 971, 937, 32,∇
2025-03-17 14:16:09.974,826, 459, 392, -8, 15, -8, -2, 7, 6, 959, 908, 63,∇
2025-03-17 14:16:10.027,696, 570, 391, -2, 33, -53, -3, 4, 2, 928, 808, 48,∇
2025-03-17 14:16:10.305,734, 616, 324, 6, -19, 8, -2, 4, 7, 910, 826, 72,∆
2025-03-17 14:16:10.360,742, 608, 327, 5, -17, 7, -2, 3, 9, 913, 831, 62,∆
2025-03-17 14:16:10.415,770, 596, 332, -4, -4, 0, -2, 3, 7, 920, 848, 37,∆
2025-03-17 14:16:10.465,709, 617, 379, -11, -8, 4, -4, 5, 8, 927, 866, 71,∆
2025-03-17 14:16:10.522,692, 610, 406, 2, -15, 9, -3, 3, 9, 938, 892, 46,∆
2025-03-17 14:16:10.575,763, 559, 246, -24, -9, 0, -4, 3, 11, 953, 920, 35,∆
2025-03-17 14:16:10.626,745, 587, 324, -8, -6, -2, -6, 7, 9, 956, 933, 61,∆
2025-03-17 14:16:10.676,746, 571, 375, -3, 0, 0, -3, 3, 10, 955, 936, 36,∆
2025-03-17 14:16:10.735,750, 573, 291, -1, -4, 0, -2, 5, 12, 956, 937, 45,∆
2025-03-17 14:16:10.785,748, 564, 386, -5, -3, 1, -5, 6, 9, 956, 939, 70,∆
2025-03-17 14:16:10.836,734, 576, 369, -4, -6, -1, -4, 4, 12, 965, 944, 36,∆
2025-03-17 14:16:10.891,712, 520, 458, 41, 7, -7, -5, 5, 12, 961, 938, 56,∆
2025-03-17 14:16:10.945,1089, 553, 218, 23, 20, -4, -4, 4, 13, 968, 925, 47,∆
2025-03-17 14:16:11.001,924, 600, 331, -15, 17, 11, -1, 4, 11, 963, 932, 75,∆
2025-03-17 14:16:11.055,655, 631, 392, -17, 1, 28, -3, 5, 11, 969, 949, 96,∆
2025-03-17 14:16:11.108,755, 504, 370, -8, 6, 3, -5, 6, 7, 964, 943, 57,∆
2025-03-17 14:16:11.165,536, 578, 422, 13, -17, -67, -2, 4, 11, 951, 910, 45,∆
2025-03-17 14:16:11.215,789, 387, 461, 1, -14, -1, -2, 3, 10, 966, 937, 69,∆
2025-03-17 14:16:11.265,641, 538, 246, -9, 48, 48, -3, 5, 10, 974, 947, 78,∆
2025-03-17 14:16:11.325,921, 315, 304, -12, 37, -15, -2, 6, 6, 968, 921, 59,∆
2025-03-17 14:16:11.378,698, 595, 542, 4, 32, -49, -4, 7, 2, 935, 871, 81,∆
2025-03-17 14:16:11.687,701, 578, 428, -1, -6, -2, -3, 4, 4, 866, 660, 44,π
2025-03-17 14:16:11.742,696, 587, 395, -1, -5, -1, -4, 5, 3, 867, 662, 54,π
2025-03-17 14:16:11.792,711, 604, 419, 1, -5, 2, -4, 4, 3, 871, 668, 55,π
2025-03-17 14:16:11.845,720, 581, 390, -5, 0, -1, -3, 6, 3, 876, 668, 55,π
2025-03-17 14:16:11.895,716, 596, 427, -6, -1, 0, -2, 3, 3, 889, 690, 51,π
2025-03-17 14:16:11.945,706, 573, 417, 1, -2, 0, -2, 7, 3, 892, 729, 50,π
2025-03-17 14:16:11.995,705, 566, 444, 4, -4, 2, -4, 5, 5, 894, 752, 37,π
2025-03-17 14:16:12.045,719, 591, 393, 2, -5, 3, -3, 4, 4, 907, 768, 33,π
2025-03-17 14:16:12.095,715, 570, 429, 1, -8, 6, -4, 6, 4, 915, 812, 60,π
2025-03-17 14:16:12.148,730, 573, 392, 3, -2, 2, -2, 4, 5, 922, 831, 74,π
2025-03-17 14:16:12.205,716, 576, 407, 13, -1, 2, -3, 3, 5, 925, 837, 72,π
2025-03-17 14:16:12.255,671, 582, 411, 6, -4, -7, -3, 4, 5, 925, 829, 31,π
2025-03-17 14:16:12.308,666, 580, 361, 4, -19, -10, -2, 4, 7, 928, 832, 41,π
2025-03-17 14:16:12.365,908, 506, 260, -1, -7, -16, -4, 3, 8, 939, 881, 51,π
2025-03-17 14:16:12.415,1020, 759, 379, 29, -2, 10, -1, 4, 9, 960, 926, 48,π
2025-03-17 14:16:12.467,442, 488, 265, -18, -7, 33, -5, 6, 8, 967, 948, 139,π
2025-03-17 14:16:12.525,674, 484, 391, 15, -1, 8, -4, 7, 7, 966, 938, 163,π
2025-03-17 14:16:12.579,729, 502, 290, -8, 31, -53, -3, 5, 9, 948, 910, 55,π
2025-03-17 14:16:12.631,730, 856, 602, 5, -5, -3, -2, 3, 8, 939, 889, 75,π
2025-03-17 14:16:12.685,937, 507, 161, 8, -8, -3, -5, 5, 7, 960, 924, 57,π
2025-03-17 14:16:12.738,819, 663, 378, -7, 26, 20, -4, 4, 8, 970, 936, 30,π
2025-03-17 14:16:12.791,858, 446, 264, -4, 6, -3, -3, 6, 7, 958, 912, 74,π
2025-03-17 14:16:12.845,792, 736, 291, -34, -15, 0, -3, 4, 7, 957, 931, 48,π
2025-03-17 14:16:12.895,517, 669, 553, 20, -39, 14, -3, 4, 9, 962, 939, 55,π
2025-03-17 14:16:12.950,690, 636, 227, 30, 2, -2, -4, 7, 11, 963, 938, 54,π
2025-03-17 14:16:13.005,770, 751, 250, 6, 19, 28, -4, 5, 11, 968, 940, 107,π
2025-03-17 14:16:13.058,681, 666, 464, -20, 0, 18, -4, 5, 11, 968, 948, 233,π
2025-03-17 14:16:13.110,768, 528, 265, 17, 4, 0, -3, 5, 10, 964, 938, 125,π
2025-03-17 14:16:13.165,745, 545, 358, -20, 45, -45, -3, 5, 8, 958, 923, 53,π
2025-03-17 14:16:13.221,656, 566, 580, 5, -10, -6, -4, 6, 4, 950, 905, 74,π
2025-03-17 14:16:13.275,804, 579, 294, 9, -6, -4, -2, 6, 8, 943, 876, 46,π
2025-03-17 14:16:13.323,742, 578, 361, -1, 2, -11, -4, 3, 7, 936, 848, 41,π
2025-03-17 14:16:13.377,730, 571, 406, 2, 1, -12, -3, 4, 7, 921, 794, 63,π
2025-03-17 14:16:13.647,615, 652, 448, -8, 4, -31, -4, -1, 1, 752, 428, 245,θ
2025-03-17 14:16:13.700,610, 647, 458, -7, 4, -32, -5, 0, 0, 749, 437, 259,θ
2025-03-17 14:16:13.755,569, 710, 416, 2, -4, -17, -5, -2, 1, 705, 485, 238,θ
2025-03-17 14:16:13.810,585, 685, 491, 7, -8, 11, -6, -2, 1, 738, 677, 268,θ
2025-03-17 14:16:13.865,666, 649, 349, -5, 20, 10, -5, -2, 2, 740, 717, 293,θ
2025-03-17 14:16:13.915,658, 675, 443, 11, -11, 35, -5, -2, 3, 717, 702, 298,θ
2025-03-17 14:16:13.975,652, 561, 411, 22, -30, 41, -3, 0, 5, 722, 670, 224,θ
2025-03-17 14:16:14.028,749, 533, 270, 13, -28, 23, -4, 0, 7, 718, 617, 52,θ
2025-03-17 14:16:14.078,743, 617, 327, -2, 3, 8, -6, 2, 6, 777, 572, 70,θ
2025-03-17 14:16:14.135,711, 634, 379, -8, 10, 9, -5, 2, 6, 817, 622, 71,θ
2025-03-17 14:16:14.185,748, 629, 422, -7, -11, 10, -3, 2, 5, 870, 705, 46,θ
2025-03-17 14:16:14.242,766, 584, 283, -20, -8, 0, -6, 4, 6, 897, 793, 123,θ
2025-03-17 14:16:14.295,676, 581, 411, -16, -5, 0, -7, 3, 5, 912, 833, 44,θ
2025-03-17 14:16:14.345,693, 571, 418, -12, -21, 4, -7, 4, 4, 925, 875, 50,θ
2025-03-17 14:16:14.395,790, 543, 298, -2, -7, -3, -8, 6, 6, 935, 898, 34,θ
2025-03-17 14:16:14.450,751, 571, 368, 2, 2, -4, -6, 3, 6, 932, 897, 84,θ
2025-03-17 14:16:14.505,745, 600, 342, 1, 3, -2, -7, 5, 5, 932, 893, 110,θ
2025-03-17 14:16:14.557,729, 595, 358, -3, -1, 0, -5, 4, 5, 934, 895, 87,θ
2025-03-17 14:16:14.611,702, 590, 374, -8, -7, 2, -5, 3, 7, 938, 907, 134,θ
2025-03-17 14:16:14.663,785, 636, 383, -13, -6, -6, -7, 7, 5, 942, 921, 77,θ
2025-03-17 14:16:14.715,754, 390, 343, 39, -4, -15, -6, 5, 7, 952, 916, 68,θ
2025-03-17 14:16:14.765,781, 667, 67, 10, 34, 25, -4, 3, 9, 961, 914, 71,θ
2025-03-17 14:16:14.823,748, 520, 317, -29, 23, 28, -6, 6, 6, 961, 922, 45,θ
2025-03-17 14:16:14.877,672, 444, 436, 10, -24, -38, -5, 4, 7, 944, 914, 76,θ
2025-03-17 14:16:14.928,681, 606, 391, -18, -6, -15, -7, 4, 7, 944, 920, 35,θ
2025-03-17 14:16:14.978,750, 562, 351, 1, -7, 2, -6, 6, 5, 947, 924, 60,θ
2025-03-17 14:16:15.035,748, 564, 354, -2, -5, 1, -6, 4, 7, 950, 925, 41,θ
2025-03-17 14:16:15.090,752, 576, 355, -2, -2, -4, -7, 5, 7, 946, 925, 71,θ
2025-03-17 14:16:15.142,741, 569, 369, -2, -1, -3, -7, 6, 6, 946, 927, 46,θ
2025-03-17 14:16:15.195,734, 584, 359, -5, -2, -3, -5, 5, 8, 948, 927, 52,θ
2025-03-17 14:16:15.245,742, 574, 340, -3, -1, -1, -7, 4, 7, 947, 929, 51,θ
2025-03-17 14:16:15.300,727, 578, 377, -2, -2, -3, -6, 5, 7, 947, 930, 54,θ
2025-03-17 14:16:15.356,747, 582, 329, -3, -3, -3, -6, 3, 7, 945, 927, 62,θ
2025-03-17 14:16:15.408,740, 583, 365, -3, -1, -3, -8, 5, 6, 943, 930, 55,θ
2025-03-17 14:16:15.461,721, 590, 344, -4, -2, -3, -8, 6, 7, 946, 932, 69,θ
2025-03-17 14:16:15.508,687, 537, 454, -5, -14, 2, -7, 4, 8, 948, 935, 48,θ
2025-03-17 14:16:15.560,847, 555, 329, 14, -5, -1, -4, 4, 7, 960, 942, 55,θ
2025-03-17 14:16:15.614,644, 725, 395, 36, 10, 14, -7, 5, 8, 968, 939, 64,θ
2025-03-17 14:16:15.670,646, 727, 166, -6, 31, 20, -6, 5, 9, 963, 936, 56,θ
2025-03-17 14:16:15.727,827, 179, 397, -33, 23, -28, -5, 6, 6, 954, 916, 65,θ
2025-03-17 14:16:15.780,553, 673, 706, -8, -24, 7, -5, 4, 5, 948, 926, 54,θ
2025-03-17 14:16:15.835,883, 678, -1, -7, -10, 23, -6, 4, 8, 967, 950, 61,θ
2025-03-17 14:16:15.885,731, 592, 459, 11, 11, 19, -7, 5, 7, 964, 947, 52,θ
2025-03-17 14:16:15.935,745, 551, 270, 2, 41, -48, -7, 6, 5, 946, 910, 52,θ
2025-03-17 14:16:15.990,593, 663, 575, -5, 9, -14, -4, 5, 4, 887, 750, 58,θ
2025-03-17 14:16:16.586,688, 619, 379, 2, -7, -3, -6, 4, 4, 826, 582, 71,λ
2025-03-17 14:16:16.635,692, 623, 369, 3, -7, -2, -5, 2, 6, 824, 580, 64,λ
2025-03-17 14:16:16.690,718, 617, 360, 7, -11, -3, -5, 3, 6, 822, 587, 35,λ
2025-03-17 14:16:16.742,708, 608, 336, 2, -5, -8, -6, 3, 8, 826, 623, 48,λ
2025-03-17 14:16:16.795,719, 649, 356, 3, -10, -7, -6, 2, 8, 820, 606, 44,λ
2025-03-17 14:16:16.845,682, 645, 325, 0, -7, -16, -6, 0, 9, 811, 608, 65,λ
2025-03-17 14:16:16.897,705, 654, 346, 4, -14, -17, -7, 1, 10, 804, 624, 97,λ
2025-03-17 14:16:16.959,655, 671, 349, 9, -16, -11, -8, 1, 11, 802, 627, 117,λ
2025-03-17 14:16:17.015,641, 693, 224, 5, -9, 7, -7, 0, 11, 812, 618, 86,λ
2025-03-17 14:16:17.065,591, 639, 325, 2, 13, 33, -8, 0, 13, 824, 595, 116,λ
2025-03-17 14:16:17.119,740, 658, 235, 1, 6, 23, -6, 2, 10, 832, 592, 99,λ
2025-03-17 14:16:17.165,837, 700, 296, -11, 3, 4, -6, 2, 11, 848, 622, 86,λ
2025-03-17 14:16:17.223,659, 582, 353, -16, 7, 5, -8, 2, 11, 877, 699, 88,λ
2025-03-17 14:16:17.275,746, 606, 364, -3, 0, 10, -6, 3, 7, 896, 757, 95,λ
2025-03-17 14:16:17.325,739, 581, 327, -5, 0, 5, -5, 1, 10, 913, 809, 84,λ
