Timestamp,Acc_X,Acc_Y,Acc_Z,Gyro_X,Gyro_Y,Gyro_Z,Mag_X,Mag_Y,Mag_Z,Force1,Force2,Force3,Letter
2025-03-10 13:35:04.748,733, 632, 629, 41, -50, -14, 0, 5, 4, 13, 99, 210,noise
2025-03-10 13:35:04.756,536, 583, 498, -33, -8, -25, 0, 6, 3, 9, 159, 135,noise
2025-03-10 13:35:04.757,733, 632, 629, 41, -50, -14, 0, 5, 4, 13, 99, 210,noise
2025-03-10 13:35:04.759,536, 583, 498, -33, -8, -25, 0, 6, 3, 9, 159, 135,noise
2025-03-10 13:35:11.659,597, 666, 489, 3, 2, -8, 1, -2, 1, 874, 10, 282,A
2025-03-10 13:35:11.709,563, 645, 500, 3, 8, -6, 2, -3, 0, 875, 6, 272,A
2025-03-10 13:35:11.764,562, 618, 561, -3, 10, -1, 2, -2, 0, 875, 15, 309,A
2025-03-10 13:35:11.813,493, 685, 582, -22, -11, 19, 1, -3, 3, 884, 112, 435,A
2025-03-10 13:35:11.869,632, 539, 619, -7, -11, 11, -1, -1, 0, 906, 502, 565,A
2025-03-10 13:35:11.918,606, 596, 573, 0, -1, 1, 0, -1, 0, 911, 574, 602,A
2025-03-10 13:35:11.978,597, 587, 569, 5, 0, -1, 0, -2, 1, 916, 593, 612,A
2025-03-10 13:35:12.030,597, 584, 577, 7, 0, -7, -1, -1, 1, 918, 641, 618,A
2025-03-10 13:35:12.079,601, 598, 557, 6, -3, -12, 1, -2, 3, 916, 656, 622,A
2025-03-10 13:35:12.138,589, 622, 564, 5, -2, -12, 0, -2, 2, 920, 638, 632,A
2025-03-10 13:35:12.189,556, 633, 552, 4, -2, -3, 0, -3, 2, 918, 556, 642,A
2025-03-10 13:35:12.238,534, 615, 547, 7, 0, 0, 0, -5, 3, 915, 313, 623,A
2025-03-10 13:35:12.289,596, 634, 544, 17, 0, 2, 0, -3, 2, 903, 7, 569,A
2025-03-10 13:35:12.345,572, 645, 551, 7, -2, 2, 1, -4, 3, 896, 12, 508,A
2025-03-10 13:35:12.399,632, 611, 563, 19, -27, 5, 1, -2, 4, 900, 14, 508,A
2025-03-10 13:35:12.449,636, 666, 457, 2, -2, 16, -1, -5, 4, 906, 12, 548,A
2025-03-10 13:35:12.506,559, 750, 415, -43, -14, 27, 0, -5, 4, 924, 427, 617,A
2025-03-10 13:35:12.562,628, 536, 483, -25, -8, 43, -4, -3, 4, 944, 795, 685,A
2025-03-10 13:35:12.613,803, 536, 605, 4, -20, 34, -4, -2, 4, 956, 898, 758,A
2025-03-10 13:35:12.671,648, 530, 552, 0, -1, 26, -4, -1, 4, 965, 929, 785,A
2025-03-10 13:35:12.718,664, 545, 550, 24, -19, 23, -5, -2, 5, 967, 940, 800,A
2025-03-10 13:35:12.779,831, 502, 385, 16, -21, 7, -6, -1, 10, 969, 945, 811,A
2025-03-10 13:35:12.840,752, 525, 391, -14, 0, -10, -6, -3, 8, 972, 951, 820,A
2025-03-10 13:35:12.894,577, 518, 668, -1, -48, 10, -7, -1, 7, 973, 958, 833,A
2025-03-10 13:35:12.949,661, 341, 743, 56, -8, -24, -6, -3, 8, 979, 958, 789,A
2025-03-10 13:35:13.009,830, 739, -19, 24, 39, 16, -8, -4, 12, 977, 949, 751,A
2025-03-10 13:35:13.064,825, 286, 595, -48, -35, -23, -6, -3, 10, 974, 943, 805,A
2025-03-10 13:35:13.119,681, 322, 815, 0, -21, -10, -8, -4, 8, 978, 958, 792,A
2025-03-10 13:35:13.177,768, 518, 215, 6, 33, 33, -8, -2, 10, 983, 951, 736,A
2025-03-10 13:35:13.231,639, 367, 470, -6, 4, -20, -7, -4, 10, 976, 920, 753,A
2025-03-10 13:35:13.289,844, 417, 477, -2, -22, -8, -7, -4, 10, 978, 956, 742,A
2025-03-10 13:35:13.345,671, 403, 403, 6, 11, 34, -8, -2, 9, 983, 964, 774,A
2025-03-10 13:35:13.398,792, 522, 102, -37, 110, -69, -8, -3, 9, 971, 944, 780,A
2025-03-10 13:35:13.459,537, 562, 663, -52, 86, -87, -3, -2, 5, 953, 855, 745,A
2025-03-10 13:35:13.813,1018, 660, 505, 10, 2, -3, -5, -2, 6, 942, 842, 674,B
2025-03-10 13:35:13.873,946, 676, 379, -3, 11, -7, -5, -2, 9, 942, 846, 674,B
2025-03-10 13:35:13.920,598, 561, 692, 2, -12, 9, -4, -3, 7, 948, 876, 697,B
2025-03-10 13:35:13.979,663, 536, 488, 4, -17, 7, -4, -3, 6, 949, 889, 705,B
2025-03-10 13:35:14.029,709, 597, 346, -11, -27, -7, -5, -2, 9, 951, 894, 713,B
2025-03-10 13:35:14.095,758, 383, 612, -16, -13, -9, -6, -3, 9, 968, 936, 615,B
2025-03-10 13:35:14.149,770, 490, 416, 14, 47, 47, -5, -1, 10, 978, 939, 553,B
2025-03-10 13:35:14.198,739, 475, 561, -31, 16, -2, -6, -2, 9, 968, 925, 667,B
2025-03-10 13:35:14.263,932, 537, 574, -31, -27, -16, -5, -3, 7, 974, 951, 725,B
2025-03-10 13:35:14.319,448, 779, 470, -3, -3, 21, -6, -1, 8, 977, 961, 686,B
2025-03-10 13:35:14.372,993, 271, 606, 7, 11, 15, -4, -3, 9, 979, 962, 594,B
2025-03-10 13:35:14.429,711, 609, 708, -21, 25, 16, -7, -3, 8, 979, 954, 484,B
2025-03-10 13:35:14.479,746, 518, 387, -17, 19, 15, -6, -1, 7, 974, 924, 110,B
2025-03-10 13:35:14.544,1070, 319, 491, 15, 20, -24, -5, -2, 6, 951, 845, 386,B
2025-03-10 13:35:14.597,520, 453, 837, -38, 22, -29, -5, -1, 5, 942, 845, 230,B
2025-03-10 13:35:14.649,483, 616, 710, 1, -23, 2, -5, -2, 3, 941, 864, 286,B
2025-03-10 13:35:14.970,737, 522, 450, -3, -1, 0, -7, -2, 6, 952, 886, 511,C
2025-03-10 13:35:15.020,726, 524, 462, -3, 0, 0, -6, -1, 6, 950, 887, 511,C
2025-03-10 13:35:15.077,716, 520, 492, 0, -4, 0, -5, -2, 6, 955, 892, 526,C
2025-03-10 13:35:15.131,726, 517, 497, -2, -5, 3, -7, 0, 7, 953, 894, 538,C
2025-03-10 13:35:15.183,709, 493, 479, 0, -14, 3, -7, -1, 6, 957, 904, 525,C
2025-03-10 13:35:15.239,644, 402, 560, -9, -10, -15, -7, -1, 7, 964, 932, 345,C
2025-03-10 13:35:15.294,802, 491, 486, 39, -11, -18, -7, -2, 7, 972, 936, 29,C
2025-03-10 13:35:15.350,959, 943, -102, 18, 45, 43, -7, -3, 10, 978, 936, 15,C
2025-03-10 13:35:15.398,678, 522, 681, 6, 12, 25, -5, -3, 9, 977, 948, 596,C
2025-03-10 13:35:15.462,797, 541, 277, -34, 76, -46, -5, -2, 7, 960, 913, 685,C
2025-03-10 13:35:15.519,551, 560, 660, -31, 17, -27, -4, -3, 5, 950, 827, 555,C
2025-03-10 13:35:15.569,591, 536, 611, 0, -28, 7, -3, -3, 4, 944, 823, 407,C
2025-03-10 13:35:15.909,713, 520, 475, 0, -13, 0, -4, 0, 6, 947, 858, 393,D
2025-03-10 13:35:15.962,717, 518, 479, 1, -12, 0, -7, -2, 6, 948, 860, 402,D
2025-03-10 13:35:16.014,730, 529, 442, -3, -6, -2, -7, 0, 6, 949, 873, 411,D
2025-03-10 13:35:16.068,675, 525, 527, -7, -18, -4, -5, -3, 8, 954, 894, 441,D
2025-03-10 13:35:16.125,772, 367, 548, 0, -8, -12, -6, -2, 7, 964, 929, 338,D
2025-03-10 13:35:16.179,958, 471, 486, 38, 48, 48, -5, -2, 7, 976, 931, 12,D
2025-03-10 13:35:16.233,763, 395, 198, -1, 23, 22, -8, -1, 8, 974, 926, 12,D
2025-03-10 13:35:16.288,739, 376, 493, 20, -42, -63, -7, -2, 7, 958, 907, 612,D
2025-03-10 13:35:16.344,654, 550, 721, -19, -27, -4, -7, 0, 8, 975, 953, 626,D
2025-03-10 13:35:16.403,396, 526, 250, 11, 32, 31, -7, -3, 8, 981, 949, 288,D
2025-03-10 13:35:16.455,855, 335, 302, -3, 29, 12, -7, -1, 7, 971, 877, 20,D
2025-03-10 13:35:16.511,859, 503, 289, -29, 52, -46, -6, -2, 4, 953, 806, 381,D
2025-03-10 13:35:16.848,724, 519, 477, -3, -11, 2, -6, -3, 6, 949, 867, 310,E
2025-03-10 13:35:16.905,731, 526, 473, -4, -8, 2, -5, -1, 6, 949, 869, 308,E
2025-03-10 13:35:16.958,703, 521, 496, -5, -9, -3, -7, -2, 5, 953, 880, 338,E
2025-03-10 13:35:17.014,666, 525, 538, -9, -31, -5, -6, -2, 6, 955, 904, 387,E
2025-03-10 13:35:17.068,734, 348, 623, 13, -14, -14, -7, -1, 6, 969, 927, 222,E
2025-03-10 13:35:17.118,167, 913, 197, 40, 49, 51, -8, -5, 9, 980, 918, 7,E
2025-03-10 13:35:17.179,824, 522, 458, -18, 5, 8, -7, -2, 9, 967, 901, 233,E
2025-03-10 13:35:17.229,471, 658, 759, -18, -42, -21, -7, -2, 7, 963, 917, 538,E
2025-03-10 13:35:17.293,799, 791, 216, 28, -19, 8, -6, -3, 9, 978, 959, 519,E
2025-03-10 13:35:17.346,664, 597, 473, 8, 24, 31, -7, -2, 7, 974, 950, 637,E
2025-03-10 13:35:17.398,489, 488, 546, 12, 30, -23, -8, -2, 9, 966, 900, 579,E
2025-03-10 13:35:17.456,832, 444, 218, -3, -4, -5, -6, -5, 10, 974, 938, 483,E
2025-03-10 13:35:17.510,759, 495, 510, 9, 8, 26, -5, -2, 9, 980, 953, 561,E
2025-03-10 13:35:17.563,682, 256, 448, 21, 41, -19, -7, -3, 10, 966, 896, 646,E
2025-03-10 13:35:17.619,857, 1227, 472, -1, -3, -3, -7, -4, 11, 973, 905, 498,E
2025-03-10 13:35:17.678,1017, 262, 300, 8, 15, 32, -6, -3, 10, 977, 946, 614,E
2025-03-10 13:35:17.738,961, 460, 67, -16, 46, -42, -6, -4, 9, 958, 896, 696,E
2025-03-10 13:35:18.080,694, 537, 520, 5, -11, 4, -6, -2, 7, 953, 887, 515,F
2025-03-10 13:35:18.128,712, 542, 504, 4, -11, 4, -5, -2, 7, 953, 887, 517,F
2025-03-10 13:35:18.186,727, 527, 443, 1, -10, 1, -8, -3, 6, 952, 891, 522,F
2025-03-10 13:35:18.238,737, 533, 441, 0, -3, 1, -6, -2, 7, 954, 898, 534,F
2025-03-10 13:35:18.296,703, 542, 442, -7, -9, -6, -6, -3, 7, 952, 903, 563,F
2025-03-10 13:35:18.348,719, 492, 577, -20, -12, -12, -5, -1, 8, 962, 926, 485,F
2025-03-10 13:35:18.405,799, 622, 616, 47, 48, 36, -6, -3, 7, 977, 920, 295,F
2025-03-10 13:35:18.461,820, 718, 204, -10, 21, 20, -7, -2, 9, 973, 906, 104,F
2025-03-10 13:35:18.519,700, 518, 482, -16, -43, -58, -6, -3, 8, 963, 904, 493,F
2025-03-10 13:35:18.578,804, 781, 488, 34, -37, 8, -6, -3, 10, 977, 960, 515,F
2025-03-10 13:35:18.629,667, 575, 307, 21, 20, 24, -7, -2, 10, 975, 948, 633,F
2025-03-10 13:35:18.688,504, 580, 557, 20, 30, -24, -5, -3, 9, 960, 835, 631,F
2025-03-10 13:35:18.746,766, 360, 326, -9, 2, 6, -4, -4, 11, 975, 928, 503,F
2025-03-10 13:35:18.800,565, 523, 497, 16, 14, 21, -8, -3, 12, 976, 938, 658,F
2025-03-10 13:35:18.856,760, 487, 139, -21, 59, -45, -7, -4, 11, 953, 870, 685,F
2025-03-10 13:35:19.191,707, 545, 464, -1, -9, 4, -6, -4, 7, 954, 890, 563,G
2025-03-10 13:35:19.244,705, 552, 460, -1, -9, 4, -7, -2, 5, 953, 889, 566,G
2025-03-10 13:35:19.299,728, 538, 436, 3, -10, 7, -7, -2, 9, 959, 899, 596,G
2025-03-10 13:35:19.355,714, 527, 454, 3, -11, 7, -8, -2, 8, 957, 905, 644,G
2025-03-10 13:35:19.411,692, 563, 462, -19, -5, -9, -7, -3, 7, 964, 925, 527,G
2025-03-10 13:35:19.468,496, 456, 487, 12, -12, -21, -6, -2, 9, 970, 932, 310,G
2025-03-10 13:35:19.526,697, 641, 89, 28, 40, 29, -6, -3, 11, 976, 922, 197,G
2025-03-10 13:35:19.579,792, 631, 595, -31, 13, 32, -5, -2, 9, 978, 939, 319,G
2025-03-10 13:35:19.629,752, 537, 449, -6, -31, -29, -8, -3, 8, 970, 943, 470,G
2025-03-10 13:35:19.693,555, 913, 160, -4, 30, 38, -7, -3, 9, 979, 941, 268,G
2025-03-10 13:35:19.745,698, 478, 407, -20, 11, 6, -7, -2, 9, 973, 922, 232,G
2025-03-10 13:35:19.808,644, 596, 570, -14, -29, -32, -5, -3, 9, 970, 897, 336,G
2025-03-10 13:35:19.861,717, 706, 201, 0, -12, 29, -8, -2, 9, 982, 952, 347,G
2025-03-10 13:35:19.912,732, 330, 521, 1, 10, 7, -7, -1, 9, 974, 933, 523,G
2025-03-10 13:35:19.969,526, 545, 619, -55, 50, -49, -7, -1, 6, 963, 880, 354,G
2025-03-10 13:35:20.279,708, 545, 476, -5, -2, -4, -5, -3, 6, 949, 862, 535,H
2025-03-10 13:35:20.329,700, 543, 467, -5, -3, -3, -5, -3, 7, 950, 863, 534,H
2025-03-10 13:35:20.388,701, 550, 476, -9, -12, -6, -7, -2, 7, 949, 871, 527,H
2025-03-10 13:35:20.443,682, 551, 481, 2, -22, 6, -6, -3, 7, 952, 890, 542,H
2025-03-10 13:35:20.494,746, 406, 579, 9, -3, -8, -6, -2, 8, 965, 907, 415,H
2025-03-10 13:35:20.548,458, 539, 417, 27, 38, 26, -5, -2, 9, 974, 889, 50,H
2025-03-10 13:35:20.598,710, 525, 253, -24, 8, 9, -6, -2, 8, 967, 845, 12,H
2025-03-10 13:35:20.660,626, 633, 491, -2, -27, -25, -6, -2, 8, 957, 851, 261,H
2025-03-10 13:35:20.715,1007, 1172, 300, 48, -17, 33, -5, -4, 8, 976, 942, 400,H
2025-03-10 13:35:20.768,712, 499, 471, 7, 7, 24, -8, -4, 9, 973, 945, 649,H
2025-03-10 13:35:20.827,517, 623, 678, -26, -7, -33, -7, -2, 8, 965, 934, 704,H
2025-03-10 13:35:20.878,669, 683, 317, 21, 1, 15, -7, -2, 9, 977, 941, 496,H
2025-03-10 13:35:20.938,851, 551, 250, -13, 41, 48, -7, -2, 9, 979, 925, 212,H
2025-03-10 13:35:20.993,874, 244, 491, 7, -5, -31, -8, -3, 8, 960, 872, 567,H
2025-03-10 13:35:21.270,725, 541, 443, -5, 0, -3, -5, -4, 7, 950, 857, 554,I
2025-03-10 13:35:21.327,726, 543, 437, -5, 1, -3, -5, -4, 7, 952, 857, 551,I
2025-03-10 13:35:21.380,724, 532, 438, 0, -1, -4, -6, -2, 7, 949, 863, 559,I
2025-03-10 13:35:21.428,706, 533, 466, -2, -1, -3, -4, -2, 8, 949, 866, 561,I
2025-03-10 13:35:21.491,666, 553, 461, -4, -5, -4, -5, -2, 7, 951, 865, 521,I
2025-03-10 13:35:21.544,858, 707, 577, 3, -13, -16, -7, -2, 7, 963, 903, 274,I
2025-03-10 13:35:21.598,1037, 387, 128, 0, -4, 43, -7, -4, 10, 976, 948, 509,I
2025-03-10 13:35:21.651,696, 547, 554, 5, 9, 13, -8, -5, 10, 968, 939, 683,I
2025-03-10 13:35:21.710,511, 649, 580, -15, -8, -17, -8, -3, 9, 965, 920, 658,I
2025-03-10 13:35:21.770,828, 547, 203, 27, 30, 30, -8, -3, 10, 977, 918, 481,I
2025-03-10 13:35:21.818,688, 395, 437, 1, 23, 13, -7, -3, 9, 970, 859, 518,I
2025-03-10 13:35:21.879,609, 647, 665, -17, -15, -15, -6, -4, 8, 960, 786, 361,I
2025-03-10 13:35:21.942,713, 1139, 275, -16, -12, 37, -6, -2, 11, 977, 942, 558,I
2025-03-10 13:35:21.999,833, 274, 373, -5, 15, -12, -10, -2, 9, 964, 907, 718,I
2025-03-10 13:35:22.311,698, 545, 478, -5, -4, -2, -5, -3, 6, 932, 816, 545,J
2025-03-10 13:35:22.368,709, 533, 478, -3, -5, -2, -3, -3, 8, 933, 819, 552,J
2025-03-10 13:35:22.425,717, 540, 477, -6, -4, -2, -6, -4, 6, 933, 832, 542,J
2025-03-10 13:35:22.479,678, 539, 480, -8, -3, -5, -5, -3, 8, 938, 836, 488,J
2025-03-10 13:35:22.530,572, 532, 583, -6, -16, -5, -5, -2, 7, 939, 830, 378,J
2025-03-10 13:35:22.592,811, 553, 337, 16, -15, -7, -5, -2, 9, 961, 915, 295,J
2025-03-10 13:35:22.647,132, 200, 320, -27, 18, 38, -7, -1, 8, 972, 942, 640,J
2025-03-10 13:35:22.699,552, 411, 580, 3, 1, -10, -9, -3, 8, 960, 906, 717,J
2025-03-10 13:35:22.757,1017, 376, 520, 1, -4, -15, -7, -2, 9, 966, 890, 548,J
2025-03-10 13:35:22.810,526, 644, 246, -28, 32, 39, -7, -3, 9, 977, 909, 123,J
2025-03-10 13:35:22.860,690, 495, 428, -40, 20, 9, -7, -2, 7, 968, 863, 4,J
2025-03-10 13:35:22.925,1129, 576, 194, -13, 38, -38, -6, -1, 7, 932, 683, 170,J
2025-03-10 13:35:22.978,561, 544, 732, -4, -2, -14, -4, -1, 6, 932, 765, 296,J
2025-03-10 13:35:23.253,686, 534, 466, 4, -10, 0, -7, -3, 5, 939, 838, 539,K
2025-03-10 13:35:23.309,703, 531, 462, 3, -10, 0, -7, -2, 8, 939, 835, 551,K
2025-03-10 13:35:23.360,665, 501, 522, 7, -29, 3, -5, -2, 6, 942, 866, 590,K
2025-03-10 13:35:23.412,742, 438, 537, 7, -7, -8, -7, -1, 7, 958, 865, 462,K
2025-03-10 13:35:23.468,811, 562, 365, 4, 39, 34, -5, -3, 8, 962, 801, 14,K
2025-03-10 13:35:23.519,912, 835, 296, -8, 15, 30, -6, -3, 8, 965, 916, 55,K
2025-03-10 13:35:23.579,433, 210, 394, -6, -20, -6, -6, -2, 8, 965, 946, 646,K
2025-03-10 13:35:23.629,748, 604, 277, 21, 17, -7, -6, -4, 8, 953, 844, 693,K
2025-03-10 13:35:23.691,657, 753, 693, 13, -38, 24, -7, -5, 9, 963, 804, 394,K
2025-03-10 13:35:23.749,882, 845, 279, -9, 15, 64, -6, -2, 10, 979, 931, 381,K
2025-03-10 13:35:23.799,816, 360, 438, 9, 6, 2, -8, -2, 8, 967, 879, 645,K
2025-03-10 13:35:23.858,565, 484, 549, -45, 54, -73, -4, -3, 7, 934, 742, 552,K
2025-03-10 13:35:24.153,659, 527, 535, -4, -8, 0, -4, -1, 6, 918, 749, 342,L
2025-03-10 13:35:24.209,663, 537, 558, -2, -11, 0, -4, -2, 5, 920, 765, 340,L
2025-03-10 13:35:24.264,707, 543, 468, 1, -21, 1, -5, -2, 7, 924, 798, 446,L
2025-03-10 13:35:24.318,715, 545, 510, 13, -28, 8, -6, -1, 7, 931, 837, 489,L
2025-03-10 13:35:24.375,730, 607, 372, 5, -1, -5, -6, -3, 7, 938, 864, 479,L
2025-03-10 13:35:24.428,708, 553, 508, -7, -3, -6, -5, -3, 8, 950, 890, 354,L
2025-03-10 13:35:24.480,704, 462, 529, 28, -5, -6, -7, -1, 8, 963, 892, 329,L
2025-03-10 13:35:24.539,1005, 621, 342, 2, 37, 29, -7, -3, 9, 970, 836, 10,L
2025-03-10 13:35:24.592,1128, 722, 696, 41, 1, 35, -7, -2, 8, 977, 931, 8,L
2025-03-10 13:35:24.646,602, 339, 265, -3, -5, 12, -7, -3, 10, 978, 948, 472,L
2025-03-10 13:35:24.705,978, 311, 127, -22, 37, -33, -7, -2, 10, 959, 888, 625,L
2025-03-10 13:35:24.760,500, 481, 785, -50, 22, -35, -5, -1, 5, 941, 673, 12,L
2025-03-10 13:35:25.087,699, 544, 476, 3, -12, 1, -5, -3, 7, 924, 817, 346,M
2025-03-10 13:35:25.141,696, 536, 477, 6, -12, 2, -6, 0, 6, 927, 820, 383,M
2025-03-10 13:35:25.194,699, 547, 467, 13, -12, 9, -5, -1, 7, 935, 841, 469,M
2025-03-10 13:35:25.249,1017, 453, 273, -9, -9, -11, -6, -3, 8, 940, 864, 502,M
2025-03-10 13:35:25.309,702, 362, 757, 16, -18, -15, -8, -2, 8, 966, 898, 405,M
2025-03-10 13:35:25.359,629, 827, 238, 13, 47, 45, -7, -3, 10, 974, 860, 138,M
2025-03-10 13:35:25.418,691, 271, 785, 5, -49, -50, -8, -2, 9, 959, 869, 518,M
2025-03-10 13:35:25.478,854, 559, 531, -6, -19, -12, -7, -4, 11, 965, 940, 613,M
2025-03-10 13:35:25.529,979, 609, 234, -3, 29, 46, -5, -3, 10, 977, 937, 561,M
2025-03-10 13:35:25.592,692, 350, 558, -13, -15, 1, -7, -3, 10, 967, 928, 638,M
2025-03-10 13:35:25.648,731, 423, 701, 20, -19, -11, -7, -4, 12, 971, 931, 667,M
2025-03-10 13:35:25.699,733, 722, 185, -1, 45, 42, -7, -5, 13, 975, 915, 567,M
2025-03-10 13:35:25.761,899, 312, 284, -21, 16, -38, -6, -4, 9, 961, 867, 676,M
2025-03-10 13:35:25.819,627, 537, 617, -32, 12, -34, -5, -3, 7, 948, 856, 632,M
2025-03-10 13:35:26.089,704, 558, 428, -7, -3, -4, -5, -2, 9, 944, 823, 508,N
2025-03-10 13:35:26.149,706, 544, 443, -7, -2, -4, -5, -2, 9, 947, 819, 504,N
2025-03-10 13:35:26.199,709, 548, 434, 1, -7, -7, -7, -3, 8, 945, 823, 505,N
2025-03-10 13:35:26.260,681, 569, 505, -2, -24, -1, -6, -3, 8, 949, 852, 533,N
2025-03-10 13:35:26.312,735, 414, 618, 10, -7, -5, -7, -2, 10, 966, 893, 411,N
2025-03-10 13:35:26.369,625, 647, 171, -8, 47, 47, -5, -4, 8, 973, 865, 17,N
2025-03-10 13:35:26.427,823, 262, 600, 2, -34, -42, -8, -2, 10, 957, 862, 536,N
2025-03-10 13:35:26.488,1020, 131, 425, -15, -18, -12, -8, -4, 11, 963, 934, 628,N
2025-03-10 13:35:26.541,983, 818, 130, 1, 42, 59, -8, -4, 11, 977, 916, 322,N
2025-03-10 13:35:26.599,786, 264, 776, -23, -31, -17, -9, -2, 9, 969, 930, 408,N
2025-03-10 13:35:26.657,765, 436, 429, 28, -11, -6, -8, -3, 9, 944, 892, 706,N
2025-03-10 13:35:26.710,653, 543, 506, -23, 87, -27, -6, -4, 10, 939, 794, 649,N
2025-03-10 13:35:27.018,702, 530, 452, 3, -6, 6, -8, -2, 9, 944, 825, 484,O
2025-03-10 13:35:27.069,710, 524, 456, 4, -6, 6, -7, -4, 8, 945, 824, 489,O
2025-03-10 13:35:27.124,729, 522, 455, 2, -9, 4, -7, -3, 8, 947, 840, 508,O
2025-03-10 13:35:27.177,953, 465, 360, -12, -3, -7, -7, -3, 9, 949, 865, 499,O
2025-03-10 13:35:27.234,673, 538, 501, -9, -9, -19, -7, -3, 9, 954, 902, 324,O
2025-03-10 13:35:27.291,403, 413, 451, 51, -3, -18, -5, -5, 8, 967, 896, 40,O
2025-03-10 13:35:27.348,1130, 889, 269, -63, 44, 64, -6, -4, 11, 978, 923, 16,O
2025-03-10 13:35:27.398,671, 221, 623, -8, -37, -25, -7, -3, 7, 973, 942, 221,O
2025-03-10 13:35:27.459,746, 686, 324, 11, -8, -26, -8, -4, 10, 922, 894, 653,O
2025-03-10 13:35:27.510,690, 594, 431, -43, 77, -27, -5, -4, 8, 914, 807, 471,O
2025-03-10 13:35:27.570,498, 576, 706, -9, 16, 2, -5, -3, 6, 918, 627, 141,O
2025-03-10 13:35:27.873,716, 553, 466, 4, -10, 5, -5, -3, 6, 913, 762, 263,P
2025-03-10 13:35:27.928,725, 551, 468, 2, -9, 5, -5, -3, 6, 914, 764, 276,P
2025-03-10 13:35:27.978,679, 544, 499, 7, -16, 2, -7, -2, 6, 919, 789, 319,P
2025-03-10 13:35:28.028,757, 522, 381, 5, -17, 2, -8, -4, 8, 921, 832, 404,P
2025-03-10 13:35:28.090,723, 512, 460, -1, 0, -5, -6, -4, 8, 927, 867, 360,P
2025-03-10 13:35:28.144,715, 448, 568, 14, -9, -8, -6, -2, 9, 951, 896, 338,P
2025-03-10 13:35:28.199,475, 368, 469, 2, 53, 45, -7, -1, 10, 970, 895, 15,P
2025-03-10 13:35:28.248,688, 455, 310, -6, 22, 11, -8, -3, 9, 967, 897, 18,P
2025-03-10 13:35:28.309,859, 703, 488, 22, -59, -53, -5, -4, 9, 959, 930, 626,P
2025-03-10 13:35:28.359,619, 658, 439, 1, -18, 9, -6, -3, 11, 977, 954, 554,P
2025-03-10 13:35:28.418,551, 474, 278, -28, 41, 14, -7, -6, 10, 976, 942, 320,P
2025-03-10 13:35:28.478,1149, 359, 272, -17, 40, -40, -7, -3, 7, 958, 881, 442,P
2025-03-10 13:35:28.528,506, 596, 762, -4, 5, -8, -5, -3, 7, 951, 870, 438,P
2025-03-10 13:35:28.839,675, 549, 508, 1, -11, 10, -5, -1, 7, 946, 836, 370,Q
2025-03-10 13:35:28.899,670, 548, 515, 6, -15, 12, -6, -3, 9, 946, 839, 392,Q
2025-03-10 13:35:28.953,767, 415, 208, 13, -4, -9, -6, -2, 8, 948, 866, 451,Q
2025-03-10 13:35:29.008,946, 641, 509, -8, -20, -17, -7, -3, 10, 958, 920, 287,Q
2025-03-10 13:35:29.073,597, 415, 761, 65, -13, -29, -6, -2, 10, 967, 910, 163,Q
2025-03-10 13:35:29.125,796, 705, 130, -59, 64, 67, -7, -4, 10, 975, 929, 14,Q
2025-03-10 13:35:29.178,613, 473, 732, 2, -35, -24, -6, -3, 7, 972, 940, 327,Q
2025-03-10 13:35:29.240,966, 538, 26, -2, 39, -29, -8, -2, 8, 952, 903, 533,Q
2025-03-10 13:35:29.292,481, 719, 837, -2, -42, 28, -7, -3, 7, 965, 902, 456,Q
2025-03-10 13:35:29.349,863, 210, 463, -20, -2, 43, -7, -2, 10, 979, 940, 14,Q
2025-03-10 13:35:29.404,673, 614, 511, -1, 16, 30, -8, -2, 8, 971, 887, 110,Q
2025-03-10 13:35:29.462,603, 372, 553, -46, 81, -59, -5, -3, 7, 935, 683, 65,Q
2025-03-10 13:35:29.765,676, 532, 519, -4, -22, -5, -5, -3, 6, 920, 781, 285,R
2025-03-10 13:35:29.823,672, 529, 506, -6, -25, -6, -6, -3, 7, 919, 784, 279,R
2025-03-10 13:35:29.880,1281, 162, -10, -77, -19, -33, -8, -3, 9, 927, 824, 183,R
2025-03-10 13:35:29.933,741, 388, 561, 41, -14, -11, -5, -3, 8, 959, 879, 15,R
2025-03-10 13:35:29.992,843, 878, 332, -21, 62, 65, -7, -2, 8, 971, 869, 13,R
2025-03-10 13:35:30.049,409, -56, 798, 20, -35, -61, -6, -1, 8, 952, 860, 262,R
2025-03-10 13:35:30.109,941, 497, 610, -16, -36, -8, -5, -2, 8, 968, 939, 528,R
2025-03-10 13:35:30.159,643, 886, 308, -12, 17, 33, -7, -3, 9, 976, 942, 280,R
2025-03-10 13:35:30.211,750, 266, 479, -30, 20, 2, -6, -4, 9, 973, 907, 7,R
2025-03-10 13:35:30.273,639, 313, 534, -38, 27, 55, -8, -1, 6, 978, 932, 13,R
2025-03-10 13:35:30.328,927, 279, 114, -12, 38, -45, -10, -1, 6, 971, 908, 15,R
2025-03-10 13:35:30.659,693, 523, 483, 1, -12, 5, -6, -4, 6, 953, 874, 496,S
2025-03-10 13:35:30.713,718, 526, 481, 2, -13, 6, -7, -1, 7, 953, 876, 500,S
2025-03-10 13:35:30.769,703, 513, 484, 3, -17, 7, -7, -3, 8, 960, 887, 501,S
2025-03-10 13:35:30.826,686, 481, 428, -14, -2, -14, -7, -4, 6, 966, 917, 358,S
2025-03-10 13:35:30.878,469, 469, 505, 10, 4, -21, -7, -1, 7, 971, 929, 158,S
2025-03-10 13:35:30.932,826, 687, 213, 22, 28, 21, -7, -4, 9, 980, 940, 288,S
2025-03-10 13:35:30.993,667, 692, 524, -33, 21, 29, -8, -1, 6, 980, 940, 14,S
2025-03-10 13:35:31.043,813, 278, 447, 28, 8, -20, -9, -2, 7, 962, 879, 135,S
2025-03-10 13:35:31.099,757, 498, 359, -31, 65, -39, -5, -4, 6, 947, 836, 223,S
2025-03-10 13:35:31.159,515, 611, 677, -3, -13, -12, -6, -2, 5, 946, 843, 391,S
2025-03-10 13:35:31.451,680, 554, 476, 0, -8, -3, -6, -3, 7, 939, 848, 329,T
2025-03-10 13:35:31.510,650, 548, 498, 0, -10, -4, -6, -3, 8, 943, 851, 341,T
2025-03-10 13:35:31.561,703, 527, 472, -1, -22, 0, -6, -3, 8, 943, 850, 329,T
2025-03-10 13:35:31.620,810, 562, 520, -5, -8, -9, -6, -3, 8, 962, 894, 13,T
2025-03-10 13:35:31.673,734, 536, 58, 10, -9, 47, -7, -2, 10, 977, 942, 430,T
2025-03-10 13:35:31.731,707, 386, 456, 32, 14, 12, -7, -1, 9, 971, 920, 610,T
2025-03-10 13:35:31.788,613, 682, 533, -27, 21, -51, -7, -3, 10, 957, 873, 568,T
2025-03-10 13:35:31.842,686, 1057, 399, 5, 17, 35, -7, -3, 10, 974, 910, 391,T
2025-03-10 13:35:31.898,805, 493, 205, -7, 30, 27, -7, -3, 9, 975, 868, 93,T
2025-03-10 13:35:31.948,945, 391, 318, 2, 6, -46, -7, -3, 8, 940, 781, 487,T
2025-03-10 13:35:32.009,543, 500, 693, -29, 21, -39, -4, -2, 7, 925, 803, 393,T
2025-03-10 13:35:32.308,702, 517, 476, -10, -4, -3, -5, -3, 7, 934, 821, 306,U
2025-03-10 13:35:32.366,704, 507, 481, -8, -4, -5, -5, -2, 7, 936, 822, 299,U
2025-03-10 13:35:32.418,611, 527, 570, 2, -22, 0, -6, -2, 7, 938, 840, 328,U
2025-03-10 13:35:32.472,742, 686, 468, -7, -7, -9, -6, -2, 7, 954, 880, 186,U
2025-03-10 13:35:32.526,911, 773, 331, 40, 41, 36, -6, -4, 9, 972, 878, 36,U
2025-03-10 13:35:32.578,590, 597, 126, -11, 25, 46, -7, -1, 9, 973, 903, 76,U
2025-03-10 13:35:32.640,461, 343, 400, 4, -31, -25, -8, -1, 7, 961, 916, 422,U
2025-03-10 13:35:32.691,692, 416, 732, 7, -16, -12, -7, -4, 9, 965, 919, 472,U
2025-03-10 13:35:32.748,683, 490, 374, -5, 31, 33, -7, -3, 9, 973, 907, 152,U
2025-03-10 13:35:32.799,765, 437, 613, -2, 0, -12, -7, -3, 8, 966, 871, 411,U
2025-03-10 13:35:32.859,698, 471, 652, -35, 28, -42, -6, -4, 7, 934, 844, 423,U
2025-03-10 13:35:33.189,706, 562, 475, -5, -5, -8, -4, -2, 6, 915, 767, 254,V
2025-03-10 13:35:33.241,685, 541, 471, -6, -5, -9, -5, -2, 7, 917, 763, 244,V
2025-03-10 13:35:33.299,688, 532, 509, -6, -16, -7, -4, -1, 5, 918, 774, 166,V
2025-03-10 13:35:33.349,741, 354, 262, 2, -6, -14, -7, 0, 6, 937, 847, 206,V
2025-03-10 13:35:33.409,740, 522, 535, 23, -9, -4, -6, -3, 8, 965, 897, 100,V
2025-03-10 13:35:33.460,417, 889, 303, -63, 44, 58, -5, -3, 9, 974, 880, 13,V
2025-03-10 13:35:33.520,909, 666, 492, -45, -4, 29, -8, -1, 7, 968, 916, 11,V
2025-03-10 13:35:33.578,771, 444, 610, -15, -33, -19, -8, -2, 6, 956, 931, 400,V
2025-03-10 13:35:33.628,939, 310, 166, -30, 52, -14, -9, -3, 7, 930, 881, 479,V
2025-03-10 13:35:33.692,563, 538, 729, -12, 37, -20, -5, -1, 4, 927, 771, 125,V
2025-03-10 13:35:34.009,695, 515, 516, -4, 0, -3, -6, -3, 5, 906, 665, 14,W
2025-03-10 13:35:34.069,699, 506, 528, -4, -2, -3, -6, -2, 6, 903, 670, 18,W
2025-03-10 13:35:34.123,698, 516, 520, 8, -5, -1, -6, -2, 6, 904, 680, 17,W
2025-03-10 13:35:34.172,728, 527, 456, 7, -6, -4, -5, -3, 6, 904, 708, 13,W
2025-03-10 13:35:34.229,701, 536, 514, 0, -5, -4, -4, -2, 7, 904, 737, 125,W
2025-03-10 13:35:34.282,1149, 437, 348, -9, -27, -18, -7, -1, 6, 933, 824, 9,W
2025-03-10 13:35:34.340,875, 453, 464, 59, -9, -4, -6, -2, 7, 964, 893, 14,W
2025-03-10 13:35:34.390,745, 742, 501, -7, 18, 47, -8, -2, 8, 973, 896, 12,W
2025-03-10 13:35:34.440,446, 44, 1024, 7, -42, -17, -8, -2, 8, 967, 929, 189,W
2025-03-10 13:35:34.498,701, 229, 711, 19, -17, -13, -8, -2, 9, 967, 925, 427,W
2025-03-10 13:35:34.558,941, 727, 271, -8, 16, 34, -8, -2, 8, 972, 914, 15,W
2025-03-10 13:35:34.608,766, 315, 659, 8, -30, -15, -9, -2, 8, 969, 930, 10,W
2025-03-10 13:35:34.672,989, 473, 16, -21, 63, -28, -9, -3, 7, 942, 853, 427,W
2025-03-10 13:35:34.988,774, 485, 425, 1, -11, 2, -8, -1, 6, 935, 807, 303,X
2025-03-10 13:35:35.041,761, 489, 439, -1, -10, 1, -7, -1, 6, 935, 810, 307,X
2025-03-10 13:35:35.099,728, 535, 469, -13, -11, 2, -8, -2, 7, 944, 841, 346,X
2025-03-10 13:35:35.149,730, 601, 541, -10, -6, -5, -9, -2, 8, 951, 887, 245,X
2025-03-10 13:35:35.205,701, 467, 559, 3, -4, -4, -9, -2, 8, 964, 911, 15,X
2025-03-10 13:35:35.256,199, 880, 241, 16, 46, 9, -7, -1, 7, 973, 909, 13,X
2025-03-10 13:35:35.309,907, 440, 334, -23, 42, 3, -7, 0, 8, 959, 882, 14,X
2025-03-10 13:35:35.368,525, 811, 644, -14, -23, -50, -7, -2, 8, 940, 900, 453,X
2025-03-10 13:35:35.426,971, 776, 412, 1, -10, 34, -6, -3, 9, 974, 935, 127,X
2025-03-10 13:35:35.478,878, 302, 318, 0, 28, 45, -8, 0, 8, 977, 922, 16,X
2025-03-10 13:35:35.528,868, 459, 140, 9, 17, -69, -9, -2, 6, 956, 873, 16,X
2025-03-10 13:35:36.679,729, 523, 475, -1, -2, 0, -6, -2, 5, 936, 860, 291,Y
2025-03-10 13:35:36.729,733, 521, 463, -2, -1, 0, -7, 0, 8, 934, 859, 291,Y
2025-03-10 13:35:36.779,736, 510, 474, -2, -1, -1, -6, -2, 7, 936, 864, 293,Y
2025-03-10 13:35:36.843,724, 517, 473, -1, -1, -1, -6, -2, 6, 940, 875, 289,Y
2025-03-10 13:35:36.897,733, 521, 453, -2, 0, -1, -6, -2, 6, 942, 880, 286,Y
2025-03-10 13:35:36.952,723, 515, 477, -3, -1, -4, -7, -1, 7, 944, 884, 284,Y
2025-03-10 13:35:37.007,695, 515, 466, -7, -2, -6, -7, 0, 6, 946, 888, 222,Y
2025-03-10 13:35:37.060,793, 602, 585, -19, -9, -19, -7, -3, 7, 955, 901, 13,Y
2025-03-10 13:35:37.118,646, 1073, 240, 22, 16, 58, -7, -2, 8, 976, 935, 278,Y
2025-03-10 13:35:37.174,696, 456, 456, -2, 14, 11, -8, -1, 7, 973, 929, 446,Y
2025-03-10 13:35:37.229,527, 598, 699, -14, -18, -16, -8, -3, 7, 960, 913, 527,Y
2025-03-10 13:35:37.278,1008, 720, 541, 23, 20, 19, -8, -2, 8, 977, 915, 10,Y
2025-03-10 13:35:37.341,782, 469, 148, -1, 29, 19, -8, -3, 10, 974, 862, 14,Y
2025-03-10 13:35:37.394,961, 386, 316, 3, -10, -49, -8, -2, 9, 921, 763, 394,Y
2025-03-10 13:35:37.449,486, 436, 807, -32, 5, -44, -4, -2, 6, 918, 795, 89,Y
2025-03-10 13:35:37.736,728, 524, 464, -1, -2, 0, -7, -1, 7, 943, 832, 187,Z
2025-03-10 13:35:37.789,732, 507, 475, -2, -2, -1, -7, -1, 8, 946, 833, 190,Z
2025-03-10 13:35:37.841,726, 511, 472, -6, 2, -3, -8, -1, 6, 945, 839, 126,Z
2025-03-10 13:35:37.898,712, 519, 494, -1, -3, -2, -6, -3, 7, 948, 846, 78,Z
2025-03-10 13:35:37.949,651, 505, 534, -3, -8, -3, -7, -2, 7, 951, 851, 115,Z
2025-03-10 13:35:38.008,690, 362, 472, -15, -11, -13, -6, -1, 9, 965, 895, 11,Z
2025-03-10 13:35:38.061,424, 371, 349, 38, -4, 26, -9, -3, 10, 978, 932, 453,Z
2025-03-10 13:35:38.121,451, 661, 472, 19, 36, 19, -7, -3, 11, 975, 912, 223,Z
2025-03-10 13:35:38.178,1408, 581, 155, -60, 15, 2, -8, -3, 11, 972, 878, 17,Z
2025-03-10 13:35:38.229,1088, 334, 471, 6, -8, 54, -7, -2, 10, 981, 941, 19,Z
2025-03-10 13:35:38.288,623, 405, 497, 15, 2, -7, -10, -1, 9, 970, 911, 24,Z
2025-03-10 13:35:38.342,407, 644, 837, -41, -1, -55, -6, -4, 8, 957, 781, 106,Z
2025-03-10 13:35:38.399,1056, 971, 432, 22, -40, 20, -9, -2, 10, 979, 936, 201,Z
2025-03-10 13:35:38.458,581, 469, 206, 15, 28, 25, -7, -2, 10, 977, 923, 288,Z
2025-03-10 13:35:38.518,714, 609, 219, -81, 101, -71, -6, -3, 7, 929, 644, 127,Z
2025-03-10 13:35:38.824,583, 716, 428, -6, -24, -8, -2, -4, 7, 874, 674, 357,a
2025-03-10 13:35:38.878,567, 706, 415, -9, -21, -3, -2, -5, 7, 879, 688, 360,a
2025-03-10 13:35:38.939,528, 609, 467, -5, -3, 36, -2, -5, 9, 904, 739, 398,a
2025-03-10 13:35:38.989,659, 592, 320, 2, 1, 49, -5, -4, 9, 914, 777, 453,a
2025-03-10 13:35:39.042,677, 519, 490, 9, 3, 53, -5, -5, 9, 929, 787, 398,a
2025-03-10 13:35:39.099,902, 554, 534, 19, -7, 29, -6, -4, 10, 936, 797, 431,a
2025-03-10 13:35:39.148,665, 471, 445, -9, 11, 5, -7, -3, 9, 944, 812, 422,a
2025-03-10 13:35:39.208,555, 539, 632, 12, -35, 28, -7, -2, 8, 953, 846, 451,a
2025-03-10 13:35:39.267,821, 330, 638, -15, -11, -21, -7, -2, 10, 959, 905, 243,a
2025-03-10 13:35:39.323,917, 427, 393, 17, -10, -20, -7, -3, 9, 969, 905, 15,a
2025-03-10 13:35:39.378,749, 767, 349, -69, 36, 51, -7, -2, 9, 975, 913, 11,a
2025-03-10 13:35:39.440,849, 452, 624, 25, -35, -30, -8, -1, 7, 969, 923, 264,a
2025-03-10 13:35:39.491,767, 787, 173, 11, 26, 21, -7, -3, 9, 972, 926, 351,a
2025-03-10 13:35:39.549,859, 267, 389, -24, 17, -5, -9, -2, 9, 966, 896, 370,a
2025-03-10 13:35:39.604,604, 469, 676, -11, 7, -40, -5, -2, 7, 955, 886, 354,a
2025-03-10 13:35:39.888,797, 561, 372, 0, 1, 17, -6, -3, 9, 950, 836, 502,b
2025-03-10 13:35:39.949,778, 545, 360, -2, 2, 15, -6, -3, 10, 950, 838, 503,b
2025-03-10 13:35:40.004,700, 557, 484, -7, -1, 0, -6, -4, 9, 950, 849, 528,b
2025-03-10 13:35:40.057,637, 563, 528, 0, -29, 3, -7, -3, 10, 951, 884, 561,b
2025-03-10 13:35:40.108,716, 409, 532, 4, 4, -4, -5, -2, 8, 967, 913, 471,b
2025-03-10 13:35:40.168,401, 1184, 35, -48, 57, 56, -7, -2, 10, 974, 889, 86,b
2025-03-10 13:35:40.221,745, 479, 339, -4, 14, 1, -6, -2, 9, 964, 876, 265,b
2025-03-10 13:35:40.278,726, 724, 605, -25, -16, 12, -7, -3, 9, 972, 921, 569,b
2025-03-10 13:35:40.334,482, 920, 229, -17, 17, 24, -8, -2, 7, 977, 928, 120,b
2025-03-10 13:35:40.389,697, 389, 307, -1, 23, -11, -8, -3, 7, 968, 844, 21,b
2025-03-10 13:35:40.440,820, 500, 387, -25, 54, -33, -5, -3, 7, 959, 801, 146,b
2025-03-10 13:35:40.761,719, 506, 499, -4, 2, 3, -8, -3, 6, 956, 787, 184,c
2025-03-10 13:35:40.809,720, 501, 514, -4, 0, 3, -7, -1, 7, 955, 792, 173,c
2025-03-10 13:35:40.869,742, 513, 464, 2, -6, 4, -7, -2, 7, 958, 809, 232,c
2025-03-10 13:35:40.922,590, 491, 632, 6, -24, 10, -7, -3, 7, 961, 838, 196,c
2025-03-10 13:35:40.978,762, 525, 399, -12, -7, -8, -8, -1, 7, 970, 889, 17,c
2025-03-10 13:35:41.028,879, 491, 338, 51, 21, 2, -6, -3, 10, 975, 888, 11,c
2025-03-10 13:35:41.079,1038, 883, 296, -9, 39, 43, -7, -4, 8, 975, 901, 16,c
2025-03-10 13:35:41.139,1019, 302, 166, 16, 29, -38, -8, -2, 7, 964, 882, 448,c
2025-03-10 13:35:41.198,504, 536, 759, -27, 35, -25, -5, -3, 5, 947, 784, 208,c
2025-03-10 13:35:41.258,531, 517, 694, -5, -26, 14, -4, -3, 4, 937, 711, 12,c
2025-03-10 13:35:41.550,714, 474, 535, 4, -5, 6, -7, -3, 5, 942, 753, 10,d
2025-03-10 13:35:41.598,723, 485, 525, 4, -6, 5, -7, -2, 7, 942, 754, 20,d
2025-03-10 13:35:41.649,727, 483, 500, 3, -7, 5, -7, -1, 5, 944, 763, 17,d
2025-03-10 13:35:41.705,732, 489, 486, 4, -5, 5, -7, -2, 7, 947, 785, 17,d
2025-03-10 13:35:41.754,709, 485, 519, 0, -9, 0, -7, -1, 6, 953, 819, 10,d
2025-03-10 13:35:41.809,682, 546, 619, -13, -7, -24, -8, -2, 6, 961, 889, 15,d
2025-03-10 13:35:41.859,794, 489, 301, 34, 16, 1, -8, -3, 8, 972, 894, 11,d
2025-03-10 13:35:41.917,827, 447, 325, -36, 22, 40, -7, 0, 8, 975, 912, 21,d
2025-03-10 13:35:41.974,516, 539, 541, 15, -37, -49, -8, -1, 5, 969, 930, 198,d
2025-03-10 13:35:42.029,749, 393, 497, 37, -17, -17, -9, -1, 5, 973, 916, 337,d
2025-03-10 13:35:42.078,604, 540, 360, 4, 25, 34, -7, -3, 6, 976, 888, 13,d
2025-03-10 13:35:42.139,868, 379, 284, -3, 10, -44, -9, -1, 7, 962, 881, 301,d
2025-03-10 13:35:42.190,618, 562, 652, -2, -2, -20, -6, -2, 4, 947, 880, 334,d
2025-03-10 13:35:42.552,724, 481, 513, 1, 1, 0, -7, -1, 6, 946, 789, 17,e
2025-03-10 13:35:42.599,721, 488, 519, 2, 1, 0, -7, 0, 7, 948, 790, 13,e
2025-03-10 13:35:42.654,727, 490, 502, -2, 2, 1, -8, 0, 5, 948, 787, 15,e
2025-03-10 13:35:42.704,698, 493, 516, 2, 0, 0, -7, -2, 6, 951, 772, 5,e
2025-03-10 13:35:42.757,654, 460, 610, 10, -13, 7, -6, 0, 6, 951, 780, 10,e
2025-03-10 13:35:42.808,896, 617, 367, 13, 6, 13, -6, -2, 6, 965, 859, 14,e
2025-03-10 13:35:42.864,710, 480, 660, -12, -10, 3, -7, -1, 5, 969, 897, 10,e
2025-03-10 13:35:42.921,645, 327, 637, 17, -13, -33, -8, -1, 7, 966, 900, 201,e
2025-03-10 13:35:42.978,845, 1078, 77, -18, 29, 39, -8, -1, 8, 977, 902, 11,e
2025-03-10 13:35:43.031,719, 253, 701, 6, -7, 12, -9, -2, 6, 972, 901, 267,e
2025-03-10 13:35:43.089,522, 423, 788, -1, 26, -13, -6, -1, 6, 962, 878, 312,e
2025-03-10 13:35:43.138,669, 529, 580, 7, -9, 8, -7, -1, 6, 960, 863, 297,e
2025-03-10 13:35:43.442,715, 492, 522, 3, 4, 4, -7, -1, 7, 951, 743, 13,f
2025-03-10 13:35:43.489,716, 485, 523, 3, 3, 5, -7, -1, 7, 954, 739, 7,f
2025-03-10 13:35:43.542,715, 487, 504, 2, 1, 9, -6, -1, 5, 949, 735, 11,f
2025-03-10 13:35:43.588,745, 502, 483, -2, -4, 9, -7, -1, 8, 952, 754, 8,f
2025-03-10 13:35:43.649,749, 501, 476, -13, 2, -6, -8, -2, 7, 960, 806, 10,f
2025-03-10 13:35:43.706,614, 377, 729, -18, -43, -36, -8, -2, 6, 966, 911, 14,f
2025-03-10 13:35:43.764,624, 287, 679, -1, -27, -13, -7, 0, 6, 972, 939, 386,f
2025-03-10 13:35:43.819,731, 618, 275, 26, 13, 26, -7, -2, 9, 973, 920, 465,f
2025-03-10 13:35:43.876,618, 576, 342, 1, 47, -51, -8, -2, 7, 964, 894, 257,f
2025-03-10 13:35:43.933,1058, -104, -422, 79, -4, -27, -5, -2, 7, 972, 915, 283,f
2025-03-10 13:35:43.990,372, 926, 420, -17, -2, 42, -7, -3, 10, 979, 935, 352,f
2025-03-10 13:35:44.043,884, 275, 309, 1, 25, -24, -7, -2, 7, 965, 873, 526,f
2025-03-10 13:35:44.099,612, 532, 632, -19, 29, -22, -8, -3, 5, 957, 756, 312,f
2025-03-10 13:35:44.359,736, 503, 484, -4, -2, 5, -8, -3, 9, 954, 758, 285,g
2025-03-10 13:35:44.416,719, 489, 477, -4, -2, 6, -7, -1, 8, 953, 762, 273,g
2025-03-10 13:35:44.470,716, 502, 494, 0, -8, 5, -8, 0, 8, 956, 784, 230,g
2025-03-10 13:35:44.523,732, 477, 461, -18, -1, -5, -8, -2, 7, 963, 828, 106,g
2025-03-10 13:35:44.578,675, 578, 509, -8, -6, -12, -6, -2, 7, 968, 881, 10,g
2025-03-10 13:35:44.628,945, 316, 420, 37, 15, -4, -6, -2, 7, 974, 877, 13,g
2025-03-10 13:35:44.687,687, 534, 274, -8, 18, 44, -7, -1, 9, 981, 907, 10,g
2025-03-10 13:35:44.742,682, 207, 583, 22, -32, -37, -7, -1, 7, 969, 911, 269,g
2025-03-10 13:35:44.794,660, 664, 423, 12, 5, 7, -8, -3, 8, 974, 907, 188,g
2025-03-10 13:35:44.854,402, 526, 298, -37, 35, 33, -7, -1, 7, 975, 876, 20,g
2025-03-10 13:35:44.906,934, 223, 494, 16, 1, -63, -10, -1, 4, 954, 683, 15,g
2025-03-10 13:35:44.959,722, 488, 686, -23, 33, -59, -6, -1, 4, 889, 750, 7,g
2025-03-10 13:35:45.238,708, 500, 501, -1, -5, 0, -7, -2, 6, 899, 741, 36,h
2025-03-10 13:35:45.292,697, 497, 521, 0, -5, 1, -7, -2, 4, 900, 743, 60,h
2025-03-10 13:35:45.349,700, 509, 507, 5, -12, -1, -7, -2, 5, 906, 761, 114,h
2025-03-10 13:35:45.403,615, 504, 602, 8, -30, 2, -4, -2, 6, 919, 802, 263,h
2025-03-10 13:35:45.459,715, 501, 422, -3, 1, -1, -7, -3, 7, 956, 867, 265,h
2025-03-10 13:35:45.508,237, 700, 331, 29, 41, 60, -8, -1, 8, 974, 861, 8,h
2025-03-10 13:35:45.562,771, 576, 301, 0, 14, 8, -7, -3, 7, 967, 867, 17,h
2025-03-10 13:35:45.620,697, 639, 573, 2, -32, -22, -6, -3, 7, 971, 901, 215,h
2025-03-10 13:35:45.673,945, 510, 218, -23, 27, 43, -8, -1, 9, 977, 882, 17,h
2025-03-10 13:35:45.728,924, 256, 308, -26, 33, -37, -8, 0, 7, 964, 799, 15,h
2025-03-10 13:35:45.779,647, 449, 664, -22, 18, -39, -6, 0, 5, 941, 758, 7,h
2025-03-10 13:35:46.065,725, 470, 513, -3, -3, 2, -6, -1, 4, 938, 756, 15,i
2025-03-10 13:35:46.115,707, 445, 520, 0, -3, 2, -7, -1, 6, 939, 759, 11,i
2025-03-10 13:35:46.169,714, 475, 509, 3, -5, 3, -6, -2, 4, 938, 761, 17,i
2025-03-10 13:35:46.222,728, 463, 496, 2, -4, 2, -6, -2, 6, 939, 766, 13,i
2025-03-10 13:35:46.271,743, 487, 483, -1, -2, 2, -6, -2, 8, 946, 775, 5,i
2025-03-10 13:35:46.325,733, 472, 526, -2, 0, 0, -7, -1, 5, 946, 780, 12,i
2025-03-10 13:35:46.379,733, 473, 512, -1, -1, 1, -7, -2, 8, 948, 778, 13,i
2025-03-10 13:35:46.429,736, 498, 500, -1, -4, 2, -7, -1, 6, 950, 784, 5,i
2025-03-10 13:35:46.480,727, 468, 522, 0, -2, -1, -7, -2, 6, 947, 786, 8,i
2025-03-10 13:35:46.528,736, 481, 498, -2, 0, 0, -9, -2, 7, 948, 788, 11,i
2025-03-10 13:35:46.587,732, 469, 502, -1, -1, 1, -8, -2, 4, 949, 788, 6,i
2025-03-10 13:35:46.640,745, 481, 501, -2, -1, 0, -8, -2, 6, 949, 792, 10,i
2025-03-10 13:35:46.689,722, 466, 518, 0, -4, -2, -9, 0, 6, 948, 801, 17,i
2025-03-10 13:35:46.741,747, 365, 279, -1, 0, -15, -7, -1, 7, 960, 858, 6,i
2025-03-10 13:35:46.798,674, 526, 491, 15, -6, -8, -7, -1, 6, 973, 892, 13,i
2025-03-10 13:35:46.853,645, 718, 159, -12, 30, 33, -8, -1, 6, 976, 860, 6,i
2025-03-10 13:35:46.908,742, 586, 237, 14, -16, -76, -8, -1, 7, 960, 873, 318,i
2025-03-10 13:35:46.958,805, 639, 430, -25, -16, -2, -7, 0, 7, 971, 922, 189,i
2025-03-10 13:35:47.021,768, 391, 658, -7, 13, 29, -8, -2, 6, 964, 871, 266,i
2025-03-10 13:35:47.330,725, 452, 484, 2, 1, 9, -8, -1, 7, 955, 777, 17,j
2025-03-10 13:35:47.385,736, 461, 476, 2, 0, 8, -8, -1, 8, 955, 776, 10,j
2025-03-10 13:35:47.440,743, 430, 482, 0, -2, -2, -10, -2, 7, 956, 786, 3,j
2025-03-10 13:35:47.489,742, 451, 519, -7, 0, -8, -9, -3, 8, 955, 812, 11,j
2025-03-10 13:35:47.538,706, 592, 473, -4, 11, 15, -8, -1, 6, 971, 847, 13,j
2025-03-10 13:35:47.602,738, 617, 359, -51, 19, 31, -8, -2, 6, 975, 854, 16,j
2025-03-10 13:35:47.655,1014, 142, 334, 59, -41, -124, -8, 0, 5, 959, 858, 9,j
2025-03-10 13:35:47.716,192, 470, -1133, -131, -74, -24, -7, 1, 5, 975, 927, 11,j
2025-03-10 13:35:47.770,845, 544, 185, 15, 28, 24, -8, -1, 7, 975, 895, 12,j
2025-03-10 13:35:47.822,758, 360, 222, -15, 54, -25, -8, -2, 6, 961, 787, 14,j
2025-03-10 13:35:47.878,606, 519, 640, -5, 26, -17, -7, -1, 3, 957, 743, 15,j
2025-03-10 13:35:48.173,728, 487, 498, 0, -7, 0, -8, -2, 7, 947, 740, 20,k
2025-03-10 13:35:48.228,737, 482, 490, 0, -8, 0, -8, -1, 7, 949, 746, 14,k
2025-03-10 13:35:48.279,738, 479, 475, -6, -6, -3, -8, 0, 6, 952, 784, 6,k
2025-03-10 13:35:48.336,737, 481, 620, -18, -5, -7, -7, 1, 6, 960, 854, 13,k
2025-03-10 13:35:48.389,703, 430, 445, 31, -7, -6, -8, -2, 6, 971, 851, 16,k
2025-03-10 13:35:48.443,695, 746, 343, -24, 27, 31, -7, -1, 8, 970, 795, 16,k
2025-03-10 13:35:48.498,551, 399, 530, -21, -4, 23, -8, 2, 6, 973, 912, 10,k
2025-03-10 13:35:48.553,607, 392, 636, 25, -13, 0, -8, -1, 7, 967, 905, 13,k
2025-03-10 13:35:48.609,758, 487, 321, 26, 14, -45, -10, -1, 7, 952, 722, 13,k
2025-03-10 13:35:48.658,901, 645, 324, 5, 1, 26, -9, -2, 8, 973, 861, 11,k
2025-03-10 13:35:48.711,702, 288, 492, 1, 10, 33, -8, -1, 7, 971, 875, 10,k
2025-03-10 13:35:48.771,751, 499, 264, -8, 49, -54, -8, -2, 8, 938, 749, 105,k
2025-03-10 13:35:49.039,750, 502, 466, 0, -7, 1, -8, -3, 7, 927, 746, 155,l
2025-03-10 13:35:49.102,757, 495, 458, -2, -7, 2, -8, -2, 8, 928, 747, 156,l
2025-03-10 13:35:49.155,765, 470, 441, -2, -4, -1, -8, -1, 8, 935, 766, 157,l
2025-03-10 13:35:49.209,751, 512, 476, -5, -2, -1, -9, -2, 7, 935, 788, 158,l
2025-03-10 13:35:49.258,736, 479, 492, -5, -3, -3, -8, -2, 7, 940, 795, 153,l
2025-03-10 13:35:49.319,745, 493, 463, -7, -2, -4, -7, -2, 7, 943, 815, 143,l
2025-03-10 13:35:49.376,746, 508, 455, -10, -1, -5, -9, 0, 8, 947, 838, 136,l
2025-03-10 13:35:49.429,705, 397, 557, -19, -11, -15, -7, -1, 8, 956, 886, 13,l
2025-03-10 13:35:49.486,717, 436, 530, 32, -11, -10, -8, -2, 7, 967, 894, 12,l
2025-03-10 13:35:49.540,1010, 429, 469, 9, 19, 21, -6, -2, 7, 973, 843, 9,l
2025-03-10 13:35:49.590,711, 377, 627, -34, 12, 21, -7, -3, 7, 975, 861, 15,l
2025-03-10 13:35:49.644,742, 450, 499, 9, 3, 5, -8, -2, 7, 968, 836, 12,l
2025-03-10 13:35:49.698,886, 534, 97, -50, 64, -51, -7, -2, 6, 938, 710, 7,l
2025-03-10 13:35:49.752,508, 538, 788, -5, -3, -12, -5, 1, 4, 934, 722, 5,l
2025-03-10 13:35:49.808,636, 492, 593, 19, -31, 17, -6, -1, 4, 929, 719, 16,l
2025-03-10 13:35:50.078,723, 496, 495, 3, 0, 1, -8, -2, 4, 940, 724, 4,m
2025-03-10 13:35:50.133,716, 500, 476, 2, -1, 1, -8, -2, 4, 939, 728, 14,m
2025-03-10 13:35:50.187,735, 495, 471, -2, -3, -3, -8, -3, 7, 940, 741, 19,m
2025-03-10 13:35:50.238,892, 397, 152, -5, -7, -19, -8, -2, 9, 953, 815, 12,m
2025-03-10 13:35:50.288,702, 599, 402, 19, 4, 7, -7, -2, 8, 969, 857, 17,m
2025-03-10 13:35:50.338,903, 524, 373, -1, 21, 27, -5, -3, 8, 976, 857, 8,m
2025-03-10 13:35:50.403,535, -123, 799, 5, -35, -32, -8, -2, 6, 966, 887, 13,m
2025-03-10 13:35:50.456,706, 363, 624, 4, -13, 3, -8, -2, 7, 978, 909, 8,m
2025-03-10 13:35:50.508,606, 747, 411, -41, 23, 33, -7, -1, 6, 978, 899, 13,m
2025-03-10 13:35:50.568,958, 129, 704, 3, -19, -30, -8, -2, 6, 974, 900, 11,m
2025-03-10 13:35:50.612,588, 648, 581, 20, -6, 5, -8, -2, 6, 978, 913, 4,m
2025-03-10 13:35:50.670,800, 472, 401, 3, 20, 24, -9, -1, 7, 977, 891, 9,m
2025-03-10 13:35:50.720,692, 447, 464, -11, 31, -41, -7, 0, 7, 964, 847, 17,m
2025-03-10 13:35:51.041,696, 462, 506, -5, 3, -4, -6, -2, 6, 943, 719, 15,n
2025-03-10 13:35:51.090,697, 456, 520, -3, 2, -5, -7, -2, 7, 941, 728, 9,n
2025-03-10 13:35:51.142,716, 498, 487, -2, 0, -4, -7, 0, 7, 942, 738, 12,n
2025-03-10 13:35:51.198,722, 497, 504, 2, -8, -2, -6, -2, 6, 943, 766, 12,n
2025-03-10 13:35:51.252,797, 359, 179, -4, 1, -11, -7, 0, 7, 955, 829, 10,n
2025-03-10 13:35:51.306,648, 640, 324, 28, 19, 17, -7, -2, 8, 971, 855, 12,n
2025-03-10 13:35:51.359,778, 543, 272, -7, 6, 11, -9, -1, 10, 972, 861, 11,n
2025-03-10 13:35:51.416,682, 446, 637, -7, -49, -28, -7, -1, 7, 966, 893, 12,n
2025-03-10 13:35:51.470,861, 469, 508, -7, 11, 25, -8, -1, 9, 976, 899, 14,n
2025-03-10 13:35:51.522,805, 392, 333, 4, 19, 18, -9, -1, 7, 970, 856, 18,n
2025-03-10 13:35:51.579,693, 486, 527, -13, 49, -39, -9, -1, 7, 952, 819, 16,n
2025-03-10 13:35:51.868,726, 458, 498, 3, -8, 7, -7, -2, 5, 951, 757, 10,o
2025-03-10 13:35:51.919,727, 458, 500, 5, -8, 7, -7, -2, 5, 953, 756, 10,o
2025-03-10 13:35:51.972,712, 466, 513, 4, -10, 4, -8, -2, 8, 954, 783, 13,o
2025-03-10 13:35:52.022,746, 576, 491, 5, 0, -1, -9, -2, 8, 952, 823, 16,o
2025-03-10 13:35:52.078,704, 446, 503, -8, 1, -7, -9, -2, 6, 956, 860, 12,o
2025-03-10 13:35:52.132,518, 423, 608, 4, -8, -29, -6, -2, 6, 960, 887, 14,o
2025-03-10 13:35:52.186,1183, 1314, 53, -1, 40, 58, -8, -1, 6, 974, 893, 19,o
2025-03-10 13:35:52.238,769, 450, 906, -18, -19, 4, -10, -2, 6, 974, 916, 7,o
2025-03-10 13:35:52.288,752, 543, 330, 51, -19, -24, -8, -3, 9, 947, 892, 9,o
2025-03-10 13:35:52.354,682, 461, 442, -40, 72, -20, -7, 0, 8, 923, 828, 15,o
2025-03-10 13:35:52.405,541, 515, 749, -16, 13, 7, -6, -1, 6, 926, 721, 10,o
2025-03-10 13:35:52.680,728, 496, 501, -3, -4, -4, -7, -1, 7, 922, 711, 6,p
2025-03-10 13:35:52.735,723, 484, 489, -3, -5, -5, -7, -1, 7, 920, 713, 6,p
2025-03-10 13:35:52.787,696, 481, 523, 2, -15, -5, -8, -2, 7, 914, 725, 13,p
2025-03-10 13:35:52.838,750, 479, 454, -16, 2, -1, -9, -3, 7, 936, 758, 13,p
2025-03-10 13:35:52.899,616, 640, 419, -28, 52, 66, -9, -1, 8, 971, 788, 7,p
2025-03-10 13:35:52.952,820, 386, 360, -11, 10, 13, -9, -1, 5, 969, 816, 11,p
2025-03-10 13:35:53.009,600, 471, 575, 73, -50, -91, -6, -1, 7, 949, 881, 11,p
2025-03-10 13:35:53.058,597, 395, 721, 1, -24, 5, -6, -2, 8, 972, 930, 14,p
2025-03-10 13:35:53.112,776, 543, 172, -12, 29, 36, -8, -1, 7, 975, 921, 13,p
2025-03-10 13:35:53.169,876, 274, 436, 5, 23, -1, -8, -2, 9, 961, 812, 8,p
2025-03-10 13:35:53.220,674, 457, 555, -44, 62, -34, -7, -1, 6, 946, 737, 6,p
2025-03-10 13:35:53.518,727, 473, 490, -3, 0, -1, -9, -2, 6, 938, 763, 9,q
2025-03-10 13:35:53.573,711, 480, 510, -3, 0, 1, -9, -2, 6, 939, 768, 12,q
2025-03-10 13:35:53.621,701, 485, 535, 5, -10, 6, -9, 0, 7, 944, 782, 13,q
2025-03-10 13:35:53.684,731, 467, 460, -1, -14, -8, -10, -2, 7, 951, 807, 14,q
2025-03-10 13:35:53.739,654, 446, 612, -21, -7, -18, -7, -1, 7, 961, 881, 10,q
2025-03-10 13:35:53.788,1085, 285, 612, 16, -8, -19, -8, -1, 8, 969, 877, 11,q
2025-03-10 13:35:53.848,997, 448, 227, 0, 27, 32, -8, -1, 7, 976, 901, 13,q
2025-03-10 13:35:53.902,559, 317, 667, 5, -18, -15, -8, -1, 7, 973, 924, 5,q
2025-03-10 13:35:53.954,791, 597, 418, 26, 3, -3, -8, -3, 6, 977, 907, 8,q
2025-03-10 13:35:54.008,485, 410, 279, -27, 30, 41, -10, 0, 8, 976, 852, 9,q
2025-03-10 13:35:54.061,714, 250, 718, -1, -16, -2, -9, 0, 7, 977, 917, 7,q
2025-03-10 13:35:54.119,911, 399, 129, -19, 63, -34, -9, -1, 5, 961, 896, 18,q
2025-03-10 13:35:54.411,719, 476, 538, -6, -2, 1, -7, -2, 5, 950, 780, 10,r
2025-03-10 13:35:54.468,722, 467, 525, -5, -4, 1, -7, -2, 5, 950, 779, 8,r
2025-03-10 13:35:54.520,687, 469, 550, 4, -14, -3, -7, -1, 6, 949, 804, 15,r
2025-03-10 13:35:54.572,829, 572, 508, -1, 4, -9, -8, 0, 5, 958, 860, 10,r
2025-03-10 13:35:54.621,670, 729, 503, 24, 28, 32, -6, -2, 6, 970, 869, 11,r
2025-03-10 13:35:54.684,822, 416, 295, -26, 14, 14, -7, 0, 6, 973, 882, 15,r
2025-03-10 13:35:54.738,733, 652, 435, 4, -27, -21, -8, 0, 4, 970, 929, 21,r
2025-03-10 13:35:54.788,793, 622, 357, -2, 16, 27, -9, -1, 6, 973, 910, 12,r
2025-03-10 13:35:54.839,623, 421, 591, -21, 44, -16, -9, 1, 5, 967, 858, 15,r
2025-03-10 13:35:54.888,608, 447, 672, 7, -14, -1, -7, 0, 3, 961, 828, 15,r
2025-03-10 13:35:55.171,748, 442, 495, 1, -13, 8, -9, 0, 5, 965, 845, 16,s
2025-03-10 13:35:55.229,740, 441, 513, -1, -13, 7, -8, 0, 6, 966, 850, 13,s
2025-03-10 13:35:55.279,725, 448, 521, -22, -2, -8, -10, 1, 5, 969, 888, 15,s
2025-03-10 13:35:55.335,822, 519, 482, 11, 0, -7, -8, 0, 7, 974, 910, 11,s
2025-03-10 13:35:55.388,978, 467, 429, 27, 14, 11, -8, 0, 7, 981, 915, 15,s
2025-03-10 13:35:55.438,640, 449, 599, -25, 23, 26, -7, 0, 6, 979, 906, 16,s
2025-03-10 13:35:55.489,714, 89, 599, 45, -4, -35, -9, 1, 5, 963, 829, 17,s
2025-03-10 13:35:55.552,711, 438, 505, -49, 61, -42, -8, -1, 6, 954, 811, 12,s
2025-03-10 13:35:55.604,497, 572, 759, -1, -19, -3, -7, 0, 3, 955, 816, 18,s
2025-03-10 13:35:55.919,714, 454, 515, -5, -7, -4, -8, -1, 5, 958, 841, 12,t
2025-03-10 13:35:55.973,717, 472, 505, -5, -6, -4, -8, 0, 5, 958, 843, 10,t
2025-03-10 13:35:56.028,729, 440, 542, -4, -14, -2, -7, 1, 4, 959, 860, 12,t
2025-03-10 13:35:56.086,707, 449, 565, -2, -24, -1, -8, 0, 6, 958, 877, 11,t
2025-03-10 13:35:56.140,719, 367, 617, -5, -5, -10, -9, -1, 4, 965, 894, 19,t
2025-03-10 13:35:56.188,1871, 775, 495, 76, 37, 36, -8, -3, 6, 978, 872, 9,t
2025-03-10 13:35:56.249,637, 771, 119, -23, 33, 35, -10, -1, 7, 977, 888, 9,t
2025-03-10 13:35:56.306,743, 483, 285, 13, -13, -88, -9, -2, 7, 962, 863, 14,t
2025-03-10 13:35:56.358,823, 821, 272, 5, -11, -15, -8, -2, 6, 970, 910, 14,t
2025-03-10 13:35:56.409,827, 480, 267, -23, 8, 60, -8, -2, 8, 981, 934, 5,t
2025-03-10 13:35:56.470,855, 263, 397, 25, 20, -18, -10, -1, 7, 966, 883, 155,t
2025-03-10 13:35:56.520,645, 506, 695, -28, 41, -30, -6, -2, 6, 955, 765, 12,t
2025-03-10 13:35:56.798,731, 467, 490, -6, -4, -2, -8, -1, 8, 959, 774, 7,u
2025-03-10 13:35:56.851,735, 476, 481, -7, -4, -3, -9, 0, 5, 958, 772, 17,u
2025-03-10 13:35:56.900,723, 468, 517, -8, -5, -4, -8, -2, 8, 961, 783, 11,u
2025-03-10 13:35:56.960,729, 458, 531, -24, 1, -5, -7, 0, 7, 964, 843, 6,u
2025-03-10 13:35:57.010,807, 518, 431, 37, 11, 11, -9, -1, 6, 973, 854, 12,u
2025-03-10 13:35:57.068,903, 465, 218, 11, 13, 41, -8, 0, 7, 976, 874, 11,u
2025-03-10 13:35:57.119,479, 139, 788, 3, -34, -26, -10, -1, 6, 968, 881, 7,u
2025-03-10 13:35:57.179,676, 364, 682, 28, -13, -13, -9, -2, 6, 971, 877, 14,u
2025-03-10 13:35:57.228,833, 499, 307, 8, 24, 26, -8, 0, 6, 971, 865, 17,u
2025-03-10 13:35:57.285,851, 359, 337, -4, 15, -47, -10, 0, 7, 964, 831, 13,u
2025-03-10 13:35:57.639,737, 453, 504, 4, -3, -1, -7, -1, 4, 944, 703, 9,v
2025-03-10 13:35:57.692,735, 468, 500, 5, -2, -2, -8, -1, 7, 943, 707, 17,v
2025-03-10 13:35:57.741,712, 458, 533, 5, -5, -5, -6, -3, 7, 944, 740, 5,v
2025-03-10 13:35:57.793,750, 469, 500, 0, -3, -1, -7, -1, 6, 942, 761, 9,v
2025-03-10 13:35:57.851,670, 463, 574, 0, -9, -4, -7, -1, 6, 943, 775, 11,v
2025-03-10 13:35:57.901,732, 530, 577, -25, -4, -5, -6, 0, 6, 961, 850, 7,v
2025-03-10 13:35:57.952,841, 757, 506, 19, 20, 44, -7, -1, 6, 972, 857, 16,v
2025-03-10 13:35:58.009,825, 537, 423, -26, 10, 28, -8, 0, 6, 977, 879, 7,v
2025-03-10 13:35:58.067,745, 489, 352, -24, -17, -21, -9, 0, 7, 972, 922, 11,v
2025-03-10 13:35:58.119,957, 595, 368, 34, 7, -6, -10, 0, 7, 956, 867, 11,v
2025-03-10 13:35:58.169,604, 489, 689, -23, 66, -27, -8, -1, 5, 946, 754, 18,v
2025-03-10 13:35:58.229,548, 499, 719, 13, -23, 5, -7, 0, 2, 939, 703, 10,v
2025-03-10 13:35:58.539,742, 493, 495, -2, 1, 0, -5, -1, 7, 930, 680, 15,w
2025-03-10 13:35:58.588,733, 482, 501, -2, 1, 0, -8, -3, 7, 930, 675, 14,w
2025-03-10 13:35:58.638,706, 483, 507, 0, -2, 0, -8, -1, 4, 934, 683, 9,w
2025-03-10 13:35:58.688,751, 468, 500, 4, -9, -4, -6, -2, 6, 934, 705, 9,w
2025-03-10 13:35:58.739,641, 443, 524, -1, -19, -8, -7, -1, 7, 943, 757, 12,w
2025-03-10 13:35:58.802,765, 400, 575, -12, -6, -9, -7, -2, 7, 960, 849, 18,w
2025-03-10 13:35:58.852,468, 911, 243, 13, 24, 71, -9, -2, 8, 974, 868, 13,w
2025-03-10 13:35:58.911,878, 500, 493, -27, 2, 18, -7, -1, 6, 972, 890, 14,w
2025-03-10 13:35:58.961,813, 346, 531, 9, -22, -23, -8, 0, 5, 968, 897, 17,w
2025-03-10 13:35:59.019,842, 495, 454, -14, 30, 53, -9, -1, 8, 972, 878, 12,w
2025-03-10 13:35:59.068,800, 208, 720, -45, -9, 5, -9, -1, 7, 973, 910, 14,w
2025-03-10 13:35:59.128,898, 457, 436, 39, -7, -19, -9, 0, 7, 959, 871, 5,w
2025-03-10 13:35:59.178,614, 400, 680, -19, 67, -38, -8, -1, 4, 950, 809, 17,w
2025-03-10 13:35:59.235,507, 514, 801, 4, -1, -5, -6, 0, 4, 945, 749, 13,w
2025-03-10 13:35:59.538,760, 469, 477, 3, -2, 3, -9, -1, 6, 944, 709, 8,x
2025-03-10 13:35:59.590,754, 470, 477, 4, -1, 4, -8, -2, 7, 943, 717, 4,x
2025-03-10 13:35:59.639,731, 448, 509, 1, -7, 2, -9, 0, 6, 943, 744, 12,x
2025-03-10 13:35:59.690,720, 452, 497, -3, -10, 5, -9, -2, 5, 950, 782, 10,x
2025-03-10 13:35:59.744,737, 405, 561, -32, -3, -4, -7, 1, 6, 961, 859, 6,x
2025-03-10 13:35:59.804,224, 357, 529, 24, 4, -10, -8, -1, 7, 968, 873, 12,x
2025-03-10 13:35:59.856,963, 371, 46, -26, 39, 16, -9, 0, 7, 965, 789, 14,x
2025-03-10 13:35:59.909,567, 348, 469, 33, -7, -75, -7, -1, 6, 949, 809, 15,x
2025-03-10 13:35:59.964,836, 914, 826, 10, -25, 0, -6, -2, 7, 971, 898, 13,x
2025-03-10 13:36:00.017,986, 117, 348, -2, 26, 58, -9, -2, 9, 976, 895, 14,x
2025-03-10 13:36:00.069,844, 253, 285, 17, 0, -58, -8, 0, 7, 964, 854, 12,x
2025-03-10 13:36:00.375,757, 484, 482, -2, -1, 1, -7, -2, 7, 951, 796, 18,y
2025-03-10 13:36:00.428,741, 485, 490, -5, -1, 1, -8, -1, 8, 950, 799, 17,y
2025-03-10 13:36:00.484,743, 483, 453, -8, -2, -3, -7, -1, 8, 956, 818, 12,y
2025-03-10 13:36:00.533,807, 375, 366, -7, 0, -12, -8, -1, 8, 964, 865, 10,y
2025-03-10 13:36:00.589,923, 687, 384, 16, 19, 36, -9, -2, 7, 975, 896, 13,y
2025-03-10 13:36:00.642,706, 252, 567, -17, 9, 21, -9, 0, 7, 976, 909, 8,y
2025-03-10 13:36:00.702,655, 436, 558, 25, -10, -24, -9, -1, 8, 967, 893, 248,y
2025-03-10 13:36:00.751,743, 626, 554, 0, 23, 44, -10, -2, 6, 978, 898, 6,y
2025-03-10 13:36:00.811,773, 208, 517, -40, 24, 19, -10, -1, 8, 970, 839, 13,y
2025-03-10 13:36:00.860,1121, 514, 194, 1, 32, -62, -8, -1, 5, 922, 673, 11,y
2025-03-10 13:36:00.920,407, 454, 984, -8, -17, -18, -6, 0, 3, 924, 752, 11,y
2025-03-10 13:36:01.211,741, 456, 486, -3, -1, 0, -7, -1, 7, 939, 742, 7,z
2025-03-10 13:36:01.269,733, 457, 503, -3, -1, 0, -7, -1, 7, 936, 743, 10,z
2025-03-10 13:36:01.323,702, 471, 531, -8, -2, -6, -9, 1, 6, 942, 763, 11,z
2025-03-10 13:36:01.372,594, 456, 663, 3, -35, -4, -7, -1, 7, 946, 785, 17,z
2025-03-10 13:36:01.430,904, 427, 439, 35, -7, -3, -7, -2, 6, 969, 897, 17,z
2025-03-10 13:36:01.484,781, 602, 672, 39, -6, 23, -8, -1, 6, 977, 914, 12,z
2025-03-10 13:36:01.537,406, 354, 386, 12, 37, 8, -9, -2, 7, 974, 868, 14,z
2025-03-10 13:36:01.586,867, 460, 540, 0, 7, -3, -7, -1, 6, 971, 847, 9,z
2025-03-10 13:36:01.639,879, 372, 424, -9, -5, 33, -8, -1, 8, 974, 916, 14,z
2025-03-10 13:36:01.691,770, 126, 414, 14, 4, -45, -10, -2, 9, 967, 863, 5,z
2025-03-10 13:36:01.749,713, 582, 979, 37, -36, -1, -6, -2, 7, 959, 792, 15,z
2025-03-10 13:36:01.802,777, 743, 434, -28, -13, 39, -8, -3, 8, 981, 928, 16,z
2025-03-10 13:36:01.859,567, 219, 504, 23, 5, 9, -10, -1, 8, 968, 856, 15,z
2025-03-10 13:36:01.917,624, 439, 384, -74, 94, -65, -8, -2, 6, 936, 558, 13,z
2025-03-10 13:36:02.212,649, 485, 604, -5, -5, -43, -4, -2, 3, 726, 40, 10,0
2025-03-10 13:36:02.266,629, 516, 569, -5, -4, -43, -3, -2, 6, 716, 12, 6,0
2025-03-10 13:36:02.319,659, 512, 545, 8, -16, -60, -3, -2, 5, 670, 12, 17,0
2025-03-10 13:36:02.368,610, 653, 507, 11, -11, -69, -1, -3, 3, 621, 52, 13,0
2025-03-10 13:36:02.428,550, 634, 572, 3, -13, -62, -1, -3, 5, 645, 251, 12,0
2025-03-10 13:36:02.487,506, 717, 532, -12, -3, -52, 2, -4, 6, 707, 314, 108,0
2025-03-10 13:36:02.538,453, 779, 483, -17, 3, -56, 4, -5, 6, 729, 315, 131,0
2025-03-10 13:36:02.588,360, 861, 481, -2, 1, -27, 5, -3, 4, 758, 332, 265,0
2025-03-10 13:36:02.651,297, 737, 595, -18, 1, 22, 5, -3, 5, 821, 489, 320,0
2025-03-10 13:36:02.703,332, 881, 390, -2, 2, 109, 4, -4, 5, 868, 602, 392,0
2025-03-10 13:36:02.753,615, 365, 686, 6, -9, 122, 0, -4, 5, 889, 706, 425,0
2025-03-10 13:36:02.809,633, 598, 435, 23, 1, 33, -1, -6, 5, 894, 729, 551,0
2025-03-10 13:36:02.868,669, 533, 483, 27, -8, 40, -3, -3, 8, 888, 736, 576,0
2025-03-10 13:36:02.919,654, 538, 356, 3, 5, 36, -4, -3, 9, 897, 749, 570,0
2025-03-10 13:36:02.969,895, 612, 761, 22, -10, 6, -4, -3, 7, 900, 740, 574,0
2025-03-10 13:36:03.020,570, 408, 358, -17, 17, 1, -4, -3, 8, 913, 773, 585,0
2025-03-10 13:36:03.085,654, 595, 475, -5, -14, -1, -6, -3, 6, 920, 785, 639,0
2025-03-10 13:36:03.138,622, 568, 505, -9, -11, 6, -5, -3, 7, 925, 808, 658,0
2025-03-10 13:36:03.195,752, 555, 383, -12, -14, 2, -6, -1, 8, 934, 827, 652,0
2025-03-10 13:36:03.251,552, 541, 699, -2, -37, 13, -5, -2, 9, 935, 862, 648,0
2025-03-10 13:36:03.308,672, 539, 379, -9, -8, -13, -5, -3, 9, 951, 902, 460,0
2025-03-10 13:36:03.359,656, 731, 429, 73, 35, 19, -5, -3, 10, 970, 904, 324,0
2025-03-10 13:36:03.418,694, 439, 518, -20, 27, 39, -5, -3, 7, 966, 915, 490,0
2025-03-10 13:36:03.478,449, 593, 677, 9, -33, -31, -5, -2, 8, 957, 919, 709,0
2025-03-10 13:36:03.530,904, 880, 473, -6, -16, 2, -6, -4, 10, 972, 935, 620,0
2025-03-10 13:36:03.588,644, 629, 505, -41, 43, 44, -5, -1, 9, 978, 922, 195,0
2025-03-10 13:36:03.638,956, 176, 609, 26, -17, -41, -8, -2, 6, 956, 868, 281,0
2025-03-10 13:36:03.700,422, 578, 888, 28, -54, 3, -5, -3, 7, 958, 891, 444,0
2025-03-10 13:36:03.752,723, 625, 285, -2, -6, -2, -6, -3, 8, 971, 923, 304,0
2025-03-10 13:36:03.808,720, 493, 441, -8, 3, 5, -5, -2, 8, 967, 911, 250,0
2025-03-10 13:36:03.860,720, 484, 470, 4, 1, -4, -5, -2, 8, 965, 910, 256,0
2025-03-10 13:36:03.916,720, 546, 447, 7, -4, -5, -7, -2, 8, 964, 908, 315,0
2025-03-10 13:36:03.968,727, 563, 439, 0, 0, 0, -7, -3, 10, 961, 905, 333,0
2025-03-10 13:36:04.019,766, 550, 429, -4, -2, 5, -7, -2, 10, 952, 876, 430,0
2025-03-10 13:36:04.079,740, 540, 484, -30, 26, -13, -5, -2, 9, 950, 859, 392,0
2025-03-10 13:36:04.134,573, 552, 644, 15, -15, 14, -5, -1, 8, 956, 868, 420,0
2025-03-10 13:36:04.189,738, 522, 412, 8, -15, 5, -7, -2, 8, 954, 871, 507,0
2025-03-10 13:36:04.248,749, 542, 416, -10, 2, -7, -8, -1, 9, 949, 872, 494,0
2025-03-10 13:36:04.301,730, 544, 469, -3, 2, 0, -6, -3, 7, 951, 852, 440,0
2025-03-10 13:36:04.352,720, 542, 468, -2, 3, 2, -6, -1, 8, 944, 841, 449,0
2025-03-10 13:36:04.401,718, 531, 467, -2, 3, 2, -7, -3, 8, 941, 835, 455,0
2025-03-10 13:36:04.461,736, 516, 454, -7, 9, -3, -8, -2, 8, 936, 793, 430,0
2025-03-10 13:36:04.868,489, 608, 716, 20, -7, -11, 2, 0, -1, 772, 373, 521,1
2025-03-10 13:36:04.928,525, 625, 678, 21, -8, -9, 2, -1, 0, 770, 362, 530,1
2025-03-10 13:36:04.981,529, 607, 627, 15, 2, -11, 2, -1, 1, 771, 387, 562,1
2025-03-10 13:36:05.035,503, 615, 611, 11, -10, 4, 2, -2, 1, 793, 464, 517,1
2025-03-10 13:36:05.089,408, 611, 610, 22, -34, 31, -1, -4, 3, 819, 519, 393,1
2025-03-10 13:36:05.138,627, 579, 433, 18, -33, 49, -1, -4, 5, 838, 560, 316,1
2025-03-10 13:36:05.203,634, 530, 462, 4, -19, 33, -2, -4, 7, 851, 629, 136,1
2025-03-10 13:36:05.256,935, 600, 560, 14, -25, 18, -2, -4, 7, 869, 702, 179,1
2025-03-10 13:36:05.308,616, 495, 484, -20, 9, 8, -4, -2, 7, 895, 751, 163,1
2025-03-10 13:36:05.367,644, 562, 505, 2, -16, 5, -4, -1, 7, 909, 781, 318,1
2025-03-10 13:36:05.418,734, 563, 458, 7, -11, 10, -4, -3, 8, 921, 812, 391,1
2025-03-10 13:36:05.468,805, 565, 376, 0, 0, 2, -5, -3, 7, 927, 816, 451,1
2025-03-10 13:36:05.518,620, 566, 550, -1, 1, 0, -5, -3, 7, 932, 822, 481,1
2025-03-10 13:36:05.579,736, 536, 435, -3, -8, -2, -5, -2, 8, 934, 838, 486,1
2025-03-10 13:36:05.633,696, 543, 476, -14, 2, -8, -5, -2, 8, 937, 842, 430,1
2025-03-10 13:36:05.689,487, 577, 694, 9, -37, 9, -4, -4, 8, 941, 858, 386,1
2025-03-10 13:36:05.738,862, 347, 241, 11, -4, -5, -6, -2, 8, 960, 912, 334,1
2025-03-10 13:36:05.800,590, 568, 516, -20, -6, 21, -5, -3, 9, 969, 932, 592,1
2025-03-10 13:36:05.851,489, 431, 390, 62, 23, 10, -7, -3, 9, 973, 923, 558,1
2025-03-10 13:36:05.910,709, 465, 163, -8, 35, 25, -6, -3, 11, 977, 918, 357,1
2025-03-10 13:36:05.968,555, 335, 670, -2, -1, -38, -7, -3, 9, 958, 822, 528,1
2025-03-10 13:36:06.019,845, 497, 369, 27, -16, -14, -7, -4, 10, 970, 910, 239,1
2025-03-10 13:36:06.079,558, 434, 458, -5, 8, 34, -8, -2, 9, 974, 925, 488,1
2025-03-10 13:36:06.134,784, 566, 84, -29, 63, -64, -7, -2, 9, 959, 870, 606,1
2025-03-10 13:36:06.429,696, 537, 494, 0, -2, 3, -6, -5, 8, 939, 827, 606,2
2025-03-10 13:36:06.483,704, 541, 497, 1, -3, 3, -5, -2, 9, 940, 830, 605,2
2025-03-10 13:36:06.533,708, 531, 451, 0, -6, 2, -6, -3, 8, 944, 842, 608,2
2025-03-10 13:36:06.588,733, 510, 474, -3, 0, -2, -5, -3, 9, 944, 853, 601,2
2025-03-10 13:36:06.649,706, 558, 462, -4, -4, 0, -6, -2, 9, 947, 856, 576,2
2025-03-10 13:36:06.701,718, 538, 436, -2, -1, -2, -7, -1, 9, 948, 863, 540,2
2025-03-10 13:36:06.753,725, 547, 456, -5, 0, -2, -7, -4, 8, 946, 860, 531,2
2025-03-10 13:36:06.812,690, 549, 473, -9, -3, -8, -5, -2, 7, 952, 864, 405,2
2025-03-10 13:36:06.868,709, 813, 445, -8, -15, -22, -6, -2, 9, 956, 903, 273,2
2025-03-10 13:36:06.927,729, 764, 335, 27, -19, 14, -6, -1, 10, 968, 930, 524,2
2025-03-10 13:36:06.978,510, 542, 451, 24, 38, 20, -6, -3, 11, 970, 901, 492,2
2025-03-10 13:36:07.032,1130, 432, 389, -15, 10, 2, -6, -2, 9, 973, 895, 11,2
2025-03-10 13:36:07.088,654, 330, 383, 5, 6, 31, -8, -2, 10, 975, 932, 309,2
2025-03-10 13:36:07.138,788, 414, 403, 14, 9, -5, -9, -1, 9, 964, 879, 613,2
2025-03-10 13:36:07.448,538, 666, 538, -9, -8, 0, -4, -4, 10, 943, 766, 509,3
2025-03-10 13:36:07.503,532, 684, 513, -5, -8, 10, -4, -4, 10, 944, 779, 514,3
2025-03-10 13:36:07.561,746, 570, 389, 7, -15, 28, -4, -4, 9, 947, 837, 562,3
2025-03-10 13:36:07.615,752, 518, 381, -3, 3, 5, -6, -3, 8, 950, 860, 563,3
2025-03-10 13:36:07.666,634, 608, 473, -1, -6, 1, -6, -4, 10, 952, 872, 551,3
2025-03-10 13:36:07.728,1010, -652, -281, 2, -15, -25, -7, -4, 10, 962, 903, 448,3
2025-03-10 13:36:07.783,998, 868, 620, 1, -9, 20, -6, -3, 11, 970, 929, 541,3
2025-03-10 13:36:07.839,680, 512, 530, 14, 3, 16, -7, -3, 11, 972, 922, 583,3
2025-03-10 13:36:07.888,654, 538, 412, -8, 15, 0, -7, -3, 10, 971, 917, 354,3
2025-03-10 13:36:07.949,792, 729, 323, -9, 22, 15, -7, -3, 10, 979, 922, 283,3
2025-03-10 13:36:08.001,599, 673, 201, 3, 28, 24, -5, -1, 9, 976, 904, 13,3
2025-03-10 13:36:08.051,769, 495, 339, 22, 23, 2, -7, -2, 8, 958, 796, 134,3
2025-03-10 13:36:08.114,733, 565, 388, -41, 50, -38, -7, -2, 8, 931, 779, 317,3
2025-03-10 13:36:08.434,733, 523, 444, -4, -11, 4, -6, -3, 7, 942, 844, 562,4
2025-03-10 13:36:08.483,746, 531, 451, -4, -10, 4, -8, -1, 9, 941, 846, 549,4
2025-03-10 13:36:08.539,720, 541, 432, -3, -4, -3, -7, -4, 8, 944, 858, 529,4
2025-03-10 13:36:08.597,716, 539, 450, 3, -13, -1, -8, -2, 8, 948, 867, 528,4
2025-03-10 13:36:08.651,704, 542, 430, -7, 0, -10, -7, -1, 9, 962, 893, 393,4
2025-03-10 13:36:08.708,746, 568, 426, -8, -7, -3, -7, -2, 9, 964, 916, 282,4
2025-03-10 13:36:08.766,729, 535, 457, -2, -4, -1, -5, -2, 10, 966, 923, 199,4
2025-03-10 13:36:08.818,644, 528, 339, 31, 15, -10, -6, -3, 10, 972, 904, 6,4
2025-03-10 13:36:08.868,921, 580, 328, -5, 15, 6, -5, -3, 10, 969, 895, 15,4
2025-03-10 13:36:08.928,147, 294, 449, -9, 8, 28, -6, -3, 9, 975, 932, 136,4
2025-03-10 13:36:08.983,699, 409, 445, 10, 14, 13, -8, -2, 10, 968, 905, 464,4
2025-03-10 13:36:09.038,526, 633, 638, -3, -6, -35, -8, -4, 9, 959, 879, 632,4
2025-03-10 13:36:09.097,690, 477, 443, -4, -12, -2, -5, -2, 9, 973, 903, 490,4
2025-03-10 13:36:09.150,1001, 421, 374, 7, 40, 35, -9, -3, 10, 978, 866, 21,4
2025-03-10 13:36:09.199,797, 418, 649, 3, 6, -10, -7, -1, 9, 953, 768, 443,4
2025-03-10 13:36:09.519,698, 571, 475, 0, -1, 6, -6, -2, 7, 941, 758, 385,5
2025-03-10 13:36:09.568,684, 562, 487, -2, -1, 7, -5, -2, 7, 941, 761, 405,5
2025-03-10 13:36:09.630,689, 538, 483, 4, -8, 10, -6, -3, 8, 951, 781, 452,5
2025-03-10 13:36:09.683,745, 546, 415, 6, -8, 9, -6, -3, 8, 949, 813, 517,5
2025-03-10 13:36:09.733,725, 517, 460, -2, 1, 2, -6, -2, 7, 955, 828, 528,5
2025-03-10 13:36:09.789,728, 532, 437, 2, 0, 1, -7, -2, 9, 952, 829, 563,5
2025-03-10 13:36:09.839,722, 528, 460, 2, -1, -4, -7, -1, 10, 953, 838, 562,5
2025-03-10 13:36:09.900,698, 545, 469, -1, -3, -6, -7, -2, 9, 952, 851, 525,5
2025-03-10 13:36:09.948,604, 512, 654, 10, -37, 4, -9, -1, 8, 957, 866, 330,5
2025-03-10 13:36:10.008,1037, 666, 458, 18, -16, 2, -6, -2, 9, 972, 923, 228,5
2025-03-10 13:36:10.065,762, 359, 348, -3, 4, 26, -8, -2, 9, 975, 920, 501,5
2025-03-10 13:36:10.118,797, 261, 276, 10, 16, -42, -7, -1, 9, 964, 887, 634,5
2025-03-10 13:36:10.168,685, 521, 836, 8, -25, 13, -6, -2, 9, 965, 870, 427,5
2025-03-10 13:36:10.232,788, 875, -94, 23, 12, 18, -7, -2, 10, 977, 910, 289,5
2025-03-10 13:36:10.283,816, 472, 394, 11, 20, 23, -6, -3, 9, 974, 906, 370,5
2025-03-10 13:36:10.338,574, 661, 546, 0, 6, 14, -7, -3, 10, 974, 905, 265,5
2025-03-10 13:36:10.388,762, 587, 245, -35, 27, 11, -5, -2, 8, 970, 812, 10,5
2025-03-10 13:36:10.449,996, 373, 357, 11, 38, -43, -7, -2, 9, 916, 685, 190,5
2025-03-10 13:36:10.510,563, 537, 658, -23, 18, -30, -5, -2, 6, 909, 700, 258,5
2025-03-10 13:36:10.808,725, 515, 460, -5, -1, 2, -6, -2, 6, 897, 692, 158,6
2025-03-10 13:36:10.863,714, 501, 455, -5, 0, 1, -6, -2, 6, 897, 698, 156,6
2025-03-10 13:36:10.912,699, 514, 458, -6, 2, 2, -5, -1, 6, 906, 710, 85,6
2025-03-10 13:36:10.968,727, 483, 511, -5, -1, 1, -6, -2, 6, 905, 722, 156,6
2025-03-10 13:36:11.018,726, 491, 499, -9, 0, -2, -7, -2, 8, 909, 730, 161,6
2025-03-10 13:36:11.068,719, 522, 476, -7, -1, -1, -6, -2, 6, 914, 728, 162,6
2025-03-10 13:36:11.128,704, 510, 500, -2, -3, -1, -6, 0, 7, 920, 741, 149,6
2025-03-10 13:36:11.183,730, 508, 483, 0, -2, -1, -6, -1, 7, 921, 756, 157,6
2025-03-10 13:36:11.238,721, 507, 494, -3, -5, 0, -6, 0, 7, 930, 773, 171,6
2025-03-10 13:36:11.288,723, 505, 480, -3, 2, 0, -8, -2, 7, 932, 783, 191,6
2025-03-10 13:36:11.346,740, 515, 475, -2, -2, 3, -6, -3, 6, 937, 799, 289,6
2025-03-10 13:36:11.399,742, 520, 472, 1, -10, 3, -7, -2, 6, 939, 825, 378,6
2025-03-10 13:36:11.450,686, 495, 489, -13, -16, -1, -8, -1, 6, 945, 848, 438,6
2025-03-10 13:36:11.514,816, 468, 611, -4, -23, -23, -9, -2, 6, 959, 913, 224,6
2025-03-10 13:36:11.568,1479, 488, 216, 116, 19, -9, -7, -3, 9, 971, 906, 144,6
2025-03-10 13:36:11.619,916, 481, 388, -29, 41, 44, -6, -2, 10, 978, 923, 13,6
2025-03-10 13:36:11.682,488, 313, 628, 24, -35, -50, -6, -2, 8, 965, 928, 363,6
2025-03-10 13:36:11.739,1074, 467, 79, -25, 41, -29, -6, -3, 8, 923, 862, 478,6
2025-03-10 13:36:12.061,715, 522, 486, -6, -4, -1, -7, -1, 9, 935, 841, 357,7
2025-03-10 13:36:12.117,711, 508, 482, -5, -4, -1, -6, -2, 9, 936, 841, 365,7
2025-03-10 13:36:12.168,693, 536, 480, 0, -3, 0, -5, -1, 7, 938, 850, 373,7
2025-03-10 13:36:12.223,624, 543, 538, 0, -20, 1, -7, -2, 8, 941, 864, 367,7
2025-03-10 13:36:12.279,867, 420, 473, 24, -5, -3, -7, -2, 8, 961, 909, 346,7
2025-03-10 13:36:12.332,361, 289, 537, -13, -7, 18, -7, -2, 9, 969, 909, 506,7
2025-03-10 13:36:12.389,539, 789, 335, 52, 31, 27, -8, -3, 10, 974, 891, 276,7
2025-03-10 13:36:12.447,893, 587, 241, -8, 26, 10, -7, -3, 10, 969, 870, 17,7
2025-03-10 13:36:12.501,664, 613, 597, -7, -33, -52, -8, -2, 7, 962, 870, 346,7
2025-03-10 13:36:12.558,254, 611, 114, -4, -20, 15, -6, -2, 9, 977, 925, 395,7
2025-03-10 13:36:12.615,616, 532, 599, 21, 6, 12, -8, -2, 10, 964, 852, 630,7
2025-03-10 13:36:12.668,631, 572, 439, -44, 49, -38, -7, -2, 10, 954, 788, 549,7
2025-03-10 13:36:12.940,705, 539, 488, -5, 0, 3, -5, -3, 9, 944, 753, 444,8
2025-03-10 13:36:12.988,709, 521, 480, -4, -1, 3, -8, -4, 9, 944, 751, 443,8
2025-03-10 13:36:13.048,725, 503, 454, 0, -2, 3, -7, -2, 9, 945, 759, 456,8
2025-03-10 13:36:13.100,728, 533, 441, 4, -5, 8, -7, -3, 9, 951, 776, 480,8
2025-03-10 13:36:13.153,660, 491, 511, 13, -19, 10, -7, -3, 10, 953, 791, 461,8
2025-03-10 13:36:13.214,713, 591, 447, 3, -4, -20, -8, -3, 10, 959, 874, 291,8
2025-03-10 13:36:13.268,657, 596, -20, 29, 15, 4, -7, -3, 10, 975, 874, 152,8
2025-03-10 13:36:13.318,647, 524, 487, -24, 23, 23, -8, -3, 9, 973, 901, 16,8
2025-03-10 13:36:13.382,1092, 440, 607, 23, -50, -52, -8, -3, 9, 965, 918, 502,8
2025-03-10 13:36:13.438,868, 400, 295, -3, -27, -14, -7, -3, 10, 971, 931, 585,8
2025-03-10 13:36:13.496,499, 1025, 130, -1, 37, 26, -7, -3, 10, 977, 922, 423,8
2025-03-10 13:36:13.550,946, 263, 337, -14, 24, -23, -8, -3, 11, 965, 890, 559,8
2025-03-10 13:36:13.878,736, 502, 436, -2, -2, 0, -7, -3, 10, 956, 820, 489,9
2025-03-10 13:36:13.931,745, 511, 436, -1, -3, 0, -7, -3, 10, 957, 818, 488,9
2025-03-10 13:36:13.988,753, 524, 413, 0, -4, 4, -8, -3, 10, 955, 824, 478,9
2025-03-10 13:36:14.038,724, 549, 418, -13, 1, -3, -7, -3, 9, 962, 863, 372,9
2025-03-10 13:36:14.099,871, 585, 483, -17, -8, -9, -7, -2, 10, 965, 901, 172,9
2025-03-10 13:36:14.151,677, 725, 145, 30, 11, -7, -7, -2, 11, 972, 906, 211,9
2025-03-10 13:36:14.209,701, 441, 497, -34, 30, 33, -8, -3, 11, 974, 918, 6,9
2025-03-10 13:36:14.267,662, 374, 659, 16, -22, -18, -7, -2, 11, 967, 908, 447,9
2025-03-10 13:36:14.319,463, 924, 278, 1, 27, 24, -7, -2, 12, 974, 897, 314,9
2025-03-10 13:36:14.381,970, 534, 234, -37, 38, 18, -11, -2, 9, 972, 909, 21,9
2025-03-10 13:36:14.432,1137, 426, 184, 7, 37, -70, -6, -5, 7, 936, 826, 196,9
2025-03-10 13:36:14.489,632, 437, 671, -26, 49, -53, -5, -3, 5, 828, 764, 176,9
2025-03-10 13:36:14.804,643, 546, 571, -4, 2, 2, -3, -2, 3, 659, 258, 12,+
2025-03-10 13:36:14.853,641, 547, 562, -5, 2, 2, -4, -2, 4, 658, 255, 9,+
2025-03-10 13:36:14.903,650, 541, 565, -5, 2, 0, -2, -2, 3, 661, 259, 11,+
2025-03-10 13:36:14.958,647, 544, 574, -6, -2, 1, -4, -2, 4, 663, 261, 11,+
2025-03-10 13:36:15.009,637, 531, 569, -7, -4, 0, -3, -2, 3, 665, 260, 3,+
2025-03-10 13:36:15.066,657, 525, 558, -1, -8, -1, -6, -2, 3, 688, 277, 18,+
2025-03-10 13:36:15.119,653, 551, 568, -4, -14, -6, -3, -1, 3, 784, 497, 8,+
2025-03-10 13:36:15.168,587, 522, 631, 2, -22, 7, -4, -1, 3, 878, 660, 14,+
2025-03-10 13:36:15.219,693, 534, 492, 10, -32, 12, -5, -1, 5, 902, 733, 254,+
2025-03-10 13:36:15.282,741, 503, 468, 9, -22, 7, -6, -2, 4, 920, 781, 360,+
2025-03-10 13:36:15.336,761, 526, 415, -1, -1, 0, -5, -1, 7, 930, 808, 374,+
2025-03-10 13:36:15.389,717, 521, 492, 0, -4, 0, -6, -2, 7, 932, 820, 438,+
2025-03-10 13:36:15.438,700, 512, 494, 3, -6, -4, -7, -2, 7, 936, 833, 465,+
2025-03-10 13:36:15.495,706, 515, 463, -8, 5, -3, -5, -2, 7, 936, 836, 452,+
2025-03-10 13:36:15.549,694, 541, 502, -7, -6, -10, -5, -2, 6, 942, 835, 373,+
2025-03-10 13:36:15.600,775, 534, 467, 1, -7, -5, -5, -1, 6, 942, 854, 406,+
2025-03-10 13:36:15.658,667, 539, 500, -8, 2, -7, -6, -3, 5, 942, 861, 413,+
2025-03-10 13:36:15.715,671, 557, 518, -4, -27, 10, -5, -3, 6, 946, 876, 560,+
2025-03-10 13:36:15.768,822, 376, 185, 15, -5, -14, -6, -3, 8, 953, 910, 558,+
2025-03-10 13:36:15.821,744, 828, 338, 76, 20, 14, -8, -4, 9, 973, 916, 387,+
2025-03-10 13:36:15.882,1093, 589, 353, -16, 31, 28, -9, -1, 9, 971, 903, 189,+
2025-03-10 13:36:15.938,556, 690, 442, -11, -26, -57, -6, -3, 8, 956, 889, 444,+
2025-03-10 13:36:15.998,979, 670, 387, 17, -32, 5, -5, -5, 11, 975, 941, 362,+
2025-03-10 13:36:16.049,425, 208, 482, -17, 14, 30, -6, -2, 8, 973, 923, 479,+
2025-03-10 13:36:16.109,906, 467, 34, -37, 76, -46, -8, -3, 7, 949, 806, 600,+
2025-03-10 13:36:16.166,559, 511, 821, -33, 56, -35, -6, -2, 4, 903, 505, 55,+
2025-03-10 13:36:16.449,649, 621, 477, 16, -16, -40, -2, -6, 7, 751, 291, 25,-
2025-03-10 13:36:16.511,633, 636, 475, 15, -18, -41, -2, -3, 7, 750, 289, 31,-
2025-03-10 13:36:16.568,596, 763, 404, 8, -19, -38, -2, -5, 8, 754, 267, 126,-
2025-03-10 13:36:16.625,556, 654, 572, 24, -39, -31, -1, -4, 10, 791, 352, 14,-
2025-03-10 13:36:16.683,562, 775, 296, 7, -18, -5, -1, -6, 10, 839, 408, 156,-
2025-03-10 13:36:16.737,570, 752, 306, -7, -7, 18, 0, -5, 12, 880, 508, 152,-
2025-03-10 13:36:16.793,595, 668, 430, -25, 10, 28, -2, -6, 10, 901, 627, 113,-
2025-03-10 13:36:16.849,503, 719, 356, -13, 19, 59, -3, -6, 9, 921, 680, 283,-
2025-03-10 13:36:16.900,831, 594, 438, 2, -14, 17, -5, -3, 10, 929, 755, 501,-
2025-03-10 13:36:16.962,736, 607, 407, -4, -5, 23, -5, -5, 10, 938, 802, 563,-
2025-03-10 13:36:17.015,728, 547, 413, -11, 3, 5, -5, -4, 11, 944, 838, 598,-
2025-03-10 13:36:17.069,674, 598, 452, -10, 0, 4, -3, -4, 9, 951, 857, 607,-
2025-03-10 13:36:17.118,711, 533, 459, 2, 2, 5, -6, -3, 9, 953, 870, 604,-
2025-03-10 13:36:17.178,728, 587, 383, 4, -1, 5, -6, -4, 10, 953, 871, 608,-
2025-03-10 13:36:17.231,691, 564, 439, -3, 6, -2, -5, -3, 9, 952, 871, 568,-
2025-03-10 13:36:17.288,573, 571, 568, 18, -11, 12, -5, -4, 10, 957, 862, 449,-
2025-03-10 13:36:17.346,709, 553, 443, -14, -8, -3, -5, -3, 10, 965, 910, 200,-
2025-03-10 13:36:17.400,525, 375, 527, -14, -3, 57, -7, -4, 10, 980, 943, 383,-
2025-03-10 13:36:17.449,678, 439, 425, 24, 8, 2, -9, -2, 9, 973, 921, 569,-
2025-03-10 13:36:17.510,852, 557, 221, -52, 58, -50, -5, -2, 8, 954, 856, 538,-
2025-03-10 13:36:18.042,710, 536, 478, -2, -4, 2, -5, -3, 7, 921, 782, 514,÷
2025-03-10 13:36:18.101,710, 530, 467, -2, -3, 2, -4, -2, 8, 921, 781, 513,÷
2025-03-10 13:36:18.149,717, 542, 474, -3, -1, 1, -7, -3, 7, 925, 792, 521,÷
2025-03-10 13:36:18.207,712, 534, 465, -4, 0, 1, -6, -2, 8, 927, 802, 525,÷
2025-03-10 13:36:18.260,695, 544, 487, -1, -2, 1, -6, -1, 6, 935, 805, 533,÷
2025-03-10 13:36:18.314,722, 530, 469, -2, -3, 2, -6, -3, 9, 936, 812, 527,÷
2025-03-10 13:36:18.368,708, 535, 465, -1, -1, 0, -4, -3, 7, 935, 819, 525,÷
2025-03-10 13:36:18.418,708, 531, 466, -2, -2, 0, -6, -2, 7, 937, 825, 532,÷
2025-03-10 13:36:18.470,717, 530, 472, -4, 0, -2, -7, -2, 8, 936, 835, 508,÷
2025-03-10 13:36:18.530,686, 550, 475, -2, 0, -2, -8, -2, 7, 938, 837, 475,÷
2025-03-10 13:36:18.583,732, 521, 461, 2, -8, 0, -5, -2, 7, 941, 849, 479,÷
2025-03-10 13:36:18.640,760, 495, 415, -7, 7, -4, -5, -2, 8, 946, 855, 489,÷
2025-03-10 13:36:18.688,672, 560, 508, -2, 1, -4, -5, -2, 7, 944, 850, 453,÷
2025-03-10 13:36:18.747,698, 538, 455, -5, 0, -2, -5, -1, 6, 948, 845, 401,÷
2025-03-10 13:36:18.798,724, 520, 490, 1, -3, 1, -6, -2, 8, 946, 840, 393,÷
2025-03-10 13:36:18.850,742, 534, 399, -8, 2, -2, -5, -4, 7, 946, 843, 403,÷
2025-03-10 13:36:18.906,753, 568, 519, 20, -15, 13, -7, -1, 7, 949, 854, 583,÷
2025-03-10 13:36:18.968,2651, 246, 193, -26, -10, -18, -6, -3, 7, 959, 896, 539,÷
2025-03-10 13:36:19.026,806, 450, 325, -5, -8, -17, -7, -1, 9, 968, 927, 294,÷
2025-03-10 13:36:19.078,795, 934, 311, 7, 32, 53, -7, -1, 9, 967, 908, 441,÷
2025-03-10 13:36:19.131,542, 613, 465, 12, 50, 0, -9, -2, 9, 961, 834, 371,÷
2025-03-10 13:36:19.188,420, 1160, 357, 15, -1, -2, -7, -4, 11, 967, 850, 146,÷
2025-03-10 13:36:19.238,731, 376, 725, 1, -13, -9, -8, -1, 9, 964, 850, 202,÷
2025-03-10 13:36:19.298,402, 568, 835, -1, 0, -25, -6, -4, 9, 954, 829, 286,÷
2025-03-10 13:36:19.349,811, 810, 599, -28, -28, 0, -7, -1, 10, 970, 918, 6,÷
2025-03-10 13:36:19.411,450, 629, 267, -23, -1, 49, -8, -3, 10, 979, 932, 150,÷
2025-03-10 13:36:19.468,757, 487, 458, 13, 15, -4, -8, -1, 9, 964, 874, 580,÷
2025-03-10 13:36:19.519,663, 544, 618, -54, 72, -49, -5, -1, 7, 941, 774, 369,÷
2025-03-10 13:36:19.819,697, 537, 479, -6, 0, 0, -7, -2, 6, 912, 725, 257,=
2025-03-10 13:36:19.868,689, 522, 495, -7, 0, 0, -4, -3, 6, 910, 725, 261,=
2025-03-10 13:36:19.921,687, 537, 478, -4, 0, -2, -5, -2, 7, 909, 725, 254,=
2025-03-10 13:36:19.979,686, 535, 501, -5, -2, 0, -6, -2, 7, 909, 729, 252,=
2025-03-10 13:36:20.038,699, 524, 532, -1, -5, 0, -6, -2, 7, 908, 733, 249,=
2025-03-10 13:36:20.088,702, 543, 482, -4, -2, 2, -6, -2, 6, 910, 738, 244,=
2025-03-10 13:36:20.144,699, 521, 490, -3, 0, -1, -6, -1, 7, 911, 743, 259,=
2025-03-10 13:36:20.198,693, 542, 500, -3, -3, 1, -5, -3, 6, 912, 753, 268,=
2025-03-10 13:36:20.248,699, 525, 502, -4, -3, 0, -6, -3, 6, 918, 765, 272,=
2025-03-10 13:36:20.298,692, 534, 505, -2, -5, 2, -5, -2, 7, 921, 782, 358,=
2025-03-10 13:36:20.356,710, 506, 483, -7, 0, 0, -7, 0, 6, 930, 796, 391,=
2025-03-10 13:36:20.408,668, 531, 533, 6, -8, 1, -4, -2, 6, 936, 821, 425,=
2025-03-10 13:36:20.463,685, 509, 480, -8, -5, -5, -6, 0, 7, 940, 855, 451,=
2025-03-10 13:36:20.516,750, 538, 487, 3, -3, 0, -7, -1, 6, 943, 862, 428,=
2025-03-10 13:36:20.568,729, 532, 463, -3, 3, 0, -6, -2, 7, 942, 852, 421,=
2025-03-10 13:36:20.618,674, 549, 533, 16, -3, 7, -7, -2, 6, 943, 834, 436,=
2025-03-10 13:36:20.679,738, 531, 443, 6, -10, -3, -7, -1, 7, 943, 847, 447,=
2025-03-10 13:36:20.731,734, 540, 442, 0, -1, -2, -5, -3, 9, 946, 848, 413,=
2025-03-10 13:36:20.779,704, 532, 494, 1, -7, 1, -7, -2, 7, 945, 851, 416,=
2025-03-10 13:36:20.838,758, 528, 386, -1, -1, -1, -7, -1, 7, 947, 856, 411,=
2025-03-10 13:36:20.898,698, 454, 423, -10, -1, -11, -6, -2, 9, 949, 872, 331,=
2025-03-10 13:36:20.948,860, 373, 370, 12, -12, -10, -6, -2, 7, 961, 905, 90,=
2025-03-10 13:36:21.012,481, 667, 306, 4, -12, 38, -8, -2, 9, 976, 930, 582,=
2025-03-10 13:36:21.065,626, 465, 384, 30, 12, 2, -8, -3, 10, 967, 899, 668,=
2025-03-10 13:36:21.118,540, 711, 476, -17, 27, -14, -7, -3, 9, 958, 807, 506,=
2025-03-10 13:36:21.180,718, 878, 525, 12, -15, 14, -5, -4, 11, 971, 920, 441,=
2025-03-10 13:36:21.232,761, 428, 266, -1, 7, 26, -8, -2, 9, 975, 913, 532,=
2025-03-10 13:36:21.291,886, 355, 253, -16, 25, -38, -8, -3, 10, 954, 794, 635,=
2025-03-10 13:36:21.348,656, 496, 728, -18, 42, -28, -6, -2, 7, 912, 464, 144,=
2025-03-10 13:36:21.628,719, 546, 473, -4, -2, -3, -7, -3, 8, 932, 777, 571,≠
2025-03-10 13:36:21.688,716, 554, 447, -6, -3, -3, -7, -2, 9, 931, 779, 571,≠
2025-03-10 13:36:21.745,726, 554, 427, -10, -2, -5, -7, -4, 9, 935, 800, 532,≠
2025-03-10 13:36:21.800,724, 567, 448, -6, -1, -1, -8, -3, 9, 936, 811, 508,≠
2025-03-10 13:36:21.848,728, 546, 456, -5, -3, -2, -6, -2, 9, 938, 821, 437,≠
2025-03-10 13:36:21.908,713, 531, 465, -4, -1, 1, -6, -3, 9, 938, 828, 433,≠
2025-03-10 13:36:21.963,727, 551, 439, -3, 0, -1, -5, -3, 8, 941, 830, 435,≠
2025-03-10 13:36:22.016,718, 554, 441, -4, -2, -1, -7, -3, 10, 944, 842, 437,≠
2025-03-10 13:36:22.068,702, 548, 461, -7, 0, -5, -6, -3, 9, 940, 839, 376,≠
2025-03-10 13:36:22.127,701, 537, 453, -8, 1, -6, -5, -3, 10, 942, 841, 338,≠
2025-03-10 13:36:22.180,691, 263, 297, 5, -1, -26, -4, -2, 8, 950, 863, 12,≠
2025-03-10 13:36:22.240,286, 1019, 510, -18, -48, 17, -5, -3, 10, 971, 928, 340,≠
2025-03-10 13:36:22.294,565, 596, 600, 18, 20, 28, -6, -4, 10, 967, 896, 605,≠
2025-03-10 13:36:22.349,407, 729, 479, 2, 52, -32, -5, -3, 8, 953, 804, 516,≠
2025-03-10 13:36:22.408,806, 1144, 336, 5, -31, -8, -4, -5, 10, 965, 892, 174,≠
2025-03-10 13:36:22.465,786, 715, 375, -34, 12, 46, -7, -3, 10, 974, 902, 486,≠
2025-03-10 13:36:22.519,895, 323, 149, -34, 24, -37, -8, -3, 10, 952, 821, 625,≠
2025-03-10 13:36:22.581,625, 656, 801, -20, -19, -16, -7, -3, 8, 934, 808, 557,≠
2025-03-10 13:36:22.638,782, 488, 374, 11, -29, 12, -7, -3, 10, 940, 831, 643,≠
2025-03-10 13:36:22.688,740, 482, 376, -9, 4, -6, -8, -2, 7, 944, 817, 628,≠
2025-03-10 13:36:22.748,702, 618, 594, -2, -10, -8, -8, -1, 7, 963, 879, 533,≠
2025-03-10 13:36:22.798,684, 1059, 254, 22, 38, 20, -6, -2, 10, 971, 881, 14,≠
2025-03-10 13:36:22.858,922, 649, -149, -14, 43, 14, -5, -3, 10, 954, 798, 6,≠
2025-03-10 13:36:22.914,808, 420, 121, -50, 47, -50, -7, -3, 9, 901, 776, 261,≠
2025-03-10 13:36:22.974,470, 497, 750, -35, 21, -27, -4, -3, 5, 904, 750, 55,≠
2025-03-10 13:36:23.288,717, 524, 436, -8, -1, 3, -5, -2, 7, 889, 670, 93,≈
2025-03-10 13:36:23.343,709, 511, 445, -7, 1, 1, -6, -2, 9, 886, 676, 85,≈
2025-03-10 13:36:23.388,701, 522, 490, -4, 0, -3, -5, 0, 7, 884, 677, 38,≈
2025-03-10 13:36:23.448,711, 524, 479, -5, -3, 0, -5, -3, 9, 887, 694, 103,≈
2025-03-10 13:36:23.503,696, 517, 514, -2, 1, -1, -6, -2, 7, 890, 726, 134,≈
2025-03-10 13:36:23.549,727, 545, 429, -2, -3, 0, -7, -2, 7, 894, 734, 137,≈
2025-03-10 13:36:23.608,682, 509, 495, -4, 0, -3, -7, -3, 8, 898, 755, 143,≈
2025-03-10 13:36:23.662,709, 533, 484, 1, -3, 0, -7, -3, 8, 903, 766, 141,≈
2025-03-10 13:36:23.712,711, 531, 467, -4, 0, -2, -7, -2, 6, 905, 763, 156,≈
2025-03-10 13:36:23.768,720, 531, 472, 1, -3, 0, -7, -2, 7, 908, 774, 186,≈
2025-03-10 13:36:23.820,713, 521, 492, -3, 1, -1, -5, -1, 7, 908, 780, 208,≈
2025-03-10 13:36:23.879,708, 524, 487, 3, -3, -1, -5, -3, 7, 909, 780, 220,≈
2025-03-10 13:36:23.929,691, 538, 494, 0, 2, -3, -6, -2, 7, 907, 779, 245,≈
2025-03-10 13:36:23.979,722, 536, 446, 0, -3, -3, -7, -2, 8, 907, 780, 254,≈
2025-03-10 13:36:24.038,686, 541, 500, -6, 1, -3, -6, -1, 9, 910, 796, 233,≈
2025-03-10 13:36:24.088,734, 521, 443, 0, -1, -3, -5, -2, 8, 909, 791, 161,≈
2025-03-10 13:36:24.145,700, 530, 484, -1, 2, -3, -5, -2, 8, 907, 795, 159,≈
2025-03-10 13:36:24.198,711, 570, 461, 10, -4, -1, -5, -2, 8, 909, 804, 213,≈
2025-03-10 13:36:24.256,734, 546, 528, 6, -3, -12, -5, -3, 8, 926, 832, 13,≈
2025-03-10 13:36:24.312,702, 471, 379, 10, -8, -10, -6, -2, 10, 946, 893, 38,≈
2025-03-10 13:36:24.363,592, 602, 387, 9, -13, 20, -5, -3, 9, 966, 924, 510,≈
2025-03-10 13:36:24.419,650, 543, 450, -1, 1, 15, -6, -2, 10, 972, 925, 504,≈
2025-03-10 13:36:24.477,700, 528, 377, -2, 1, 17, -7, -3, 9, 971, 914, 547,≈
2025-03-10 13:36:24.531,770, 430, 301, 12, 20, -16, -7, -1, 10, 958, 882, 605,≈
2025-03-10 13:36:24.588,543, 594, 552, -5, 22, -16, -6, -2, 9, 951, 793, 293,≈
2025-03-10 13:36:24.645,671, 563, 611, 23, -52, 26, -7, -2, 10, 955, 845, 215,≈
2025-03-10 13:36:24.698,789, 419, 633, -2, -28, 0, -7, -3, 9, 970, 920, 360,≈
2025-03-10 13:36:24.749,536, 650, 411, 14, 5, 11, -6, -1, 10, 975, 920, 524,≈
2025-03-10 13:36:24.812,782, 520, 207, -6, 16, 15, -7, -4, 11, 976, 913, 441,≈
2025-03-10 13:36:24.864,868, 407, 318, -1, 5, -17, -7, -3, 9, 966, 899, 619,≈
2025-03-10 13:36:24.918,625, 538, 577, -25, 40, -20, -5, -2, 7, 950, 810, 538,≈
2025-03-10 13:36:25.239,727, 548, 471, -2, -6, 1, -6, -1, 7, 894, 700, 173,<
2025-03-10 13:36:25.293,726, 545, 461, -1, -4, 2, -6, -3, 8, 892, 700, 176,<
2025-03-10 13:36:25.346,706, 532, 463, -5, 1, -1, -7, -2, 8, 893, 705, 174,<
2025-03-10 13:36:25.400,705, 535, 505, -2, -1, -2, -5, -3, 7, 893, 706, 175,<
2025-03-10 13:36:25.455,693, 537, 484, -4, 0, -1, -6, -2, 6, 899, 718, 152,<
2025-03-10 13:36:25.510,699, 522, 489, 2, -1, -2, -5, -1, 7, 899, 742, 201,<
2025-03-10 13:36:25.563,702, 535, 476, 0, -2, -2, -7, -1, 7, 908, 768, 287,<
2025-03-10 13:36:25.615,705, 528, 482, -3, -3, -1, -6, -2, 7, 910, 776, 290,<
2025-03-10 13:36:25.668,699, 525, 481, -1, 0, 1, -5, -2, 7, 916, 785, 310,<
2025-03-10 13:36:25.718,728, 514, 511, 2, -6, 1, -5, -2, 7, 913, 787, 313,<
2025-03-10 13:36:25.780,727, 525, 456, -6, -2, -1, -7, -3, 7, 917, 794, 323,<
2025-03-10 13:36:25.828,726, 526, 463, -10, -8, -4, -5, -2, 6, 922, 806, 341,<
2025-03-10 13:36:25.890,654, 522, 630, 1, -31, 10, -6, -2, 7, 938, 845, 441,<
2025-03-10 13:36:25.945,709, 537, 545, -8, -12, -9, -9, -1, 7, 960, 892, 383,<
2025-03-10 13:36:25.999,856, 414, 392, 31, 0, -22, -6, -2, 7, 968, 905, 223,<
2025-03-10 13:36:26.048,771, 530, 470, -4, 12, 4, -6, -2, 9, 970, 896, 15,<
2025-03-10 13:36:26.106,630, 354, 204, 0, 24, 54, -7, -1, 7, 979, 925, 13,<
2025-03-10 13:36:26.161,660, 390, 541, 17, 10, 3, -8, -1, 7, 970, 896, 449,<
2025-03-10 13:36:26.218,702, 505, 345, -38, 61, -47, -6, -2, 8, 929, 788, 361,<
2025-03-10 13:36:26.499,726, 535, 450, -1, -9, 2, -5, -2, 7, 929, 808, 448,≤
2025-03-10 13:36:26.559,731, 529, 459, -2, -8, 1, -5, -2, 7, 930, 814, 454,≤
2025-03-10 13:36:26.612,708, 526, 481, 3, -7, 0, -7, -1, 8, 933, 833, 497,≤
2025-03-10 13:36:26.668,769, 479, 300, -8, -19, -1, -7, -2, 6, 945, 867, 501,≤
2025-03-10 13:36:26.718,739, 532, 416, -6, 1, -7, -7, -1, 7, 954, 893, 439,≤
2025-03-10 13:36:26.780,694, 394, 585, 31, -8, -16, -6, -2, 9, 965, 896, 353,≤
2025-03-10 13:36:26.828,769, 537, 277, 3, 16, -3, -6, -3, 10, 968, 872, 14,≤
2025-03-10 13:36:26.889,715, 762, 343, -41, 5, 58, -8, -3, 10, 978, 924, 12,≤
2025-03-10 13:36:26.939,600, 478, 635, 18, 0, 5, -8, -2, 9, 975, 922, 397,≤
2025-03-10 13:36:26.994,774, 555, 324, 31, 42, -11, -7, -3, 10, 960, 814, 501,≤
2025-03-10 13:36:27.049,641, 579, 817, 51, -24, 28, -7, -3, 9, 958, 712, 140,≤
2025-03-10 13:36:27.110,577, 713, 205, -34, -9, 36, -7, -3, 11, 977, 919, 160,≤
2025-03-10 13:36:27.168,728, 593, 463, 10, 7, 14, -7, -2, 10, 970, 884, 332,≤
2025-03-10 13:36:27.219,849, 517, 91, -61, 62, -54, -7, -2, 9, 930, 642, 199,≤
2025-03-10 13:36:27.528,720, 539, 481, -3, -5, 0, -7, -2, 7, 906, 732, 317,>
2025-03-10 13:36:27.585,725, 533, 468, -5, -5, 1, -6, -2, 7, 905, 733, 323,>
2025-03-10 13:36:27.638,730, 534, 470, 0, -2, -2, -6, -3, 7, 909, 733, 347,>
2025-03-10 13:36:27.695,720, 535, 463, -4, -2, -3, -6, -2, 7, 910, 747, 347,>
2025-03-10 13:36:27.748,734, 541, 461, -7, -4, -2, -5, -1, 8, 919, 761, 361,>
2025-03-10 13:36:27.807,696, 534, 481, -4, -3, -1, -6, -2, 8, 925, 778, 377,>
2025-03-10 13:36:27.860,694, 531, 476, -2, -9, -1, -7, 0, 7, 925, 796, 388,>
2025-03-10 13:36:27.913,804, 408, 564, 7, -6, -16, -8, -3, 6, 946, 844, 341,>
2025-03-10 13:36:27.970,703, 722, 220, 18, -10, 33, -7, -3, 8, 967, 890, 550,>
2025-03-10 13:36:28.024,651, 589, 511, 23, 3, 8, -8, -1, 9, 970, 894, 611,>
2025-03-10 13:36:28.078,1299, 647, 282, 19, 23, -12, -8, -3, 10, 974, 884, 195,>
2025-03-10 13:36:28.138,877, 530, 496, 10, 28, 7, -7, -2, 10, 958, 803, 183,>
2025-03-10 13:36:28.195,655, 564, 387, -31, 41, -23, -6, -2, 8, 937, 773, 419,>
2025-03-10 13:36:28.513,725, 529, 447, -6, -4, -3, -7, -2, 8, 933, 809, 438,≥
2025-03-10 13:36:28.569,725, 532, 446, -7, -3, -3, -6, -3, 8, 930, 812, 435,≥
2025-03-10 13:36:28.627,701, 536, 492, -3, -2, -3, -7, -2, 7, 929, 821, 428,≥
2025-03-10 13:36:28.678,687, 546, 503, -8, -9, -5, -7, -2, 6, 934, 836, 369,≥
2025-03-10 13:36:28.741,794, 526, -134, -92, -15, -23, -6, -1, 7, 945, 859, 252,≥
2025-03-10 13:36:28.794,904, 651, 149, 30, -29, 18, -7, -3, 9, 966, 905, 512,≥
2025-03-10 13:36:28.850,622, 400, 527, 5, -6, -5, -8, -2, 10, 969, 904, 609,≥
2025-03-10 13:36:28.909,595, 505, 371, 53, 18, -15, -8, -2, 10, 973, 901, 506,≥
2025-03-10 13:36:28.962,600, 756, 40, -11, 38, 5, -8, -3, 10, 969, 855, 182,≥
2025-03-10 13:36:29.018,966, 196, 367, -23, 42, -27, -7, -3, 10, 950, 799, 424,≥
2025-03-10 13:36:29.068,443, 607, 719, 33, 0, 16, -5, -4, 8, 954, 720, 292,≥
2025-03-10 13:36:29.129,946, 677, 184, 72, -12, -19, -7, -3, 10, 968, 837, 193,≥
2025-03-10 13:36:29.180,683, 349, 329, -39, 0, 26, -8, -3, 12, 975, 909, 307,≥
2025-03-10 13:36:29.245,719, 510, 383, 20, 8, 3, -9, -2, 12, 964, 830, 572,≥
2025-03-10 13:36:29.299,637, 575, 478, -61, 65, -60, -6, -3, 8, 927, 662, 344,≥
2025-03-10 13:36:29.608,710, 548, 445, -2, -7, 0, -8, -2, 9, 937, 816, 385,±
2025-03-10 13:36:29.662,713, 553, 434, -3, -7, 0, -6, -1, 8, 936, 818, 396,±
2025-03-10 13:36:29.712,708, 542, 465, -4, -2, 0, -5, -2, 8, 938, 828, 408,±
2025-03-10 13:36:29.769,719, 552, 442, -2, -1, 0, -6, -4, 9, 940, 834, 425,±
2025-03-10 13:36:29.818,721, 540, 444, -1, -2, 0, -6, -3, 9, 943, 842, 457,±
2025-03-10 13:36:29.879,721, 538, 445, -2, -3, -1, -5, -3, 9, 943, 850, 480,±
2025-03-10 13:36:29.929,731, 556, 430, -3, -1, -1, -6, -2, 9, 947, 860, 483,±
2025-03-10 13:36:29.989,706, 551, 458, -3, -1, -2, -7, -3, 8, 944, 860, 472,±
2025-03-10 13:36:30.043,720, 548, 440, -6, 2, -1, -6, -3, 9, 945, 856, 437,±
2025-03-10 13:36:30.096,706, 554, 438, -3, -2, -1, -7, -2, 9, 944, 854, 422,±
2025-03-10 13:36:30.154,728, 544, 420, -8, -1, -2, -7, -2, 9, 947, 864, 419,±
2025-03-10 13:36:30.199,740, 527, 462, 1, 0, 0, -7, -3, 7, 949, 871, 403,±
2025-03-10 13:36:30.256,723, 549, 437, 2, 1, -1, -6, 0, 8, 949, 865, 402,±
2025-03-10 13:36:30.310,641, 541, 490, -1, 1, -5, -5, -3, 9, 950, 861, 342,±
2025-03-10 13:36:30.361,915, 568, 441, -18, -12, -20, -5, -3, 9, 965, 893, 7,±
2025-03-10 13:36:30.418,1096, 1032, 190, 2, -22, 33, -6, -3, 11, 977, 933, 415,±
2025-03-10 13:36:30.478,616, 433, 477, 8, 10, 12, -7, -2, 9, 970, 913, 675,±
2025-03-10 13:36:30.528,467, 617, 667, -24, 2, -32, -7, -3, 8, 961, 914, 665,±
2025-03-10 13:36:30.592,791, 648, 457, -1, -11, -4, -7, -2, 8, 977, 930, 570,±
2025-03-10 13:36:30.644,575, 908, 62, 25, 38, 40, -7, -2, 9, 975, 910, 402,±
2025-03-10 13:36:30.698,701, 477, 417, 24, 24, -8, -7, -1, 10, 960, 834, 531,±
2025-03-10 13:36:30.755,508, 657, 826, 31, -19, 12, -5, -4, 9, 953, 799, 347,±
2025-03-10 13:36:30.818,1193, 1200, 453, -20, -26, 39, -6, -3, 10, 975, 923, 347,±
2025-03-10 13:36:30.868,541, 366, 517, 9, 8, 23, -8, -2, 9, 973, 884, 462,±
2025-03-10 13:36:30.928,813, 424, 145, -43, 70, -57, -7, -2, 9, 943, 728, 455,±
2025-03-10 13:36:30.978,554, 547, 825, -1, 6, -22, -4, -2, 5, 923, 622, 62,±
2025-03-10 13:36:31.274,693, 531, 491, -12, -3, -4, -6, -2, 7, 912, 728, 315,∓
2025-03-10 13:36:31.328,684, 534, 501, -9, -3, -3, -6, -2, 8, 914, 729, 319,∓
2025-03-10 13:36:31.378,702, 539, 479, -6, -4, 0, -5, -2, 8, 924, 756, 330,∓
2025-03-10 13:36:31.438,675, 522, 516, -4, -7, -1, -5, -2, 6, 919, 757, 336,∓
2025-03-10 13:36:31.493,686, 535, 452, -8, -2, -6, -6, -2, 7, 927, 791, 333,∓
2025-03-10 13:36:31.551,471, 553, 706, -10, -23, -12, -5, -2, 6, 940, 838, 182,∓
2025-03-10 13:36:31.611,1072, 597, 238, -28, -18, -14, -5, -1, 7, 961, 903, 19,∓
2025-03-10 13:36:31.661,592, 434, 545, -17, -3, 43, -8, -2, 8, 975, 929, 477,∓
2025-03-10 13:36:31.719,624, 450, 467, 57, 3, 1, -8, -1, 8, 960, 802, 641,∓
2025-03-10 13:36:31.776,644, 621, 328, -6, 68, -45, -7, -3, 8, 924, 696, 504,∓
2025-03-10 13:36:31.828,580, 574, 722, 19, -18, 20, -5, -3, 8, 915, 631, 235,∓
2025-03-10 13:36:31.891,834, 726, 139, -33, -16, 2, -5, -1, 10, 964, 873, 248,∓
2025-03-10 13:36:31.944,322, 526, 355, -10, -5, 27, -7, -3, 9, 978, 901, 455,∓
2025-03-10 13:36:31.998,656, 529, 358, 20, 8, -4, -8, -2, 10, 953, 814, 604,∓
2025-03-10 13:36:32.048,618, 647, 744, -3, -2, -19, -5, -3, 9, 930, 792, 534,∓
2025-03-10 13:36:32.112,811, 676, 443, -9, -14, 9, -8, -2, 8, 971, 884, 454,∓
2025-03-10 13:36:32.162,987, 521, 298, 6, 30, 18, -6, -1, 10, 971, 850, 24,∓
2025-03-10 13:36:32.218,1054, 240, 392, -8, 12, -34, -6, -4, 8, 928, 733, 443,∓
2025-03-10 13:36:32.278,605, 468, 690, -45, 47, -38, -4, -3, 5, 865, 716, 262,∓
2025-03-10 13:36:32.552,681, 527, 521, -2, -7, 0, -5, -2, 6, 853, 552, 12,∞
2025-03-10 13:36:32.609,677, 515, 525, -1, -8, 0, -5, -2, 6, 852, 548, 9,∞
2025-03-10 13:36:32.652,697, 541, 481, 2, -10, 0, -5, 0, 5, 852, 556, 11,∞
2025-03-10 13:36:32.714,711, 530, 464, -1, -6, -2, -6, -2, 6, 861, 622, 61,∞
2025-03-10 13:36:32.768,684, 535, 511, -3, -1, -1, -4, -3, 7, 866, 643, 116,∞
2025-03-10 13:36:32.819,713, 526, 464, -1, -1, 1, -6, -2, 6, 871, 661, 163,∞
2025-03-10 13:36:32.875,694, 520, 489, -3, 1, -1, -5, -1, 6, 878, 666, 146,∞
2025-03-10 13:36:32.927,699, 524, 475, 0, 2, 1, -5, 0, 5, 851, 646, 127,∞
2025-03-10 13:36:32.981,700, 508, 488, -5, 1, 1, -2, -1, 8, 867, 652, 119,∞
2025-03-10 13:36:33.030,705, 534, 470, -1, -1, -1, -6, -2, 6, 872, 658, 135,∞
2025-03-10 13:36:33.081,690, 525, 506, 2, 1, 0, -7, -1, 6, 876, 659, 127,∞
2025-03-10 13:36:33.138,696, 543, 501, 1, -1, -2, -4, -2, 6, 872, 658, 134,∞
2025-03-10 13:36:33.193,696, 528, 505, 3, -7, -1, -6, -3, 7, 873, 657, 156,∞
2025-03-10 13:36:33.248,732, 527, 457, -2, -3, -2, -5, -1, 5, 870, 652, 151,∞
2025-03-10 13:36:33.298,679, 511, 543, 8, 2, -1, -5, -2, 5, 878, 674, 156,∞
2025-03-10 13:36:33.358,809, 572, 453, 9, -10, 6, -7, -1, 8, 878, 714, 343,∞
2025-03-10 13:36:33.411,636, 562, 534, -5, -7, -1, -6, -2, 7, 894, 748, 389,∞
2025-03-10 13:36:33.468,696, 544, 512, 1, -19, 11, -7, -3, 7, 915, 783, 440,∞
2025-03-10 13:36:33.518,732, 520, 429, 9, 0, -7, -8, -2, 7, 931, 823, 414,∞
2025-03-10 13:36:33.574,667, 511, 587, 18, 4, -3, -7, -2, 8, 954, 846, 323,∞
2025-03-10 13:36:33.628,604, 720, 333, 13, 24, 12, -5, -2, 9, 970, 860, 12,∞
2025-03-10 13:36:33.681,1025, 283, 690, 12, -12, -41, -7, -2, 9, 949, 886, 9,∞
2025-03-10 13:36:33.742,944, 529, 622, -1, -36, 17, -7, -2, 9, 970, 926, 351,∞
2025-03-10 13:36:33.794,773, 792, 229, -33, 10, 28, -9, -1, 9, 977, 923, 288,∞
2025-03-10 13:36:33.848,390, 332, 704, -5, -30, -39, -8, -1, 7, 970, 919, 367,∞
2025-03-10 13:36:33.910,380, 473, 387, 19, 10, -2, -7, -2, 8, 972, 911, 209,∞
2025-03-10 13:36:33.966,1000, 759, 355, -59, 29, 24, -5, -2, 10, 972, 854, 11,∞
2025-03-10 13:36:34.019,1128, 231, 307, 24, 18, -38, -5, -1, 7, 919, 744, 73,∞
2025-03-10 13:36:34.339,651, 548, 517, 6, -5, 4, -5, -2, 5, 861, 614, 59,∑
2025-03-10 13:36:34.393,655, 547, 529, 7, -5, 5, -6, -1, 5, 864, 621, 69,∑
2025-03-10 13:36:34.448,689, 536, 509, 7, -10, 6, -5, -3, 6, 872, 637, 138,∑
2025-03-10 13:36:34.498,725, 537, 447, -1, -5, 4, -5, -1, 7, 881, 688, 149,∑
2025-03-10 13:36:34.558,690, 516, 512, -2, -1, -1, -6, -1, 7, 888, 721, 161,∑
2025-03-10 13:36:34.610,701, 536, 491, 0, -6, 0, -6, -2, 7, 897, 752, 184,∑
2025-03-10 13:36:34.659,687, 527, 470, -4, -2, -3, -6, 1, 8, 902, 772, 215,∑
2025-03-10 13:36:34.710,681, 535, 516, 0, -5, 0, -6, -2, 7, 904, 795, 224,∑
2025-03-10 13:36:34.768,731, 532, 461, -4, -4, 1, -5, -1, 7, 907, 805, 246,∑
2025-03-10 13:36:34.823,720, 534, 486, 0, 0, 3, -5, -1, 6, 914, 806, 232,∑
2025-03-10 13:36:34.874,703, 542, 466, -2, 0, -3, -6, -2, 7, 916, 806, 245,∑
2025-03-10 13:36:34.928,742, 543, 490, -2, -3, -2, -4, -3, 7, 919, 816, 182,∑
2025-03-10 13:36:34.983,670, 552, 476, -5, -1, 0, -7, -1, 8, 922, 818, 259,∑
2025-03-10 13:36:35.041,716, 536, 516, -1, -3, 0, -5, -2, 8, 923, 822, 261,∑
2025-03-10 13:36:35.091,742, 522, 459, -9, 0, -2, -7, -1, 7, 924, 816, 333,∑
2025-03-10 13:36:35.141,653, 527, 535, 4, 1, -2, -6, -2, 7, 926, 819, 304,∑
2025-03-10 13:36:35.198,578, 577, 524, 14, -16, 5, -8, -2, 7, 932, 818, 183,∑
2025-03-10 13:36:35.257,891, 368, 495, 50, -15, -10, -5, -2, 8, 962, 906, 15,∑
2025-03-10 13:36:35.311,609, 534, 469, 24, -4, 39, -5, -3, 9, 977, 916, 479,∑
2025-03-10 13:36:35.368,667, 350, 331, 24, 7, -31, -6, -2, 10, 950, 869, 623,∑
2025-03-10 13:36:35.425,2649, 213, 270, -53, -3, -15, -6, -3, 9, 952, 876, 323,∑
2025-03-10 13:36:35.478,572, 884, 277, -29, 10, 34, -5, -2, 9, 975, 922, 391,∑
2025-03-10 13:36:35.540,494, 639, 577, 0, 10, 19, -6, -3, 10, 973, 916, 488,∑
2025-03-10 13:36:35.592,494, 432, 558, 12, 25, -10, -8, -2, 9, 965, 837, 284,∑
2025-03-10 13:36:35.644,984, 594, 267, 23, 0, 1, -6, -3, 10, 971, 893, 16,∑
2025-03-10 13:36:35.698,646, 868, 264, -27, -1, 27, -7, -3, 11, 980, 926, 9,∑
2025-03-10 13:36:35.757,714, 534, 556, 23, 9, -8, -7, -2, 10, 960, 824, 458,∑
2025-03-10 13:36:36.072,714, 547, 454, -6, -2, -1, -5, -3, 8, 927, 784, 399,∏
2025-03-10 13:36:36.128,704, 528, 475, -8, -1, -2, -7, -1, 9, 924, 787, 403,∏
2025-03-10 13:36:36.188,715, 550, 460, -5, -2, 0, -4, -1, 8, 926, 804, 411,∏
2025-03-10 13:36:36.240,698, 525, 483, -2, -1, 0, -7, -3, 7, 926, 813, 422,∏
2025-03-10 13:36:36.292,734, 541, 449, -4, 1, 1, -5, -2, 8, 929, 816, 428,∏
2025-03-10 13:36:36.344,703, 561, 484, -8, 2, 1, -6, -2, 8, 934, 820, 427,∏
2025-03-10 13:36:36.398,701, 540, 498, -1, -2, 1, -6, -2, 7, 938, 835, 426,∏
2025-03-10 13:36:36.457,734, 541, 467, -2, -1, -1, -5, -3, 7, 936, 840, 436,∏
2025-03-10 13:36:36.510,715, 542, 462, -6, -1, -1, -6, -1, 8, 937, 843, 387,∏
2025-03-10 13:36:36.561,702, 520, 483, -3, 0, -3, -6, -2, 7, 942, 849, 384,∏
2025-03-10 13:36:36.618,696, 527, 485, -2, -3, -6, -5, -1, 7, 941, 859, 371,∏
2025-03-10 13:36:36.675,560, 526, 707, 17, -37, 3, -7, -2, 8, 949, 873, 255,∏
2025-03-10 13:36:36.728,772, 664, 430, -17, -5, -7, -5, -2, 8, 957, 885, 16,∏
2025-03-10 13:36:36.778,822, 381, 486, 30, -8, -6, -7, -1, 7, 968, 925, 13,∏
2025-03-10 13:36:36.842,777, 468, 363, -3, -15, 50, -6, -2, 9, 977, 930, 453,∏
2025-03-10 13:36:36.896,665, 334, 488, 25, 1, 0, -8, -3, 8, 972, 890, 608,∏
2025-03-10 13:36:36.949,731, 426, 350, -3, 36, -41, -6, -3, 10, 952, 840, 593,∏
2025-03-10 13:36:37.007,693, 679, 793, 14, -31, 23, -6, -3, 9, 947, 865, 473,∏
2025-03-10 13:36:37.059,834, 631, 312, -10, 18, 39, -5, -3, 9, 974, 909, 471,∏
2025-03-10 13:36:37.110,725, 635, 76, -2, 31, 21, -6, -2, 9, 973, 883, 301,∏
2025-03-10 13:36:37.175,917, 325, 225, -18, -30, -45, -6, -3, 9, 945, 876, 642,∏
2025-03-10 13:36:37.229,472, 532, -414, -143, -23, -23, -8, -1, 9, 965, 915, 632,∏
2025-03-10 13:36:37.289,613, 944, 222, 0, 33, 33, -7, -3, 9, 975, 908, 370,∏
2025-03-10 13:36:37.343,788, 525, 222, -7, 34, 29, -8, -3, 9, 970, 860, 389,∏
2025-03-10 13:36:37.398,859, 511, 97, -41, 62, -49, -6, -2, 7, 928, 789, 511,∏
2025-03-10 13:36:37.719,706, 500, 514, 7, -9, -2, -5, -1, 6, 814, 485, 57,√
2025-03-10 13:36:37.772,708, 506, 516, 7, -8, -2, -7, -1, 5, 809, 483, 66,√
2025-03-10 13:36:37.826,708, 521, 479, 3, -1, -6, -4, -1, 5, 794, 466, 127,√
2025-03-10 13:36:37.880,677, 533, 531, 9, 1, -3, -5, -1, 4, 797, 523, 153,√
2025-03-10 13:36:37.931,707, 532, 475, 2, 0, 0, -5, -1, 6, 790, 533, 194,√
2025-03-10 13:36:37.981,692, 523, 522, -5, -2, -1, -6, -1, 6, 821, 574, 268,√
2025-03-10 13:36:38.038,687, 530, 512, 0, -3, 1, -5, -1, 6, 854, 635, 303,√
2025-03-10 13:36:38.093,651, 511, 551, 8, -8, 0, -5, 0, 6, 858, 650, 317,√
2025-03-10 13:36:38.146,712, 532, 480, 2, -10, 3, -6, -1, 6, 864, 669, 312,√
2025-03-10 13:36:38.198,729, 534, 455, 1, -1, 2, -8, -1, 7, 877, 698, 317,√
2025-03-10 13:36:38.248,742, 524, 461, -5, -1, -2, -5, -2, 5, 887, 723, 336,√
2025-03-10 13:36:38.300,668, 540, 530, 6, 1, -5, -7, -1, 7, 894, 767, 294,√
2025-03-10 13:36:38.358,733, 501, 456, 10, 5, 1, -5, -2, 6, 901, 768, 281,√
2025-03-10 13:36:38.412,667, 565, 478, 9, 3, -2, -5, -2, 8, 904, 780, 311,√
2025-03-10 13:36:38.469,636, 553, 548, 13, -15, 13, -5, -1, 8, 918, 818, 380,√
2025-03-10 13:36:38.522,806, 583, 290, 20, 3, -4, -5, -2, 8, 954, 888, 151,√
2025-03-10 13:36:38.579,522, 491, 457, 5, -2, 25, -6, -2, 10, 969, 915, 661,√
2025-03-10 13:36:38.628,403, 506, 450, 24, 28, 11, -7, -3, 10, 971, 906, 630,√
2025-03-10 13:36:38.690,698, 349, 412, -35, 19, 24, -5, -3, 9, 975, 896, 10,√
2025-03-10 13:36:38.748,805, 217, 651, -3, -72, -66, -8, -2, 7, 971, 939, 115,√
2025-03-10 13:36:38.798,611, 583, 650, 4, -27, -9, -8, -1, 8, 973, 949, 485,√
2025-03-10 13:36:38.849,520, 453, 201, 3, 10, 27, -8, 0, 7, 975, 923, 460,√
2025-03-10 13:36:38.907,757, 428, 528, 11, 4, -5, -8, -2, 9, 963, 897, 568,√
2025-03-10 13:36:38.961,647, 506, 445, -35, 68, -47, -5, -1, 8, 936, 787, 428,√
2025-03-10 13:36:39.238,706, 532, 465, -5, 2, -2, -4, -2, 8, 890, 643, 161,∛
2025-03-10 13:36:39.280,682, 539, 478, -5, 2, 0, -5, -2, 8, 892, 644, 137,∛
2025-03-10 13:36:39.342,705, 545, 453, -1, -2, 0, -5, -2, 10, 900, 678, 103,∛
2025-03-10 13:36:39.398,732, 561, 423, -10, 0, 0, -6, -4, 7, 905, 710, 141,∛
2025-03-10 13:36:39.448,682, 523, 513, -2, 2, 2, -4, -1, 9, 907, 721, 143,∛
2025-03-10 13:36:39.499,716, 537, 436, 6, 1, -2, -5, -3, 7, 910, 735, 210,∛
2025-03-10 13:36:39.558,675, 550, 516, 3, 1, -1, -6, -2, 9, 909, 752, 222,∛
2025-03-10 13:36:39.609,708, 550, 464, 9, -1, -1, -6, -3, 8, 898, 756, 161,∛
2025-03-10 13:36:39.660,623, 596, 505, -6, -15, 5, -5, -3, 9, 907, 769, 14,∛
2025-03-10 13:36:39.718,784, 526, 239, 5, 1, -3, -5, -2, 7, 942, 851, 14,∛
2025-03-10 13:36:39.775,568, 447, 325, -27, -6, 18, -6, -2, 7, 960, 894, 312,∛
2025-03-10 13:36:39.828,576, 538, 517, 38, 27, 24, -7, -4, 9, 966, 865, 306,∛
2025-03-10 13:36:39.879,726, 509, 420, -29, 20, 20, -6, 0, 9, 965, 856, 12,∛
2025-03-10 13:36:39.939,816, 354, 339, -1, -36, -47, -5, -1, 6, 950, 905, 13,∛
2025-03-10 13:36:39.992,739, 375, 453, 11, -30, -9, -7, -1, 8, 965, 913, 397,∛
2025-03-10 13:36:40.048,710, 604, 339, 15, -12, 22, -6, -2, 9, 970, 880, 511,∛
2025-03-10 13:36:40.108,573, 209, 577, 18, 1, -34, -9, -3, 10, 952, 842, 636,∛
2025-03-10 13:36:40.158,573, 781, 672, -7, 37, -79, -6, -3, 10, 934, 847, 569,∛
2025-03-10 13:36:40.218,595, 713, 696, 30, -69, 40, -5, -3, 9, 950, 899, 638,∛
2025-03-10 13:36:40.279,770, 672, 330, -5, -6, 10, -5, -3, 10, 967, 931, 701,∛
2025-03-10 13:36:40.329,602, 646, 484, 8, 8, 10, -5, -3, 9, 970, 933, 712,∛
2025-03-10 13:36:40.378,750, 507, 201, -1, 9, 1, -6, -3, 10, 969, 932, 685,∛
2025-03-10 13:36:40.438,656, 541, 542, -3, 14, 9, -6, -2, 9, 973, 932, 558,∛
2025-03-10 13:36:40.492,700, 578, 364, -5, 20, 5, -5, -3, 7, 958, 892, 448,∛
2025-03-10 13:36:40.548,794, 544, 348, -20, 36, -20, -6, -2, 6, 921, 865, 449,∛
2025-03-10 13:36:40.598,591, 591, 645, -2, 1, 4, -4, -2, 7, 925, 833, 337,∛
2025-03-10 13:36:40.959,709, 560, 484, 0, -1, 1, -6, -1, 7, 893, 683, 200,∜
2025-03-10 13:36:41.018,707, 538, 480, -1, -2, 1, -6, -2, 8, 894, 688, 202,∜
2025-03-10 13:36:41.069,696, 554, 460, 1, -1, 0, -6, -2, 7, 897, 698, 229,∜
2025-03-10 13:36:41.123,667, 559, 488, 7, 2, 1, -5, -2, 7, 896, 700, 223,∜
2025-03-10 13:36:41.176,659, 559, 484, 12, 0, 3, -5, -3, 8, 894, 694, 150,∜
2025-03-10 13:36:41.228,771, 661, 389, 1, -6, -14, -7, -2, 8, 917, 803, 16,∜
2025-03-10 13:36:41.279,520, 884, 457, -9, -18, 10, -5, -3, 9, 957, 875, 238,∜
2025-03-10 13:36:41.340,583, 523, 624, 30, 0, 12, -6, -4, 9, 969, 865, 479,∜
2025-03-10 13:36:41.397,451, 673, 407, -37, 37, 35, -5, -3, 10, 973, 836, 16,∜
2025-03-10 13:36:41.448,726, 593, 484, -81, 14, 25, -7, -1, 7, 963, 864, 13,∜
2025-03-10 13:36:41.508,773, 506, 774, -24, -45, -45, -9, -2, 8, 958, 907, 72,∜
2025-03-10 13:36:41.559,747, 605, 332, 46, -28, 29, -8, -3, 9, 969, 863, 475,∜
2025-03-10 13:36:41.623,642, 522, 368, 17, 10, 5, -10, -2, 10, 962, 815, 607,∜
2025-03-10 13:36:41.679,472, 551, 326, -30, 51, -101, -7, -4, 9, 945, 858, 661,∜
2025-03-10 13:36:41.728,657, 625, 579, 0, -48, 4, -2, -4, 10, 945, 880, 600,∜
2025-03-10 13:36:41.790,753, 715, 280, -23, -17, 0, -6, -4, 9, 969, 931, 678,∜
2025-03-10 13:36:41.842,595, 765, 224, 11, 25, 15, -5, -4, 11, 971, 928, 542,∜
2025-03-10 13:36:41.898,883, 640, 122, -5, 5, 1, -4, -3, 10, 974, 916, 11,∜
2025-03-10 13:36:41.958,959, 329, 301, -22, -8, 35, -5, -3, 10, 977, 943, 422,∜
2025-03-10 13:36:42.009,666, 563, 470, 6, 0, 6, -7, -3, 10, 968, 928, 640,∜
2025-03-10 13:36:42.061,447, 737, 862, -1, -11, -7, -6, -3, 9, 965, 918, 605,∜
2025-03-10 13:36:42.119,835, 941, 65, 1, 20, 25, -6, -3, 10, 976, 931, 437,∜
2025-03-10 13:36:42.175,707, 486, 644, -4, 26, 27, -5, -2, 10, 966, 893, 531,∜
2025-03-10 13:36:42.228,664, 526, 433, -57, 71, -57, -4, -2, 7, 908, 811, 329,∜
2025-03-10 13:36:42.513,666, 603, 501, 38, -15, 6, -4, -5, 7, 890, 76, 302,∫
2025-03-10 13:36:42.572,630, 682, 497, 14, -18, 9, -4, -5, 7, 903, 101, 355,∫
2025-03-10 13:36:42.626,684, 539, 452, 4, -18, 11, -5, -4, 9, 932, 667, 490,∫
2025-03-10 13:36:42.678,746, 642, 338, 13, 0, 3, -4, -3, 11, 949, 808, 694,∫
2025-03-10 13:36:42.728,690, 619, 428, -4, -1, 4, -4, -3, 10, 952, 872, 745,∫
2025-03-10 13:36:42.790,697, 600, 428, 2, -5, 5, -5, -5, 10, 957, 898, 763,∫
2025-03-10 13:36:42.842,724, 588, 411, -2, -2, 2, -5, -4, 10, 956, 906, 771,∫
2025-03-10 13:36:42.899,696, 593, 430, -2, 2, 1, -4, -4, 10, 957, 909, 775,∫
2025-03-10 13:36:42.948,708, 593, 398, -2, 0, 1, -6, -3, 10, 956, 907, 769,∫
2025-03-10 13:36:43.007,698, 571, 425, -4, 2, 0, -5, -5, 9, 956, 907, 763,∫
2025-03-10 13:36:43.059,708, 587, 432, -2, 2, 3, -5, -4, 9, 955, 901, 755,∫
2025-03-10 13:36:43.108,718, 594, 408, -4, -2, 3, -5, -3, 8, 959, 905, 753,∫
2025-03-10 13:36:43.162,697, 552, 400, -13, 0, 2, -6, -3, 9, 956, 904, 752,∫
2025-03-10 13:36:43.224,759, 583, 428, -6, -18, 19, -7, -4, 10, 964, 917, 763,∫
2025-03-10 13:36:43.279,706, 516, 435, -6, -8, 15, -8, -3, 10, 965, 921, 737,∫
2025-03-10 13:36:43.339,691, 594, 479, -10, -8, -4, -8, -2, 10, 964, 933, 730,∫
2025-03-10 13:36:43.390,422, 444, 515, 4, -7, -19, -8, -2, 11, 968, 940, 666,∫
2025-03-10 13:36:43.449,708, 534, 376, 21, 14, -10, -7, -4, 10, 975, 938, 554,∫
2025-03-10 13:36:43.507,758, 558, 499, 10, 27, 17, -7, -5, 12, 978, 940, 345,∫
2025-03-10 13:36:43.558,510, 457, 362, 4, 20, -5, -6, -2, 11, 967, 893, 362,∫
2025-03-10 13:36:43.621,1057, 381, 277, -37, 27, -38, -7, -4, 12, 892, 804, 495,∫
2025-03-10 13:36:43.679,584, 635, 691, -28, -2, -31, -3, -3, 8, 886, 818, 351,∫
2025-03-10 13:36:43.979,720, 526, 468, -2, -13, 5, -6, -1, 7, 918, 820, 264,∮
2025-03-10 13:36:44.040,718, 524, 457, 2, -12, 4, -6, -1, 7, 918, 826, 268,∮
2025-03-10 13:36:44.095,758, 552, 405, -5, -2, 2, -8, -1, 8, 926, 846, 284,∮
2025-03-10 13:36:44.148,690, 550, 482, -1, -1, 2, -6, -3, 7, 933, 864, 340,∮
2025-03-10 13:36:44.198,715, 515, 441, 2, -3, 3, -7, 0, 9, 936, 872, 389,∮
2025-03-10 13:36:44.248,732, 524, 458, -2, 0, 1, -7, -3, 9, 939, 883, 408,∮
2025-03-10 13:36:44.309,716, 529, 477, -3, -1, -1, -7, -3, 8, 944, 888, 402,∮
2025-03-10 13:36:44.361,731, 531, 442, -1, -3, -1, -6, -2, 8, 945, 894, 405,∮
2025-03-10 13:36:44.410,719, 525, 441, -7, -1, 0, -5, -3, 8, 946, 894, 399,∮
2025-03-10 13:36:44.470,722, 543, 455, 3, -4, 0, -9, 0, 10, 946, 896, 399,∮
2025-03-10 13:36:44.522,744, 522, 439, -3, 4, 0, -7, -2, 8, 950, 896, 399,∮
2025-03-10 13:36:44.576,726, 537, 450, 2, -3, 2, -7, -2, 9, 947, 894, 405,∮
2025-03-10 13:36:44.628,706, 518, 412, -2, -1, 1, -8, -4, 7, 954, 904, 461,∮
2025-03-10 13:36:44.678,740, 546, 470, -2, -14, 6, -8, -2, 9, 951, 910, 512,∮
2025-03-10 13:36:44.740,734, 509, 403, -4, -8, -1, -7, -2, 7, 958, 920, 516,∮
2025-03-10 13:36:44.794,639, 531, 545, -7, -7, -14, -8, -2, 8, 959, 935, 410,∮
2025-03-10 13:36:44.855,1056, 403, 440, 54, 4, -18, -7, -3, 9, 969, 937, 263,∮
2025-03-10 13:36:44.908,734, 638, 5, -5, 47, 35, -7, -2, 12, 974, 941, 325,∮
2025-03-10 13:36:44.958,547, 239, 660, 0, -41, -43, -7, -4, 10, 964, 937, 667,∮
2025-03-10 13:36:45.023,779, 736, 618, 15, -20, -13, -7, -4, 11, 966, 951, 730,∮
2025-03-10 13:36:45.079,700, 646, 359, 15, 13, 25, -8, -5, 14, 977, 956, 641,∮
2025-03-10 13:36:45.128,1198, 427, 74, -52, 48, 30, -8, -3, 9, 974, 944, 17,∮
2025-03-10 13:36:45.190,1103, 192, 555, 5, -11, -48, -8, -3, 8, 949, 893, 362,∮
2025-03-10 13:36:45.248,480, 586, 796, 6, -58, -20, -6, -3, 7, 952, 930, 623,∮
2025-03-10 13:36:45.305,861, 541, 253, 16, -20, 13, -6, -3, 9, 970, 947, 681,∮
2025-03-10 13:36:45.360,361, 713, 200, -18, 62, 53, -9, -3, 10, 982, 946, 245,∮
2025-03-10 13:36:45.410,895, 414, 378, -24, 36, 7, -9, -1, 8, 966, 811, 2,∮
2025-03-10 13:36:45.468,750, 574, 319, -22, 70, -51, -5, -1, 8, 889, 709, 181,∮
2025-03-10 13:36:45.523,501, 530, 728, -16, 27, -38, -2, -1, 3, 823, 676, 149,∮
2025-03-10 13:36:45.828,684, 510, 521, 18, -18, -32, -4, -3, 7, 776, 508, 9,∂
2025-03-10 13:36:45.878,684, 522, 528, 18, -21, -35, -5, -2, 6, 770, 499, 20,∂
2025-03-10 13:36:45.940,694, 600, 499, 32, -35, -49, -4, -4, 8, 784, 494, 119,∂
2025-03-10 13:36:45.998,587, 686, 371, -3, -26, -44, -3, -5, 11, 850, 543, 159,∂
2025-03-10 13:36:46.055,511, 799, 418, -18, -6, 17, -2, -5, 11, 894, 668, 81,∂
2025-03-10 13:36:46.109,602, 585, 488, -8, 0, 55, -3, -6, 10, 921, 754, 55,∂
2025-03-10 13:36:46.158,784, 563, 356, 2, -6, 38, -5, -3, 9, 933, 793, 186,∂
2025-03-10 13:36:46.218,756, 551, 427, -5, 3, 19, -6, -2, 11, 941, 834, 247,∂
2025-03-10 13:36:46.273,731, 566, 446, -9, -1, 9, -7, -3, 11, 942, 852, 302,∂
2025-03-10 13:36:46.328,723, 539, 420, -3, 0, 5, -7, -3, 10, 947, 860, 305,∂
2025-03-10 13:36:46.378,726, 539, 412, -5, -1, 2, -8, -4, 10, 947, 867, 339,∂
2025-03-10 13:36:46.439,716, 534, 432, -5, -3, 0, -7, -3, 10, 947, 880, 381,∂
2025-03-10 13:36:46.491,710, 540, 448, -6, -3, 1, -8, -1, 10, 948, 884, 384,∂
2025-03-10 13:36:46.549,738, 536, 440, -4, -1, -2, -8, -2, 10, 951, 883, 348,∂
2025-03-10 13:36:46.599,750, 537, 423, -6, -1, 1, -7, -3, 9, 950, 879, 303,∂
2025-03-10 13:36:46.657,711, 533, 435, 0, -1, -3, -7, -3, 9, 952, 879, 295,∂
2025-03-10 13:36:46.708,663, 567, 434, 3, -4, -5, -7, -3, 9, 952, 873, 316,∂
2025-03-10 13:36:46.767,662, 523, 394, 3, 2, -14, -7, -4, 10, 955, 893, 348,∂
2025-03-10 13:36:46.819,859, 579, 576, 48, -6, 4, -6, -3, 10, 963, 932, 563,∂
2025-03-10 13:36:46.878,560, 446, 391, 50, 30, 22, -6, -3, 10, 971, 936, 591,∂
2025-03-10 13:36:46.928,354, 683, 318, -33, 23, 12, -7, -5, 11, 968, 906, 11,∂
2025-03-10 13:36:46.988,859, 288, 750, 30, -27, -18, -6, -3, 11, 970, 942, 8,∂
2025-03-10 13:36:47.041,390, 522, 300, -1, -11, 9, -9, -3, 10, 979, 960, 402,∂
2025-03-10 13:36:47.098,903, 480, 294, -16, 20, -1, -7, -2, 10, 967, 937, 524,∂
2025-03-10 13:36:47.430,691, 549, 495, 6, -10, 9, -5, -3, 8, 899, 770, 291,∇
2025-03-10 13:36:47.478,696, 536, 484, 7, -10, 9, -6, -3, 9, 902, 767, 291,∇
2025-03-10 13:36:47.528,744, 554, 403, 4, -8, 4, -7, -3, 8, 896, 757, 275,∇
2025-03-10 13:36:47.590,723, 559, 426, -6, 0, 0, -7, -2, 9, 901, 770, 271,∇
2025-03-10 13:36:47.640,728, 560, 453, -4, 0, 5, -8, -3, 7, 908, 784, 264,∇
2025-03-10 13:36:47.695,736, 518, 445, -2, 0, 1, -6, -2, 8, 918, 797, 267,∇
2025-03-10 13:36:47.748,711, 536, 456, -4, -1, 0, -6, -3, 7, 925, 806, 270,∇
2025-03-10 13:36:47.799,727, 536, 449, -3, 0, 0, -7, -3, 8, 930, 816, 271,∇
2025-03-10 13:36:47.856,718, 529, 458, -3, -1, -1, -4, -1, 6, 934, 822, 258,∇
2025-03-10 13:36:47.908,740, 525, 436, -3, -2, 1, -7, -2, 9, 935, 827, 272,∇
2025-03-10 13:36:47.967,713, 534, 463, -2, -1, -1, -7, -2, 8, 937, 833, 267,∇
2025-03-10 13:36:48.018,726, 520, 436, -2, -1, -3, -8, -3, 8, 936, 839, 290,∇
2025-03-10 13:36:48.075,714, 530, 455, -3, -2, -4, -7, -1, 8, 936, 837, 303,∇
2025-03-10 13:36:48.128,728, 536, 456, -2, -3, -4, -6, -3, 10, 939, 834, 304,∇
2025-03-10 13:36:48.188,703, 493, 453, 3, -3, -10, -7, -3, 9, 932, 831, 331,∇
2025-03-10 13:36:48.240,632, 556, 479, 2, 8, -15, -7, -3, 8, 931, 762, 13,∇
2025-03-10 13:36:48.292,695, 536, 437, 6, -4, -7, -4, -2, 8, 927, 756, 122,∇
2025-03-10 13:36:48.348,795, 699, 612, 25, -1, -17, -6, -2, 8, 943, 829, 17,∇
2025-03-10 13:36:48.398,848, 443, 286, 52, -4, -5, -4, -4, 9, 961, 919, 6,∇
2025-03-10 13:36:48.458,579, 480, 444, 0, -10, 43, -6, -5, 10, 974, 948, 557,∇
2025-03-10 13:36:48.508,687, 510, 653, 23, -10, 1, -5, -3, 10, 979, 952, 579,∇
2025-03-10 13:36:48.569,1216, 241, 294, 0, 28, 7, -7, -4, 11, 976, 932, 17,∇
2025-03-10 13:36:48.625,765, 424, 703, -36, 16, -11, -7, -2, 10, 957, 843, 263,∇
2025-03-10 13:36:48.678,566, 665, 871, -5, -35, -19, -6, -2, 7, 936, 830, 197,∇
2025-03-10 13:36:48.740,896, 708, 557, 24, -21, 20, -5, -3, 7, 976, 935, 308,∇
2025-03-10 13:36:48.792,670, 524, 256, -8, 33, 49, -7, -2, 9, 977, 927, 193,∇
2025-03-10 13:36:48.848,848, 346, 417, -25, 19, -27, -7, -2, 8, 952, 755, 352,∇
2025-03-10 13:36:48.908,686, 502, 677, -27, 31, -34, -5, -2, 6, 854, 455, 13,∇
2025-03-10 13:36:49.228,660, 619, 501, 6, -25, -46, -1, -4, 9, 651, 306, 10,∆
2025-03-10 13:36:49.279,651, 644, 465, 8, -27, -49, -2, -4, 9, 655, 316, 7,∆
2025-03-10 13:36:49.340,620, 691, 462, 1, -21, -48, -2, -5, 10, 684, 358, 2,∆
2025-03-10 13:36:49.393,597, 766, 390, 5, -14, -45, -1, -5, 11, 632, 197, 9,∆
2025-03-10 13:36:49.444,493, 803, 357, -5, 1, -8, 2, -5, 10, 693, 300, 17,∆
2025-03-10 13:36:49.498,432, 771, 429, 0, 10, 54, 0, -5, 12, 751, 375, 4,∆
2025-03-10 13:36:49.548,592, 602, 468, 9, -7, 43, -1, -6, 10, 775, 432, 14,∆
2025-03-10 13:36:49.608,715, 689, 354, -19, 12, 14, -3, -5, 10, 721, 367, 10,∆
2025-03-10 13:36:49.660,462, 742, 322, -34, 18, 53, -2, -6, 10, 681, 324, 10,∆
2025-03-10 13:36:49.720,404, 336, 927, 10, 5, 46, -4, -4, 6, 653, 488, 14,∆
2025-03-10 13:36:49.774,905, 636, 311, 50, -16, 20, -7, -4, 8, 524, 387, 11,∆
2025-03-10 13:36:49.828,859, 587, -27, -63, 33, -43, -4, -3, 10, 556, 372, 14,∆
2025-03-10 13:36:49.883,533, 633, 726, -7, -5, -2, -2, -4, 9, 665, 521, 13,∆
2025-03-10 13:36:49.937,656, 637, 444, -20, 1, -3, -3, -5, 7, 695, 511, 9,∆
2025-03-10 13:36:49.991,611, 672, 516, -6, -18, 13, -4, -3, 9, 855, 630, 7,∆
2025-03-10 13:36:50.040,605, 596, 453, -5, -30, 29, -3, -4, 8, 908, 774, 10,∆
2025-03-10 13:36:50.105,709, 565, 412, 17, -39, 15, -7, -2, 10, 932, 843, 267,∆
2025-03-10 13:36:50.158,632, 518, 437, 5, -43, 17, -9, -4, 12, 953, 914, 543,∆
2025-03-10 13:36:50.208,391, 588, 245, 49, -2, -14, -6, -3, 12, 969, 924, 191,∆
2025-03-10 13:36:50.272,652, 522, 97, 10, 35, 17, -5, -4, 12, 967, 884, 19,∆
2025-03-10 13:36:50.328,802, 273, 763, 11, -26, -28, -7, -3, 12, 921, 855, 310,∆
2025-03-10 13:36:50.387,689, 326, 712, 15, -17, -4, -8, -2, 9, 965, 923, 534,∆
2025-03-10 13:36:50.441,859, 812, 111, 1, 38, 37, -7, -4, 14, 968, 913, 325,∆
2025-03-10 13:36:50.491,643, 441, 446, 0, 24, 13, -7, -3, 13, 946, 823, 209,∆
2025-03-10 13:36:50.548,570, 611, 524, -22, 11, -36, -7, -3, 11, 929, 638, 5,∆
2025-03-10 13:36:50.608,822, 721, 460, -26, -17, -3, -6, -4, 11, 959, 904, 17,∆
2025-03-10 13:36:50.658,730, 397, 259, -15, -2, 35, -8, -5, 12, 976, 946, 255,∆
2025-03-10 13:36:50.723,823, 468, 272, -19, 28, -1, -8, -3, 12, 953, 895, 478,∆
2025-03-10 13:36:50.778,693, 421, 466, -95, 126, -72, -5, -3, 6, 844, 565, 19,∆
2025-03-10 13:36:50.833,451, 640, 811, -30, 66, -42, -1, -2, 0, 721, 198, 7,∆
2025-03-10 13:36:51.158,473, 639, 608, 17, -1, -5, 4, -1, -2, 12, 319, 345,π
2025-03-10 13:36:51.209,483, 648, 623, 16, 0, -5, 4, -1, -2, 13, 317, 335,π
2025-03-10 13:36:51.258,470, 667, 602, -2, 9, -3, 4, -2, -1, 10, 307, 317,π
2025-03-10 13:36:51.318,478, 672, 625, 4, -3, 2, 4, -2, 0, 120, 342, 256,π
2025-03-10 13:36:51.370,412, 667, 718, 21, -28, 17, 4, -1, 0, 338, 374, 30,π
2025-03-10 13:36:51.423,361, 636, 633, 43, -74, 55, 2, -3, 4, 598, 427, 9,π
2025-03-10 13:36:51.473,580, 621, 349, 11, -16, 56, 0, -4, 5, 706, 475, 13,π
2025-03-10 13:36:51.529,631, 536, 430, 7, -16, 52, -2, -3, 6, 819, 579, 12,π
2025-03-10 13:36:51.587,856, 539, 577, 29, -44, 34, -4, -2, 7, 862, 678, 19,π
2025-03-10 13:36:51.640,709, 542, 331, -12, -1, 13, -6, -3, 9, 887, 751, 13,π
2025-03-10 13:36:51.690,715, 588, 454, -4, -6, 1, -7, -3, 9, 909, 793, 147,π
2025-03-10 13:36:51.740,715, 551, 420, 1, -3, 0, -7, -3, 9, 915, 808, 174,π
2025-03-10 13:36:51.804,663, 580, 475, -6, -3, -7, -6, -3, 9, 921, 820, 195,π
2025-03-10 13:36:51.858,704, 577, 440, -7, -5, -3, -5, -6, 9, 924, 805, 139,π
2025-03-10 13:36:51.908,741, 563, 423, 1, -7, -4, -7, -2, 9, 923, 802, 202,π
2025-03-10 13:36:51.968,679, 603, 490, 3, -3, -22, -5, -2, 10, 938, 854, 11,π
2025-03-10 13:36:52.023,679, 1045, 333, -13, -50, 53, -8, -4, 10, 967, 940, 464,π
2025-03-10 13:36:52.078,686, 458, 679, 12, 10, 25, -8, -3, 11, 968, 935, 652,π
2025-03-10 13:36:52.139,545, 487, 396, -7, 33, -54, -6, -4, 10, 952, 899, 655,π
2025-03-10 13:36:52.198,805, 1031, 478, 9, -11, -6, -7, -2, 11, 962, 912, 674,π
2025-03-10 13:36:52.255,315, 642, 497, -29, 39, 31, -7, -3, 10, 971, 913, 332,π
2025-03-10 13:36:52.308,831, 538, 244, -16, 17, 3, -7, -3, 10, 954, 840, 272,π
2025-03-10 13:36:52.365,583, 598, 579, -12, -7, -17, -7, -3, 8, 955, 914, 631,π
2025-03-10 13:36:52.423,639, 855, 499, 1, -12, -6, -8, -4, 10, 973, 935, 623,π
2025-03-10 13:36:52.478,368, 578, 223, 35, 33, 45, -7, -3, 11, 977, 922, 283,π
2025-03-10 13:36:52.529,608, 248, 407, 14, 16, 15, -7, -2, 9, 974, 945, 513,π
2025-03-10 13:36:52.590,975, 487, 222, -1, 37, -13, -7, -3, 12, 951, 908, 715,π
2025-03-10 13:36:52.647,568, 541, 617, -55, 100, -62, -6, -3, 7, 921, 790, 507,π
2025-03-10 13:36:52.706,520, 666, 725, -24, 40, -17, -1, -2, 3, 815, 460, 86,π
2025-03-10 13:36:52.988,539, 671, 593, 12, -5, -12, 0, -4, 4, 437, 74, 192,θ
2025-03-10 13:36:53.039,527, 683, 579, 11, -9, -9, 0, -3, 4, 435, 83, 194,θ
2025-03-10 13:36:53.089,479, 606, 524, 18, -24, 5, 0, -3, 6, 503, 104, 56,θ
2025-03-10 13:36:53.151,529, 638, 447, 14, -24, 27, -1, -4, 8, 547, 133, 15,θ
2025-03-10 13:36:53.206,605, 630, 451, 0, -19, 33, -1, -7, 8, 638, 195, 3,θ
2025-03-10 13:36:53.258,686, 639, 412, 3, -23, 33, -3, -4, 8, 694, 312, 12,θ
2025-03-10 13:36:53.308,767, 614, 421, -11, -10, 6, -4, -4, 8, 765, 454, 11,θ
2025-03-10 13:36:53.370,703, 600, 458, -7, -10, 10, -5, -2, 8, 815, 553, 13,θ
2025-03-10 13:36:53.422,682, 580, 448, -4, -6, 2, -5, -3, 9, 852, 662, 149,θ
2025-03-10 13:36:53.473,723, 593, 445, -3, -5, 6, -4, -3, 9, 885, 707, 238,θ
2025-03-10 13:36:53.529,683, 578, 446, -7, 0, -2, -4, -4, 10, 899, 756, 373,θ
2025-03-10 13:36:53.586,711, 573, 451, -1, -5, 3, -3, -3, 8, 906, 788, 437,θ
2025-03-10 13:36:53.639,689, 568, 438, -8, 2, -2, -6, -3, 9, 915, 801, 446,θ
2025-03-10 13:36:53.688,697, 579, 392, -3, -11, 15, -5, -3, 9, 941, 857, 595,θ
2025-03-10 13:36:53.754,565, 547, 543, -9, -22, -10, -6, -1, 8, 944, 889, 618,θ
2025-03-10 13:36:53.808,841, 726, 457, -14, -10, -16, -6, -3, 11, 953, 906, 472,θ
2025-03-10 13:36:53.870,1154, 944, 135, 76, 35, 37, -5, -4, 12, 972, 919, 393,θ
2025-03-10 13:36:53.922,812, 589, 344, -19, 33, 25, -6, -4, 12, 966, 917, 526,θ
2025-03-10 13:36:53.978,960, 528, 361, 5, -27, -33, -6, -3, 11, 938, 897, 694,θ
2025-03-10 13:36:54.037,538, 509, 277, 9, -9, 19, -5, -3, 11, 969, 909, 680,θ
2025-03-10 13:36:54.088,598, 947, 7, -2, 48, 33, -7, -4, 12, 971, 900, 275,θ
2025-03-10 13:36:54.138,700, 521, 471, -69, 31, 3, -7, -2, 9, 944, 772, 12,θ
2025-03-10 13:36:54.205,462, 681, 769, 16, -26, -19, -8, -2, 8, 938, 824, 201,θ
2025-03-10 13:36:54.258,683, 1210, 145, -13, -26, 18, -6, -3, 11, 976, 950, 432,θ
2025-03-10 13:36:54.319,679, 533, 506, 0, 15, 16, -5, -2, 10, 966, 927, 614,θ
2025-03-10 13:36:54.371,832, 460, 220, -50, 81, -36, -7, -2, 8, 916, 746, 446,θ
2025-03-10 13:36:54.678,685, 540, 490, 4, -9, 4, -5, -2, 6, 831, 632, 14,λ
2025-03-10 13:36:54.728,691, 532, 500, 6, -8, 4, -4, 0, 6, 832, 645, 18,λ
2025-03-10 13:36:54.778,707, 492, 479, -3, -2, 0, -5, -2, 7, 826, 666, 10,λ
2025-03-10 13:36:54.836,689, 561, 517, 2, -3, -3, -5, -1, 5, 806, 695, 19,λ
2025-03-10 13:36:54.889,663, 524, 523, 1, -6, -4, -5, -2, 6, 782, 697, 8,λ
2025-03-10 13:36:54.941,683, 584, 484, 4, -11, 0, -5, -2, 7, 737, 688, 17,λ
2025-03-10 13:36:54.995,699, 538, 495, -2, -6, 4, -6, -1, 6, 799, 703, 12,λ
2025-03-10 13:36:55.048,706, 554, 487, -5, -1, 2, -4, -3, 7, 840, 738, 15,λ
2025-03-10 13:36:55.102,703, 535, 490, -2, -2, 2, -6, -3, 7, 871, 773, 143,λ
2025-03-10 13:36:55.155,703, 556, 464, -2, -3, 0, -5, -2, 7, 887, 786, 170,λ
2025-03-10 13:36:55.208,691, 539, 511, -6, -2, -1, -5, -2, 7, 893, 793, 181,λ
2025-03-10 13:36:55.266,700, 557, 472, -6, -8, 0, -4, -2, 8, 903, 801, 180,λ
2025-03-10 13:36:55.319,695, 530, 468, -1, -6, -3, -7, -2, 6, 905, 815, 177,λ
2025-03-10 13:36:55.372,699, 512, 483, -3, 3, -6, -6, -2, 7, 909, 807, 205,λ
2025-03-10 13:36:55.422,676, 607, 468, 1, -14, 0, -5, -2, 9, 915, 817, 288,λ
2025-03-10 13:36:55.487,809, 694, 405, -14, -10, -11, -6, -2, 8, 941, 886, 153,λ
2025-03-10 13:36:55.538,588, 672, 321, -3, -8, 22, -6, -2, 8, 966, 935, 528,λ
2025-03-10 13:36:55.588,707, 626, 474, 44, 19, 26, -6, -3, 10, 977, 933, 462,λ
2025-03-10 13:36:55.648,685, 436, 356, -9, 36, 32, -7, -1, 9, 969, 912, 198,λ
2025-03-10 13:36:55.713,625, 406, 524, -15, -15, -58, -6, -2, 10, 955, 901, 543,λ
2025-03-10 13:36:55.769,594, 710, 557, -14, -7, -10, -7, -2, 9, 968, 932, 456,λ
2025-03-10 13:36:55.821,1010, 613, 115, -7, 28, 16, -6, -1, 10, 971, 910, 15,λ
2025-03-10 13:36:55.878,1046, 221, 566, -15, 17, -20, -6, -1, 8, 932, 743, 85,λ
2025-03-10 13:36:55.937,595, 499, 713, -37, 48, -35, -4, 0, 4, 889, 730, 12,λ
2025-03-10 13:36:56.200,672, 533, 510, -9, 3, -2, -5, -3, 4, 811, 516, 10,μ
2025-03-10 13:36:56.257,654, 536, 529, -8, 3, -2, -5, -2, 4, 812, 518, 9,μ
2025-03-10 13:36:56.308,662, 543, 520, -4, -4, 0, -4, -2, 4, 803, 524, 8,μ
2025-03-10 13:36:56.358,633, 519, 539, -2, -5, -1, -3, -1, 6, 772, 543, 15,μ
2025-03-10 13:36:56.415,663, 539, 515, 0, -11, 2, -4, -3, 6, 768, 564, 8,μ
2025-03-10 13:36:56.470,699, 541, 485, -2, -13, -2, -4, -1, 5, 811, 600, 14,μ
2025-03-10 13:36:56.521,673, 546, 485, -2, -4, 0, -5, -1, 6, 839, 659, 10,μ
2025-03-10 13:36:56.572,678, 549, 497, 3, -9, 3, -5, -2, 7, 875, 701, 7,μ
2025-03-10 13:36:56.622,687, 553, 455, -3, -4, 2, -5, -2, 7, 896, 762, 10,μ
2025-03-10 13:36:56.678,719, 561, 507, 0, -6, 3, -5, -2, 7, 900, 789, 140,μ
2025-03-10 13:36:56.728,697, 533, 488, 2, -2, 0, -5, -2, 7, 909, 806, 185,μ
2025-03-10 13:36:56.788,719, 541, 467, -1, -4, -1, -6, -3, 6, 915, 816, 206,μ
2025-03-10 13:36:56.840,703, 548, 488, -5, 1, -1, -5, -2, 7, 919, 824, 188,μ
2025-03-10 13:36:56.888,692, 547, 484, 0, -1, 1, -6, -1, 7, 923, 827, 192,μ
2025-03-10 13:36:56.948,717, 515, 473, 1, -1, -1, -5, -1, 7, 921, 822, 204,μ
2025-03-10 13:36:57.002,608, 573, 536, 25, 14, 6, -7, -2, 7, 922, 789, 174,μ
2025-03-10 13:36:57.054,757, 529, 409, 23, 14, 1, -4, -1, 8, 915, 729, 16,μ
2025-03-10 13:36:57.108,652, 563, 539, 16, 16, 15, -5, -3, 9, 914, 634, 12,μ
2025-03-10 13:36:57.158,651, 153, 237, 29, 5, -6, -5, -4, 9, 952, 757, 9,μ
2025-03-10 13:36:57.219,746, 620, 325, -19, 14, 8, -6, -2, 10, 957, 885, 16,μ
2025-03-10 13:36:57.271,980, 443, 394, -39, -40, -27, -6, -2, 8, 962, 942, 148,μ
2025-03-10 13:36:57.328,650, 526, 890, -27, -25, -13, -6, -2, 7, 968, 951, 476,μ
2025-03-10 13:36:57.388,708, 435, 448, 21, -14, -13, -7, 0, 6, 974, 954, 480,μ
2025-03-10 13:36:57.438,741, 605, 517, 31, 31, 34, -7, -2, 10, 973, 940, 364,μ
2025-03-10 13:36:57.502,794, 530, 289, -26, 10, 18, -6, -2, 9, 975, 940, 180,μ
2025-03-10 13:36:57.558,747, 470, 592, -19, -6, 0, -6, -2, 8, 978, 946, 164,μ
2025-03-10 13:36:57.613,732, 449, 478, 2, -11, -6, -7, -1, 8, 976, 947, 292,μ
2025-03-10 13:36:57.662,726, 474, 574, 27, -6, -2, -6, 0, 9, 974, 938, 420,μ
2025-03-10 13:36:57.720,910, 562, 466, 16, 7, 17, -7, -2, 9, 979, 927, 142,μ
2025-03-10 13:36:57.778,692, 291, 606, -16, -17, -3, -8, -2, 10, 976, 948, 142,μ
2025-03-10 13:36:57.828,975, 436, 169, -11, 28, -4, -6, -3, 8, 967, 930, 471,μ
2025-03-10 13:36:57.888,601, 509, 669, -49, 66, -27, -7, 0, 5, 957, 868, 136,μ
2025-03-10 13:36:58.338,618, 653, 472, 13, -18, -24, -2, -5, 9, 901, 424, 407,ω
2025-03-10 13:36:58.398,599, 662, 451, 14, -18, -21, -4, -3, 12, 901, 436, 409,ω
2025-03-10 13:36:58.452,586, 713, 375, 4, -7, 6, -3, -5, 10, 913, 556, 436,ω
2025-03-10 13:36:58.508,644, 648, 350, -1, 5, 10, -3, -5, 10, 925, 623, 464,ω
2025-03-10 13:36:58.562,659, 662, 420, 8, 3, 12, -4, -5, 10, 927, 640, 468,ω
2025-03-10 13:36:58.615,663, 651, 425, 0, -2, 16, -4, -5, 10, 928, 684, 476,ω
2025-03-10 13:36:58.673,695, 619, 407, -3, -6, 13, -2, -5, 11, 930, 700, 474,ω
2025-03-10 13:36:58.720,700, 614, 371, -1, 1, 6, -5, -3, 12, 930, 708, 487,ω
2025-03-10 13:36:58.778,701, 616, 434, -6, 0, 4, -4, -5, 11, 934, 725, 502,ω
2025-03-10 13:36:58.837,700, 633, 401, -11, 0, 3, -4, -5, 11, 935, 732, 502,ω
2025-03-10 13:36:58.888,680, 589, 452, -9, -4, 1, -4, -3, 11, 932, 765, 522,ω
2025-03-10 13:36:58.938,652, 607, 439, 2, 2, 4, -5, -4, 11, 934, 757, 486,ω
2025-03-10 13:36:58.988,756, 597, 369, 0, 2, 1, -5, -5, 11, 930, 746, 452,ω
2025-03-10 13:36:59.048,714, 608, 433, -5, 0, -2, -5, -3, 11, 929, 748, 450,ω
2025-03-10 13:36:59.108,650, 597, 451, -4, -3, 1, -3, -3, 10, 933, 786, 459,ω
2025-03-10 13:36:59.162,773, 566, 372, -13, -5, -6, -4, -4, 10, 935, 823, 528,ω
2025-03-10 13:36:59.221,570, 622, 569, -35, -18, -5, -4, -3, 11, 938, 845, 572,ω
2025-03-10 13:36:59.278,827, 177, 100, 0, -3, -11, -6, -2, 9, 955, 903, 603,ω
2025-03-10 13:36:59.328,785, 548, 510, 3, -6, -8, -4, -2, 10, 966, 926, 503,ω
2025-03-10 13:36:59.386,670, 502, 402, 30, 26, 4, -6, -3, 12, 973, 915, 148,ω
2025-03-10 13:36:59.438,986, 634, 331, -27, 26, 41, -6, -3, 11, 975, 928, 224,ω
2025-03-10 13:36:59.501,639, 461, 523, -20, -9, -5, -7, -2, 10, 972, 935, 406,ω
2025-03-10 13:36:59.558,710, 486, 520, 0, -4, -5, -6, -4, 10, 970, 936, 501,ω
