Timestamp,Acc_X,Acc_Y,Acc_Z,Gyro_X,Gyro_Y,Gyro_Z,Mag_X,Mag_Y,Mag_Z,Force1,Force2,Force3,Letter
2025-03-10 13:25:55.610,625, 673, 454, 3, -2, 1, -2, -1, 7, 919, 696, 378,noise
2025-03-10 13:25:55.662,621, 666, 443, 2, -2, 1, -3, -3, 6, 915, 687, 373,noise
2025-03-10 13:25:55.716,617, 660, 454, 0, 0, 0, -3, -1, 7, 914, 675, 354,noise
2025-03-10 13:25:55.765,624, 639, 479, -2, 3, -3, -3, -1, 6, 913, 672, 329,noise
2025-03-10 13:25:55.820,611, 660, 475, -2, 2, -2, -2, -5, 7, 910, 652, 272,noise
2025-03-10 13:25:55.880,603, 668, 475, -1, 2, -2, -2, -1, 6, 912, 656, 288,noise
2025-03-10 13:25:55.928,608, 658, 472, 1, 2, 1, -1, -2, 4, 910, 647, 268,noise
2025-03-10 13:25:55.983,604, 662, 464, -1, 1, 0, -2, -2, 6, 914, 663, 294,noise
2025-03-10 13:25:56.033,610, 659, 473, -3, 1, 1, -2, -1, 6, 915, 677, 295,noise
2025-03-10 13:25:56.084,615, 656, 475, -4, 1, 2, -4, -3, 7, 917, 692, 301,noise
2025-03-10 13:25:56.140,611, 644, 473, -8, 2, 2, -2, -2, 6, 921, 709, 303,noise
2025-03-10 13:25:56.195,592, 644, 494, -2, 1, 1, -3, 1, 4, 925, 719, 311,noise
2025-03-10 13:25:56.249,622, 636, 488, 1, -1, -1, -3, 0, 4, 927, 720, 319,noise
2025-03-10 13:25:56.300,641, 629, 495, -3, -4, -8, -3, -1, 7, 927, 727, 313,noise
2025-03-10 13:25:56.355,609, 672, 443, -8, -13, -16, -2, -3, 6, 931, 730, 307,noise
2025-03-10 13:25:56.416,592, 663, 496, -4, -8, -7, -3, -2, 4, 932, 734, 288,noise
2025-03-10 13:25:56.470,608, 684, 475, -1, -13, -2, -3, -3, 7, 932, 736, 283,noise
2025-03-10 13:25:56.526,624, 652, 494, 3, -14, -4, -2, -2, 6, 933, 734, 302,noise
2025-03-10 13:25:56.580,603, 672, 406, 3, -17, -8, -3, -2, 7, 929, 698, 273,noise
2025-03-10 13:25:56.633,582, 706, 377, 1, -5, -3, -3, -1, 8, 927, 665, 293,noise
2025-03-10 13:25:56.681,612, 671, 415, 0, 2, 2, -5, 1, 5, 925, 648, 281,noise
2025-03-10 13:25:56.740,628, 666, 443, 0, 5, 2, -3, -2, 8, 926, 644, 285,noise
2025-03-10 13:25:56.785,628, 657, 442, 0, 7, 1, -3, -2, 8, 921, 644, 282,noise
2025-03-10 13:25:56.846,599, 685, 422, -2, 4, -1, -2, -2, 10, 921, 645, 239,noise
2025-03-10 13:25:56.897,599, 682, 433, -2, 5, 1, -2, -2, 9, 923, 659, 257,noise
2025-03-10 13:25:56.948,610, 668, 443, -1, 2, 1, 1, 0, 6, 921, 666, 236,noise
2025-03-10 13:25:57.000,625, 659, 444, -3, 0, -1, -3, -1, 7, 920, 671, 258,noise
2025-03-10 13:25:57.055,614, 664, 438, -6, -1, -5, -2, -2, 8, 915, 662, 232,noise
2025-03-10 13:25:57.112,590, 687, 445, -4, 0, -5, -3, -3, 8, 911, 665, 255,noise
2025-03-10 13:25:57.164,584, 689, 440, -1, 0, -1, -3, -2, 7, 911, 656, 230,noise
2025-03-10 13:25:57.213,596, 683, 437, 0, 1, 3, -3, -2, 9, 912, 652, 242,noise
2025-03-10 13:25:57.266,610, 664, 444, 0, 1, 1, -2, 0, 8, 910, 656, 244,noise
2025-03-10 13:25:57.320,610, 655, 446, -2, 1, -2, -1, -2, 7, 910, 646, 217,noise
2025-03-10 13:25:57.379,601, 681, 430, -1, -1, -3, -2, -3, 6, 909, 647, 208,noise
2025-03-10 13:25:57.430,592, 668, 446, 0, 0, -1, -4, -2, 6, 906, 627, 187,noise
2025-03-10 13:25:57.480,606, 672, 445, 0, -1, 0, -2, -2, 6, 906, 627, 202,noise
2025-03-10 13:25:57.538,604, 683, 442, -1, -1, 0, -2, -3, 9, 908, 627, 198,noise
2025-03-10 13:25:57.591,610, 673, 435, -1, 1, 0, -4, -1, 8, 910, 638, 236,noise
2025-03-10 13:25:57.644,607, 676, 458, -1, 0, -1, -3, -1, 5, 908, 633, 221,noise
2025-03-10 13:25:58.844,717, 565, 360, -7, 12, 22, -7, -2, 6, 921, 807, 313,A
2025-03-10 13:25:58.907,694, 554, 350, -5, 16, 20, -6, -1, 10, 922, 812, 315,A
2025-03-10 13:25:58.960,657, 531, 351, -10, 38, 16, -10, 1, 4, 936, 849, 387,A
2025-03-10 13:25:59.014,631, 436, 536, -12, 43, 3, -8, -3, 4, 945, 870, 459,A
2025-03-10 13:25:59.070,732, 571, 635, 24, -10, 12, -7, -2, 3, 949, 880, 584,A
2025-03-10 13:25:59.127,590, 593, 439, 12, 8, -3, -5, -3, 3, 952, 880, 637,A
2025-03-10 13:25:59.180,718, 606, 592, 26, -25, 6, -6, -4, 5, 953, 877, 696,A
2025-03-10 13:25:59.230,696, 565, 443, 23, -19, 18, -9, -1, 5, 957, 877, 727,A
2025-03-10 13:25:59.291,734, 561, 406, 15, -12, 7, -9, -4, 7, 964, 884, 762,A
2025-03-10 13:25:59.346,757, 557, 363, -9, -7, -1, -7, -3, 9, 969, 891, 769,A
2025-03-10 13:25:59.400,691, 589, 408, -6, -5, -6, -9, -2, 9, 972, 891, 760,A
2025-03-10 13:25:59.450,723, 593, 386, -2, 0, 0, -6, -2, 12, 970, 892, 773,A
2025-03-10 13:25:59.512,735, 578, 398, -3, -2, -3, -9, -2, 8, 972, 892, 781,A
2025-03-10 13:25:59.563,690, 568, 432, -4, 0, -5, -7, -4, 7, 970, 888, 784,A
2025-03-10 13:25:59.623,619, 597, 558, -5, -40, 10, -7, -3, 10, 967, 888, 797,A
2025-03-10 13:25:59.680,672, 399, 262, 37, -28, -18, -9, -2, 13, 972, 891, 786,A
2025-03-10 13:25:59.730,661, 549, 123, 28, 39, 14, -9, -3, 15, 973, 861, 646,A
2025-03-10 13:25:59.795,873, 505, 597, -32, 24, 5, -9, -3, 13, 966, 836, 740,A
2025-03-10 13:25:59.850,589, 573, 718, -10, -32, 7, -9, -2, 11, 970, 874, 778,A
2025-03-10 13:25:59.900,733, 414, 127, 14, 20, 22, -10, -3, 11, 974, 878, 746,A
2025-03-10 13:25:59.964,743, 419, 305, -27, 25, -13, -10, -3, 8, 969, 844, 675,A
2025-03-10 13:26:00.020,763, 633, 544, 4, -16, -10, -10, -3, 11, 971, 864, 615,A
2025-03-10 13:26:00.078,780, 672, 286, 1, 6, 22, -9, -1, 11, 975, 902, 753,A
2025-03-10 13:26:00.130,980, 503, -3, -44, 84, -59, -9, -2, 11, 971, 895, 738,A
2025-03-10 13:26:00.190,638, 483, 582, -57, 92, -90, -4, -3, 3, 957, 844, 586,A
2025-03-10 13:26:00.502,691, 492, 597, -15, 36, 28, -9, -3, 6, 948, 814, 404,B
2025-03-10 13:26:00.562,711, 518, 620, -13, 31, 26, -9, -2, 6, 948, 814, 402,B
2025-03-10 13:26:00.616,773, 826, 220, -27, 28, -12, -7, -2, 7, 950, 812, 401,B
2025-03-10 13:26:00.670,621, 582, 693, 20, -30, 12, -8, -3, 4, 952, 819, 467,B
2025-03-10 13:26:00.728,689, 513, 355, -4, -34, 4, -9, -2, 7, 950, 806, 528,B
2025-03-10 13:26:00.782,701, 386, 499, -18, -18, -25, -8, 1, 7, 955, 836, 342,B
2025-03-10 13:26:00.844,841, 1156, 77, 58, 35, 36, -7, -2, 9, 965, 863, 283,B
2025-03-10 13:26:00.898,645, 482, 311, -14, 30, 20, -9, -3, 11, 963, 851, 432,B
2025-03-10 13:26:00.957,659, 460, 463, -18, -28, -36, -7, -3, 8, 958, 854, 499,B
2025-03-10 13:26:01.012,675, 728, 387, 0, -17, 1, -7, -1, 8, 967, 897, 601,B
2025-03-10 13:26:01.063,823, 642, 361, -7, 19, 24, -8, -2, 11, 972, 891, 521,B
2025-03-10 13:26:01.120,829, 558, 312, -8, 29, 15, -8, -3, 9, 969, 885, 530,B
2025-03-10 13:26:01.171,545, 700, 458, -10, 14, 9, -8, -2, 9, 969, 873, 442,B
2025-03-10 13:26:01.230,673, 513, 365, -22, 18, 3, -9, -1, 8, 958, 738, 170,B
2025-03-10 13:26:01.290,851, 466, 274, -31, 48, -34, -7, -2, 7, 942, 737, 224,B
2025-03-10 13:26:01.344,547, 607, 610, -7, -7, -17, -7, 0, 4, 941, 798, 287,B
2025-03-10 13:26:01.630,711, 529, 479, -2, -6, 0, -9, 0, 5, 944, 818, 320,C
2025-03-10 13:26:01.691,712, 529, 477, -1, -6, 0, -7, 0, 4, 943, 818, 309,C
2025-03-10 13:26:01.745,731, 550, 449, -1, -4, 1, -9, -2, 5, 946, 823, 345,C
2025-03-10 13:26:01.796,722, 540, 434, -2, -1, 0, -8, -1, 7, 946, 824, 364,C
2025-03-10 13:26:01.850,652, 548, 509, 1, -11, 3, -8, -2, 5, 949, 834, 405,C
2025-03-10 13:26:01.907,795, 594, 401, 24, -11, -19, -9, -2, 6, 955, 860, 397,C
2025-03-10 13:26:01.962,387, 685, 291, 42, 8, -7, -9, -1, 7, 964, 856, 212,C
2025-03-10 13:26:02.014,966, 693, 119, 4, 47, 47, -8, -3, 9, 970, 883, 270,C
2025-03-10 13:26:02.070,748, 542, 574, 17, 4, 13, -8, -2, 8, 969, 898, 556,C
2025-03-10 13:26:02.130,718, 512, 477, -45, 54, -48, -10, -2, 7, 956, 879, 546,C
2025-03-10 13:26:02.180,544, 657, 662, -30, 9, -17, -4, -1, 2, 949, 831, 437,C
2025-03-10 13:26:02.520,695, 554, 493, -1, -3, -1, -7, -1, 4, 940, 766, 293,D
2025-03-10 13:26:02.577,692, 550, 492, -1, -3, -1, -7, 0, 7, 938, 761, 291,D
2025-03-10 13:26:02.625,677, 534, 500, 7, -7, 1, -6, 0, 5, 937, 734, 280,D
2025-03-10 13:26:02.678,741, 548, 433, 2, -10, 1, -8, 0, 6, 935, 720, 355,D
2025-03-10 13:26:02.730,651, 553, 500, -10, -24, -7, -6, -3, 9, 939, 757, 387,D
2025-03-10 13:26:02.793,738, 390, 469, -11, -10, -9, -7, -2, 7, 952, 815, 163,D
2025-03-10 13:26:02.850,397, 540, 411, -27, 51, 68, -7, -2, 8, 967, 834, 115,D
2025-03-10 13:26:02.900,751, 583, 287, -12, 22, 15, -7, 0, 6, 964, 816, 154,D
2025-03-10 13:26:02.961,975, 596, 486, 13, -34, -41, -9, 0, 6, 952, 835, 314,D
2025-03-10 13:26:03.012,656, 648, 322, 36, -20, 13, -9, -1, 8, 970, 893, 387,D
2025-03-10 13:26:03.070,595, 816, 238, -12, 35, 33, -8, 0, 9, 973, 889, 188,D
2025-03-10 13:26:03.125,961, 268, 456, 3, 32, 6, -8, -1, 7, 961, 776, 66,D
2025-03-10 13:26:03.178,731, 401, 322, -22, 72, -48, -7, 1, 4, 932, 732, 305,D
2025-03-10 13:26:03.510,695, 537, 494, -5, -1, 1, -9, 0, 5, 930, 789, 191,E
2025-03-10 13:26:03.562,699, 526, 500, -4, -2, 1, -9, 0, 5, 931, 787, 183,E
2025-03-10 13:26:03.620,697, 544, 482, -2, -5, -2, -7, 0, 4, 932, 791, 197,E
2025-03-10 13:26:03.678,676, 550, 504, -6, -12, -3, -7, -1, 6, 937, 807, 263,E
2025-03-10 13:26:03.730,807, 461, 453, -7, -34, -8, -8, -1, 6, 943, 828, 241,E
2025-03-10 13:26:03.786,728, 362, 506, 8, -16, -15, -8, 0, 8, 962, 860, 104,E
2025-03-10 13:26:03.840,1012, 712, 411, 7, 45, 40, -8, 0, 8, 967, 851, 60,E
2025-03-10 13:26:03.895,807, 502, 428, -17, 11, -1, -9, 0, 10, 961, 827, 174,E
2025-03-10 13:26:03.950,617, 595, 792, 12, -44, -21, -8, 0, 6, 954, 848, 287,E
2025-03-10 13:26:04.010,697, 755, 187, 31, -24, 7, -6, -1, 9, 969, 904, 329,E
2025-03-10 13:26:04.063,712, 654, 450, 2, 21, 24, -9, -3, 11, 966, 895, 497,E
2025-03-10 13:26:04.120,331, 641, 812, -9, -6, 1, -8, -3, 10, 960, 836, 436,E
2025-03-10 13:26:04.170,841, 704, 441, 23, -1, 10, -8, -2, 9, 970, 898, 336,E
2025-03-10 13:26:04.230,669, 697, 450, -8, 29, 29, -10, -2, 10, 969, 888, 485,E
2025-03-10 13:26:04.279,414, 594, 842, -5, -27, 9, -9, -2, 9, 962, 734, 365,E
2025-03-10 13:26:04.340,783, 586, 352, 35, 2, 6, -8, -2, 11, 972, 892, 384,E
2025-03-10 13:26:04.395,764, 564, 470, 0, 11, 17, -9, -3, 8, 971, 894, 534,E
2025-03-10 13:26:04.451,568, 491, 530, -61, 80, -52, -6, -2, 6, 953, 820, 424,E
2025-03-10 13:26:04.755,685, 546, 469, -11, -4, -1, -9, -1, 6, 944, 804, 213,F
2025-03-10 13:26:04.813,686, 537, 483, -10, -5, -1, -6, 1, 7, 943, 803, 202,F
2025-03-10 13:26:04.870,671, 542, 494, -9, -13, -3, -5, -1, 6, 946, 806, 184,F
2025-03-10 13:26:04.920,616, 538, 564, 12, -42, 5, -6, -2, 7, 946, 818, 271,F
2025-03-10 13:26:04.976,728, 482, 493, 39, -8, -9, -7, -1, 9, 961, 842, 86,F
2025-03-10 13:26:05.030,559, 697, 245, -26, 56, 63, -6, -1, 9, 967, 830, 60,F
2025-03-10 13:26:05.080,860, 470, 646, -28, 6, -2, -7, 0, 7, 959, 811, 188,F
2025-03-10 13:26:05.144,695, 565, 805, 21, -46, -24, -7, -2, 7, 952, 822, 204,F
2025-03-10 13:26:05.196,805, 776, 51, 35, -28, 15, -7, -2, 11, 971, 906, 407,F
2025-03-10 13:26:05.255,639, 667, 541, -3, 17, 20, -8, -3, 9, 964, 894, 525,F
2025-03-10 13:26:05.313,392, 711, 854, -19, -9, 4, -6, -3, 10, 956, 768, 288,F
2025-03-10 13:26:05.362,931, 1158, 294, 18, 6, 40, -7, -3, 12, 972, 896, 294,F
2025-03-10 13:26:05.423,762, 408, 408, -5, 5, 3, -8, -4, 10, 966, 895, 571,F
2025-03-10 13:26:05.476,469, 526, 690, -59, 43, -50, -8, -5, 7, 952, 833, 434,F
2025-03-10 13:26:05.760,698, 573, 484, -11, -2, -3, -6, -1, 6, 947, 840, 287,G
2025-03-10 13:26:05.820,696, 549, 484, -10, -3, -2, -8, -1, 8, 949, 837, 260,G
2025-03-10 13:26:05.870,700, 547, 468, -2, -3, 1, -7, -1, 7, 949, 849, 302,G
2025-03-10 13:26:05.927,650, 560, 486, 8, -16, 7, -6, -1, 5, 951, 859, 370,G
2025-03-10 13:26:05.981,963, 189, 210, -24, -10, -11, -6, -2, 7, 957, 878, 394,G
2025-03-10 13:26:06.040,734, 479, 523, 2, -3, -8, -9, -1, 7, 965, 882, 281,G
2025-03-10 13:26:06.095,1034, 1145, -38, 22, 39, 35, -10, -3, 10, 972, 867, 99,G
2025-03-10 13:26:06.150,579, 485, 638, -7, 13, 21, -8, -1, 8, 972, 882, 164,G
2025-03-10 13:26:06.210,710, 546, 626, 2, -31, -25, -9, -2, 7, 964, 887, 348,G
2025-03-10 13:26:06.262,722, 814, 204, 9, 17, 16, -9, -1, 9, 973, 888, 270,G
2025-03-10 13:26:06.320,754, 538, 358, -16, 20, 16, -8, -1, 8, 971, 867, 183,G
2025-03-10 13:26:06.378,483, 570, 711, -36, -5, -36, -8, -1, 6, 962, 792, 148,G
2025-03-10 13:26:06.430,852, 311, 338, 77, -27, -4, -8, -1, 8, 971, 893, 187,G
2025-03-10 13:26:06.480,720, 617, 373, 5, 10, 22, -10, 0, 8, 975, 906, 439,G
2025-03-10 13:26:06.545,773, 530, 160, -42, 71, -49, -9, -2, 8, 959, 868, 426,G
2025-03-10 13:26:06.853,699, 539, 463, -10, -3, -4, -6, -2, 7, 948, 811, 219,H
2025-03-10 13:26:06.911,695, 544, 466, -9, -3, -4, -6, -2, 6, 947, 813, 231,H
2025-03-10 13:26:06.964,693, 536, 486, -4, -12, -2, -8, 0, 5, 947, 813, 255,H
2025-03-10 13:26:07.011,638, 552, 478, 4, -30, 5, -8, 0, 5, 946, 831, 289,H
2025-03-10 13:26:07.062,739, 479, 514, 10, -8, -9, -9, 0, 8, 956, 854, 200,H
2025-03-10 13:26:07.122,500, 619, 281, 6, 50, 35, -7, -1, 8, 968, 825, 83,H
2025-03-10 13:26:07.175,766, 539, 237, -16, 11, 8, -7, -1, 9, 963, 776, 51,H
2025-03-10 13:26:07.230,748, 473, 541, 0, -24, -32, -7, -1, 8, 951, 781, 70,H
2025-03-10 13:26:07.280,984, 938, 420, 74, -24, 12, -8, 0, 9, 968, 893, 261,H
2025-03-10 13:26:07.340,685, 542, 439, 16, 8, 15, -7, -2, 9, 970, 907, 526,H
2025-03-10 13:26:07.394,483, 592, 641, -32, 4, -40, -8, -1, 7, 957, 891, 530,H
2025-03-10 13:26:07.450,845, 297, 320, 50, -2, -1, -8, -1, 8, 972, 894, 465,H
2025-03-10 13:26:07.501,931, 631, 121, 7, 41, 45, -8, -3, 9, 975, 876, 313,H
2025-03-10 13:26:07.563,842, 401, 564, 15, 13, -16, -9, -3, 11, 960, 799, 447,H
2025-03-10 13:26:07.620,539, 526, 780, -26, 21, -38, -6, -2, 6, 930, 784, 353,H
2025-03-10 13:26:07.904,663, 541, 510, -7, -1, -6, -8, -1, 6, 938, 773, 157,I
2025-03-10 13:26:07.962,664, 548, 513, -6, -3, -6, -6, 0, 5, 937, 773, 155,I
2025-03-10 13:26:08.012,666, 536, 466, 0, -6, -8, -8, 0, 5, 930, 734, 59,I
2025-03-10 13:26:08.065,770, 490, 412, 3, -26, 2, -8, 0, 6, 936, 777, 70,I
2025-03-10 13:26:08.112,908, 780, 634, 90, -26, 0, -8, 0, 8, 965, 888, 59,I
2025-03-10 13:26:08.170,561, 455, 510, 10, 2, 16, -8, -4, 7, 969, 907, 360,I
2025-03-10 13:26:08.228,580, 402, 375, -13, 6, -19, -7, -2, 10, 958, 877, 423,I
2025-03-10 13:26:08.281,922, 531, 489, 32, -1, -4, -8, -1, 8, 968, 857, 183,I
2025-03-10 13:26:08.340,754, 716, 243, 4, 38, 38, -6, -2, 9, 974, 870, 262,I
2025-03-10 13:26:08.393,681, 324, 421, -13, 30, -33, -7, 0, 6, 958, 749, 286,I
2025-03-10 13:26:08.445,970, 200, 93, 54, -11, -19, -8, -2, 10, 951, 813, 145,I
2025-03-10 13:26:08.500,751, 576, 229, 16, 4, 15, -5, -4, 9, 968, 898, 348,I
2025-03-10 13:26:08.561,883, 389, 163, -37, 50, -52, -8, -2, 8, 954, 869, 430,I
2025-03-10 13:26:08.871,669, 567, 520, -6, 2, -8, -5, -2, 7, 926, 796, 246,J
2025-03-10 13:26:08.920,653, 567, 516, -6, 0, -8, -6, 1, 8, 926, 795, 219,J
2025-03-10 13:26:08.978,644, 570, 515, -9, -14, -3, -3, -1, 6, 929, 768, 179,J
2025-03-10 13:26:09.030,797, 770, 439, 34, -9, -9, -7, -2, 5, 947, 832, 111,J
2025-03-10 13:26:09.090,852, 614, 291, 8, -1, 26, -6, -3, 11, 968, 899, 311,J
2025-03-10 13:26:09.143,618, 616, 545, 6, -1, 3, -6, -3, 9, 960, 894, 456,J
2025-03-10 13:26:09.200,957, 545, 554, -10, -2, -20, -8, -2, 10, 957, 837, 385,J
2025-03-10 13:26:09.250,539, 649, 329, -17, 48, 54, -8, -1, 8, 975, 882, 258,J
2025-03-10 13:26:09.310,593, 422, 310, -57, 23, 9, -7, -1, 6, 972, 856, 154,J
2025-03-10 13:26:09.364,1169, 496, 246, 9, 34, -43, -5, -2, 6, 907, 614, 61,J
2025-03-10 13:26:09.420,554, 678, 773, 0, 2, -8, -5, -2, 4, 887, 760, 126,J
2025-03-10 13:26:09.730,965, 387, 274, -20, -4, -8, -7, -1, 9, 940, 853, 85,K
2025-03-10 13:26:09.782,751, 600, 467, 0, -3, -6, -7, -1, 6, 943, 856, 85,K
2025-03-10 13:26:09.842,707, 539, 507, 7, -7, -6, -6, 1, 5, 956, 867, 57,K
2025-03-10 13:26:09.895,865, 652, 430, 9, 28, 24, -6, -2, 9, 965, 845, 57,K
2025-03-10 13:26:09.948,750, 432, 361, -5, 10, 12, -6, -1, 8, 967, 844, 85,K
2025-03-10 13:26:10.006,743, 337, 493, 46, -52, -19, -8, -1, 9, 970, 906, 190,K
2025-03-10 13:26:10.060,654, 682, 385, 4, -3, -3, -4, -4, 8, 965, 903, 414,K
2025-03-10 13:26:10.111,638, 568, 498, -50, 54, -36, -7, -3, 10, 954, 818, 175,K
2025-03-10 13:26:10.173,821, 1278, 518, 51, -4, 16, -6, -3, 8, 968, 868, 169,K
2025-03-10 13:26:10.230,826, 801, 279, -14, 30, 49, -7, -2, 8, 977, 898, 310,K
2025-03-10 13:26:10.280,859, 314, 319, -17, 22, -55, -8, -2, 9, 965, 867, 369,K
2025-03-10 13:26:10.342,574, 608, 706, -11, 20, -43, -6, -2, 6, 922, 765, 247,K
2025-03-10 13:26:10.625,690, 541, 467, -3, -4, -2, -7, -2, 7, 928, 788, 84,L
2025-03-10 13:26:10.677,693, 545, 494, -3, -5, -2, -4, 0, 8, 930, 790, 88,L
2025-03-10 13:26:10.730,679, 549, 480, 1, -11, -1, -6, -1, 7, 932, 810, 135,L
2025-03-10 13:26:10.785,733, 561, 403, -2, -16, -1, -6, 0, 6, 938, 835, 226,L
2025-03-10 13:26:10.842,724, 605, 452, 3, -3, -5, -6, -1, 9, 948, 857, 51,L
2025-03-10 13:26:10.890,688, 551, 501, 17, 1, 1, -6, -3, 9, 960, 860, 84,L
2025-03-10 13:26:10.944,770, 564, 438, 6, 34, 25, -6, -1, 8, 967, 816, 83,L
2025-03-10 13:26:10.994,782, 469, 424, 34, 9, 3, -7, 0, 9, 974, 858, 47,L
2025-03-10 13:26:11.050,744, 270, 454, 28, -5, 12, -6, -3, 9, 979, 906, 274,L
2025-03-10 13:26:11.099,682, 596, 382, 4, 7, 5, -8, -3, 10, 971, 904, 462,L
2025-03-10 13:26:11.160,648, 586, 460, -56, 55, -45, -7, -3, 9, 948, 829, 351,L
2025-03-10 13:26:11.484,691, 561, 459, -2, -9, -1, -6, -1, 6, 927, 758, 123,M
2025-03-10 13:26:11.542,698, 562, 445, -2, -9, -2, -5, -1, 7, 928, 760, 125,M
2025-03-10 13:26:11.594,686, 578, 466, -4, -13, -1, -7, -2, 7, 928, 790, 143,M
2025-03-10 13:26:11.650,755, 501, 344, 2, -6, -11, -6, -1, 7, 939, 837, 108,M
2025-03-10 13:26:11.700,707, 503, 564, 18, -10, -6, -7, 0, 6, 964, 851, 69,M
2025-03-10 13:26:11.759,763, 454, 384, -1, 39, 49, -8, 0, 8, 972, 826, 70,M
2025-03-10 13:26:11.810,571, 421, 700, -7, -18, -20, -8, 1, 7, 959, 828, 65,M
2025-03-10 13:26:11.873,713, 582, 588, -22, -25, -17, -7, -2, 8, 954, 873, 199,M
2025-03-10 13:26:11.930,839, 542, 208, 34, 21, 37, -6, -2, 10, 974, 892, 237,M
2025-03-10 13:26:11.980,739, 520, 446, -9, 4, 8, -7, -1, 9, 971, 889, 356,M
2025-03-10 13:26:12.030,687, 560, 752, 1, -11, -6, -8, -2, 8, 967, 892, 417,M
2025-03-10 13:26:12.093,956, 539, 354, -9, 32, 34, -8, -2, 10, 975, 888, 357,M
2025-03-10 13:26:12.152,862, 236, 465, -19, -5, -43, -8, -4, 10, 965, 860, 383,M
2025-03-10 13:26:12.460,696, 573, 471, -8, -3, -4, -6, 0, 5, 926, 745, 49,N
2025-03-10 13:26:12.514,681, 561, 467, -8, -4, -4, -6, -2, 8, 927, 746, 47,N
2025-03-10 13:26:12.570,699, 556, 461, 0, -14, 0, -7, -1, 8, 931, 774, 105,N
2025-03-10 13:26:12.620,724, 466, 572, 2, -9, -6, -5, -1, 6, 954, 835, 60,N
2025-03-10 13:26:12.677,547, 1105, 264, 20, 49, 51, -5, -1, 8, 971, 817, 54,N
2025-03-10 13:26:12.731,710, 422, 429, 4, -3, -9, -7, 0, 5, 963, 815, 61,N
2025-03-10 13:26:12.781,699, 709, 654, -5, -20, -25, -7, -1, 7, 950, 853, 249,N
2025-03-10 13:26:12.837,808, 1079, 7, 3, 25, 58, -8, 0, 9, 973, 884, 138,N
2025-03-10 13:26:12.895,469, 547, 300, -14, 13, 20, -9, -1, 8, 975, 886, 111,N
2025-03-10 13:26:12.950,808, 730, 328, 11, -32, -32, -9, -4, 7, 960, 898, 373,N
2025-03-10 13:26:13.009,828, 445, 194, -24, 78, -19, -8, -2, 9, 949, 878, 411,N
2025-03-10 13:26:13.064,510, 566, 636, -11, 17, -1, -8, -2, 6, 949, 834, 265,N
2025-03-10 13:26:13.324,738, 534, 457, 0, -3, 1, -9, -1, 7, 955, 863, 295,O
2025-03-10 13:26:13.378,720, 512, 452, 1, -4, -1, -9, 0, 8, 954, 863, 292,O
2025-03-10 13:26:13.431,743, 557, 449, -3, -2, -2, -10, -1, 7, 953, 862, 256,O
2025-03-10 13:26:13.492,743, 552, 422, -6, 1, -2, -10, -1, 9, 956, 864, 206,O
2025-03-10 13:26:13.544,684, 552, 466, -6, -2, -8, -8, 0, 9, 959, 872, 190,O
2025-03-10 13:26:13.595,967, 607, 575, -2, -7, -10, -6, -3, 7, 960, 878, 91,O
2025-03-10 13:26:13.650,900, 646, 250, 47, 22, 17, -7, -2, 9, 971, 859, 47,O
2025-03-10 13:26:13.710,725, 601, 357, -20, 19, 38, -8, -2, 8, 977, 897, 55,O
2025-03-10 13:26:13.765,725, 515, 388, 13, -46, -50, -11, -1, 8, 967, 906, 319,O
2025-03-10 13:26:13.824,1012, 517, 206, 6, -3, -23, -6, -2, 10, 915, 848, 375,O
2025-03-10 13:26:13.880,617, 594, 514, -25, 46, -7, -7, -2, 6, 920, 804, 294,O
2025-03-10 13:26:14.205,707, 553, 461, -2, -5, 0, -6, -2, 7, 923, 760, 191,P
2025-03-10 13:26:14.258,715, 537, 438, 0, -5, 0, -7, -1, 6, 925, 763, 206,P
2025-03-10 13:26:14.310,702, 564, 452, -4, -1, -2, -7, -3, 8, 924, 769, 178,P
2025-03-10 13:26:14.361,705, 559, 466, -4, -5, 0, -7, -1, 6, 925, 783, 213,P
2025-03-10 13:26:14.417,669, 523, 489, 4, -23, 1, -6, 0, 7, 927, 813, 198,P
2025-03-10 13:26:14.475,723, 441, 582, 4, -10, -6, -7, -2, 8, 956, 861, 61,P
2025-03-10 13:26:14.524,690, 840, 337, 2, 44, 52, -8, 0, 8, 973, 854, 43,P
2025-03-10 13:26:14.576,764, 531, 270, -8, 11, -1, -8, -1, 6, 966, 847, 53,P
2025-03-10 13:26:14.630,895, 705, 492, -5, -41, -22, -7, -2, 8, 960, 885, 328,P
2025-03-10 13:26:14.691,674, 666, 311, 7, -10, 8, -7, -2, 8, 977, 905, 253,P
2025-03-10 13:26:14.743,754, 364, 334, -25, 31, 10, -7, -2, 9, 972, 876, 144,P
2025-03-10 13:26:14.800,963, 497, 252, -8, 40, -31, -8, -2, 7, 949, 809, 333,P
2025-03-10 13:26:15.095,681, 533, 473, 8, -7, 7, -7, -1, 8, 944, 827, 405,Q
2025-03-10 13:26:15.150,681, 540, 484, 10, -8, 7, -7, -1, 8, 946, 828, 404,Q
2025-03-10 13:26:15.208,742, 440, 368, -2, -4, -6, -9, -2, 7, 950, 850, 388,Q
2025-03-10 13:26:15.260,537, 528, 496, -13, -12, -20, -9, 0, 8, 957, 881, 254,Q
2025-03-10 13:26:15.318,527, 633, 506, 31, 6, -15, -8, -1, 7, 968, 874, 61,Q
2025-03-10 13:26:15.370,1100, 373, 239, 3, 36, 43, -7, -2, 9, 979, 891, 80,Q
2025-03-10 13:26:15.430,447, 243, 699, -15, -25, -17, -8, -2, 6, 977, 905, 165,Q
2025-03-10 13:26:15.480,941, 522, 180, 5, 24, -24, -8, -3, 9, 961, 856, 318,Q
2025-03-10 13:26:15.542,993, 122, 266, 55, -5, 3, -8, -2, 7, 978, 885, 204,Q
2025-03-10 13:26:15.591,640, 405, 297, -8, 20, 38, -8, -1, 8, 982, 896, 39,Q
2025-03-10 13:26:15.650,833, 295, 368, 6, 19, -35, -11, -1, 8, 966, 837, 67,Q
2025-03-10 13:26:15.978,716, 545, 458, -2, -5, -1, -8, -2, 7, 936, 817, 128,R
2025-03-10 13:26:16.030,707, 539, 462, -1, -5, 0, -9, -2, 8, 936, 817, 115,R
2025-03-10 13:26:16.080,709, 530, 440, 0, -7, -1, -9, 0, 7, 938, 823, 115,R
2025-03-10 13:26:16.135,715, 432, 563, 3, -8, -7, -7, -1, 8, 956, 854, 52,R
2025-03-10 13:26:16.191,184, 645, 398, 5, 43, 44, -8, -1, 8, 971, 847, 77,R
2025-03-10 13:26:16.243,629, 476, 346, -31, 13, 4, -9, -2, 7, 968, 828, 56,R
2025-03-10 13:26:16.293,649, 797, 504, 18, -42, -46, -6, -2, 6, 956, 873, 59,R
2025-03-10 13:26:16.350,494, 443, 400, -6, -10, 15, -7, -1, 9, 977, 905, 134,R
2025-03-10 13:26:16.410,661, 357, 428, -14, 21, 22, -8, -1, 10, 976, 882, 104,R
2025-03-10 13:26:16.460,938, 988, 311, 12, 15, 29, -8, 1, 7, 977, 885, 52,R
2025-03-10 13:26:16.519,759, 394, 469, 0, 13, 18, -9, -2, 8, 977, 894, 63,R
2025-03-10 13:26:16.575,612, 433, 541, -22, 54, -53, -7, -1, 6, 954, 840, 167,R
2025-03-10 13:26:16.836,708, 536, 449, -3, -3, 2, -7, -1, 4, 942, 831, 226,S
2025-03-10 13:26:16.891,700, 541, 476, -2, -3, 2, -5, 0, 7, 943, 835, 244,S
2025-03-10 13:26:16.941,717, 528, 450, -2, -3, 2, -8, -1, 6, 942, 838, 263,S
2025-03-10 13:26:16.993,711, 546, 474, -2, -3, 2, -8, -2, 7, 944, 839, 259,S
2025-03-10 13:26:17.051,717, 545, 437, 3, -8, 6, -7, -1, 7, 945, 845, 287,S
2025-03-10 13:26:17.100,768, 522, 401, -2, -4, 1, -8, -2, 8, 949, 854, 216,S
2025-03-10 13:26:17.157,710, 498, 530, -2, -5, -9, -8, -2, 8, 951, 867, 72,S
2025-03-10 13:26:17.210,749, 511, 517, 18, 0, -6, -7, 0, 8, 964, 875, 42,S
2025-03-10 13:26:17.260,697, 553, 385, -3, 23, 27, -8, -1, 10, 973, 891, 92,S
2025-03-10 13:26:17.320,572, 682, 406, -34, 18, 21, -8, 0, 7, 972, 882, 55,S
2025-03-10 13:26:17.375,1037, 383, 332, 12, 19, -15, -8, -2, 9, 938, 747, 255,S
2025-03-10 13:26:17.430,454, 570, 917, -14, 52, -40, -5, -2, 4, 919, 768, 309,S
2025-03-10 13:26:17.485,481, 700, 636, -5, -19, 6, -3, -4, 3, 917, 791, 308,S
2025-03-10 13:26:17.740,698, 535, 477, -6, -3, 2, -7, -2, 5, 928, 798, 51,T
2025-03-10 13:26:17.793,708, 522, 480, -5, -3, 1, -9, 0, 9, 929, 800, 57,T
2025-03-10 13:26:17.850,681, 539, 506, -16, -7, -7, -6, -1, 5, 933, 785, 54,T
2025-03-10 13:26:17.907,700, 560, 476, -9, -9, -4, -4, -4, 8, 939, 769, 46,T
2025-03-10 13:26:17.960,601, 537, 595, 3, -27, 2, -6, 0, 8, 944, 776, 63,T
2025-03-10 13:26:18.010,768, 245, 395, 16, -12, -8, -6, -1, 7, 963, 863, 64,T
2025-03-10 13:26:18.070,649, 325, 164, 21, -1, 15, -7, -2, 7, 973, 903, 251,T
2025-03-10 13:26:18.120,642, 640, 373, 9, 9, 10, -8, -1, 8, 964, 879, 399,T
2025-03-10 13:26:18.175,694, 588, 646, -13, -13, -7, -8, -4, 9, 952, 828, 193,T
2025-03-10 13:26:18.230,641, 594, 369, 3, 17, 36, -7, -3, 10, 971, 864, 76,T
2025-03-10 13:26:18.287,769, 408, 426, -2, 23, 13, -9, -2, 9, 968, 826, 186,T
2025-03-10 13:26:18.341,825, 609, 185, 0, 28, -51, -7, 0, 8, 910, 661, 238,T
2025-03-10 13:26:18.640,703, 534, 491, -5, -4, -1, -6, -2, 8, 927, 734, 37,U
2025-03-10 13:26:18.691,711, 534, 470, -4, -5, -2, -7, 0, 7, 927, 738, 60,U
2025-03-10 13:26:18.741,706, 537, 473, -9, -3, -7, -7, -1, 7, 924, 683, 58,U
2025-03-10 13:26:18.800,686, 528, 477, -4, -26, -1, -9, -2, 7, 932, 711, 80,U
2025-03-10 13:26:18.857,733, 511, 545, -4, -3, -6, -8, 0, 7, 952, 804, 33,U
2025-03-10 13:26:18.910,690, 421, 481, 26, 21, 36, -7, 0, 8, 969, 853, 81,U
2025-03-10 13:26:18.960,820, 479, 472, 3, 8, 13, -10, -1, 8, 971, 874, 34,U
2025-03-10 13:26:19.020,678, 496, 418, 22, -23, -32, -9, -1, 8, 944, 876, 222,U
2025-03-10 13:26:19.075,729, 502, 598, 9, -15, -7, -7, -2, 8, 963, 884, 67,U
2025-03-10 13:26:19.128,1069, 452, 291, -22, 32, 42, -9, 0, 9, 974, 884, 81,U
2025-03-10 13:26:19.180,801, 256, 562, 5, -5, -36, -9, 0, 6, 959, 843, 76,U
2025-03-10 13:26:19.230,608, 581, 694, -3, 14, -26, -7, -2, 7, 900, 779, 132,U
2025-03-10 13:26:19.510,730, 541, 444, -6, 0, -3, -6, -2, 6, 911, 651, 74,V
2025-03-10 13:26:19.558,722, 537, 447, -7, 1, -3, -7, 0, 6, 914, 644, 73,V
2025-03-10 13:26:19.610,706, 541, 476, -6, -4, -4, -7, -1, 5, 919, 659, 70,V
2025-03-10 13:26:19.660,676, 529, 514, -5, -9, -1, -7, 0, 6, 915, 649, 70,V
2025-03-10 13:26:19.720,859, 333, 210, -10, -5, -12, -6, -2, 7, 927, 729, 28,V
2025-03-10 13:26:19.775,838, 546, 518, 14, -7, 5, -7, 0, 9, 956, 830, 80,V
2025-03-10 13:26:19.825,334, 704, 248, -36, 35, 57, -8, -1, 8, 969, 837, 43,V
2025-03-10 13:26:19.880,692, 190, 643, -16, -33, -16, -9, 0, 7, 968, 897, 58,V
2025-03-10 13:26:19.940,740, 599, 472, 32, -15, -15, -11, -1, 7, 951, 896, 75,V
2025-03-10 13:26:20.000,798, 537, 326, -22, 39, -16, -9, -1, 6, 935, 863, 88,V
2025-03-10 13:26:20.050,603, 528, 628, -7, 16, -8, -7, -2, 7, 925, 772, 51,V
2025-03-10 13:26:20.360,702, 520, 498, 6, 0, -1, -7, -1, 6, 906, 514, 51,W
2025-03-10 13:26:20.410,698, 530, 481, 6, 0, -1, -7, 0, 8, 905, 523, 70,W
2025-03-10 13:26:20.460,729, 540, 436, -2, 1, -3, -7, -1, 5, 901, 503, 50,W
2025-03-10 13:26:20.509,673, 530, 519, 6, -7, -9, -6, -2, 6, 898, 547, 78,W
2025-03-10 13:26:20.570,620, 561, 640, 7, -35, 8, -6, -2, 8, 920, 657, 41,W
2025-03-10 13:26:20.622,892, 609, 369, 1, 11, 28, -6, -2, 9, 961, 836, 61,W
2025-03-10 13:26:20.675,692, 557, 401, -3, 12, 25, -7, -1, 8, 967, 861, 80,W
2025-03-10 13:26:20.730,698, 269, 544, 11, -27, -25, -7, -1, 7, 959, 876, 72,W
2025-03-10 13:26:20.781,811, 813, 266, 3, 21, 43, -7, -1, 8, 971, 872, 36,W
2025-03-10 13:26:20.840,704, 570, 416, -34, -2, 7, -9, -1, 8, 969, 896, 81,W
2025-03-10 13:26:20.891,698, 462, 523, 28, -26, -22, -10, -1, 8, 963, 899, 57,W
2025-03-10 13:26:20.950,659, 546, 541, -15, 40, -18, -9, -1, 8, 955, 883, 85,W
2025-03-10 13:26:21.238,724, 538, 434, -3, -1, -2, -8, -3, 8, 947, 827, 246,X
2025-03-10 13:26:21.291,721, 544, 451, -4, -1, -1, -6, 0, 7, 947, 827, 247,X
2025-03-10 13:26:21.345,736, 533, 451, 0, -5, 0, -4, -2, 9, 950, 834, 267,X
2025-03-10 13:26:21.400,718, 540, 465, -1, -3, -1, -8, -2, 7, 947, 844, 284,X
2025-03-10 13:26:21.450,667, 535, 529, 3, -17, 6, -7, -2, 8, 957, 859, 278,X
2025-03-10 13:26:21.510,730, 520, 478, -14, -6, -4, -8, -2, 8, 963, 878, 58,X
2025-03-10 13:26:21.559,473, 718, 496, 4, 19, 10, -8, -1, 8, 967, 873, 73,X
2025-03-10 13:26:21.610,886, 519, 31, -54, 41, 20, -8, 0, 7, 966, 793, 50,X
2025-03-10 13:26:21.670,671, 320, 598, 31, -43, -63, -7, 3, 5, 944, 729, 59,X
2025-03-10 13:26:21.724,759, 385, 601, -2, -24, -8, -7, -2, 9, 963, 864, 61,X
2025-03-10 13:26:21.780,451, 772, 221, -31, 32, 57, -9, -2, 9, 974, 888, 55,X
2025-03-10 13:26:21.830,764, 335, 518, -8, 8, -12, -8, 1, 7, 965, 854, 64,X
2025-03-10 13:26:21.881,694, 469, 558, -14, 32, -49, -9, -1, 7, 910, 708, 63,X
2025-03-10 13:26:22.180,715, 546, 464, -5, -2, -1, -7, 0, 6, 909, 755, 103,Y
2025-03-10 13:26:22.230,707, 536, 461, -4, -3, -2, -7, 1, 8, 911, 756, 92,Y
2025-03-10 13:26:22.290,714, 552, 450, -8, -3, -5, -9, -1, 7, 915, 761, 64,Y
2025-03-10 13:26:22.347,633, 504, 581, -6, -29, -2, -6, -1, 8, 926, 783, 45,Y
2025-03-10 13:26:22.400,774, 422, 386, 19, -15, -8, -8, -2, 9, 959, 847, 57,Y
2025-03-10 13:26:22.450,707, 522, 346, 16, 20, 35, -8, -1, 8, 970, 875, 71,Y
2025-03-10 13:26:22.506,849, 426, 337, -3, 17, -8, -9, 0, 9, 957, 847, 316,Y
2025-03-10 13:26:22.560,507, 660, 912, 7, -30, 2, -8, -2, 6, 938, 823, 271,Y
2025-03-10 13:26:22.611,679, 783, 256, -35, 10, 25, -9, -1, 10, 966, 864, 79,Y
2025-03-10 13:26:22.675,906, 265, 301, -27, 29, 28, -9, 0, 9, 966, 819, 73,Y
2025-03-10 13:26:22.726,896, 432, 647, 21, 0, -19, -8, -3, 9, 941, 714, 60,Y
2025-03-10 13:26:22.780,600, 486, 639, -29, 32, -47, -6, -3, 6, 895, 717, 97,Y
2025-03-10 13:26:23.110,726, 543, 474, -3, -4, 0, -7, -2, 6, 910, 751, 41,Z
2025-03-10 13:26:23.161,726, 530, 467, -5, -4, 0, -7, -2, 6, 909, 755, 53,Z
2025-03-10 13:26:23.214,712, 526, 465, -5, -1, -1, -8, -2, 8, 917, 767, 39,Z
2025-03-10 13:26:23.268,716, 523, 471, -1, -5, 2, -7, 0, 5, 924, 784, 60,Z
2025-03-10 13:26:23.321,725, 523, 454, -2, -1, 0, -8, -1, 6, 928, 793, 74,Z
2025-03-10 13:26:23.374,725, 506, 467, -1, -2, -1, -8, 1, 5, 930, 796, 55,Z
2025-03-10 13:26:23.423,662, 533, 503, -10, -3, -1, -9, 0, 6, 934, 797, 77,Z
2025-03-10 13:26:23.480,733, 324, 260, -19, -11, -19, -7, 1, 6, 950, 818, 68,Z
2025-03-10 13:26:23.538,928, 727, 382, 53, -1, 8, -10, -1, 8, 966, 879, 40,Z
2025-03-10 13:26:23.591,583, 604, 583, 35, 5, 13, -9, -3, 10, 970, 890, 230,Z
2025-03-10 13:26:23.643,377, 523, 457, -32, 29, 4, -8, -2, 9, 969, 835, 43,Z
2025-03-10 13:26:23.700,838, 422, 347, 46, 6, -5, -9, -1, 8, 971, 857, 70,Z
2025-03-10 13:26:23.756,731, 422, 336, 13, 0, 23, -9, -3, 10, 975, 894, 46,Z
2025-03-10 13:26:23.808,751, 145, 475, -13, 2, -41, -9, -2, 8, 963, 861, 278,Z
2025-03-10 13:26:23.860,665, 607, 889, 21, -44, -3, -6, -3, 11, 959, 772, 68,Z
2025-03-10 13:26:23.923,996, 859, 270, 29, -7, 22, -8, -1, 11, 974, 894, 168,Z
2025-03-10 13:26:23.974,790, 487, 425, 6, 13, 15, -9, -3, 10, 967, 889, 411,Z
2025-03-10 13:26:24.030,727, 535, 291, -70, 68, -42, -8, -2, 7, 941, 777, 210,Z
2025-03-10 13:26:24.400,712, 540, 455, -3, 0, -1, -8, 0, 6, 909, 701, 76,a
2025-03-10 13:26:24.456,708, 539, 463, -1, 0, 0, -6, 0, 8, 911, 698, 58,a
2025-03-10 13:26:24.505,715, 544, 455, 0, -2, 1, -7, 0, 7, 914, 715, 48,a
2025-03-10 13:26:24.557,721, 544, 451, -6, 0, 1, -7, -1, 7, 923, 735, 51,a
2025-03-10 13:26:24.607,706, 541, 483, -6, 1, 1, -9, -2, 7, 932, 757, 54,a
2025-03-10 13:26:24.660,722, 539, 442, -4, -1, 1, -7, -1, 7, 935, 772, 65,a
2025-03-10 13:26:24.715,721, 530, 486, -1, -1, 4, -7, 1, 6, 942, 777, 38,a
2025-03-10 13:26:24.762,716, 537, 471, 0, 1, 5, -9, -1, 6, 945, 785, 56,a
2025-03-10 13:26:24.815,709, 539, 469, -2, 4, 9, -9, -1, 6, 948, 788, 55,a
2025-03-10 13:26:24.870,724, 506, 467, 0, 2, 7, -7, -2, 8, 953, 790, 43,a
2025-03-10 13:26:24.920,643, 488, 516, 1, -18, 9, -8, -1, 9, 956, 808, 38,a
2025-03-10 13:26:24.974,788, 473, 599, -13, -11, -16, -8, 0, 8, 959, 852, 83,a
2025-03-10 13:26:25.030,981, 572, 290, 23, 15, -5, -8, -2, 9, 968, 844, 66,a
2025-03-10 13:26:25.080,628, 449, 485, -9, 19, 25, -8, 1, 8, 973, 865, 63,a
2025-03-10 13:26:25.140,800, 464, 395, 20, -31, -33, -9, 1, 7, 964, 876, 58,a
2025-03-10 13:26:25.190,768, 699, 183, 11, 8, 9, -8, -2, 10, 967, 875, 67,a
2025-03-10 13:26:25.241,832, 427, 388, -13, 19, 0, -10, -2, 10, 966, 860, 82,a
2025-03-10 13:26:25.550,702, 538, 471, -12, -3, -6, -8, -1, 8, 935, 810, 64,b
2025-03-10 13:26:25.610,696, 528, 471, -9, -4, -6, -9, 1, 7, 936, 809, 56,b
2025-03-10 13:26:25.664,688, 536, 492, -8, -11, -6, -7, 0, 5, 934, 806, 63,b
2025-03-10 13:26:25.711,749, 530, 421, 3, -11, 5, -8, -1, 7, 933, 812, 57,b
2025-03-10 13:26:25.771,719, 504, 447, -5, 6, -2, -7, -1, 7, 939, 832, 78,b
2025-03-10 13:26:25.824,956, 757, 376, 32, 41, 39, -8, -1, 8, 962, 819, 65,b
2025-03-10 13:26:25.876,939, 495, 235, 10, 22, 25, -8, -2, 8, 962, 783, 69,b
2025-03-10 13:26:25.930,969, 214, 522, 21, -40, -40, -11, 0, 8, 951, 832, 63,b
2025-03-10 13:26:25.988,671, 692, 594, 2, -9, 6, -8, -3, 9, 966, 875, 162,b
2025-03-10 13:26:26.042,614, 574, 426, -30, 22, 16, -9, -2, 9, 971, 873, 71,b
2025-03-10 13:26:26.091,1042, 153, 566, 21, 1, -18, -9, -1, 9, 955, 799, 58,b
2025-03-10 13:26:26.155,438, 522, 800, -11, 40, -29, -8, -1, 6, 940, 813, 117,b
2025-03-10 13:26:26.460,712, 503, 493, -3, -3, 2, -9, 0, 7, 938, 794, 82,c
2025-03-10 13:26:26.515,713, 501, 471, 0, -3, 2, -9, -1, 11, 938, 792, 74,c
2025-03-10 13:26:26.570,720, 544, 448, -1, -2, 3, -7, -1, 7, 941, 799, 75,c
2025-03-10 13:26:26.623,687, 505, 521, 9, -19, 9, -8, -1, 7, 950, 808, 36,c
2025-03-10 13:26:26.680,645, 445, 487, -13, -3, -10, -9, 0, 9, 956, 845, 80,c
2025-03-10 13:26:26.730,1023, 527, 483, 33, 5, -1, -8, -1, 7, 969, 847, 45,c
2025-03-10 13:26:26.781,1311, 496, 209, 37, 31, 44, -9, 0, 9, 972, 874, 63,c
2025-03-10 13:26:26.842,783, 360, 484, 23, -20, -14, -9, -2, 8, 967, 876, 296,c
2025-03-10 13:26:26.900,615, 502, 586, -43, 50, -41, -7, -2, 7, 941, 819, 125,c
2025-03-10 13:26:26.955,561, 679, 687, -12, -3, -6, -6, 0, 3, 928, 761, 88,c
2025-03-10 13:26:27.270,716, 519, 479, 2, -6, 7, -8, -1, 6, 934, 763, 73,d
2025-03-10 13:26:27.314,709, 527, 480, 2, -6, 7, -6, 0, 7, 936, 762, 56,d
2025-03-10 13:26:27.373,733, 516, 453, 4, -10, 5, -8, -1, 7, 938, 778, 82,d
2025-03-10 13:26:27.423,731, 524, 463, 0, -1, 0, -9, -1, 8, 938, 776, 61,d
2025-03-10 13:26:27.474,690, 519, 501, 7, -15, 4, -7, 0, 7, 942, 790, 48,d
2025-03-10 13:26:27.529,674, 515, 471, -2, 0, -11, -8, -1, 7, 945, 813, 82,d
2025-03-10 13:26:27.580,671, 475, 537, 0, -6, -12, -9, 0, 8, 953, 824, 64,d
2025-03-10 13:26:27.638,907, 574, 360, 17, 19, 29, -7, -2, 6, 968, 833, 54,d
2025-03-10 13:26:27.689,688, 368, 446, -20, 7, 20, -7, -2, 8, 970, 878, 58,d
2025-03-10 13:26:27.749,385, 489, 859, -2, -44, -58, -8, -2, 6, 956, 885, 142,d
2025-03-10 13:26:27.800,735, 735, 300, 11, 10, 5, -10, 0, 7, 973, 888, 101,d
2025-03-10 13:26:27.859,857, 561, 230, -13, 34, 36, -10, -1, 8, 975, 882, 59,d
2025-03-10 13:26:27.910,791, 413, 454, 16, 0, -24, -11, 0, 6, 962, 857, 196,d
2025-03-10 13:26:27.970,647, 546, 532, -8, 15, -20, -8, 1, 6, 949, 835, 192,d
2025-03-10 13:26:28.248,697, 507, 489, -1, -1, 3, -7, 0, 6, 943, 782, 58,e
2025-03-10 13:26:28.290,701, 511, 496, -1, -2, 2, -7, 2, 9, 942, 785, 59,e
2025-03-10 13:26:28.350,708, 528, 477, 1, -2, 1, -9, -1, 6, 942, 788, 77,e
2025-03-10 13:26:28.405,694, 504, 502, 2, -3, 0, -8, -1, 7, 944, 782, 66,e
2025-03-10 13:26:28.455,730, 483, 585, 12, -34, 13, -9, -1, 6, 951, 795, 37,e
2025-03-10 13:26:28.510,876, 917, 347, -10, 5, 21, -9, 0, 9, 966, 856, 70,e
2025-03-10 13:26:28.565,719, 440, 691, -5, -12, -5, -9, -1, 7, 966, 872, 44,e
2025-03-10 13:26:28.622,740, 387, 528, 0, -12, -25, -8, -1, 6, 961, 860, 59,e
2025-03-10 13:26:28.674,861, 776, 198, -2, 23, 28, -7, -2, 7, 972, 860, 70,e
2025-03-10 13:26:28.730,665, 548, 598, -11, 10, 20, -10, 0, 8, 970, 873, 76,e
2025-03-10 13:26:28.780,779, 531, 307, -20, 44, -43, -8, -2, 5, 942, 832, 85,e
2025-03-10 13:26:28.838,552, 526, 643, -4, 0, -11, -8, 1, 4, 922, 789, 44,e
2025-03-10 13:26:29.120,708, 530, 494, 4, -2, 9, -8, -1, 6, 937, 785, 59,f
2025-03-10 13:26:29.180,711, 524, 487, 4, -2, 11, -9, 0, 7, 937, 785, 79,f
2025-03-10 13:26:29.227,692, 520, 507, 1, -8, 8, -9, 2, 6, 943, 801, 51,f
2025-03-10 13:26:29.280,704, 452, 465, -13, 1, -6, -9, -1, 8, 951, 840, 61,f
2025-03-10 13:26:29.338,814, 272, 339, -7, -36, -49, -9, -2, 5, 954, 884, 64,f
2025-03-10 13:26:29.394,932, 499, 674, 11, -34, -15, -8, -1, 7, 965, 901, 235,f
2025-03-10 13:26:29.454,743, 650, 287, 15, 18, 26, -8, -3, 8, 969, 900, 304,f
2025-03-10 13:26:29.508,817, 358, 364, -19, 43, -19, -9, -2, 9, 965, 871, 36,f
2025-03-10 13:26:29.560,828, 504, 678, 24, -16, -40, -6, -2, 7, 960, 859, 83,f
2025-03-10 13:26:29.615,871, 750, 225, 5, -5, 22, -8, -3, 9, 973, 899, 67,f
2025-03-10 13:26:29.671,701, 469, 527, 16, 6, 10, -9, -1, 10, 970, 893, 355,f
2025-03-10 13:26:30.000,704, 547, 477, -1, 1, 1, -8, -2, 8, 932, 743, 99,g
2025-03-10 13:26:30.054,706, 558, 479, -2, -1, 1, -5, 0, 8, 934, 744, 114,g
2025-03-10 13:26:30.106,729, 533, 450, -2, -3, 1, -8, -3, 6, 929, 744, 90,g
2025-03-10 13:26:30.156,696, 538, 469, 4, 0, 2, -8, -1, 8, 927, 731, 109,g
2025-03-10 13:26:30.215,685, 543, 487, 11, -10, 12, -9, -1, 8, 929, 727, 166,g
2025-03-10 13:26:30.266,883, 579, 389, -20, 4, -3, -10, -2, 7, 942, 803, 52,g
2025-03-10 13:26:30.322,847, 462, 563, -1, -2, -12, -8, -2, 10, 955, 837, 81,g
2025-03-10 13:26:30.380,900, 490, 343, -13, 33, 46, -10, 1, 7, 972, 860, 55,g
2025-03-10 13:26:30.436,626, 362, 649, -4, -9, -8, -9, 0, 8, 964, 871, 81,g
2025-03-10 13:26:30.490,762, 487, 622, 9, -11, -9, -8, -3, 7, 961, 864, 258,g
2025-03-10 13:26:30.540,834, 619, 287, -14, 34, 46, -9, -2, 8, 975, 867, 52,g
2025-03-10 13:26:30.600,847, 265, 445, -32, 19, -7, -8, 0, 5, 963, 795, 84,g
2025-03-10 13:26:30.653,907, 471, 318, -24, 47, -67, -7, -1, 6, 894, 739, 57,g
2025-03-10 13:26:30.964,712, 551, 426, -4, -3, -2, -7, -1, 8, 916, 779, 93,h
2025-03-10 13:26:31.022,708, 542, 440, -4, -2, -2, -6, 0, 6, 917, 778, 99,h
2025-03-10 13:26:31.072,698, 551, 466, -7, -7, -7, -6, -4, 7, 917, 781, 91,h
2025-03-10 13:26:31.121,733, 534, 458, 1, -35, 0, -6, -2, 8, 922, 809, 51,h
2025-03-10 13:26:31.180,844, 526, 343, 16, 0, 3, -7, 0, 9, 962, 850, 65,h
2025-03-10 13:26:31.230,511, 673, 323, 5, 36, 47, -8, 0, 7, 973, 848, 70,h
2025-03-10 13:26:31.280,777, 449, 400, -2, 15, 4, -8, 0, 7, 970, 847, 62,h
2025-03-10 13:26:31.340,665, 762, 503, 4, -17, -18, -8, -1, 8, 970, 866, 46,h
2025-03-10 13:26:31.390,616, 553, 341, -17, 22, 31, -8, 1, 9, 972, 874, 78,h
2025-03-10 13:26:31.440,840, 266, 473, -10, 8, -23, -8, 0, 5, 964, 823, 78,h
2025-03-10 13:26:31.505,608, 514, 719, -13, 12, -28, -7, -1, 3, 946, 793, 73,h
2025-03-10 13:26:31.809,724, 499, 455, -1, -1, 0, -9, -1, 6, 941, 761, 28,i
2025-03-10 13:26:31.858,731, 500, 460, 0, 0, -1, -8, -1, 5, 939, 768, 60,i
2025-03-10 13:26:31.910,720, 509, 469, 1, -2, -1, -8, 0, 7, 938, 765, 56,i
2025-03-10 13:26:31.960,714, 510, 479, 4, -6, 0, -7, 1, 7, 942, 769, 29,i
2025-03-10 13:26:32.015,714, 648, 540, -6, -3, -5, -7, -1, 6, 954, 818, 53,i
2025-03-10 13:26:32.071,794, 743, 416, -51, 32, 41, -10, 0, 7, 974, 842, 55,i
2025-03-10 13:26:32.124,825, 474, 508, -1, 2, -6, -8, -1, 7, 971, 842, 70,i
2025-03-10 13:26:32.180,552, 644, 715, -20, -36, -31, -10, -2, 7, 955, 877, 204,i
2025-03-10 13:26:32.230,746, 545, 66, 2, -5, 1, -9, 0, 7, 970, 894, 64,i
2025-03-10 13:26:32.288,815, 415, 453, -7, 26, 19, -9, -1, 7, 966, 864, 44,i
2025-03-10 13:26:32.339,572, 502, 585, -11, 27, -11, -8, -1, 5, 959, 841, 65,i
2025-03-10 13:26:32.630,729, 522, 479, 1, 3, 1, -8, -1, 7, 953, 815, 81,j
2025-03-10 13:26:32.686,763, 541, 406, 3, 6, 4, -9, 0, 7, 955, 817, 73,j
2025-03-10 13:26:32.743,680, 666, 426, -14, 19, 20, -9, -1, 7, 968, 823, 38,j
2025-03-10 13:26:32.792,715, 438, 418, -25, 15, 19, -9, -1, 8, 969, 828, 72,j
2025-03-10 13:26:32.854,894, 212, 603, 7, -53, -102, -7, -1, 6, 943, 774, 81,j
2025-03-10 13:26:32.907,113, 642, 1324, 18, -74, 2, -7, 2, 4, 959, 871, 43,j
2025-03-10 13:26:32.959,765, 410, 99, 34, -15, 4, -9, 1, 7, 973, 887, 57,j
2025-03-10 13:26:33.010,793, 319, 604, 16, 25, 31, -9, 0, 7, 962, 848, 50,j
2025-03-10 13:26:33.063,665, 565, 465, -30, 61, -18, -10, 1, 5, 952, 801, 62,j
2025-03-10 13:26:33.119,492, 589, 799, 5, 8, -5, -6, 1, 5, 943, 790, 64,j
2025-03-10 13:26:33.400,729, 682, 438, 2, -4, -7, -7, -1, 7, 948, 827, 55,k
2025-03-10 13:26:33.455,730, 585, 487, -18, -5, -4, -6, 0, 5, 950, 831, 56,k
2025-03-10 13:26:33.505,799, 631, 465, -2, 27, 20, -8, 1, 8, 964, 823, 78,k
2025-03-10 13:26:33.560,847, 423, 399, 3, 14, 18, -7, 1, 7, 971, 829, 62,k
2025-03-10 13:26:33.610,818, 390, 512, 9, -40, 0, -8, -1, 9, 973, 896, 80,k
2025-03-10 13:26:33.663,676, 582, 452, 17, -9, -7, -9, -1, 9, 971, 894, 298,k
2025-03-10 13:26:33.721,736, 609, 387, -39, 39, -29, -10, -1, 9, 956, 825, 72,k
2025-03-10 13:26:33.771,835, 1079, 441, 28, -4, 6, -9, -1, 7, 971, 861, 75,k
2025-03-10 13:26:33.830,761, 453, 422, 9, 22, 36, -8, 0, 9, 975, 879, 96,k
2025-03-10 13:26:33.890,899, 338, 262, -6, 37, -38, -6, 0, 8, 962, 820, 298,k
2025-03-10 13:26:33.940,612, 494, 596, -30, 47, -46, -5, 0, 4, 911, 646, 70,k
2025-03-10 13:26:34.341,708, 557, 480, 0, -5, -1, -7, -1, 5, 889, 681, 59,l
2025-03-10 13:26:34.390,706, 550, 475, 0, -4, -1, -6, 2, 5, 890, 687, 57,l
2025-03-10 13:26:34.446,702, 539, 476, -1, -5, -2, -7, 1, 6, 895, 700, 58,l
2025-03-10 13:26:34.499,697, 539, 473, -4, -6, -1, -8, -1, 6, 905, 713, 56,l
2025-03-10 13:26:34.552,650, 556, 536, 2, -28, 0, -8, 0, 7, 912, 743, 73,l
2025-03-10 13:26:34.610,786, 634, 591, -22, -13, -6, -8, -2, 7, 952, 830, 78,l
2025-03-10 13:26:34.663,739, 693, 364, 21, 44, 55, -8, -1, 7, 976, 847, 62,l
2025-03-10 13:26:34.713,807, 516, 285, 2, 19, 21, -8, 0, 7, 977, 820, 42,l
2025-03-10 13:26:34.771,902, 420, 343, 24, -10, -44, -6, -1, 9, 941, 756, 112,l
2025-03-10 13:26:34.823,552, 575, 700, -15, 10, -19, -5, 0, 6, 923, 761, 54,l
2025-03-10 13:26:34.880,618, 542, 544, 4, -18, 12, -4, -3, 6, 920, 773, 84,l
2025-03-10 13:26:35.200,690, 543, 479, 1, -4, -2, -7, -2, 7, 926, 755, 79,m
2025-03-10 13:26:35.254,687, 538, 476, 2, -5, -2, -6, -1, 8, 925, 757, 76,m
2025-03-10 13:26:35.310,629, 544, 571, 18, -36, 5, -6, -1, 9, 928, 765, 55,m
2025-03-10 13:26:35.363,768, 583, 454, 8, -8, -11, -7, 0, 7, 951, 807, 37,m
2025-03-10 13:26:35.414,632, 674, 316, 17, 29, 24, -8, -1, 8, 966, 821, 77,m
2025-03-10 13:26:35.470,748, 607, 365, -8, 10, 6, -7, -1, 9, 965, 837, 48,m
2025-03-10 13:26:35.523,843, 774, 229, -4, -34, -25, -9, -1, 9, 959, 861, 57,m
2025-03-10 13:26:35.580,683, 807, 257, -17, 9, 26, -9, -4, 10, 974, 871, 51,m
2025-03-10 13:26:35.635,771, 294, 488, -9, 18, 14, -9, 0, 9, 973, 870, 63,m
2025-03-10 13:26:35.692,709, 375, 436, 32, -40, -40, -9, 0, 7, 968, 870, 55,m
2025-03-10 13:26:35.741,488, 590, 218, -8, 11, 28, -9, 0, 9, 976, 879, 82,m
2025-03-10 13:26:35.791,736, 402, 436, -6, 22, 16, -9, -1, 8, 977, 867, 42,m
2025-03-10 13:26:35.850,809, 491, 370, -15, 49, -47, -7, 0, 8, 955, 815, 98,m
2025-03-10 13:26:35.904,531, 578, 723, -6, 7, -12, -8, 2, 3, 932, 772, 100,m
2025-03-10 13:26:36.190,683, 519, 500, 7, -14, -3, -8, -1, 7, 927, 721, 45,n
2025-03-10 13:26:36.252,668, 521, 497, 8, -17, -2, -8, -1, 10, 926, 729, 60,n
2025-03-10 13:26:36.303,760, 718, 537, -16, -4, -4, -5, 0, 6, 943, 782, 57,n
2025-03-10 13:26:36.363,594, 723, 278, -11, 26, 37, -7, -1, 8, 968, 823, 64,n
2025-03-10 13:26:36.413,728, 484, 341, -12, 12, 10, -9, 0, 6, 968, 844, 80,n
2025-03-10 13:26:36.469,616, 462, 433, 23, -46, -34, -9, -1, 9, 965, 871, 74,n
2025-03-10 13:26:36.522,791, 721, 412, -2, 7, 27, -8, -2, 10, 976, 876, 55,n
2025-03-10 13:26:36.572,768, 372, 414, 3, 23, 14, -7, 1, 7, 975, 846, 34,n
2025-03-10 13:26:36.634,811, 513, 342, -15, 39, -47, -9, 0, 5, 945, 781, 95,n
2025-03-10 13:26:36.960,709, 515, 512, 1, -3, 5, -8, -2, 8, 935, 728, 43,o
2025-03-10 13:26:37.021,709, 514, 500, 1, -4, 5, -7, -1, 7, 933, 740, 65,o
2025-03-10 13:26:37.071,691, 532, 522, 8, -14, 8, -7, -1, 7, 935, 762, 81,o
2025-03-10 13:26:37.129,738, 610, 442, -7, -5, -8, -9, -3, 10, 943, 808, 38,o
2025-03-10 13:26:37.180,635, 411, 536, 0, -11, -18, -9, -1, 8, 952, 844, 76,o
2025-03-10 13:26:37.240,1065, 923, 101, 29, 41, 54, -8, -2, 10, 969, 854, 83,o
2025-03-10 13:26:37.290,499, 475, 759, -26, -12, 13, -7, -4, 7, 975, 883, 44,o
2025-03-10 13:26:37.354,795, 439, 374, 41, -19, -35, -9, -2, 8, 957, 869, 359,o
2025-03-10 13:26:37.410,849, 583, 270, -36, 58, -31, -9, -2, 10, 937, 825, 178,o
2025-03-10 13:26:37.463,552, 588, 703, -22, 21, -9, -7, -1, 4, 934, 769, 65,o
2025-03-10 13:26:37.801,711, 503, 462, 1, -8, -3, -7, 1, 6, 914, 709, 61,p
2025-03-10 13:26:37.855,714, 508, 453, 1, -9, -5, -7, -1, 7, 913, 714, 82,p
2025-03-10 13:26:37.915,691, 548, 504, 0, -19, -5, -9, -1, 7, 912, 726, 71,p
2025-03-10 13:26:37.969,741, 506, 380, -17, 3, -3, -8, -1, 8, 928, 751, 80,p
2025-03-10 13:26:38.022,927, 520, 651, -8, 22, 25, -7, -1, 10, 961, 803, 83,p
2025-03-10 13:26:38.073,755, 397, 381, 2, 23, 30, -7, -1, 6, 971, 788, 46,p
2025-03-10 13:26:38.132,714, 112, 745, 11, -27, -45, -8, -2, 7, 951, 820, 77,p
2025-03-10 13:26:38.186,866, 434, 471, 3, -54, -29, -7, 0, 7, 957, 878, 129,p
2025-03-10 13:26:38.240,519, 629, 336, 16, 8, 20, -8, -1, 9, 973, 891, 271,p
2025-03-10 13:26:38.291,1099, 369, 271, -30, 28, 20, -8, 0, 8, 974, 874, 62,p
2025-03-10 13:26:38.354,1106, 415, 239, -6, 20, -43, -7, -3, 7, 941, 725, 86,p
2025-03-10 13:26:38.407,535, 631, 719, -21, 28, -26, -5, 0, 2, 924, 681, 67,p
2025-03-10 13:26:38.700,695, 520, 514, 7, -12, 6, -6, -2, 6, 926, 743, 73,q
2025-03-10 13:26:38.753,707, 532, 493, 6, -14, 6, -11, 0, 7, 928, 745, 66,q
2025-03-10 13:26:38.803,757, 446, 342, -7, -5, -13, -7, -2, 9, 937, 806, 79,q
2025-03-10 13:26:38.863,833, 507, 569, -6, -15, -19, -7, -1, 8, 954, 859, 52,q
2025-03-10 13:26:38.919,798, 823, 185, 24, 15, 6, -9, -2, 8, 971, 835, 59,q
2025-03-10 13:26:38.970,773, 326, 517, -26, 24, 33, -8, 0, 9, 974, 866, 58,q
2025-03-10 13:26:39.029,562, 375, 697, 20, -25, -25, -9, 1, 7, 964, 871, 43,q
2025-03-10 13:26:39.080,700, 539, 460, 28, -7, -10, -8, 0, 9, 965, 864, 74,q
2025-03-10 13:26:39.135,811, 690, 208, 19, 24, 36, -9, -1, 9, 973, 819, 44,q
2025-03-10 13:26:39.190,840, 632, 630, -7, 9, 12, -7, -2, 11, 969, 863, 67,q
2025-03-10 13:26:39.240,745, 493, 365, 19, -16, -10, -8, -2, 7, 955, 858, 245,q
2025-03-10 13:26:39.303,606, 508, 625, -41, 60, -42, -8, -2, 7, 934, 818, 121,q
2025-03-10 13:26:39.639,697, 526, 501, 8, -16, 1, -7, -1, 5, 924, 748, 74,r
2025-03-10 13:26:39.690,708, 520, 481, 10, -16, 0, -7, -1, 7, 923, 751, 67,r
2025-03-10 13:26:39.740,656, 526, 508, 14, -24, -3, -7, 0, 7, 923, 772, 56,r
2025-03-10 13:26:39.799,803, 542, 488, -24, 0, -3, -8, -1, 6, 948, 822, 35,r
2025-03-10 13:26:39.852,623, 693, 468, 0, 30, 38, -9, -1, 9, 969, 837, 54,r
2025-03-10 13:26:39.910,750, 599, 274, -25, 12, 12, -9, 0, 8, 970, 859, 75,r
2025-03-10 13:26:39.962,417, 410, 331, 26, -28, -20, -7, -1, 9, 966, 879, 80,r
2025-03-10 13:26:40.012,693, 585, 398, -6, 12, 22, -9, 0, 7, 970, 864, 36,r
2025-03-10 13:26:40.070,667, 476, 479, -36, 41, -26, -9, 1, 5, 960, 818, 85,r
2025-03-10 13:26:40.121,617, 502, 643, 7, -5, -2, -6, 1, 5, 955, 796, 36,r
2025-03-10 13:26:40.430,701, 533, 497, 2, -10, 6, -7, 0, 5, 954, 796, 49,s
2025-03-10 13:26:40.480,692, 531, 507, 3, -13, 7, -9, -2, 7, 954, 796, 30,s
2025-03-10 13:26:40.536,742, 491, 364, -6, -2, -4, -8, 0, 7, 959, 814, 38,s
2025-03-10 13:26:40.590,633, 403, 575, -10, -4, -11, -9, 1, 6, 960, 841, 84,s
2025-03-10 13:26:40.642,917, 455, 497, 12, -2, -7, -7, 1, 6, 969, 847, 35,s
2025-03-10 13:26:40.690,563, 504, 463, -8, 28, 28, -9, -1, 8, 975, 861, 80,s
2025-03-10 13:26:40.753,647, 523, 495, -32, 7, 12, -10, -1, 7, 974, 819, 57,s
2025-03-10 13:26:40.803,936, 372, 368, 54, 8, -20, -7, -1, 7, 939, 661, 70,s
2025-03-10 13:26:40.862,630, 463, 576, -20, 55, -38, -6, -1, 7, 920, 697, 60,s
2025-03-10 13:26:40.918,471, 610, 734, -18, -9, -15, -6, -2, 2, 916, 716, 75,s
2025-03-10 13:26:41.213,705, 538, 466, -3, -13, -4, -10, 0, 5, 920, 799, 57,t
2025-03-10 13:26:41.270,676, 536, 478, -3, -17, -4, -7, -1, 6, 921, 797, 40,t
2025-03-10 13:26:41.327,807, 436, 446, -6, -19, -8, -8, 0, 8, 941, 832, 63,t
2025-03-10 13:26:41.380,605, 549, 463, 47, 25, 8, -7, -1, 8, 967, 836, 44,t
2025-03-10 13:26:41.430,881, 778, 193, 4, 26, 42, -9, 0, 9, 971, 844, 74,t
2025-03-10 13:26:41.480,672, 396, 763, 5, -3, -4, -9, 0, 8, 964, 834, 274,t
2025-03-10 13:26:41.540,568, 618, 553, -19, -5, -55, -7, -2, 9, 947, 737, 115,t
2025-03-10 13:26:41.590,817, 599, 426, -33, -19, -5, -7, 1, 7, 970, 871, 94,t
2025-03-10 13:26:41.650,678, 492, 513, 8, 8, 17, -9, -2, 8, 973, 875, 239,t
2025-03-10 13:26:41.703,828, 504, 305, -1, 22, -2, -9, -3, 10, 958, 801, 318,t
2025-03-10 13:26:42.062,717, 544, 454, -4, -1, 1, -5, -3, 10, 936, 717, 47,u
2025-03-10 13:26:42.120,710, 530, 459, -3, -1, 0, -7, -1, 8, 935, 717, 53,u
2025-03-10 13:26:42.170,714, 535, 464, -1, -2, -1, -8, 3, 5, 935, 713, 49,u
2025-03-10 13:26:42.221,701, 539, 479, -1, -4, 0, -8, 0, 7, 936, 711, 55,u
2025-03-10 13:26:42.270,773, 417, 446, 17, -6, -12, -9, 0, 8, 946, 743, 52,u
2025-03-10 13:26:42.330,716, 707, 367, 11, 17, 16, -9, 0, 9, 966, 791, 57,u
2025-03-10 13:26:42.384,716, 613, 270, 2, 15, 29, -9, 1, 9, 972, 842, 79,u
2025-03-10 13:26:42.440,630, 376, 708, 15, -24, -25, -7, -1, 7, 966, 863, 252,u
2025-03-10 13:26:42.490,721, 487, 528, 18, -11, -5, -10, 0, 9, 968, 866, 240,u
2025-03-10 13:26:42.551,790, 587, 194, 0, 24, 24, -7, -1, 7, 972, 872, 244,u
2025-03-10 13:26:42.604,794, 420, 314, -17, 13, -37, -7, -1, 6, 964, 835, 317,u
2025-03-10 13:26:43.030,695, 522, 508, 2, -2, 0, -9, 0, 6, 905, 657, 71,v
2025-03-10 13:26:43.086,707, 534, 509, 2, -4, 1, -7, 0, 8, 905, 656, 60,v
2025-03-10 13:26:43.138,737, 530, 452, 2, -5, 0, -8, -1, 6, 906, 667, 45,v
2025-03-10 13:26:43.191,702, 520, 491, 3, -3, -1, -10, -1, 6, 901, 675, 63,v
2025-03-10 13:26:43.240,720, 540, 470, 3, -6, 2, -6, -2, 7, 903, 691, 74,v
2025-03-10 13:26:43.290,727, 522, 461, -1, -3, 1, -7, 2, 6, 913, 698, 58,v
2025-03-10 13:26:43.350,706, 536, 466, 0, -5, -1, -8, -1, 8, 918, 719, 54,v
2025-03-10 13:26:43.404,759, 536, 435, -3, -3, 0, -8, -1, 8, 922, 741, 74,v
2025-03-10 13:26:43.456,729, 537, 463, -1, -1, -4, -7, 1, 8, 926, 738, 37,v
2025-03-10 13:26:43.510,722, 534, 453, -3, 0, -1, -8, -2, 7, 924, 748, 81,v
2025-03-10 13:26:43.560,715, 538, 462, -2, 0, -3, -9, -2, 7, 925, 742, 47,v
2025-03-10 13:26:43.617,726, 529, 455, -3, -1, -2, -9, 0, 8, 926, 743, 63,v
2025-03-10 13:26:43.660,700, 526, 482, 1, -7, -5, -7, 0, 9, 930, 757, 76,v
2025-03-10 13:26:43.719,759, 555, 455, -7, -9, -9, -8, -2, 8, 943, 801, 55,v
2025-03-10 13:26:43.770,723, 528, 463, -7, 1, -3, -7, -2, 8, 950, 837, 81,v
2025-03-10 13:26:43.830,728, 500, 505, 2, -4, -3, -8, -2, 10, 960, 843, 42,v
2025-03-10 13:26:43.883,832, 459, 538, -11, 27, 39, -8, 0, 8, 971, 844, 55,v
2025-03-10 13:26:43.935,749, 727, 387, -30, 5, 22, -9, 1, 7, 975, 865, 43,v
2025-03-10 13:26:43.987,524, 625, 403, 1, -36, -32, -9, -1, 8, 966, 890, 83,v
2025-03-10 13:26:44.040,846, 698, 283, 7, 14, 12, -11, 1, 7, 953, 857, 237,v
2025-03-10 13:26:44.100,562, 555, 615, -47, 60, -23, -6, 0, 6, 946, 806, 72,v
2025-03-10 13:26:44.152,575, 561, 738, 10, -5, 1, -6, -1, 5, 937, 751, 64,v
2025-03-10 13:26:44.450,720, 525, 453, 2, -1, -1, -7, -3, 6, 914, 686, 70,w
2025-03-10 13:26:44.506,723, 534, 452, 3, -1, -1, -10, 0, 9, 914, 686, 55,w
2025-03-10 13:26:44.556,709, 547, 469, 1, 1, -1, -8, -2, 8, 915, 681, 79,w
2025-03-10 13:26:44.610,712, 536, 465, 1, -3, -3, -7, -1, 10, 915, 662, 44,w
2025-03-10 13:26:44.662,698, 503, 544, 14, -31, 6, -7, -2, 7, 929, 726, 63,w
2025-03-10 13:26:44.713,777, 510, 327, -3, 1, 3, -8, -1, 9, 958, 806, 60,w
2025-03-10 13:26:44.769,591, 362, 432, 5, 23, 29, -7, -2, 9, 971, 833, 48,w
2025-03-10 13:26:44.821,784, 406, 678, -22, -16, -6, -9, 0, 8, 969, 864, 77,w
2025-03-10 13:26:44.883,701, 347, 702, 15, -16, -11, -10, -1, 7, 968, 871, 59,w
2025-03-10 13:26:44.936,815, 608, 252, -4, 11, 26, -9, -2, 8, 975, 874, 50,w
2025-03-10 13:26:44.992,550, 263, 618, 11, -29, -19, -10, -1, 6, 969, 885, 87,w
2025-03-10 13:26:45.049,781, 462, 333, -25, 56, -33, -8, -2, 9, 953, 849, 88,w
2025-03-10 13:26:45.329,745, 520, 444, -3, -3, 2, -10, 2, 4, 938, 747, 70,x
2025-03-10 13:26:45.390,732, 534, 441, -1, -3, 2, -6, 1, 9, 940, 747, 51,x
2025-03-10 13:26:45.440,725, 521, 470, 1, -3, 6, -8, 0, 8, 941, 756, 50,x
2025-03-10 13:26:45.493,738, 506, 444, 0, -3, 3, -10, -1, 9, 944, 768, 64,x
2025-03-10 13:26:45.550,730, 372, 397, -9, -5, -8, -10, -1, 8, 955, 808, 59,x
2025-03-10 13:26:45.604,645, 443, 572, 4, -5, -9, -10, -2, 10, 968, 853, 57,x
2025-03-10 13:26:45.661,1404, 493, 285, -27, 30, 16, -9, -1, 8, 968, 817, 80,x
2025-03-10 13:26:45.712,739, 129, 926, 20, -32, -50, -9, 0, 8, 951, 734, 56,x
2025-03-10 13:26:45.770,843, 618, 666, -9, -21, -1, -7, 0, 7, 965, 843, 70,x
2025-03-10 13:26:45.821,703, 445, 306, -5, 17, 33, -10, 0, 8, 974, 867, 81,x
2025-03-10 13:26:45.877,837, 327, 271, 1, 14, -41, -13, 2, 7, 961, 819, 63,x
2025-03-10 13:26:46.230,705, 524, 470, 2, -4, 4, -8, 0, 8, 933, 705, 54,y
2025-03-10 13:26:46.273,722, 533, 468, 3, -6, 4, -9, 0, 8, 933, 710, 59,y
2025-03-10 13:26:46.332,743, 521, 431, -3, 0, 1, -8, -1, 6, 933, 720, 55,y
2025-03-10 13:26:46.380,726, 515, 470, 1, -4, 3, -9, 0, 7, 937, 733, 52,y
2025-03-10 13:26:46.434,670, 497, 501, -1, -9, -1, -8, 0, 7, 941, 765, 59,y
2025-03-10 13:26:46.490,748, 461, 500, -15, -5, -8, -10, 0, 7, 955, 804, 79,y
2025-03-10 13:26:46.540,715, 976, 244, 10, 28, 43, -8, -1, 8, 971, 833, 68,y
2025-03-10 13:26:46.591,734, 302, 393, -2, 16, 13, -10, 0, 7, 972, 857, 48,y
2025-03-10 13:26:46.655,841, 552, 536, 35, -11, -23, -10, -2, 9, 957, 844, 344,y
2025-03-10 13:26:46.711,749, 725, 370, -23, 31, 35, -10, -2, 9, 974, 855, 55,y
2025-03-10 13:26:46.770,628, 422, 272, -37, 28, 21, -10, -2, 8, 973, 831, 51,y
2025-03-10 13:26:46.820,1137, 504, 134, 15, 6, -64, -8, 0, 7, 932, 737, 71,y
2025-03-10 13:26:46.880,483, 672, 812, -8, -14, -14, -7, -2, 6, 934, 776, 63,y
2025-03-10 13:26:47.130,727, 526, 448, -2, 2, -2, -9, -1, 6, 929, 699, 56,z
2025-03-10 13:26:47.184,727, 532, 451, -2, 2, -1, -8, 1, 8, 929, 695, 52,z
2025-03-10 13:26:47.236,736, 517, 459, -3, 3, 0, -10, -2, 9, 927, 674, 50,z
2025-03-10 13:26:47.290,718, 529, 461, -3, 2, -1, -9, 0, 8, 924, 663, 77,z
2025-03-10 13:26:47.340,728, 515, 475, -2, -1, 0, -9, -2, 9, 926, 670, 63,z
2025-03-10 13:26:47.390,730, 522, 444, -2, -2, -2, -10, -1, 7, 927, 682, 66,z
2025-03-10 13:26:47.450,688, 530, 508, -5, -7, -5, -9, 0, 8, 935, 713, 58,z
2025-03-10 13:26:47.502,814, 536, 400, 1, -4, -13, -10, -1, 7, 952, 783, 55,z
2025-03-10 13:26:47.551,643, 665, 356, 16, -3, 15, -8, 0, 8, 971, 866, 49,z
2025-03-10 13:26:47.611,595, 400, 608, 22, -1, 10, -10, -1, 10, 974, 868, 213,z
2025-03-10 13:26:47.670,1577, 397, 504, -34, 13, -12, -10, -1, 8, 969, 792, 45,z
2025-03-10 13:26:47.723,910, 1140, 587, -28, 0, 32, -9, -1, 9, 978, 871, 39,z
2025-03-10 13:26:47.782,706, 497, 471, 11, 6, 11, -9, 0, 8, 975, 879, 84,z
2025-03-10 13:26:47.836,636, 556, 289, -17, 21, -56, -10, -2, 8, 962, 784, 42,z
2025-03-10 13:26:47.890,759, 1113, 501, 67, -12, -4, -8, 0, 9, 971, 852, 77,z
2025-03-10 13:26:47.950,873, 415, 383, 27, 9, 19, -10, -1, 9, 974, 883, 302,z
2025-03-10 13:26:48.002,960, 395, 111, -17, 49, -45, -9, -2, 10, 953, 783, 335,z
2025-03-10 13:26:48.300,704, 537, 475, 1, -3, -17, -7, -1, 7, 918, 641, 100,0
2025-03-10 13:26:48.360,711, 525, 464, 2, -4, -18, -8, -3, 8, 918, 637, 88,0
2025-03-10 13:26:48.413,726, 542, 455, 6, -8, -19, -8, 0, 7, 917, 606, 110,0
2025-03-10 13:26:48.470,713, 582, 417, 14, -18, -29, -7, -4, 9, 927, 588, 145,0
2025-03-10 13:26:48.520,675, 597, 477, 24, -17, -33, -8, -2, 10, 929, 518, 165,0
2025-03-10 13:26:48.585,596, 773, 304, 25, -22, 9, -8, -5, 11, 933, 589, 523,0
2025-03-10 13:26:48.639,662, 622, 282, 1, -9, 16, -5, -6, 12, 943, 640, 568,0
2025-03-10 13:26:48.690,696, 641, 373, -9, 8, 21, -9, -3, 12, 949, 739, 635,0
2025-03-10 13:26:48.750,742, 540, 316, -14, 9, 17, -9, -3, 11, 957, 787, 639,0
2025-03-10 13:26:48.807,765, 578, 392, -14, 10, 3, -8, -3, 12, 957, 800, 636,0
2025-03-10 13:26:48.863,716, 577, 441, -5, -1, 6, -8, -2, 12, 959, 808, 650,0
2025-03-10 13:26:48.917,747, 554, 367, -8, 5, 3, -6, -3, 11, 958, 814, 657,0
2025-03-10 13:26:48.972,684, 571, 453, -8, 5, 2, -10, -1, 10, 960, 813, 641,0
2025-03-10 13:26:49.022,756, 559, 393, -1, -3, 5, -8, -3, 11, 959, 820, 655,0
2025-03-10 13:26:49.081,726, 561, 417, -6, 4, -1, -10, 1, 10, 961, 816, 640,0
2025-03-10 13:26:49.139,719, 569, 434, -5, -1, -6, -9, -3, 10, 960, 815, 623,0
2025-03-10 13:26:49.190,711, 560, 436, -2, -2, 0, -9, -2, 9, 958, 817, 621,0
2025-03-10 13:26:49.240,731, 567, 397, -4, -5, -6, -9, -2, 9, 961, 823, 607,0
2025-03-10 13:26:49.290,703, 577, 454, -4, 2, 1, -8, -3, 9, 960, 827, 604,0
2025-03-10 13:26:49.351,730, 567, 410, -3, 0, 3, -9, 0, 9, 960, 824, 594,0
2025-03-10 13:26:49.403,729, 553, 428, -2, -1, -1, -8, -2, 10, 962, 827, 590,0
2025-03-10 13:26:49.465,737, 550, 413, -6, -3, -3, -9, -1, 10, 962, 829, 572,0
2025-03-10 13:26:49.518,716, 571, 420, -4, -3, -2, -10, -2, 9, 962, 832, 570,0
2025-03-10 13:26:49.570,719, 552, 419, -4, 3, -3, -9, -2, 10, 962, 835, 570,0
2025-03-10 13:26:49.630,718, 576, 423, -3, -3, -2, -8, -2, 10, 964, 830, 547,0
2025-03-10 13:26:49.684,734, 560, 408, -3, -2, 0, -10, -2, 9, 961, 838, 557,0
2025-03-10 13:26:49.740,722, 552, 426, -1, 3, -2, -8, -1, 8, 961, 834, 557,0
2025-03-10 13:26:49.790,735, 565, 419, 2, 0, 3, -9, -1, 9, 962, 832, 548,0
2025-03-10 13:26:49.840,712, 561, 411, 2, 5, -2, -10, -1, 7, 961, 822, 544,0
2025-03-10 13:26:49.899,714, 551, 431, -2, -3, -2, -8, -2, 8, 959, 819, 541,0
2025-03-10 13:26:49.951,758, 558, 419, -6, -1, -2, -8, -3, 9, 960, 825, 542,0
2025-03-10 13:26:50.010,662, 581, 477, -1, -10, 4, -7, -1, 9, 962, 834, 541,0
2025-03-10 13:26:50.067,602, 798, 436, -15, -12, -13, -9, -2, 9, 964, 862, 395,0
2025-03-10 13:26:50.120,480, 480, 287, 53, 41, 6, -8, -2, 12, 969, 844, 224,0
2025-03-10 13:26:50.170,812, 503, 533, -28, 30, 49, -8, -1, 8, 972, 867, 70,0
2025-03-10 13:26:50.233,390, 568, 444, 6, -41, -39, -9, -1, 9, 966, 877, 293,0
2025-03-10 13:26:50.288,902, 450, 203, 6, 7, -25, -8, -2, 9, 931, 802, 498,0
2025-03-10 13:26:50.340,612, 627, 500, -9, 25, -26, -6, -1, 9, 920, 687, 298,0
2025-03-10 13:26:50.400,613, 571, 510, 14, -14, -6, -6, -3, 9, 917, 669, 270,0
2025-03-10 13:26:50.690,717, 571, 407, -6, -2, -1, -8, -2, 12, 944, 775, 322,1
2025-03-10 13:26:50.749,711, 573, 400, -6, -2, -2, -9, -2, 12, 947, 769, 303,1
2025-03-10 13:26:50.806,709, 581, 373, -12, -6, 1, -6, -3, 11, 950, 792, 250,1
2025-03-10 13:26:50.855,840, 596, 370, 4, -14, 2, -9, -2, 10, 962, 864, 252,1
2025-03-10 13:26:50.909,489, 564, 477, -1, 6, 5, -8, -1, 12, 969, 882, 346,1
2025-03-10 13:26:50.969,781, 735, 276, 33, 27, 20, -7, -1, 12, 973, 877, 283,1
2025-03-10 13:26:51.020,754, 441, 327, -4, 41, 18, -9, -2, 11, 972, 857, 187,1
2025-03-10 13:26:51.084,546, 468, 582, -4, 17, -35, -6, -4, 10, 959, 746, 250,1
2025-03-10 13:26:51.137,899, 451, 331, -22, -9, 2, -7, -2, 10, 970, 847, 42,1
2025-03-10 13:26:51.190,640, 622, 445, -3, 7, 28, -9, -2, 11, 973, 880, 202,1
2025-03-10 13:26:51.242,893, 397, 263, -14, 23, -31, -9, 1, 10, 958, 824, 367,1
2025-03-10 13:26:51.570,691, 555, 459, -9, -8, -5, -8, -1, 8, 924, 747, 259,2
2025-03-10 13:26:51.620,712, 552, 439, -8, -8, -4, -8, 1, 9, 922, 743, 256,2
2025-03-10 13:26:51.683,693, 557, 453, -12, -3, -5, -6, -2, 8, 922, 734, 124,2
2025-03-10 13:26:51.740,1388, -31, 282, -80, -23, -28, -8, -1, 9, 936, 775, 83,2
2025-03-10 13:26:51.800,1008, 578, 494, 49, -21, -4, -7, 0, 9, 958, 865, 67,2
2025-03-10 13:26:51.850,520, 608, 560, 21, 5, 17, -8, -2, 8, 971, 875, 263,2
2025-03-10 13:26:51.911,358, 618, 407, -5, 49, 22, -9, -2, 12, 970, 852, 153,2
2025-03-10 13:26:51.965,966, 325, 349, -32, 21, -2, -8, -1, 8, 966, 799, 81,2
2025-03-10 13:26:52.020,309, 790, 394, -36, -4, 26, -9, -1, 8, 978, 882, 30,2
2025-03-10 13:26:52.070,712, 542, 441, 17, 7, 9, -9, 0, 9, 972, 870, 182,2
2025-03-10 13:26:52.119,777, 496, 293, -46, 66, -54, -10, 1, 9, 936, 735, 150,2
2025-03-10 13:26:52.442,661, 528, 518, 0, -14, 1, -8, -1, 8, 909, 699, 58,3
2025-03-10 13:26:52.496,671, 539, 510, 4, -15, 2, -7, 1, 5, 911, 704, 55,3
2025-03-10 13:26:52.550,588, 552, 532, 10, -29, 4, -7, 0, 7, 917, 730, 56,3
2025-03-10 13:26:52.601,966, 528, 281, -37, -11, -3, -9, -1, 8, 947, 808, 49,3
2025-03-10 13:26:52.665,740, 444, 300, 24, -3, 21, -7, -1, 10, 969, 864, 177,3
2025-03-10 13:26:52.716,563, 657, 362, 5, 10, 11, -9, -3, 10, 969, 860, 188,3
2025-03-10 13:26:52.770,805, 366, 302, -3, 8, -11, -8, -1, 10, 969, 841, 34,3
2025-03-10 13:26:52.822,686, 502, 559, -7, 26, 21, -9, 0, 9, 972, 851, 79,3
2025-03-10 13:26:52.884,1001, 692, 166, -28, 27, 18, -8, -2, 12, 971, 784, 31,3
2025-03-10 13:26:52.934,1097, 424, 230, -2, 44, -43, -9, -2, 9, 918, 545, 37,3
2025-03-10 13:26:52.990,498, 586, 754, -14, 32, -31, -6, -1, 4, 893, 636, 85,3
2025-03-10 13:26:53.049,532, 565, 641, 9, -27, 12, -5, -1, 4, 884, 667, 68,3
2025-03-10 13:26:53.342,696, 549, 485, 3, -15, 4, -7, -1, 8, 880, 691, 53,4
2025-03-10 13:26:53.398,708, 532, 468, 3, -14, 4, -5, 1, 8, 882, 696, 54,4
2025-03-10 13:26:53.448,727, 543, 460, 2, -12, 4, -7, 0, 7, 894, 708, 58,4
2025-03-10 13:26:53.500,751, 539, 424, -6, -5, -2, -8, 0, 7, 901, 728, 63,4
2025-03-10 13:26:53.554,650, 536, 505, 3, -15, 1, -7, -2, 8, 916, 744, 36,4
2025-03-10 13:26:53.610,773, 594, 420, -24, -6, -6, -9, -1, 8, 940, 810, 76,4
2025-03-10 13:26:53.661,392, 512, 471, 4, 7, -5, -8, 0, 7, 961, 822, 53,4
2025-03-10 13:26:53.714,963, 553, 224, 9, 11, 9, -7, 0, 8, 966, 807, 64,4
2025-03-10 13:26:53.767,803, 755, 618, 8, -16, 30, -7, -3, 12, 973, 886, 78,4
2025-03-10 13:26:53.820,580, 530, 374, 6, 5, 8, -11, -2, 10, 974, 883, 324,4
2025-03-10 13:26:53.871,693, 473, 268, -16, 7, -46, -9, -3, 9, 953, 839, 432,4
2025-03-10 13:26:53.937,827, -445, 310, -14, -15, -16, -7, -4, 11, 966, 847, 326,4
2025-03-10 13:26:53.990,1037, 860, 81, -38, 40, 44, -10, -1, 9, 974, 842, 125,4
2025-03-10 13:26:54.049,765, 427, 624, 16, 1, -14, -8, -2, 10, 957, 709, 230,4
2025-03-10 13:26:54.101,609, 543, 681, -19, 30, -37, -8, -1, 7, 918, 691, 233,4
2025-03-10 13:26:54.392,710, 539, 436, -13, -3, -5, -9, -1, 7, 936, 751, 234,5
2025-03-10 13:26:54.455,708, 538, 439, -14, -2, -6, -6, 0, 10, 935, 753, 204,5
2025-03-10 13:26:54.511,652, 534, 498, -14, -14, -3, -8, -1, 8, 937, 751, 51,5
2025-03-10 13:26:54.560,833, 373, 343, 16, -9, -6, -7, 1, 9, 962, 834, 60,5
2025-03-10 13:26:54.617,604, 436, 411, 0, 6, 10, -7, -2, 10, 971, 865, 266,5
2025-03-10 13:26:54.671,750, 424, 603, 22, -11, -18, -10, -1, 11, 965, 851, 352,5
2025-03-10 13:26:54.729,984, 501, 263, 25, 5, 0, -9, -1, 11, 969, 837, 228,5
2025-03-10 13:26:54.785,628, 648, 384, -9, 33, 22, -9, -2, 10, 974, 858, 320,5
2025-03-10 13:26:54.833,750, 529, 525, -7, 13, 2, -9, -3, 12, 966, 812, 287,5
2025-03-10 13:26:54.890,1033, 420, 325, -4, 21, -27, -7, -3, 9, 919, 614, 208,5
2025-03-10 13:26:54.950,586, 618, 689, -18, 15, -21, -6, -2, 6, 913, 689, 200,5
2025-03-10 13:26:55.245,680, 547, 500, 0, -6, 6, -7, -1, 7, 949, 791, 283,6
2025-03-10 13:26:55.298,680, 564, 490, 3, -7, 7, -8, 3, 7, 953, 793, 284,6
2025-03-10 13:26:55.350,712, 539, 452, 2, -10, 8, -8, -2, 7, 954, 809, 307,6
2025-03-10 13:26:55.408,709, 518, 444, 4, -23, 7, -9, -2, 9, 957, 824, 348,6
2025-03-10 13:26:55.460,725, 544, 456, -10, -1, -5, -8, -1, 9, 962, 852, 239,6
2025-03-10 13:26:55.515,1271, 505, 600, 26, 14, -5, -9, -1, 9, 968, 851, 117,6
2025-03-10 13:26:55.570,608, 718, 113, 8, 29, 37, -6, -2, 11, 972, 846, 57,6
2025-03-10 13:26:55.630,700, 533, 607, -3, 1, 1, -10, -3, 11, 968, 865, 174,6
2025-03-10 13:26:55.683,851, 426, 342, 28, -19, -24, -7, -3, 9, 942, 830, 305,6
2025-03-10 13:26:55.740,969, 517, 124, -16, 46, -29, -10, -5, 12, 907, 776, 337,6
2025-03-10 13:26:55.800,529, 623, 620, -32, 43, -20, -6, -3, 6, 910, 710, 262,6
2025-03-10 13:26:55.859,561, 610, 585, 1, -12, 10, -4, -2, 6, 911, 707, 252,6
2025-03-10 13:26:56.144,682, 551, 483, -4, -6, -1, -5, -1, 8, 918, 747, 213,7
2025-03-10 13:26:56.201,678, 557, 481, -3, -7, -1, -7, 0, 7, 919, 748, 194,7
2025-03-10 13:26:56.251,676, 575, 465, -4, -20, 1, -6, -3, 7, 921, 753, 58,7
2025-03-10 13:26:56.310,875, 398, 186, 4, -3, -8, -6, -2, 11, 936, 798, 47,7
2025-03-10 13:26:56.367,854, 641, 479, 11, -2, 16, -10, -2, 9, 952, 850, 264,7
2025-03-10 13:26:56.420,561, 578, 510, 19, -2, 11, -9, -1, 9, 961, 858, 282,7
2025-03-10 13:26:56.470,742, 452, 441, 15, 27, 24, -9, -1, 10, 969, 851, 56,7
2025-03-10 13:26:56.534,873, 387, 431, -31, 16, -17, -9, -1, 11, 961, 809, 84,7
2025-03-10 13:26:56.584,378, 688, 947, 11, -51, 7, -6, -1, 8, 958, 790, 60,7
2025-03-10 13:26:56.640,791, 381, 166, 32, -10, 0, -7, -2, 10, 972, 877, 38,7
2025-03-10 13:26:56.699,715, 284, 447, 34, 8, 17, -9, -2, 11, 972, 870, 374,7
2025-03-10 13:26:56.750,751, 557, 306, -25, 56, -38, -9, -3, 7, 945, 802, 384,7
2025-03-10 13:26:56.809,533, 646, 657, -10, 8, -8, -7, -1, 8, 927, 718, 216,7
2025-03-10 13:26:57.125,776, 506, 355, -5, 0, -2, -9, -1, 9, 941, 799, 280,8
2025-03-10 13:26:57.181,724, 567, 394, -7, 1, -2, -7, -3, 12, 944, 801, 260,8
2025-03-10 13:26:57.234,669, 505, 475, -6, -3, -10, -9, 0, 9, 946, 830, 272,8
2025-03-10 13:26:57.282,868, 368, 544, 1, 2, -7, -7, -2, 11, 958, 814, 46,8
2025-03-10 13:26:57.346,855, 553, 373, -15, 28, 42, -8, -1, 10, 969, 848, 116,8
2025-03-10 13:26:57.400,811, 424, 709, 8, -24, -30, -9, -1, 9, 966, 884, 296,8
2025-03-10 13:26:57.460,933, 469, 357, -19, -45, -44, -8, -1, 9, 954, 892, 426,8
2025-03-10 13:26:57.513,659, 713, 340, -12, 8, 19, -9, 0, 8, 972, 897, 482,8
2025-03-10 13:26:57.570,764, 673, 335, -10, 26, 28, -9, -1, 9, 973, 889, 296,8
2025-03-10 13:26:57.620,903, 371, 431, -3, 16, -10, -8, -1, 8, 951, 825, 276,8
2025-03-10 13:26:57.930,703, 532, 490, -2, -4, 0, -6, -1, 8, 931, 751, 114,9
2025-03-10 13:26:57.982,701, 532, 482, 1, -5, 2, -9, 0, 7, 931, 757, 137,9
2025-03-10 13:26:58.040,737, 526, 445, 9, -5, 5, -8, 1, 8, 932, 783, 206,9
2025-03-10 13:26:58.095,725, 524, 447, 3, -4, 2, -8, 0, 8, 933, 799, 277,9
2025-03-10 13:26:58.148,708, 526, 465, -1, -15, 1, -8, -1, 9, 935, 816, 257,9
2025-03-10 13:26:58.200,745, 532, 454, -11, -5, -12, -9, -2, 9, 942, 837, 63,9
2025-03-10 13:26:58.250,824, 517, 409, 10, 4, -4, -9, 0, 8, 957, 851, 57,9
2025-03-10 13:26:58.313,791, 471, 381, -16, 27, 39, -9, 0, 9, 970, 868, 74,9
2025-03-10 13:26:58.370,713, 415, 634, 10, -14, -15, -8, -3, 6, 963, 867, 206,9
2025-03-10 13:26:58.420,753, 473, 563, 21, -10, -5, -10, -1, 9, 956, 857, 292,9
2025-03-10 13:26:58.480,543, 656, 399, -9, 31, 36, -9, -2, 8, 969, 848, 82,9
2025-03-10 13:26:58.534,785, 325, 380, -35, 20, -2, -9, 1, 9, 953, 691, 59,9
2025-03-10 13:26:58.583,792, 534, 399, -20, 37, -49, -6, 0, 5, 841, 577, 80,9
2025-03-10 13:26:58.935,695, 560, 506, -6, 0, -3, -6, 0, 6, 848, 674, 71,+
2025-03-10 13:26:58.982,696, 555, 506, -6, 0, -2, -5, 0, 5, 848, 668, 42,+
2025-03-10 13:26:59.040,709, 538, 483, 0, -2, -1, -7, -1, 7, 853, 669, 29,+
2025-03-10 13:26:59.094,704, 511, 455, -4, 1, -2, -7, -1, 8, 861, 679, 83,+
2025-03-10 13:26:59.139,704, 558, 498, 1, -2, 0, -7, -1, 6, 866, 696, 68,+
2025-03-10 13:26:59.197,711, 554, 482, -3, 1, -2, -7, 1, 6, 869, 699, 50,+
2025-03-10 13:26:59.250,715, 567, 492, -3, -3, 0, -7, -2, 6, 873, 714, 77,+
2025-03-10 13:26:59.300,706, 540, 475, -3, -2, -2, -4, -1, 6, 874, 716, 69,+
2025-03-10 13:26:59.350,700, 530, 485, -5, -2, -3, -5, -2, 7, 873, 708, 66,+
2025-03-10 13:26:59.410,705, 557, 471, -6, -1, -2, -6, -1, 7, 880, 718, 53,+
2025-03-10 13:26:59.464,700, 550, 484, -2, -2, -1, -6, 0, 6, 886, 720, 62,+
2025-03-10 13:26:59.520,699, 550, 478, -4, -4, -4, -7, -1, 8, 892, 737, 86,+
2025-03-10 13:26:59.570,704, 545, 483, -5, 0, -2, -7, 0, 6, 894, 723, 79,+
2025-03-10 13:26:59.619,729, 549, 459, -2, -3, 0, -7, 0, 7, 895, 729, 62,+
2025-03-10 13:26:59.670,680, 541, 514, 0, -3, 1, -6, -1, 6, 902, 747, 55,+
2025-03-10 13:26:59.729,709, 536, 455, -1, -3, -1, -6, 0, 7, 903, 757, 133,+
2025-03-10 13:26:59.782,670, 558, 494, -3, -13, -1, -8, -1, 6, 903, 773, 211,+
2025-03-10 13:26:59.840,915, 462, 315, 6, -14, -4, -8, 0, 7, 918, 813, 244,+
2025-03-10 13:26:59.887,733, 561, 401, -5, 3, 0, -7, 0, 8, 924, 819, 228,+
2025-03-10 13:26:59.947,722, 538, 413, -3, -2, -1, -7, -1, 9, 931, 833, 174,+
2025-03-10 13:27:00.000,722, 484, 533, -3, -3, -4, -9, -1, 8, 942, 845, 114,+
2025-03-10 13:27:00.050,704, 839, 359, 29, 38, 50, -9, 0, 9, 969, 853, 81,+
2025-03-10 13:27:00.110,888, 635, 159, -12, 24, 23, -9, -1, 8, 971, 823, 46,+
2025-03-10 13:27:00.164,659, 321, 573, 6, -23, -57, -7, 0, 7, 949, 718, 77,+
2025-03-10 13:27:00.216,805, 596, 480, 29, -16, -16, -9, 2, 7, 958, 811, 50,+
2025-03-10 13:27:00.270,901, 372, 252, -11, 1, 35, -9, 0, 8, 975, 879, 81,+
2025-03-10 13:27:00.319,668, 442, 497, 24, 4, 1, -8, -3, 7, 966, 838, 284,+
2025-03-10 13:27:00.381,660, 521, 411, -36, 49, -49, -8, 0, 8, 917, 696, 183,+
2025-03-10 13:27:00.679,707, 550, 446, -3, -1, -1, -8, -2, 10, 932, 774, 283,-
2025-03-10 13:27:00.732,712, 551, 444, -3, -1, -1, -9, 1, 8, 934, 774, 288,-
2025-03-10 13:27:00.781,726, 551, 436, 0, -1, 1, -10, -4, 12, 933, 777, 264,-
2025-03-10 13:27:00.840,731, 563, 446, -4, 0, 1, -7, -1, 9, 934, 785, 290,-
2025-03-10 13:27:00.890,723, 542, 431, 0, 0, 2, -7, 0, 8, 940, 783, 263,-
2025-03-10 13:27:00.946,701, 541, 450, -4, 2, 0, -6, -1, 8, 942, 776, 260,-
2025-03-10 13:27:00.997,685, 553, 456, 1, 0, 3, -8, -1, 8, 943, 761, 233,-
2025-03-10 13:27:01.050,814, 473, 494, -25, -8, -13, -6, 1, 6, 960, 799, 33,-
2025-03-10 13:27:01.103,751, 780, 204, -3, -9, 50, -8, -1, 10, 977, 880, 73,-
2025-03-10 13:27:01.159,666, 420, 427, 15, 4, 6, -10, 0, 9, 976, 882, 274,-
2025-03-10 13:27:01.214,746, 384, 427, 9, 11, -25, -10, -1, 9, 947, 812, 371,-
2025-03-10 13:27:01.270,666, 563, 621, -15, 23, -21, -7, -1, 9, 913, 714, 240,-
2025-03-10 13:27:01.605,714, 556, 461, -2, -1, 2, -8, -2, 8, 922, 743, 227,÷
2025-03-10 13:27:01.660,716, 545, 458, -2, -2, 1, -7, 0, 9, 923, 747, 222,÷
2025-03-10 13:27:01.717,729, 561, 437, -3, 0, -1, -8, -3, 9, 925, 762, 302,÷
2025-03-10 13:27:01.770,717, 548, 458, -4, -1, 2, -8, -2, 9, 927, 778, 308,÷
2025-03-10 13:27:01.820,743, 541, 433, -9, 0, 1, -7, -3, 9, 931, 801, 421,÷
2025-03-10 13:27:01.870,725, 525, 456, -7, -2, -3, -9, 0, 6, 935, 811, 524,÷
2025-03-10 13:27:01.930,712, 544, 475, -12, 0, 0, -8, -2, 6, 936, 822, 602,÷
2025-03-10 13:27:01.983,737, 541, 417, 3, -4, -2, -9, 0, 6, 938, 830, 565,÷
2025-03-10 13:27:02.036,679, 549, 496, 2, -1, -3, -8, 0, 8, 938, 832, 469,÷
2025-03-10 13:27:02.090,762, 521, 408, -1, -2, -3, -10, 1, 7, 939, 834, 437,÷
2025-03-10 13:27:02.140,700, 555, 478, -3, 3, -2, -7, 0, 7, 941, 838, 424,÷
2025-03-10 13:27:02.196,720, 537, 448, 8, -3, 0, -6, 0, 7, 941, 834, 409,÷
2025-03-10 13:27:02.245,738, 548, 422, 1, 2, 0, -7, 0, 9, 943, 837, 467,÷
2025-03-10 13:27:02.300,559, 592, 603, 10, -30, 15, -7, -3, 9, 951, 847, 483,÷
2025-03-10 13:27:02.360,727, 475, 507, -9, -8, -8, -7, -1, 8, 963, 873, 305,÷
2025-03-10 13:27:02.417,607, 413, 281, -20, 26, 31, -8, -1, 12, 977, 881, 206,÷
2025-03-10 13:27:02.466,703, 423, 566, -2, 0, 4, -9, 0, 8, 971, 879, 245,÷
2025-03-10 13:27:02.518,811, 534, 350, 7, 70, -1, -9, 3, 6, 965, 829, 301,÷
2025-03-10 13:27:02.570,431, 703, 751, 44, -48, 56, -7, -2, 7, 968, 806, 57,÷
2025-03-10 13:27:02.629,771, 460, 422, -32, 16, 13, -10, 0, 9, 972, 856, 53,÷
2025-03-10 13:27:02.683,824, 476, 337, 3, 1, -27, -8, -1, 8, 955, 815, 82,÷
2025-03-10 13:27:02.732,572, 455, 646, -3, -14, -21, -8, 0, 7, 949, 798, 48,÷
2025-03-10 13:27:02.790,503, 591, 651, 13, -54, 13, -8, -1, 7, 951, 812, 136,÷
2025-03-10 13:27:02.850,867, 367, 435, 41, -10, -10, -8, -1, 8, 972, 870, 64,÷
2025-03-10 13:27:02.900,196, 566, 535, -18, 1, 23, -10, 0, 6, 977, 885, 58,÷
2025-03-10 13:27:02.960,979, 284, 145, 1, 42, -27, -9, -3, 10, 958, 836, 408,÷
2025-03-10 13:27:03.014,695, 514, 693, -38, 79, -63, -6, -2, 5, 842, 609, 79,÷
2025-03-10 13:27:03.330,610, 780, 119, 6, -17, 3, -4, -5, 18, 875, 487, 392,=
2025-03-10 13:27:03.380,631, 795, 117, -1, -8, 9, -4, -6, 18, 881, 514, 401,=
2025-03-10 13:27:03.445,574, 667, 370, -6, 10, 40, -6, -3, 18, 891, 569, 351,=
2025-03-10 13:27:03.500,695, 655, 312, -5, 15, 43, -7, -4, 17, 884, 611, 300,=
2025-03-10 13:27:03.550,739, 637, 297, -6, 16, 24, -9, -6, 17, 851, 597, 207,=
2025-03-10 13:27:03.612,760, 631, 211, -8, 4, -2, -9, -5, 18, 833, 563, 123,=
2025-03-10 13:27:03.664,707, 594, 357, -11, 7, 10, -9, -3, 17, 745, 538, 47,=
2025-03-10 13:27:03.720,725, 617, 266, -2, 16, 8, -8, -4, 17, 679, 525, 50,=
2025-03-10 13:27:03.781,718, 576, 271, -19, 16, -4, -10, -2, 14, 702, 574, 39,=
2025-03-10 13:27:03.834,700, 605, 321, -33, 19, -12, -8, -3, 14, 772, 648, 42,=
2025-03-10 13:27:03.890,628, 576, 400, -47, 20, 2, -7, -4, 13, 868, 701, 56,=
2025-03-10 13:27:03.948,805, 641, 493, -3, -17, 11, -8, -2, 11, 898, 743, 263,=
2025-03-10 13:27:03.999,662, 585, 473, 1, -19, 7, -8, -1, 12, 917, 792, 354,=
2025-03-10 13:27:04.059,785, 575, 305, -8, 1, -1, -6, -2, 11, 920, 798, 374,=
2025-03-10 13:27:04.112,626, 607, 515, 1, -7, 9, -8, -3, 12, 932, 816, 384,=
2025-03-10 13:27:04.170,901, 689, 368, 23, -13, 9, -6, -3, 13, 962, 866, 274,=
2025-03-10 13:27:04.223,677, 696, 358, 3, 12, 26, -8, -1, 13, 968, 876, 481,=
2025-03-10 13:27:04.280,741, 495, 301, 0, 67, -26, -9, -2, 13, 952, 815, 508,=
2025-03-10 13:27:04.331,1027, 131, -27, 57, -13, -26, -7, -2, 11, 957, 795, 198,=
2025-03-10 13:27:04.395,718, 700, 300, 7, -2, 37, -6, -3, 14, 972, 879, 376,=
2025-03-10 13:27:04.448,724, 500, 440, 16, 20, 9, -8, -3, 12, 959, 828, 562,=
2025-03-10 13:27:04.500,597, 522, 505, -56, 60, -63, -9, -1, 9, 913, 693, 375,=
2025-03-10 13:27:04.840,698, 576, 452, -5, -3, 3, -5, -2, 9, 917, 752, 435,≠
2025-03-10 13:27:04.900,706, 565, 451, -5, -4, 3, -6, -2, 9, 918, 752, 416,≠
2025-03-10 13:27:04.953,716, 590, 396, -6, -4, -3, -6, -3, 12, 920, 770, 426,≠
2025-03-10 13:27:05.010,579, 603, 564, -11, -19, -2, -4, 1, 9, 927, 797, 320,≠
2025-03-10 13:27:05.067,843, 310, 359, -7, -21, -7, -7, -1, 12, 964, 882, 64,≠
2025-03-10 13:27:05.120,748, 425, 208, -2, 16, 37, -7, -4, 12, 973, 887, 464,≠
2025-03-10 13:27:05.178,513, 567, 458, 18, 27, 5, -7, -5, 13, 964, 856, 584,≠
2025-03-10 13:27:05.232,609, 651, 569, -11, 6, -19, -8, -3, 13, 942, 732, 283,≠
2025-03-10 13:27:05.290,979, 697, 404, -6, -24, -1, -6, -2, 13, 967, 871, 159,≠
2025-03-10 13:27:05.350,662, 428, 316, 18, 7, 29, -9, -2, 11, 969, 868, 565,≠
2025-03-10 13:27:05.400,344, 598, 683, -50, 7, -55, -8, -1, 11, 949, 853, 560,≠
2025-03-10 13:27:05.463,1013, 169, 331, 32, -26, -15, -9, 1, 8, 970, 874, 547,≠
2025-03-10 13:27:05.517,1270, 465, 374, 24, 35, 22, -8, -2, 12, 975, 854, 253,≠
2025-03-10 13:27:05.570,839, 590, 343, 47, 31, -1, -7, -2, 12, 950, 732, 320,≠
2025-03-10 13:27:05.632,656, 520, 432, -50, 52, -56, -5, -3, 11, 906, 739, 326,≠
2025-03-10 13:27:05.966,531, 715, 427, 8, 5, 59, -4, -2, 9, 933, 682, 226,≈
2025-03-10 13:27:06.020,562, 684, 476, 10, 4, 60, -5, 2, 7, 935, 688, 246,≈
2025-03-10 13:27:06.070,744, 595, 393, 20, -1, 41, -4, -1, 9, 937, 731, 253,≈
2025-03-10 13:27:06.128,763, 582, 414, 5, 0, 19, -8, -3, 9, 941, 744, 265,≈
2025-03-10 13:27:06.181,755, 578, 405, -8, 0, 1, -6, -3, 10, 941, 762, 265,≈
2025-03-10 13:27:06.230,712, 574, 450, -4, -3, -1, -8, -3, 12, 940, 768, 204,≈
2025-03-10 13:27:06.291,699, 596, 423, -4, 0, 0, -6, -2, 9, 943, 764, 173,≈
2025-03-10 13:27:06.347,693, 587, 430, -3, -2, -1, -7, -2, 10, 939, 776, 199,≈
2025-03-10 13:27:06.400,698, 590, 405, 0, 2, -1, -5, -2, 10, 936, 749, 65,≈
2025-03-10 13:27:06.450,643, 583, 501, 5, -10, 12, -5, -1, 11, 938, 736, 60,≈
2025-03-10 13:27:06.512,739, 720, 333, -21, -2, -5, -7, -3, 13, 949, 785, 66,≈
2025-03-10 13:27:06.570,824, 631, 534, 5, -12, 10, -8, -4, 11, 959, 849, 182,≈
2025-03-10 13:27:06.620,677, 447, 370, 8, 1, 15, -9, -3, 12, 971, 861, 359,≈
2025-03-10 13:27:06.670,701, 637, 401, 1, 21, 20, -10, -2, 13, 968, 848, 403,≈
2025-03-10 13:27:06.731,482, 546, 554, -10, 47, -20, -6, -2, 11, 952, 714, 169,≈
2025-03-10 13:27:06.795,1614, 399, 230, -50, -18, -13, -7, -3, 12, 949, 714, 45,≈
2025-03-10 13:27:06.850,645, 574, 376, -14, -13, 3, -7, -3, 12, 967, 849, 181,≈
2025-03-10 13:27:06.910,714, 869, 272, -8, 13, 20, -7, -3, 12, 972, 851, 230,≈
2025-03-10 13:27:06.963,840, 603, 413, 7, 17, 14, -9, -3, 11, 970, 839, 340,≈
2025-03-10 13:27:07.020,705, 518, 504, -1, -3, -1, -10, 0, 9, 966, 830, 364,≈
2025-03-10 13:27:07.070,787, 537, 377, -5, -2, -6, -8, -1, 11, 964, 826, 377,≈
2025-03-10 13:27:07.129,764, 551, 364, -20, 19, -20, -8, -2, 10, 956, 803, 317,≈
2025-03-10 13:27:07.191,581, 592, 586, -18, 22, -12, -8, -2, 8, 946, 727, 184,≈
2025-03-10 13:27:07.240,713, 565, 432, 2, -7, 2, -7, -3, 9, 935, 706, 190,≈
2025-03-10 13:27:07.296,725, 527, 403, -4, -2, -6, -6, -3, 9, 933, 721, 202,≈
2025-03-10 13:27:07.350,704, 546, 427, -8, 0, -6, -6, -1, 9, 929, 724, 106,≈
2025-03-10 13:27:07.680,601, 647, 530, -3, -12, -31, -2, -2, 6, 898, 530, 62,<
2025-03-10 13:27:07.745,592, 633, 510, -2, -14, -30, -6, -2, 6, 898, 540, 83,<
2025-03-10 13:27:07.796,552, 698, 441, 6, -4, 4, -3, -2, 8, 902, 525, 36,<
2025-03-10 13:27:07.850,593, 681, 381, 8, -3, 29, -3, -3, 7, 908, 564, 71,<
2025-03-10 13:27:07.900,627, 632, 498, 7, 6, 37, -5, -1, 9, 916, 620, 110,<
2025-03-10 13:27:07.957,710, 571, 464, 11, -10, 34, -8, -2, 11, 924, 651, 51,<
2025-03-10 13:27:08.011,747, 561, 403, 6, -9, 17, -7, -1, 11, 930, 675, 63,<
2025-03-10 13:27:08.065,761, 562, 369, -8, 0, 6, -8, -2, 10, 935, 687, 56,<
2025-03-10 13:27:08.116,684, 575, 448, -6, 1, 2, -7, -2, 11, 939, 707, 83,<
2025-03-10 13:27:08.170,732, 575, 451, -9, -8, 5, -6, 0, 9, 941, 721, 141,<
2025-03-10 13:27:08.228,736, 558, 354, -9, -10, 7, -9, -2, 11, 946, 768, 270,<
2025-03-10 13:27:08.281,624, 479, 581, -13, -45, 11, -8, -1, 9, 955, 816, 267,<
2025-03-10 13:27:08.339,709, 464, 372, -11, -15, -7, -10, 1, 11, 970, 852, 59,<
2025-03-10 13:27:08.396,965, 395, 487, 2, 27, 9, -9, -1, 11, 971, 836, 51,<
2025-03-10 13:27:08.450,916, 525, 176, 19, 16, 9, -9, -1, 12, 974, 844, 58,<
2025-03-10 13:27:08.500,334, 312, 433, -5, 15, 25, -10, 0, 10, 978, 873, 58,<
2025-03-10 13:27:08.560,788, 404, 474, 12, 10, -14, -11, 0, 9, 958, 812, 76,<
2025-03-10 13:27:08.870,743, 547, 411, 1, -9, 5, -9, -2, 8, 944, 792, 274,≤
2025-03-10 13:27:08.930,741, 539, 405, 0, -7, 5, -10, 0, 9, 944, 792, 277,≤
2025-03-10 13:27:08.985,740, 541, 456, -2, -8, 3, -10, -1, 10, 949, 810, 304,≤
2025-03-10 13:27:09.040,720, 556, 438, 2, -6, 7, -8, 0, 10, 954, 826, 403,≤
2025-03-10 13:27:09.090,744, 504, 409, -17, -2, -2, -10, -1, 8, 964, 850, 274,≤
2025-03-10 13:27:09.151,715, 458, 574, 17, 3, -4, -11, -1, 10, 969, 861, 59,≤
2025-03-10 13:27:09.201,963, 525, 210, -25, 5, 2, -9, -2, 11, 972, 846, 63,≤
2025-03-10 13:27:09.252,811, 644, 336, -17, 15, 53, -9, 0, 8, 979, 882, 60,≤
2025-03-10 13:27:09.314,702, 384, 532, 32, 2, 11, -10, 0, 8, 978, 878, 128,≤
2025-03-10 13:27:09.367,687, 496, 421, 26, 31, -23, -10, -2, 12, 962, 764, 61,≤
2025-03-10 13:27:09.420,839, 562, 261, 27, -4, -4, -9, 0, 9, 972, 810, 63,≤
2025-03-10 13:27:09.477,655, 446, 494, -2, 1, 27, -10, 0, 11, 980, 879, 56,≤
2025-03-10 13:27:09.530,736, 497, 405, 20, 10, 1, -11, -2, 8, 966, 827, 248,≤
2025-03-10 13:27:09.582,738, 463, 400, -72, 67, -61, -9, -2, 9, 921, 604, 76,≤
2025-03-10 13:27:09.900,721, 546, 429, -3, -4, -2, -7, -2, 10, 944, 800, 462,>
2025-03-10 13:27:09.950,718, 549, 417, -3, -3, -2, -9, 1, 13, 942, 800, 461,>
2025-03-10 13:27:10.006,729, 536, 403, -6, -1, 0, -8, -1, 11, 944, 802, 456,>
2025-03-10 13:27:10.060,693, 552, 425, 0, -6, 2, -7, 0, 10, 948, 807, 444,>
2025-03-10 13:27:10.115,810, 709, 489, 8, -7, -11, -9, -2, 10, 957, 843, 377,>
2025-03-10 13:27:10.171,866, 608, 297, 20, -16, 13, -9, -1, 10, 974, 864, 377,>
2025-03-10 13:27:10.230,672, 596, 583, 11, 5, 13, -10, -1, 11, 976, 873, 491,>
2025-03-10 13:27:10.279,1305, 681, 415, 13, 25, 5, -10, -2, 11, 975, 872, 96,>
2025-03-10 13:27:10.340,854, 630, 246, 17, 26, 1, -9, -3, 12, 966, 822, 75,>
2025-03-10 13:27:10.400,706, 545, 330, -47, 53, -47, -9, 0, 10, 951, 784, 235,>
2025-03-10 13:27:10.450,493, 614, 748, 2, -14, -10, -6, -3, 5, 947, 789, 256,>
2025-03-10 13:27:10.740,728, 558, 412, 0, -3, 0, -8, -2, 9, 945, 802, 466,≥
2025-03-10 13:27:10.794,746, 557, 380, -1, -2, -1, -7, -2, 13, 943, 804, 459,≥
2025-03-10 13:27:10.850,715, 560, 414, -5, 0, -1, -6, -2, 10, 943, 802, 449,≥
2025-03-10 13:27:10.900,734, 546, 392, -4, 0, -2, -7, -1, 11, 943, 798, 441,≥
2025-03-10 13:27:10.961,732, 553, 391, -6, 1, -3, -7, -1, 10, 942, 793, 441,≥
2025-03-10 13:27:11.015,712, 576, 436, -3, -5, -3, -8, -1, 9, 941, 793, 422,≥
2025-03-10 13:27:11.067,588, 560, 633, 4, -41, 8, -8, -2, 9, 945, 808, 328,≥
2025-03-10 13:27:11.129,1021, 368, 416, 22, -19, -4, -8, -2, 12, 967, 851, 285,≥
2025-03-10 13:27:11.180,630, 460, 466, 6, 6, 13, -10, 0, 10, 976, 865, 457,≥
2025-03-10 13:27:11.231,911, 535, 330, 11, 25, 6, -9, -4, 11, 975, 864, 294,≥
2025-03-10 13:27:11.282,958, 680, 185, 9, 30, -2, -8, 1, 11, 968, 817, 210,≥
2025-03-10 13:27:11.350,656, 508, 462, -14, 66, -23, -9, -2, 11, 959, 741, 169,≥
2025-03-10 13:27:11.400,815, -119, -22, -200, -23, -16, -8, -2, 11, 966, 784, 83,≥
2025-03-10 13:27:11.464,774, 588, 215, -15, -12, 39, -10, -2, 12, 974, 872, 247,≥
2025-03-10 13:27:11.520,704, 526, 414, 16, 4, -3, -10, -3, 11, 967, 839, 417,≥
2025-03-10 13:27:11.582,701, 503, 308, -62, 83, -82, -8, -4, 11, 847, 562, 141,≥
2025-03-10 13:27:11.630,495, 723, 821, -2, 2, -25, -4, -2, 5, 670, 118, 58,≥
2025-03-10 13:27:11.930,542, 745, 393, -11, -23, -25, -1, -2, 10, 619, 58, 64,±
2025-03-10 13:27:11.993,510, 723, 406, -10, -24, -24, -4, -1, 13, 625, 67, 69,±
2025-03-10 13:27:12.048,550, 780, 405, 16, -18, 13, -3, -4, 11, 557, 64, 64,±
2025-03-10 13:27:12.100,582, 804, 229, -3, -8, 40, -3, -4, 14, 541, 51, 49,±
2025-03-10 13:27:12.156,551, 677, 234, -15, -1, 64, -6, -4, 14, 702, 308, 77,±
2025-03-10 13:27:12.214,717, 506, 385, -22, 16, 59, -9, -2, 11, 751, 476, 58,±
2025-03-10 13:27:12.270,747, 587, 442, -13, 15, 27, -7, -2, 11, 844, 586, 41,±
2025-03-10 13:27:12.319,733, 607, 275, -44, 22, 5, -7, -1, 10, 896, 671, 78,±
2025-03-10 13:27:12.377,711, 583, 532, 1, -4, 12, -9, 0, 9, 919, 757, 84,±
2025-03-10 13:27:12.430,733, 543, 457, 11, -9, 15, -9, -1, 9, 931, 786, 53,±
2025-03-10 13:27:12.480,730, 540, 392, -3, 3, -3, -9, -1, 11, 934, 795, 40,±
2025-03-10 13:27:12.535,724, 559, 424, -4, 5, -1, -9, 0, 9, 933, 820, 157,±
2025-03-10 13:27:12.594,641, 538, 476, 5, -11, -1, -8, -1, 10, 936, 820, 50,±
2025-03-10 13:27:12.646,745, 744, 468, -26, -10, -9, -7, -3, 9, 952, 851, 84,±
2025-03-10 13:27:12.700,697, 942, 34, 13, -9, 35, -9, -1, 12, 975, 902, 101,±
2025-03-10 13:27:12.756,681, 639, 481, 15, 16, 9, -11, 3, 10, 972, 900, 437,±
2025-03-10 13:27:12.813,587, 607, 398, -34, 3, -46, -9, -2, 10, 958, 874, 427,±
2025-03-10 13:27:12.870,822, 853, 483, -9, -13, 5, -8, -1, 10, 971, 888, 345,±
2025-03-10 13:27:12.926,505, 372, 420, 0, 39, 27, -7, -2, 11, 975, 886, 245,±
2025-03-10 13:27:12.980,754, 427, 404, -2, 30, -8, -10, -1, 9, 957, 762, 110,±
2025-03-10 13:27:13.040,1616, 86, 482, -40, -23, -23, -7, -2, 11, 956, 796, 71,±
2025-03-10 13:27:13.095,695, 711, 292, -7, -3, 38, -9, -2, 11, 974, 898, 202,±
2025-03-10 13:27:13.150,702, 478, 566, 10, 14, 12, -9, -1, 11, 968, 881, 454,±
2025-03-10 13:27:13.212,645, 504, 457, -53, 62, -51, -7, -3, 8, 929, 762, 236,±
2025-03-10 13:27:13.531,689, 562, 464, -7, -6, -6, -9, 3, 6, 897, 709, 50,∓
2025-03-10 13:27:13.580,697, 562, 466, -8, -6, -6, -9, 3, 6, 897, 716, 50,∓
2025-03-10 13:27:13.640,692, 570, 478, -7, -5, -9, -7, -2, 6, 900, 711, 48,∓
2025-03-10 13:27:13.693,669, 549, 495, -7, -18, -1, -7, -1, 8, 910, 725, 84,∓
2025-03-10 13:27:13.750,753, 705, 485, -7, -12, -16, -6, 2, 8, 936, 762, 28,∓
2025-03-10 13:27:13.800,657, 917, 353, 27, -40, 32, -7, -1, 9, 971, 890, 68,∓
2025-03-10 13:27:13.850,399, 344, 187, 11, 4, 13, -9, 0, 10, 975, 903, 419,∓
2025-03-10 13:27:13.914,641, 553, 237, 37, 10, -7, -10, -1, 9, 955, 859, 472,∓
2025-03-10 13:27:13.970,651, 551, 453, -1, 51, -27, -8, -1, 11, 927, 657, 80,∓
2025-03-10 13:27:14.028,889, 586, 280, 49, -16, -17, -6, -2, 11, 953, 813, 82,∓
2025-03-10 13:27:14.080,682, 334, 453, -7, 2, 24, -6, -2, 11, 975, 893, 355,∓
2025-03-10 13:27:14.133,681, 591, 378, 7, 6, 0, -9, -2, 12, 958, 867, 454,∓
2025-03-10 13:27:14.193,566, 671, 741, -4, -3, -12, -8, -3, 11, 937, 806, 376,∓
2025-03-10 13:27:14.246,750, 708, 236, 8, 4, 17, -8, -1, 11, 972, 866, 225,∓
2025-03-10 13:27:14.300,739, 502, 150, -11, 40, 26, -8, 0, 12, 967, 803, 186,∓
2025-03-10 13:27:14.360,842, 504, 107, -28, 66, -56, -9, -1, 7, 901, 612, 182,∓
2025-03-10 13:27:14.664,659, 594, 496, 7, -13, 5, -5, 0, 8, 855, 506, 77,∞
2025-03-10 13:27:14.711,678, 580, 480, 6, -16, 5, -6, 2, 9, 856, 519, 81,∞
2025-03-10 13:27:14.770,720, 562, 448, 23, -14, -5, -6, -3, 8, 854, 593, 65,∞
2025-03-10 13:27:14.827,721, 559, 464, 48, -32, -29, -7, 0, 10, 843, 597, 50,∞
2025-03-10 13:27:14.880,647, 706, 299, 25, -11, -20, -7, -3, 14, 852, 625, 149,∞
2025-03-10 13:27:14.940,712, 666, 284, -6, 1, 7, -7, -2, 15, 878, 691, 282,∞
2025-03-10 13:27:14.995,651, 656, 430, -10, 4, 17, -6, -2, 13, 897, 730, 258,∞
2025-03-10 13:27:15.050,752, 587, 361, -8, 0, 13, -5, -3, 15, 906, 738, 186,∞
2025-03-10 13:27:15.106,722, 606, 368, -16, 6, -1, -6, -3, 14, 911, 748, 196,∞
2025-03-10 13:27:15.162,688, 603, 415, -12, 4, 0, -7, -2, 11, 913, 747, 132,∞
2025-03-10 13:27:15.212,708, 609, 370, -8, 2, -1, -5, -2, 11, 911, 741, 39,∞
2025-03-10 13:27:15.269,690, 593, 408, -14, 6, 1, -7, -2, 11, 915, 745, 58,∞
2025-03-10 13:27:15.320,708, 597, 452, -2, -5, 3, -9, -2, 11, 919, 767, 37,∞
2025-03-10 13:27:15.380,694, 619, 402, -13, -6, -1, -7, 0, 10, 920, 791, 147,∞
2025-03-10 13:27:15.429,730, 583, 410, -5, -19, 13, -5, -2, 10, 931, 826, 284,∞
2025-03-10 13:27:15.490,633, 755, 397, 21, 1, 1, -9, 1, 10, 956, 849, 204,∞
2025-03-10 13:27:15.545,520, 858, 205, -18, 40, 27, -6, -3, 12, 969, 859, 57,∞
2025-03-10 13:27:15.601,787, 369, 467, -16, 9, -23, -6, -2, 11, 961, 844, 71,∞
2025-03-10 13:27:15.659,902, 494, 457, 23, -25, -12, -6, -2, 10, 967, 878, 58,∞
2025-03-10 13:27:15.711,657, 608, 272, 3, 2, 24, -8, -2, 11, 976, 890, 71,∞
2025-03-10 13:27:15.763,609, 596, 601, -19, -8, -1, -7, -1, 11, 974, 890, 232,∞
2025-03-10 13:27:15.827,808, 537, 408, -10, -6, -17, -8, 0, 11, 968, 875, 96,∞
2025-03-10 13:27:15.879,452, 668, 229, -15, 40, 19, -8, 1, 11, 973, 846, 85,∞
2025-03-10 13:27:15.930,823, 540, 302, 9, 35, 10, -8, 0, 11, 956, 677, 74,∞
2025-03-10 13:27:15.990,789, 529, 252, -33, 77, -52, -7, 0, 9, 857, 643, 78,∞
2025-03-10 13:27:16.302,654, 589, 493, 3, -7, 6, -5, -1, 8, 750, 604, 71,∑
2025-03-10 13:27:16.350,657, 574, 486, 3, -8, 6, -4, 0, 7, 770, 616, 88,∑
2025-03-10 13:27:16.409,722, 575, 436, -1, -5, 4, -6, -3, 7, 820, 645, 91,∑
2025-03-10 13:27:16.462,706, 581, 432, -6, -2, -2, -6, -2, 9, 842, 650, 39,∑
2025-03-10 13:27:16.515,677, 578, 471, -9, 1, -4, -6, 0, 8, 841, 641, 58,∑
2025-03-10 13:27:16.566,700, 578, 472, -11, -2, -2, -6, 0, 7, 841, 643, 58,∑
2025-03-10 13:27:16.620,695, 571, 490, -5, -1, 1, -5, -2, 6, 850, 653, 71,∑
2025-03-10 13:27:16.670,695, 581, 474, -3, -1, 1, -6, 2, 7, 858, 659, 60,∑
2025-03-10 13:27:16.720,690, 581, 494, -7, 0, 1, -4, 1, 6, 857, 670, 32,∑
2025-03-10 13:27:16.777,700, 567, 484, -11, -2, 0, -5, 0, 6, 863, 678, 44,∑
2025-03-10 13:27:16.831,689, 543, 483, -6, -2, -2, -6, -1, 6, 873, 700, 83,∑
2025-03-10 13:27:16.880,677, 569, 471, -4, -1, -1, -6, -1, 6, 878, 715, 51,∑
2025-03-10 13:27:16.930,722, 576, 447, -1, -5, 4, -7, -1, 7, 896, 741, 78,∑
2025-03-10 13:27:16.990,670, 546, 509, 1, 0, 5, -7, -2, 7, 910, 746, 34,∑
2025-03-10 13:27:17.033,680, 596, 466, -4, -2, 1, -6, -3, 7, 915, 756, 64,∑
2025-03-10 13:27:17.096,510, 510, 726, 17, -43, 14, -6, 0, 6, 928, 763, 82,∑
2025-03-10 13:27:17.149,858, 295, 225, 15, -17, -6, -9, -1, 9, 960, 865, 69,∑
2025-03-10 13:27:17.200,606, 604, 313, 25, 5, 36, -8, 0, 10, 972, 890, 330,∑
2025-03-10 13:27:17.260,584, 541, 375, 24, 5, -2, -8, -1, 10, 959, 867, 445,∑
2025-03-10 13:27:17.311,649, 627, 325, -18, 16, -35, -8, -1, 10, 931, 777, 183,∑
2025-03-10 13:27:17.374,761, 450, 439, 28, -8, -12, -7, -1, 12, 955, 860, 49,∑
2025-03-10 13:27:17.428,646, 638, 261, 0, 9, 26, -8, -1, 12, 971, 884, 310,∑
2025-03-10 13:27:17.480,549, 768, 339, 2, 24, 12, -7, -2, 11, 966, 840, 279,∑
2025-03-10 13:27:17.530,948, 322, 455, 14, 7, -10, -7, -1, 11, 954, 691, 59,∑
2025-03-10 13:27:17.594,951, 796, 432, -27, -10, 37, -7, -3, 12, 975, 883, 225,∑
2025-03-10 13:27:17.645,559, 289, 278, 4, 11, 8, -10, 0, 11, 976, 880, 416,∑
2025-03-10 13:27:17.706,887, 500, 187, -37, 58, -54, -8, -1, 12, 921, 696, 258,∑
2025-03-10 13:27:18.030,672, 558, 522, -3, -8, 0, -5, -1, 6, 763, 523, 80,∏
2025-03-10 13:27:18.080,681, 568, 500, -1, -9, 0, -7, -2, 7, 761, 521, 70,∏
2025-03-10 13:27:18.134,668, 574, 488, 1, -3, 0, -4, 0, 6, 762, 542, 60,∏
2025-03-10 13:27:18.190,676, 586, 476, -5, -2, 1, -6, -2, 6, 751, 541, 76,∏
2025-03-10 13:27:18.243,684, 582, 475, -8, -2, 0, -5, 0, 5, 753, 532, 36,∏
2025-03-10 13:27:18.294,687, 562, 484, -13, -2, -2, -5, 0, 5, 771, 544, 80,∏
2025-03-10 13:27:18.350,673, 560, 506, -5, -4, -1, -7, -2, 6, 782, 553, 53,∏
2025-03-10 13:27:18.400,674, 566, 496, 1, -5, 2, -7, 0, 6, 822, 614, 75,∏
2025-03-10 13:27:18.456,698, 570, 478, 4, -6, 4, -6, -2, 5, 842, 679, 68,∏
2025-03-10 13:27:18.500,716, 561, 469, 2, -9, 3, -7, 1, 7, 873, 708, 63,∏
2025-03-10 13:27:18.550,670, 563, 482, -4, -2, 3, -7, 0, 6, 901, 733, 48,∏
2025-03-10 13:27:18.600,690, 548, 475, 4, -7, 3, -6, -2, 6, 911, 752, 82,∏
2025-03-10 13:27:18.660,722, 555, 431, -2, -3, -4, -6, 0, 6, 913, 757, 63,∏
2025-03-10 13:27:18.711,632, 580, 483, -16, -2, -12, -6, -1, 8, 916, 747, 57,∏
2025-03-10 13:27:18.770,689, 540, 484, 0, -24, 5, -7, -1, 8, 922, 743, 40,∏
2025-03-10 13:27:18.820,592, 756, 528, 2, -9, -20, -7, 0, 8, 942, 816, 83,∏
2025-03-10 13:27:18.877,1290, 915, 297, 47, -49, 28, -8, 0, 9, 972, 886, 65,∏
2025-03-10 13:27:18.930,622, 463, 553, 21, 10, 17, -10, 0, 10, 973, 886, 433,∏
2025-03-10 13:27:18.992,700, 445, 409, 12, 17, -28, -9, 3, 8, 951, 842, 421,∏
2025-03-10 13:27:19.044,867, 630, 600, 15, -5, -15, -7, -2, 12, 952, 849, 351,∏
2025-03-10 13:27:19.100,573, 629, 400, -5, 21, 28, -8, -1, 11, 974, 875, 256,∏
2025-03-10 13:27:19.161,752, 471, 208, -7, 35, 18, -7, -2, 14, 970, 847, 208,∏
2025-03-10 13:27:19.211,790, 589, 282, -20, -10, -29, -9, -1, 11, 936, 832, 417,∏
2025-03-10 13:27:19.276,706, 786, 693, -14, -14, -2, -9, -2, 11, 960, 869, 435,∏
2025-03-10 13:27:19.330,772, 455, 338, 8, 47, 32, -9, -1, 11, 977, 879, 137,∏
2025-03-10 13:27:19.380,795, 519, 249, 13, 27, 4, -9, -3, 11, 968, 848, 183,∏
2025-03-10 13:27:19.443,846, 526, 98, -56, 81, -62, -5, -1, 9, 914, 802, 330,∏
2025-03-10 13:27:19.500,387, 555, 815, -25, 33, -25, -5, -2, 3, 861, 746, 285,∏
2025-03-10 13:27:19.901,623, 642, 393, 21, -29, -20, -6, -3, 9, 819, 572, 168,√
2025-03-10 13:27:19.960,640, 645, 378, 23, -29, -16, -3, -3, 11, 818, 572, 169,√
2025-03-10 13:27:20.011,669, 692, 269, 0, -11, -2, -6, -2, 12, 851, 626, 204,√
2025-03-10 13:27:20.070,630, 664, 380, 3, 12, 18, -6, -4, 12, 883, 696, 290,√
2025-03-10 13:27:20.127,660, 639, 429, 7, 9, 25, -7, -3, 12, 894, 728, 319,√
2025-03-10 13:27:20.180,759, 617, 333, -2, 3, 25, -6, -3, 12, 901, 750, 368,√
2025-03-10 13:27:20.230,761, 546, 412, -11, 5, 0, -7, -3, 12, 906, 763, 322,√
2025-03-10 13:27:20.291,695, 589, 415, -11, 6, -4, -7, -2, 11, 911, 772, 333,√
2025-03-10 13:27:20.343,679, 618, 433, -6, -4, -1, -6, -2, 10, 912, 779, 324,√
2025-03-10 13:27:20.400,703, 589, 391, -10, -2, -2, -5, -1, 11, 913, 780, 294,√
2025-03-10 13:27:20.459,760, 569, 419, -3, -4, 4, -7, -2, 10, 920, 783, 318,√
2025-03-10 13:27:20.510,675, 613, 410, -8, 11, -4, -7, -2, 9, 920, 789, 368,√
2025-03-10 13:27:20.569,612, 593, 493, -6, 3, -1, -5, -4, 12, 919, 788, 315,√
2025-03-10 13:27:20.627,704, 578, 400, -3, -9, 3, -8, -3, 12, 925, 782, 223,√
2025-03-10 13:27:20.680,673, -22, 235, 15, -14, -27, -6, -2, 12, 939, 817, 57,√
2025-03-10 13:27:20.741,838, 834, 378, -14, -7, 24, -5, -2, 10, 965, 878, 210,√
2025-03-10 13:27:20.794,762, 670, 609, 29, 9, 13, -7, -2, 12, 970, 873, 424,√
2025-03-10 13:27:20.849,692, 624, 72, -13, 32, 36, -8, -1, 13, 973, 854, 52,√
2025-03-10 13:27:20.899,614, 183, 703, -41, -21, -25, -9, 0, 9, 967, 882, 79,√
2025-03-10 13:27:20.959,808, 733, 422, -8, -51, -32, -8, -1, 9, 965, 895, 288,√
2025-03-10 13:27:21.019,844, 536, 193, 23, 2, 22, -8, -1, 10, 976, 894, 468,√
2025-03-10 13:27:21.070,685, 549, 451, 14, 12, 5, -8, -2, 11, 966, 879, 570,√
2025-03-10 13:27:21.129,702, 536, 348, -32, 58, -48, -8, -2, 11, 916, 822, 447,√
2025-03-10 13:27:21.180,571, 652, 615, -4, -4, 4, -9, -2, 8, 903, 726, 325,√
2025-03-10 13:27:21.501,709, 572, 413, -1, 4, 1, -6, -3, 11, 882, 660, 58,∛
2025-03-10 13:27:21.550,696, 560, 423, 1, 4, 1, -5, -3, 10, 881, 658, 71,∛
2025-03-10 13:27:21.609,666, 599, 403, 0, 0, 0, -7, -1, 9, 880, 658, 76,∛
2025-03-10 13:27:21.661,584, 613, 530, -1, -22, 14, -7, -3, 11, 892, 677, 43,∛
2025-03-10 13:27:21.720,923, 411, 467, 6, -12, -1, -6, -2, 12, 941, 828, 55,∛
2025-03-10 13:27:21.773,718, 490, 585, 27, 4, 16, -9, 0, 9, 963, 853, 238,∛
2025-03-10 13:27:21.830,500, 284, 328, -29, 24, 30, -7, -2, 11, 967, 819, 64,∛
2025-03-10 13:27:21.880,679, 318, 764, -33, 2, 0, -9, -1, 9, 954, 842, 78,∛
2025-03-10 13:27:21.941,817, 557, 718, 7, -53, -32, -7, -3, 10, 956, 879, 161,∛
2025-03-10 13:27:21.994,593, 664, 195, 12, -2, 17, -9, -1, 10, 969, 884, 424,∛
2025-03-10 13:27:22.050,785, 331, 275, -6, 18, -40, -9, -3, 12, 951, 863, 518,∛
2025-03-10 13:27:22.109,539, 697, 721, -11, -9, -48, -6, -1, 10, 906, 802, 326,∛
2025-03-10 13:27:22.170,684, 1264, 519, 26, -25, -14, -6, -2, 11, 944, 877, 310,∛
2025-03-10 13:27:22.224,716, 668, 393, -2, 7, 15, -7, -2, 11, 961, 889, 448,∛
2025-03-10 13:27:22.280,821, 560, 362, 3, 12, 10, -7, -1, 11, 959, 884, 410,∛
2025-03-10 13:27:22.330,780, 647, 280, -2, 13, 2, -6, -3, 11, 962, 882, 373,∛
2025-03-10 13:27:22.381,669, 690, 256, -8, 11, 6, -7, 0, 9, 964, 871, 200,∛
2025-03-10 13:27:22.441,816, 490, 368, 5, 20, 5, -6, -1, 11, 921, 774, 223,∛
2025-03-10 13:27:22.494,621, 567, 479, -18, 39, -20, -6, -1, 8, 880, 745, 154,∛
2025-03-10 13:27:22.550,611, 634, 517, 8, -6, 15, -6, -1, 8, 890, 754, 169,∛
2025-03-10 13:27:22.970,698, 587, 434, 0, 0, 0, -6, -2, 9, 837, 688, 58,∜
2025-03-10 13:27:23.019,704, 591, 430, 0, 0, 1, -7, -1, 12, 837, 691, 59,∜
2025-03-10 13:27:23.072,686, 586, 432, 0, 1, 0, -6, -1, 8, 836, 690, 60,∜
2025-03-10 13:27:23.124,669, 580, 443, 4, 0, 2, -6, -2, 8, 842, 693, 59,∜
2025-03-10 13:27:23.174,684, 598, 427, 3, 1, 3, -6, -1, 11, 841, 670, 53,∜
2025-03-10 13:27:23.230,567, 562, 619, 17, -28, 13, -6, -1, 10, 831, 664, 46,∜
2025-03-10 13:27:23.280,959, 530, 297, 25, -4, -1, -6, -2, 11, 932, 827, 68,∜
2025-03-10 13:27:23.342,513, 506, 536, 14, 14, 15, -7, -3, 10, 959, 863, 351,∜
2025-03-10 13:27:23.399,518, 764, 268, 25, 30, 34, -7, -1, 12, 968, 851, 212,∜
2025-03-10 13:27:23.450,810, 706, 269, -43, 19, 13, -8, -1, 9, 962, 848, 77,∜
2025-03-10 13:27:23.510,970, 819, 220, -19, -51, -40, -7, -1, 10, 956, 886, 204,∜
2025-03-10 13:27:23.570,513, 603, 475, 34, -37, 11, -9, 0, 10, 973, 893, 329,∜
2025-03-10 13:27:23.624,747, 547, 391, 10, 9, -1, -9, -2, 11, 972, 882, 498,∜
2025-03-10 13:27:23.679,624, 591, 317, -25, 34, -73, -8, -3, 10, 938, 855, 458,∜
2025-03-10 13:27:23.740,623, 622, 594, 12, -43, 16, -6, 0, 9, 933, 858, 483,∜
2025-03-10 13:27:23.794,723, 426, 313, -7, -16, -11, -6, -2, 10, 966, 892, 428,∜
2025-03-10 13:27:23.850,924, 631, 569, 0, 18, 11, -6, -2, 11, 971, 883, 207,∜
2025-03-10 13:27:23.900,825, 654, 146, 0, 6, 3, -5, -3, 12, 972, 873, 68,∜
2025-03-10 13:27:23.957,660, 472, 359, -8, -2, 12, -5, 0, 12, 977, 898, 307,∜
2025-03-10 13:27:24.010,722, 488, 465, -1, 1, -11, -7, -1, 12, 961, 882, 524,∜
2025-03-10 13:27:24.075,1202, -305, 408, -24, -17, -20, -9, -2, 10, 965, 886, 507,∜
2025-03-10 13:27:24.130,1047, 571, 480, -18, 42, 39, -7, -2, 11, 976, 876, 388,∜
2025-03-10 13:27:24.190,968, 392, 107, -25, 37, -50, -8, -2, 9, 952, 754, 399,∜
2025-03-10 13:27:24.470,690, 580, 443, -7, 1, 0, -6, -1, 9, 886, 703, 202,∫
2025-03-10 13:27:24.529,691, 570, 451, -4, 1, 2, -5, 0, 8, 886, 700, 208,∫
2025-03-10 13:27:24.579,686, 578, 441, 5, 1, 2, -9, -1, 9, 887, 689, 270,∫
2025-03-10 13:27:24.629,702, 600, 418, 8, 0, 5, -7, -2, 9, 885, 696, 295,∫
2025-03-10 13:27:24.681,684, 585, 444, 0, 2, 6, -7, -2, 9, 890, 712, 339,∫
2025-03-10 13:27:24.731,711, 576, 422, -3, 1, 5, -7, -1, 11, 901, 721, 331,∫
2025-03-10 13:27:24.793,706, 568, 427, -4, 2, 2, -6, -1, 9, 910, 740, 302,∫
2025-03-10 13:27:24.844,692, 562, 454, 0, -2, 4, -7, -3, 9, 915, 744, 285,∫
2025-03-10 13:27:24.899,705, 547, 439, -1, -2, 1, -8, -2, 10, 920, 758, 356,∫
2025-03-10 13:27:24.950,726, 563, 436, 0, -1, 2, -4, -2, 9, 924, 758, 340,∫
2025-03-10 13:27:25.009,713, 579, 429, -2, -2, 0, -9, -2, 9, 928, 761, 361,∫
2025-03-10 13:27:25.060,718, 558, 436, 1, -3, 1, -7, -1, 9, 927, 757, 292,∫
2025-03-10 13:27:25.110,731, 553, 421, 1, -2, 1, -7, -2, 8, 931, 760, 295,∫
2025-03-10 13:27:25.168,720, 549, 431, -1, 1, 0, -7, -1, 11, 932, 765, 301,∫
2025-03-10 13:27:25.220,736, 566, 415, 11, -5, 8, -10, 0, 9, 938, 766, 378,∫
2025-03-10 13:27:25.280,708, 590, 436, 0, -11, 15, -8, -1, 9, 942, 767, 453,∫
2025-03-10 13:27:25.330,702, 540, 438, -28, -10, -2, -8, -1, 11, 953, 830, 295,∫
2025-03-10 13:27:25.390,642, 488, 354, 10, 0, -12, -9, -1, 10, 962, 852, 61,∫
2025-03-10 13:27:25.443,948, 526, 425, 30, 15, 3, -8, -2, 11, 971, 849, 35,∫
2025-03-10 13:27:25.500,671, 721, 265, -21, 27, 13, -8, -1, 9, 973, 846, 57,∫
2025-03-10 13:27:25.550,933, 435, 327, 17, 31, 4, -8, -2, 12, 953, 748, 51,∫
2025-03-10 13:27:25.610,861, 446, 270, -43, 60, -47, -7, -3, 8, 829, 686, 67,∫
2025-03-10 13:27:25.930,736, 569, 373, -5, -4, 0, -7, -2, 9, 830, 678, 157,∮
2025-03-10 13:27:25.991,725, 556, 391, -4, -2, -1, -7, -1, 10, 838, 686, 183,∮
2025-03-10 13:27:26.041,665, 572, 479, -1, 0, -1, -7, -2, 8, 839, 689, 192,∮
2025-03-10 13:27:26.091,692, 557, 436, 0, -4, 3, -8, -2, 8, 845, 696, 198,∮
2025-03-10 13:27:26.150,714, 526, 427, -2, 2, -1, -7, -1, 8, 854, 692, 168,∮
2025-03-10 13:27:26.200,704, 571, 444, -1, -1, 0, -7, 0, 9, 859, 699, 173,∮
2025-03-10 13:27:26.258,724, 585, 426, -6, 0, 1, -8, 0, 7, 873, 703, 186,∮
2025-03-10 13:27:26.310,703, 555, 472, -3, -3, 3, -8, 0, 8, 887, 712, 143,∮
2025-03-10 13:27:26.359,701, 550, 459, -2, 1, 1, -9, 0, 8, 894, 717, 184,∮
2025-03-10 13:27:26.410,712, 545, 438, -3, -3, 2, -8, 0, 7, 905, 728, 230,∮
2025-03-10 13:27:26.470,705, 563, 441, -6, -2, 0, -7, -2, 9, 912, 739, 254,∮
2025-03-10 13:27:26.524,715, 552, 421, 0, -4, 3, -8, -1, 9, 920, 735, 250,∮
2025-03-10 13:27:26.576,721, 567, 423, -3, -2, 1, -6, 0, 8, 925, 751, 269,∮
2025-03-10 13:27:26.626,716, 543, 439, -1, -1, 1, -7, 0, 9, 924, 754, 268,∮
2025-03-10 13:27:26.680,718, 542, 440, -3, 1, 1, -9, -3, 8, 925, 759, 271,∮
2025-03-10 13:27:26.729,728, 555, 451, 7, -2, 5, -8, -1, 9, 929, 767, 301,∮
2025-03-10 13:27:26.791,682, 557, 427, 4, -14, 2, -10, 0, 8, 929, 767, 292,∮
2025-03-10 13:27:26.842,756, 480, 380, -10, -8, -15, -8, -1, 8, 940, 827, 289,∮
2025-03-10 13:27:26.900,855, 762, 216, 47, 31, 14, -7, -2, 11, 962, 835, 56,∮
2025-03-10 13:27:26.955,868, 562, 294, 6, 39, 31, -7, 0, 10, 965, 849, 164,∮
2025-03-10 13:27:27.010,604, 500, 525, -3, -46, -50, -6, -2, 10, 934, 831, 472,∮
2025-03-10 13:27:27.069,730, 286, 468, 2, -27, -15, -9, -2, 11, 949, 852, 454,∮
2025-03-10 13:27:27.125,651, 836, 444, 15, 7, 31, -8, -3, 11, 971, 867, 321,∮
2025-03-10 13:27:27.180,1003, 368, 284, -47, 34, 13, -9, 0, 10, 970, 851, 46,∮
2025-03-10 13:27:27.235,1204, 330, 249, -42, 6, -68, -10, -1, 9, 927, 751, 73,∮
2025-03-10 13:27:27.292,425, 807, 735, 18, -63, 22, -6, -1, 7, 945, 864, 410,∮
2025-03-10 13:27:27.342,772, 367, 360, 6, -9, 0, -7, 0, 9, 970, 876, 287,∮
2025-03-10 13:27:27.400,472, 684, 266, -21, 59, 63, -8, 0, 9, 976, 862, 67,∮
2025-03-10 13:27:27.450,862, 346, 422, -22, 30, 8, -7, 1, 6, 963, 750, 31,∮
2025-03-10 13:27:27.508,912, 535, 174, -8, 65, -70, -8, 0, 7, 809, 706, 83,∮
2025-03-10 13:27:27.560,425, 651, 862, -11, 21, -34, -4, 2, 1, 570, 681, 54,∮
2025-03-10 13:27:27.850,700, 521, 480, -9, -2, -2, -6, -1, 6, 772, 667, 74,∂
2025-03-10 13:27:27.909,693, 520, 484, -8, -2, -2, -5, 1, 8, 771, 668, 70,∂
2025-03-10 13:27:27.960,672, 551, 510, -2, -2, -2, -7, 1, 7, 766, 673, 48,∂
2025-03-10 13:27:28.011,700, 539, 481, -4, -2, 1, -7, -1, 6, 801, 697, 77,∂
2025-03-10 13:27:28.060,700, 556, 487, -2, -5, 1, -7, 0, 5, 825, 713, 71,∂
2025-03-10 13:27:28.116,699, 540, 487, -4, -2, 1, -9, 0, 6, 833, 722, 53,∂
2025-03-10 13:27:28.171,702, 515, 505, -5, -3, 2, -7, 1, 6, 865, 735, 54,∂
2025-03-10 13:27:28.220,701, 536, 504, -1, -5, 5, -8, -1, 5, 890, 747, 54,∂
2025-03-10 13:27:28.274,726, 513, 472, 1, -7, 4, -7, 1, 6, 897, 758, 57,∂
2025-03-10 13:27:28.323,710, 524, 460, 2, 1, -1, -9, 0, 5, 891, 752, 61,∂
2025-03-10 13:27:28.376,714, 508, 504, 4, -3, 1, -7, -1, 6, 893, 755, 75,∂
2025-03-10 13:27:28.427,711, 542, 460, 3, -1, -1, -7, 1, 6, 893, 754, 99,∂
2025-03-10 13:27:28.480,706, 529, 469, 3, -3, -1, -8, -1, 5, 893, 746, 143,∂
2025-03-10 13:27:28.530,714, 534, 454, -1, 1, 1, -7, 0, 5, 895, 754, 182,∂
2025-03-10 13:27:28.589,700, 547, 477, 3, -1, -1, -7, 0, 6, 900, 753, 175,∂
2025-03-10 13:27:28.631,734, 515, 459, -3, -3, 0, -8, 1, 6, 902, 756, 199,∂
2025-03-10 13:27:28.691,712, 548, 484, -2, 0, -2, -9, 0, 6, 905, 758, 193,∂
2025-03-10 13:27:28.743,728, 532, 450, -2, 0, 0, -7, 0, 6, 908, 758, 174,∂
2025-03-10 13:27:28.792,712, 529, 487, 2, 1, 0, -7, -2, 8, 911, 761, 182,∂
2025-03-10 13:27:28.850,725, 530, 454, -2, 0, -2, -8, 0, 7, 910, 760, 192,∂
2025-03-10 13:27:28.900,706, 533, 488, 3, -4, -1, -8, -1, 8, 911, 761, 170,∂
2025-03-10 13:27:28.958,669, 545, 463, -3, -7, -10, -8, 0, 8, 913, 778, 190,∂
2025-03-10 13:27:29.009,818, 492, 510, -60, -27, -27, -9, -1, 6, 929, 822, 50,∂
2025-03-10 13:27:29.072,1088, 435, 482, 59, -14, -5, -7, 2, 6, 957, 867, 258,∂
2025-03-10 13:27:29.130,514, 580, 456, 29, 28, 36, -8, -1, 10, 966, 865, 496,∂
2025-03-10 13:27:29.180,885, 468, 361, -47, 25, 7, -9, -2, 9, 965, 839, 66,∂
2025-03-10 13:27:29.230,710, 264, 541, 20, -9, -21, -9, 1, 8, 969, 876, 42,∂
2025-03-10 13:27:29.292,742, 400, 337, 11, -17, 4, -7, -1, 9, 976, 896, 157,∂
2025-03-10 13:27:29.343,788, 606, 320, 13, 11, 4, -9, 1, 7, 962, 863, 391,∂
2025-03-10 13:27:29.400,643, 522, 470, -71, 78, -52, -6, 0, 6, 912, 737, 63,∂
2025-03-10 13:27:29.675,716, 554, 455, -3, -1, 4, -7, -1, 9, 889, 709, 173,∇
2025-03-10 13:27:29.732,714, 549, 436, -3, -1, 4, -7, -2, 9, 889, 711, 183,∇
2025-03-10 13:27:29.780,719, 548, 423, -1, -1, 0, -7, -2, 9, 890, 717, 173,∇
2025-03-10 13:27:29.839,710, 543, 447, -2, 1, 0, -7, -2, 7, 886, 721, 196,∇
2025-03-10 13:27:29.892,704, 543, 447, -3, 0, 1, -6, -1, 8, 886, 716, 112,∇
2025-03-10 13:27:29.944,721, 538, 434, -3, 0, 0, -7, -1, 8, 889, 730, 164,∇
2025-03-10 13:27:29.994,713, 555, 459, -4, 0, 1, -7, -1, 7, 893, 731, 126,∇
2025-03-10 13:27:30.050,717, 545, 457, -3, -1, -1, -7, -2, 9, 895, 734, 65,∇
2025-03-10 13:27:30.106,708, 548, 432, -1, -1, 0, -9, -1, 7, 903, 747, 82,∇
2025-03-10 13:27:30.159,721, 541, 459, -4, 0, 0, -7, -2, 8, 906, 746, 41,∇
2025-03-10 13:27:30.208,728, 561, 443, 0, -1, 0, -7, 0, 9, 907, 758, 169,∇
2025-03-10 13:27:30.263,718, 542, 462, -4, 0, -2, -8, -1, 6, 908, 762, 182,∇
2025-03-10 13:27:30.313,724, 554, 435, -9, -1, -5, -6, -1, 7, 914, 762, 78,∇
2025-03-10 13:27:30.370,630, 547, 556, -16, -10, 3, -7, 0, 8, 928, 758, 79,∇
2025-03-10 13:27:30.428,646, 728, 459, -21, -16, -14, -8, -1, 8, 952, 840, 84,∇
2025-03-10 13:27:30.480,1138, 652, 213, -34, -8, 37, -9, 0, 10, 974, 881, 52,∇
2025-03-10 13:27:30.539,644, 389, 572, 20, 0, 6, -10, -1, 9, 976, 881, 375,∇
2025-03-10 13:27:30.591,759, 585, 336, 19, 41, 7, -10, -2, 9, 973, 874, 147,∇
2025-03-10 13:27:30.649,1033, 615, 57, -20, 37, 11, -10, 0, 9, 968, 829, 42,∇
2025-03-10 13:27:30.706,802, 300, 504, -3, -26, -75, -7, -2, 8, 922, 781, 185,∇
2025-03-10 13:27:30.760,487, 645, 706, 7, -74, -5, -7, -3, 10, 934, 848, 78,∇
2025-03-10 13:27:30.810,1136, 1004, 87, 13, 20, 58, -7, 1, 9, 972, 875, 37,∇
2025-03-10 13:27:30.870,629, 296, 449, 7, 27, 23, -8, -1, 8, 967, 844, 203,∇
2025-03-10 13:27:30.923,743, 464, 232, -37, 42, -49, -8, -1, 6, 901, 690, 60,∇
2025-03-10 13:27:30.976,598, 541, 775, -8, 14, -31, -9, 0, 6, 532, 503, 72,∇
2025-03-10 13:27:31.270,700, 524, 477, -4, -2, -1, -7, 0, 6, 691, 582, 55,∆
2025-03-10 13:27:31.325,702, 533, 481, -1, -2, -1, -7, 0, 7, 690, 585, 51,∆
2025-03-10 13:27:31.375,709, 563, 470, -3, -2, 0, -7, -1, 6, 689, 599, 76,∆
2025-03-10 13:27:31.427,698, 564, 470, -6, -1, 0, -5, 0, 6, 753, 637, 33,∆
2025-03-10 13:27:31.480,700, 539, 487, -5, 0, 1, -6, 1, 5, 798, 670, 52,∆
2025-03-10 13:27:31.529,707, 550, 472, -8, 1, 1, -9, 0, 6, 843, 680, 55,∆
2025-03-10 13:27:31.580,702, 541, 497, -6, -2, 1, -7, -1, 5, 872, 699, 54,∆
2025-03-10 13:27:31.630,710, 541, 481, -4, -1, 2, -7, 0, 5, 887, 708, 53,∆
2025-03-10 13:27:31.690,702, 523, 472, -4, -3, 1, -6, -1, 7, 896, 716, 53,∆
2025-03-10 13:27:31.739,706, 536, 496, 0, -1, 2, -7, 1, 5, 906, 730, 80,∆
2025-03-10 13:27:31.792,725, 524, 464, -1, -3, 1, -8, 0, 6, 910, 736, 56,∆
2025-03-10 13:27:31.842,719, 555, 446, 0, -7, 0, -6, 1, 6, 914, 748, 73,∆
2025-03-10 13:27:31.894,768, 530, 406, 7, -7, -1, -8, 0, 9, 916, 755, 77,∆
2025-03-10 13:27:31.945,699, 532, 517, 1, -14, -6, -8, -2, 8, 915, 763, 68,∆
2025-03-10 13:27:32.005,639, 535, 600, -2, -47, 11, -10, 1, 8, 931, 813, 235,∆
2025-03-10 13:27:32.058,526, 360, 576, 17, -20, -18, -8, 0, 9, 964, 850, 46,∆
2025-03-10 13:27:32.110,675, 842, 111, 24, 37, 17, -9, -1, 10, 964, 833, 80,∆
2025-03-10 13:27:32.169,788, 472, 868, 2, -18, -6, -7, 0, 9, 939, 789, 51,∆
2025-03-10 13:27:32.222,651, 551, 703, -3, -11, -6, -7, 0, 8, 940, 847, 314,∆
2025-03-10 13:27:32.276,873, 753, 182, 48, 11, 30, -7, 0, 11, 966, 843, 358,∆
2025-03-10 13:27:32.330,780, 520, 418, 2, 27, 22, -9, -4, 10, 970, 851, 175,∆
2025-03-10 13:27:32.382,885, 432, 198, 11, 14, -32, -8, -1, 9, 949, 805, 63,∆
2025-03-10 13:27:32.443,972, 588, 299, 16, 13, -1, -8, 0, 10, 923, 748, 187,∆
2025-03-10 13:27:32.500,487, 596, 682, -21, 39, -24, -6, -2, 7, 910, 725, 206,∆
2025-03-10 13:27:32.553,570, 656, 585, -7, -18, 15, -5, -1, 6, 902, 680, 70,∆
2025-03-10 13:27:32.820,700, 546, 454, -5, 2, 0, -7, 0, 6, 827, 683, 45,π
2025-03-10 13:27:32.872,703, 558, 466, -5, 2, 0, -8, -1, 8, 825, 682, 42,π
2025-03-10 13:27:32.923,700, 540, 478, -5, -1, -2, -7, 0, 9, 828, 683, 55,π
2025-03-10 13:27:32.980,707, 564, 453, -9, -1, -1, -7, -1, 7, 844, 691, 64,π
2025-03-10 13:27:33.030,710, 549, 447, -10, 1, -1, -8, -1, 7, 850, 679, 78,π
2025-03-10 13:27:33.090,708, 530, 461, -5, -2, 0, -6, -1, 5, 859, 687, 77,π
2025-03-10 13:27:33.140,703, 553, 465, 0, -4, 0, -7, -1, 8, 860, 702, 63,π
2025-03-10 13:27:33.190,712, 542, 466, -5, -1, 1, -8, 0, 9, 868, 712, 44,π
2025-03-10 13:27:33.242,705, 542, 469, -6, -3, 2, -8, -1, 8, 882, 721, 75,π
2025-03-10 13:27:33.298,733, 529, 423, -3, -3, 0, -8, 1, 8, 884, 726, 65,π
2025-03-10 13:27:33.341,727, 544, 444, -4, -2, -1, -7, 0, 8, 890, 730, 54,π
2025-03-10 13:27:33.405,720, 557, 439, -11, 4, -6, -6, -1, 7, 900, 726, 49,π
2025-03-10 13:27:33.457,702, 535, 481, -7, -5, -8, -8, 0, 6, 904, 723, 40,π
2025-03-10 13:27:33.510,632, 529, 521, -2, -10, -8, -9, 2, 5, 910, 739, 76,π
2025-03-10 13:27:33.560,859, 817, 474, 39, -15, -23, -7, 0, 9, 938, 809, 80,π
2025-03-10 13:27:33.622,290, 685, 334, -35, -17, 47, -8, -1, 11, 969, 878, 62,π
2025-03-10 13:27:33.675,604, 655, 585, 8, 3, 25, -11, 1, 9, 971, 877, 409,π
2025-03-10 13:27:33.729,584, 458, 294, 13, 15, -20, -9, -1, 11, 949, 841, 397,π
2025-03-10 13:27:33.790,789, 610, 641, 15, 0, -22, -9, -2, 10, 925, 767, 123,π
2025-03-10 13:27:33.841,690, 533, 460, -16, 3, 7, -8, 0, 10, 966, 850, 52,π
2025-03-10 13:27:33.890,638, 455, 374, -18, 29, 24, -9, -1, 9, 970, 836, 82,π
2025-03-10 13:27:33.955,963, 231, 685, 61, -30, -26, -10, 1, 8, 932, 764, 58,π
2025-03-10 13:27:34.007,428, 712, 830, 8, -23, -1, -10, 1, 7, 950, 836, 293,π
2025-03-10 13:27:34.060,820, 436, 474, 2, -3, 6, -9, 0, 11, 970, 861, 218,π
2025-03-10 13:27:34.110,721, 564, 297, -13, 29, 34, -9, 0, 9, 977, 855, 40,π
2025-03-10 13:27:34.171,629, 462, 601, -2, -7, 23, -9, 1, 10, 977, 882, 72,π
2025-03-10 13:27:34.223,729, 464, 382, 23, 4, -2, -10, -2, 12, 975, 881, 261,π
2025-03-10 13:27:34.285,841, 452, 218, -21, 44, -43, -11, 0, 11, 945, 822, 248,π
2025-03-10 13:27:34.339,608, 519, 664, -23, 16, -16, -7, -2, 7, 925, 695, 57,π
2025-03-10 13:27:34.390,657, 451, 520, 8, -15, 1, -7, 0, 7, 897, 614, 83,π
2025-03-10 13:27:34.670,697, 561, 468, 4, -8, 2, -8, 0, 7, 829, 537, 63,θ
2025-03-10 13:27:34.722,700, 546, 466, 7, -8, 3, -7, -1, 7, 824, 549, 51,θ
2025-03-10 13:27:34.780,717, 542, 428, 2, -5, 1, -7, -3, 9, 820, 550, 46,θ
2025-03-10 13:27:34.830,720, 558, 444, -4, 2, -1, -7, -1, 9, 824, 587, 80,θ
2025-03-10 13:27:34.884,702, 551, 461, 0, 1, -1, -7, -1, 9, 817, 586, 66,θ
2025-03-10 13:27:34.937,721, 557, 459, -5, -1, 0, -6, 0, 6, 818, 590, 52,θ
2025-03-10 13:27:34.991,717, 555, 443, -6, -1, 1, -8, 1, 8, 829, 623, 71,θ
2025-03-10 13:27:35.040,706, 536, 472, -2, 0, 0, -9, 1, 8, 835, 628, 54,θ
2025-03-10 13:27:35.090,708, 532, 473, -1, -1, -1, -8, -1, 7, 842, 624, 38,θ
2025-03-10 13:27:35.139,711, 546, 447, -6, -2, -3, -9, 1, 8, 859, 638, 64,θ
2025-03-10 13:27:35.199,732, 549, 443, -7, -2, -1, -7, 0, 6, 873, 644, 72,θ
2025-03-10 13:27:35.250,707, 544, 485, -3, -2, -1, -9, 0, 9, 886, 660, 52,θ
2025-03-10 13:27:35.300,728, 523, 437, 0, 0, 1, -8, 0, 7, 898, 687, 80,θ
2025-03-10 13:27:35.355,720, 552, 479, 0, -1, -3, -9, 0, 9, 891, 686, 59,θ
2025-03-10 13:27:35.407,709, 549, 465, -3, -4, 0, -7, 0, 9, 895, 689, 41,θ
2025-03-10 13:27:35.459,652, 547, 534, -2, -21, 3, -8, -1, 9, 905, 726, 80,θ
2025-03-10 13:27:35.510,582, 712, 431, 5, -7, -11, -9, 0, 9, 921, 782, 81,θ
2025-03-10 13:27:35.564,760, 608, 428, -10, -2, -7, -9, -1, 7, 941, 828, 58,θ
2025-03-10 13:27:35.621,705, 593, 375, 2, -10, -11, -8, 1, 9, 955, 855, 55,θ
2025-03-10 13:27:35.673,675, 584, 384, 56, 16, -5, -7, 0, 9, 964, 853, 64,θ
2025-03-10 13:27:35.723,619, 831, 22, -4, 39, 35, -7, 0, 13, 970, 857, 65,θ
2025-03-10 13:27:35.780,796, 166, 794, 9, -24, -25, -7, -2, 11, 953, 845, 174,θ
2025-03-10 13:27:35.838,473, 614, 977, 7, -49, 7, -8, 0, 6, 929, 861, 374,θ
2025-03-10 13:27:35.890,783, 1006, 215, -40, 1, 27, -9, -2, 11, 968, 876, 243,θ
2025-03-10 13:27:35.949,321, 704, 372, -37, 42, 43, -9, 1, 9, 974, 856, 60,θ
2025-03-10 13:27:36.000,609, 84, 549, 23, -7, -35, -9, 0, 8, 938, 728, 52,θ
2025-03-10 13:27:36.055,439, 618, 974, 57, -37, 1, -7, -2, 8, 939, 820, 72,θ
2025-03-10 13:27:36.110,867, 608, 73, 7, -9, 29, -7, -1, 12, 972, 879, 162,θ
2025-03-10 13:27:36.164,627, 477, 578, 11, 12, 10, -9, 0, 10, 951, 814, 385,θ
2025-03-10 13:27:36.482,700, 555, 460, -13, 1, -5, -8, 0, 6, 732, 586, 55,λ
2025-03-10 13:27:36.530,697, 548, 461, -13, 2, -4, -7, 0, 9, 735, 585, 59,λ
2025-03-10 13:27:36.588,699, 553, 481, 0, -5, 0, -7, 1, 6, 758, 597, 59,λ
2025-03-10 13:27:36.641,701, 535, 462, -2, -1, 1, -7, -1, 8, 815, 633, 56,λ
2025-03-10 13:27:36.690,700, 565, 467, -2, -5, 2, -8, -1, 7, 860, 690, 64,λ
2025-03-10 13:27:36.741,708, 541, 455, -7, -3, 1, -7, -1, 6, 889, 715, 66,λ
2025-03-10 13:27:36.795,715, 560, 449, -4, -2, 2, -7, 0, 8, 904, 727, 37,λ
2025-03-10 13:27:36.851,713, 518, 487, 0, -6, 3, -7, -1, 8, 919, 736, 50,λ
2025-03-10 13:27:36.904,737, 542, 421, -4, -4, 0, -9, 2, 8, 929, 750, 72,λ
2025-03-10 13:27:36.957,729, 536, 466, -8, 0, -1, -8, -1, 7, 932, 765, 58,λ
2025-03-10 13:27:37.010,708, 547, 465, -5, -2, -2, -8, 0, 6, 938, 770, 67,λ
2025-03-10 13:27:37.060,670, 541, 500, -6, -1, -4, -7, -1, 7, 940, 787, 60,λ
2025-03-10 13:27:37.115,732, 530, 416, 1, -7, -4, -8, -1, 8, 939, 783, 75,λ
2025-03-10 13:27:37.170,725, 526, 482, 17, -6, -17, -8, 0, 9, 946, 823, 69,λ
2025-03-10 13:27:37.223,635, 846, 218, 18, -12, 22, -8, 2, 9, 970, 866, 63,λ
2025-03-10 13:27:37.273,583, 634, 538, 25, 10, 18, -8, 0, 8, 975, 865, 270,λ
2025-03-10 13:27:37.330,753, 627, 282, 2, 31, 24, -9, -2, 9, 971, 847, 256,λ
2025-03-10 13:27:37.387,580, 431, 496, -22, 14, -56, -9, 0, 10, 948, 810, 256,λ
2025-03-10 13:27:37.439,693, 33, -113, 27, -8, -20, -8, -1, 9, 962, 852, 240,λ
2025-03-10 13:27:37.500,800, 481, 277, -9, 32, 17, -8, -1, 10, 972, 842, 85,λ
2025-03-10 13:27:37.550,922, 504, 382, 15, 18, 4, -8, 1, 9, 951, 737, 48,λ
2025-03-10 13:27:37.606,581, 526, 659, -22, 34, -37, -7, 1, 5, 897, 729, 50,λ
2025-03-10 13:27:37.930,714, 550, 448, -8, -2, 0, -7, -1, 9, 886, 691, 65,μ
2025-03-10 13:27:37.989,705, 533, 452, -5, -1, 0, -6, 0, 7, 887, 693, 82,μ
2025-03-10 13:27:38.038,718, 543, 453, -5, -1, 0, -8, 1, 7, 897, 703, 80,μ
2025-03-10 13:27:38.090,714, 544, 468, -1, -2, 0, -7, 0, 6, 905, 703, 39,μ
2025-03-10 13:27:38.143,722, 553, 446, -1, -3, 1, -8, -1, 8, 909, 718, 52,μ
2025-03-10 13:27:38.190,731, 537, 465, -1, -2, 3, -9, 0, 7, 914, 737, 64,μ
2025-03-10 13:27:38.246,733, 529, 456, -2, 0, -1, -6, 0, 8, 920, 731, 31,μ
2025-03-10 13:27:38.300,715, 543, 467, -3, 0, 1, -9, 1, 6, 920, 739, 68,μ
2025-03-10 13:27:38.354,736, 536, 443, -4, -1, -1, -8, -2, 8, 922, 740, 55,μ
2025-03-10 13:27:38.407,710, 539, 492, -5, -3, 0, -7, -3, 9, 925, 745, 34,μ
2025-03-10 13:27:38.460,758, 524, 456, -4, -2, 1, -9, 0, 8, 927, 757, 81,μ
2025-03-10 13:27:38.509,700, 527, 487, 0, -1, -1, -8, 1, 8, 930, 755, 58,μ
2025-03-10 13:27:38.559,741, 527, 443, -5, 0, 0, -8, -1, 8, 931, 750, 34,μ
2025-03-10 13:27:38.614,710, 541, 478, -1, -1, -1, -8, 1, 7, 931, 755, 70,μ
2025-03-10 13:27:38.669,720, 531, 453, -2, -2, -5, -9, 0, 7, 930, 755, 55,μ
2025-03-10 13:27:38.714,731, 526, 460, 3, -3, -3, -9, 0, 7, 929, 750, 52,μ
2025-03-10 13:27:38.771,708, 553, 451, 2, 4, -3, -8, 0, 8, 926, 738, 61,μ
2025-03-10 13:27:38.820,719, 544, 482, 5, -4, 2, -6, 0, 7, 925, 740, 80,μ
2025-03-10 13:27:38.874,765, 544, 402, 2, -1, -2, -9, 0, 8, 926, 743, 79,μ
2025-03-10 13:27:38.923,691, 542, 491, 4, 1, -2, -8, 0, 8, 925, 728, 35,μ
2025-03-10 13:27:38.974,722, 558, 398, 1, 1, -4, -9, 0, 7, 924, 729, 75,μ
2025-03-10 13:27:39.030,694, 537, 495, -3, -1, -2, -7, 0, 7, 925, 745, 82,μ
2025-03-10 13:27:39.074,753, 532, 434, -3, 1, 1, -7, -1, 9, 926, 741, 40,μ
2025-03-10 13:27:39.130,669, 550, 501, 9, 8, 5, -9, -1, 10, 928, 730, 71,μ
2025-03-10 13:27:39.180,646, 571, 448, 25, 27, 18, -7, -1, 8, 928, 664, 77,μ
2025-03-10 13:27:39.238,874, 463, 357, -2, 8, 7, -6, -3, 10, 939, 659, 50,μ
2025-03-10 13:27:39.290,724, 547, 400, -14, 5, -2, -7, 0, 8, 956, 766, 57,μ
2025-03-10 13:27:39.340,763, 411, 291, -22, -34, -21, -9, 0, 7, 962, 872, 60,μ
2025-03-10 13:27:39.407,570, 555, 670, -33, -26, -20, -7, 0, 7, 967, 894, 191,μ
2025-03-10 13:27:39.460,716, 421, 340, 26, -15, -12, -8, -2, 7, 970, 887, 237,μ
2025-03-10 13:27:39.514,656, 443, 425, -18, 17, 19, -9, -1, 9, 975, 882, 66,μ
2025-03-10 13:27:39.570,631, 429, 490, -21, 5, 3, -11, 1, 9, 973, 883, 57,μ
2025-03-10 13:27:39.622,708, 398, 464, 13, -3, -3, -10, 0, 7, 971, 873, 245,μ
2025-03-10 13:27:39.680,695, 560, 471, 14, 15, 19, -9, -1, 7, 972, 859, 250,μ
2025-03-10 13:27:39.730,707, 518, 474, -19, 1, 5, -10, 0, 8, 971, 869, 250,μ
2025-03-10 13:27:39.791,734, 537, 426, 19, -6, -2, -10, 2, 8, 969, 871, 301,μ
2025-03-10 13:27:39.840,737, 470, 426, -16, 44, -25, -10, -1, 8, 956, 836, 318,μ
2025-03-10 13:27:40.160,705, 539, 480, -5, 1, 2, -7, -1, 6, 897, 632, 46,ω
2025-03-10 13:27:40.209,700, 530, 480, -4, 0, 1, -9, 0, 7, 898, 643, 72,ω
2025-03-10 13:27:40.260,714, 544, 457, -4, 2, 0, -7, 0, 6, 892, 628, 56,ω
2025-03-10 13:27:40.315,712, 558, 479, -9, -1, 1, -6, -1, 6, 887, 629, 51,ω
2025-03-10 13:27:40.364,697, 541, 481, -9, 1, -2, -7, -1, 8, 892, 626, 52,ω
2025-03-10 13:27:40.413,705, 521, 481, -8, -3, 0, -7, 0, 5, 898, 632, 59,ω
2025-03-10 13:27:40.472,709, 547, 507, 6, -12, 2, -8, 1, 6, 899, 652, 76,ω
2025-03-10 13:27:40.521,733, 521, 463, 0, -7, 2, -7, 0, 8, 904, 664, 48,ω
2025-03-10 13:27:40.571,738, 524, 462, 0, -2, -1, -8, 0, 7, 912, 700, 77,ω
2025-03-10 13:27:40.620,717, 530, 465, -4, 0, -1, -6, 1, 5, 914, 706, 60,ω
2025-03-10 13:27:40.670,657, 525, 498, 0, -4, -7, -8, 1, 8, 917, 718, 38,ω
2025-03-10 13:27:40.729,686, 535, 442, -2, -2, -11, -6, 0, 8, 919, 732, 70,ω
2025-03-10 13:27:40.780,762, 541, 428, -4, 0, -6, -6, 0, 7, 917, 736, 64,ω
2025-03-10 13:27:40.836,835, 503, 539, 25, -6, 18, -7, 0, 6, 927, 767, 48,ω
2025-03-10 13:27:40.890,580, 514, 421, 13, -8, 15, -9, 0, 8, 941, 784, 273,ω
2025-03-10 13:27:40.950,613, 550, 628, -25, -16, -17, -10, 0, 9, 955, 852, 102,ω
2025-03-10 13:27:41.004,843, 543, 194, 6, -1, -11, -9, 1, 10, 973, 867, 45,ω
2025-03-10 13:27:41.058,708, 502, 254, -15, 29, 27, -8, 0, 9, 976, 870, 66,ω
2025-03-10 13:27:41.109,701, 427, 645, 10, 0, 17, -10, 0, 8, 972, 861, 34,ω
2025-03-10 13:27:41.160,769, 631, 482, 20, 7, 17, -9, 0, 7, 970, 843, 180,ω
2025-03-10 13:27:41.209,893, 703, 153, -36, 13, 33, -10, 1, 9, 973, 857, 68,ω
2025-03-10 13:27:41.271,833, 454, 562, 8, -16, -17, -9, 1, 7, 962, 865, 82,ω
2025-03-10 13:27:41.326,824, 483, 250, 13, 11, -14, -11, 0, 6, 943, 804, 104,ω
2025-03-10 13:27:41.380,692, 574, 476, -22, 35, -18, -7, -1, 6, 930, 738, 63,ω
2025-03-10 13:27:43.080,709, 526, 491, -2, 1, 0, -8, -2, 6, 879, 647, 38,@
2025-03-10 13:27:43.130,701, 516, 489, -2, 0, -1, -8, -2, 6, 880, 643, 30,@
2025-03-10 13:27:43.180,707, 520, 483, -4, 0, 0, -9, 1, 5, 881, 649, 44,@
2025-03-10 13:27:43.236,711, 506, 491, 1, -1, -1, -9, 2, 4, 880, 648, 34,@
2025-03-10 13:27:43.290,718, 521, 486, -3, -1, -3, -7, 1, 6, 882, 666, 70,@
2025-03-10 13:27:43.341,708, 508, 500, -2, -1, -1, -9, 2, 3, 884, 671, 52,@
2025-03-10 13:27:43.390,713, 525, 502, -2, -1, 0, -8, 1, 5, 883, 679, 72,@
2025-03-10 13:27:43.443,698, 512, 499, -1, -2, 2, -8, 2, 5, 901, 706, 73,@
2025-03-10 13:27:43.491,722, 515, 488, -1, -4, 1, -8, 0, 5, 910, 710, 48,@
2025-03-10 13:27:43.550,720, 517, 503, -3, 0, -1, -10, 2, 4, 921, 728, 50,@
2025-03-10 13:27:43.604,713, 509, 495, 1, -1, -1, -8, 0, 5, 924, 734, 61,@
2025-03-10 13:27:43.658,721, 528, 475, -2, -1, -2, -7, 0, 6, 923, 733, 38,@
2025-03-10 13:27:43.707,714, 514, 489, 0, -2, -1, -8, 1, 5, 927, 745, 78,@
2025-03-10 13:27:43.759,714, 519, 498, 2, -1, 0, -7, 2, 6, 926, 744, 63,@
2025-03-10 13:27:43.809,716, 515, 496, -1, -1, -1, -7, 1, 5, 927, 746, 67,@
2025-03-10 13:27:43.862,733, 541, 454, -1, -5, 2, -8, 1, 6, 926, 745, 67,@
2025-03-10 13:27:43.914,723, 502, 452, -6, 0, 1, -8, 1, 6, 933, 747, 78,@
2025-03-10 13:27:43.965,697, 507, 490, 1, -2, -2, -8, 1, 6, 936, 753, 79,@
2025-03-10 13:27:44.019,776, 507, 416, 1, -1, -3, -9, 0, 6, 934, 751, 53,@
2025-03-10 13:27:44.071,683, 521, 528, 0, 5, -5, -7, 1, 6, 934, 744, 53,@
2025-03-10 13:27:44.120,727, 506, 478, 1, -4, 4, -8, 1, 7, 933, 745, 60,@
2025-03-10 13:27:44.169,707, 519, 467, 0, 1, -3, -9, 0, 5, 935, 754, 73,@
2025-03-10 13:27:44.222,721, 527, 487, -2, -1, 1, -9, 1, 6, 935, 752, 58,@
2025-03-10 13:27:44.271,743, 523, 460, -2, -1, 1, -8, 1, 6, 937, 755, 55,@
2025-03-10 13:27:44.322,710, 511, 495, 5, -2, 3, -7, 2, 7, 941, 764, 54,@
2025-03-10 13:27:44.371,583, 487, 700, 14, -33, 9, -9, 0, 6, 948, 787, 54,@
2025-03-10 13:27:44.436,803, 626, 386, -9, -8, -11, -10, 1, 7, 956, 836, 54,@
2025-03-10 13:27:44.490,1040, 583, 478, 37, 3, -12, -8, 2, 6, 970, 851, 58,@
2025-03-10 13:27:44.540,853, 602, 454, -34, 25, 27, -8, 0, 8, 972, 865, 57,@
2025-03-10 13:27:44.589,666, 379, 772, 13, -16, -13, -9, 2, 7, 966, 868, 72,@
2025-03-10 13:27:44.653,734, 482, 517, 24, -14, -12, -9, 0, 8, 967, 867, 54,@
2025-03-10 13:27:44.704,769, 481, 315, 12, 11, 18, -9, 0, 9, 976, 852, 43,@
2025-03-10 13:27:44.759,755, 533, 410, -22, -3, 9, -10, 1, 8, 972, 862, 59,@
2025-03-10 13:27:44.812,850, 416, 365, -21, -18, -22, -8, 1, 6, 960, 866, 39,@
2025-03-10 13:27:44.870,1160, 545, 524, -17, -16, -26, -9, 0, 7, 963, 883, 78,@
2025-03-10 13:27:44.921,878, 715, 545, 42, 48, 26, -7, 0, 9, 973, 863, 76,@
2025-03-10 13:27:44.979,882, 243, 428, 37, 23, 43, -8, -1, 10, 976, 855, 35,@
2025-03-10 13:27:45.038,542, 401, 870, 24, -27, -14, -8, 2, 7, 962, 858, 61,@
2025-03-10 13:27:45.090,896, 436, 123, -46, 72, -50, -10, 0, 7, 863, 734, 203,@
2025-03-10 13:27:45.140,579, 615, 633, -38, 57, -30, -9, 3, 3, 844, 611, 56,@
2025-03-10 13:27:45.202,490, 504, 701, 4, -12, 7, -3, 0, 2, 822, 545, 73,@
2025-03-10 13:27:45.255,684, 536, 539, 22, -31, 9, -5, -1, 3, 702, 448, 34,@
2025-03-10 13:27:45.505,694, 532, 484, -3, 2, -1, -5, 0, 4, 741, 444, 63,#
2025-03-10 13:27:45.558,695, 541, 495, -2, 2, -1, -4, 1, 5, 742, 446, 78,#
2025-03-10 13:27:45.610,685, 548, 506, -3, -1, 0, -6, -1, 5, 735, 435, 66,#
2025-03-10 13:27:45.660,677, 530, 524, -4, 0, -1, -7, 0, 5, 746, 448, 50,#
2025-03-10 13:27:45.709,695, 530, 506, -5, 1, -2, -7, 0, 2, 736, 437, 34,#
