Timestamp,Acc_X,Acc_Y,Acc_Z,Gyro_X,Gyro_Y,Gyro_Z,Mag_X,Mag_Y,Mag_Z,Force1,Force2,Force3,Letter
2025-03-12 15:08:56.217,518, 727, 495, -18, 19, -5, -11, -2, 18, 627, 150, 199,noise
2025-03-12 15:08:56.222,518, 727, 495, -18, 19, -5, -11, -2, 18, 627, 150, 199,noise
2025-03-12 15:09:03.127,333, 843, -48, -58, 105, 33, -5, -4, 7, 927, 588, 207,A
2025-03-12 15:09:03.183,304, 828, -5, -60, 118, 38, -6, -5, 5, 925, 482, 211,A
2025-03-12 15:09:03.238,377, 757, 289, -73, 131, 85, -4, -3, -3, 924, 355, 223,A
2025-03-12 15:09:03.300,553, 795, 493, -72, 68, 45, -2, 0, -7, 917, 161, 337,A
2025-03-12 15:09:03.350,621, 817, 349, -141, 44, 52, 0, 3, -8, 907, 35, 463,A
2025-03-12 15:09:03.409,579, 561, 497, -57, 42, 10, 1, 8, -10, 890, 38, 480,A
2025-03-12 15:09:03.468,656, 690, 522, -24, 31, -6, 3, 10, -12, 881, 14, 519,A
2025-03-12 15:09:03.517,498, 762, 427, 30, 56, -5, 3, 9, -13, 880, 178, 444,A
2025-03-12 15:09:03.577,463, 582, 667, -56, 72, 23, 7, 7, -18, 900, 106, 514,A
2025-03-12 15:09:03.633,397, 450, 814, -22, 35, -7, 12, 9, -22, 881, 135, 515,A
2025-03-12 15:09:03.688,398, 606, 808, -60, -15, 0, 12, 9, -23, 798, 37, 483,A
2025-03-12 15:09:03.749,434, 493, 1007, -120, -88, -15, 10, 13, -22, 668, 26, 21,A
2025-03-12 15:09:03.807,492, 310, 719, 185, -78, -68, 5, 15, -17, 683, 335, 25,A
2025-03-12 15:09:03.866,603, 547, 633, 98, -59, -66, 4, 10, -12, 770, 561, 35,A
2025-03-12 15:09:03.918,604, 784, 406, -2, -29, 7, 1, 7, -9, 828, 664, 30,A
2025-03-12 15:09:03.968,588, 727, 580, -14, 2, 15, 0, 8, -10, 790, 608, 14,A
2025-03-12 15:09:04.027,551, 667, 605, -51, 6, 19, 1, 9, -9, 656, 714, 138,A
2025-03-12 15:09:04.083,493, 433, 645, -38, -19, 12, -1, 9, -9, 30, 712, 85,A
2025-03-12 15:09:04.133,437, 711, 414, -8, 8, 5, -2, 11, -8, 25, 717, 55,A
2025-03-12 15:09:04.188,560, 438, 798, 20, -35, -17, -3, 12, -9, 19, 668, 41,A
2025-03-12 15:09:04.237,506, 964, 455, 73, -18, 32, -3, 8, -5, 734, 538, 55,A
2025-03-12 15:09:04.299,630, 564, 665, 22, 11, 59, -5, 9, -2, 809, 22, 80,A
2025-03-12 15:09:04.350,615, 709, 485, 40, 24, 56, -4, 11, 2, 807, 39, 276,A
2025-03-12 15:09:04.400,606, 470, 571, -18, 8, 64, -6, 14, 0, 820, 133, 512,A
2025-03-12 15:09:04.464,820, 467, 459, -47, -30, 39, -5, 16, 2, 676, 739, 542,A
2025-03-12 15:09:04.521,755, 405, 145, 5, 4, -21, -8, 17, 3, 403, 743, 508,A
2025-03-12 15:09:04.567,577, 514, 369, -42, 49, 5, -5, 16, 4, 702, 812, 468,A
2025-03-12 15:09:04.628,843, 780, 351, -60, 14, 7, -5, 17, 1, 875, 875, 535,A
2025-03-12 15:09:04.683,585, 388, 779, -4, -23, 52, -5, 19, 1, 939, 915, 645,A
2025-03-12 15:09:04.738,747, 401, 436, 1, -4, 26, -6, 21, 1, 965, 940, 644,A
2025-03-12 15:09:04.788,806, 431, 404, -7, 1, 3, -6, 20, 2, 973, 948, 632,A
2025-03-12 15:09:04.848,746, 396, 579, -13, -12, -8, -7, 20, 2, 975, 952, 635,A
2025-03-12 15:09:04.900,615, 316, 671, 1, -13, -9, -6, 21, 4, 979, 966, 653,A
2025-03-12 15:09:04.960,963, 641, 604, 67, 13, -6, -8, 19, 5, 984, 963, 591,A
2025-03-12 15:09:05.016,935, 590, 153, -8, 34, 18, -7, 19, 3, 980, 949, 550,A
2025-03-12 15:09:05.067,591, 397, 743, -36, -13, -44, -8, 20, 4, 978, 956, 699,A
2025-03-12 15:09:05.118,986, 742, 292, 38, -11, 2, -7, 19, 3, 985, 967, 662,A
2025-03-12 15:09:05.183,809, 395, 417, 10, 37, 37, -6, 19, 4, 985, 963, 641,A
2025-03-12 15:09:05.238,410, 415, 777, -3, -15, -61, -6, 18, 2, 976, 942, 681,A
2025-03-12 15:09:05.289,859, 589, 251, -5, -17, 4, -6, 20, 4, 987, 973, 653,A
2025-03-12 15:09:05.349,801, 598, 578, 1, 25, 30, -6, 20, 4, 986, 976, 740,A
2025-03-12 15:09:05.400,834, 393, 299, -33, 120, -62, -6, 18, 2, 975, 958, 712,A
2025-03-12 15:09:05.468,412, 544, 851, -34, 77, -54, -1, 19, -4, 954, 900, 673,A
2025-03-12 15:09:05.517,475, 552, 812, -26, 24, -14, 0, 16, -5, 935, 817, 629,A
2025-03-12 15:09:05.578,516, 470, 754, -3, -14, -3, 2, 18, -6, 930, 778, 566,A
2025-03-12 15:09:05.633,627, 483, 616, -9, -4, 1, 2, 19, -5, 915, 675, 458,A
2025-03-12 15:09:05.688,550, 502, 710, -12, 3, 1, 0, 18, -7, 903, 649, 364,A
2025-03-12 15:09:05.737,571, 456, 728, -3, -4, 1, 0, 19, -6, 890, 612, 365,A
2025-03-12 15:09:05.787,593, 462, 672, 6, -9, 2, 0, 18, -6, 882, 543, 338,A
2025-03-12 15:09:05.848,608, 485, 658, 2, -1, -1, -1, 18, -6, 878, 532, 336,A
2025-03-12 15:09:05.899,572, 497, 677, -1, 1, -2, 0, 19, -4, 874, 491, 317,A
2025-03-12 15:09:05.958,571, 494, 676, -2, 0, -1, 1, 18, -4, 877, 482, 320,A
2025-03-12 15:09:06.010,591, 489, 668, -2, 0, 0, 0, 18, -6, 866, 406, 293,A
2025-03-12 15:09:06.065,587, 467, 694, -4, 3, 1, 0, 19, -8, 866, 338, 257,A
2025-03-12 15:09:06.118,572, 459, 703, -2, 0, -3, 0, 19, -6, 865, 283, 251,A
2025-03-12 15:09:06.168,586, 481, 690, -3, 0, 1, -1, 19, -7, 864, 298, 253,A
2025-03-12 15:09:06.224,586, 487, 680, -2, 2, 0, 0, 17, -6, 884, 405, 350,A
2025-03-12 15:09:06.278,575, 479, 689, 0, 1, 2, -1, 19, -6, 854, 419, 304,A
2025-03-12 15:09:06.331,589, 473, 692, -2, 2, 0, 2, 19, -7, 861, 504, 352,A
2025-03-12 15:09:06.382,570, 484, 710, -3, 1, -1, 0, 18, -6, 856, 491, 322,A
2025-03-12 15:09:06.438,576, 465, 710, 0, -2, 0, 1, 18, -6, 866, 500, 346,A
2025-03-12 15:09:06.487,588, 462, 688, -1, -1, -1, 2, 19, -7, 880, 490, 333,A
2025-03-12 15:09:06.548,578, 471, 682, -2, 0, 0, -1, 19, -7, 882, 536, 324,A
2025-03-12 15:09:06.597,576, 486, 689, -4, 1, 0, 1, 17, -7, 859, 434, 265,A
2025-03-12 15:09:06.649,576, 470, 682, -1, -1, 0, -1, 18, -6, 864, 436, 276,A
2025-03-12 15:09:06.708,586, 467, 678, -1, 2, -2, 1, 18, -6, 864, 437, 273,A
2025-03-12 15:09:09.194,639, 537, 613, -2, -29, 10, -3, 14, -2, 68, 630, 228,B
2025-03-12 15:09:09.247,605, 601, 589, 5, -28, 15, -4, 16, -2, 347, 652, 305,B
2025-03-12 15:09:09.307,743, 542, 602, -11, -21, 25, -3, 15, -2, 845, 720, 573,B
2025-03-12 15:09:09.363,642, 559, 510, 11, -12, 9, -5, 15, -2, 918, 783, 674,B
2025-03-12 15:09:09.418,661, 529, 557, 10, -14, 9, -4, 16, 0, 939, 874, 743,B
2025-03-12 15:09:09.474,639, 530, 562, 17, -33, 9, -6, 15, 2, 950, 917, 792,B
2025-03-12 15:09:09.531,731, 551, 421, 17, -29, 4, -6, 17, 2, 964, 940, 821,B
2025-03-12 15:09:09.584,754, 557, 388, -1, -8, -7, -6, 14, 3, 965, 944, 829,B
2025-03-12 15:09:09.637,676, 559, 497, -2, 1, -4, -6, 14, 4, 963, 946, 831,B
2025-03-12 15:09:09.687,674, 549, 491, 16, -12, 2, -7, 16, 3, 963, 949, 831,B
2025-03-12 15:09:09.752,698, 589, 452, 31, -10, 10, -7, 16, 2, 965, 949, 829,B
2025-03-12 15:09:09.802,774, 549, 366, 12, -2, 4, -7, 15, 5, 971, 949, 818,B
2025-03-12 15:09:09.858,633, 582, 488, 21, 15, 6, -8, 15, 4, 968, 938, 782,B
2025-03-12 15:09:09.908,726, 593, 341, 13, -1, -1, -8, 15, 3, 968, 923, 722,B
2025-03-12 15:09:09.970,761, 605, 373, -6, -10, -4, -6, 14, 3, 963, 920, 702,B
2025-03-12 15:09:10.019,648, 582, 533, 0, -48, 15, -8, 13, 5, 968, 942, 700,B
2025-03-12 15:09:10.080,668, 885, 169, 20, 43, 30, -8, 15, 7, 972, 946, 617,B
2025-03-12 15:09:10.136,690, 841, -50, -3, 32, 20, -10, 16, 4, 969, 941, 530,B
2025-03-12 15:09:10.187,694, 591, 498, -17, -36, -39, -8, 16, 4, 969, 948, 677,B
2025-03-12 15:09:10.251,801, 639, 392, 10, -15, -1, -8, 15, 7, 971, 962, 700,B
2025-03-12 15:09:10.300,652, 606, 415, 3, 17, 24, -7, 14, 5, 977, 964, 649,B
2025-03-12 15:09:10.358,837, 468, 137, -6, 24, 2, -7, 16, 4, 976, 961, 587,B
2025-03-12 15:09:10.410,663, 628, 708, 8, -10, -3, -7, 16, 3, 976, 959, 549,B
2025-03-12 15:09:10.467,805, 523, 129, -7, 24, 5, -7, 17, 4, 971, 935, 431,B
2025-03-12 15:09:10.526,880, 545, 222, -38, 59, -51, -6, 17, 4, 956, 912, 577,B
2025-03-12 15:09:10.582,492, 626, 693, -35, -14, -18, -6, 16, 1, 954, 917, 533,B
2025-03-12 15:09:10.633,634, 615, 514, 15, -32, 19, -6, 17, 2, 933, 892, 535,B
2025-03-12 15:09:10.688,802, 519, 356, -1, -8, 1, -7, 16, 2, 938, 892, 498,B
2025-03-12 15:09:10.746,720, 525, 464, -10, 7, -4, -8, 16, 2, 930, 883, 497,B
2025-03-12 15:09:11.391,722, 546, 461, -6, -1, 2, -8, 15, 3, 937, 891, 474,C
2025-03-12 15:09:11.447,723, 536, 475, -6, -1, 2, -7, 16, 1, 937, 891, 485,C
2025-03-12 15:09:11.498,723, 550, 448, -4, -2, 3, -6, 15, 3, 937, 895, 493,C
2025-03-12 15:09:11.558,719, 527, 453, -2, -2, 3, -8, 17, 4, 946, 904, 476,C
2025-03-12 15:09:11.609,728, 540, 465, -3, -2, 5, -6, 17, 2, 948, 908, 489,C
2025-03-12 15:09:11.664,723, 527, 453, 2, -6, 9, -6, 16, 4, 954, 917, 480,C
2025-03-12 15:09:11.718,642, 510, 560, 5, -27, 11, -7, 17, 4, 957, 924, 472,C
2025-03-12 15:09:11.767,713, 613, 343, -25, -17, -16, -8, 20, 5, 960, 938, 380,C
2025-03-12 15:09:11.831,1479, 788, 229, 50, 26, 9, -7, 15, 5, 968, 935, 187,C
2025-03-12 15:09:11.882,851, 561, 561, -28, 33, 49, -8, 15, 4, 968, 944, 351,C
2025-03-12 15:09:11.938,485, 438, 647, -30, 69, -52, -6, 17, 3, 959, 938, 532,C
2025-03-12 15:09:11.998,541, 578, 662, -23, -4, -17, -8, 17, 1, 947, 921, 518,C
2025-03-12 15:09:12.280,715, 529, 460, 2, -9, 4, -7, 17, 2, 955, 918, 455,D
2025-03-12 15:09:12.338,725, 530, 449, 2, -9, 4, -6, 15, 3, 955, 918, 453,D
2025-03-12 15:09:12.398,707, 516, 467, -5, -13, -1, -8, 18, 2, 959, 925, 437,D
2025-03-12 15:09:12.447,723, 536, 479, 2, -31, 3, -8, 15, 5, 960, 935, 449,D
2025-03-12 15:09:12.501,760, 299, 553, 38, 1, -14, -8, 15, 5, 969, 941, 414,D
2025-03-12 15:09:12.562,1171, 709, 203, -9, 36, 41, -8, 17, 3, 972, 936, 83,D
2025-03-12 15:09:12.616,791, -14, 740, 1, -39, -50, -6, 19, 3, 969, 932, 419,D
2025-03-12 15:09:12.669,963, 458, 641, 12, -24, -7, -7, 17, 4, 973, 957, 601,D
2025-03-12 15:09:12.730,889, 1041, 308, -3, 27, 40, -8, 17, 5, 979, 960, 482,D
2025-03-12 15:09:12.782,831, 316, 284, -7, 25, 6, -7, 15, 5, 969, 929, 281,D
2025-03-12 15:09:12.840,672, 434, 497, -32, 64, -49, -7, 18, 2, 951, 902, 456,D
2025-03-12 15:09:13.127,667, 523, 564, -1, -37, 4, -9, 18, 5, 957, 923, 378,E
2025-03-12 15:09:13.187,685, 476, 566, 7, -39, 7, -9, 18, 5, 956, 926, 389,E
2025-03-12 15:09:13.245,744, 413, 330, 18, -5, -10, -8, 16, 4, 959, 927, 367,E
2025-03-12 15:09:13.298,656, 821, 552, 30, 40, 32, -8, 18, 3, 975, 931, 25,E
2025-03-12 15:09:13.348,970, 623, 221, -16, 20, 14, -8, 19, 3, 965, 920, 46,E
2025-03-12 15:09:13.413,394, 673, 942, -19, -28, -31, -8, 17, 3, 962, 933, 407,E
2025-03-12 15:09:13.464,892, 999, 105, 47, -3, 6, -7, 16, 7, 969, 954, 536,E
2025-03-12 15:09:13.518,635, 366, 695, 26, 12, 22, -7, 16, 6, 963, 945, 634,E
2025-03-12 15:09:13.577,589, 475, 565, 16, -7, -15, -6, 17, 4, 957, 927, 560,E
2025-03-12 15:09:13.631,843, 854, 292, 2, 8, 13, -10, 18, 4, 967, 946, 499,E
2025-03-12 15:09:13.688,714, 531, 553, 11, 15, 19, -8, 16, 4, 960, 936, 561,E
2025-03-12 15:09:13.738,610, 598, 648, 5, -24, -5, -7, 17, 6, 958, 887, 310,E
2025-03-12 15:09:13.788,892, 735, 381, -7, 7, 33, -7, 16, 4, 965, 940, 474,E
2025-03-12 15:09:13.851,919, 327, 72, -27, 59, -53, -8, 18, 3, 948, 922, 554,E
2025-03-12 15:09:13.908,425, 634, 793, -26, 12, -35, -4, 16, -1, 944, 903, 570,E
2025-03-12 15:09:14.148,685, 562, 479, -4, -23, 3, -8, 16, 4, 954, 924, 511,F
2025-03-12 15:09:14.202,677, 536, 531, -3, -28, 4, -7, 16, 2, 952, 924, 526,F
2025-03-12 15:09:14.260,759, 584, 461, 0, -8, -4, -7, 16, 5, 958, 936, 472,F
2025-03-12 15:09:14.314,665, 384, 623, 28, 21, 22, -7, 17, 5, 962, 927, 295,F
2025-03-12 15:09:14.368,916, 583, 149, -4, 21, 20, -8, 16, 5, 965, 920, 40,F
2025-03-12 15:09:14.417,715, 254, 288, 2, -42, -69, -7, 17, 4, 952, 918, 463,F
2025-03-12 15:09:14.479,516, 685, 646, 5, -67, 4, -6, 16, 5, 958, 938, 435,F
2025-03-12 15:09:14.532,735, 551, 108, 11, 6, 35, -8, 15, 5, 972, 955, 532,F
2025-03-12 15:09:14.588,682, 577, 414, 21, 33, 18, -8, 16, 5, 965, 945, 616,F
2025-03-12 15:09:14.638,507, 668, 640, 17, -31, 0, -7, 15, 5, 959, 910, 545,F
2025-03-12 15:09:14.700,932, 834, 330, -12, 16, 32, -7, 16, 6, 967, 946, 483,F
2025-03-12 15:09:14.751,986, 277, 152, -21, 51, -28, -6, 16, 3, 957, 931, 592,F
2025-03-12 15:09:14.814,487, 611, 784, -14, 22, -29, -6, 15, 1, 946, 904, 636,F
2025-03-12 15:09:15.043,645, 538, 504, 3, -24, 17, -7, 18, 4, 955, 923, 400,G
2025-03-12 15:09:15.096,612, 533, 565, 9, -30, 19, -8, 18, 4, 955, 924, 409,G
2025-03-12 15:09:15.148,833, 527, 212, -19, 3, -14, -8, 15, 7, 960, 942, 392,G
2025-03-12 15:09:15.207,660, 518, 360, 49, 8, -11, -7, 18, 5, 964, 937, 163,G
2025-03-12 15:09:15.265,766, 646, -146, -11, 42, 38, -8, 17, 5, 970, 935, 42,G
2025-03-12 15:09:15.317,605, 301, 737, -13, -16, -1, -7, 17, 5, 963, 942, 331,G
2025-03-12 15:09:15.379,669, 509, 340, 28, -15, -16, -8, 16, 4, 966, 945, 393,G
2025-03-12 15:09:15.432,760, 532, 308, -10, 21, 20, -7, 17, 4, 967, 942, 284,G
2025-03-12 15:09:15.488,465, 453, 672, -5, -12, -43, -6, 17, 3, 961, 935, 356,G
2025-03-12 15:09:15.547,851, 394, 77, 36, -5, -2, -8, 16, 3, 968, 950, 381,G
2025-03-12 15:09:15.598,739, 553, 541, -2, 10, 20, -6, 17, 3, 969, 947, 429,G
2025-03-12 15:09:15.858,766, 517, 429, -7, 2, 0, -7, 15, 2, 945, 885, 376,H
2025-03-12 15:09:15.912,757, 521, 441, -7, 3, -1, -6, 16, 2, 948, 883, 341,H
2025-03-12 15:09:15.966,695, 514, 510, -2, -4, 0, -6, 17, 3, 945, 886, 338,H
2025-03-12 15:09:16.018,741, 553, 432, -2, -7, 1, -7, 16, 3, 944, 890, 360,H
2025-03-12 15:09:16.068,721, 519, 440, -5, 0, -4, -7, 18, 2, 942, 886, 366,H
2025-03-12 15:09:16.129,697, 538, 508, -9, -5, -4, -5, 16, 5, 944, 891, 380,H
2025-03-12 15:09:16.184,702, 542, 467, -12, -14, -2, -7, 17, 5, 943, 896, 406,H
2025-03-12 15:09:16.238,729, 451, 574, 18, -38, 13, -6, 16, 6, 950, 922, 407,H
2025-03-12 15:09:16.298,727, 660, 543, 52, 22, 12, -8, 15, 6, 962, 927, 27,H
2025-03-12 15:09:16.351,635, 387, 42, -12, 30, 24, -8, 17, 3, 957, 901, 72,H
2025-03-12 15:09:16.407,666, 300, 409, 18, -35, -55, -8, 18, 4, 955, 896, 275,H
2025-03-12 15:09:16.465,829, 781, -112, 35, -18, 19, -7, 17, 5, 963, 944, 428,H
2025-03-12 15:09:16.518,748, 254, 584, -4, 11, 1, -7, 16, 3, 956, 935, 603,H
2025-03-12 15:09:16.571,473, 608, 763, 1, -29, -9, -7, 16, 4, 953, 929, 653,H
2025-03-12 15:09:16.629,512, 541, -90, 27, 38, 35, -7, 17, 5, 965, 934, 435,H
2025-03-12 15:09:16.681,938, 312, 469, 7, 15, 1, -8, 16, 4, 957, 908, 549,H
2025-03-12 15:09:16.955,696, 546, 447, -12, -2, -4, -8, 16, 3, 956, 900, 379,I
2025-03-12 15:09:17.008,729, 537, 441, -12, -2, -3, -9, 18, 4, 953, 898, 386,I
2025-03-12 15:09:17.066,682, 525, 492, -1, -9, -1, -7, 16, 4, 954, 901, 401,I
2025-03-12 15:09:17.118,747, 692, 431, -2, -17, -16, -7, 15, 7, 962, 920, 30,I
2025-03-12 15:09:17.168,586, 607, 52, 3, 1, 48, -9, 16, 4, 971, 944, 404,I
2025-03-12 15:09:17.231,703, 549, 460, 15, 11, 17, -8, 15, 5, 968, 945, 447,I
2025-03-12 15:09:17.283,567, 593, 563, -8, -8, -31, -7, 18, 5, 959, 935, 535,I
2025-03-12 15:09:17.338,479, 621, 437, 18, 11, 13, -8, 16, 6, 968, 934, 371,I
2025-03-12 15:09:17.394,743, 451, 285, 8, 38, 24, -6, 16, 4, 969, 918, 229,I
2025-03-12 15:09:17.448,448, 572, 787, 9, -11, -24, -7, 16, 6, 954, 857, 302,I
2025-03-12 15:09:17.498,976, 1010, 342, -4, 4, 22, -6, 16, 6, 966, 934, 442,I
2025-03-12 15:09:17.562,1076, 244, 222, -16, 27, -26, -8, 17, 3, 956, 918, 546,I
2025-03-12 15:09:17.823,612, 531, 542, -34, -13, -14, -8, 16, 4, 952, 897, 298,J
2025-03-12 15:09:17.879,598, 546, 587, -32, -21, -10, -6, 16, 5, 949, 892, 215,J
2025-03-12 15:09:17.938,945, 380, 109, 15, -11, -3, -7, 16, 7, 962, 933, 237,J
2025-03-12 15:09:17.988,737, 570, 650, 11, 4, 37, -8, 17, 6, 966, 944, 395,J
2025-03-12 15:09:18.045,724, 307, 271, 0, 6, -14, -8, 17, 7, 958, 935, 464,J
2025-03-12 15:09:18.098,933, 373, 577, 20, -8, -18, -7, 13, 7, 963, 935, 404,J
2025-03-12 15:09:18.158,792, 854, 119, -13, 43, 50, -8, 17, 5, 976, 947, 101,J
2025-03-12 15:09:18.213,758, -55, 788, -14, 18, -30, -7, 18, 3, 960, 920, 72,J
2025-03-12 15:09:18.268,614, 505, 725, -4, 49, -22, -6, 18, 3, 940, 895, 295,J
2025-03-12 15:09:18.557,2083, 349, 108, -9, -6, -6, -8, 16, 6, 957, 934, 415,K
2025-03-12 15:09:18.611,699, 669, 517, -3, -6, -4, -7, 16, 2, 958, 934, 411,K
2025-03-12 15:09:18.668,775, 501, 544, 31, 0, -2, -8, 16, 5, 970, 931, 381,K
2025-03-12 15:09:18.717,1109, 718, 289, 6, 34, 25, -6, 16, 5, 967, 914, 39,K
2025-03-12 15:09:18.772,979, 630, 645, -29, -6, 35, -7, 17, 4, 974, 946, 53,K
2025-03-12 15:09:18.830,526, 305, 308, 12, -29, -10, -8, 19, 5, 968, 951, 120,K
2025-03-12 15:09:18.888,808, 417, 153, -4, 47, -38, -7, 17, 6, 959, 927, 296,K
2025-03-12 15:09:18.946,912, 636, 506, 19, -47, 47, -6, 17, 4, 964, 925, 159,K
2025-03-12 15:09:18.998,813, 545, 216, -25, 31, 67, -7, 18, 3, 970, 942, 136,K
2025-03-12 15:09:19.047,851, 354, 78, -19, 57, -79, -7, 20, 1, 959, 923, 198,K
2025-03-12 15:09:19.355,677, 526, 500, -8, -9, -3, -8, 16, 3, 956, 909, 376,L
2025-03-12 15:09:19.407,691, 509, 479, -5, -10, -3, -8, 16, 3, 949, 905, 381,L
2025-03-12 15:09:19.468,687, 508, 516, -1, -26, -2, -4, 15, 3, 951, 915, 411,L
2025-03-12 15:09:19.518,2492, 194, 166, -2, -18, -14, -7, 17, 7, 956, 930, 428,L
2025-03-12 15:09:19.580,613, 725, 330, 41, 19, 9, -10, 17, 5, 965, 927, 118,L
2025-03-12 15:09:19.635,1110, 826, -12, 2, 17, 9, -8, 19, 5, 966, 923, 47,L
2025-03-12 15:09:19.687,579, 497, 423, -40, 13, 47, -7, 19, 3, 968, 946, 99,L
2025-03-12 15:09:19.737,864, 516, 339, 22, 8, -6, -9, 16, 5, 959, 932, 374,L
2025-03-12 15:09:19.798,543, 520, 719, -40, 46, -47, -7, 17, 2, 944, 894, 257,L
2025-03-12 15:09:20.077,658, 534, 523, -5, -30, -2, -8, 18, 4, 947, 916, 385,M
2025-03-12 15:09:20.130,677, 492, 566, 1, -36, 0, -7, 16, 6, 952, 925, 401,M
2025-03-12 15:09:20.188,759, 303, 524, 5, -13, -14, -8, 16, 5, 952, 926, 217,M
2025-03-12 15:09:20.246,585, 768, 331, 19, 31, 34, -8, 15, 6, 961, 919, 58,M
2025-03-12 15:09:20.300,846, 566, 339, -11, 29, 12, -8, 17, 5, 956, 920, 170,M
2025-03-12 15:09:20.361,878, 600, 504, -42, -25, -21, -6, 16, 5, 955, 938, 375,M
2025-03-12 15:09:20.414,737, 681, 188, 38, -5, 1, -8, 16, 4, 966, 942, 372,M
2025-03-12 15:09:20.468,781, 559, 275, -8, 24, 26, -7, 19, 5, 973, 945, 376,M
2025-03-12 15:09:20.528,593, 458, 483, -14, -22, -8, -8, 16, 5, 961, 939, 388,M
2025-03-12 15:09:20.581,917, 1007, -39, 36, 39, 26, -8, 16, 5, 965, 935, 383,M
2025-03-12 15:09:20.638,943, 306, 329, -27, 35, -25, -5, 16, 7, 962, 929, 361,M
2025-03-12 15:09:20.696,566, 539, 773, -37, 7, -28, -5, 18, 1, 963, 932, 301,M
2025-03-12 15:09:20.948,714, 516, 477, -10, -5, -6, -8, 19, 5, 955, 919, 351,N
2025-03-12 15:09:21.000,714, 516, 493, -9, -7, -6, -6, 17, 4, 956, 921, 362,N
2025-03-12 15:09:21.058,682, 536, 504, 2, -27, 7, -8, 16, 7, 960, 932, 416,N
2025-03-12 15:09:21.108,742, 398, 356, 3, 0, -3, -9, 17, 5, 961, 932, 368,N
2025-03-12 15:09:21.163,160, 556, 412, 54, 31, 23, -6, 16, 4, 970, 920, 178,N
2025-03-12 15:09:21.218,872, 534, 532, -11, 9, 1, -7, 17, 4, 960, 917, 305,N
2025-03-12 15:09:21.277,669, 593, 617, -47, -32, -15, -7, 16, 6, 961, 941, 399,N
2025-03-12 15:09:21.329,791, 673, 428, 20, 8, 25, -7, 16, 7, 971, 947, 363,N
2025-03-12 15:09:21.388,705, 683, 140, -19, 22, 42, -7, 18, 4, 969, 933, 75,N
2025-03-12 15:09:21.444,1188, 405, 288, 22, -31, -28, -7, 19, 6, 964, 943, 307,N
2025-03-12 15:09:21.498,727, 500, 365, -17, 80, -23, -5, 16, 6, 959, 935, 372,N
2025-03-12 15:09:21.551,551, 560, 728, 0, 2, 10, -6, 18, 0, 957, 909, 247,N
2025-03-12 15:09:21.810,714, 488, 522, -5, -7, 4, -6, 18, 3, 952, 906, 294,O
2025-03-12 15:09:21.861,735, 484, 501, -1, -7, 6, -7, 18, 3, 953, 905, 267,O
2025-03-12 15:09:21.911,682, 522, 514, 1, -16, 13, -7, 19, 3, 955, 912, 289,O
2025-03-12 15:09:21.972,867, 657, 404, -9, -7, -13, -7, 19, 5, 958, 933, 169,O
2025-03-12 15:09:22.027,611, 391, 536, 4, -2, -21, -8, 18, 4, 968, 938, 42,O
2025-03-12 15:09:22.078,914, 1094, -187, -1, 51, 57, -8, 16, 6, 971, 935, 46,O
2025-03-12 15:09:22.129,668, 163, 919, -55, -18, 2, -6, 19, 5, 970, 950, 72,O
2025-03-12 15:09:22.195,896, 351, 175, 76, -23, -44, -7, 18, 6, 955, 941, 358,O
2025-03-12 15:09:22.248,647, 736, 461, -50, 89, -23, -7, 17, 4, 935, 907, 300,O
2025-03-12 15:09:22.553,689, 471, 544, -5, -25, 2, -6, 17, 4, 934, 893, 325,P
2025-03-12 15:09:22.608,673, 470, 553, 0, -30, 3, -6, 18, 3, 936, 899, 322,P
2025-03-12 15:09:22.662,694, 560, 364, 27, -6, -7, -7, 18, 5, 953, 922, 54,P
2025-03-12 15:09:22.712,947, 690, 514, -12, 50, 44, -6, 18, 5, 966, 923, 72,P
2025-03-12 15:09:22.771,700, 208, 722, -19, -11, -12, -7, 19, 3, 965, 935, 29,P
2025-03-12 15:09:22.828,787, 590, 710, -32, -32, -17, -8, 16, 5, 964, 951, 375,P
2025-03-12 15:09:22.879,549, 938, 65, -5, 17, 26, -7, 17, 6, 972, 958, 61,P
2025-03-12 15:09:22.929,795, 438, 386, 8, 25, 16, -7, 18, 5, 968, 941, 66,P
2025-03-12 15:09:22.993,620, 444, 632, -34, 66, -37, -6, 17, 1, 959, 928, 188,P
2025-03-12 15:09:23.277,683, 497, 528, 10, -34, 5, -7, 16, 5, 960, 937, 364,Q
2025-03-12 15:09:23.337,798, 462, 407, -17, -26, -5, -7, 16, 5, 960, 941, 279,Q
2025-03-12 15:09:23.387,476, 430, 732, 4, 3, -20, -8, 19, 4, 960, 944, 75,Q
2025-03-12 15:09:23.447,1029, 875, 23, -6, 41, 45, -8, 16, 4, 978, 948, 23,Q
2025-03-12 15:09:23.499,631, 207, 655, -41, -17, 14, -6, 19, 3, 973, 952, 50,Q
2025-03-12 15:09:23.557,800, 279, 278, 31, -15, -40, -8, 18, 5, 956, 944, 243,Q
2025-03-12 15:09:23.612,458, 613, 1066, -11, 0, -3, -7, 18, 2, 959, 929, 42,Q
2025-03-12 15:09:23.668,945, 602, 201, -60, 11, 55, -8, 18, 3, 971, 949, 57,Q
2025-03-12 15:09:23.722,944, -22, 485, 1, 25, 6, -6, 19, 4, 971, 940, 53,Q
2025-03-12 15:09:23.772,649, 458, 519, -3, 74, -72, -5, 18, 1, 948, 905, 273,Q
2025-03-12 15:09:24.057,700, 518, 458, -3, -21, -1, -7, 19, 2, 950, 921, 417,R
2025-03-12 15:09:24.112,697, 520, 466, -6, -24, -2, -7, 19, 2, 945, 919, 417,R
2025-03-12 15:09:24.168,814, 201, 306, 2, -9, -21, -8, 18, 4, 955, 930, 263,R
2025-03-12 15:09:24.219,624, 629, 407, 37, 27, 29, -7, 16, 5, 966, 930, 60,R
2025-03-12 15:09:24.271,739, 387, 254, 3, 19, 17, -7, 19, 3, 965, 929, 67,R
2025-03-12 15:09:24.327,733, 626, 456, 18, -44, -53, -8, 21, 2, 962, 941, 370,R
2025-03-12 15:09:24.387,644, 785, 310, -13, -17, 7, -7, 16, 4, 973, 955, 166,R
2025-03-12 15:09:24.444,794, 567, 485, -16, 36, 33, -8, 17, 6, 968, 942, 80,R
2025-03-12 15:09:24.493,915, 968, 313, -13, 32, 62, -5, 19, 3, 971, 943, 52,R
2025-03-12 15:09:24.547,885, 210, 151, -28, 62, -55, -7, 20, 3, 972, 943, 37,R
2025-03-12 15:09:24.857,679, 474, 542, -6, -13, 7, -6, 18, 4, 957, 930, 353,S
2025-03-12 15:09:24.910,689, 483, 530, -4, -14, 8, -6, 18, 1, 957, 930, 349,S
2025-03-12 15:09:24.968,699, 463, 523, 4, -32, 14, -6, 23, 1, 969, 941, 340,S
2025-03-12 15:09:25.017,654, 507, 633, -4, -3, -17, -7, 20, 4, 965, 945, 65,S
2025-03-12 15:09:25.072,661, 676, 371, 50, 6, -11, -7, 18, 4, 967, 941, 78,S
2025-03-12 15:09:25.127,650, 629, 388, -4, 29, 50, -5, 18, 5, 973, 947, 75,S
2025-03-12 15:09:25.178,589, 451, 577, -9, 8, 20, -6, 19, 3, 971, 945, 72,S
2025-03-12 15:09:25.237,1171, 251, 300, 39, 17, -36, -8, 20, 3, 952, 895, 268,S
2025-03-12 15:09:25.295,433, 492, 942, -18, 31, -33, -4, 18, 2, 940, 894, 277,S
2025-03-12 15:09:25.603,693, 507, 516, -14, -14, -5, -6, 17, 2, 942, 888, 30,T
2025-03-12 15:09:25.660,684, 510, 509, -13, -15, -2, -7, 19, 3, 943, 890, 58,T
2025-03-12 15:09:25.717,1040, 391, -57, -73, -14, -23, -9, 19, 3, 955, 905, 50,T
2025-03-12 15:09:25.770,630, 591, 279, -28, -4, 55, -8, 16, 5, 972, 942, 195,T
2025-03-12 15:09:25.829,652, 316, 526, 20, 12, 29, -7, 21, 3, 976, 941, 368,T
2025-03-12 15:09:25.882,541, 460, 665, 8, 6, -36, -7, 20, 4, 962, 929, 431,T
2025-03-12 15:09:25.932,664, 743, 314, 7, 2, 3, -5, 19, 7, 968, 936, 331,T
2025-03-12 15:09:25.988,536, 384, 442, 10, 30, 35, -7, 18, 4, 971, 924, 185,T
2025-03-12 15:09:26.044,1031, 180, 445, -9, 21, -34, -7, 20, 2, 962, 894, 244,T
2025-03-12 15:09:26.098,551, 586, 727, -30, 16, -31, -5, 17, 2, 941, 885, 327,T
2025-03-12 15:09:26.408,705, 474, 534, 4, -18, 2, -6, 18, 5, 939, 866, 366,U
2025-03-12 15:09:26.460,714, 479, 515, 4, -19, 1, -6, 20, 3, 941, 870, 370,U
2025-03-12 15:09:26.518,682, 470, 562, -4, -27, 4, -5, 19, 4, 945, 898, 350,U
2025-03-12 15:09:26.578,737, 635, 434, -2, -10, -7, -7, 17, 3, 958, 925, 148,U
2025-03-12 15:09:26.627,1168, 450, 623, 18, 22, 15, -6, 18, 6, 971, 929, 38,U
2025-03-12 15:09:26.677,658, 552, 135, -47, 37, 54, -6, 19, 4, 969, 934, 83,U
2025-03-12 15:09:26.737,269, 203, 926, 7, -32, -39, -6, 18, 5, 963, 942, 294,U
2025-03-12 15:09:26.798,824, 583, 363, 45, -12, -20, -7, 19, 4, 970, 943, 324,U
2025-03-12 15:09:26.848,858, 561, 482, 3, 23, 30, -7, 21, 3, 967, 932, 287,U
2025-03-12 15:09:26.909,705, 393, 514, -23, 48, -44, -5, 17, 5, 956, 916, 290,U
2025-03-12 15:09:27.180,733, 517, 510, 3, -15, -9, -5, 19, 3, 946, 896, 357,V
2025-03-12 15:09:27.238,721, 533, 515, 4, -18, -5, -5, 19, 3, 947, 899, 379,V
2025-03-12 15:09:27.287,765, 369, 370, 0, -2, -7, -8, 18, 3, 958, 920, 348,V
2025-03-12 15:09:27.347,731, 415, 539, -6, -12, -7, -8, 17, 4, 964, 939, 263,V
2025-03-12 15:09:27.398,815, 489, 447, -15, 31, 44, -7, 17, 4, 969, 933, 56,V
2025-03-12 15:09:27.448,845, 775, 201, -59, 6, 25, -9, 19, 4, 974, 947, 39,V
2025-03-12 15:09:27.511,835, 306, 516, 15, -12, -10, -8, 20, 4, 970, 950, 303,V
2025-03-12 15:09:27.569,751, 411, 437, -13, 75, -24, -6, 18, 5, 959, 932, 348,V
2025-03-12 15:09:27.625,555, 460, 772, -9, 22, -2, -6, 18, 2, 953, 891, 213,V
2025-03-12 15:09:27.888,709, 502, 531, 15, -8, -4, -7, 19, 1, 940, 789, 163,W
2025-03-12 15:09:27.942,712, 513, 514, 12, -9, -5, -8, 18, 2, 938, 791, 185,W
2025-03-12 15:09:27.998,642, 465, 596, 18, -21, -4, -5, 18, 3, 932, 805, 287,W
2025-03-12 15:09:28.048,978, 261, 124, -21, -11, -18, -6, 17, 4, 945, 886, 157,W
2025-03-12 15:09:28.110,766, 547, 555, 23, -10, 1, -7, 17, 3, 967, 925, 91,W
2025-03-12 15:09:28.163,702, 638, 85, -16, 15, 34, -7, 18, 3, 970, 935, 71,W
2025-03-12 15:09:28.218,770, 298, 558, -5, -31, -27, -8, 17, 5, 968, 944, 187,W
2025-03-12 15:09:28.276,925, 870, 206, 27, 7, 27, -7, 18, 4, 972, 941, 183,W
2025-03-12 15:09:28.329,733, 589, 469, -54, 12, 31, -7, 20, 2, 972, 944, 72,W
2025-03-12 15:09:28.387,1056, 321, 86, -3, 57, -37, -8, 20, 3, 962, 933, 177,W
2025-03-12 15:09:28.437,524, 680, 891, -8, 34, -15, -5, 18, 3, 956, 910, 200,W
2025-03-12 15:09:28.687,728, 498, 517, 1, -14, 7, -8, 20, 4, 949, 896, 290,X
2025-03-12 15:09:28.748,714, 515, 489, -1, -15, 8, -8, 19, 3, 950, 898, 299,X
2025-03-12 15:09:28.797,653, 462, 613, -14, -41, 14, -6, 18, 4, 961, 921, 219,X
2025-03-12 15:09:28.858,842, 379, 624, 20, -1, -11, -7, 20, 4, 967, 939, 44,X
2025-03-12 15:09:28.915,1061, 571, -30, 10, 35, 24, -8, 20, 4, 969, 933, 51,X
2025-03-12 15:09:28.984,909, 35, 717, 22, -33, -80, -8, 20, 3, 954, 911, 167,X
2025-03-12 15:09:29.026,735, 682, 357, 18, -27, -8, -8, 19, 4, 970, 944, 259,X
2025-03-12 15:09:29.077,787, 612, 272, -25, 47, 72, -7, 18, 5, 971, 945, 50,X
2025-03-12 15:09:29.141,798, 329, 250, -19, 47, -55, -7, 19, 3, 965, 934, 227,X
2025-03-12 15:09:29.193,513, 519, 943, -20, -4, -22, -5, 18, 1, 932, 914, 337,X
2025-03-12 15:09:29.439,684, 458, 558, 2, -14, 0, -6, 21, 0, 945, 909, 366,Y
2025-03-12 15:09:29.498,700, 463, 537, 3, -17, -1, -6, 21, 0, 944, 909, 367,Y
2025-03-12 15:09:29.548,710, 528, 504, 5, -39, 4, -7, 19, 4, 944, 919, 305,Y
2025-03-12 15:09:29.598,785, 371, 542, 7, -7, -9, -7, 17, 5, 961, 934, 57,Y
2025-03-12 15:09:29.658,804, 382, 359, 10, 19, 32, -6, 16, 6, 972, 940, 74,Y
2025-03-12 15:09:29.714,1050, 204, 315, -9, 25, -4, -8, 18, 2, 963, 930, 324,Y
2025-03-12 15:09:29.771,378, 523, 1009, -5, -37, -8, -6, 18, 2, 952, 923, 359,Y
2025-03-12 15:09:29.825,702, 769, 102, -14, 2, 5, -8, 19, 4, 968, 940, 53,Y
2025-03-12 15:09:29.879,875, 542, 382, 41, 32, 20, -8, 19, 5, 969, 926, 69,Y
2025-03-12 15:09:29.931,1211, 301, 348, -35, 46, -21, -5, 19, 5, 952, 885, 248,Y
2025-03-12 15:09:29.994,386, 470, 944, -45, -7, -18, -6, 19, 1, 939, 890, 168,Y
2025-03-12 15:09:30.238,888, 541, 418, -83, -4, -29, -8, 18, 4, 949, 903, 43,Z
2025-03-12 15:09:30.294,831, 316, 140, -11, 1, -11, -8, 18, 5, 953, 910, 44,Z
2025-03-12 15:09:30.347,730, 869, 276, -10, -3, 35, -7, 18, 6, 973, 943, 40,Z
2025-03-12 15:09:30.398,756, 737, 604, 62, 4, 24, -7, 18, 6, 969, 922, 83,Z
2025-03-12 15:09:30.460,1231, 538, 156, -1, 13, -23, -8, 17, 4, 962, 866, 24,Z
2025-03-12 15:09:30.518,894, 549, 277, -42, -1, 39, -7, 18, 5, 970, 934, 128,Z
2025-03-12 15:09:30.568,662, 349, 620, 1, 6, 17, -6, 19, 3, 967, 930, 56,Z
2025-03-12 15:09:30.621,260, 457, 837, 8, 4, -68, -7, 17, 3, 951, 901, 210,Z
2025-03-12 15:09:30.678,823, 821, 65, -49, -27, 2, -7, 17, 6, 970, 949, 79,Z
2025-03-12 15:09:30.728,764, 580, 557, 1, 13, 31, -8, 16, 5, 970, 938, 133,Z
2025-03-12 15:09:30.788,584, 558, 539, -7, 75, -45, -8, 16, 4, 947, 872, 179,Z
2025-03-12 15:09:31.048,737, 521, 445, -5, 1, 4, -7, 18, 3, 946, 830, 220,a
2025-03-12 15:09:31.098,744, 514, 453, -6, 1, 5, -6, 18, 3, 949, 833, 187,a
2025-03-12 15:09:31.150,675, 490, 560, 0, -6, 9, -7, 19, 2, 949, 855, 233,a
2025-03-12 15:09:31.210,609, 550, 579, 13, -41, 18, -7, 18, 4, 952, 887, 236,a
2025-03-12 15:09:31.261,548, 398, 572, -13, -9, -25, -7, 17, 3, 957, 924, 66,a
2025-03-12 15:09:31.320,884, 919, -149, 11, 9, -3, -8, 15, 5, 973, 929, 25,a
2025-03-12 15:09:31.378,774, 529, 240, -43, 20, 31, -7, 20, 3, 972, 943, 47,a
2025-03-12 15:09:31.428,732, 303, 708, 18, -21, -19, -8, 17, 5, 970, 942, 37,a
2025-03-12 15:09:31.488,863, 357, 444, -3, 16, 26, -8, 18, 6, 970, 937, 43,a
2025-03-12 15:09:31.541,505, 475, 722, -24, 41, -36, -7, 19, 2, 959, 930, 52,a
2025-03-12 15:09:31.808,702, 487, 525, 0, -20, 3, -8, 18, 4, 937, 906, 288,b
2025-03-12 15:09:31.860,710, 484, 512, -1, -21, 4, -6, 18, 4, 939, 909, 284,b
2025-03-12 15:09:31.910,750, 546, 476, 3, -2, -4, -9, 20, 5, 951, 923, 65,b
2025-03-12 15:09:31.970,355, 667, 677, -3, 33, 32, -8, 18, 3, 967, 927, 53,b
2025-03-12 15:09:32.020,698, 618, 72, 7, 14, 5, -7, 19, 4, 958, 907, 52,b
2025-03-12 15:09:32.078,848, 631, 276, 24, -21, -30, -7, 18, 3, 956, 942, 251,b
2025-03-12 15:09:32.128,559, 373, 502, -20, 4, 27, -8, 18, 5, 969, 950, 70,b
2025-03-12 15:09:32.178,969, 172, 465, 6, 25, 14, -7, 19, 6, 968, 942, 37,b
2025-03-12 15:09:32.242,904, 508, 238, -58, 80, -47, -7, 18, 3, 954, 918, 75,b
2025-03-12 15:09:32.297,395, 602, 757, -7, -19, -2, -5, 19, -1, 960, 922, 55,b
2025-03-12 15:09:32.539,661, 519, 544, 10, -19, 14, -7, 18, 3, 960, 913, 35,c
2025-03-12 15:09:32.593,653, 529, 556, 7, -25, 17, -6, 18, 5, 960, 916, 31,c
2025-03-12 15:09:32.648,678, 635, 354, -17, -8, -12, -8, 18, 4, 961, 934, 55,c
2025-03-12 15:09:32.698,1028, 341, 520, 24, -6, -26, -7, 18, 5, 971, 942, 28,c
2025-03-12 15:09:32.763,937, 822, -91, 18, 30, 41, -6, 18, 5, 972, 938, 77,c
2025-03-12 15:09:32.814,955, 107, 333, -11, 5, -21, -8, 21, 3, 968, 940, 70,c
2025-03-12 15:09:32.870,489, 511, 865, -6, 25, -24, -7, 18, 2, 954, 928, 47,c
2025-03-12 15:09:33.167,734, 502, 468, 2, -5, 4, -6, 20, 3, 949, 902, 44,d
2025-03-12 15:09:33.218,722, 496, 476, 2, -5, 4, -8, 19, 6, 947, 901, 53,d
2025-03-12 15:09:33.274,720, 494, 503, 5, -12, 8, -6, 19, 3, 949, 905, 70,d
2025-03-12 15:09:33.327,744, 491, 447, 5, -20, 8, -6, 17, 5, 957, 916, 33,d
2025-03-12 15:09:33.378,744, 458, 480, -11, -1, -10, -6, 18, 5, 954, 929, 60,d
2025-03-12 15:09:33.438,600, 368, 562, 6, -13, -30, -6, 18, 6, 963, 939, 42,d
2025-03-12 15:09:33.491,465, 902, 142, 43, 14, 8, -8, 18, 4, 969, 934, 74,d
2025-03-12 15:09:33.547,808, 779, 263, -67, 30, 40, -8, 18, 2, 978, 951, 40,d
2025-03-12 15:09:33.597,899, 449, 451, -8, -23, -28, -8, 19, 5, 967, 953, 68,d
2025-03-12 15:09:33.659,750, 307, 667, 25, -20, -23, -8, 20, 3, 971, 955, 44,d
2025-03-12 15:09:33.710,791, 641, 260, 10, 35, 42, -8, 19, 5, 978, 953, 64,d
2025-03-12 15:09:33.769,810, 596, 441, -19, 19, 22, -6, 17, 5, 974, 945, 76,d
2025-03-12 15:09:33.819,937, 561, 45, -41, 68, -44, -6, 19, 5, 962, 934, 41,d
2025-03-12 15:09:33.876,436, 494, 808, -10, 7, -8, -8, 18, 1, 953, 912, 35,d
2025-03-12 15:09:33.927,777, 493, 432, 15, -27, 7, -6, 19, 0, 947, 899, 52,d
2025-03-12 15:09:33.977,772, 493, 436, -6, 4, -3, -6, 20, 1, 950, 897, 27,d
2025-03-12 15:09:34.236,708, 498, 506, 1, 1, -2, -5, 18, 2, 943, 873, 52,e
2025-03-12 15:09:34.287,707, 499, 521, 1, 1, -1, -7, 18, 1, 944, 872, 41,e
2025-03-12 15:09:34.343,639, 467, 583, 15, -18, 4, -6, 19, 4, 944, 877, 59,e
2025-03-12 15:09:34.398,1017, 400, 338, 26, -15, -3, -6, 19, 2, 962, 925, 45,e
2025-03-12 15:09:34.448,748, 575, 657, -27, 0, 13, -7, 20, 4, 967, 945, 60,e
2025-03-12 15:09:34.511,710, 307, 533, 21, -18, -29, -8, 19, 5, 965, 948, 45,e
2025-03-12 15:09:34.563,827, 1076, 68, 40, 27, 22, -7, 18, 6, 974, 943, 40,e
2025-03-12 15:09:34.617,702, 468, 628, -32, 13, 29, -6, 19, 2, 973, 944, 52,e
2025-03-12 15:09:34.675,706, 480, 451, -32, 57, -43, -6, 21, 1, 960, 926, 50,e
2025-03-12 15:09:34.727,445, 467, 764, -16, -3, -5, -6, 18, 1, 943, 891, 80,e
2025-03-12 15:09:34.965,707, 484, 519, 6, -1, 3, -6, 18, 1, 947, 878, 39,f
2025-03-12 15:09:35.013,697, 493, 517, 6, -1, 3, -6, 19, 1, 946, 878, 52,f
2025-03-12 15:09:35.068,742, 473, 492, 5, -3, 6, -6, 18, 2, 947, 883, 41,f
2025-03-12 15:09:35.119,694, 478, 569, 11, -4, 15, -4, 17, 3, 951, 889, 31,f
2025-03-12 15:09:35.177,739, 482, 469, -4, -20, 10, -6, 20, 0, 954, 914, 50,f
2025-03-12 15:09:35.228,1099, 324, 555, 5, -27, -64, -6, 17, 3, 963, 950, 41,f
2025-03-12 15:09:35.287,689, 565, 324, 8, -24, -12, -6, 16, 6, 970, 960, 306,f
2025-03-12 15:09:35.343,607, 505, 597, -4, 25, 26, -6, 17, 6, 967, 947, 223,f
2025-03-12 15:09:35.397,510, 545, 806, 32, -18, -4, -7, 16, 5, 963, 936, 324,f
2025-03-12 15:09:35.457,842, 676, 345, -25, 8, 26, -7, 17, 5, 974, 956, 225,f
2025-03-12 15:09:35.509,990, 168, 272, -6, 29, -25, -7, 16, 4, 968, 948, 220,f
2025-03-12 15:09:35.568,577, 637, 628, -31, 54, -24, -5, 15, 3, 946, 898, 231,f
2025-03-12 15:09:35.837,725, 475, 480, 5, -9, 9, -7, 17, 3, 950, 868, 130,g
2025-03-12 15:09:35.898,715, 476, 516, 7, -11, 10, -6, 20, 2, 949, 868, 86,g
2025-03-12 15:09:35.948,733, 452, 461, 10, -47, 0, -7, 17, 6, 950, 887, 40,g
2025-03-12 15:09:36.009,574, 577, 443, -14, -11, -30, -9, 16, 4, 944, 910, 55,g
2025-03-12 15:09:36.059,723, 779, 366, -25, 50, 73, -7, 17, 6, 967, 925, 55,g
2025-03-12 15:09:36.118,752, 72, 838, 2, -12, -8, -7, 19, 3, 964, 937, 43,g
2025-03-12 15:09:36.173,785, 424, 531, 22, -17, -24, -7, 16, 4, 961, 933, 42,g
2025-03-12 15:09:36.227,842, 749, 340, -46, 42, 47, -8, 18, 5, 968, 917, 43,g
2025-03-12 15:09:36.287,1251, 136, 293, 12, 24, -73, -7, 18, 4, 942, 845, 55,g
2025-03-12 15:09:36.557,748, 503, 475, 0, -5, 2, -5, 18, 4, 915, 864, 121,h
2025-03-12 15:09:36.610,729, 503, 496, 0, -4, 3, -7, 17, 2, 915, 863, 121,h
2025-03-12 15:09:36.668,692, 498, 529, 2, -7, 4, -5, 19, 2, 920, 863, 120,h
2025-03-12 15:09:36.722,713, 491, 484, 5, -11, 5, -5, 17, 4, 922, 865, 127,h
2025-03-12 15:09:36.776,750, 499, 461, 4, -8, 0, -8, 18, 3, 924, 868, 174,h
2025-03-12 15:09:36.828,714, 489, 518, -1, 2, -2, -8, 16, 1, 922, 869, 206,h
2025-03-12 15:09:36.879,734, 511, 472, -3, -8, -2, -7, 18, 4, 923, 873, 263,h
2025-03-12 15:09:36.940,698, 500, 521, -2, -9, 2, -6, 18, 3, 929, 883, 286,h
2025-03-12 15:09:36.993,765, 482, 451, 5, -12, 1, -7, 17, 6, 932, 892, 293,h
2025-03-12 15:09:37.045,750, 532, 415, -1, 1, 0, -6, 16, 5, 935, 894, 316,h
2025-03-12 15:09:37.097,741, 478, 466, 1, 0, -1, -8, 18, 5, 935, 898, 301,h
2025-03-12 15:09:37.147,733, 516, 488, -1, -2, -1, -6, 17, 4, 935, 900, 308,h
2025-03-12 15:09:37.211,751, 505, 450, -3, -2, -3, -7, 17, 6, 938, 902, 299,h
2025-03-12 15:09:37.260,738, 503, 490, 1, -8, 1, -7, 17, 4, 938, 908, 312,h
2025-03-12 15:09:37.309,756, 510, 405, -6, 2, -1, -8, 17, 6, 941, 915, 259,h
2025-03-12 15:09:37.368,738, 489, 473, -5, -3, -3, -6, 17, 6, 944, 922, 72,h
2025-03-12 15:09:37.423,722, 442, 518, -3, -4, -5, -8, 17, 5, 950, 926, 45,h
2025-03-12 15:09:37.476,880, 759, 464, 6, 36, 38, -8, 18, 3, 964, 926, 74,h
2025-03-12 15:09:37.528,770, 416, 277, -14, 18, 10, -5, 19, 5, 965, 928, 58,h
2025-03-12 15:09:37.578,667, 522, 729, -5, -17, -14, -7, 19, 4, 966, 937, 70,h
2025-03-12 15:09:37.642,765, 690, 185, -14, 38, 42, -8, 18, 5, 974, 932, 37,h
2025-03-12 15:09:37.698,732, 433, 481, -32, 54, -42, -7, 18, 3, 958, 898, 77,h
2025-03-12 15:09:37.968,714, 477, 510, -1, -5, 0, -8, 19, 2, 949, 877, 100,i
2025-03-12 15:09:38.025,737, 465, 498, -1, -7, -1, -8, 18, 5, 948, 877, 106,i
2025-03-12 15:09:38.078,750, 494, 458, -7, -11, 1, -8, 19, 3, 948, 886, 48,i
2025-03-12 15:09:38.128,755, 390, 552, -17, -6, -6, -7, 18, 5, 959, 915, 66,i
2025-03-12 15:09:38.187,623, 705, 438, -14, 26, 34, -8, 20, 2, 972, 925, 27,i
2025-03-12 15:09:38.242,822, 504, 320, -4, 17, 9, -7, 18, 4, 965, 911, 46,i
2025-03-12 15:09:38.297,245, 812, 1268, -20, -32, -11, -5, 17, 3, 962, 936, 159,i
2025-03-12 15:09:38.347,833, 761, 76, 10, 18, 6, -8, 17, 5, 974, 949, 34,i
2025-03-12 15:09:38.407,817, 283, 436, -10, 44, -20, -8, 17, 5, 960, 921, 80,i
2025-03-12 15:09:38.458,603, 533, 602, -16, 21, -8, -5, 17, 4, 958, 879, 50,i
2025-03-12 15:09:38.712,718, 482, 520, 5, -7, 5, -8, 19, 3, 948, 861, 50,j
2025-03-12 15:09:38.758,731, 496, 505, 4, -8, 5, -4, 17, 3, 948, 863, 43,j
2025-03-12 15:09:38.818,776, 499, 444, -1, -4, 1, -8, 19, 3, 948, 865, 48,j
2025-03-12 15:09:38.868,730, 470, 504, 1, -3, -1, -7, 18, 6, 947, 873, 67,j
2025-03-12 15:09:38.923,763, 493, 435, -3, -1, 1, -6, 17, 6, 951, 882, 35,j
2025-03-12 15:09:38.974,724, 512, 479, 1, -1, 4, -7, 17, 5, 949, 884, 70,j
2025-03-12 15:09:39.028,731, 487, 454, -3, 6, 6, -7, 18, 4, 953, 886, 32,j
2025-03-12 15:09:39.077,673, 428, 640, 21, -25, 15, -7, 18, 4, 957, 900, 39,j
2025-03-12 15:09:39.140,660, 569, 470, -12, 18, 22, -8, 18, 5, 969, 920, 64,j
2025-03-12 15:09:39.194,896, 398, 312, -50, 31, 32, -8, 21, 4, 966, 917, 74,j
2025-03-12 15:09:39.242,568, 500, 368, -6, 4, -94, -8, 19, 3, 959, 912, 28,j
2025-03-12 15:09:39.298,660, 1000, 921, 23, -39, -13, -9, 19, 4, 970, 940, 51,j
2025-03-12 15:09:39.361,1073, 258, 509, 10, 28, 13, -8, 19, 4, 960, 920, 56,j
2025-03-12 15:09:39.412,572, 510, 632, -12, 39, -21, -7, 18, 2, 958, 880, 28,j
2025-03-12 15:09:39.670,703, 488, 510, 7, -27, 4, -8, 18, 5, 951, 883, 50,k
2025-03-12 15:09:39.728,797, 489, 400, 1, -24, 2, -7, 19, 6, 953, 893, 65,k
2025-03-12 15:09:39.783,721, 451, 607, 0, -5, -5, -9, 18, 4, 961, 907, 52,k
2025-03-12 15:09:39.834,838, 634, 442, 27, 25, 17, -8, 18, 5, 965, 877, 61,k
2025-03-12 15:09:39.889,800, 524, 218, -18, 14, 7, -8, 17, 5, 966, 911, 64,k
2025-03-12 15:09:39.942,564, 383, 606, 0, -21, 9, -7, 20, 6, 969, 948, 84,k
2025-03-12 15:09:39.997,663, 472, 342, 33, 16, -12, -8, 18, 5, 961, 911, 47,k
2025-03-12 15:09:40.048,768, 720, 796, 4, -45, 16, -8, 15, 3, 960, 876, 38,k
2025-03-12 15:09:40.106,851, 684, 314, -47, 17, 45, -7, 18, 4, 976, 938, 82,k
2025-03-12 15:09:40.160,911, 192, 142, -10, 49, -64, -6, 19, 4, 963, 901, 69,k
2025-03-12 15:09:40.439,690, 489, 544, -5, -17, 2, -7, 16, 4, 939, 874, 66,l
2025-03-12 15:09:40.497,714, 465, 522, -4, -20, 1, -7, 17, 3, 940, 874, 91,l
2025-03-12 15:09:40.556,698, 491, 547, -14, -32, 8, -8, 17, 4, 947, 906, 130,l
2025-03-12 15:09:40.609,731, 549, 375, 4, -1, -4, -8, 17, 6, 968, 931, 40,l
2025-03-12 15:09:40.660,917, 309, 750, 15, 33, 35, -7, 19, 4, 973, 931, 85,l
2025-03-12 15:09:40.715,846, 650, 271, 4, 29, 17, -10, 19, 3, 968, 910, 43,l
2025-03-12 15:09:40.773,671, 569, 470, -38, 54, -31, -7, 16, 3, 945, 883, 72,l
2025-03-12 15:09:40.826,622, 462, 573, 1, -6, 2, -7, 21, 4, 939, 881, 63,l
2025-03-12 15:09:41.109,748, 462, 460, -6, 2, -1, -7, 19, 4, 942, 837, 40,m
2025-03-12 15:09:41.158,735, 448, 507, -3, 0, -3, -8, 18, 6, 942, 839, 44,m
2025-03-12 15:09:41.218,697, 461, 520, 6, -17, -3, -6, 20, 2, 944, 862, 57,m
2025-03-12 15:09:41.273,744, 475, 498, -37, -6, -8, -8, 18, 6, 963, 916, 36,m
2025-03-12 15:09:41.328,923, 590, 553, -22, 33, 35, -8, 17, 5, 969, 924, 71,m
2025-03-12 15:09:41.378,812, 471, 379, -11, 18, 8, -8, 19, 6, 969, 930, 37,m
2025-03-12 15:09:41.441,716, 508, 594, -7, -21, -20, -9, 20, 5, 970, 940, 68,m
2025-03-12 15:09:41.493,449, 562, 253, -2, 29, 32, -8, 20, 5, 976, 941, 64,m
2025-03-12 15:09:41.547,765, 220, 898, 1, -11, -9, -7, 20, 4, 975, 940, 35,m
2025-03-12 15:09:41.598,685, 476, 333, 32, -20, -3, -7, 21, 3, 976, 944, 55,m
2025-03-12 15:09:41.658,848, 335, 448, -4, 24, 10, -8, 20, 4, 976, 934, 42,m
2025-03-12 15:09:41.710,601, 368, 777, -9, 34, -39, -6, 18, 3, 958, 906, 74,m
2025-03-12 15:09:42.002,722, 459, 506, 4, -8, 0, -7, 18, 4, 936, 821, 69,n
2025-03-12 15:09:42.055,728, 467, 489, 5, -9, -1, -6, 19, 4, 937, 826, 64,n
2025-03-12 15:09:42.109,703, 527, 520, -3, -27, 5, -8, 18, 5, 944, 880, 64,n
2025-03-12 15:09:42.162,777, 371, 460, -4, -3, -6, -8, 20, 3, 960, 916, 70,n
2025-03-12 15:09:42.211,670, 699, 375, 1, 28, 29, -8, 20, 4, 968, 923, 63,n
2025-03-12 15:09:42.268,850, 441, 440, -9, 8, 3, -8, 20, 3, 967, 931, 44,n
2025-03-12 15:09:42.322,760, 565, 824, -3, -23, -9, -7, 20, 6, 975, 943, 38,n
2025-03-12 15:09:42.374,881, 841, -5, 2, 38, 41, -8, 20, 5, 972, 936, 71,n
2025-03-12 15:09:42.428,947, 162, 331, -17, 34, -41, -7, 20, 5, 966, 911, 51,n
2025-03-12 15:09:42.735,751, 458, 477, -4, -2, 0, -8, 20, 4, 947, 882, 41,o
2025-03-12 15:09:42.789,756, 465, 495, -4, -2, 1, -8, 19, 2, 947, 883, 46,o
2025-03-12 15:09:42.841,755, 457, 490, -2, -3, -1, -7, 20, 4, 946, 885, 58,o
2025-03-12 15:09:42.898,770, 452, 461, -4, -1, -1, -9, 19, 4, 949, 895, 54,o
2025-03-12 15:09:42.948,730, 452, 536, -2, 0, 1, -8, 19, 4, 951, 901, 41,o
2025-03-12 15:09:43.001,751, 464, 479, 2, -5, 8, -6, 20, 4, 950, 904, 61,o
2025-03-12 15:09:43.059,662, 450, 515, -13, -4, -13, -7, 20, 5, 954, 923, 49,o
2025-03-12 15:09:43.109,878, 395, 554, 7, -8, -14, -8, 20, 4, 961, 937, 53,o
2025-03-12 15:09:43.158,1098, 834, 433, -5, 25, 35, -7, 18, 6, 974, 938, 30,o
2025-03-12 15:09:43.218,652, 339, 769, -42, 0, 19, -8, 21, 3, 973, 947, 72,o
2025-03-12 15:09:43.275,644, 185, 407, 46, -19, -43, -9, 20, 5, 964, 948, 64,o
2025-03-12 15:09:43.328,839, 559, 252, -33, 72, -30, -7, 20, 4, 940, 934, 30,o
2025-03-12 15:09:43.379,602, 469, 723, -9, 25, 8, -7, 19, 2, 933, 879, 71,o
2025-03-12 15:09:43.654,724, 444, 531, -4, -4, 4, -7, 18, 3, 928, 828, 60,p
2025-03-12 15:09:43.698,727, 437, 533, -1, -6, 3, -7, 19, 2, 931, 829, 51,p
2025-03-12 15:09:43.756,751, 475, 464, -3, -3, 1, -7, 20, 3, 931, 846, 67,p
2025-03-12 15:09:43.809,744, 451, 520, -1, -5, 3, -7, 16, 3, 940, 870, 30,p
2025-03-12 15:09:43.858,771, 460, 474, 0, -4, 1, -6, 19, 3, 939, 877, 51,p
2025-03-12 15:09:43.909,741, 462, 519, -1, -1, 2, -7, 20, 3, 941, 881, 45,p
2025-03-12 15:09:43.968,759, 485, 457, 0, -4, 3, -6, 19, 6, 944, 875, 43,p
2025-03-12 15:09:44.021,703, 435, 546, -1, -11, 0, -7, 21, 5, 946, 885, 43,p
2025-03-12 15:09:44.077,775, 479, 485, -21, -8, -10, -6, 19, 5, 955, 920, 30,p
2025-03-12 15:09:44.127,633, 651, 605, 10, 32, 41, -8, 20, 6, 966, 919, 66,p
2025-03-12 15:09:44.178,781, 489, 251, -22, 18, 19, -8, 21, 5, 967, 925, 53,p
2025-03-12 15:09:44.240,857, 715, 528, -4, -25, -33, -8, 21, 4, 962, 941, 74,p
2025-03-12 15:09:44.291,658, 855, 131, 4, 6, 15, -8, 20, 6, 971, 949, 53,p
2025-03-12 15:09:44.342,877, 317, 411, 4, 19, 10, -7, 20, 5, 965, 928, 81,p
2025-03-12 15:09:44.402,523, 410, 833, -18, 29, -24, -6, 19, 3, 959, 910, 51,p
2025-03-12 15:09:44.669,732, 583, 296, -30, -3, -6, -9, 19, 4, 961, 922, 49,q
2025-03-12 15:09:44.722,748, 391, 383, -21, 1, -9, -6, 20, 5, 964, 927, 35,q
2025-03-12 15:09:44.778,579, 159, 416, 13, -11, -25, -7, 19, 6, 963, 934, 72,q
2025-03-12 15:09:44.828,968, 676, 175, 0, 31, 27, -8, 19, 3, 972, 938, 67,q
2025-03-12 15:09:44.878,719, 328, 514, -17, -13, -9, -7, 23, 4, 968, 944, 50,q
2025-03-12 15:09:44.943,638, 467, 418, 46, -4, -15, -8, 21, 4, 968, 936, 64,q
2025-03-12 15:09:44.994,838, 652, 199, -20, 23, 30, -8, 19, 4, 971, 928, 53,q
2025-03-12 15:09:45.053,748, 166, 645, 13, -21, -17, -5, 22, 4, 965, 935, 54,q
2025-03-12 15:09:45.110,483, 433, 902, -15, 42, -29, -6, 21, 2, 954, 914, 83,q
2025-03-12 15:09:45.358,749, 474, 464, 1, -30, -1, -8, 20, 6, 951, 919, 64,r
2025-03-12 15:09:45.408,832, 493, 362, -9, -26, 0, -8, 20, 3, 955, 927, 37,r
2025-03-12 15:09:45.467,783, 528, 476, 11, 5, 2, -8, 18, 4, 962, 932, 72,r
2025-03-12 15:09:45.521,958, 480, 481, -9, 18, 26, -7, 20, 5, 968, 927, 45,r
2025-03-12 15:09:45.578,759, 254, 617, -44, -12, -9, -9, 20, 4, 968, 944, 40,r
2025-03-12 15:09:45.628,766, 560, 542, 27, -11, 1, -7, 20, 6, 965, 944, 49,r
2025-03-12 15:09:45.678,907, 272, 375, -7, 53, -7, -8, 20, 4, 962, 924, 60,r
2025-03-12 15:09:45.741,566, 486, 750, -12, 6, -14, -6, 19, 4, 958, 907, 34,r
2025-03-12 15:09:45.790,753, 483, 459, 10, -28, -2, -7, 19, 4, 952, 905, 76,r
2025-03-12 15:09:46.034,763, 421, 527, -2, -5, 5, -8, 19, 4, 954, 909, 45,s
2025-03-12 15:09:46.090,756, 438, 499, 0, -5, 6, -8, 20, 3, 956, 913, 25,s
2025-03-12 15:09:46.140,737, 446, 520, -3, -3, 3, -8, 20, 4, 956, 913, 23,s
2025-03-12 15:09:46.191,775, 455, 461, -3, 1, -2, -8, 20, 4, 950, 912, 68,s
2025-03-12 15:09:46.241,731, 435, 545, 2, 1, 1, -7, 21, 4, 955, 910, 43,s
2025-03-12 15:09:46.298,782, 456, 442, 0, -2, 3, -10, 21, 3, 959, 910, 20,s
2025-03-12 15:09:46.348,728, 439, 547, 2, -3, 4, -6, 19, 6, 953, 909, 74,s
2025-03-12 15:09:46.405,687, 475, 560, 7, -24, 10, -8, 22, 4, 955, 916, 53,s
2025-03-12 15:09:46.458,732, 294, 500, -5, 1, -12, -8, 20, 5, 960, 930, 59,s
2025-03-12 15:09:46.508,838, 487, 283, 15, 9, -8, -8, 20, 6, 963, 936, 74,s
2025-03-12 15:09:46.559,609, 790, 407, -15, 15, 25, -7, 21, 5, 972, 941, 52,s
2025-03-12 15:09:46.622,663, 230, 447, 28, 10, -10, -7, 21, 4, 960, 923, 81,s
2025-03-12 15:09:46.678,708, 428, 449, -45, 60, -41, -7, 19, 3, 942, 898, 58,s
2025-03-12 15:09:46.949,712, 495, 506, -3, -29, 1, -8, 17, 5, 952, 910, 45,t
2025-03-12 15:09:47.007,715, 505, 472, -2, -32, 2, -9, 20, 5, 953, 916, 51,t
2025-03-12 15:09:47.061,822, 492, 372, -22, 6, -4, -8, 18, 6, 961, 938, 27,t
2025-03-12 15:09:47.110,918, 917, 443, 48, 25, 16, -8, 18, 7, 968, 930, 63,t
2025-03-12 15:09:47.171,908, 208, 436, -11, 31, 34, -8, 21, 4, 971, 930, 32,t
2025-03-12 15:09:47.225,440, 445, 612, 8, -12, -67, -8, 19, 3, 964, 931, 44,t
2025-03-12 15:09:47.277,851, 221, 154, 12, -5, -12, -9, 18, 6, 974, 953, 62,t
2025-03-12 15:09:47.328,751, 306, 654, 15, 12, 29, -7, 20, 8, 966, 941, 84,t
2025-03-12 15:09:47.393,620, 523, 535, -12, 59, -42, -5, 18, 4, 952, 904, 80,t
2025-03-12 15:09:47.643,720, 436, 537, -2, -12, -1, -9, 19, 5, 956, 888, 38,u
2025-03-12 15:09:47.697,719, 457, 524, 0, -16, -2, -8, 20, 3, 959, 891, 30,u
2025-03-12 15:09:47.748,762, 466, 476, -16, -27, 2, -6, 18, 6, 957, 912, 64,u
2025-03-12 15:09:47.807,736, 381, 474, 18, -3, -6, -8, 18, 7, 965, 924, 42,u
2025-03-12 15:09:47.858,770, 781, 330, -13, 20, 46, -8, 19, 4, 967, 931, 72,u
2025-03-12 15:09:47.921,637, 112, 661, -14, -29, -22, -10, 20, 4, 969, 940, 47,u
2025-03-12 15:09:47.974,819, 665, 321, 30, 0, -3, -8, 19, 6, 972, 937, 32,u
2025-03-12 15:09:48.027,995, 320, 368, -19, 26, 15, -8, 21, 5, 966, 923, 67,u
2025-03-12 15:09:48.078,601, 398, 770, -20, 30, -35, -6, 19, 5, 961, 920, 42,u
2025-03-12 15:09:48.380,735, 447, 517, 1, -7, -1, -8, 20, 4, 943, 866, 42,v
2025-03-12 15:09:48.432,738, 442, 491, 2, -7, -2, -7, 21, 4, 942, 861, 57,v
2025-03-12 15:09:48.478,745, 483, 477, 6, -9, 0, -7, 18, 3, 944, 860, 47,v
2025-03-12 15:09:48.540,767, 467, 455, -9, -15, -5, -7, 19, 4, 948, 896, 66,v
2025-03-12 15:09:48.597,761, 493, 472, -8, -1, -3, -9, 18, 6, 955, 916, 75,v
2025-03-12 15:09:48.645,769, 474, 466, 0, 2, -1, -7, 20, 4, 957, 922, 42,v
2025-03-12 15:09:48.698,759, 484, 461, -3, 1, 1, -8, 19, 6, 961, 927, 48,v
2025-03-12 15:09:48.748,764, 444, 489, -5, -3, -4, -8, 19, 6, 959, 937, 47,v
2025-03-12 15:09:48.807,761, 369, 506, -10, -10, -9, -8, 19, 7, 970, 946, 25,v
2025-03-12 15:09:48.858,533, 445, 393, -30, 26, 55, -7, 18, 4, 971, 939, 76,v
2025-03-12 15:09:48.920,836, 646, 395, -58, 13, 27, -8, 20, 5, 973, 945, 43,v
2025-03-12 15:09:48.973,829, 488, 426, 49, -4, -10, -7, 19, 5, 968, 940, 46,v
2025-03-12 15:09:49.028,539, 386, 787, -5, 87, -28, -7, 21, 1, 944, 907, 79,v
2025-03-12 15:09:49.308,712, 446, 476, -1, -1, -11, -7, 19, 4, 932, 839, 18,w
2025-03-12 15:09:49.358,718, 453, 503, 2, -3, -11, -7, 19, 4, 929, 836, 31,w
2025-03-12 15:09:49.415,700, 480, 571, 13, -32, -1, -8, 20, 4, 938, 874, 53,w
2025-03-12 15:09:49.468,769, 381, 611, 2, -6, -5, -7, 21, 4, 962, 930, 53,w
2025-03-12 15:09:49.523,683, 528, 575, -14, 20, 36, -7, 20, 4, 971, 939, 39,w
2025-03-12 15:09:49.577,882, 200, 628, -6, -24, -20, -7, 19, 4, 968, 944, 40,w
2025-03-12 15:09:49.629,849, 786, 295, 47, -1, 6, -8, 20, 6, 970, 935, 40,w
2025-03-12 15:09:49.690,811, 543, 299, -50, 16, 32, -8, 20, 5, 973, 944, 41,w
2025-03-12 15:09:49.748,1000, 348, -100, -21, 81, -36, -7, 21, 3, 961, 936, 50,w
2025-03-12 15:09:50.037,727, 438, 547, -1, -11, 5, -8, 21, 3, 946, 885, 47,x
2025-03-12 15:09:50.096,728, 439, 542, 0, -14, 6, -8, 19, 5, 944, 889, 63,x
2025-03-12 15:09:50.148,758, 425, 472, -5, -27, 5, -8, 21, 4, 956, 911, 25,x
2025-03-12 15:09:50.207,723, 303, 661, -15, -8, -10, -8, 21, 6, 961, 937, 37,x
2025-03-12 15:09:50.260,409, 894, 103, 44, 39, 9, -6, 19, 6, 962, 929, 65,x
2025-03-12 15:09:50.307,754, 232, 678, -16, 22, -13, -8, 21, 4, 955, 909, 54,x
2025-03-12 15:09:50.370,747, -64, 403, -15, -18, -19, -6, 18, 3, 962, 935, 50,x
2025-03-12 15:09:50.427,786, 456, 230, -74, 46, 76, -7, 20, 5, 974, 948, 41,x
2025-03-12 15:09:50.477,820, 299, 224, -12, 38, -61, -6, 20, 5, 966, 934, 52,x
2025-03-12 15:09:50.757,731, 476, 496, -2, -5, 4, -8, 21, 4, 952, 920, 57,y
2025-03-12 15:09:50.808,731, 466, 500, -2, -6, 4, -7, 21, 4, 954, 921, 43,y
2025-03-12 15:09:50.865,721, 450, 530, -3, -19, 2, -7, 21, 4, 954, 927, 69,y
2025-03-12 15:09:50.923,821, 326, 489, -19, -3, -9, -7, 20, 5, 961, 942, 69,y
2025-03-12 15:09:50.974,1132, 1142, 242, 23, 27, 34, -7, 19, 6, 970, 942, 56,y
2025-03-12 15:09:51.028,735, 473, 455, -34, 16, 35, -6, 21, 5, 971, 948, 50,y
2025-03-12 15:09:51.091,616, 473, 656, 23, -16, -24, -8, 21, 5, 964, 943, 71,y
2025-03-12 15:09:51.139,1059, 731, 386, -3, 27, 47, -8, 20, 6, 971, 945, 76,y
2025-03-12 15:09:51.189,837, 144, 452, -8, 22, 0, -6, 22, 2, 967, 928, 66,y
2025-03-12 15:09:51.255,840, 547, 535, -46, 57, -38, -6, 20, 2, 950, 901, 51,y
2025-03-12 15:09:51.488,941, 440, 195, -22, 5, -5, -9, 21, 6, 960, 930, 73,z
2025-03-12 15:09:51.548,900, 393, 416, 10, 7, 0, -6, 20, 6, 963, 937, 70,z
2025-03-12 15:09:51.603,541, 499, 514, 1, -9, 31, -8, 19, 6, 970, 943, 162,z
2025-03-12 15:09:51.656,854, 426, 478, 17, 26, 21, -7, 21, 4, 967, 929, 29,z
2025-03-12 15:09:51.710,963, 360, 366, -29, 9, -3, -6, 22, 5, 964, 934, 74,z
2025-03-12 15:09:51.768,631, 697, 383, -22, -3, 38, -8, 21, 6, 972, 950, 213,z
2025-03-12 15:09:51.821,788, 56, 371, 25, 4, -52, -6, 22, 5, 960, 929, 49,z
2025-03-12 15:09:51.878,3151, 700, -47, -94, -11, -15, -7, 21, 6, 967, 936, 47,z
2025-03-12 15:09:51.928,857, 546, 497, -18, 12, 42, -7, 21, 6, 974, 947, 140,z
2025-03-12 15:09:51.988,678, 429, 372, 1, 64, -47, -6, 22, 3, 954, 906, 63,z
2025-03-12 15:09:52.738,396, 686, 752, 38, -55, 71, -5, 10, -4, 823, 701, 40,0
2025-03-12 15:09:52.798,407, 665, 762, 46, -64, 78, -6, 10, -3, 821, 694, 40,0
2025-03-12 15:09:52.853,701, 527, 485, 68, -64, 71, -6, 12, 1, 806, 637, 51,0
2025-03-12 15:09:52.908,668, 581, 416, 19, 0, 51, -8, 14, 1, 813, 622, 238,0
2025-03-12 15:09:52.958,607, 434, 484, 27, 2, 45, -9, 14, 4, 801, 605, 261,0
2025-03-12 15:09:53.014,640, 508, 299, 6, 9, -1, -9, 14, 4, 808, 612, 293,0
2025-03-12 15:09:53.070,708, 503, 426, 5, 13, -11, -5, 17, 2, 825, 596, 270,0
2025-03-12 15:09:53.122,611, 687, 378, -17, 19, 2, -6, 15, 1, 851, 608, 307,0
2025-03-12 15:09:53.178,982, 746, 491, -18, -14, -2, -5, 13, 2, 878, 637, 376,0
2025-03-12 15:09:53.238,721, 627, 718, 18, -18, 11, -7, 15, 2, 891, 696, 348,0
2025-03-12 15:09:53.290,642, 439, 425, -6, 5, 9, -7, 17, 2, 909, 742, 322,0
2025-03-12 15:09:53.348,729, 550, 408, -11, 2, 10, -7, 16, 1, 918, 769, 340,0
2025-03-12 15:09:53.398,666, 571, 445, 3, -19, 7, -7, 15, 4, 926, 788, 313,0
2025-03-12 15:09:53.454,745, 523, 417, 10, -10, 8, -6, 16, 4, 926, 798, 347,0
2025-03-12 15:09:53.507,805, 562, 367, -12, 0, 6, -6, 16, 3, 931, 813, 358,0
2025-03-12 15:09:53.564,449, 568, 718, -1, -32, 9, -7, 15, 4, 935, 855, 307,0
2025-03-12 15:09:53.621,467, 163, 605, -11, -22, -39, -7, 16, 6, 951, 922, 60,0
2025-03-12 15:09:53.677,1318, 1031, 31, -44, 67, 44, -9, 15, 6, 971, 920, 42,0
2025-03-12 15:09:53.727,506, 129, 1043, -52, -39, 4, -8, 16, 3, 970, 943, 46,0
2025-03-12 15:09:53.788,1068, 504, 164, 52, 0, -26, -8, 17, 5, 937, 908, 406,0
2025-03-12 15:09:53.838,486, 554, 759, -16, 34, -14, -7, 17, 2, 933, 863, 342,0
2025-03-12 15:09:54.138,595, 552, 528, -5, -8, -17, -8, 18, 5, 950, 898, 40,1
2025-03-12 15:09:54.188,569, 534, 554, -1, -13, -17, -8, 18, 5, 949, 896, 42,1
2025-03-12 15:09:54.248,883, 763, 336, 15, -7, -25, -8, 16, 5, 954, 911, 74,1
2025-03-12 15:09:54.306,802, 601, 445, -32, -3, 21, -8, 16, 5, 972, 945, 41,1
2025-03-12 15:09:54.356,419, 470, 673, 57, 0, 4, -9, 17, 7, 972, 941, 45,1
2025-03-12 15:09:54.409,870, 619, 34, 16, 36, 20, -9, 17, 6, 973, 937, 37,1
2025-03-12 15:09:54.459,664, 97, 540, 23, 36, -48, -9, 18, 5, 960, 904, 43,1
2025-03-12 15:09:54.520,1151, 855, 148, 35, -23, -23, -9, 14, 7, 969, 922, 27,1
2025-03-12 15:09:54.575,529, 654, 284, -55, 16, 57, -6, 18, 5, 974, 944, 52,1
2025-03-12 15:09:54.633,776, 508, 237, -26, 78, -56, -6, 18, 3, 959, 921, 49,1
2025-03-12 15:09:54.958,718, 580, 439, -6, -2, -3, -7, 16, 2, 924, 829, 25,2
2025-03-12 15:09:55.008,712, 572, 439, -8, -1, -2, -9, 19, 6, 921, 831, 47,2
2025-03-12 15:09:55.067,706, 514, 529, -3, -5, -2, -8, 17, 4, 924, 835, 25,2
2025-03-12 15:09:55.122,693, 538, 485, 3, -14, 0, -7, 16, 4, 924, 842, 46,2
2025-03-12 15:09:55.174,693, 522, 505, -5, -21, -2, -8, 18, 5, 930, 866, 41,2
2025-03-12 15:09:55.228,1128, 237, 57, 24, -11, -20, -8, 16, 6, 949, 913, 48,2
2025-03-12 15:09:55.285,394, 403, 467, -8, 5, 35, -9, 16, 5, 968, 938, 90,2
2025-03-12 15:09:55.338,617, 514, 402, 27, 26, -6, -8, 17, 7, 966, 916, 43,2
2025-03-12 15:09:55.391,922, 500, 260, -6, 22, 10, -8, 17, 7, 971, 937, 42,2
2025-03-12 15:09:55.447,732, 474, 568, -16, 15, 41, -7, 18, 5, 970, 937, 47,2
2025-03-12 15:09:55.502,466, 408, 686, -3, 52, -41, -6, 17, 1, 953, 898, 55,2
2025-03-12 15:09:55.747,683, 551, 497, -17, -3, -6, -9, 16, 4, 917, 853, 45,3
2025-03-12 15:09:55.804,654, 531, 528, -17, -6, -5, -8, 18, 5, 919, 852, 48,3
2025-03-12 15:09:55.859,642, 457, 623, 30, -51, 9, -8, 16, 7, 931, 879, 42,3
2025-03-12 15:09:55.915,874, 848, 412, -21, -2, 27, -9, 15, 7, 962, 934, 74,3
2025-03-12 15:09:55.970,496, 673, 594, 31, 1, 9, -7, 17, 7, 968, 937, 55,3
2025-03-12 15:09:56.022,841, 437, 167, 10, 1, -16, -8, 18, 7, 969, 935, 45,3
2025-03-12 15:09:56.073,391, 727, 479, -21, 16, 15, -7, 18, 6, 978, 939, 23,3
2025-03-12 15:09:56.128,694, 479, 126, -5, 33, 20, -8, 18, 5, 965, 904, 58,3
2025-03-12 15:09:56.189,1109, 433, 133, -16, 60, -51, -8, 18, 2, 900, 771, 59,3
2025-03-12 15:09:56.239,354, 578, 856, -21, -22, 0, -5, 18, 2, 901, 825, 36,3
2025-03-12 15:09:56.518,973, 206, 237, -13, -12, -10, -8, 16, 7, 955, 909, 40,4
2025-03-12 15:09:56.572,719, 650, 503, -10, -12, -8, -9, 17, 8, 956, 913, 45,4
2025-03-12 15:09:56.628,618, 541, 388, 26, -3, -10, -10, 16, 8, 963, 909, 73,4
2025-03-12 15:09:56.677,936, 597, 139, 13, 3, -3, -7, 15, 7, 972, 916, 33,4
2025-03-12 15:09:56.735,550, 595, 434, -50, 10, 54, -8, 17, 8, 974, 946, 88,4
2025-03-12 15:09:56.789,814, 449, 403, 5, 7, -5, -8, 19, 4, 970, 939, 31,4
2025-03-12 15:09:56.840,587, 637, 871, 15, -28, -18, -6, 16, 5, 959, 934, 256,4
2025-03-12 15:09:56.898,983, 587, 193, 49, 11, 2, -7, 16, 6, 972, 938, 72,4
2025-03-12 15:09:56.952,866, 718, 316, 3, 31, 32, -8, 19, 5, 965, 867, 56,4
2025-03-12 15:09:57.812,719, 507, 523, -1, -2, -1, -6, 17, 2, 892, 775, 69,5
2025-03-12 15:09:57.870,710, 516, 505, -2, -2, -1, -7, 18, 2, 892, 774, 58,5
2025-03-12 15:09:57.920,691, 511, 531, -2, -2, 0, -6, 18, 3, 893, 785, 65,5
2025-03-12 15:09:57.971,717, 506, 489, 0, -4, 0, -7, 16, 3, 901, 794, 24,5
2025-03-12 15:09:58.022,695, 499, 530, 2, -5, 4, -8, 18, 3, 907, 815, 50,5
2025-03-12 15:09:58.077,662, 502, 563, 10, -10, 5, -6, 17, 4, 917, 835, 73,5
2025-03-12 15:09:58.127,640, 466, 565, 26, -31, 6, -6, 18, 4, 931, 858, 39,5
2025-03-12 15:09:58.185,968, 694, 192, 23, -8, -5, -8, 17, 6, 956, 916, 69,5
2025-03-12 15:09:58.238,519, 447, 785, -10, 10, 22, -8, 19, 4, 969, 937, 42,5
2025-03-12 15:09:58.297,746, 283, 379, 54, -15, -40, -8, 19, 5, 959, 920, 71,5
2025-03-12 15:09:58.352,678, 712, 501, -21, 40, 45, -8, 18, 7, 972, 925, 56,5
2025-03-12 15:09:58.407,629, 525, 346, -11, 14, 16, -8, 17, 3, 966, 898, 44,5
2025-03-12 15:09:58.457,920, 541, 27, 1, 63, -62, -6, 17, 4, 902, 759, 57,5
2025-03-12 15:09:59.198,712, 516, 484, 0, -3, 0, -7, 17, 3, 864, 722, 62,6
2025-03-12 15:09:59.258,726, 519, 477, 0, -2, 0, -4, 16, 4, 865, 722, 45,6
2025-03-12 15:09:59.308,692, 501, 531, -1, -2, -1, -6, 17, 1, 875, 745, 40,6
2025-03-12 15:09:59.363,715, 510, 494, -3, -3, 1, -7, 16, 2, 885, 767, 29,6
2025-03-12 15:09:59.418,706, 528, 502, -1, -7, 2, -8, 16, 3, 899, 796, 69,6
2025-03-12 15:09:59.470,748, 491, 481, 2, -3, 3, -8, 18, 3, 914, 820, 31,6
2025-03-12 15:09:59.520,716, 519, 501, 11, -5, 11, -7, 18, 2, 926, 834, 56,6
2025-03-12 15:09:59.577,576, 541, 583, -2, -30, 17, -8, 18, 5, 941, 879, 180,6
2025-03-12 15:09:59.637,656, 180, 545, -8, -14, -25, -8, 18, 5, 953, 928, 52,6
2025-03-12 15:09:59.688,519, 1142, 2, 50, 36, 18, -7, 17, 6, 971, 929, 56,6
2025-03-12 15:09:59.738,483, 613, 905, -54, 18, 36, -7, 17, 5, 971, 942, 47,6
2025-03-12 15:09:59.803,991, 375, 216, 74, -17, -36, -6, 17, 3, 943, 917, 58,6
2025-03-12 15:09:59.855,614, 446, 703, -61, 82, -29, -6, 16, 1, 924, 882, 29,6
2025-03-12 15:10:00.088,670, 532, 508, -4, -10, -7, -6, 16, 5, 895, 752, 37,7
2025-03-12 15:10:00.151,651, 538, 521, -2, -12, -7, -6, 16, 5, 894, 751, 40,7
2025-03-12 15:10:00.203,658, 498, 559, 13, -34, -3, -7, 15, 7, 893, 798, 64,7
2025-03-12 15:10:00.257,856, 539, 128, 19, -4, -5, -8, 17, 7, 947, 911, 45,7
2025-03-12 15:10:00.307,657, 230, 935, -5, 2, 7, -8, 19, 5, 960, 934, 75,7
2025-03-12 15:10:00.363,544, 579, 360, 25, 48, 47, -7, 15, 7, 968, 930, 52,7
2025-03-12 15:10:00.417,748, 500, 408, -39, 39, 28, -7, 17, 5, 960, 910, 61,7
2025-03-12 15:10:00.470,336, 686, 827, 16, -41, -40, -7, 17, 5, 953, 906, 23,7
2025-03-12 15:10:00.528,985, 1086, 309, 5, -1, 22, -8, 16, 5, 970, 944, 70,7
2025-03-12 15:10:00.585,952, 215, 261, 2, 35, -29, -7, 18, 3, 963, 931, 192,7
2025-03-12 15:10:00.874,949, 502, 401, -73, -18, -19, -6, 17, 4, 951, 894, 44,8
2025-03-12 15:10:00.927,767, 482, 447, -8, -6, -18, -8, 18, 3, 953, 903, 44,8
2025-03-12 15:10:00.986,1067, 416, 579, 21, -3, -22, -8, 18, 4, 964, 923, 41,8
2025-03-12 15:10:01.039,869, 670, 146, -59, 42, 70, -8, 17, 4, 973, 933, 32,8
2025-03-12 15:10:01.098,558, 237, 759, -11, -30, -22, -7, 20, 3, 970, 945, 64,8
2025-03-12 15:10:01.157,1114, 609, 692, -31, -45, -38, -7, 17, 5, 969, 954, 177,8
2025-03-12 15:10:01.207,460, 1125, 156, -24, 18, 33, -8, 17, 4, 977, 954, 58,8
2025-03-12 15:10:01.266,875, 468, 291, 10, 29, 6, -8, 18, 7, 970, 931, 48,8
2025-03-12 15:10:01.319,553, 464, 777, -34, 64, -25, -7, 18, 3, 954, 908, 49,8
2025-03-12 15:10:01.584,790, 459, 370, -4, -7, -17, -8, 18, 7, 960, 922, 43,9
2025-03-12 15:10:01.638,556, 465, 500, -17, -12, -16, -8, 18, 7, 960, 926, 44,9
2025-03-12 15:10:01.690,1151, 475, 370, 76, 35, 20, -8, 18, 5, 971, 925, 45,9
2025-03-12 15:10:01.748,823, 387, 614, -19, 25, 34, -7, 18, 4, 973, 937, 49,9
2025-03-12 15:10:01.806,601, 439, 581, 34, -25, -30, -6, 18, 5, 961, 930, 65,9
2025-03-12 15:10:01.858,585, 932, 311, -21, 39, 54, -6, 19, 5, 973, 924, 40,9
2025-03-12 15:10:01.917,998, -114, 574, -15, 22, -39, -7, 20, 2, 958, 850, 74,9
2025-03-12 15:10:01.973,621, 546, 835, -11, 28, -46, -7, 20, 1, 880, 867, 42,9
2025-03-12 15:10:02.217,694, 488, 535, 4, -14, 8, -7, 17, 4, 915, 791, 47,+
2025-03-12 15:10:02.272,712, 490, 516, 6, -15, 8, -6, 19, 4, 916, 789, 40,+
2025-03-12 15:10:02.319,735, 451, 477, -9, -7, 4, -6, 18, 3, 920, 796, 67,+
2025-03-12 15:10:02.377,736, 528, 475, 1, -12, 4, -7, 18, 3, 921, 798, 46,+
2025-03-12 15:10:02.436,751, 454, 481, -14, -6, -6, -8, 19, 4, 924, 817, 54,+
2025-03-12 15:10:02.488,784, 383, 483, -37, -8, -5, -8, 17, 5, 943, 880, 41,+
2025-03-12 15:10:02.538,723, 520, 591, 19, 16, 13, -8, 19, 6, 968, 911, 48,+
2025-03-12 15:10:02.600,772, 542, 147, -20, 32, 34, -7, 19, 4, 973, 887, 24,+
2025-03-12 15:10:02.652,620, 201, 640, 43, -26, -74, -8, 21, 4, 950, 851, 62,+
2025-03-12 15:10:02.707,818, 663, 366, 23, -23, 2, -7, 19, 4, 973, 937, 36,+
2025-03-12 15:10:02.764,773, 284, 591, 7, 14, 21, -6, 19, 6, 968, 927, 51,+
2025-03-12 15:10:03.075,684, 478, 550, -6, -3, 4, -8, 18, 5, 924, 763, 67,-
2025-03-12 15:10:03.128,696, 483, 540, -5, -4, 4, -8, 18, 3, 922, 759, 57,-
2025-03-12 15:10:03.178,756, 495, 468, -4, -4, 1, -7, 18, 3, 920, 743, 58,-
2025-03-12 15:10:03.234,717, 484, 534, -2, -3, 1, -9, 18, 3, 925, 746, 37,-
2025-03-12 15:10:03.284,759, 481, 458, -2, 0, 3, -8, 18, 3, 929, 762, 44,-
2025-03-12 15:10:03.338,710, 492, 517, -2, 2, 2, -7, 19, 3, 936, 770, 50,-
2025-03-12 15:10:03.388,750, 477, 469, -1, 0, -1, -5, 17, 4, 935, 778, 33,-
2025-03-12 15:10:03.438,647, 507, 557, 1, -3, -1, -8, 19, 4, 936, 796, 42,-
2025-03-12 15:10:03.501,2624, 207, 73, -50, -8, -16, -7, 20, 5, 948, 855, 74,-
2025-03-12 15:10:03.557,231, 1011, 354, -63, -10, 57, -8, 18, 4, 975, 937, 93,-
2025-03-12 15:10:03.608,664, 445, 496, 30, 4, 14, -8, 21, 5, 972, 927, 48,-
2025-03-12 15:10:03.665,706, 561, 300, -26, 73, -56, -8, 19, 3, 944, 868, 62,-
2025-03-12 15:10:03.961,729, 479, 490, 3, -4, 0, -7, 19, 2, 936, 835, 65,÷
2025-03-12 15:10:04.017,741, 491, 495, 2, -3, 0, -6, 17, 3, 936, 836, 52,÷
2025-03-12 15:10:04.070,749, 500, 455, 1, 0, -3, -7, 19, 3, 935, 838, 41,÷
2025-03-12 15:10:04.120,731, 503, 497, -8, 0, -2, -8, 17, 6, 937, 844, 46,÷
2025-03-12 15:10:04.169,723, 494, 500, -9, -1, 0, -8, 20, 3, 939, 850, 35,÷
2025-03-12 15:10:04.228,747, 471, 487, -6, -2, -3, -8, 19, 3, 941, 865, 61,÷
2025-03-12 15:10:04.284,731, 478, 491, 3, -1, -4, -8, 18, 4, 944, 864, 33,÷
2025-03-12 15:10:04.337,741, 470, 508, 1, -2, -2, -9, 20, 3, 944, 867, 50,÷
2025-03-12 15:10:04.386,742, 497, 509, 0, -2, 0, -7, 17, 4, 942, 872, 68,÷
2025-03-12 15:10:04.437,742, 489, 487, -3, 0, -3, -7, 18, 5, 944, 873, 41,÷
2025-03-12 15:10:04.492,729, 467, 507, 2, 0, -1, -7, 18, 4, 945, 874, 52,÷
2025-03-12 15:10:04.537,662, 500, 506, 11, -3, -1, -6, 16, 5, 944, 879, 69,÷
2025-03-12 15:10:04.597,777, 497, 480, 7, -3, -2, -7, 17, 4, 944, 883, 66,÷
2025-03-12 15:10:04.652,679, 379, 417, -5, -5, -16, -8, 17, 5, 949, 894, 43,÷
2025-03-12 15:10:04.702,775, 541, 321, 0, -3, -6, -8, 17, 5, 954, 904, 52,÷
2025-03-12 15:10:04.757,729, 499, 491, 0, -1, 0, -8, 18, 5, 953, 904, 50,÷
2025-03-12 15:10:04.810,848, 659, 314, 6, 2, 3, -8, 17, 4, 948, 885, 21,÷
2025-03-12 15:10:04.861,608, 520, 549, -30, 32, -6, -7, 16, 4, 948, 898, 43,÷
2025-03-12 15:10:04.918,644, 454, 520, 30, -41, 23, -6, 18, 5, 960, 917, 36,÷
2025-03-12 15:10:04.969,756, 452, 611, -25, -1, -8, -9, 18, 3, 959, 934, 74,÷
2025-03-12 15:10:05.028,786, 648, 268, 13, -1, -5, -7, 17, 6, 975, 940, 45,÷
2025-03-12 15:10:05.085,726, 474, 462, -31, 17, 22, -8, 18, 7, 976, 944, 61,÷
2025-03-12 15:10:05.138,930, 367, 186, 32, 61, -11, -6, 19, 6, 963, 920, 41,÷
2025-03-12 15:10:05.187,475, 497, 717, 19, -14, 28, -7, 18, 2, 962, 911, 33,÷
2025-03-12 15:10:05.251,1052, 674, 457, -28, -6, -1, -8, 17, 4, 964, 931, 74,÷
2025-03-12 15:10:05.308,677, 632, 308, -34, 18, 32, -6, 18, 4, 974, 937, 58,÷
2025-03-12 15:10:05.360,761, 426, 403, 15, 5, -65, -6, 20, 3, 957, 925, 43,÷
2025-03-12 15:10:05.413,541, 596, 752, 17, -70, 12, -9, 18, 4, 956, 922, 66,÷
2025-03-12 15:10:05.468,957, 983, 323, -25, 6, 28, -9, 18, 5, 976, 944, 45,÷
2025-03-12 15:10:05.520,689, 405, 562, -9, 8, 31, -6, 19, 5, 970, 941, 71,÷
2025-03-12 15:10:05.578,755, 505, 400, -33, 89, -41, -8, 19, 2, 945, 887, 34,÷
2025-03-12 15:10:05.628,440, 451, 862, -11, 5, -9, -5, 19, 1, 899, 744, 46,÷
2025-03-12 15:10:05.962,693, 482, 538, -4, 1, -2, -6, 18, 1, 871, 675, 66,=
2025-03-12 15:10:06.017,686, 480, 551, -3, 1, -2, -4, 19, 0, 869, 673, 55,=
2025-03-12 15:10:06.061,661, 496, 578, -6, 1, 0, -7, 18, 1, 864, 678, 67,=
2025-03-12 15:10:06.120,679, 478, 567, -1, -3, 0, -6, 18, 2, 868, 688, 42,=
2025-03-12 15:10:06.169,662, 482, 585, -1, -2, -1, -6, 18, 1, 868, 707, 38,=
2025-03-12 15:10:06.219,685, 484, 571, 9, -9, 1, -6, 17, 2, 875, 749, 66,=
2025-03-12 15:10:06.277,680, 501, 571, 3, -10, 1, -7, 19, 2, 891, 775, 70,=
2025-03-12 15:10:06.327,729, 481, 522, 1, -10, 4, -6, 18, 1, 903, 810, 57,=
2025-03-12 15:10:06.384,687, 484, 550, -3, -4, 0, -7, 17, 3, 914, 830, 49,=
2025-03-12 15:10:06.438,706, 508, 543, -6, -4, -1, -7, 17, 4, 923, 850, 38,=
2025-03-12 15:10:06.488,695, 487, 524, 2, -2, 0, -8, 17, 3, 930, 858, 61,=
2025-03-12 15:10:06.537,656, 478, 572, 5, -13, -1, -6, 18, 3, 932, 863, 54,=
2025-03-12 15:10:06.598,628, 464, 647, 41, -53, 3, -8, 17, 5, 940, 877, 73,=
2025-03-12 15:10:06.651,855, 895, 275, -17, -15, 36, -8, 16, 4, 970, 934, 45,=
2025-03-12 15:10:06.708,583, 362, 668, 29, 2, 6, -6, 19, 5, 970, 938, 48,=
2025-03-12 15:10:06.760,575, 607, 482, 53, 34, -30, -8, 18, 4, 956, 893, 37,=
2025-03-12 15:10:06.811,916, 563, 168, -14, -1, 7, -8, 17, 5, 967, 931, 73,=
2025-03-12 15:10:06.868,778, 371, 516, 13, 12, 30, -9, 18, 6, 969, 933, 43,=
2025-03-12 15:10:06.919,688, 481, 420, -17, 78, -38, -7, 19, 4, 944, 835, 81,=
2025-03-12 15:10:07.213,723, 522, 467, -6, -3, 0, -6, 18, 5, 927, 809, 73,≠
2025-03-12 15:10:07.268,729, 523, 474, -6, -3, 0, -8, 19, 1, 928, 813, 71,≠
2025-03-12 15:10:07.322,708, 483, 523, -3, -3, 2, -7, 17, 4, 930, 817, 44,≠
2025-03-12 15:10:07.372,740, 498, 477, -4, -3, -2, -8, 17, 3, 930, 834, 72,≠
2025-03-12 15:10:07.428,729, 520, 484, -7, -1, -1, -7, 16, 3, 932, 842, 69,≠
2025-03-12 15:10:07.483,719, 507, 508, 3, -4, 2, -8, 18, 3, 936, 852, 68,≠
2025-03-12 15:10:07.536,747, 508, 447, 0, -3, 0, -7, 17, 5, 936, 854, 38,≠
2025-03-12 15:10:07.586,711, 501, 510, 1, 1, 5, -7, 17, 5, 939, 857, 45,≠
2025-03-12 15:10:07.638,749, 506, 472, -5, 1, -3, -8, 17, 5, 938, 863, 53,≠
2025-03-12 15:10:07.689,729, 505, 475, 1, -1, -3, -9, 18, 3, 939, 868, 36,≠
2025-03-12 15:10:07.738,714, 501, 497, -3, 1, -3, -7, 18, 5, 937, 871, 47,≠
2025-03-12 15:10:07.797,746, 500, 448, -1, -1, -2, -8, 16, 4, 938, 878, 52,≠
2025-03-12 15:10:07.851,744, 483, 499, -4, 0, -6, -8, 17, 4, 938, 882, 69,≠
2025-03-12 15:10:07.905,697, 523, 490, -13, 2, -8, -7, 17, 4, 940, 886, 46,≠
2025-03-12 15:10:07.961,661, 500, 549, -14, -15, -6, -8, 16, 5, 941, 896, 47,≠
2025-03-12 15:10:08.019,848, 205, 216, -16, -14, -20, -7, 19, 4, 958, 914, 43,≠
2025-03-12 15:10:08.072,926, 641, 218, -27, 1, 43, -7, 16, 6, 972, 944, 80,≠
2025-03-12 15:10:08.121,625, 425, 547, 63, -2, -8, -8, 17, 8, 963, 920, 70,≠
2025-03-12 15:10:08.178,520, 578, 595, 22, 5, -31, -7, 17, 4, 948, 836, 37,≠
2025-03-12 15:10:08.237,799, 817, 453, -7, -5, 48, -8, 16, 4, 971, 937, 61,≠
2025-03-12 15:10:08.288,684, 560, 578, -17, 10, 38, -7, 18, 5, 970, 927, 51,≠
2025-03-12 15:10:08.348,352, 384, 904, 10, -6, -62, -6, 17, 4, 954, 906, 71,≠
2025-03-12 15:10:08.403,1076, -5, -130, -46, -18, -21, -8, 20, 5, 968, 931, 48,≠
2025-03-12 15:10:08.457,929, 646, 521, -9, 51, 31, -7, 18, 6, 979, 916, 28,≠
2025-03-12 15:10:08.508,973, 535, 366, 14, 27, -1, -8, 17, 5, 953, 831, 43,≠
2025-03-12 15:10:08.568,593, 530, 681, -59, 46, -31, -7, 16, 2, 909, 832, 44,≠
2025-03-12 15:10:08.838,705, 477, 534, -7, 0, -4, -8, 16, 3, 905, 803, 64,≈
2025-03-12 15:10:08.887,709, 488, 539, -5, -2, -5, -6, 19, 4, 904, 795, 35,≈
2025-03-12 15:10:08.949,713, 511, 491, -1, -6, -2, -8, 18, 4, 907, 803, 41,≈
2025-03-12 15:10:09.003,739, 496, 493, -3, -2, 1, -7, 18, 4, 903, 795, 44,≈
2025-03-12 15:10:09.056,734, 500, 490, -5, -3, 0, -7, 18, 3, 909, 799, 59,≈
2025-03-12 15:10:09.107,725, 479, 516, -6, 0, -2, -7, 18, 5, 911, 801, 52,≈
2025-03-12 15:10:09.158,712, 487, 507, 2, -6, 3, -9, 18, 5, 918, 800, 26,≈
2025-03-12 15:10:09.210,746, 499, 460, -1, -1, 0, -7, 18, 4, 920, 809, 42,≈
2025-03-12 15:10:09.260,740, 498, 496, 7, -2, 3, -8, 19, 5, 924, 832, 68,≈
2025-03-12 15:10:09.317,746, 520, 461, 7, -2, -1, -7, 18, 5, 928, 829, 31,≈
2025-03-12 15:10:09.368,743, 507, 481, -1, 2, -2, -8, 17, 6, 927, 834, 70,≈
2025-03-12 15:10:09.418,728, 518, 478, -1, -3, -1, -7, 17, 4, 929, 841, 23,≈
2025-03-12 15:10:09.468,747, 504, 489, -5, -2, -1, -9, 18, 3, 931, 850, 45,≈
2025-03-12 15:10:09.528,700, 518, 513, 4, -1, 1, -8, 17, 4, 933, 852, 27,≈
2025-03-12 15:10:09.584,704, 493, 476, 7, -2, 3, -6, 16, 5, 936, 855, 38,≈
2025-03-12 15:10:09.633,790, 461, 450, 6, -4, 1, -7, 19, 4, 936, 861, 65,≈
2025-03-12 15:10:09.684,746, 531, 457, -2, 5, -2, -8, 17, 5, 936, 858, 77,≈
2025-03-12 15:10:09.737,752, 462, 529, 3, -4, -1, -8, 20, 4, 938, 862, 51,≈
2025-03-12 15:10:09.788,754, 505, 417, -15, 8, -3, -8, 18, 4, 938, 867, 53,≈
2025-03-12 15:10:09.850,698, 496, 598, -2, -11, 3, -7, 16, 5, 941, 865, 48,≈
2025-03-12 15:10:09.901,724, 468, 416, -7, -1, 11, -8, 18, 4, 944, 869, 73,≈
2025-03-12 15:10:09.951,732, 479, 500, -5, 2, -4, -7, 19, 4, 944, 875, 66,≈
2025-03-12 15:10:10.007,757, 503, 464, -7, 0, -3, -8, 19, 4, 947, 880, 55,≈
2025-03-12 15:10:10.058,733, 499, 499, -3, 1, 0, -7, 18, 4, 947, 878, 26,≈
2025-03-12 15:10:10.112,747, 471, 468, -2, -1, 2, -8, 18, 3, 948, 882, 37,≈
2025-03-12 15:10:10.166,744, 478, 482, -4, 2, -1, -8, 18, 6, 948, 885, 74,≈
2025-03-12 15:10:10.217,737, 482, 495, -2, -1, -2, -7, 20, 5, 950, 884, 40,≈
2025-03-12 15:10:10.269,744, 476, 475, -4, 2, -3, -7, 18, 6, 944, 876, 44,≈
2025-03-12 15:10:10.317,736, 479, 489, -4, 0, -2, -9, 18, 6, 945, 877, 39,≈
2025-03-12 15:10:10.378,756, 478, 480, -4, 1, -1, -9, 20, 5, 946, 883, 57,≈
2025-03-12 15:10:10.432,740, 479, 494, -3, -1, -2, -8, 18, 4, 946, 884, 31,≈
2025-03-12 15:10:10.485,749, 474, 491, -3, 0, -3, -7, 18, 4, 945, 886, 50,≈
2025-03-12 15:10:10.537,743, 483, 496, -4, 2, -2, -6, 19, 5, 946, 884, 65,≈
2025-03-12 15:10:10.588,723, 488, 503, -2, -4, -2, -9, 18, 3, 946, 887, 42,≈
2025-03-12 15:10:10.648,758, 476, 469, -2, -3, -2, -7, 19, 4, 946, 889, 45,≈
2025-03-12 15:10:10.697,738, 489, 509, -4, 1, 1, -8, 18, 3, 946, 890, 49,≈
2025-03-12 15:10:10.751,744, 483, 474, 1, -1, 1, -7, 18, 6, 947, 891, 46,≈
2025-03-12 15:10:10.801,732, 476, 499, -2, -1, 0, -8, 19, 3, 948, 891, 38,≈
2025-03-12 15:10:10.851,739, 479, 490, 1, 0, 0, -7, 17, 4, 946, 892, 49,≈
2025-03-12 15:10:10.901,741, 466, 503, 1, -1, 0, -8, 17, 5, 945, 891, 52,≈
2025-03-12 15:10:10.957,743, 483, 487, -2, -1, 0, -8, 19, 4, 947, 895, 39,≈
2025-03-12 15:10:11.010,754, 470, 495, 0, -2, 0, -7, 19, 6, 946, 898, 64,≈
2025-03-12 15:10:11.059,750, 483, 483, -3, 1, 2, -7, 19, 6, 947, 898, 51,≈
2025-03-12 15:10:11.115,746, 468, 488, -2, 0, -1, -8, 17, 4, 949, 896, 46,≈
2025-03-12 15:10:11.168,755, 473, 494, 0, 0, -1, -8, 18, 5, 949, 899, 71,≈
2025-03-12 15:10:11.217,753, 484, 490, -3, 2, 0, -7, 18, 4, 948, 899, 43,≈
2025-03-12 15:10:11.268,729, 479, 515, 1, 1, -3, -7, 18, 6, 949, 901, 40,≈
2025-03-12 15:10:11.327,728, 469, 508, 11, -3, -6, -7, 16, 6, 949, 901, 46,≈
2025-03-12 15:10:11.381,737, 484, 501, 4, -7, -1, -7, 17, 5, 951, 901, 61,≈
2025-03-12 15:10:11.428,741, 496, 482, 7, -5, 0, -8, 18, 3, 953, 901, 27,≈
2025-03-12 15:10:11.484,767, 506, 452, -4, 5, -6, -8, 17, 5, 954, 904, 43,≈
2025-03-12 15:10:11.538,890, 398, 416, 10, -5, -9, -7, 18, 5, 959, 929, 65,≈
2025-03-12 15:10:11.587,743, 376, 526, 3, -10, 15, -8, 18, 5, 969, 939, 97,≈
2025-03-12 15:10:11.648,762, 795, 263, 13, 8, 22, -7, 17, 6, 972, 938, 108,≈
2025-03-12 15:10:11.689,739, 399, 564, 20, 6, 2, -9, 19, 5, 969, 927, 72,≈
2025-03-12 15:10:11.751,554, 555, 538, 27, 30, -23, -6, 16, 4, 959, 897, 58,≈
2025-03-12 15:10:11.808,974, 421, 98, -4, 5, -5, -7, 14, 6, 967, 921, 41,≈
2025-03-12 15:10:11.861,785, 717, 410, -27, -10, 11, -9, 16, 4, 971, 941, 53,≈
2025-03-12 15:10:11.909,667, 680, 417, -6, -1, 15, -9, 16, 5, 975, 940, 70,≈
2025-03-12 15:10:11.968,789, 624, 307, -8, 15, 20, -7, 18, 6, 974, 940, 77,≈
2025-03-12 15:10:12.018,1100, 541, -2, -9, 64, -12, -7, 19, 6, 965, 927, 63,≈
2025-03-12 15:10:12.082,493, 487, 832, -30, 55, -13, -6, 17, 1, 956, 843, 26,≈
2025-03-12 15:10:12.133,637, 437, 707, 2, -15, -5, -5, 18, 0, 928, 750, 74,≈
2025-03-12 15:10:12.187,808, 476, 432, -16, -8, -16, -6, 17, 1, 909, 675, 62,≈
2025-03-12 15:10:12.239,691, 501, 560, -12, 5, -13, -6, 18, 0, 898, 635, 36,≈
2025-03-12 15:10:12.299,686, 450, 610, -8, 2, -1, -6, 18, -1, 900, 666, 77,≈
2025-03-12 15:10:12.571,684, 474, 561, 3, -10, -6, -6, 19, 0, 886, 672, 42,<
2025-03-12 15:10:12.628,684, 479, 562, 3, -10, -7, -6, 19, 1, 885, 678, 44,<
2025-03-12 15:10:12.684,669, 477, 580, 13, -14, -4, -6, 19, 1, 886, 690, 38,<
2025-03-12 15:10:12.738,694, 482, 555, 5, -13, -3, -6, 17, 0, 893, 711, 34,<
2025-03-12 15:10:12.790,716, 540, 528, 6, -17, 0, -6, 18, 3, 900, 742, 46,<
2025-03-12 15:10:12.838,724, 500, 493, 0, -7, -2, -8, 17, 4, 903, 756, 39,<
2025-03-12 15:10:12.898,705, 493, 514, 1, -9, -2, -9, 18, 2, 906, 766, 53,<
2025-03-12 15:10:12.941,721, 520, 493, 2, -9, 0, -6, 16, 4, 910, 771, 44,<
2025-03-12 15:10:13.000,739, 493, 497, 2, -6, -3, -8, 18, 5, 913, 769, 22,<
2025-03-12 15:10:13.050,728, 522, 464, -1, -3, -3, -8, 17, 4, 913, 779, 72,<
2025-03-12 15:10:13.110,727, 512, 502, -6, -3, -3, -8, 16, 5, 918, 791, 43,<
2025-03-12 15:10:13.161,705, 520, 472, -1, -2, -1, -8, 17, 3, 922, 798, 73,<
2025-03-12 15:10:13.216,735, 524, 478, -5, -4, 5, -6, 17, 4, 926, 804, 41,<
2025-03-12 15:10:13.268,726, 516, 475, -11, -14, 10, -8, 17, 5, 935, 829, 41,<
2025-03-12 15:10:13.327,664, 516, 576, 6, -36, 18, -7, 18, 6, 950, 868, 69,<
2025-03-12 15:10:13.382,776, 539, 318, -28, -8, -6, -9, 18, 6, 964, 916, 72,<
2025-03-12 15:10:13.438,944, 551, 465, 10, 21, -16, -8, 18, 7, 964, 913, 42,<
2025-03-12 15:10:13.488,822, 739, 757, -57, 15, 62, -9, 18, 4, 979, 941, 66,<
2025-03-12 15:10:13.542,674, 407, 573, 18, 8, 9, -8, 20, 5, 971, 935, 82,<
2025-03-12 15:10:13.598,715, 527, 328, -1, 67, -53, -7, 19, 5, 943, 884, 53,<
2025-03-12 15:10:13.848,766, 515, 433, 6, -10, 2, -8, 18, 5, 933, 801, 42,≤
2025-03-12 15:10:13.900,771, 511, 433, 5, -8, 3, -10, 19, 5, 933, 802, 40,≤
2025-03-12 15:10:13.958,704, 485, 502, 6, -10, 4, -8, 17, 3, 935, 811, 66,≤
2025-03-12 15:10:14.011,749, 500, 448, -1, -4, 2, -8, 18, 6, 938, 832, 36,≤
2025-03-12 15:10:14.064,680, 477, 563, 5, -26, 7, -9, 17, 4, 945, 864, 76,≤
2025-03-12 15:10:14.118,775, 628, 299, -21, -7, -2, -9, 18, 4, 959, 900, 25,≤
2025-03-12 15:10:14.167,775, 500, 528, -9, -2, -3, -8, 19, 4, 962, 923, 69,≤
2025-03-12 15:10:14.217,732, 666, 139, 41, 19, -8, -9, 18, 8, 968, 908, 39,≤
2025-03-12 15:10:14.282,832, 879, 299, -11, 29, 43, -8, 18, 7, 974, 935, 82,≤
2025-03-12 15:10:14.333,649, 138, 638, 0, 4, 22, -9, 19, 5, 976, 945, 203,≤
2025-03-12 15:10:14.388,775, 282, 442, 55, 39, -31, -7, 19, 5, 962, 900, 43,≤
2025-03-12 15:10:14.438,905, 638, 438, 24, -5, -3, -8, 19, 5, 968, 913, 66,≤
2025-03-12 15:10:14.489,694, 106, 405, -9, 9, 35, -9, 20, 4, 973, 940, 93,≤
2025-03-12 15:10:14.549,869, 405, 246, 7, 61, -39, -8, 20, 4, 958, 878, 55,≤
2025-03-12 15:10:14.818,776, 528, 407, -6, -7, 4, -8, 18, 5, 933, 821, 61,>
2025-03-12 15:10:14.869,768, 509, 420, -8, -5, 4, -7, 18, 6, 934, 823, 72,>
2025-03-12 15:10:14.921,670, 485, 518, -5, -10, 0, -8, 17, 4, 939, 841, 40,>
2025-03-12 15:10:14.977,748, 504, 557, -5, -47, 3, -8, 18, 6, 952, 877, 28,>
2025-03-12 15:10:15.032,977, 581, 383, 18, -4, -1, -8, 17, 8, 967, 928, 65,>
2025-03-12 15:10:15.088,702, 368, 557, -5, 9, 39, -10, 19, 5, 973, 936, 209,>
2025-03-12 15:10:15.138,1066, 240, 388, 56, 23, -14, -9, 21, 5, 969, 931, 115,>
2025-03-12 15:10:15.200,1260, 318, 525, -15, 44, -1, -9, 18, 4, 961, 861, 38,>
2025-03-12 15:10:15.257,530, 377, 920, -33, 52, -18, -8, 19, 2, 949, 843, 67,>
2025-03-12 15:10:15.547,695, 493, 498, -10, -6, -3, -8, 20, 4, 931, 790, 28,≥
2025-03-12 15:10:15.599,684, 475, 536, -9, -10, -3, -8, 20, 4, 931, 792, 46,≥
2025-03-12 15:10:15.658,583, 460, 669, 16, -53, -3, -9, 19, 4, 936, 809, 71,≥
2025-03-12 15:10:15.712,1187, 652, 354, 63, 1, 3, -9, 19, 4, 959, 908, 26,≥
2025-03-12 15:10:15.765,446, 189, 738, 9, -3, 18, -9, 18, 6, 967, 922, 181,≥
2025-03-12 15:10:15.818,1028, 793, 353, 21, 26, 11, -9, 17, 6, 970, 920, 109,≥
2025-03-12 15:10:15.867,848, 337, 417, -10, 39, 6, -8, 17, 5, 963, 851, 43,≥
2025-03-12 15:10:15.928,497, 428, 589, 2, 23, -8, -8, 18, 3, 951, 802, 38,≥
2025-03-12 15:10:15.982,947, 775, 408, 26, -3, -4, -8, 18, 4, 963, 878, 69,≥
2025-03-12 15:10:16.038,647, 424, 395, -38, -1, 59, -6, 21, 1, 974, 932, 167,≥
2025-03-12 15:10:16.088,978, 207, 312, 2, 25, -21, -7, 21, 4, 961, 882, 49,≥
2025-03-12 15:10:16.149,618, 426, 627, -29, 75, -58, -7, 19, 2, 885, 543, 44,≥
2025-03-12 15:10:16.418,665, 567, 553, 0, -24, -70, -7, 13, 2, 811, 537, 37,±
2025-03-12 15:10:16.478,599, 620, 521, 3, -26, -69, -8, 14, 2, 818, 555, 33,±
2025-03-12 15:10:16.530,466, 688, 577, -11, -12, 0, -8, 12, 3, 876, 694, 41,±
2025-03-12 15:10:16.587,576, 717, 364, -30, 1, 47, -8, 13, 3, 910, 785, 36,±
2025-03-12 15:10:16.637,676, 509, 514, -8, -4, 46, -7, 15, 4, 930, 840, 61,±
2025-03-12 15:10:16.690,763, 451, 534, -2, -15, 32, -8, 16, 3, 941, 876, 38,±
2025-03-12 15:10:16.748,756, 514, 452, -2, -6, 12, -7, 17, 3, 941, 896, 71,±
2025-03-12 15:10:16.801,727, 490, 465, -8, 0, 1, -7, 16, 5, 948, 907, 64,±
2025-03-12 15:10:16.851,713, 522, 469, -4, -5, 5, -9, 18, 4, 950, 913, 76,±
2025-03-12 15:10:16.907,813, 481, 437, -4, 0, 3, -8, 19, 4, 954, 915, 33,±
2025-03-12 15:10:16.951,706, 508, 500, 1, -3, 2, -9, 18, 5, 953, 917, 72,±
2025-03-12 15:10:17.014,715, 493, 449, -1, -5, -7, -8, 17, 5, 953, 917, 62,±
2025-03-12 15:10:17.066,618, 515, 639, 9, -45, 7, -7, 16, 5, 958, 911, 45,±
2025-03-12 15:10:17.118,990, 414, 496, 36, -10, -3, -9, 17, 5, 971, 937, 55,±
2025-03-12 15:10:17.168,736, 516, 524, 11, 6, 36, -10, 20, 6, 975, 943, 109,±
2025-03-12 15:10:17.230,758, 383, 220, -5, 18, -53, -9, 19, 8, 964, 930, 52,±
2025-03-12 15:10:17.284,587, 518, 955, 11, -43, 32, -9, 18, 6, 970, 936, 45,±
2025-03-12 15:10:17.338,418, 467, 121, 22, 48, 45, -9, 19, 6, 976, 926, 35,±
2025-03-12 15:10:17.388,726, 269, 407, 14, 44, -30, -8, 18, 7, 963, 870, 54,±
2025-03-12 15:10:17.447,849, 774, 445, 25, -10, -4, -7, 17, 6, 968, 916, 36,±
2025-03-12 15:10:17.499,661, 401, 535, -24, 10, 55, -9, 20, 5, 975, 937, 169,±
2025-03-12 15:10:17.559,844, 448, 120, -25, 84, -58, -6, 19, 4, 961, 897, 72,±
2025-03-12 15:10:17.618,505, 537, 1006, -24, 23, -36, -7, 18, 1, 914, 722, 32,±
2025-03-12 15:10:17.667,671, 468, 576, 24, -37, 10, -7, 18, 1, 915, 779, 26,±
2025-03-12 15:10:17.718,788, 468, 395, -9, -6, -4, -7, 18, 3, 916, 798, 69,±
2025-03-12 15:10:18.038,729, 470, 508, -1, -4, 0, -8, 20, 3, 916, 805, 54,∓
2025-03-12 15:10:18.094,705, 467, 533, 2, -5, 0, -7, 17, 3, 915, 803, 44,∓
2025-03-12 15:10:18.141,750, 508, 456, -5, -3, 2, -8, 20, 3, 916, 805, 47,∓
2025-03-12 15:10:18.198,712, 491, 533, -10, -3, 0, -8, 18, 5, 922, 825, 57,∓
2025-03-12 15:10:18.249,740, 458, 514, 2, -11, 2, -7, 18, 5, 927, 845, 72,∓
2025-03-12 15:10:18.299,737, 487, 480, 6, -9, 4, -9, 19, 5, 933, 854, 53,∓
2025-03-12 15:10:18.349,753, 460, 466, 4, -2, 5, -8, 18, 4, 937, 855, 41,∓
2025-03-12 15:10:18.410,740, 498, 479, -3, -4, 0, -7, 19, 6, 938, 862, 61,∓
2025-03-12 15:10:18.463,756, 448, 489, -5, -3, -4, -8, 19, 5, 940, 877, 64,∓
2025-03-12 15:10:18.518,726, 498, 503, -7, -3, -7, -9, 18, 6, 943, 886, 55,∓
2025-03-12 15:10:18.568,710, 452, 485, -10, -11, -8, -9, 18, 7, 947, 890, 53,∓
2025-03-12 15:10:18.628,721, 476, 477, 4, -5, -18, -8, 19, 7, 957, 913, 51,∓
2025-03-12 15:10:18.682,926, 1010, 687, 18, -26, 42, -10, 19, 6, 973, 947, 152,∓
2025-03-12 15:10:18.737,720, 313, 467, 26, 5, 15, -8, 20, 6, 977, 944, 239,∓
2025-03-12 15:10:18.788,746, 355, 322, 22, 50, -21, -8, 19, 9, 963, 925, 45,∓
2025-03-12 15:10:18.849,871, 524, 747, 19, -44, 11, -8, 18, 4, 966, 903, 35,∓
2025-03-12 15:10:18.900,873, 737, 224, -48, -6, 46, -9, 18, 5, 974, 944, 129,∓
2025-03-12 15:10:18.958,823, 357, 391, -4, 7, 3, -9, 20, 4, 971, 933, 44,∓
2025-03-12 15:10:19.009,483, 534, 954, 28, -26, -20, -7, 19, 6, 963, 925, 66,∓
2025-03-12 15:10:19.066,793, 465, 323, 18, 15, 5, -9, 21, 7, 974, 931, 60,∓
2025-03-12 15:10:19.118,856, 286, 549, -16, 33, 16, -8, 18, 5, 969, 854, 51,∓
2025-03-12 15:10:19.167,717, 477, 500, -33, 72, -53, -7, 17, 1, 937, 813, 60,∓
2025-03-12 15:10:19.447,696, 440, 475, -7, -14, -42, -6, 16, 4, 884, 691, 61,∞
2025-03-12 15:10:19.508,692, 482, 479, 2, -14, -42, -8, 18, 4, 878, 677, 67,∞
2025-03-12 15:10:19.560,504, 599, 626, -1, 0, 5, -8, 15, 2, 869, 680, 57,∞
2025-03-12 15:10:19.619,715, 542, 503, 39, -37, 29, -7, 17, 4, 882, 740, 44,∞
2025-03-12 15:10:19.669,917, 477, 354, 0, 0, 5, -7, 16, 6, 895, 786, 29,∞
2025-03-12 15:10:19.719,682, 555, 536, -9, 13, 0, -8, 17, 4, 906, 805, 41,∞
2025-03-12 15:10:19.769,676, 530, 502, 7, 3, 1, -8, 17, 7, 912, 824, 70,∞
2025-03-12 15:10:19.820,759, 550, 371, -2, -4, 4, -9, 17, 4, 922, 829, 42,∞
2025-03-12 15:10:19.877,701, 499, 531, -8, 0, 8, -8, 16, 4, 932, 842, 54,∞
2025-03-12 15:10:19.931,717, 530, 432, -5, -2, 3, -8, 18, 5, 934, 850, 70,∞
2025-03-12 15:10:19.984,753, 487, 443, -7, -3, -4, -8, 18, 6, 941, 859, 27,∞
2025-03-12 15:10:20.036,743, 487, 467, -3, 1, 0, -8, 16, 6, 940, 860, 48,∞
2025-03-12 15:10:20.088,747, 528, 479, 22, 1, 9, -6, 17, 4, 943, 869, 39,∞
2025-03-12 15:10:20.138,759, 520, 402, -1, -5, 5, -8, 17, 4, 938, 867, 58,∞
2025-03-12 15:10:20.196,760, 506, 539, 3, -6, 11, -8, 16, 5, 941, 873, 42,∞
2025-03-12 15:10:20.240,715, 495, 431, 0, 2, 4, -7, 18, 5, 943, 877, 42,∞
2025-03-12 15:10:20.298,761, 476, 445, -5, -5, 2, -9, 18, 3, 948, 886, 58,∞
2025-03-12 15:10:20.349,730, 520, 473, -8, -4, 8, -9, 19, 6, 953, 895, 45,∞
2025-03-12 15:10:20.399,778, 685, 492, -11, -4, 1, -8, 19, 7, 964, 913, 39,∞
2025-03-12 15:10:20.458,904, 477, 365, 6, 20, 11, -9, 18, 5, 966, 913, 73,∞
2025-03-12 15:10:20.508,695, 347, 493, -3, 11, -18, -8, 19, 5, 964, 917, 33,∞
2025-03-12 15:10:20.568,796, 698, 487, -3, -22, 16, -9, 20, 4, 972, 935, 73,∞
2025-03-12 15:10:20.618,837, 810, 305, -16, -2, 29, -9, 19, 5, 975, 936, 88,∞
2025-03-12 15:10:20.679,385, 77, 729, -8, -19, -32, -8, 19, 6, 969, 937, 44,∞
2025-03-12 15:10:20.732,629, 374, 349, 17, 5, -3, -8, 20, 7, 974, 937, 51,∞
2025-03-12 15:10:20.782,1207, 423, 507, -3, 24, 18, -8, 21, 5, 974, 921, 41,∞
2025-03-12 15:10:20.837,1197, 288, 285, 27, 19, -42, -8, 19, 5, 955, 857, 48,∞
2025-03-12 15:10:21.128,731, 526, 452, 12, -20, -59, -6, 16, 4, 817, 536, 38,∑
2025-03-12 15:10:21.180,683, 625, 404, 5, -16, -54, -8, 16, 4, 821, 542, 40,∑
2025-03-12 15:10:21.238,589, 596, 526, -10, -7, -22, -8, 12, 4, 857, 597, 24,∑
2025-03-12 15:10:21.288,546, 613, 555, 9, -5, 41, -9, 15, 3, 892, 657, 70,∑
2025-03-12 15:10:21.348,776, 485, 475, -9, 2, 27, -7, 16, 4, 913, 732, 48,∑
2025-03-12 15:10:21.396,702, 511, 498, 2, 0, 24, -7, 16, 5, 929, 805, 49,∑
2025-03-12 15:10:21.450,713, 507, 555, 6, -7, 16, -6, 17, 4, 934, 828, 26,∑
2025-03-12 15:10:21.503,742, 497, 488, 6, -9, 14, -9, 17, 5, 937, 850, 72,∑
2025-03-12 15:10:21.552,782, 486, 440, 3, -8, 9, -9, 16, 4, 942, 860, 56,∑
2025-03-12 15:10:21.600,705, 487, 501, 2, 6, 6, -7, 17, 7, 944, 871, 36,∑
2025-03-12 15:10:21.663,758, 488, 448, -4, -1, -2, -8, 16, 4, 948, 875, 59,∑
2025-03-12 15:10:21.716,764, 506, 469, -3, -7, 2, -8, 18, 6, 951, 882, 54,∑
2025-03-12 15:10:21.766,731, 465, 473, 1, 1, -4, -6, 17, 6, 954, 887, 47,∑
2025-03-12 15:10:21.818,621, 436, 727, 17, -42, 8, -6, 17, 5, 959, 899, 46,∑
2025-03-12 15:10:21.879,1135, 1308, 404, -35, -13, 37, -7, 18, 7, 978, 940, 37,∑
2025-03-12 15:10:21.932,675, 528, 559, 9, 7, 28, -8, 21, 6, 974, 937, 124,∑
2025-03-12 15:10:21.982,801, 310, 373, 25, 31, -46, -9, 19, 4, 959, 914, 44,∑
2025-03-12 15:10:22.038,709, 351, 454, 0, -12, -14, -9, 17, 6, 969, 923, 30,∑
2025-03-12 15:10:22.097,624, 445, 388, -59, 15, 41, -7, 16, 7, 974, 941, 87,∑
2025-03-12 15:10:22.146,608, 348, 750, 7, 4, 0, -8, 18, 4, 970, 921, 58,∑
2025-03-12 15:10:22.199,839, 647, 374, 12, 4, -17, -9, 20, 5, 962, 871, 75,∑
2025-03-12 15:10:22.250,789, 635, 379, -53, 10, 50, -6, 20, 6, 975, 937, 50,∑
2025-03-12 15:10:22.310,866, 238, 468, 10, 11, -4, -6, 21, 4, 966, 909, 62,∑
2025-03-12 15:10:22.622,728, 489, 492, -21, 0, -1, -8, 19, 4, 894, 712, 41,∏
2025-03-12 15:10:22.678,736, 478, 502, -18, 1, 1, -8, 19, 4, 889, 713, 42,∏
2025-03-12 15:10:22.731,747, 458, 500, -4, -4, 3, -8, 20, 2, 892, 738, 71,∏
2025-03-12 15:10:22.781,761, 466, 479, -3, 2, -1, -7, 19, 3, 896, 760, 28,∏
2025-03-12 15:10:22.838,733, 448, 538, 0, 0, -2, -8, 20, 3, 895, 768, 43,∏
2025-03-12 15:10:22.881,742, 461, 494, -3, 1, -2, -7, 19, 5, 893, 754, 43,∏
2025-03-12 15:10:22.938,731, 453, 523, -4, 0, -2, -8, 20, 3, 893, 735, 36,∏
2025-03-12 15:10:22.997,727, 458, 520, -3, -1, -1, -8, 19, 6, 896, 744, 53,∏
2025-03-12 15:10:23.048,749, 448, 522, -4, -2, -2, -7, 20, 3, 899, 765, 31,∏
2025-03-12 15:10:23.098,738, 461, 527, -2, -4, -1, -8, 20, 3, 909, 797, 43,∏
2025-03-12 15:10:23.157,730, 458, 524, 1, -2, 3, -8, 20, 4, 918, 819, 29,∏
2025-03-12 15:10:23.207,768, 457, 486, -3, -7, -5, -6, 20, 6, 921, 839, 61,∏
2025-03-12 15:10:23.268,581, 447, 625, -7, -14, -10, -7, 18, 5, 932, 860, 38,∏
2025-03-12 15:10:23.318,808, 639, 427, 2, -13, -21, -9, 17, 5, 950, 900, 50,∏
2025-03-12 15:10:23.379,902, 998, 213, -37, -33, 52, -9, 19, 7, 975, 941, 143,∏
2025-03-12 15:10:23.431,629, 281, 534, 34, -3, 10, -7, 22, 7, 978, 938, 319,∏
2025-03-12 15:10:23.488,807, 354, 345, 24, 32, -60, -8, 20, 6, 959, 919, 63,∏
2025-03-12 15:10:23.538,766, 581, 726, 8, -24, 13, -8, 18, 6, 960, 923, 75,∏
2025-03-12 15:10:23.595,723, 791, 126, 8, 8, 25, -6, 17, 6, 974, 939, 67,∏
2025-03-12 15:10:23.648,865, 390, 610, 0, 31, 33, -7, 19, 5, 978, 928, 40,∏
2025-03-12 15:10:23.697,1101, 214, 417, -6, -7, -30, -8, 18, 4, 962, 914, 67,∏
2025-03-12 15:10:23.758,392, 498, 856, -9, -61, 13, -8, 20, 4, 965, 935, 41,∏
2025-03-12 15:10:23.813,812, 616, 290, 9, -6, -4, -10, 21, 7, 975, 941, 80,∏
2025-03-12 15:10:23.865,676, 315, 416, -8, 30, 50, -8, 21, 4, 978, 932, 58,∏
2025-03-12 15:10:23.922,953, 371, 39, -16, 64, -62, -6, 20, 3, 968, 906, 36,∏
2025-03-12 15:10:23.972,528, 411, 976, -42, 38, -25, -7, 19, 2, 912, 871, 80,∏
2025-03-12 15:10:24.257,727, 464, 520, 12, -17, 0, -9, 20, 2, 900, 758, 59,√
2025-03-12 15:10:24.313,745, 468, 489, 11, -16, 0, -8, 19, 4, 900, 758, 44,√
2025-03-12 15:10:24.365,770, 458, 489, 3, -6, -4, -9, 21, 4, 900, 764, 51,√
2025-03-12 15:10:24.418,770, 470, 473, 1, 1, -4, -8, 18, 4, 904, 760, 30,√
2025-03-12 15:10:24.467,741, 461, 513, -4, 0, -3, -8, 18, 5, 905, 759, 32,√
2025-03-12 15:10:24.518,734, 468, 518, 0, 1, 1, -8, 20, 3, 908, 764, 75,√
2025-03-12 15:10:24.568,746, 474, 487, 1, -1, 0, -7, 19, 4, 913, 782, 74,√
2025-03-12 15:10:24.628,741, 475, 473, -3, 0, -2, -7, 18, 6, 916, 791, 28,√
2025-03-12 15:10:24.678,754, 479, 496, 1, -3, 2, -8, 17, 4, 917, 812, 67,√
2025-03-12 15:10:24.730,733, 458, 498, 2, 0, -1, -8, 19, 5, 923, 816, 63,√
2025-03-12 15:10:24.783,785, 460, 512, 5, -9, 6, -8, 20, 5, 927, 821, 42,√
2025-03-12 15:10:24.833,708, 445, 433, 9, -4, 5, -8, 19, 5, 928, 832, 44,√
2025-03-12 15:10:24.890,771, 450, 479, -23, 9, -19, -8, 19, 3, 931, 853, 63,√
2025-03-12 15:10:24.943,696, 494, 565, -18, 3, -10, -7, 18, 3, 939, 844, 74,√
2025-03-12 15:10:24.996,760, 479, 477, 13, 3, 3, -8, 20, 3, 947, 874, 31,√
2025-03-12 15:10:25.047,555, 444, 761, 37, -33, 8, -8, 18, 6, 952, 895, 46,√
2025-03-12 15:10:25.098,1005, 760, 438, 17, -6, 0, -9, 18, 5, 966, 932, 43,√
2025-03-12 15:10:25.148,514, 122, 807, 22, 1, 16, -8, 18, 6, 971, 934, 48,√
2025-03-12 15:10:25.213,1142, 510, 456, 6, 13, 44, -8, 20, 5, 972, 916, 77,√
2025-03-12 15:10:25.264,886, 490, 758, -70, 9, 31, -9, 19, 4, 971, 928, 73,√
2025-03-12 15:10:25.322,1113, 616, 683, -29, -40, -40, -9, 21, 6, 967, 943, 73,√
2025-03-12 15:10:25.373,866, 615, 126, 16, -3, 28, -8, 19, 7, 971, 942, 248,√
2025-03-12 15:10:25.432,960, 90, 312, 11, 28, -29, -8, 20, 8, 959, 931, 49,√
2025-03-12 15:10:25.487,644, 521, 717, -1, 39, -48, -9, 19, 3, 931, 885, 35,√
2025-03-12 15:10:25.746,729, 492, 495, -5, 0, 11, -8, 17, 4, 920, 742, 43,∛
2025-03-12 15:10:25.798,748, 487, 507, -3, -1, 11, -8, 19, 3, 922, 750, 41,∛
2025-03-12 15:10:25.847,762, 454, 441, 2, 1, -1, -8, 17, 6, 927, 784, 55,∛
2025-03-12 15:10:25.898,707, 469, 510, 3, 4, 2, -8, 18, 3, 930, 813, 72,∛
2025-03-12 15:10:25.952,729, 492, 544, 11, -24, 3, -8, 18, 4, 940, 846, 69,∛
2025-03-12 15:10:26.008,970, 633, 733, 0, -6, 7, -8, 16, 5, 960, 924, 67,∛
2025-03-12 15:10:26.062,551, 262, 786, 38, 0, 12, -7, 19, 5, 968, 926, 76,∛
2025-03-12 15:10:26.116,806, 488, 41, -20, 23, 38, -8, 19, 3, 974, 918, 29,∛
2025-03-12 15:10:26.168,680, -13, 985, -45, -52, -16, -8, 22, 3, 970, 938, 56,∛
2025-03-12 15:10:26.230,1005, 222, 219, 4, -33, -18, -8, 21, 6, 974, 953, 102,∛
2025-03-12 15:10:26.283,670, 291, 235, -1, 10, 39, -7, 21, 7, 978, 945, 239,∛
2025-03-12 15:10:26.338,861, 186, 232, 25, 22, -66, -9, 19, 7, 964, 938, 66,∛
2025-03-12 15:10:26.398,754, 912, 701, 41, -22, -31, -8, 17, 6, 960, 924, 75,∛
2025-03-12 15:10:26.452,797, 467, -2, -13, -2, -7, -8, 16, 6, 974, 948, 32,∛
2025-03-12 15:10:26.501,726, 367, 638, 3, -1, 7, -9, 17, 7, 974, 947, 56,∛
2025-03-12 15:10:26.549,764, 533, 354, -1, 9, 15, -9, 19, 6, 975, 947, 44,∛
2025-03-12 15:10:26.599,741, 534, 520, -6, 9, 7, -9, 19, 6, 973, 948, 42,∛
2025-03-12 15:10:26.658,883, 504, 347, 6, 7, 0, -9, 16, 7, 972, 943, 54,∛
2025-03-12 15:10:26.714,1033, 389, 231, -21, 40, -20, -8, 18, 6, 962, 922, 48,∛
2025-03-12 15:10:26.765,541, 523, 791, -8, 7, -1, -7, 19, 1, 958, 912, 54,∛
2025-03-12 15:10:26.817,715, 518, 475, 15, -14, 8, -6, 18, 3, 951, 885, 39,∛
2025-03-12 15:10:27.061,715, 490, 520, 2, -1, 4, -8, 19, 4, 934, 790, 45,∜
2025-03-12 15:10:27.113,722, 485, 516, 3, -3, 4, -7, 18, 5, 933, 792, 47,∜
2025-03-12 15:10:27.168,727, 491, 502, 7, -4, 5, -7, 19, 3, 933, 797, 70,∜
2025-03-12 15:10:27.216,745, 475, 476, 5, -2, 4, -8, 19, 4, 935, 789, 46,∜
2025-03-12 15:10:27.268,718, 483, 481, 5, 1, 6, -8, 18, 4, 937, 784, 38,∜
2025-03-12 15:10:27.323,617, 469, 600, 13, -13, 11, -9, 18, 4, 936, 801, 41,∜
2025-03-12 15:10:27.373,884, 343, 293, 4, 21, -3, -8, 18, 6, 948, 901, 40,∜
2025-03-12 15:10:27.430,492, 296, 763, 18, 1, 14, -8, 18, 5, 963, 924, 45,∜
2025-03-12 15:10:27.480,710, 616, 245, -9, 23, 53, -8, 19, 5, 970, 907, 74,∜
2025-03-12 15:10:27.537,862, 544, 538, -71, 17, 18, -8, 20, 4, 968, 912, 66,∜
2025-03-12 15:10:27.597,493, 832, 703, -16, -64, -55, -7, 22, 3, 959, 937, 53,∜
2025-03-12 15:10:27.648,833, 693, 681, 12, -32, 25, -9, 19, 5, 970, 945, 197,∜
2025-03-12 15:10:27.708,759, 390, 529, 15, 5, 29, -9, 21, 5, 968, 928, 228,∜
2025-03-12 15:10:27.761,618, 520, 125, -8, 71, -95, -8, 19, 6, 954, 923, 36,∜
2025-03-12 15:10:27.814,581, 753, 779, 3, -52, 10, -9, 17, 5, 955, 925, 71,∜
2025-03-12 15:10:27.867,721, 1034, 383, 3, -16, -5, -8, 17, 6, 972, 947, 46,∜
2025-03-12 15:10:27.922,696, 506, 582, 5, -13, -8, -8, 17, 7, 973, 944, 61,∜
2025-03-12 15:10:27.973,918, 630, 185, 8, 7, 3, -9, 18, 7, 976, 934, 67,∜
2025-03-12 15:10:28.030,857, 516, 276, -31, 7, 36, -9, 16, 7, 978, 950, 102,∜
2025-03-12 15:10:28.080,735, 493, 416, 11, 5, 6, -9, 21, 6, 973, 946, 26,∜
2025-03-12 15:10:28.137,469, 548, 979, 40, -28, -26, -9, 16, 7, 966, 939, 47,∜
2025-03-12 15:10:28.195,940, 615, -130, 38, 22, 17, -8, 16, 8, 976, 936, 73,∜
2025-03-12 15:10:28.248,974, 284, 447, 1, 39, 10, -8, 18, 5, 969, 911, 45,∜
2025-03-12 15:10:28.298,596, 543, 770, -33, 63, -34, -5, 18, 3, 939, 883, 51,∜
2025-03-12 15:10:28.589,673, 496, 557, 10, -10, -33, -6, 16, 4, 892, 723, 24,∫
2025-03-12 15:10:28.646,664, 512, 557, 13, -14, -35, -8, 15, 2, 892, 712, 24,∫
2025-03-12 15:10:28.698,744, 597, 358, 26, -27, -57, -8, 14, 6, 874, 675, 68,∫
2025-03-12 15:10:28.747,645, 645, 496, 5, -16, -40, -8, 11, 6, 863, 642, 38,∫
2025-03-12 15:10:28.802,534, 729, 403, 5, 7, 5, -7, 9, 7, 875, 686, 38,∫
2025-03-12 15:10:28.857,519, 715, 479, -11, 17, 75, -8, 14, 3, 908, 740, 33,∫
2025-03-12 15:10:28.912,860, 348, 666, 1, -7, 66, -8, 16, 5, 935, 810, 45,∫
2025-03-12 15:10:28.967,790, 578, 319, -6, -4, 19, -6, 16, 8, 942, 847, 37,∫
2025-03-12 15:10:29.022,749, 460, 540, -1, -3, 16, -7, 16, 4, 949, 870, 75,∫
2025-03-12 15:10:29.073,794, 537, 400, -7, -7, 10, -8, 15, 7, 951, 878, 60,∫
2025-03-12 15:10:29.129,730, 482, 523, -9, -3, -6, -8, 18, 5, 955, 888, 72,∫
2025-03-12 15:10:29.180,859, 546, 408, -2, -7, 10, -9, 17, 6, 960, 900, 61,∫
2025-03-12 15:10:29.238,721, 488, 540, -7, -11, 15, -8, 16, 7, 960, 901, 67,∫
2025-03-12 15:10:29.288,673, 435, 507, 0, -35, 22, -9, 18, 7, 964, 909, 74,∫
2025-03-12 15:10:29.348,757, 354, 572, -14, 0, -13, -11, 20, 6, 965, 928, 59,∫
2025-03-12 15:10:29.398,881, 451, 278, 25, 1, -15, -11, 20, 8, 970, 933, 57,∫
2025-03-12 15:10:29.460,852, 346, 613, -10, 41, 18, -9, 19, 7, 974, 932, 62,∫
2025-03-12 15:10:29.513,719, 556, 297, -15, 26, 12, -8, 20, 6, 968, 913, 56,∫
2025-03-12 15:10:29.568,1225, 673, -56, -7, 67, -50, -8, 18, 5, 924, 855, 42,∫
2025-03-12 15:10:29.622,602, 455, 724, -51, 66, -38, -8, 19, 0, 920, 830, 65,∫
2025-03-12 15:10:29.920,185, 648, 987, 9, -17, -5, -1, 14, -9, 738, 563, 47,∮
2025-03-12 15:10:29.977,194, 615, 980, 21, -34, 7, -2, 12, -9, 741, 567, 40,∮
2025-03-12 15:10:30.030,206, 677, 781, 71, -110, 101, -4, 13, -8, 772, 578, 43,∮
2025-03-12 15:10:30.087,731, 255, 372, 58, -53, 100, -8, 14, -1, 777, 566, 50,∮
2025-03-12 15:10:30.147,707, 645, 358, 33, 4, 24, -7, 15, 0, 774, 571, 149,∮
2025-03-12 15:10:30.198,613, 564, 391, -9, 12, 1, -6, 15, 1, 843, 624, 27,∮
2025-03-12 15:10:30.248,814, 616, 678, 3, -35, 29, -7, 15, 2, 886, 699, 139,∮
2025-03-12 15:10:30.308,496, 507, 177, -35, 0, 11, -7, 16, 3, 913, 771, 27,∮
2025-03-12 15:10:30.362,917, 649, 499, 14, -29, 15, -6, 15, 3, 927, 798, 45,∮
2025-03-12 15:10:30.413,749, 533, 554, 0, 0, -8, -8, 16, 4, 930, 808, 42,∮
2025-03-12 15:10:30.467,730, 486, 503, -11, -3, 2, -7, 19, 4, 934, 827, 87,∮
2025-03-12 15:10:30.521,705, 486, 482, -11, -1, -3, -7, 18, 3, 939, 834, 67,∮
2025-03-12 15:10:30.579,698, 531, 514, -5, -8, 8, -8, 16, 6, 941, 864, 83,∮
2025-03-12 15:10:30.629,711, 498, 451, 1, -21, 4, -7, 19, 5, 950, 879, 32,∮
2025-03-12 15:10:30.687,2036, 354, 189, -53, -18, -15, -7, 18, 3, 953, 910, 59,∮
2025-03-12 15:10:30.738,838, 514, 287, 49, 15, -6, -9, 16, 5, 967, 918, 44,∮
2025-03-12 15:10:30.798,613, 319, 448, -30, 44, 60, -8, 17, 7, 974, 921, 22,∮
2025-03-12 15:10:30.847,544, 437, 629, 9, -17, -65, -7, 17, 6, 963, 925, 53,∮
2025-03-12 15:10:30.910,902, 816, 529, -5, -14, -5, -8, 16, 7, 969, 941, 195,∮
2025-03-12 15:10:30.962,811, 933, 739, -46, 13, 33, -9, 16, 7, 980, 945, 48,∮
2025-03-12 15:10:31.017,602, 407, 84, -38, 28, 13, -7, 19, 4, 969, 921, 70,∮
2025-03-12 15:10:31.072,1041, 603, 192, -11, -1, -61, -9, 16, 8, 949, 907, 39,∮
2025-03-12 15:10:31.129,432, 586, 601, -3, -46, 0, -9, 18, 4, 958, 932, 38,∮
2025-03-12 15:10:31.179,649, 681, 307, -11, -1, -7, -9, 19, 6, 963, 937, 54,∮
2025-03-12 15:10:31.237,1058, 445, 492, -1, 18, 45, -9, 19, 5, 977, 941, 41,∮
2025-03-12 15:10:31.295,609, 306, 491, 25, 24, 19, -9, 18, 6, 977, 935, 55,∮
2025-03-12 15:10:31.347,1096, 282, 339, 35, 30, -22, -8, 18, 3, 955, 860, 52,∮
2025-03-12 15:10:31.397,587, 453, 708, -47, 92, -45, -8, 18, 1, 895, 824, 45,∮
2025-03-12 15:10:31.703,593, 519, 667, -10, 5, -38, -5, 17, -3, 496, 397, 37,∂
2025-03-12 15:10:31.758,596, 523, 646, -4, 3, -39, -7, 16, -3, 423, 360, 22,∂
2025-03-12 15:10:31.811,612, 562, 671, 16, 10, -45, -4, 15, -2, 315, 277, 38,∂
2025-03-12 15:10:31.871,468, 625, 721, 14, -12, -11, -5, 16, -3, 621, 436, 99,∂
2025-03-12 15:10:31.929,418, 528, 622, 34, -53, 49, -6, 14, -2, 742, 560, 45,∂
2025-03-12 15:10:31.980,702, 481, 302, 0, 2, 41, -7, 16, 0, 777, 534, 36,∂
2025-03-12 15:10:32.029,607, 569, 667, -7, -3, 30, -6, 15, 0, 809, 566, 67,∂
2025-03-12 15:10:32.088,798, 579, 361, 11, -27, 10, -8, 18, 1, 836, 609, 71,∂
2025-03-12 15:10:32.143,762, 495, 631, 21, -21, 9, -6, 15, 1, 878, 666, 41,∂
2025-03-12 15:10:32.196,668, 507, 470, -4, 2, 1, -8, 16, 3, 901, 729, 32,∂
2025-03-12 15:10:32.247,788, 556, 419, -14, -1, 14, -8, 19, 3, 920, 777, 43,∂
2025-03-12 15:10:32.298,653, 510, 533, -2, -5, 0, -6, 16, 4, 929, 808, 46,∂
2025-03-12 15:10:32.348,710, 504, 521, 8, -2, 3, -7, 16, 3, 932, 828, 45,∂
2025-03-12 15:10:32.410,694, 526, 485, -2, -14, -2, -8, 17, 3, 936, 836, 54,∂
2025-03-12 15:10:32.462,831, 505, 409, -12, 8, 7, -10, 18, 4, 944, 847, 68,∂
2025-03-12 15:10:32.518,703, 517, 497, -5, -2, -3, -8, 17, 4, 944, 860, 66,∂
2025-03-12 15:10:32.570,727, 491, 537, -3, -13, 3, -8, 18, 5, 943, 867, 53,∂
2025-03-12 15:10:32.626,759, 490, 431, 5, -3, -2, -8, 18, 4, 942, 868, 50,∂
2025-03-12 15:10:32.679,731, 544, 439, -6, 1, -1, -8, 18, 3, 943, 874, 41,∂
2025-03-12 15:10:32.729,678, 481, 572, -4, -2, -1, -8, 18, 6, 944, 883, 69,∂
2025-03-12 15:10:32.779,808, 488, 456, 22, -37, 3, -8, 16, 7, 951, 903, 41,∂
2025-03-12 15:10:32.837,798, 788, 338, 18, 3, 42, -9, 16, 6, 969, 922, 63,∂
2025-03-12 15:10:32.893,488, 996, 333, 29, 33, 38, -9, 19, 5, 976, 916, 48,∂
2025-03-12 15:10:32.948,627, 313, 315, -24, 19, -28, -8, 19, 3, 962, 878, 49,∂
2025-03-12 15:10:33.007,721, 554, 811, -1, -26, -5, -8, 18, 3, 975, 942, 67,∂
2025-03-12 15:10:33.051,662, 665, 387, 7, -2, 6, -8, 16, 5, 977, 952, 64,∂
2025-03-12 15:10:33.111,955, 279, 237, 2, 32, -16, -7, 18, 5, 969, 933, 49,∂
2025-03-12 15:10:33.418,705, 466, 531, -8, 0, -2, -9, 16, 1, 920, 809, 70,∇
2025-03-12 15:10:33.469,708, 460, 546, -5, -1, -3, -8, 19, 4, 922, 810, 56,∇
2025-03-12 15:10:33.517,718, 511, 517, 7, -6, -1, -8, 17, 2, 926, 823, 45,∇
2025-03-12 15:10:33.577,737, 492, 492, 0, -7, 3, -8, 18, 4, 935, 847, 74,∇
2025-03-12 15:10:33.631,738, 506, 492, -9, -1, 3, -9, 17, 4, 944, 860, 27,∇
2025-03-12 15:10:33.683,720, 474, 510, -10, 0, 2, -6, 19, 3, 948, 882, 71,∇
2025-03-12 15:10:33.738,741, 495, 493, -11, 0, 4, -8, 19, 4, 957, 896, 26,∇
2025-03-12 15:10:33.786,734, 467, 506, -6, 0, 1, -7, 21, 4, 956, 901, 78,∇
2025-03-12 15:10:33.839,730, 475, 536, 2, -4, 3, -8, 18, 5, 957, 903, 44,∇
2025-03-12 15:10:33.893,740, 478, 488, -1, -4, -2, -7, 20, 3, 961, 908, 28,∇
2025-03-12 15:10:33.945,729, 459, 508, -3, 0, -1, -8, 21, 2, 959, 909, 46,∇
2025-03-12 15:10:33.998,714, 489, 502, -6, -2, -5, -6, 18, 4, 957, 914, 52,∇
2025-03-12 15:10:34.048,627, 458, 621, 13, -32, -1, -7, 18, 6, 959, 916, 77,∇
2025-03-12 15:10:34.109,844, 291, 167, -12, 2, -9, -7, 19, 6, 970, 935, 29,∇
2025-03-12 15:10:34.162,571, 404, 422, -24, -9, 24, -8, 20, 5, 972, 942, 70,∇
2025-03-12 15:10:34.212,441, 91, 565, 76, 12, 5, -8, 19, 6, 977, 938, 84,∇
2025-03-12 15:10:34.268,960, 501, 91, -3, 44, 17, -10, 20, 4, 973, 928, 61,∇
2025-03-12 15:10:34.321,767, 198, 415, 8, 1, -91, -8, 18, 5, 955, 906, 32,∇
2025-03-12 15:10:34.378,927, 485, 532, -15, -24, -32, -8, 16, 6, 965, 935, 58,∇
2025-03-12 15:10:34.437,667, 743, 196, -18, 40, 64, -10, 17, 6, 979, 937, 48,∇
2025-03-12 15:10:34.487,936, 136, 307, -4, 32, -10, -9, 21, 3, 971, 889, 44,∇
2025-03-12 15:10:34.547,658, 547, 770, -19, 48, -50, -5, 18, 1, 924, 822, 91,∇
2025-03-12 15:10:34.821,749, 500, 494, 1, -18, 1, -8, 19, 4, 900, 774, 27,∆
2025-03-12 15:10:34.878,753, 516, 480, -2, -17, 1, -6, 18, 3, 900, 777, 42,∆
2025-03-12 15:10:34.928,779, 479, 463, -11, -4, -4, -7, 18, 4, 904, 769, 24,∆
2025-03-12 15:10:34.979,739, 498, 487, -3, -4, 0, -9, 19, 3, 913, 790, 45,∆
2025-03-12 15:10:35.038,709, 474, 533, 0, -7, -3, -7, 18, 4, 919, 810, 36,∆
2025-03-12 15:10:35.093,725, 486, 477, -2, -10, 4, -8, 19, 6, 933, 831, 54,∆
2025-03-12 15:10:35.146,708, 490, 530, 7, -27, 7, -9, 19, 5, 948, 866, 31,∆
2025-03-12 15:10:35.197,761, 439, 408, -12, -2, -7, -8, 19, 5, 961, 915, 54,∆
2025-03-12 15:10:35.248,663, 304, 593, 27, -12, -13, -10, 19, 5, 972, 928, 30,∆
2025-03-12 15:10:35.312,840, 714, 183, 29, 18, -9, -8, 18, 6, 969, 898, 41,∆
2025-03-12 15:10:35.368,1071, 881, 576, -60, 13, 61, -9, 18, 4, 976, 939, 67,∆
2025-03-12 15:10:35.420,677, 494, 398, 8, 0, 15, -8, 21, 3, 974, 942, 61,∆
2025-03-12 15:10:35.471,773, 135, 307, 15, 13, -68, -7, 18, 5, 952, 914, 54,∆
2025-03-12 15:10:35.528,772, 664, 642, -156, -17, -33, -9, 17, 8, 967, 930, 33,∆
2025-03-12 15:10:35.587,845, 522, 452, -41, 36, 65, -8, 19, 5, 980, 941, 44,∆
2025-03-12 15:10:35.645,990, 197, 157, -24, 47, -41, -8, 20, 3, 967, 899, 90,∆
2025-03-12 15:10:35.698,618, 536, 822, -29, 45, -47, -6, 19, 2, 887, 824, 54,∆
2025-03-12 15:10:35.957,700, 500, 517, 7, -15, -15, -8, 16, 3, 899, 772, 21,π
2025-03-12 15:10:36.018,696, 489, 513, 9, -15, -17, -6, 16, 4, 904, 780, 44,π
2025-03-12 15:10:36.071,754, 465, 536, 10, -23, -47, -7, 16, 4, 922, 818, 57,π
2025-03-12 15:10:36.127,568, 711, 442, -1, 2, -15, -8, 14, 3, 933, 826, 36,π
2025-03-12 15:10:36.177,619, 620, 469, 0, -4, 21, -10, 14, 6, 944, 861, 64,π
2025-03-12 15:10:36.228,731, 547, 471, 3, -2, 30, -7, 15, 7, 954, 892, 37,π
2025-03-12 15:10:36.288,758, 508, 467, -6, 1, 19, -9, 16, 3, 955, 905, 53,π
2025-03-12 15:10:36.342,714, 499, 504, -7, 0, 10, -9, 15, 6, 957, 914, 63,π
2025-03-12 15:10:36.394,733, 513, 470, -3, -3, 9, -8, 16, 6, 960, 916, 41,π
2025-03-12 15:10:36.445,746, 497, 487, -5, 1, 5, -9, 18, 4, 959, 920, 77,π
2025-03-12 15:10:36.497,722, 510, 493, -3, -1, 5, -7, 17, 5, 963, 920, 29,π
2025-03-12 15:10:36.548,726, 509, 452, 0, -1, -1, -7, 18, 4, 960, 922, 66,π
2025-03-12 15:10:36.599,726, 463, 526, 2, -3, 3, -8, 18, 5, 962, 922, 49,π
2025-03-12 15:10:36.650,752, 509, 448, -3, -1, -1, -8, 18, 4, 963, 923, 32,π
2025-03-12 15:10:36.711,684, 496, 514, 2, -4, -4, -8, 18, 4, 963, 919, 48,π
2025-03-12 15:10:36.761,682, 434, 585, 13, -25, 2, -8, 17, 5, 963, 912, 36,π
2025-03-12 15:10:36.819,796, 532, 430, -11, -4, -8, -9, 17, 7, 967, 932, 79,π
2025-03-12 15:10:36.870,512, 848, 320, -7, -18, 61, -9, 18, 8, 980, 947, 116,π
2025-03-12 15:10:36.927,694, 281, 434, 26, 0, 5, -10, 19, 7, 976, 935, 136,π
2025-03-12 15:10:36.977,675, 435, 388, 6, 40, -63, -10, 18, 8, 966, 928, 71,π
2025-03-12 15:10:37.038,733, 435, 482, 7, -28, 17, -8, 16, 7, 970, 940, 35,π
2025-03-12 15:10:37.094,626, 818, 311, -17, 23, 31, -8, 17, 6, 979, 943, 76,π
2025-03-12 15:10:37.148,853, 540, 188, -35, 27, 15, -9, 19, 7, 976, 924, 36,π
2025-03-12 15:10:37.200,982, 520, 343, -32, -4, -21, -8, 17, 4, 966, 925, 54,π
2025-03-12 15:10:37.260,429, 458, 680, 19, -47, 16, -8, 19, 5, 973, 938, 50,π
2025-03-12 15:10:37.311,845, 624, 500, 23, 13, 3, -10, 17, 7, 982, 936, 25,π
2025-03-12 15:10:37.361,884, 635, 64, -30, 26, 39, -8, 20, 6, 983, 936, 64,π
2025-03-12 15:10:37.419,693, 264, 580, 13, 0, 11, -8, 19, 3, 980, 936, 46,π
2025-03-12 15:10:37.476,830, 499, 323, -31, 106, -44, -8, 20, 3, 955, 906, 87,π
2025-03-12 15:10:37.718,627, 533, 632, -33, 31, -52, -7, 16, -2, 620, 66, 53,θ
2025-03-12 15:10:37.775,605, 512, 665, -27, 29, -49, -5, 16, -2, 617, 64, 46,θ
2025-03-12 15:10:37.828,583, 548, 679, -9, 8, -35, -5, 17, -5, 515, 344, 39,θ
2025-03-12 15:10:37.877,558, 573, 663, 2, -5, -60, -4, 15, -5, 245, 424, 39,θ
2025-03-12 15:10:37.944,468, 647, 663, 3, 10, -37, -6, 13, -4, 26, 513, 216,θ
2025-03-12 15:10:37.995,368, 625, 700, 31, -17, 29, -4, 13, -4, 67, 537, 358,θ
2025-03-12 15:10:38.053,454, 533, 525, 37, -61, 78, -6, 13, -2, 548, 574, 345,θ
2025-03-12 15:10:38.110,688, 500, 459, 12, -3, 60, -7, 14, 0, 831, 688, 345,θ
2025-03-12 15:10:38.161,709, 508, 472, 6, -21, 40, -7, 15, 2, 882, 725, 330,θ
2025-03-12 15:10:38.217,836, 586, 483, 8, -21, 7, -7, 15, 4, 911, 781, 350,θ
2025-03-12 15:10:38.275,640, 526, 585, 8, -29, 15, -9, 16, 5, 924, 793, 185,θ
2025-03-12 15:10:38.327,763, 490, 326, -1, 0, 7, -8, 18, 2, 931, 815, 144,θ
2025-03-12 15:10:38.377,712, 519, 434, -6, -2, 6, -9, 16, 4, 940, 822, 42,θ
2025-03-12 15:10:38.427,701, 535, 491, -3, -38, 7, -9, 18, 4, 944, 849, 41,θ
2025-03-12 15:10:38.488,745, 316, 542, 3, -4, -13, -7, 17, 4, 956, 897, 25,θ
2025-03-12 15:10:38.544,808, 1006, 116, 63, 50, 39, -9, 16, 4, 970, 884, 45,θ
2025-03-12 15:10:38.597,775, 704, 708, 5, 15, 25, -8, 16, 3, 960, 860, 49,θ
2025-03-12 15:10:38.647,521, 531, 702, 13, -40, -20, -6, 16, 3, 930, 851, 440,θ
2025-03-12 15:10:38.709,717, 729, 340, -11, -10, -1, -9, 17, 5, 966, 908, 77,θ
2025-03-12 15:10:38.761,276, 330, 119, -1, 31, 32, -10, 18, 4, 973, 911, 58,θ
2025-03-12 15:10:38.820,774, -86, 674, -10, 17, -16, -8, 18, 4, 955, 884, 73,θ
2025-03-12 15:10:38.870,506, 694, 854, 3, -38, 1, -8, 18, 5, 953, 915, 56,θ
2025-03-12 15:10:38.926,767, 1291, 251, -7, 0, 36, -8, 18, 5, 977, 945, 29,θ
2025-03-12 15:10:38.977,694, 440, 639, 19, 5, 18, -9, 19, 5, 972, 937, 71,θ
2025-03-12 15:10:39.027,802, 493, 351, -18, 66, -48, -8, 19, 2, 931, 824, 47,θ
2025-03-12 15:10:39.094,520, 497, 758, -10, 11, -7, -5, 18, 1, 894, 667, 45,θ
2025-03-12 15:10:39.147,691, 526, 503, 10, -14, 5, -7, 19, 1, 863, 562, 45,θ
2025-03-12 15:10:39.197,739, 508, 432, -8, 4, -11, -6, 18, 4, 857, 570, 45,θ
2025-03-12 15:10:39.501,672, 524, 544, -2, -8, -1, -8, 16, 1, 775, 520, 66,λ
2025-03-12 15:10:39.558,681, 521, 544, -3, -8, -1, -7, 16, 1, 779, 534, 70,λ
2025-03-12 15:10:39.611,657, 540, 562, 6, -10, 6, -7, 18, 0, 808, 591, 72,λ
2025-03-12 15:10:39.664,725, 515, 492, -6, -7, 10, -7, 18, 1, 859, 665, 33,λ
2025-03-12 15:10:39.718,696, 520, 520, -8, -4, 6, -6, 18, 1, 900, 750, 55,λ
2025-03-12 15:10:39.768,699, 494, 545, 0, -13, 6, -6, 16, 4, 920, 802, 26,λ
2025-03-12 15:10:39.823,741, 497, 462, 1, -8, 3, -7, 19, 3, 928, 824, 60,λ
2025-03-12 15:10:39.878,710, 494, 520, -2, -4, 3, -7, 18, 4, 934, 826, 75,λ
2025-03-12 15:10:39.931,742, 499, 490, 1, -4, 3, -9, 19, 5, 939, 837, 48,λ
2025-03-12 15:10:39.980,727, 492, 490, 7, -3, -1, -7, 17, 4, 939, 834, 67,λ
2025-03-12 15:10:40.031,739, 494, 515, 2, -4, 6, -8, 18, 5, 944, 829, 34,λ
2025-03-12 15:10:40.082,697, 539, 494, -1, -1, 2, -9, 19, 3, 943, 824, 48,λ
2025-03-12 15:10:40.144,673, 449, 544, -3, -15, -2, -8, 17, 4, 945, 852, 50,λ
2025-03-12 15:10:40.193,880, 375, 84, -11, -6, -13, -8, 17, 7, 956, 888, 47,λ
2025-03-12 15:10:40.250,812, 415, 561, 7, 0, -3, -9, 19, 5, 963, 924, 44,λ
2025-03-12 15:10:40.302,791, 404, 558, 41, -9, 7, -9, 18, 5, 972, 926, 80,λ
2025-03-12 15:10:40.349,767, 770, 200, 9, 24, 35, -9, 20, 5, 975, 917, 79,λ
2025-03-12 15:10:40.409,910, 176, 332, -25, 31, -14, -8, 20, 4, 966, 901, 32,λ
2025-03-12 15:10:40.460,524, 602, 878, -5, -45, -12, -7, 18, 5, 959, 906, 67,λ
2025-03-12 15:10:40.512,898, 437, 473, -24, 2, -5, -8, 18, 6, 974, 930, 38,λ
2025-03-12 15:10:40.568,808, 555, 313, 14, 37, 30, -8, 20, 6, 972, 900, 19,λ
2025-03-12 15:10:40.627,888, 451, 95, -46, 92, -54, -6, 20, 2, 948, 852, 45,λ
2025-03-12 15:10:40.687,437, 441, 916, -37, 28, -20, -6, 18, -2, 922, 815, 32,λ
2025-03-12 15:10:40.938,623, 584, 642, 26, 3, -66, -6, 15, -1, 698, 405, 68,μ
2025-03-12 15:10:40.991,654, 646, 584, 20, 6, -63, -7, 18, -3, 696, 417, 67,μ
2025-03-12 15:10:41.048,422, 711, 616, -23, 58, -19, -5, 14, -4, 771, 546, 131,μ
2025-03-12 15:10:41.097,349, 542, 661, 58, -41, 85, -5, 12, -3, 881, 653, 341,μ
2025-03-12 15:10:41.163,700, 296, 538, 52, -47, 58, -6, 16, -1, 883, 658, 354,μ
2025-03-12 15:10:41.212,742, 649, 469, 6, 4, 10, -6, 16, 1, 888, 669, 369,μ
2025-03-12 15:10:41.268,693, 514, 491, 3, -5, 4, -6, 16, 1, 899, 707, 316,μ
2025-03-12 15:10:41.327,716, 555, 588, -3, -10, 8, -5, 15, 1, 911, 755, 375,μ
2025-03-12 15:10:41.381,652, 507, 516, 5, -17, 13, -8, 19, -1, 920, 774, 337,μ
2025-03-12 15:10:41.430,800, 552, 483, 3, -27, 4, -8, 16, 1, 927, 817, 387,μ
2025-03-12 15:10:41.480,732, 575, 433, 1, 1, 2, -6, 16, 3, 939, 819, 355,μ
2025-03-12 15:10:41.538,702, 518, 496, 2, -10, 7, -7, 16, 3, 946, 833, 322,μ
2025-03-12 15:10:41.593,745, 504, 476, -4, 1, 2, -5, 17, 4, 948, 838, 257,μ
2025-03-12 15:10:41.646,688, 504, 463, -2, 5, 0, -8, 17, 3, 949, 824, 193,μ
2025-03-12 15:10:41.697,747, 549, 409, -6, 5, 5, -6, 18, 1, 954, 814, 29,μ
2025-03-12 15:10:41.748,691, 527, 461, 3, 18, 5, -8, 18, 5, 952, 802, 103,μ
2025-03-12 15:10:41.798,708, 507, 509, 6, 3, 14, -9, 18, 3, 951, 808, 134,μ
2025-03-12 15:10:41.859,722, 513, 490, 9, -3, 19, -7, 18, 2, 954, 798, 27,μ
2025-03-12 15:10:41.913,789, 463, 301, -24, 6, -1, -7, 19, 3, 959, 861, 52,μ
2025-03-12 15:10:41.963,668, 627, 397, -56, -6, 9, -6, 19, 1, 966, 932, 35,μ
2025-03-12 15:10:42.023,1122, 522, 464, -39, -51, -47, -7, 19, 5, 969, 948, 77,μ
2025-03-12 15:10:42.080,726, 413, 476, 7, -19, -14, -7, 20, 4, 975, 952, 45,μ
2025-03-12 15:10:42.131,731, 481, 469, 18, -5, -6, -10, 17, 6, 979, 953, 35,μ
2025-03-12 15:10:42.188,861, 698, 350, 32, 24, 13, -6, 17, 3, 978, 945, 76,μ
2025-03-12 15:10:42.244,952, 728, 307, -43, 13, 27, -8, 18, 6, 976, 940, 78,μ
2025-03-12 15:10:42.297,717, 382, 491, -13, -18, -15, -9, 20, 5, 975, 948, 36,μ
2025-03-12 15:10:42.348,770, 418, 443, -5, -4, -8, -7, 20, 4, 975, 949, 69,μ
2025-03-12 15:10:42.409,954, 825, 470, 22, 24, 32, -7, 20, 4, 978, 940, 74,μ
2025-03-12 15:10:42.464,872, 591, 495, -29, 14, 23, -9, 19, 4, 975, 935, 76,μ
2025-03-12 15:10:42.518,959, 536, -3, -32, 100, -26, -7, 20, 4, 967, 919, 62,μ
2025-03-12 15:10:42.576,558, 459, 603, -39, 80, -14, -5, 20, 1, 955, 844, 38,μ
2025-03-12 15:10:43.249,716, 509, 501, -14, -4, 0, -8, 18, 1, 765, 478, 43,ω
2025-03-12 15:10:43.298,710, 497, 523, -12, -4, -1, -7, 17, 1, 774, 500, 19,ω
2025-03-12 15:10:43.358,706, 527, 520, -5, -9, 2, -7, 16, 2, 833, 609, 69,ω
2025-03-12 15:10:43.411,743, 516, 449, -4, -8, 0, -8, 16, 1, 875, 705, 47,ω
2025-03-12 15:10:43.467,700, 513, 503, -1, -2, -4, -8, 18, 2, 901, 763, 55,ω
2025-03-12 15:10:43.520,711, 511, 505, -3, -6, -1, -6, 17, 3, 912, 803, 78,ω
2025-03-12 15:10:43.575,724, 523, 487, -3, -7, -3, -8, 16, 4, 921, 827, 73,ω
2025-03-12 15:10:43.628,733, 531, 476, -4, -7, 0, -7, 19, 3, 925, 837, 72,ω
2025-03-12 15:10:43.678,700, 494, 509, -3, -10, -2, -9, 18, 3, 933, 849, 44,ω
2025-03-12 15:10:43.728,755, 511, 421, -5, -8, 2, -7, 17, 4, 938, 859, 63,ω
2025-03-12 15:10:43.793,765, 524, 439, -11, 10, -3, -7, 18, 4, 939, 856, 44,ω
2025-03-12 15:10:43.843,684, 484, 581, 10, -7, 8, -7, 17, 5, 943, 862, 37,ω
2025-03-12 15:10:43.894,756, 518, 443, 0, 1, 0, -7, 17, 6, 945, 863, 53,ω
2025-03-12 15:10:43.944,736, 534, 464, 6, 0, 6, -8, 18, 3, 948, 867, 65,ω
2025-03-12 15:10:43.998,601, 494, 590, 10, -27, 9, -7, 17, 6, 955, 888, 74,ω
2025-03-12 15:10:44.048,645, 258, 584, -10, -3, -12, -9, 18, 6, 965, 920, 68,ω
2025-03-12 15:10:44.111,948, 721, 259, 51, 10, -3, -9, 16, 7, 977, 920, 30,ω
2025-03-12 15:10:44.162,799, 369, 454, -11, 17, 44, -8, 18, 4, 978, 923, 58,ω
2025-03-12 15:10:44.221,713, 127, 701, 2, -18, -18, -10, 20, 6, 969, 919, 36,ω
2025-03-12 15:10:44.275,921, 894, 277, -5, 8, 31, -8, 19, 4, 976, 920, 44,ω
2025-03-12 15:10:44.328,666, 431, 661, -35, -5, 20, -8, 21, 3, 976, 934, 70,ω
2025-03-12 15:10:44.378,785, 431, 191, -14, 105, -28, -7, 19, 6, 956, 891, 55,ω
2025-03-12 15:10:44.678,755, 496, 449, -5, -8, 0, -6, 18, 3, 893, 710, 46,!
2025-03-12 15:10:44.737,749, 477, 443, -5, -7, -1, -6, 18, 3, 897, 715, 45,!
2025-03-12 15:10:44.792,727, 518, 481, -11, -4, -5, -7, 17, 3, 908, 775, 65,!
2025-03-12 15:10:44.843,729, 489, 514, 5, -8, -5, -8, 18, 3, 908, 797, 39,!
2025-03-12 15:10:44.898,739, 496, 482, -4, 0, -4, -6, 18, 6, 911, 810, 76,!
2025-03-12 15:10:44.947,721, 513, 501, -3, -1, -4, -7, 18, 5, 917, 822, 39,!
2025-03-12 15:10:45.008,739, 489, 494, -6, -1, -2, -6, 18, 2, 919, 829, 44,!
2025-03-12 15:10:45.059,708, 524, 520, -10, -2, -5, -8, 17, 4, 917, 810, 27,!
2025-03-12 15:10:45.109,718, 470, 523, -5, 0, 1, -10, 18, 4, 915, 768, 62,!
2025-03-12 15:10:45.168,759, 495, 473, 4, -2, 6, -7, 18, 4, 917, 759, 27,!
2025-03-12 15:10:45.218,735, 507, 473, -4, 2, 4, -6, 18, 5, 923, 767, 41,!
2025-03-12 15:10:45.274,691, 499, 534, -4, -14, 8, -8, 19, 3, 933, 807, 61,!
2025-03-12 15:10:45.327,710, 486, 508, -21, -22, 2, -7, 19, 5, 943, 850, 53,!
2025-03-12 15:10:45.386,756, 237, 711, -36, -9, -11, -8, 19, 6, 965, 924, 55,!
2025-03-12 15:10:45.438,747, 481, 197, 57, 48, 53, -9, 19, 6, 980, 929, 60,!
2025-03-12 15:10:45.492,801, 507, 264, 30, 22, 10, -8, 21, 5, 976, 899, 21,!
2025-03-12 15:10:45.547,395, 516, 577, -21, 88, -15, -6, 21, 2, 961, 855, 39,!
2025-03-12 15:10:45.607,747, 102, -666, 13, -9, -16, -6, 21, 4, 967, 916, 78,!
2025-03-12 15:10:45.658,1013, 206, 439, 4, -11, -13, -7, 20, 3, 966, 870, 35,!
2025-03-12 15:10:45.717,511, 471, 901, -36, 94, -39, -6, 19, -1, 926, 664, 52,!
2025-03-12 15:10:45.978,721, 450, 568, 6, -22, 1, -7, 19, 2, 899, 730, 64,@
2025-03-12 15:10:46.037,732, 458, 552, 6, -20, 2, -6, 19, 1, 900, 736, 52,@
2025-03-12 15:10:46.090,762, 446, 519, 2, -11, 0, -7, 21, 3, 905, 762, 66,@
2025-03-12 15:10:46.143,735, 456, 538, -10, -5, -4, -8, 19, 2, 915, 798, 55,@
2025-03-12 15:10:46.198,718, 440, 561, -8, -7, -2, -7, 18, 3, 925, 817, 68,@
2025-03-12 15:10:46.248,750, 455, 500, -9, -5, -1, -8, 20, 3, 938, 847, 70,@
2025-03-12 15:10:46.308,695, 455, 545, 0, -3, -3, -7, 21, 3, 948, 864, 62,@
2025-03-12 15:10:46.361,721, 457, 529, 17, -4, -2, -8, 20, 4, 952, 883, 46,@
2025-03-12 15:10:46.411,751, 455, 500, 21, -7, -2, -6, 19, 3, 951, 895, 40,@
2025-03-12 15:10:46.467,757, 500, 494, 12, -4, -3, -8, 18, 3, 954, 903, 52,@
2025-03-12 15:10:46.520,736, 492, 499, 5, 1, 4, -8, 18, 5, 958, 902, 49,@
2025-03-12 15:10:46.573,755, 511, 461, 0, -4, 2, -7, 19, 3, 959, 905, 78,@
2025-03-12 15:10:46.620,779, 498, 450, -1, 3, 4, -8, 18, 4, 959, 907, 48,@
2025-03-12 15:10:46.676,672, 488, 520, 1, -7, -1, -8, 17, 4, 962, 908, 32,@
2025-03-12 15:10:46.727,775, 469, 468, -3, -1, -2, -8, 19, 3, 960, 907, 58,@
2025-03-12 15:10:46.778,749, 486, 506, -4, 1, 9, -7, 19, 7, 964, 899, 45,@
2025-03-12 15:10:46.827,644, 451, 594, 5, -16, 8, -8, 18, 6, 965, 904, 44,@
2025-03-12 15:10:46.888,550, 198, 603, -18, 0, -15, -9, 19, 3, 968, 925, 75,@
2025-03-12 15:10:46.944,767, 581, 145, 35, 11, -14, -8, 17, 7, 974, 918, 50,@
2025-03-12 15:10:46.998,626, 354, 365, -44, 15, 26, -7, 21, 5, 977, 934, 29,@
2025-03-12 15:10:47.057,774, 395, 615, 7, -13, -14, -8, 21, 4, 971, 935, 64,@
2025-03-12 15:10:47.109,814, 720, 292, 23, 15, 26, -9, 21, 4, 976, 920, 61,@
2025-03-12 15:10:47.160,944, 775, 212, -44, 15, 35, -8, 21, 4, 975, 927, 77,@
2025-03-12 15:10:47.221,369, 241, 762, -26, -37, -35, -9, 19, 5, 968, 934, 49,@
2025-03-12 15:10:47.278,1198, 414, 589, -9, -4, -29, -9, 20, 6, 967, 940, 35,@
2025-03-12 15:10:47.328,686, 809, 503, 94, 32, -3, -9, 19, 6, 974, 914, 47,@
2025-03-12 15:10:47.387,958, 647, 238, -48, 31, 61, -8, 19, 4, 970, 912, 64,@
2025-03-12 15:10:47.442,895, 483, 37, -33, 107, -73, -8, 20, 3, 945, 854, 48,@
2025-03-12 15:10:47.753,524, 673, 585, 64, -40, 41, -5, 13, -2, 688, 169, 614,#
2025-03-12 15:10:47.810,535, 633, 503, 58, -39, 47, -7, 14, -3, 686, 101, 607,#
2025-03-12 15:10:47.861,641, 547, 502, 47, -4, 39, -5, 13, 0, 762, 44, 474,#
2025-03-12 15:10:47.918,710, 530, 341, 7, -13, 18, -6, 15, 0, 845, 51, 495,#
2025-03-12 15:10:47.967,775, 520, 499, 2, -22, 4, -7, 15, 1, 869, 62, 510,#
2025-03-12 15:10:48.028,716, 621, 342, -73, 3, 7, -7, 15, 1, 904, 433, 578,#
2025-03-12 15:10:48.079,766, 583, 502, -16, -9, 4, -8, 16, 1, 924, 738, 510,#
2025-03-12 15:10:48.129,698, 506, 487, -14, -1, 6, -7, 18, 1, 935, 861, 585,#
2025-03-12 15:10:48.192,683, 528, 506, -11, -2, 12, -7, 18, 3, 945, 890, 578,#
2025-03-12 15:10:48.244,747, 511, 469, 8, -10, 3, -7, 18, 2, 945, 900, 557,#
2025-03-12 15:10:48.298,781, 531, 407, 0, -4, 0, -6, 18, 4, 950, 909, 588,#
2025-03-12 15:10:48.347,729, 511, 491, -3, 0, 1, -6, 17, 2, 951, 912, 571,#
2025-03-12 15:10:48.397,693, 510, 465, -1, -3, 3, -7, 16, 4, 953, 919, 588,#
2025-03-12 15:10:48.458,755, 483, 479, -6, -6, -1, -7, 18, 2, 954, 916, 572,#
2025-03-12 15:10:48.519,678, 519, 464, -11, -12, -3, -7, 19, 3, 958, 927, 570,#
2025-03-12 15:10:48.576,692, 555, 622, -4, -20, -10, -7, 19, 5, 967, 942, 478,#
2025-03-12 15:10:48.627,928, 654, 559, -3, 36, 32, -9, 18, 3, 973, 925, 93,#
2025-03-12 15:10:48.678,1054, 755, 269, -32, 43, 37, -7, 19, 4, 963, 894, 77,#
2025-03-12 15:10:48.741,449, 554, 781, -47, -15, -31, -7, 18, 3, 959, 922, 424,#
2025-03-12 15:10:48.798,546, 678, 288, 12, -17, -10, -7, 18, 3, 971, 941, 338,#
2025-03-12 15:10:48.848,604, 572, 308, 8, 43, 60, -7, 19, 4, 975, 934, 83,#
2025-03-12 15:10:48.908,811, -55, 551, -32, 3, -55, -7, 20, 3, 963, 907, 49,#
2025-03-12 15:10:48.959,851, 646, 898, 5, -15, -17, -6, 16, 4, 965, 933, 69,#
2025-03-12 15:10:49.018,804, 560, 150, -47, -1, 44, -9, 19, 5, 976, 953, 70,#
2025-03-12 15:10:49.068,670, 389, 541, 8, 17, 7, -8, 19, 4, 966, 932, 152,#
2025-03-12 15:10:49.127,247, 630, 923, -11, -10, -28, -8, 17, 5, 953, 798, 44,#
2025-03-12 15:10:49.177,852, 1154, 375, 19, -5, 28, -8, 18, 5, 977, 949, 90,#
2025-03-12 15:10:49.240,681, 548, 541, 15, 11, 37, -9, 19, 5, 973, 941, 202,#
2025-03-12 15:10:49.291,596, 494, 502, -13, 70, -74, -7, 20, 2, 940, 834, 345,#
2025-03-12 15:10:49.348,562, 578, 745, 5, -9, -2, -6, 18, 1, 900, 614, 305,#
2025-03-12 15:10:49.404,811, 534, 408, 21, -23, 5, -6, 18, 4, 880, 596, 337,#
2025-03-12 15:10:49.458,770, 481, 484, -17, 8, -8, -6, 17, 3, 881, 625, 139,#
2025-03-12 15:10:49.508,657, 494, 572, 4, -5, 0, -7, 18, 2, 877, 661, 74,#
2025-03-12 15:10:49.768,711, 527, 495, -16, 0, 0, -7, 18, 5, 853, 615, 39,%
2025-03-12 15:10:49.826,712, 525, 502, -14, 0, 1, -9, 18, 2, 859, 626, 69,%
2025-03-12 15:10:49.874,709, 484, 522, 2, -2, 3, -7, 18, 3, 861, 639, 44,%
2025-03-12 15:10:49.927,729, 520, 482, 2, -2, 2, -8, 19, 3, 864, 644, 33,%
2025-03-12 15:10:49.977,730, 486, 494, -2, -1, -1, -5, 18, 4, 886, 699, 72,%
2025-03-12 15:10:50.027,732, 479, 500, -4, -3, 0, -8, 19, 2, 899, 747, 40,%
2025-03-12 15:10:50.088,729, 512, 500, -6, -1, 2, -8, 18, 3, 909, 766, 45,%
2025-03-12 15:10:50.141,750, 485, 480, -7, -2, 1, -7, 18, 4, 922, 779, 74,%
2025-03-12 15:10:50.193,732, 458, 517, 0, 4, -2, -6, 19, 2, 926, 750, 26,%
2025-03-12 15:10:50.243,691, 485, 535, -3, 0, 0, -9, 18, 3, 921, 708, 73,%
2025-03-12 15:10:50.293,773, 482, 481, 20, -8, 5, -8, 19, 3, 925, 798, 55,%
2025-03-12 15:10:50.348,713, 515, 478, 0, 1, 5, -8, 17, 3, 928, 808, 61,%
2025-03-12 15:10:50.398,621, 484, 600, -4, -25, 4, -7, 17, 2, 935, 834, 57,%
2025-03-12 15:10:50.459,833, 438, 74, -50, -23, -17, -7, 19, 3, 951, 917, 29,%
2025-03-12 15:10:50.509,834, 584, 284, 31, 5, -14, -8, 19, 6, 966, 929, 53,%
2025-03-12 15:10:50.567,844, 614, 505, -69, 10, 42, -8, 19, 5, 974, 950, 43,%
2025-03-12 15:10:50.624,1030, 328, 148, 25, 11, -22, -9, 20, 7, 961, 945, 41,%
2025-03-12 15:10:50.678,380, 472, 939, 8, -27, 10, -6, 21, 3, 962, 940, 74,%
2025-03-12 15:10:50.728,619, 595, 355, -17, -15, -1, -8, 21, 5, 970, 944, 38,%
2025-03-12 15:10:50.787,210, 643, 765, 18, 51, 40, -8, 18, 6, 974, 918, 50,%
2025-03-12 15:10:50.841,1041, 472, 246, -9, 25, 25, -8, 20, 4, 965, 901, 39,%
2025-03-12 15:10:50.898,468, 290, 372, -51, -25, -12, -8, 21, 4, 967, 938, 55,%
2025-03-12 15:10:50.955,615, 250, 183, 34, 2, -15, -8, 20, 3, 974, 934, 64,%
2025-03-12 15:10:51.008,800, 244, 704, -70, 14, 38, -9, 22, 3, 978, 948, 52,%
2025-03-12 15:10:51.057,814, 444, 231, 19, 44, -37, -7, 20, 5, 963, 932, 91,%
2025-03-12 15:10:51.337,737, 486, 460, -1, -7, -1, -8, 18, 5, 910, 782, 64,^
2025-03-12 15:10:51.391,751, 480, 451, -5, -5, -1, -9, 20, 3, 911, 780, 52,^
2025-03-12 15:10:51.444,740, 466, 506, -4, 0, -5, -8, 20, 5, 914, 793, 63,^
2025-03-12 15:10:51.495,750, 450, 499, -12, 0, -3, -8, 19, 4, 921, 775, 28,^
2025-03-12 15:10:51.547,750, 466, 489, -8, 0, 0, -9, 21, 3, 927, 794, 53,^
2025-03-12 15:10:51.598,750, 453, 515, 0, -3, -4, -8, 19, 3, 931, 807, 47,^
2025-03-12 15:10:51.653,758, 473, 507, -4, -3, 1, -8, 18, 5, 935, 833, 59,^
2025-03-12 15:10:51.705,735, 446, 525, 1, -2, -4, -7, 18, 6, 937, 844, 54,^
2025-03-12 15:10:51.758,749, 473, 485, 0, -1, -4, -8, 18, 5, 939, 845, 29,^
2025-03-12 15:10:51.807,748, 416, 532, 21, 13, 11, -9, 19, 3, 942, 839, 72,^
2025-03-12 15:10:51.857,705, 506, 493, 0, 2, 8, -8, 18, 4, 943, 831, 42,^
2025-03-12 15:10:51.922,729, 490, 355, -96, -7, -11, -7, 20, 4, 955, 886, 29,^
2025-03-12 15:10:51.974,816, 439, 334, -37, -11, -1, -8, 20, 3, 969, 948, 52,^
2025-03-12 15:10:52.028,629, 232, 850, 29, -31, -13, -8, 20, 4, 974, 953, 85,^
2025-03-12 15:10:52.080,812, 429, 242, 11, 19, 26, -8, 20, 4, 977, 950, 46,^
2025-03-12 15:10:52.140,1041, 32, 305, -27, 52, -49, -9, 21, 4, 966, 943, 44,^
2025-03-12 15:10:52.197,534, 516, 929, -16, 10, -14, -7, 19, 1, 937, 916, 92,^
2025-03-12 15:10:52.467,714, 459, 553, -8, -2, -2, -8, 19, 3, 930, 828, 52,&
2025-03-12 15:10:52.529,711, 458, 552, -6, -4, -2, -9, 21, 2, 931, 834, 78,&
2025-03-12 15:10:52.577,740, 460, 501, 0, -7, -3, -7, 18, 4, 934, 834, 27,&
2025-03-12 15:10:52.629,745, 476, 490, -2, -3, -4, -8, 19, 6, 933, 837, 65,&
2025-03-12 15:10:52.691,728, 471, 502, -6, -2, -2, -9, 19, 3, 937, 843, 43,&
2025-03-12 15:10:52.742,741, 457, 508, -2, -2, 0, -7, 19, 5, 939, 846, 50,&
