Timestamp,Acc_X,Acc_Y,Acc_Z,Gyro_X,Gyro_Y,Gyro_Z,Mag_X,Mag_Y,Mag_Z,Force1,Force2,Force3,Letter
2025-03-18 11:41:36.193,234, 694, 556, 39, -12, -29, -14, 13, 14, 226, 53, 48,noise
2025-03-18 11:41:43.094,558, 723, 430, 1, -1, 1, -3, 1, 7, 508, 236, 66,A
2025-03-18 11:41:43.148,563, 733, 430, 1, -2, 1, -3, 3, 7, 510, 239, 49,A
2025-03-18 11:41:43.201,593, 685, 361, -17, 6, -8, -2, 2, 6, 518, 258, 32,A
2025-03-18 11:41:43.251,524, 710, 440, 3, -3, 7, -2, 2, 8, 527, 294, 63,A
2025-03-18 11:41:43.304,663, 708, 268, 10, -9, 1, -2, 0, 8, 481, 299, 68,A
2025-03-18 11:41:43.357,623, 768, 199, -24, 32, -17, -2, 1, 6, 541, 422, 48,A
2025-03-18 11:41:43.410,477, 771, 490, -28, 30, -7, -2, 2, 5, 596, 469, 54,A
2025-03-18 11:41:43.467,568, 770, 440, -14, 44, -1, -1, 2, 3, 524, 472, 39,A
2025-03-18 11:41:43.521,426, 663, 623, 0, 43, -5, -1, 3, -1, 402, 485, 57,A
2025-03-18 11:41:43.570,432, 705, 529, 17, 1, 31, 0, 4, -3, 421, 494, 50,A
2025-03-18 11:41:43.626,508, 734, 481, 23, -3, 26, -1, 3, -1, 325, 493, 67,A
2025-03-18 11:41:43.677,639, 699, 416, 0, -2, 10, -2, 4, -1, 211, 446, 66,A
2025-03-18 11:41:43.734,491, 771, 572, -37, -1, 14, -1, 4, -1, 621, 552, 47,A
2025-03-18 11:41:43.787,515, 720, 576, 10, 3, 19, -1, 3, 0, 711, 558, 72,A
2025-03-18 11:41:43.840,610, 639, 479, -18, 14, 27, 1, 2, 1, 643, 678, 148,A
2025-03-18 11:41:43.894,498, 576, 479, -15, -2, -19, -2, 3, -1, 74, 724, 70,A
2025-03-18 11:41:43.947,515, 569, 413, -31, -3, 10, -1, 4, 0, 57, 763, 46,A
2025-03-18 11:41:44.005,625, 413, 435, 41, -64, -29, -2, 4, 2, 448, 746, 75,A
2025-03-18 11:41:44.061,1012, 1086, 672, -37, 0, -37, -1, 3, 4, 872, 700, 338,A
2025-03-18 11:41:44.114,508, 590, 320, 4, -87, 18, -3, 3, 4, 885, 495, 430,A
2025-03-18 11:41:44.168,672, 676, 221, -9, -26, 29, -5, 2, 8, 901, 611, 537,A
2025-03-18 11:41:44.226,569, 623, 540, -30, -26, 33, -6, 6, 6, 914, 710, 638,A
2025-03-18 11:41:44.279,761, 733, 476, -10, 2, 7, -7, 10, 6, 923, 781, 672,A
2025-03-18 11:41:44.336,577, 576, 446, 5, -13, 20, -9, 10, 7, 930, 824, 686,A
2025-03-18 11:41:44.389,695, 563, 301, -7, -2, -6, -9, 9, 8, 938, 838, 688,A
2025-03-18 11:41:44.442,685, 643, 479, 12, -2, -4, -11, 10, 7, 938, 842, 690,A
2025-03-18 11:41:44.500,636, 564, 295, -5, 20, -10, -12, 9, 5, 939, 850, 689,A
2025-03-18 11:41:44.557,724, 666, 787, 11, -13, 3, -11, 9, 3, 947, 865, 681,A
2025-03-18 11:41:44.610,687, 593, 315, -5, -5, -7, -11, 9, 3, 943, 881, 693,A
2025-03-18 11:41:44.668,588, 568, 456, -4, -26, 8, -11, 10, 3, 945, 907, 702,A
2025-03-18 11:41:44.725,666, 410, 531, -5, -18, -11, -11, 8, 8, 961, 933, 680,A
2025-03-18 11:41:44.778,587, 699, 297, 53, 36, 26, -6, 7, 10, 966, 919, 556,A
2025-03-18 11:41:44.831,783, 666, 74, -5, 24, 13, -9, 10, 5, 952, 907, 561,A
2025-03-18 11:41:44.894,575, 724, 511, -28, -38, -37, -10, 10, 6, 952, 925, 687,A
2025-03-18 11:41:44.946,738, 667, 368, 26, -18, -2, -11, 9, 7, 964, 941, 689,A
2025-03-18 11:41:45.003,910, 614, 321, -6, 37, 28, -11, 9, 7, 960, 925, 655,A
2025-03-18 11:41:45.061,438, 502, 626, -13, -13, -34, -10, 10, 5, 948, 893, 624,A
2025-03-18 11:41:45.118,835, 682, 451, 18, -7, -3, -11, 11, 5, 956, 940, 599,A
2025-03-18 11:41:45.176,748, 718, 289, -10, 33, 35, -10, 10, 6, 959, 944, 710,A
2025-03-18 11:41:45.233,565, 610, 458, -50, 70, -43, -11, 9, 4, 952, 915, 684,A
2025-03-18 11:41:45.290,502, 619, 676, -7, 17, -22, -10, 11, 0, 939, 880, 688,A
2025-03-18 11:41:45.348,597, 658, 545, -1, -9, 5, -10, 10, -1, 929, 873, 676,A
2025-03-18 11:41:45.401,666, 608, 479, -9, -5, 4, -10, 10, 1, 926, 859, 656,A
2025-03-18 11:41:45.455,631, 625, 490, -6, 5, 1, -11, 9, 3, 925, 853, 626,A
2025-03-18 11:41:45.511,637, 603, 517, -5, 6, -1, -12, 11, -2, 914, 847, 621,A
2025-03-18 11:41:45.565,596, 623, 533, 1, 2, 6, -10, 11, -1, 910, 834, 602,A
2025-03-18 11:41:45.622,645, 618, 541, 9, -9, 13, -11, 11, -3, 907, 838, 614,A
2025-03-18 11:41:45.676,625, 611, 492, 3, 0, 4, -13, 11, -3, 902, 822, 620,A
2025-03-18 11:41:45.733,625, 637, 450, 17, -8, 10, -10, 14, -3, 902, 811, 625,A
2025-03-18 11:41:46.012,571, 562, 291, 12, 9, 10, -13, 8, -2, 900, 807, 572,B
2025-03-18 11:41:46.065,582, 531, 277, 9, 10, 9, -11, 6, 0, 899, 808, 576,B
2025-03-18 11:41:46.122,724, 649, 628, 7, -5, 19, -13, 10, -3, 908, 823, 591,B
2025-03-18 11:41:46.176,490, 430, 354, -21, 22, 4, -12, 11, -5, 917, 848, 616,B
2025-03-18 11:41:46.233,701, 708, 500, 8, -12, 18, -11, 11, -3, 924, 876, 665,B
2025-03-18 11:41:46.290,704, 627, 436, 4, -7, 11, -10, 10, -1, 930, 896, 684,B
2025-03-18 11:41:46.348,682, 583, 443, 3, -2, 7, -12, 11, -3, 938, 914, 692,B
2025-03-18 11:41:46.400,688, 578, 432, -1, 0, 3, -11, 11, -2, 939, 916, 705,B
2025-03-18 11:41:46.453,687, 603, 443, -1, 4, 1, -13, 10, -2, 942, 920, 712,B
2025-03-18 11:41:46.511,671, 604, 473, 1, -1, 3, -11, 10, -3, 939, 924, 713,B
2025-03-18 11:41:46.564,697, 595, 432, 3, -2, 4, -11, 11, -3, 945, 926, 710,B
2025-03-18 11:41:46.622,700, 567, 424, -9, -1, -3, -8, 10, -3, 948, 930, 695,B
2025-03-18 11:41:46.683,644, 554, 468, -25, -8, -16, -13, 12, -5, 942, 920, 659,B
2025-03-18 11:41:46.740,737, 594, 504, 6, -30, -22, -12, 13, -3, 945, 930, 555,B
2025-03-18 11:41:46.797,693, 892, 257, 40, 14, 20, -11, 11, -2, 959, 942, 532,B
2025-03-18 11:41:46.851,529, 681, 201, 0, 39, 33, -10, 11, -3, 960, 937, 406,B
2025-03-18 11:41:46.912,623, 332, 526, -19, -36, -63, -11, 11, -3, 949, 930, 590,B
2025-03-18 11:41:46.973,729, 541, 583, -2, -23, -11, -11, 11, -3, 958, 947, 660,B
2025-03-18 11:41:47.027,622, 746, 459, 10, 4, 13, -11, 10, 2, 963, 954, 687,B
2025-03-18 11:41:47.080,629, 507, 297, 1, 7, 14, -9, 7, 5, 966, 947, 577,B
2025-03-18 11:41:47.133,704, 653, 531, -6, 16, 9, -11, 12, -3, 960, 944, 518,B
2025-03-18 11:41:47.186,695, 667, 390, 5, 4, 4, -9, 11, -2, 965, 942, 479,B
2025-03-18 11:41:47.244,776, 553, 307, -1, 17, 4, -9, 11, -1, 952, 906, 404,B
2025-03-18 11:41:47.302,754, 563, 463, -25, 19, -35, -9, 11, -4, 946, 902, 561,B
2025-03-18 11:41:47.359,562, 607, 564, -3, -12, -5, -11, 10, -3, 941, 908, 577,B
2025-03-18 11:41:47.646,672, 600, 455, 3, -4, 2, -10, 12, -2, 942, 917, 604,C
2025-03-18 11:41:47.704,666, 610, 446, 2, -3, 3, -13, 10, -4, 944, 918, 607,C
2025-03-18 11:41:47.752,694, 595, 432, 1, -3, 5, -9, 8, 3, 949, 923, 601,C
2025-03-18 11:41:47.810,707, 579, 430, -1, 0, 1, -11, 11, -2, 946, 921, 618,C
2025-03-18 11:41:47.862,697, 598, 429, -1, 0, 1, -12, 11, 2, 950, 926, 617,C
2025-03-18 11:41:47.920,665, 606, 457, -3, -3, 2, -12, 12, -2, 947, 927, 651,C
2025-03-18 11:41:47.973,691, 577, 432, 2, -3, 3, -11, 12, -3, 948, 932, 659,C
2025-03-18 11:41:48.031,667, 549, 475, 8, -14, 8, -12, 11, -2, 952, 938, 671,C
2025-03-18 11:41:48.088,704, 753, 423, -9, -9, -7, -11, 11, 0, 953, 942, 609,C
2025-03-18 11:41:48.145,719, 535, 496, 16, -12, -15, -11, 10, 1, 958, 939, 439,C
2025-03-18 11:41:48.198,930, 974, 354, 15, 35, 28, -9, 10, 1, 965, 935, 232,C
2025-03-18 11:41:48.260,766, 533, 487, -13, 25, 30, -11, 11, -2, 965, 951, 538,C
2025-03-18 11:41:48.317,809, 475, 222, -32, 47, -47, -12, 11, -3, 952, 938, 691,C
2025-03-18 11:41:48.374,477, 621, 657, -29, 20, -23, -13, 12, -6, 947, 916, 630,C
2025-03-18 11:41:48.609,681, 587, 454, -3, -9, 0, -10, 13, -6, 949, 925, 589,D
2025-03-18 11:41:48.666,685, 573, 450, -3, -9, 0, -10, 13, -6, 947, 925, 590,D
2025-03-18 11:41:48.723,708, 580, 448, 0, -6, 2, -12, 11, -3, 948, 928, 604,D
2025-03-18 11:41:48.776,690, 584, 438, 0, -2, 1, -12, 9, -2, 949, 930, 613,D
2025-03-18 11:41:48.833,696, 585, 430, -5, -1, -2, -11, 12, -3, 950, 930, 618,D
2025-03-18 11:41:48.891,643, 576, 473, -9, -10, -4, -12, 11, -4, 951, 930, 572,D
2025-03-18 11:41:48.948,701, 556, 485, -10, -15, -2, -13, 11, -3, 950, 936, 478,D
2025-03-18 11:41:49.006,787, 739, 492, 50, 0, 3, -10, 11, -1, 964, 945, 481,D
2025-03-18 11:41:49.062,773, 708, 317, -14, 33, 38, -9, 12, -3, 970, 948, 229,D
2025-03-18 11:41:49.120,609, 99, 523, -5, -31, -57, -10, 12, -4, 959, 944, 502,D
2025-03-18 11:41:49.178,772, 229, 512, 15, -21, -13, -11, 12, -3, 965, 961, 670,D
2025-03-18 11:41:49.235,436, 640, 324, 13, 15, 25, -8, 11, 1, 974, 961, 614,D
2025-03-18 11:41:49.292,812, 423, 343, 0, 29, 19, -11, 12, -4, 966, 946, 434,D
2025-03-18 11:41:49.349,808, 433, 342, -30, 40, -50, -10, 11, -5, 947, 914, 640,D
2025-03-18 11:41:49.648,705, 583, 451, -6, -3, 0, -12, 12, -4, 954, 934, 581,E
2025-03-18 11:41:49.702,691, 568, 449, -5, -1, 0, -7, 9, -3, 952, 933, 589,E
2025-03-18 11:41:49.760,685, 570, 474, -5, -3, -1, -12, 11, -5, 949, 935, 599,E
2025-03-18 11:41:49.812,697, 575, 457, 0, -3, 0, -11, 9, 1, 953, 935, 607,E
2025-03-18 11:41:49.866,696, 578, 458, -2, -2, 1, -11, 11, -4, 953, 936, 609,E
2025-03-18 11:41:49.923,671, 567, 479, -3, -8, -1, -12, 13, -3, 953, 939, 608,E
2025-03-18 11:41:49.980,701, 592, 447, -1, -16, -3, -6, 11, -1, 954, 944, 551,E
2025-03-18 11:41:50.042,695, 478, 552, 13, -17, -13, -13, 12, -3, 961, 949, 465,E
2025-03-18 11:41:50.098,998, 965, 165, 36, 41, 51, -6, 11, -2, 972, 946, 340,E
2025-03-18 11:41:50.156,715, 499, 370, -13, 24, 18, -9, 12, -5, 963, 941, 279,E
2025-03-18 11:41:50.214,535, 682, 584, -39, -39, -54, -12, 12, -4, 950, 933, 329,E
2025-03-18 11:41:50.272,766, 413, 402, 27, -29, -9, -9, 11, -2, 965, 959, 469,E
2025-03-18 11:41:50.328,686, 580, 280, 26, 13, 16, -12, 11, 2, 968, 963, 665,E
2025-03-18 11:41:50.381,586, 491, 388, -1, 41, -7, -9, 9, 2, 957, 945, 666,E
2025-03-18 11:41:50.443,1268, -53, 122, -15, -6, -19, -11, 11, -4, 960, 940, 527,E
2025-03-18 11:41:50.496,654, 549, 311, 17, 4, 10, -10, 11, -2, 969, 961, 616,E
2025-03-18 11:41:50.554,643, 540, 266, 6, 34, 13, -12, 11, -1, 963, 944, 662,E
2025-03-18 11:41:50.615,1822, 237, 211, -8, -6, -14, -12, 11, -4, 961, 914, 345,E
2025-03-18 11:41:50.668,865, 763, 302, 8, -1, 22, -9, 11, -3, 968, 958, 466,E
2025-03-18 11:41:50.729,898, 440, 214, -16, 33, -34, -11, 10, -1, 957, 942, 702,E
2025-03-18 11:41:50.787,399, 660, 741, -46, 24, -38, -10, 10, -6, 947, 867, 540,E
2025-03-18 11:41:51.029,680, 579, 459, -12, 0, -5, -13, 11, -3, 947, 917, 610,F
2025-03-18 11:41:51.086,687, 578, 458, -10, 0, -5, -12, 10, -2, 946, 918, 612,F
2025-03-18 11:41:51.143,660, 602, 471, -7, -8, -3, -12, 10, -4, 945, 922, 616,F
2025-03-18 11:41:51.200,651, 596, 482, -9, -19, -1, -13, 12, -5, 944, 928, 612,F
2025-03-18 11:41:51.258,759, 379, 360, 6, -9, -11, -11, 12, -1, 948, 939, 520,F
2025-03-18 11:41:51.316,663, 590, 543, 53, -7, -1, -14, 11, -1, 964, 940, 507,F
2025-03-18 11:41:51.369,766, 586, 233, 1, 33, 40, -10, 8, -3, 971, 932, 139,F
2025-03-18 11:41:51.430,746, 25, 625, -26, -26, -37, -10, 11, -2, 951, 927, 429,F
2025-03-18 11:41:51.487,664, 575, 663, -33, -21, -22, -11, 10, 0, 952, 944, 325,F
2025-03-18 11:41:51.541,712, 694, 171, 30, 2, 15, -10, 8, 3, 964, 957, 658,F
2025-03-18 11:41:51.598,612, 370, 356, 0, 44, 11, -12, 11, 0, 956, 939, 682,F
2025-03-18 11:41:51.656,1117, 353, 341, -4, -5, -17, -11, 11, 0, 961, 924, 322,F
2025-03-18 11:41:51.713,770, 744, 346, 10, 4, 17, -10, 10, -1, 967, 957, 501,F
2025-03-18 11:41:51.770,858, 500, 144, -28, 48, -33, -10, 11, -1, 950, 930, 669,F
2025-03-18 11:41:52.048,687, 606, 408, -3, -5, 3, -8, 10, -2, 935, 913, 614,G
2025-03-18 11:41:52.106,688, 605, 408, -5, -4, 3, -8, 11, 2, 936, 913, 612,G
2025-03-18 11:41:52.159,687, 606, 430, -5, -6, 3, -13, 10, -2, 938, 916, 610,G
2025-03-18 11:41:52.217,716, 598, 400, -4, -1, 0, -13, 11, -1, 938, 917, 625,G
2025-03-18 11:41:52.270,684, 607, 454, -4, -1, -2, -10, 9, 0, 942, 925, 614,G
2025-03-18 11:41:52.327,686, 596, 418, -4, -3, 1, -11, 10, -2, 941, 925, 628,G
2025-03-18 11:41:52.384,663, 587, 456, 0, -5, 5, -12, 11, -1, 945, 934, 635,G
2025-03-18 11:41:52.438,692, 609, 394, 0, -10, 5, -9, 13, -3, 949, 942, 639,G
2025-03-18 11:41:52.495,697, 479, 497, -20, -9, -11, -12, 11, -2, 949, 950, 591,G
2025-03-18 11:41:52.552,581, 559, 374, 48, 3, -8, -12, 12, 0, 962, 945, 309,G
2025-03-18 11:41:52.610,731, 759, 251, -23, 45, 42, -10, 11, -1, 966, 946, 83,G
2025-03-18 11:41:52.667,566, 487, 618, -6, -19, -9, -11, 11, -2, 961, 957, 356,G
2025-03-18 11:41:52.724,719, 520, 595, 35, -18, -7, -7, 11, 0, 966, 956, 540,G
2025-03-18 11:41:52.782,761, 561, 261, -9, 33, 23, -11, 11, -2, 965, 953, 443,G
2025-03-18 11:41:52.839,481, 700, 609, -34, -4, -39, -12, 12, -3, 954, 930, 460,G
2025-03-18 11:41:52.896,735, 235, 269, 38, -15, -5, -12, 11, -2, 966, 959, 379,G
2025-03-18 11:41:52.954,724, 629, 365, 11, 15, 11, -12, 12, -1, 959, 951, 654,G
2025-03-18 11:41:53.015,595, 648, 497, -60, 56, -47, -12, 11, -5, 948, 916, 574,G
2025-03-18 11:41:53.261,691, 591, 398, -10, -1, -4, -11, 11, -3, 939, 905, 561,H
2025-03-18 11:41:53.314,673, 587, 430, -9, -1, -4, -14, 10, -5, 940, 902, 562,H
2025-03-18 11:41:53.372,674, 595, 455, -8, -4, -4, -13, 11, -3, 938, 895, 501,H
2025-03-18 11:41:53.430,682, 595, 441, -3, -5, -2, -14, 13, -7, 939, 892, 478,H
2025-03-18 11:41:53.487,666, 601, 424, -6, -6, -7, -11, 7, 3, 938, 899, 464,H
2025-03-18 11:41:53.544,625, 584, 541, 0, -26, -1, -11, 11, -3, 932, 907, 461,H
2025-03-18 11:41:53.601,726, 523, 435, 20, -12, -6, -10, 10, 1, 950, 931, 461,H
2025-03-18 11:41:53.655,658, 363, 291, 5, 39, 42, -10, 11, -1, 963, 932, 424,H
2025-03-18 11:41:53.712,709, 561, 340, -25, 21, 10, -8, 8, 0, 961, 919, 368,H
2025-03-18 11:41:53.769,526, 815, 653, -1, -34, -7, -11, 11, -3, 949, 916, 373,H
2025-03-18 11:41:53.826,834, 776, -22, 31, -11, 20, -9, 9, 0, 963, 954, 601,H
2025-03-18 11:41:53.883,739, 434, 442, -23, 7, -35, -11, 10, -2, 958, 949, 710,H
2025-03-18 11:41:53.941,579, 571, 728, 15, -37, 23, -12, 10, 0, 960, 948, 704,H
2025-03-18 11:41:53.994,796, 861, 272, 2, 42, 35, -10, 7, 3, 969, 948, 616,H
2025-03-18 11:41:54.051,822, 514, 339, -18, 27, -24, -10, 11, -3, 954, 926, 646,H
2025-03-18 11:41:54.286,615, 611, 520, 1, -1, 4, -11, 12, -4, 927, 852, 556,I
2025-03-18 11:41:54.339,644, 609, 501, 1, -4, 4, -10, 13, 0, 927, 853, 557,I
2025-03-18 11:41:54.396,729, 586, 376, -3, -4, 2, -12, 11, -5, 926, 857, 564,I
2025-03-18 11:41:54.449,701, 586, 429, -9, 4, -6, -13, 11, -4, 931, 872, 575,I
2025-03-18 11:41:54.506,658, 628, 458, -6, 0, -1, -12, 11, -3, 928, 868, 542,I
2025-03-18 11:41:54.564,686, 600, 437, -7, -1, 0, -12, 9, -3, 932, 863, 509,I
2025-03-18 11:41:54.621,669, 598, 462, -10, -1, 0, -12, 11, -3, 931, 857, 462,I
2025-03-18 11:41:54.678,648, 587, 447, -11, -10, -2, -12, 11, -3, 933, 864, 327,I
2025-03-18 11:41:54.736,623, 544, 492, -6, -27, 1, -11, 12, -3, 934, 880, 128,I
2025-03-18 11:41:54.794,830, 391, 277, 49, -9, -9, -11, 11, -1, 954, 935, 63,I
2025-03-18 11:41:54.846,601, 586, 431, 12, 1, 22, -10, 11, 2, 967, 961, 644,I
2025-03-18 11:41:54.899,672, 596, 394, -5, 7, 2, -10, 10, 1, 959, 949, 684,I
2025-03-18 11:41:54.957,846, 538, 574, 1, -14, -5, -9, 9, 2, 955, 931, 445,I
2025-03-18 11:41:55.011,792, 489, 295, 54, 24, 37, -10, 12, 0, 964, 945, 538,I
2025-03-18 11:41:55.067,717, 450, 406, -5, 38, 19, -10, 11, -1, 956, 929, 525,I
2025-03-18 11:41:55.125,813, 672, 544, -4, -16, -10, -10, 9, -3, 944, 887, 362,I
2025-03-18 11:41:55.182,1005, 766, 492, 19, -10, 22, -7, 7, 0, 960, 950, 536,I
2025-03-18 11:41:55.239,821, 369, 380, -8, 28, -16, -8, 8, -5, 958, 942, 653,I
2025-03-18 11:41:55.506,697, 608, 381, -7, -4, -2, -12, 11, -3, 939, 902, 517,J
2025-03-18 11:41:55.559,712, 588, 374, -6, -3, -3, -7, 9, -2, 938, 898, 508,J
2025-03-18 11:41:55.616,686, 610, 415, -6, 1, -3, -11, 11, -1, 933, 889, 449,J
2025-03-18 11:41:55.669,689, 595, 439, -7, -4, -3, -11, 9, 0, 933, 890, 409,J
2025-03-18 11:41:55.726,666, 571, 467, 6, -12, -2, -10, 11, -2, 933, 897, 279,J
2025-03-18 11:41:55.784,891, 774, 497, 37, -13, 7, -11, 10, 0, 953, 942, 386,J
2025-03-18 11:41:55.837,618, 573, 329, 0, 6, 15, -11, 10, 0, 961, 957, 653,J
2025-03-18 11:41:55.890,667, 634, 395, 18, 2, -4, -9, 8, -3, 956, 939, 659,J
2025-03-18 11:41:55.948,758, 629, 601, 20, -9, 0, -11, 10, -2, 947, 911, 594,J
2025-03-18 11:41:56.006,770, 1006, 58, 10, 34, 39, -11, 9, 0, 965, 942, 526,J
2025-03-18 11:41:56.058,561, 701, 223, -41, 34, 25, -10, 9, -2, 966, 942, 222,J
2025-03-18 11:41:56.120,977, 352, 385, 12, -4, -53, -11, 12, -5, 934, 838, 222,J
2025-03-18 11:41:56.415,638, 665, 456, 1, -13, -63, -9, 8, -2, 898, 796, 399,K
2025-03-18 11:41:56.472,623, 677, 458, 10, -14, -60, -13, 7, -2, 897, 791, 394,K
2025-03-18 11:41:56.529,563, 747, 468, 9, -39, -58, -12, 5, 2, 888, 783, 316,K
2025-03-18 11:41:56.588,424, 740, 374, 28, -26, 17, -14, 1, 5, 900, 808, 293,K
2025-03-18 11:41:56.640,400, 770, 224, 6, 29, 83, -11, 3, 7, 910, 820, 259,K
2025-03-18 11:41:56.698,763, 566, 247, 21, -20, 55, -12, 5, 3, 914, 835, 315,K
2025-03-18 11:41:56.751,941, 632, 166, -19, 18, 3, -11, 7, 3, 920, 857, 398,K
2025-03-18 11:41:56.804,511, 679, 561, -21, 0, 3, -11, 6, 4, 928, 876, 430,K
2025-03-18 11:41:56.862,710, 537, 302, -21, -28, 6, -11, 9, 3, 934, 910, 324,K
2025-03-18 11:41:56.919,731, 439, 535, 2, -13, -13, -11, 9, 3, 953, 931, 136,K
2025-03-18 11:41:56.972,325, 910, -41, 16, 57, 49, -9, 10, 3, 963, 914, 66,K
2025-03-18 11:41:57.025,822, 720, 130, -9, 18, 8, -9, 10, 1, 958, 941, 68,K
2025-03-18 11:41:57.082,571, 455, 631, 28, -40, -16, -8, 10, 1, 964, 964, 263,K
2025-03-18 11:41:57.136,716, 698, 246, 8, 6, -1, -9, 6, 5, 957, 941, 503,K
2025-03-18 11:41:57.193,498, 497, 573, -12, 22, -38, -10, 11, 1, 943, 857, 151,K
2025-03-18 11:41:57.246,964, 520, 136, -4, -19, 22, -9, 10, 1, 962, 944, 229,K
2025-03-18 11:41:57.303,719, 533, 360, -19, 40, 37, -9, 11, 1, 973, 956, 41,K
2025-03-18 11:41:57.361,768, 341, 211, -34, 54, -86, -11, 11, 0, 944, 902, 322,K
2025-03-18 11:41:57.631,572, 802, 492, -7, -16, -40, -10, 3, 0, 807, 753, 386,L
2025-03-18 11:41:57.688,555, 815, 511, -8, -17, -31, -12, 1, 3, 818, 766, 411,L
2025-03-18 11:41:57.746,351, 737, 591, 21, -57, 49, -13, 5, 1, 855, 821, 456,L
2025-03-18 11:41:57.799,510, 605, 169, -1, 36, 73, -14, 3, 5, 867, 807, 399,L
2025-03-18 11:41:57.856,573, 714, 498, 2, 19, 45, -12, 7, 0, 857, 798, 284,L
2025-03-18 11:41:57.910,961, 711, 299, 3, -21, 4, -12, 8, -2, 866, 788, 252,L
2025-03-18 11:41:57.968,604, 590, 472, -13, -7, -2, -13, 10, -2, 871, 818, 212,L
2025-03-18 11:41:58.025,608, 662, 483, -2, -25, -5, -11, 10, -2, 880, 863, 180,L
2025-03-18 11:41:58.086,698, 641, 479, 22, -10, -11, -13, 10, -1, 922, 893, 63,L
2025-03-18 11:41:58.139,890, 983, 178, 23, 44, 46, -10, 10, 0, 952, 891, 75,L
2025-03-18 11:41:58.192,830, 586, 328, 10, 13, 13, -12, 8, 3, 964, 921, 38,L
2025-03-18 11:41:58.253,582, 647, 314, -15, 16, 26, -11, 12, -3, 952, 940, 622,L
2025-03-18 11:41:58.311,698, 561, 318, -34, 57, -60, -12, 11, -6, 929, 875, 624,L
2025-03-18 11:41:58.593,677, 621, 432, -4, -2, -5, -10, 11, -2, 894, 838, 250,M
2025-03-18 11:41:58.651,676, 620, 442, -5, -2, -6, -8, 14, -2, 893, 839, 268,M
2025-03-18 11:41:58.709,635, 634, 464, -1, -6, -2, -9, 9, -1, 886, 839, 267,M
2025-03-18 11:41:58.762,694, 619, 399, -5, -5, -7, -11, 10, -4, 882, 831, 165,M
2025-03-18 11:41:58.820,644, 646, 430, -7, -8, -4, -12, 10, -2, 881, 822, 129,M
2025-03-18 11:41:58.877,681, 632, 431, 3, -19, 0, -10, 10, -3, 876, 855, 122,M
2025-03-18 11:41:58.934,724, 476, 509, 7, -12, -8, -11, 10, -2, 924, 893, 108,M
2025-03-18 11:41:58.988,171, 836, 243, 37, 45, 35, -7, 8, 2, 954, 882, 58,M
2025-03-18 11:41:59.045,652, 681, 346, -30, 19, 15, -9, 12, -4, 935, 888, 178,M
2025-03-18 11:41:59.102,584, 814, 548, -7, -33, -30, -12, 11, -2, 896, 901, 163,M
2025-03-18 11:41:59.159,751, 720, 281, 27, 3, 22, -11, 11, -1, 952, 934, 274,M
2025-03-18 11:41:59.216,775, 618, 311, -9, 23, 28, -5, 11, -1, 958, 937, 386,M
2025-03-18 11:41:59.278,662, 557, 487, -11, -22, -24, -13, 13, -5, 940, 935, 506,M
2025-03-18 11:41:59.332,715, 682, 291, -3, 18, 19, -11, 8, 2, 960, 940, 481,M
2025-03-18 11:41:59.389,827, 554, 344, -37, 20, -2, -11, 12, -4, 943, 900, 371,M
2025-03-18 11:41:59.664,691, 579, 428, -8, 2, -4, -11, 13, -4, 897, 848, 185,N
2025-03-18 11:41:59.721,683, 583, 435, -8, 1, -5, -10, 7, 1, 896, 848, 188,N
2025-03-18 11:41:59.769,670, 583, 469, -6, 0, -3, -8, 9, 0, 902, 841, 66,N
2025-03-18 11:41:59.827,693, 600, 438, 2, -2, -1, -11, 12, -4, 902, 839, 55,N
2025-03-18 11:41:59.876,657, 604, 440, 2, 0, 1, -8, 9, -2, 905, 849, 89,N
2025-03-18 11:41:59.933,678, 594, 463, 5, -7, -5, -11, 12, -3, 899, 864, 48,N
2025-03-18 11:41:59.991,702, 615, 453, -1, -11, -19, -11, 11, -4, 897, 879, 48,N
2025-03-18 11:42:00.043,709, 530, 547, 2, -10, -7, -11, 11, -3, 943, 905, 50,N
2025-03-18 11:42:00.101,628, 604, 211, 0, 51, 49, -9, 11, -2, 958, 897, 64,N
2025-03-18 11:42:00.154,628, 589, 609, -27, 0, -5, -7, 11, -3, 932, 881, 54,N
2025-03-18 11:42:00.211,609, 779, 455, -11, -28, -5, -12, 12, -4, 913, 909, 80,N
2025-03-18 11:42:00.269,621, 880, 225, 18, 47, 67, -11, 12, -3, 954, 923, 62,N
2025-03-18 11:42:00.327,741, 767, 395, -33, 12, 16, -10, 14, -5, 950, 932, 66,N
2025-03-18 11:42:00.383,821, 750, 324, 11, -8, -27, -10, 9, -1, 895, 906, 495,N
2025-03-18 11:42:00.441,528, 680, 557, -37, 67, -18, -11, 10, -4, 898, 827, 356,N
2025-03-18 11:42:01.247,664, 593, 485, 3, -2, -1, -12, 13, -4, 910, 845, 61,O
2025-03-18 11:42:01.301,678, 590, 475, 2, -2, 0, -12, 14, -4, 910, 844, 57,O
2025-03-18 11:42:01.354,678, 574, 466, -4, -1, -4, -12, 12, -4, 903, 835, 67,O
2025-03-18 11:42:01.412,676, 572, 484, -2, -3, 1, -12, 13, -3, 907, 842, 52,O
2025-03-18 11:42:01.469,698, 581, 450, -4, -1, 1, -11, 13, -4, 916, 852, 118,O
2025-03-18 11:42:01.522,682, 586, 480, 0, -1, 3, -13, 13, -4, 919, 863, 147,O
2025-03-18 11:42:01.576,699, 571, 447, 8, -1, 5, -12, 13, -4, 926, 878, 348,O
2025-03-18 11:42:01.632,648, 588, 474, 3, -9, 4, -10, 12, -2, 930, 905, 343,O
2025-03-18 11:42:01.690,757, 580, 604, -13, -16, -20, -13, 12, -5, 930, 924, 79,O
2025-03-18 11:42:01.748,848, 340, 635, 72, -1, -24, -13, 12, -2, 946, 895, 69,O
2025-03-18 11:42:01.806,789, 425, 237, -29, 39, 62, -10, 11, -4, 960, 930, 68,O
2025-03-18 11:42:01.867,489, 295, 916, 20, -53, -52, -11, 13, -5, 945, 940, 245,O
2025-03-18 11:42:01.924,984, 551, 157, -14, 32, -34, -13, 11, -3, 884, 874, 322,O
2025-03-18 11:42:01.981,561, 646, 556, -38, 47, -3, -10, 11, -4, 883, 824, 213,O
2025-03-18 11:42:02.231,675, 616, 460, 0, -13, 6, -9, 11, -4, 891, 825, 52,P
2025-03-18 11:42:02.284,665, 611, 441, 1, -12, 7, -9, 11, -4, 895, 826, 38,P
2025-03-18 11:42:02.337,697, 577, 429, 2, -9, 6, -9, 11, -2, 899, 851, 59,P
2025-03-18 11:42:02.391,681, 583, 446, -2, 1, 1, -12, 14, -3, 903, 858, 61,P
2025-03-18 11:42:02.449,677, 586, 457, -2, -1, -1, -15, 11, -3, 905, 862, 170,P
2025-03-18 11:42:02.501,688, 596, 452, -3, -4, 0, -9, 11, -4, 909, 864, 48,P
2025-03-18 11:42:02.559,625, 581, 480, -9, -9, -2, -12, 11, -3, 908, 868, 72,P
2025-03-18 11:42:02.612,734, 619, 455, -6, -13, 0, -9, 10, 0, 917, 885, 58,P
2025-03-18 11:42:02.670,758, 529, 478, 50, -3, -4, -12, 12, -3, 944, 904, 53,P
2025-03-18 11:42:02.727,636, 790, 455, -29, 43, 51, -10, 12, -3, 955, 904, 61,P
2025-03-18 11:42:02.784,684, 680, 367, -35, 18, 8, -11, 12, -3, 940, 891, 63,P
2025-03-18 11:42:02.841,818, 986, 354, -5, -54, -38, -7, 11, -4, 930, 927, 372,P
2025-03-18 11:42:02.898,562, 676, 479, 18, -20, 0, -10, 10, 3, 961, 949, 354,P
2025-03-18 11:42:02.952,550, 658, 403, -28, 31, 18, -12, 12, 0, 959, 931, 63,P
2025-03-18 11:42:03.013,1063, 427, 289, -6, 49, -50, -12, 11, -3, 921, 875, 382,P
2025-03-18 11:42:03.070,332, 687, 780, -12, 11, -17, -13, 13, -6, 911, 888, 453,P
2025-03-18 11:42:03.128,567, 663, 520, 17, -29, 17, -12, 11, -7, 904, 863, 398,P
2025-03-18 11:42:03.185,718, 578, 370, 3, -14, 8, -14, 12, -3, 893, 846, 269,P
2025-03-18 11:42:03.242,709, 564, 424, -4, 3, -1, -13, 13, -6, 895, 827, 115,P
2025-03-18 11:42:03.484,675, 617, 450, -6, -2, -1, -10, 10, -2, 891, 817, 51,Q
2025-03-18 11:42:03.541,675, 618, 431, -7, -2, -1, -8, 12, -3, 892, 815, 38,Q
2025-03-18 11:42:03.595,688, 609, 446, -7, 1, -1, -11, 11, -3, 891, 808, 59,Q
2025-03-18 11:42:03.648,667, 607, 465, -2, -3, 1, -9, 9, 2, 896, 822, 66,Q
2025-03-18 11:42:03.706,702, 601, 451, -2, -1, 1, -12, 12, -3, 896, 838, 68,Q
2025-03-18 11:42:03.759,673, 597, 449, 4, -1, 8, -11, 11, -1, 913, 861, 97,Q
2025-03-18 11:42:03.813,634, 602, 468, 7, -5, 10, -12, 12, -2, 921, 878, 306,Q
2025-03-18 11:42:03.870,660, 652, 452, -1, -13, 7, -13, 12, -2, 923, 912, 224,Q
2025-03-18 11:42:03.928,836, 634, 550, -2, -8, -14, -11, 11, -1, 931, 929, 68,Q
2025-03-18 11:42:03.980,939, 626, 386, 74, 5, -4, -13, 8, 3, 952, 897, 45,Q
2025-03-18 11:42:04.038,790, 270, 309, -15, 36, 42, -8, 11, 0, 962, 933, 56,Q
2025-03-18 11:42:04.094,582, 481, 441, -28, -21, -10, -8, 11, -3, 955, 948, 54,Q
2025-03-18 11:42:04.149,782, 662, 250, -8, 33, -30, -11, 9, 2, 922, 888, 50,Q
2025-03-18 11:42:04.205,534, 777, 662, 6, -36, 45, -10, 12, -5, 940, 896, 54,Q
2025-03-18 11:42:04.258,694, 578, 341, -3, 4, 20, -11, 12, -3, 963, 946, 67,Q
2025-03-18 11:42:04.315,896, 302, 453, -8, 31, -6, -10, 12, -2, 958, 931, 47,Q
2025-03-18 11:42:04.374,513, 590, 704, -8, 31, -51, -12, 14, -6, 901, 810, 183,Q
2025-03-18 11:42:04.595,720, 586, 393, -2, -5, 3, -11, 11, -6, 866, 784, 256,R
2025-03-18 11:42:04.651,715, 564, 393, -3, -2, 0, -10, 12, -1, 868, 780, 219,R
2025-03-18 11:42:04.705,662, 589, 478, -9, 3, -6, -8, 10, -3, 866, 750, 40,R
2025-03-18 11:42:04.762,686, 600, 477, -13, -2, -4, -12, 12, -5, 862, 724, 60,R
2025-03-18 11:42:04.819,674, 599, 450, 2, -3, 0, -11, 11, -5, 863, 756, 57,R
2025-03-18 11:42:04.869,662, 590, 467, -1, 2, -1, -9, 8, 1, 867, 774, 60,R
2025-03-18 11:42:04.926,645, 586, 501, 1, -2, -3, -13, 13, -5, 862, 774, 85,R
2025-03-18 11:42:04.979,650, 602, 462, -4, -2, -5, -11, 11, -4, 860, 769, 67,R
2025-03-18 11:42:05.036,638, 592, 475, -8, -5, -4, -12, 11, -4, 862, 781, 57,R
2025-03-18 11:42:05.094,631, 612, 469, -6, -20, -7, -9, 11, -3, 852, 828, 67,R
2025-03-18 11:42:05.148,752, 565, 490, 4, -18, -7, -11, 11, -3, 889, 892, 36,R
2025-03-18 11:42:05.204,502, 793, 510, 32, 32, 35, -11, 11, -3, 948, 901, 67,R
2025-03-18 11:42:05.262,752, 450, 280, -7, 20, 28, -9, 13, -4, 954, 893, 64,R
2025-03-18 11:42:05.319,511, 231, 657, 59, -52, -68, -8, 11, -2, 910, 880, 243,R
2025-03-18 11:42:05.373,871, 573, 724, 0, -28, -5, -9, 9, -2, 947, 941, 341,R
2025-03-18 11:42:05.429,549, 936, 153, -6, 24, 31, -12, 12, 0, 956, 933, 157,R
2025-03-18 11:42:05.488,807, 537, 232, -31, 19, 6, -12, 12, -2, 950, 888, 61,R
2025-03-18 11:42:05.544,623, 635, 383, -24, 17, 43, -11, 11, -3, 960, 937, 63,R
2025-03-18 11:42:05.598,787, 462, 343, -11, 25, -28, -3, 9, -2, 954, 919, 49,R
2025-03-18 11:42:05.897,681, 621, 435, -7, -2, -2, -14, 11, -4, 886, 825, 239,S
2025-03-18 11:42:05.954,674, 609, 432, -8, -2, -3, -8, 10, -1, 886, 821, 237,S
2025-03-18 11:42:06.007,662, 607, 448, -8, -2, -2, -8, 8, 1, 895, 815, 146,S
2025-03-18 11:42:06.065,666, 607, 467, -1, -6, 2, -11, 13, -5, 897, 845, 227,S
2025-03-18 11:42:06.118,701, 597, 424, -1, -4, 3, -8, 11, -3, 903, 864, 271,S
2025-03-18 11:42:06.176,653, 600, 421, -3, -5, 5, -11, 11, -3, 918, 891, 377,S
2025-03-18 11:42:06.233,658, 640, 396, -1, -12, 2, -12, 12, -3, 919, 912, 383,S
2025-03-18 11:42:06.290,915, 686, 522, -7, -7, -12, -13, 13, -2, 928, 922, 66,S
2025-03-18 11:42:06.343,930, 811, 260, 72, 16, 2, -9, 10, -1, 948, 906, 64,S
2025-03-18 11:42:06.400,701, 626, 451, -14, 38, 36, -9, 10, 0, 963, 937, 54,S
2025-03-18 11:42:06.453,484, 585, 458, -29, 18, 18, -9, 11, -2, 953, 910, 71,S
2025-03-18 11:42:06.511,965, 433, 375, -11, 20, -19, -8, 11, -5, 906, 766, 63,S
2025-03-18 11:42:06.811,703, 604, 425, 3, -6, -2, -11, 11, -4, 884, 834, 41,T
2025-03-18 11:42:06.868,703, 619, 415, 1, -4, -2, -6, 11, -6, 883, 835, 55,T
2025-03-18 11:42:06.922,654, 610, 467, -2, -7, -5, -8, 12, -4, 883, 839, 54,T
2025-03-18 11:42:06.978,669, 589, 444, 0, -6, -4, -11, 11, -4, 883, 842, 71,T
2025-03-18 11:42:07.031,669, 593, 455, -5, -4, -7, -12, 11, -3, 883, 830, 55,T
2025-03-18 11:42:07.085,646, 614, 454, 1, -6, -6, -9, 11, -3, 878, 809, 57,T
2025-03-18 11:42:07.142,589, 592, 507, 10, -23, 2, -12, 12, -3, 884, 823, 68,T
2025-03-18 11:42:07.195,898, 668, 371, 40, -18, 1, -10, 9, 0, 948, 925, 56,T
2025-03-18 11:42:07.253,529, 451, 430, 3, -5, 15, -13, 11, 1, 963, 951, 395,T
2025-03-18 11:42:07.305,680, 528, 322, 9, 12, 6, -13, 11, 1, 946, 925, 522,T
2025-03-18 11:42:07.358,659, 592, 546, 9, 2, -18, -11, 11, 0, 933, 864, 412,T
2025-03-18 11:42:07.416,738, 901, 141, 20, 20, 33, -10, 10, 1, 960, 923, 288,T
2025-03-18 11:42:07.473,695, 747, 276, -12, 34, 30, -9, 11, 0, 957, 916, 195,T
2025-03-18 11:42:07.527,709, 621, 306, -30, 41, -75, -8, 8, 1, 907, 767, 335,T
2025-03-18 11:42:07.809,689, 599, 395, 0, -3, 2, -11, 11, -4, 879, 769, 89,U
2025-03-18 11:42:07.863,677, 596, 428, 2, -3, 1, -9, 11, -4, 879, 773, 117,U
2025-03-18 11:42:07.920,670, 615, 435, -2, -2, -1, -10, 11, -5, 884, 807, 202,U
2025-03-18 11:42:07.973,652, 605, 457, 0, -7, 0, -9, 10, -3, 887, 827, 222,U
2025-03-18 11:42:08.031,683, 610, 406, -6, -4, -7, -9, 10, -2, 883, 825, 130,U
2025-03-18 11:42:08.088,627, 623, 476, -3, -13, -9, -12, 13, -5, 888, 839, 45,U
2025-03-18 11:42:08.149,981, 453, 394, -14, -12, -12, -10, 11, -1, 922, 877, 34,U
2025-03-18 11:42:08.203,701, 849, 261, 52, 31, 33, -8, 11, -3, 950, 880, 47,U
2025-03-18 11:42:08.259,672, 751, 278, -27, 28, 40, -10, 11, -3, 959, 927, 55,U
2025-03-18 11:42:08.317,720, 412, 583, 8, -35, -24, -10, 12, -2, 941, 938, 150,U
2025-03-18 11:42:08.375,701, 449, 542, 22, -18, -15, -11, 11, -2, 949, 932, 61,U
2025-03-18 11:42:08.432,625, 707, 286, -13, 39, 43, -11, 13, -2, 955, 928, 74,U
2025-03-18 11:42:08.493,686, 357, 398, -5, 10, -61, -11, 11, -4, 927, 881, 264,U
2025-03-18 11:42:08.736,660, 612, 457, -16, 0, -7, -11, 11, -4, 865, 729, 60,V
2025-03-18 11:42:08.792,668, 587, 468, -14, -1, -6, -10, 10, -2, 867, 728, 53,V
2025-03-18 11:42:08.845,689, 587, 474, 6, -5, 3, -11, 11, -1, 870, 737, 34,V
2025-03-18 11:42:08.903,693, 596, 440, 4, -4, 0, -12, 12, -4, 872, 769, 53,V
2025-03-18 11:42:08.957,684, 601, 424, -3, 0, -1, -8, 11, -2, 883, 783, 46,V
2025-03-18 11:42:09.009,685, 590, 446, 2, -1, -1, -12, 11, -2, 882, 781, 59,V
2025-03-18 11:42:09.063,668, 593, 441, 5, -2, -5, -8, 11, -3, 886, 777, 48,V
2025-03-18 11:42:09.120,686, 605, 403, 4, -2, -5, -11, 11, -2, 877, 756, 51,V
2025-03-18 11:42:09.177,642, 599, 468, 8, -11, -22, -10, 11, -5, 844, 795, 62,V
2025-03-18 11:42:09.235,754, 567, 337, -13, -5, -9, -11, 8, -1, 910, 882, 51,V
2025-03-18 11:42:09.292,769, 830, 255, -28, 39, 55, -12, 11, -2, 957, 910, 46,V
2025-03-18 11:42:09.345,553, 522, 316, -13, 16, 24, -10, 13, -3, 959, 926, 57,V
2025-03-18 11:42:09.406,844, 538, 463, 26, -41, -46, -11, 13, -5, 952, 953, 163,V
2025-03-18 11:42:09.464,815, 586, 278, -7, 22, -14, -13, 11, -5, 924, 923, 565,V
2025-03-18 11:42:09.526,548, 612, 556, -23, 25, -14, -11, 12, -4, 917, 877, 415,V
2025-03-18 11:42:09.804,652, 612, 455, -2, -4, -3, -11, 10, -4, 882, 770, 66,W
2025-03-18 11:42:09.858,655, 604, 469, 1, -5, -1, -9, 10, -2, 884, 772, 46,W
2025-03-18 11:42:09.911,698, 594, 409, 6, -1, 0, -13, 10, -2, 872, 791, 87,W
2025-03-18 11:42:09.969,682, 629, 441, 3, -1, -1, -9, 12, -3, 871, 790, 141,W
2025-03-18 11:42:10.021,671, 606, 441, 9, 0, -1, -10, 11, -4, 861, 782, 190,W
2025-03-18 11:42:10.078,678, 603, 411, 3, -1, -2, -10, 11, -4, 851, 769, 210,W
2025-03-18 11:42:10.132,696, 620, 392, 2, 1, -6, -7, 9, -2, 830, 784, 148,W
2025-03-18 11:42:10.190,623, 619, 445, 2, -4, -14, -11, 11, -5, 806, 768, 116,W
2025-03-18 11:42:10.242,768, 673, 367, 16, -10, 0, -11, 9, -3, 866, 865, 68,W
2025-03-18 11:42:10.296,784, 560, 574, 5, -8, -1, -12, 8, 2, 943, 909, 37,W
2025-03-18 11:42:10.353,546, 721, 363, -7, 42, 47, -9, 10, -2, 956, 921, 122,W
2025-03-18 11:42:10.406,646, 569, 732, -28, -23, 5, -8, 10, -4, 956, 942, 51,W
2025-03-18 11:42:10.464,634, 437, 597, 10, -9, -9, -12, 12, -2, 949, 943, 319,W
2025-03-18 11:42:10.522,474, 721, 201, -21, 43, 67, -12, 11, -3, 957, 933, 64,W
2025-03-18 11:42:10.579,634, 97, 640, -5, -37, -24, -11, 12, -4, 957, 950, 68,W
2025-03-18 11:42:10.641,795, 417, 224, -18, 76, -32, -13, 14, -4, 941, 928, 345,W
2025-03-18 11:42:10.938,653, 571, 498, -2, 0, -5, -13, 12, -5, 899, 785, 54,X
2025-03-18 11:42:10.996,643, 590, 508, 0, -1, -4, -12, 11, -6, 898, 786, 60,X
2025-03-18 11:42:11.049,629, 599, 508, 7, -13, 5, -12, 12, -4, 892, 796, 63,X
2025-03-18 11:42:11.107,732, 585, 403, 3, -12, -1, -12, 12, -3, 885, 798, 103,X
2025-03-18 11:42:11.164,706, 613, 422, -10, 2, -5, -10, 11, -3, 893, 806, 55,X
2025-03-18 11:42:11.217,669, 589, 458, -2, -3, 2, -10, 11, -1, 903, 814, 48,X
2025-03-18 11:42:11.274,694, 598, 456, 3, -5, 3, -11, 12, -2, 906, 841, 116,X
2025-03-18 11:42:11.328,700, 604, 424, -1, 1, 2, -11, 11, -4, 914, 855, 266,X
2025-03-18 11:42:11.385,659, 608, 445, -4, -9, -2, -11, 12, -4, 917, 877, 296,X
2025-03-18 11:42:11.442,703, 648, 504, 1, -15, 4, -12, 11, -3, 935, 919, 369,X
2025-03-18 11:42:11.499,685, 478, 570, 13, -9, -7, -11, 11, -1, 951, 932, 138,X
2025-03-18 11:42:11.553,850, 571, 457, 26, 46, 33, -11, 10, 1, 958, 901, 61,X
2025-03-18 11:42:11.610,817, 541, 311, -32, 41, 9, -10, 12, -4, 925, 858, 38,X
2025-03-18 11:42:11.668,587, 751, 528, 13, -44, -51, -11, 13, -6, 851, 862, 61,X
2025-03-18 11:42:11.724,850, 1352, 160, -57, -3, 43, -12, 11, -1, 963, 940, 53,X
2025-03-18 11:42:11.783,638, 561, 402, -16, 22, 27, -12, 14, -3, 957, 934, 67,X
2025-03-18 11:42:11.840,703, 567, 306, -1, 31, -88, -10, 14, -5, 882, 829, 86,X
2025-03-18 11:42:12.094,687, 618, 428, -3, -3, 7, -11, 10, -1, 881, 874, 211,Y
2025-03-18 11:42:12.147,684, 629, 446, 0, -2, 11, -11, 10, -1, 883, 873, 285,Y
2025-03-18 11:42:12.205,647, 556, 426, 5, -6, 9, -12, 12, -3, 909, 897, 469,Y
2025-03-18 11:42:12.258,678, 591, 455, 1, -8, -3, -12, 14, -4, 906, 900, 486,Y
2025-03-18 11:42:12.316,666, 606, 451, -3, -8, -3, -12, 10, -2, 905, 904, 397,Y
2025-03-18 11:42:12.377,663, 584, 491, -5, -15, -2, -11, 11, -1, 914, 906, 235,Y
2025-03-18 11:42:12.430,898, 876, 403, 19, -1, 14, -14, 10, 0, 955, 939, 216,Y
2025-03-18 11:42:12.487,664, 608, 370, 6, 21, 29, -13, 12, 0, 960, 943, 354,Y
2025-03-18 11:42:12.545,586, 354, 475, -19, 17, -43, -11, 11, -1, 942, 917, 520,Y
2025-03-18 11:42:12.602,698, 512, 695, 24, -36, 21, -13, 11, -1, 949, 925, 519,Y
2025-03-18 11:42:12.659,1210, 506, -94, 27, 52, 40, -9, 11, -1, 967, 933, 85,Y
2025-03-18 11:42:12.716,829, 537, 380, -9, 15, -14, -10, 13, -3, 940, 858, 267,Y
2025-03-18 11:42:12.778,625, 687, 566, -40, 15, -34, -11, 10, -4, 888, 820, 430,Y
2025-03-18 11:42:13.037,642, 576, 466, -3, -1, -2, -11, 11, -2, 905, 842, 64,Z
2025-03-18 11:42:13.090,648, 589, 485, 3, -3, -1, -13, 12, -1, 908, 848, 80,Z
2025-03-18 11:42:13.147,714, 597, 436, 10, -5, 5, -13, 12, -3, 915, 882, 336,Z
2025-03-18 11:42:13.204,685, 598, 456, 3, -4, -1, -12, 12, -3, 923, 903, 404,Z
2025-03-18 11:42:13.256,626, 621, 434, -2, -2, -4, -9, 10, 0, 925, 899, 343,Z
2025-03-18 11:42:13.314,635, 583, 452, -3, -15, -12, -12, 12, -2, 927, 875, 53,Z
2025-03-18 11:42:13.372,764, 507, 256, -3, -2, -7, -11, 11, -1, 938, 902, 69,Z
2025-03-18 11:42:13.425,597, 618, 243, -3, 1, 39, -13, 12, 1, 961, 949, 245,Z
2025-03-18 11:42:13.482,669, 714, 463, 14, 21, 21, -10, 9, 0, 968, 943, 331,Z
2025-03-18 11:42:13.536,520, 528, 483, -88, 24, -5, -9, 11, 0, 954, 815, 68,Z
2025-03-18 11:42:13.593,810, 907, 440, 36, -7, 21, -11, 11, -4, 961, 940, 57,Z
2025-03-18 11:42:13.646,631, 595, 437, 11, 4, 16, -7, 11, 0, 964, 947, 48,Z
2025-03-18 11:42:13.703,401, 585, 412, -8, 16, -72, -11, 12, -3, 942, 889, 127,Z
2025-03-18 11:42:13.761,792, 530, 267, 5, -36, 20, -11, 11, -3, 942, 910, 65,Z
2025-03-18 11:42:13.814,711, 449, 230, 0, -3, 24, -11, 11, 0, 969, 958, 51,Z
2025-03-18 11:42:13.872,805, 408, 301, 9, 26, -7, -12, 11, -2, 948, 916, 332,Z
2025-03-18 11:42:13.928,588, 626, 649, -35, 48, -43, -13, 11, -3, 904, 762, 74,Z
2025-03-18 11:42:14.179,691, 610, 416, -20, 4, -10, -12, 11, -5, 889, 759, 53,a
2025-03-18 11:42:14.232,671, 640, 443, -20, 4, -8, -11, 5, 2, 888, 737, 65,a
2025-03-18 11:42:14.286,665, 626, 434, -9, -2, 7, -11, 10, -2, 896, 734, 63,a
2025-03-18 11:42:14.338,715, 602, 374, 5, -10, 7, -12, 11, 0, 901, 784, 51,a
2025-03-18 11:42:14.396,709, 615, 397, -3, 2, 7, -12, 11, -1, 910, 804, 67,a
2025-03-18 11:42:14.448,675, 624, 436, -7, -1, 5, -8, 9, -1, 925, 832, 52,a
2025-03-18 11:42:14.502,660, 592, 474, -6, -7, 5, -12, 12, -2, 928, 872, 52,a
2025-03-18 11:42:14.559,737, 543, 386, -3, -5, -8, -12, 11, -1, 940, 899, 50,a
2025-03-18 11:42:14.613,661, 489, 503, 13, -4, -20, -9, 11, 0, 945, 879, 58,a
2025-03-18 11:42:14.670,873, 743, 268, -16, 31, 41, -11, 11, 0, 961, 917, 62,a
2025-03-18 11:42:14.723,605, 587, 581, -21, -6, 6, -10, 11, 1, 960, 939, 40,a
2025-03-18 11:42:14.781,777, 574, 488, 11, -12, -14, -13, 13, -3, 948, 911, 53,a
2025-03-18 11:42:14.838,808, 500, 345, -17, 21, 23, -11, 12, -2, 951, 899, 71,a
2025-03-18 11:42:15.104,687, 622, 413, -5, -4, 2, -12, 11, -2, 870, 797, 58,b
2025-03-18 11:42:15.157,672, 591, 415, -5, -5, 1, -11, 17, 2, 869, 796, 54,b
2025-03-18 11:42:15.211,673, 604, 447, -8, -4, -2, -12, 11, 0, 871, 786, 59,b
2025-03-18 11:42:15.268,706, 573, 405, -6, -9, -3, -12, 11, -2, 871, 792, 57,b
2025-03-18 11:42:15.325,649, 615, 412, -16, -10, -11, -14, 11, 0, 850, 799, 64,b
2025-03-18 11:42:15.382,675, 618, 482, -10, -16, -8, -12, 9, 4, 855, 862, 48,b
2025-03-18 11:42:15.436,725, 500, 559, 34, 0, 1, -13, 11, -2, 946, 899, 51,b
2025-03-18 11:42:15.493,349, 482, 331, 13, 37, 35, -10, 11, -2, 956, 905, 62,b
2025-03-18 11:42:15.547,674, 558, 435, -12, 9, 2, -14, 11, -1, 942, 865, 43,b
2025-03-18 11:42:15.604,765, 766, 522, 37, -17, -6, -11, 11, -4, 941, 918, 240,b
2025-03-18 11:42:15.661,596, 989, 283, -15, 16, 29, -11, 11, -2, 961, 935, 66,b
2025-03-18 11:42:15.719,870, 421, 357, -24, 16, 1, -11, 13, -4, 945, 885, 69,b
2025-03-18 11:42:15.776,770, 636, 291, -26, 47, -50, -9, 11, -4, 910, 817, 59,b
2025-03-18 11:42:16.034,679, 590, 441, -3, 0, -2, -11, 13, -5, 892, 767, 69,c
2025-03-18 11:42:16.087,689, 598, 436, -4, -1, -3, -13, 9, 1, 892, 766, 65,c
2025-03-18 11:42:16.144,673, 607, 438, -3, -3, 1, -11, 11, -3, 896, 784, 37,c
2025-03-18 11:42:16.198,678, 599, 444, -3, -2, 1, -13, 11, -4, 890, 785, 55,c
2025-03-18 11:42:16.255,696, 591, 434, -5, -3, -2, -11, 10, -1, 881, 772, 65,c
2025-03-18 11:42:16.308,680, 603, 465, -3, -3, 1, -13, 12, -4, 882, 748, 36,c
2025-03-18 11:42:16.366,696, 600, 457, 2, -4, 5, -13, 14, -3, 891, 787, 60,c
2025-03-18 11:42:16.419,619, 593, 525, 7, -17, 13, -9, 11, -1, 920, 879, 56,c
2025-03-18 11:42:16.476,763, 313, 177, -64, -12, -17, -11, 11, 0, 934, 922, 70,c
2025-03-18 11:42:16.534,674, 381, 473, 25, 13, -13, -11, 11, 2, 951, 907, 61,c
2025-03-18 11:42:16.591,946, 596, 250, -19, 29, 50, -11, 11, -1, 964, 939, 66,c
2025-03-18 11:42:16.648,726, 424, 463, 38, 5, -43, -12, 12, -2, 948, 925, 244,c
2025-03-18 11:42:16.706,520, 693, 705, -11, 21, -33, -11, 10, -2, 899, 839, 221,c
2025-03-18 11:42:16.956,678, 596, 437, 1, -6, 4, -13, 9, 0, 883, 813, 179,d
2025-03-18 11:42:17.014,679, 597, 451, 2, -7, 4, -14, 10, -2, 882, 813, 188,d
2025-03-18 11:42:17.066,689, 590, 429, 9, -8, 9, -12, 11, -3, 894, 839, 251,d
2025-03-18 11:42:17.120,735, 597, 389, 2, -8, 6, -14, 11, -3, 908, 860, 294,d
2025-03-18 11:42:17.177,691, 610, 412, -1, -4, 8, -13, 11, -2, 928, 882, 320,d
2025-03-18 11:42:17.234,934, 536, 337, -36, -9, -9, -11, 11, 0, 941, 917, 50,d
2025-03-18 11:42:17.291,678, 510, 601, -26, -19, -23, -13, 13, -2, 945, 931, 53,d
2025-03-18 11:42:17.344,798, 1025, 191, 5, 18, 8, -11, 10, 2, 961, 918, 47,d
2025-03-18 11:42:17.402,747, 661, 468, -26, 27, 35, -12, 15, -1, 962, 944, 55,d
2025-03-18 11:42:17.463,510, 383, 525, 18, -41, -44, -14, 13, -3, 951, 947, 56,d
2025-03-18 11:42:17.521,661, 803, 210, 47, -13, -3, -13, 11, -1, 960, 934, 68,d
2025-03-18 11:42:17.574,768, 592, 316, 0, 26, 22, -10, 14, -3, 964, 926, 61,d
2025-03-18 11:42:17.632,685, 544, 413, -12, 39, -58, -12, 12, -2, 935, 880, 70,d
2025-03-18 11:42:22.473,641, 632, 485, 1, -1, 1, -15, 11, -6, 767, 699, 59,e
2025-03-18 11:42:22.526,638, 625, 487, 0, -1, 2, -11, 11, -4, 770, 704, 55,e
2025-03-18 11:42:22.579,632, 613, 470, -1, -3, 5, -13, 11, -6, 788, 721, 52,e
2025-03-18 11:42:22.636,675, 605, 464, 4, -3, 5, -12, 11, -5, 801, 728, 38,e
2025-03-18 11:42:22.690,668, 609, 462, -2, 1, 0, -14, 11, -6, 806, 735, 53,e
2025-03-18 11:42:22.743,645, 618, 478, 0, 1, 1, -10, 12, -6, 809, 736, 42,e
2025-03-18 11:42:22.797,663, 594, 471, -1, -1, 1, -15, 13, -6, 810, 739, 68,e
2025-03-18 11:42:22.849,666, 602, 466, 0, -1, 1, -11, 11, -5, 813, 740, 48,e
2025-03-18 11:42:22.907,673, 609, 455, 1, -2, 1, -15, 11, -6, 817, 748, 60,e
2025-03-18 11:42:22.960,640, 623, 472, -1, -3, 1, -14, 11, -6, 830, 760, 58,e
2025-03-18 11:42:23.014,662, 618, 453, -1, 0, 1, -13, 12, -6, 855, 774, 58,e
2025-03-18 11:42:23.071,675, 606, 463, -5, 1, 3, -12, 12, -5, 873, 791, 163,e
2025-03-18 11:42:23.123,666, 601, 483, -3, 5, 1, -11, 11, -5, 886, 803, 159,e
2025-03-18 11:42:23.181,608, 595, 525, 2, -3, 11, -12, 12, -6, 894, 807, 200,e
2025-03-18 11:42:23.239,587, 611, 584, 16, -30, 33, -12, 13, -6, 908, 823, 191,e
2025-03-18 11:42:23.296,850, 702, 71, -6, 8, 11, -10, 11, -1, 949, 916, 135,e
2025-03-18 11:42:23.353,576, 528, 611, -26, -10, -3, -12, 11, -3, 951, 936, 301,e
2025-03-18 11:42:23.410,615, 474, 522, 26, -14, -23, -8, 10, -4, 954, 920, 51,e
2025-03-18 11:42:23.468,646, 729, -27, -26, 41, 55, -10, 12, -2, 967, 937, 64,e
2025-03-18 11:42:23.525,730, 320, 536, 9, -2, -15, -11, 15, -5, 955, 925, 218,e
2025-03-18 11:42:23.582,620, 555, 597, -16, 16, -48, -12, 14, -5, 919, 838, 309,e
2025-03-18 11:42:23.640,597, 642, 518, -2, -7, 1, -13, 13, -5, 903, 818, 265,e
2025-03-18 11:42:23.918,692, 577, 454, 1, -1, 4, -13, 11, -2, 917, 826, 287,f
2025-03-18 11:42:23.971,696, 582, 435, 1, -1, 4, -14, 11, -1, 919, 829, 303,f
2025-03-18 11:42:24.025,696, 587, 439, 3, 1, 2, -10, 11, -1, 927, 869, 400,f
2025-03-18 11:42:24.082,675, 611, 442, 1, 1, 7, -13, 13, -4, 933, 888, 443,f
2025-03-18 11:42:24.132,704, 574, 441, 2, 1, 5, -9, 11, -1, 938, 899, 456,f
2025-03-18 11:42:24.188,703, 591, 448, 2, 3, 8, -14, 12, -2, 945, 907, 469,f
2025-03-18 11:42:24.238,695, 578, 441, 0, 5, 6, -9, 9, 0, 947, 909, 463,f
2025-03-18 11:42:24.296,716, 573, 441, -1, 1, 4, -12, 13, -4, 947, 912, 458,f
2025-03-18 11:42:24.348,686, 544, 438, -2, 1, 6, -13, 12, -3, 952, 913, 356,f
2025-03-18 11:42:24.402,695, 569, 468, 1, 0, 5, -11, 13, -4, 948, 914, 354,f
2025-03-18 11:42:24.455,703, 587, 401, -7, 2, 8, -13, 15, -7, 958, 926, 62,f
2025-03-18 11:42:24.512,707, 434, 471, -33, 1, -16, -12, 13, -5, 961, 951, 68,f
2025-03-18 11:42:24.573,562, 442, 765, 11, -46, -24, -13, 12, -3, 966, 966, 354,f
2025-03-18 11:42:24.627,705, 684, 382, 18, -15, 0, -12, 12, 0, 970, 960, 567,f
2025-03-18 11:42:24.688,583, 458, 532, -19, 33, -17, -11, 11, 0, 962, 935, 381,f
2025-03-18 11:42:24.741,862, 876, 416, 8, -9, -6, -14, 11, -1, 968, 946, 172,f
2025-03-18 11:42:24.798,751, 677, 380, 11, 1, 22, -13, 11, -3, 972, 957, 395,f
2025-03-18 11:42:24.860,715, 510, 244, -39, 60, -47, -14, 12, -3, 961, 929, 532,f
2025-03-18 11:42:25.130,718, 581, 395, -3, 4, 2, -14, 11, -3, 945, 892, 498,g
2025-03-18 11:42:25.184,707, 580, 419, -3, 4, 2, -13, 13, -1, 946, 895, 503,g
2025-03-18 11:42:25.241,695, 609, 458, 0, -1, 6, -10, 11, 0, 952, 907, 526,g
2025-03-18 11:42:25.294,699, 576, 407, -2, -1, 4, -12, 12, -3, 952, 912, 539,g
2025-03-18 11:42:25.352,676, 576, 464, 0, -9, 7, -12, 12, -3, 957, 923, 504,g
2025-03-18 11:42:25.409,701, 728, 407, -20, -6, -6, -12, 11, -2, 960, 940, 373,g
2025-03-18 11:42:25.467,637, 433, 481, 21, -10, -16, -13, 12, -2, 964, 935, 50,g
2025-03-18 11:42:25.524,690, 610, 312, -14, 34, 37, -13, 12, -2, 973, 947, 48,g
2025-03-18 11:42:25.581,535, 473, 595, 6, -16, -9, -12, 14, -5, 964, 947, 340,g
2025-03-18 11:42:25.642,719, 496, 542, 23, -11, -10, -13, 14, -4, 967, 935, 401,g
2025-03-18 11:42:25.696,742, 666, 351, -24, 36, 38, -13, 13, -4, 969, 939, 68,g
2025-03-18 11:42:25.753,915, 241, 563, 1, 5, -66, -11, 14, -6, 944, 829, 70,g
2025-03-18 11:42:25.810,617, 595, 626, -24, 9, -51, -9, 10, -3, 888, 799, 338,g
2025-03-18 11:42:26.061,679, 614, 454, -2, 0, 0, -14, 9, 0, 925, 853, 320,h
2025-03-18 11:42:26.118,666, 600, 470, -2, -2, 1, -13, 12, 0, 925, 859, 330,h
2025-03-18 11:42:26.171,690, 587, 435, -4, -6, 0, -11, 12, -2, 927, 877, 405,h
2025-03-18 11:42:26.228,683, 592, 447, -2, -1, -1, -10, 11, -4, 929, 884, 416,h
2025-03-18 11:42:26.290,648, 595, 472, -3, -12, -1, -12, 12, -3, 926, 888, 409,h
2025-03-18 11:42:26.347,756, 636, 388, -1, -18, 7, -13, 11, -2, 932, 911, 405,h
2025-03-18 11:42:26.400,731, 512, 495, 24, 2, 3, -13, 12, -2, 960, 918, 374,h
2025-03-18 11:42:26.458,381, 868, 108, -24, 43, 49, -9, 12, -1, 969, 914, 68,h
2025-03-18 11:42:26.511,757, 566, 546, -26, 0, 7, -9, 10, -2, 965, 928, 41,h
2025-03-18 11:42:26.568,662, 558, 525, 3, -18, -7, -12, 12, -1, 968, 941, 56,h
2025-03-18 11:42:26.621,768, 613, 196, -1, 26, 24, -11, 11, 1, 968, 926, 56,h
2025-03-18 11:42:26.679,703, 393, 429, -6, 13, -27, -11, 15, -3, 955, 898, 234,h
2025-03-18 11:42:26.957,711, 557, 442, 0, -1, 1, -13, 12, -1, 942, 878, 149,i
2025-03-18 11:42:27.010,722, 551, 434, 0, -1, 0, -11, 13, 0, 942, 877, 152,i
2025-03-18 11:42:27.068,717, 567, 438, -4, 0, -3, -12, 11, -3, 941, 872, 60,i
2025-03-18 11:42:27.122,711, 579, 439, -4, 0, -2, -12, 11, 0, 942, 871, 63,i
2025-03-18 11:42:27.175,712, 563, 454, -5, 0, -1, -13, 14, -3, 943, 875, 95,i
2025-03-18 11:42:27.232,703, 561, 448, -3, 0, 1, -12, 12, -1, 945, 882, 136,i
2025-03-18 11:42:27.285,715, 576, 433, 0, 0, 4, -12, 13, -1, 950, 896, 162,i
2025-03-18 11:42:27.339,702, 566, 462, 0, -4, 3, -12, 14, -1, 950, 912, 186,i
2025-03-18 11:42:27.395,707, 546, 495, -8, -20, 3, -11, 14, -2, 958, 933, 49,i
2025-03-18 11:42:27.449,758, 595, 401, -5, -1, -1, -13, 11, 0, 961, 943, 49,i
2025-03-18 11:42:27.507,720, 574, 430, -5, -1, -1, -13, 14, 0, 961, 945, 51,i
2025-03-18 11:42:27.560,717, 553, 443, 5, -1, -4, -10, 11, 1, 965, 947, 48,i
2025-03-18 11:42:27.617,718, 555, 463, 0, -2, -1, -14, 14, -2, 964, 948, 62,i
2025-03-18 11:42:27.670,806, 557, 334, -10, 26, 34, -12, 13, -1, 971, 947, 64,i
2025-03-18 11:42:27.726,748, 402, 388, -17, 22, 7, -12, 11, -2, 969, 933, 53,i
2025-03-18 11:42:27.789,449, 723, 770, -34, -33, -54, -12, 13, -4, 957, 932, 70,i
2025-03-18 11:42:27.846,834, 350, 308, -20, -23, 0, -13, 12, -1, 968, 960, 49,i
2025-03-18 11:42:27.900,862, 462, 421, -9, 52, 16, -13, 14, 0, 961, 915, 267,i
2025-03-18 11:42:27.957,576, 543, 595, -31, 42, -22, -14, 13, -3, 954, 875, 70,i
2025-03-18 11:42:28.211,737, 557, 422, 3, -6, 2, -14, 13, -1, 934, 852, 56,j
2025-03-18 11:42:28.264,744, 574, 404, 2, -3, 0, -9, 13, 0, 934, 853, 64,j
2025-03-18 11:42:28.321,698, 577, 452, -4, 1, -3, -13, 13, -2, 934, 847, 55,j
2025-03-18 11:42:28.376,683, 563, 467, 0, -2, -1, -12, 9, 2, 933, 845, 64,j
2025-03-18 11:42:28.429,704, 575, 443, 1, -4, 0, -12, 13, -1, 931, 845, 55,j
2025-03-18 11:42:28.482,712, 568, 439, -2, 2, -1, -11, 11, -1, 932, 850, 53,j
2025-03-18 11:42:28.535,676, 577, 469, 0, 1, 1, -14, 14, -3, 935, 860, 59,j
2025-03-18 11:42:28.588,707, 573, 432, 5, -1, 6, -10, 11, 0, 938, 880, 149,j
2025-03-18 11:42:28.645,668, 520, 519, 3, -14, 5, -11, 13, -2, 943, 899, 163,j
2025-03-18 11:42:28.698,800, 1017, 395, 17, 3, 12, -12, 12, 0, 962, 925, 68,j
2025-03-18 11:42:28.755,560, 568, 462, -39, 30, 30, -10, 11, 1, 970, 934, 48,j
2025-03-18 11:42:28.813,815, 74, 494, -60, -4, -40, -10, 15, -5, 954, 895, 59,j
2025-03-18 11:42:28.875,451, 1040, 923, -19, -73, -8, -13, 11, -2, 949, 937, 59,j
2025-03-18 11:42:28.928,727, 782, -186, 44, 2, 1, -14, 11, 4, 970, 946, 56,j
2025-03-18 11:42:28.981,775, 293, 484, -23, 48, -3, -12, 11, 2, 952, 881, 63,j
2025-03-18 11:42:29.289,727, 604, 430, 7, 1, -1, -13, 12, 0, 918, 803, 66,k
2025-03-18 11:42:29.338,719, 609, 417, 3, 1, -1, -9, 11, 3, 916, 801, 70,k
2025-03-18 11:42:29.391,708, 571, 431, 2, 0, -2, -11, 13, 0, 914, 810, 67,k
2025-03-18 11:42:29.448,707, 604, 396, -3, 0, -2, -12, 10, 1, 916, 825, 95,k
2025-03-18 11:42:29.501,682, 599, 433, -2, 0, 0, -11, 11, 1, 923, 835, 130,k
2025-03-18 11:42:29.555,686, 570, 426, 0, -3, -2, -13, 12, -1, 924, 857, 198,k
2025-03-18 11:42:29.612,695, 574, 419, -7, 0, -1, -14, 11, -2, 924, 861, 194,k
2025-03-18 11:42:29.669,694, 591, 431, 1, -1, 0, -13, 12, -1, 929, 863, 195,k
2025-03-18 11:42:29.722,675, 603, 416, -3, -3, 0, -12, 11, 1, 929, 874, 204,k
2025-03-18 11:42:29.775,656, 577, 524, 4, -21, 7, -14, 12, 0, 941, 906, 55,k
2025-03-18 11:42:29.833,754, 658, 446, 30, 16, 10, -13, 13, 1, 962, 895, 39,k
2025-03-18 11:42:29.886,771, 399, 361, -8, 29, 27, -10, 12, 2, 962, 869, 56,k
2025-03-18 11:42:29.944,499, 468, 711, -14, -18, 11, -11, 12, 1, 963, 954, 67,k
2025-03-18 11:42:30.001,655, 602, 510, 25, -11, -8, -10, 9, 4, 959, 944, 203,k
2025-03-18 11:42:30.058,531, 564, 422, -40, 35, -25, -14, 11, -1, 940, 765, 55,k
2025-03-18 11:42:30.116,805, 1313, 463, -9, -13, 19, -11, 11, -1, 967, 933, 60,k
2025-03-18 11:42:30.173,785, 506, 418, 20, 13, 19, -12, 13, -2, 963, 934, 74,k
2025-03-18 11:42:30.476,672, 592, 423, -4, -1, -4, -12, 11, -3, 806, 616, 61,l
2025-03-18 11:42:30.530,676, 583, 440, -6, -2, -6, -9, 10, -5, 799, 604, 64,l
2025-03-18 11:42:30.587,605, 594, 466, 3, -6, -7, -13, 10, -3, 781, 587, 39,l
2025-03-18 11:42:30.640,682, 615, 433, 4, -9, 1, -12, 10, -1, 775, 666, 51,l
2025-03-18 11:42:30.693,673, 624, 447, 0, -5, -1, -11, 9, -2, 788, 718, 107,l
2025-03-18 11:42:30.750,655, 597, 415, -2, -6, 0, -10, 9, -3, 807, 760, 167,l
2025-03-18 11:42:30.808,780, 612, 416, 2, -22, -1, -12, 11, -4, 833, 811, 123,l
2025-03-18 11:42:30.861,715, 743, 389, 0, -7, -6, -9, 9, -1, 904, 881, 66,l
2025-03-18 11:42:30.918,691, 655, 442, 18, -15, -7, -12, 11, -1, 948, 896, 52,l
2025-03-18 11:42:30.972,853, 516, 491, 22, 28, 23, -9, 11, -3, 959, 872, 51,l
2025-03-18 11:42:31.024,679, 509, 384, -7, 13, 8, -7, 8, 1, 953, 812, 44,l
2025-03-18 11:42:31.078,675, 548, 541, -13, 5, 2, -12, 11, -2, 949, 833, 70,l
2025-03-18 11:42:31.131,701, 645, 374, -3, 4, 1, -7, 9, -1, 955, 837, 38,l
2025-03-18 11:42:31.188,801, 687, 335, -41, 18, 12, -8, 11, -2, 929, 714, 49,l
2025-03-18 11:42:31.241,619, 640, 434, -9, 28, -46, -8, 10, -1, 826, 670, 43,l
2025-03-18 11:42:31.299,527, 635, 563, -2, -7, 2, -11, 11, -5, 859, 761, 61,l
2025-03-18 11:42:31.352,709, 595, 425, 2, -7, 1, -12, 11, -5, 864, 774, 73,l
2025-03-18 11:42:31.615,654, 621, 450, 4, 1, 0, -9, 11, -4, 858, 754, 148,m
2025-03-18 11:42:31.668,649, 615, 446, 5, 0, 0, -12, 12, -1, 856, 752, 152,m
2025-03-18 11:42:31.725,673, 610, 410, 7, -1, -4, -9, 11, -2, 833, 756, 190,m
2025-03-18 11:42:31.782,640, 644, 431, 9, -3, -8, -11, 12, -5, 812, 760, 152,m
2025-03-18 11:42:31.840,708, 618, 378, 3, -18, -1, -11, 11, -5, 832, 827, 164,m
2025-03-18 11:42:31.893,721, 664, 457, 9, -7, -8, -10, 11, -3, 922, 884, 95,m
2025-03-18 11:42:31.946,601, 636, 363, 8, 20, 21, -9, 9, -3, 957, 891, 54,m
2025-03-18 11:42:31.999,716, 659, 312, -11, 11, 9, -9, 10, -3, 955, 882, 62,m
2025-03-18 11:42:32.057,484, 430, 490, 1, -32, -17, -9, 11, -4, 940, 909, 219,m
2025-03-18 11:42:32.114,602, 515, 513, -5, -11, 3, -8, 11, 0, 965, 938, 484,m
2025-03-18 11:42:32.172,643, 568, 306, -3, 21, 19, -10, 11, -3, 970, 932, 307,m
2025-03-18 11:42:32.225,793, 439, 670, 1, -12, -6, -9, 12, -2, 958, 933, 345,m
2025-03-18 11:42:32.282,621, 498, 573, -7, -11, 4, -10, 11, 0, 969, 945, 473,m
2025-03-18 11:42:32.339,752, 687, 171, -15, 27, 26, -10, 12, -1, 973, 942, 344,m
2025-03-18 11:42:32.400,728, 479, 329, -17, 35, -52, -12, 15, -3, 949, 873, 409,m
2025-03-18 11:42:32.458,548, 686, 663, -12, 12, -24, -6, 10, -5, 905, 806, 364,m
2025-03-18 11:42:32.712,678, 598, 456, -1, 1, -2, -9, 11, -5, 869, 740, 170,n
2025-03-18 11:42:32.765,657, 587, 465, 0, 1, -2, -9, 11, -5, 869, 745, 174,n
2025-03-18 11:42:32.819,678, 629, 438, 7, -5, -2, -7, 10, -1, 863, 769, 260,n
2025-03-18 11:42:32.876,666, 621, 446, 5, -2, -8, -9, 11, -4, 832, 755, 134,n
2025-03-18 11:42:32.934,665, 612, 450, 5, -17, 2, -12, 11, -3, 838, 789, 145,n
2025-03-18 11:42:32.987,735, 588, 401, 2, -13, -2, -8, 10, -1, 889, 863, 58,n
2025-03-18 11:42:33.040,670, 517, 544, 9, -14, -8, -8, 10, -2, 943, 891, 40,n
2025-03-18 11:42:33.098,849, 688, 373, -12, 34, 34, -9, 10, -2, 960, 878, 64,n
2025-03-18 11:42:33.155,776, 676, 378, -21, 10, 7, -8, 11, -3, 944, 892, 47,n
2025-03-18 11:42:33.212,855, 774, 642, -12, -42, -14, -10, 11, -2, 949, 928, 484,n
2025-03-18 11:42:33.270,485, 573, 163, -9, 25, 33, -12, 13, -1, 971, 934, 373,n
2025-03-18 11:42:33.326,844, 496, 510, -26, 16, -3, -10, 12, -2, 952, 874, 435,n
2025-03-18 11:42:33.609,713, 613, 424, -3, -1, 1, -10, 11, -3, 871, 789, 225,o
2025-03-18 11:42:33.666,698, 603, 410, -6, 0, 1, -11, 9, -2, 874, 788, 223,o
2025-03-18 11:42:33.719,664, 590, 459, -4, -3, 2, -8, 10, -1, 887, 800, 227,o
2025-03-18 11:42:33.776,699, 574, 438, -2, 0, -1, -12, 12, -5, 896, 815, 265,o
2025-03-18 11:42:33.830,681, 579, 459, 5, -2, 8, -10, 13, -4, 906, 835, 377,o
2025-03-18 11:42:33.884,678, 587, 455, 5, -2, 2, -10, 9, 0, 913, 869, 410,o
2025-03-18 11:42:33.941,669, 620, 451, 8, -8, 6, -10, 11, -1, 920, 902, 421,o
2025-03-18 11:42:33.993,601, 552, 467, -13, -17, -15, -9, 9, 4, 930, 933, 243,o
2025-03-18 11:42:34.051,604, 391, 434, 95, 2, -21, -11, 11, -3, 946, 899, 38,o
2025-03-18 11:42:34.108,484, 454, 335, -54, 29, 37, -8, 11, -3, 966, 924, 74,o
2025-03-18 11:42:34.166,565, 268, 767, -2, -37, -25, -11, 12, -5, 954, 946, 240,o
2025-03-18 11:42:34.227,866, 585, 250, -5, 22, -28, -11, 11, -2, 870, 856, 469,o
2025-03-18 11:42:34.514,668, 604, 465, -7, 0, 0, -9, 10, -3, 813, 730, 230,p
2025-03-18 11:42:34.571,666, 611, 449, -6, -1, 1, -10, 12, -2, 814, 731, 220,p
2025-03-18 11:42:34.625,668, 602, 442, -6, -3, 0, -9, 11, -3, 825, 739, 235,p
2025-03-18 11:42:34.682,675, 590, 431, -9, -9, -1, -10, 11, -2, 832, 772, 227,p
2025-03-18 11:42:34.739,672, 586, 490, -1, -19, -2, -8, 12, -4, 839, 824, 206,p
2025-03-18 11:42:34.793,716, 684, 514, 8, -1, -4, -6, 11, -2, 924, 879, 39,p
2025-03-18 11:42:34.850,910, 820, 435, 36, 45, 57, -11, 12, -4, 954, 842, 61,p
2025-03-18 11:42:34.908,700, 560, 300, -22, 21, 17, -8, 11, -5, 947, 824, 68,p
2025-03-18 11:42:34.964,650, 413, 457, 37, -62, -83, -9, 14, -6, 862, 863, 330,p
2025-03-18 11:42:35.022,726, 743, 657, 25, -21, 8, -11, 11, -2, 947, 934, 244,p
2025-03-18 11:42:35.079,383, 783, 214, -15, 35, 32, -11, 10, -3, 965, 939, 69,p
2025-03-18 11:42:35.137,809, 328, 302, -14, 15, -22, -11, 12, -4, 930, 839, 192,p
2025-03-18 11:42:35.198,505, 636, 624, -30, 53, -42, -11, 11, -6, 869, 794, 284,p
2025-03-18 11:42:35.506,674, 604, 454, -5, -3, 0, -11, 11, -4, 854, 758, 185,q
2025-03-18 11:42:35.559,670, 598, 452, -2, -3, 1, -9, 7, -1, 855, 761, 175,q
2025-03-18 11:42:35.616,701, 602, 429, -2, -8, 11, -12, 12, -4, 883, 786, 222,q
2025-03-18 11:42:35.674,678, 602, 405, -2, -7, 5, -11, 11, -5, 911, 870, 215,q
2025-03-18 11:42:35.731,679, 672, 470, -11, -16, 3, -12, 11, -3, 926, 915, 53,q
2025-03-18 11:42:35.788,519, 606, 532, -7, -3, -10, -11, 12, -2, 944, 930, 45,q
2025-03-18 11:42:35.841,702, 956, 250, -9, 32, 25, -11, 11, -2, 961, 912, 57,q
2025-03-18 11:42:35.899,817, 622, 369, -33, 14, 26, -9, 12, -5, 967, 939, 57,q
2025-03-18 11:42:35.956,675, 591, 413, 5, -28, -26, -13, 13, -3, 956, 945, 66,q
2025-03-18 11:42:36.009,819, 785, 206, 6, 37, 33, -9, 11, 0, 967, 930, 54,q
2025-03-18 11:42:36.062,710, 442, 337, -6, 13, 15, -9, 13, -3, 970, 943, 56,q
2025-03-18 11:42:36.124,816, 330, 385, 45, -11, -30, -12, 12, -2, 951, 913, 59,q
2025-03-18 11:42:36.181,542, 646, 649, -15, 28, -25, -9, 10, -3, 901, 792, 49,q
2025-03-18 11:42:36.435,677, 605, 468, 0, -5, -3, -10, 10, -1, 867, 765, 157,r
2025-03-18 11:42:36.489,674, 596, 456, 3, -4, -3, -12, 11, 1, 870, 772, 153,r
2025-03-18 11:42:36.546,682, 605, 418, -2, -3, 0, -10, 11, -3, 879, 795, 292,r
2025-03-18 11:42:36.599,689, 585, 440, -5, -3, -5, -9, 9, -2, 882, 811, 275,r
2025-03-18 11:42:36.660,617, 620, 476, -8, -13, -4, -11, 12, -4, 878, 828, 167,r
2025-03-18 11:42:36.718,664, 439, 307, -9, -11, -11, -11, 12, -4, 914, 885, 60,r
2025-03-18 11:42:36.775,829, 780, 436, 14, 23, 26, -10, 12, -2, 955, 892, 48,r
2025-03-18 11:42:36.830,735, 677, 228, -23, 19, 24, -11, 13, -2, 956, 879, 67,r
2025-03-18 11:42:36.890,933, 123, 629, 46, -56, -51, -11, 16, -4, 949, 942, 66,r
2025-03-18 11:42:36.947,858, 652, 114, 23, 33, 30, -12, 13, -2, 952, 924, 406,r
2025-03-18 11:42:37.004,495, 621, 579, -33, 46, -39, -10, 13, -6, 930, 804, 250,r
2025-03-18 11:42:37.279,668, 583, 465, -3, -2, 0, -11, 12, -3, 893, 810, 206,s
2025-03-18 11:42:37.336,683, 606, 475, -4, -2, 2, -12, 12, -1, 894, 809, 208,s
2025-03-18 11:42:37.390,663, 594, 477, 0, -8, 2, -9, 11, 2, 899, 815, 204,s
2025-03-18 11:42:37.447,713, 575, 413, -3, -2, -5, -12, 11, -2, 886, 815, 175,s
2025-03-18 11:42:37.504,678, 580, 431, -6, -5, -13, -10, 11, -1, 859, 820, 114,s
2025-03-18 11:42:37.561,532, 615, 533, 2, -30, -8, -12, 11, -2, 848, 863, 186,s
2025-03-18 11:42:37.619,1077, 526, 376, -2, -8, -16, -10, 9, 1, 888, 899, 43,s
2025-03-18 11:42:37.672,428, 945, 207, 87, 44, 28, -12, 11, -2, 949, 892, 55,s
2025-03-18 11:42:37.729,687, 733, 196, -45, 40, 43, -10, 11, -2, 962, 914, 66,s
2025-03-18 11:42:37.791,471, 355, 636, -10, -36, -57, -11, 12, -5, 925, 878, 360,s
2025-03-18 11:42:37.848,1191, 544, 357, 41, -15, -19, -9, 10, -2, 925, 908, 66,s
2025-03-18 11:42:37.905,709, 567, 296, -23, 3, 24, -10, 10, -1, 960, 940, 296,s
2025-03-18 11:42:37.963,607, 620, 414, -4, -1, -2, -12, 11, -4, 951, 932, 479,s
2025-03-18 11:42:38.017,776, 578, 365, 3, 3, -4, -10, 9, -2, 944, 918, 319,s
2025-03-18 11:42:38.073,766, 607, 342, -7, 13, -8, -12, 11, -3, 924, 907, 510,s
2025-03-18 11:42:38.135,492, 684, 567, -25, 25, -8, -11, 11, -2, 914, 891, 457,s
2025-03-18 11:42:38.188,563, 644, 511, 8, -25, 27, -9, 11, -3, 931, 911, 491,s
2025-03-18 11:42:38.246,713, 578, 335, -1, -13, 9, -10, 10, 0, 937, 929, 517,s
2025-03-18 11:42:38.303,584, 704, 477, -11, -6, -6, -11, 11, 0, 944, 940, 362,s
2025-03-18 11:42:38.356,807, 520, 378, 30, 2, -9, -12, 10, 0, 955, 932, 59,s
2025-03-18 11:42:38.413,776, 478, 458, -11, 39, 27, -9, 11, 0, 970, 937, 53,s
2025-03-18 11:42:38.468,536, 491, 475, -10, 21, 15, -10, 11, -3, 962, 899, 45,s
2025-03-18 11:42:38.524,1008, 339, 374, 61, 11, -47, -8, 11, -4, 720, 774, 60,s
2025-03-18 11:42:38.581,438, 679, 709, -34, 48, -56, -8, 11, -7, 523, 807, 62,s
2025-03-18 11:42:38.897,496, 726, 515, 0, -9, -47, -12, 4, -3, 339, 647, 62,t
2025-03-18 11:42:38.950,493, 714, 515, 4, -7, -46, -12, 5, -4, 341, 637, 63,t
2025-03-18 11:42:39.008,408, 810, 553, 5, -25, -41, -13, 2, -1, 484, 582, 30,t
2025-03-18 11:42:39.060,261, 895, 632, 10, -8, 9, -11, -1, 1, 606, 666, 183,t
2025-03-18 11:42:39.118,309, 749, 426, 50, -32, 81, -10, -2, 2, 684, 692, 159,t
2025-03-18 11:42:39.171,562, 605, 218, 31, 3, 83, -10, 0, 3, 737, 691, 130,t
2025-03-18 11:42:39.228,693, 650, 282, 16, -1, 58, -12, 3, 1, 765, 692, 148,t
2025-03-18 11:42:39.282,781, 611, 299, -14, 6, 28, -9, 4, -1, 805, 693, 176,t
2025-03-18 11:42:39.340,694, 645, 421, -16, 14, 13, -9, 8, -1, 845, 673, 187,t
2025-03-18 11:42:39.393,689, 719, 355, -38, 3, 3, -10, 8, -5, 882, 676, 158,t
2025-03-18 11:42:39.450,624, 615, 501, -6, -27, 8, -12, 10, -3, 905, 757, 140,t
2025-03-18 11:42:39.512,690, 631, 349, -33, -32, -5, -12, 10, -1, 920, 869, 153,t
2025-03-18 11:42:39.569,758, 499, 492, -11, -9, -9, -11, 11, 0, 949, 922, 41,t
2025-03-18 11:42:39.622,1396, 1428, -173, 24, 85, 57, -8, 9, 2, 969, 924, 64,t
2025-03-18 11:42:39.679,740, 704, 205, -12, 29, 21, -9, 9, -1, 967, 933, 61,t
2025-03-18 11:42:39.736,563, 555, 473, 10, -28, -83, -10, 8, -2, 938, 895, 451,t
2025-03-18 11:42:39.794,991, 681, 440, 36, -24, -21, -10, 8, -1, 958, 931, 49,t
2025-03-18 11:42:39.848,729, 390, 204, -8, 14, 38, -9, 12, -2, 972, 957, 47,t
2025-03-18 11:42:39.904,734, 461, 270, -6, 51, -54, -10, 9, -1, 952, 913, 527,t
2025-03-18 11:42:40.200,648, 647, 427, -4, 0, 2, -6, 8, -1, 834, 673, 43,u
2025-03-18 11:42:40.252,656, 642, 420, -2, -1, 1, -11, 9, -1, 835, 677, 34,u
2025-03-18 11:42:40.310,637, 651, 452, -2, -1, 0, -10, 10, -5, 841, 738, 49,u
2025-03-18 11:42:40.363,629, 642, 480, 6, -8, 7, -12, 8, -2, 849, 762, 59,u
2025-03-18 11:42:40.412,707, 646, 365, 6, -7, 7, -6, 6, 0, 867, 771, 42,u
2025-03-18 11:42:40.465,676, 642, 411, -7, -1, 2, -9, 9, -1, 885, 788, 129,u
2025-03-18 11:42:40.523,659, 620, 413, -6, -1, 8, -10, 9, 0, 910, 815, 287,u
2025-03-18 11:42:40.571,635, 631, 455, 1, 0, 10, -9, 8, 0, 923, 818, 198,u
2025-03-18 11:42:40.630,615, 692, 441, 6, -26, 16, -11, 10, -2, 938, 863, 67,u
2025-03-18 11:42:40.682,705, 358, 377, 17, 7, 0, -8, 10, 1, 961, 905, 58,u
2025-03-18 11:42:40.736,803, 475, 231, 2, 29, 46, -9, 10, -2, 968, 923, 60,u
2025-03-18 11:42:40.789,558, 449, 633, -15, -20, -3, -7, 9, 0, 959, 936, 51,u
2025-03-18 11:42:40.847,718, 507, 676, 8, -18, -10, -10, 12, 0, 964, 939, 72,u
2025-03-18 11:42:40.899,773, 737, 353, -20, 25, 25, -9, 11, 0, 967, 936, 58,u
2025-03-18 11:42:40.957,730, 533, 349, -9, 17, -47, -8, 11, -1, 949, 911, 190,u
2025-03-18 11:42:41.215,698, 594, 409, -5, -2, -3, -9, 11, -1, 932, 860, 70,v
2025-03-18 11:42:41.273,693, 554, 425, -3, -4, -5, -11, 11, -2, 930, 859, 66,v
2025-03-18 11:42:41.326,666, 573, 468, -1, -11, -2, -7, 7, 1, 933, 871, 50,v
2025-03-18 11:42:41.383,759, 741, 400, -22, -6, -7, -9, 10, -2, 945, 906, 71,v
2025-03-18 11:42:41.437,698, 478, 479, 7, -13, -10, -9, 10, 1, 959, 928, 52,v
2025-03-18 11:42:41.490,726, 912, 176, 1, 30, 43, -9, 11, 1, 969, 922, 49,v
2025-03-18 11:42:41.548,580, 614, 211, -23, 13, 23, -10, 11, -1, 969, 943, 51,v
2025-03-18 11:42:41.604,627, 481, 543, 39, -47, -30, -9, 11, 1, 965, 959, 45,v
2025-03-18 11:42:41.659,898, 671, 181, -8, 29, -8, -10, 11, 1, 948, 928, 56,v
2025-03-18 11:42:41.719,541, 606, 669, -26, 34, -11, -12, 11, -2, 940, 882, 61,v
2025-03-18 11:42:41.978,714, 564, 442, -2, 0, -6, -11, 11, -3, 914, 776, 61,w
2025-03-18 11:42:42.030,698, 592, 442, -4, 0, -6, -5, 11, 2, 912, 765, 57,w
2025-03-18 11:42:42.087,686, 593, 444, -5, -5, 0, -12, 11, -3, 908, 744, 59,w
2025-03-18 11:42:42.142,711, 577, 399, -1, -2, -3, -9, 10, -2, 909, 754, 56,w
2025-03-18 11:42:42.199,644, 597, 450, 1, -11, -2, -10, 11, -2, 912, 798, 60,w
2025-03-18 11:42:42.256,776, 673, 409, -10, -8, -8, -10, 11, -1, 943, 906, 69,w
2025-03-18 11:42:42.309,930, 894, 305, -13, 22, 39, -8, 10, 1, 968, 920, 67,w
2025-03-18 11:42:42.366,712, 530, 309, -3, 11, 18, -10, 10, 3, 971, 937, 52,w
2025-03-18 11:42:42.423,841, 351, 279, -5, -22, -22, -9, 11, -1, 963, 949, 59,w
2025-03-18 11:42:42.476,793, 734, 369, 30, 2, 11, -10, 11, 1, 963, 922, 56,w
2025-03-18 11:42:42.533,805, 674, 261, -19, 10, 22, -11, 12, -1, 970, 938, 41,w
2025-03-18 11:42:42.591,886, 511, 267, 44, -19, -13, -12, 13, -2, 951, 924, 58,w
2025-03-18 11:42:42.648,638, 560, 354, -43, 78, -49, -12, 11, -2, 916, 857, 62,w
2025-03-18 11:42:42.931,658, 593, 472, -5, -10, 0, -11, 11, -2, 920, 835, 65,x
2025-03-18 11:42:42.988,635, 609, 479, -6, -11, 2, -14, 12, 2, 922, 844, 62,x
2025-03-18 11:42:43.042,672, 593, 442, 9, -16, 15, -11, 13, -5, 932, 863, 48,x
2025-03-18 11:42:43.095,770, 594, 354, 0, -12, 6, -11, 10, 0, 937, 881, 43,x
2025-03-18 11:42:43.152,752, 571, 339, -4, 3, -3, -11, 12, 0, 939, 889, 56,x
2025-03-18 11:42:43.206,701, 575, 393, -5, -3, -2, -10, 11, 1, 942, 895, 46,x
2025-03-18 11:42:43.263,714, 553, 395, -17, -10, 1, -11, 11, 0, 951, 915, 55,x
2025-03-18 11:42:43.312,397, 541, 324, 8, 8, 1, -10, 10, 3, 964, 931, 68,x
2025-03-18 11:42:43.370,1251, 478, 317, -3, 34, 22, -11, 12, -1, 967, 914, 55,x
2025-03-18 11:42:43.426,677, 205, 591, -7, -11, -41, -9, 12, -3, 943, 878, 53,x
2025-03-18 11:42:43.488,1658, 252, 259, -17, -8, -6, -12, 12, -2, 961, 931, 53,x
2025-03-18 11:42:43.543,724, 453, 458, -15, 35, 45, -11, 12, -1, 976, 951, 49,x
2025-03-18 11:42:43.599,753, 288, 358, -1, 14, -60, -9, 9, 0, 960, 916, 43,x
2025-03-18 11:42:43.656,639, 520, 667, -13, 7, -30, -10, 11, -3, 913, 865, 61,x
2025-03-18 11:42:43.923,719, 602, 424, 1, -2, -6, -7, 11, -2, 904, 801, 50,y
2025-03-18 11:42:43.976,717, 609, 420, 0, -2, -6, -8, 11, 0, 902, 801, 36,y
2025-03-18 11:42:44.033,728, 582, 408, -2, -2, -5, -9, 11, -2, 897, 805, 53,y
2025-03-18 11:42:44.087,706, 612, 427, -5, 0, 0, -10, 11, -1, 910, 847, 44,y
2025-03-18 11:42:44.144,646, 595, 448, -12, -7, -8, -9, 11, -1, 923, 880, 56,y
2025-03-18 11:42:44.197,696, 552, 552, 6, -32, 12, -9, 11, 0, 939, 909, 50,y
2025-03-18 11:42:44.251,915, 1085, 128, 41, 25, 19, -13, 11, 2, 967, 929, 70,y
2025-03-18 11:42:44.308,861, 717, 286, -4, 31, 34, -11, 14, -2, 972, 945, 59,y
2025-03-18 11:42:44.365,614, 396, 593, 43, -30, -40, -9, 10, -2, 951, 910, 345,y
2025-03-18 11:42:44.418,807, 633, 397, 24, 6, 8, -12, 10, 1, 967, 918, 44,y
2025-03-18 11:42:44.476,667, 784, 40, -13, 44, 39, -9, 11, 0, 970, 925, 61,y
2025-03-18 11:42:44.528,839, 41, 553, -6, -5, -62, -10, 13, -5, 943, 770, 57,y
2025-03-18 11:42:44.848,699, 606, 395, 6, -4, 6, -11, 10, 0, 922, 875, 402,z
2025-03-18 11:42:44.906,691, 626, 399, 5, -4, 6, -15, 11, 0, 924, 873, 413,z
2025-03-18 11:42:44.959,698, 609, 393, -3, 0, -3, -11, 10, -1, 927, 883, 401,z
2025-03-18 11:42:45.017,671, 591, 407, -11, 0, -5, -12, 10, 0, 933, 875, 201,z
2025-03-18 11:42:45.074,595, 579, 426, -29, -9, -10, -11, 11, -1, 931, 802, 53,z
2025-03-18 11:42:45.127,856, 609, 219, 0, -7, -8, -11, 12, 0, 951, 905, 60,z
2025-03-18 11:42:45.184,598, 649, 346, 12, -4, 35, -9, 9, -1, 969, 947, 42,z
2025-03-18 11:42:45.238,599, 549, 449, 41, 9, 11, -12, 10, -1, 966, 927, 53,z
2025-03-18 11:42:45.295,1194, 844, 363, -72, 26, 4, -11, 9, 2, 965, 891, 45,z
2025-03-18 11:42:45.348,785, 780, 312, -11, 8, 27, -11, 12, -2, 971, 949, 71,z
2025-03-18 11:42:45.406,706, 416, 432, 28, -10, -14, -9, 11, -4, 961, 925, 60,z
2025-03-18 11:42:45.467,573, 681, 546, -13, -13, -21, -11, 11, -2, 947, 887, 54,z
2025-03-18 11:42:45.519,1012, 879, 474, 1, -9, 23, -10, 11, -1, 972, 957, 59,z
2025-03-18 11:42:45.573,597, 475, 354, 14, 9, 14, -7, 11, 0, 972, 948, 54,z
2025-03-18 11:42:45.634,653, 620, 249, -22, 43, -63, -11, 11, -3, 935, 881, 57,z
2025-03-18 11:42:45.939,700, 593, 426, -10, 5, -6, -11, 10, -3, 888, 719, 64,0
2025-03-18 11:42:45.992,670, 585, 449, -6, 4, -4, -8, 10, 0, 889, 729, 60,0
2025-03-18 11:42:46.044,676, 604, 439, -3, -3, 0, -11, 10, -2, 889, 753, 68,0
2025-03-18 11:42:46.097,717, 608, 392, -1, -4, 0, -12, 11, -2, 893, 770, 52,0
2025-03-18 11:42:46.151,670, 600, 435, -3, -3, 6, -8, 5, 3, 909, 849, 42,0
2025-03-18 11:42:46.208,690, 614, 412, -4, -3, 5, -12, 11, -6, 918, 867, 68,0
2025-03-18 11:42:46.262,704, 586, 408, -3, -2, 6, -9, 10, -1, 930, 882, 53,0
2025-03-18 11:42:46.315,707, 591, 413, -4, -4, 8, -11, 11, -1, 939, 891, 70,0
2025-03-18 11:42:46.372,688, 610, 415, -4, -5, 6, -11, 10, -1, 944, 898, 43,0
2025-03-18 11:42:46.426,756, 549, 370, 3, -4, 1, -11, 11, -1, 945, 902, 58,0
2025-03-18 11:42:46.479,739, 580, 409, 1, 4, -4, -11, 11, 1, 943, 896, 49,0
2025-03-18 11:42:46.532,774, 592, 324, -2, 10, -8, -11, 11, -1, 940, 891, 73,0
2025-03-18 11:42:46.589,634, 620, 517, -18, 8, -10, -12, 11, -2, 940, 894, 64,0
2025-03-18 11:42:46.647,584, 622, 492, -3, -27, 11, -9, 11, -2, 946, 909, 56,0
2025-03-18 11:42:46.704,971, 554, 267, -45, -16, -25, -12, 11, 3, 953, 937, 45,0
2025-03-18 11:42:46.761,812, 412, 304, 79, 2, -24, -10, 9, 2, 960, 901, 54,0
2025-03-18 11:42:46.814,900, 1058, 174, -71, 53, 64, -11, 9, 1, 971, 925, 54,0
2025-03-18 11:42:46.868,471, 334, 819, 8, -45, -36, -8, 9, 1, 963, 939, 42,0
2025-03-18 11:42:46.929,894, 555, 311, 32, -11, -32, -11, 11, 0, 916, 877, 344,0
2025-03-18 11:42:46.986,712, 597, 297, -22, 57, -27, -10, 10, 1, 916, 803, 58,0
2025-03-18 11:42:47.261,682, 628, 394, -5, 1, -3, -11, 9, -2, 784, 693, 51,1
2025-03-18 11:42:47.314,682, 627, 396, -3, 1, -2, -9, 10, -1, 787, 699, 51,1
2025-03-18 11:42:47.367,692, 635, 383, -1, -1, -1, -7, 9, -3, 787, 698, 35,1
2025-03-18 11:42:47.420,684, 623, 391, 0, -1, -2, -10, 9, 0, 773, 698, 55,1
2025-03-18 11:42:47.478,657, 646, 391, -3, -4, -7, -11, 9, -1, 739, 699, 53,1
2025-03-18 11:42:47.531,713, 659, 377, -10, -1, -5, -12, 10, 1, 752, 682, 51,1
2025-03-18 11:42:47.584,640, 643, 427, -6, -1, -3, -9, 8, 0, 789, 717, 63,1
2025-03-18 11:42:47.637,766, 298, 380, 44, -25, -3, -9, 9, 2, 886, 827, 55,1
2025-03-18 11:42:47.691,917, 816, 318, -29, 0, 12, -9, 8, 0, 933, 927, 53,1
2025-03-18 11:42:47.748,624, 549, 689, -19, -1, 11, -12, 9, 0, 952, 938, 70,1
2025-03-18 11:42:47.801,1001, 339, 405, 4, 34, 48, -10, 11, 2, 969, 941, 54,1
2025-03-18 11:42:47.859,658, 526, 357, -12, 33, 18, -8, 11, 1, 960, 907, 45,1
2025-03-18 11:42:47.912,569, 784, 710, 33, -14, 9, -8, 8, -2, 940, 843, 69,1
2025-03-18 11:42:47.965,649, 941, 300, -10, -9, 17, -8, 8, 0, 970, 953, 47,1
2025-03-18 11:42:48.018,801, 468, 554, 5, 14, 21, -10, 10, -1, 956, 924, 70,1
2025-03-18 11:42:48.313,707, 609, 356, -4, -1, -6, -9, 10, -1, 768, 766, 57,2
2025-03-18 11:42:48.366,695, 627, 359, -8, 0, -7, -9, 6, 0, 762, 766, 41,2
2025-03-18 11:42:48.420,636, 602, 422, -9, -1, -9, -11, 10, -2, 738, 724, 57,2
2025-03-18 11:42:48.473,683, 649, 399, -9, -1, -11, -9, 8, 0, 673, 673, 45,2
2025-03-18 11:42:48.527,629, 642, 439, 9, -8, -9, -9, 9, -2, 659, 703, 60,2
2025-03-18 11:42:48.584,796, 411, 335, 22, -28, 3, -9, 10, -2, 834, 842, 34,2
2025-03-18 11:42:48.637,1002, 834, 382, 0, -12, 11, -8, 6, 1, 946, 919, 57,2
2025-03-18 11:42:48.690,585, 672, 520, 20, 15, 24, -6, 6, 3, 959, 920, 182,2
2025-03-18 11:42:48.748,678, 551, 312, -62, 33, 14, -10, 11, -2, 957, 810, 52,2
2025-03-18 11:42:48.801,918, 858, 419, 29, 2, 11, -8, 11, -1, 966, 943, 55,2
2025-03-18 11:42:48.858,763, 649, 338, -6, 11, 12, -7, 9, 1, 954, 925, 273,2
2025-03-18 11:42:49.137,696, 630, 362, -8, -2, -8, -10, 9, -2, 768, 724, 52,3
2025-03-18 11:42:49.190,675, 627, 375, -7, -2, -8, -8, 10, 3, 765, 726, 68,3
2025-03-18 11:42:49.247,626, 660, 425, -3, -5, -1, -11, 9, -3, 746, 747, 53,3
2025-03-18 11:42:49.300,677, 640, 399, -4, -4, -9, -11, 10, -3, 750, 782, 67,3
2025-03-18 11:42:49.358,594, 637, 455, -3, -11, 2, -8, 8, -2, 790, 804, 38,3
2025-03-18 11:42:49.412,992, 338, 247, 42, -14, -18, -9, 9, -1, 913, 890, 58,3
2025-03-18 11:42:49.468,661, 564, 340, -24, 12, 25, -9, 9, -1, 955, 933, 365,3
2025-03-18 11:42:49.526,322, 741, 441, -14, 14, 18, -13, 8, 0, 958, 927, 356,3
2025-03-18 11:42:49.579,867, 542, 279, 3, 14, -4, -9, 9, -1, 961, 914, 52,3
2025-03-18 11:42:49.628,483, 759, 427, 3, 18, 12, -9, 8, 0, 964, 927, 66,3
2025-03-18 11:42:49.686,673, 531, 382, -25, 15, 11, -8, 11, -3, 953, 852, 72,3
2025-03-18 11:42:49.743,960, 330, 325, -8, 27, -41, -7, 9, -2, 848, 731, 117,3
2025-03-18 11:42:50.014,693, 594, 408, -9, -3, -6, -10, 10, -3, 839, 753, 57,4
2025-03-18 11:42:50.066,686, 593, 419, -8, -2, -8, -8, 8, -3, 833, 752, 70,4
2025-03-18 11:42:50.119,647, 641, 452, -3, -1, -5, -7, 10, -2, 802, 743, 46,4
2025-03-18 11:42:50.176,672, 626, 436, -1, -6, 0, -9, 10, -2, 810, 751, 63,4
2025-03-18 11:42:50.231,670, 634, 416, -10, -3, -5, -8, 8, 0, 815, 747, 70,4
2025-03-18 11:42:50.284,638, 611, 470, -3, -14, -2, -9, 10, -4, 829, 756, 66,4
2025-03-18 11:42:50.341,632, 625, 514, 18, -38, 17, -10, 10, -2, 896, 848, 60,4
2025-03-18 11:42:50.394,665, 549, 474, 8, -9, -7, -9, 9, 2, 946, 906, 59,4
2025-03-18 11:42:50.446,209, 781, 332, 15, 28, 6, -9, 9, 1, 954, 849, 67,4
2025-03-18 11:42:50.501,920, 718, 170, 40, 19, 12, -7, 9, 3, 965, 922, 56,4
2025-03-18 11:42:50.554,595, 479, 380, -14, 1, 22, -9, 9, 0, 973, 958, 61,4
2025-03-18 11:42:50.611,764, 362, 346, 12, 0, -15, -11, 11, -3, 950, 921, 377,4
2025-03-18 11:42:50.668,603, 805, 652, 9, -16, 17, -12, 10, -2, 944, 893, 453,4
2025-03-18 11:42:50.722,812, 879, 168, 12, 34, 29, -10, 9, 0, 969, 924, 177,4
2025-03-18 11:42:50.779,789, 435, 412, -19, 25, 8, -8, 11, -2, 955, 826, 297,4
2025-03-18 11:42:50.836,581, 653, 540, -8, 19, -65, -10, 11, -3, 857, 744, 316,4
2025-03-18 11:42:51.103,681, 635, 436, -2, -3, 0, -8, 8, -1, 835, 739, 58,5
2025-03-18 11:42:51.156,674, 630, 439, -3, -4, 0, -9, 10, -1, 835, 743, 43,5
2025-03-18 11:42:51.208,665, 643, 433, -1, -3, -4, -10, 8, 0, 838, 765, 56,5
2025-03-18 11:42:51.262,683, 630, 422, 3, -2, 2, -10, 11, -4, 840, 782, 146,5
2025-03-18 11:42:51.319,651, 642, 440, 0, -3, -1, -11, 11, -4, 846, 795, 164,5
2025-03-18 11:42:51.373,604, 632, 463, 4, -7, 1, -13, 9, 0, 852, 799, 144,5
2025-03-18 11:42:51.430,842, 492, 292, 4, -24, 1, -11, 10, -3, 886, 825, 62,5
2025-03-18 11:42:51.479,726, 606, 355, 0, -3, -5, -8, 8, -1, 928, 862, 64,5
2025-03-18 11:42:51.536,684, 676, 383, 13, -4, -5, -9, 8, -2, 937, 882, 59,5
2025-03-18 11:42:51.585,678, 620, 400, -1, 1, 0, -9, 8, 1, 946, 902, 53,5
2025-03-18 11:42:51.644,615, 661, 104, -24, 5, 36, -10, 10, 1, 962, 934, 219,5
2025-03-18 11:42:51.696,588, 672, 419, -13, 1, 3, -11, 9, 0, 960, 941, 383,5
2025-03-18 11:42:51.749,597, 589, 387, 9, -1, -19, -11, 8, 0, 953, 904, 69,5
2025-03-18 11:42:51.803,833, 781, 224, 10, 33, 23, -9, 8, 1, 970, 918, 53,5
2025-03-18 11:42:51.861,649, 714, 370, -8, 30, 25, -9, 10, -1, 974, 926, 55,5
2025-03-18 11:42:51.914,729, 551, 392, -21, 11, 7, -7, 11, -3, 932, 736, 54,5
2025-03-18 11:42:51.971,802, 706, 181, 20, 35, -54, -9, 11, -5, 732, 591, 77,5
2025-03-18 11:42:52.258,638, 638, 446, -3, -13, 2, -10, 10, -3, 776, 759, 51,6
2025-03-18 11:42:52.310,645, 616, 433, 0, -15, 2, -10, 10, -3, 781, 765, 51,6
2025-03-18 11:42:52.368,692, 605, 407, 1, -2, -1, -11, 10, -2, 784, 793, 73,6
2025-03-18 11:42:52.416,694, 630, 398, 2, -5, -1, -8, 6, 1, 764, 813, 27,6
2025-03-18 11:42:52.474,657, 662, 404, 7, -9, 10, -11, 9, 1, 830, 863, 145,6
2025-03-18 11:42:52.528,700, 574, 423, 0, -19, 1, -11, 10, -2, 851, 898, 198,6
2025-03-18 11:42:52.585,700, 474, 500, 30, -1, -19, -11, 9, -1, 913, 909, 59,6
2025-03-18 11:42:52.642,1025, 741, 55, -50, 58, 55, -11, 10, -1, 964, 910, 66,6
2025-03-18 11:42:52.696,596, 769, 634, -49, 7, 12, -8, 9, -3, 958, 941, 58,6
2025-03-18 11:42:52.753,785, 722, 281, 43, -16, -23, -9, 9, 0, 898, 906, 62,6
2025-03-18 11:42:52.806,808, 587, 333, -37, 49, -35, -8, 7, 0, 856, 851, 75,6
2025-03-18 11:42:52.863,502, 636, 578, -12, 6, -6, -10, 11, -2, 850, 825, 41,6
2025-03-18 11:42:53.142,645, 641, 440, -6, -14, -1, -9, 10, -2, 802, 765, 72,7
2025-03-18 11:42:53.200,641, 643, 437, -3, -14, -1, -11, 10, -3, 805, 769, 71,7
2025-03-18 11:42:53.253,679, 588, 407, 1, -10, 1, -8, 6, 1, 825, 800, 62,7
2025-03-18 11:42:53.306,819, 453, 421, -3, -26, 8, -10, 11, -1, 902, 861, 73,7
2025-03-18 11:42:53.359,875, 934, 311, 13, 1, 21, -9, 8, 1, 958, 941, 57,7
2025-03-18 11:42:53.412,534, 396, 717, 8, 2, 3, -9, 8, 0, 965, 956, 131,7
2025-03-18 11:42:53.466,927, 973, 292, 9, 36, 37, -11, 11, -1, 970, 950, 69,7
2025-03-18 11:42:53.519,731, 543, 249, -30, 27, 21, -9, 11, 0, 964, 923, 72,7
2025-03-18 11:42:53.580,337, 728, 704, 17, -24, -53, -11, 8, -2, 933, 851, 179,7
2025-03-18 11:42:53.634,713, 404, 109, 14, -16, 1, -10, 9, -1, 969, 950, 150,7
2025-03-18 11:42:53.691,776, 451, 356, -12, 13, 9, -10, 11, 0, 957, 931, 406,7
2025-03-18 11:42:54.019,667, 607, 431, 6, -2, 10, -11, 11, -3, 911, 827, 279,8
2025-03-18 11:42:54.072,666, 596, 420, 7, -3, 9, -9, 10, -5, 912, 829, 288,8
2025-03-18 11:42:54.125,621, 633, 436, 7, -14, 7, -10, 8, 2, 920, 846, 100,8
2025-03-18 11:42:54.182,681, 672, 322, -19, -15, -18, -12, 10, -1, 935, 896, 70,8
2025-03-18 11:42:54.240,727, 432, 472, 1, 2, -16, -10, 10, -1, 948, 881, 52,8
2025-03-18 11:42:54.297,634, 545, 267, -26, 35, 56, -10, 11, 0, 971, 921, 64,8
2025-03-18 11:42:54.350,600, 495, 474, -15, 2, 6, -8, 10, 1, 969, 948, 36,8
2025-03-18 11:42:54.408,843, 716, 310, 31, -52, -40, -10, 11, -2, 956, 950, 69,8
2025-03-18 11:42:54.461,594, 629, 435, 10, -7, -1, -14, 10, 2, 971, 958, 54,8
2025-03-18 11:42:54.518,781, 666, 325, -10, 33, 27, -11, 9, 1, 974, 941, 31,8
2025-03-18 11:42:54.572,991, 309, 290, 13, 29, -55, -9, 10, 0, 925, 850, 81,8
2025-03-18 11:42:54.863,698, 604, 364, 3, -4, 4, -9, 10, 1, 910, 866, 63,9
2025-03-18 11:42:54.916,708, 612, 374, 2, -4, 4, -12, 11, -2, 912, 871, 53,9
2025-03-18 11:42:54.969,662, 576, 428, -1, -9, 6, -11, 11, 1, 917, 888, 86,9
2025-03-18 11:42:55.027,659, 627, 420, -10, -12, 0, -12, 11, -1, 925, 913, 55,9
2025-03-18 11:42:55.079,631, 466, 458, 5, -10, -17, -11, 9, 0, 940, 921, 68,9
2025-03-18 11:42:55.133,773, 791, 324, 33, 11, 2, -9, 9, 2, 961, 910, 64,9
2025-03-18 11:42:55.190,625, 473, 333, -30, 39, 39, -11, 9, 1, 967, 924, 53,9
2025-03-18 11:42:55.248,613, 473, 467, 17, -16, -20, -10, 11, -4, 944, 915, 259,9
2025-03-18 11:42:55.305,704, 522, 496, 41, -8, -10, -11, 10, 0, 941, 874, 346,9
2025-03-18 11:42:55.363,828, 500, 436, -22, 41, 33, -11, 11, -2, 967, 907, 49,9
2025-03-18 11:42:55.419,686, 427, 372, -32, 20, -8, -6, 11, -3, 941, 788, 41,9
2025-03-18 11:42:55.472,747, 685, 393, 4, 47, -60, -9, 9, -5, 695, 665, 71,9
2025-03-18 11:42:55.526,464, 708, 597, 4, -7, -11, -8, 7, -7, 598, 699, 68,9
2025-03-18 11:42:55.858,647, 641, 449, 2, -4, -1, -12, 10, -7, 720, 672, 39,+
2025-03-18 11:42:55.911,646, 636, 467, 1, -5, -2, -9, 6, -2, 725, 683, 54,+
2025-03-18 11:42:55.964,633, 646, 451, -1, -4, -1, -8, 11, -7, 713, 687, 34,+
2025-03-18 11:42:56.022,651, 641, 430, -3, -6, -2, -11, 9, -5, 726, 704, 57,+
2025-03-18 11:42:56.075,638, 646, 426, -1, -5, -1, -11, 9, -4, 748, 715, 65,+
2025-03-18 11:42:56.128,656, 629, 434, 2, -11, 2, -9, 9, -5, 778, 733, 36,+
2025-03-18 11:42:56.181,688, 633, 414, 1, -8, 3, -9, 8, 0, 848, 772, 68,+
2025-03-18 11:42:56.235,727, 669, 415, 0, -10, 8, -11, 9, -2, 895, 828, 66,+
2025-03-18 11:42:56.288,607, 641, 443, -3, -8, 15, -12, 6, 1, 923, 863, 162,+
2025-03-18 11:42:56.345,652, 625, 408, 5, -13, 10, -12, 10, -3, 929, 872, 83,+
2025-03-18 11:42:56.398,718, 610, 341, -1, -9, 3, -10, 10, -1, 929, 867, 55,+
2025-03-18 11:42:56.456,688, 635, 394, -13, -1, -9, -11, 10, 2, 931, 862, 45,+
2025-03-18 11:42:56.513,686, 625, 422, -12, -4, -5, -10, 9, 1, 932, 856, 52,+
2025-03-18 11:42:56.566,624, 649, 471, 4, -26, 7, -11, 9, -1, 934, 882, 62,+
2025-03-18 11:42:56.619,692, 699, 358, 9, -9, -6, -12, 9, 0, 954, 927, 40,+
2025-03-18 11:42:56.673,666, 706, 390, 34, 14, 16, -8, 8, 5, 969, 931, 61,+
2025-03-18 11:42:56.725,670, 541, 310, -15, 38, 29, -9, 10, 0, 971, 921, 68,+
2025-03-18 11:42:56.783,652, 253, 616, -27, -5, -29, -9, 9, -2, 946, 873, 72,+
2025-03-18 11:42:56.840,886, 691, 215, -40, -6, -17, -9, 8, -2, 949, 896, 39,+
2025-03-18 11:42:56.894,466, 575, 184, -17, 1, 30, -10, 9, 2, 971, 953, 58,+
2025-03-18 11:42:56.948,845, 506, 249, 0, 40, -27, -11, 10, 0, 948, 891, 369,+
2025-03-18 11:42:57.258,687, 638, 392, -9, 0, -4, -11, 10, -1, 820, 737, 55,-
2025-03-18 11:42:57.311,675, 630, 374, -9, -1, -4, -8, 6, 1, 820, 738, 66,-
2025-03-18 11:42:57.361,672, 619, 414, 2, -1, 0, -12, 8, 3, 817, 737, 44,-
2025-03-18 11:42:57.414,672, 624, 395, -2, 0, 0, -11, 9, -1, 825, 749, 72,-
2025-03-18 11:42:57.467,679, 632, 390, 0, 0, 0, -8, 9, -1, 846, 758, 54,-
2025-03-18 11:42:57.520,728, 638, 360, -7, 0, 8, -9, 10, -3, 881, 775, 38,-
2025-03-18 11:42:57.569,723, 616, 409, -8, -1, 4, -9, 8, 2, 919, 840, 71,-
2025-03-18 11:42:57.626,727, 606, 400, -9, -9, 3, -11, 10, 1, 940, 875, 56,-
2025-03-18 11:42:57.680,556, 639, 451, 9, -9, 12, -10, 6, 4, 951, 883, 340,-
2025-03-18 11:42:57.733,683, 625, 367, 11, -20, 16, -12, 9, 4, 953, 892, 433,-
2025-03-18 11:42:57.792,690, 596, 310, -1, -7, 14, -12, 10, 3, 960, 903, 387,-
2025-03-18 11:42:57.848,759, 541, 459, -2, -27, 13, -12, 7, 4, 965, 912, 53,-
2025-03-18 11:42:57.902,847, 518, 220, -11, 4, -1, -11, 11, 4, 969, 935, 64,-
2025-03-18 11:42:57.959,835, 569, 359, -5, -7, 43, -14, 11, 4, 976, 944, 121,-
2025-03-18 11:42:58.016,653, 500, 428, -11, -4, 18, -12, 12, 4, 979, 950, 144,-
2025-03-18 11:42:58.073,770, 539, 199, -45, 45, -52, -14, 11, 5, 966, 913, 49,-
2025-03-18 11:42:58.377,702, 654, 380, -2, 1, -2, -12, 8, 1, 918, 862, 399,÷
2025-03-18 11:42:58.434,698, 649, 385, -1, 1, 0, -11, 10, 2, 920, 861, 419,÷
2025-03-18 11:42:58.488,727, 610, 353, 1, 0, -2, -11, 8, 0, 922, 863, 451,÷
2025-03-18 11:42:58.541,704, 627, 373, -4, 1, -10, -11, 6, 5, 926, 862, 478,÷
2025-03-18 11:42:58.598,740, 616, 349, -13, 4, -21, -11, 9, 2, 925, 834, 430,÷
2025-03-18 11:42:58.655,714, 620, 397, -21, 11, -40, -13, 8, 2, 919, 796, 325,÷
2025-03-18 11:42:58.708,685, 644, 433, 0, -11, -58, -11, 4, 4, 913, 778, 336,÷
2025-03-18 11:42:58.766,597, 735, 461, -4, -32, -69, -13, 4, 4, 900, 731, 365,÷
2025-03-18 11:42:58.823,540, 805, 361, -4, -14, -35, -15, 2, 7, 908, 756, 346,÷
2025-03-18 11:42:58.876,368, 750, 300, -2, 9, 40, -13, 0, 8, 915, 769, 305,÷
2025-03-18 11:42:58.934,471, 592, 459, -3, 27, 130, -11, 4, 7, 919, 791, 262,÷
2025-03-18 11:42:58.991,724, 675, 298, 11, 25, 46, -14, 7, 4, 924, 820, 308,÷
2025-03-18 11:42:59.044,707, 585, 503, 20, -17, 36, -12, 9, 1, 928, 858, 375,÷
2025-03-18 11:42:59.101,854, 690, 191, -15, 13, -4, -12, 10, 3, 937, 873, 402,÷
2025-03-18 11:42:59.159,713, 571, 455, -3, 8, -4, -12, 11, 2, 943, 878, 370,÷
2025-03-18 11:42:59.212,589, 593, 436, -2, 1, 10, -11, 11, 1, 948, 878, 295,÷
2025-03-18 11:42:59.270,667, 1217, 546, -12, -10, 3, -9, 8, 5, 961, 931, 66,÷
2025-03-18 11:42:59.323,1024, 778, 187, 57, 38, 7, -13, 12, 1, 957, 866, 385,÷
2025-03-18 11:42:59.384,-72, 755, 1100, -29, 46, 53, -13, 11, -3, 952, 786, 73,÷
2025-03-18 11:42:59.442,767, 1100, 235, -78, -11, 15, -12, 11, -1, 960, 912, 53,÷
2025-03-18 11:42:59.498,803, 429, 432, 10, 2, -34, -11, 12, -2, 946, 865, 72,÷
2025-03-18 11:42:59.556,378, 704, 834, -8, -22, -19, -11, 10, -2, 932, 729, 63,÷
2025-03-18 11:42:59.613,898, 1075, 465, -19, -24, 15, -12, 12, -1, 966, 940, 71,÷
2025-03-18 11:42:59.671,620, 524, 290, -9, 15, 24, -12, 11, 1, 970, 951, 57,÷
2025-03-18 11:42:59.728,747, 472, 154, -14, 59, -64, -14, 10, 2, 942, 883, 289,÷
2025-03-18 11:43:00.019,653, 644, 486, 0, -1, 1, -11, 11, 0, 874, 718, 66,=
2025-03-18 11:43:00.073,661, 638, 472, 0, -2, 3, -14, 10, 0, 873, 721, 49,=
2025-03-18 11:43:00.127,667, 632, 455, 1, -7, 4, -12, 10, -2, 877, 719, 33,=
2025-03-18 11:43:00.183,700, 589, 412, -1, -11, 5, -14, 11, -2, 890, 756, 54,=
2025-03-18 11:43:00.237,712, 603, 385, 1, -2, -1, -10, 10, 0, 898, 782, 69,=
2025-03-18 11:43:00.290,683, 604, 420, -5, 1, -2, -13, 10, 0, 906, 797, 57,=
2025-03-18 11:43:00.347,694, 595, 433, -1, -5, 0, -10, 10, 0, 911, 812, 65,=
2025-03-18 11:43:00.396,710, 609, 395, -8, 0, 1, -14, 11, 0, 917, 822, 44,=
2025-03-18 11:43:00.454,683, 584, 456, -4, -3, 1, -12, 10, 1, 925, 844, 55,=
2025-03-18 11:43:00.506,713, 596, 417, -6, -1, 2, -13, 12, -1, 929, 851, 54,=
2025-03-18 11:43:00.559,673, 590, 450, 1, 0, -1, -13, 12, -1, 931, 858, 55,=
2025-03-18 11:43:00.613,657, 594, 438, 4, 5, 2, -14, 11, 0, 931, 836, 41,=
2025-03-18 11:43:00.667,753, 588, 340, -2, -4, -5, -10, 9, 3, 926, 840, 58,=
2025-03-18 11:43:00.724,685, 612, 435, -7, 6, -2, -12, 11, -2, 926, 829, 61,=
2025-03-18 11:43:00.777,705, 597, 407, 5, -3, 0, -12, 12, -1, 930, 837, 68,=
2025-03-18 11:43:00.830,696, 593, 422, 1, -1, -1, -13, 11, 0, 927, 828, 49,=
2025-03-18 11:43:00.883,692, 589, 431, 2, -2, 0, -12, 11, -1, 929, 824, 64,=
2025-03-18 11:43:00.941,707, 609, 403, -8, 1, -3, -11, 11, -2, 929, 847, 39,=
2025-03-18 11:43:00.994,656, 603, 461, 1, -1, 2, -12, 11, -2, 927, 847, 70,=
2025-03-18 11:43:01.046,733, 597, 372, -6, -2, -3, -10, 9, 3, 927, 846, 58,=
2025-03-18 11:43:01.100,698, 594, 451, -2, -2, 3, -13, 11, -1, 932, 853, 63,=
2025-03-18 11:43:01.158,735, 614, 379, -4, -1, -2, -10, 12, -2, 935, 865, 71,=
2025-03-18 11:43:01.215,700, 602, 412, -3, -1, -2, -14, 10, 2, 935, 872, 40,=
2025-03-18 11:43:01.268,684, 618, 439, -6, 0, 1, -13, 11, 1, 934, 879, 75,=
2025-03-18 11:43:01.321,696, 595, 394, -1, -1, 1, -10, 11, 3, 937, 879, 38,=
2025-03-18 11:43:01.375,708, 583, 410, -2, -2, 1, -13, 12, 1, 937, 881, 52,=
2025-03-18 11:43:01.428,702, 590, 413, -5, 1, -2, -9, 11, -1, 938, 882, 38,=
2025-03-18 11:43:01.481,710, 585, 406, -2, -1, 0, -14, 12, 0, 938, 885, 56,=
2025-03-18 11:43:01.534,671, 596, 440, -5, 1, -1, -9, 11, 3, 939, 885, 38,=
2025-03-18 11:43:01.592,581, 586, 469, -7, -13, 9, -12, 11, 2, 942, 893, 70,=
2025-03-18 11:43:01.649,886, 398, 289, -14, -13, -8, -11, 11, 3, 964, 924, 59,=
2025-03-18 11:43:01.702,699, 371, 203, 2, -2, 38, -9, 12, 3, 977, 957, 52,=
2025-03-18 11:43:01.756,662, 635, 495, 17, 2, 5, -12, 11, 4, 971, 941, 264,=
2025-03-18 11:43:01.813,586, 582, 491, -40, 45, -24, -10, 11, 1, 962, 899, 47,=
2025-03-18 11:43:01.866,868, 1053, 397, 7, -11, 10, -11, 12, 0, 970, 943, 61,=
2025-03-18 11:43:01.923,701, 511, 381, 20, -2, 17, -12, 12, 0, 976, 958, 59,=
2025-03-18 11:43:01.981,798, 411, 369, -1, 29, -40, -12, 12, 0, 953, 897, 192,=
2025-03-18 11:43:02.288,686, 606, 412, -17, -2, -3, -12, 11, -1, 907, 732, 67,≠
2025-03-18 11:43:02.346,694, 599, 418, -16, -2, -2, -12, 12, 3, 908, 740, 67,≠
2025-03-18 11:43:02.403,697, 581, 423, -1, -8, 1, -13, 13, -2, 917, 786, 63,≠
2025-03-18 11:43:02.457,708, 587, 409, -5, -1, 0, -11, 11, 1, 919, 815, 58,≠
2025-03-18 11:43:02.510,694, 603, 424, -3, -1, 0, -11, 11, 0, 922, 821, 71,≠
2025-03-18 11:43:02.564,702, 593, 418, 0, -1, -2, -14, 11, -1, 925, 825, 52,≠
2025-03-18 11:43:02.620,694, 586, 416, -4, 0, -2, -13, 12, 0, 926, 825, 63,≠
2025-03-18 11:43:02.674,648, 579, 461, 8, -6, -1, -12, 10, 0, 925, 816, 51,≠
2025-03-18 11:43:02.730,754, 617, 416, -10, -20, -2, -12, 11, 1, 936, 862, 70,≠
2025-03-18 11:43:02.788,1001, 815, 527, 40, -11, 14, -11, 11, 1, 960, 931, 72,≠
2025-03-18 11:43:02.841,633, 517, 495, 12, 7, 17, -11, 9, 5, 967, 943, 70,≠
2025-03-18 11:43:02.894,591, 577, 211, 19, 16, -5, -14, 11, 4, 955, 894, 141,≠
2025-03-18 11:43:02.956,583, 556, 658, -27, 22, -19, -11, 11, -2, 928, 305, 58,≠
2025-03-18 11:43:03.013,1044, 745, 179, -4, -14, 22, -10, 10, 2, 965, 929, 57,≠
2025-03-18 11:43:03.062,833, 689, 486, -9, 3, 25, -10, 9, 4, 967, 947, 51,≠
2025-03-18 11:43:03.124,715, 379, 181, -26, 17, -89, -12, 11, 0, 942, 902, 222,≠
2025-03-18 11:43:03.181,457, 580, 755, 16, -60, 28, -14, 11, -1, 947, 918, 400,≠
2025-03-18 11:43:03.234,693, 467, 257, 9, -6, -4, -13, 10, 2, 969, 938, 59,≠
2025-03-18 11:43:03.288,692, 861, 356, -48, 61, 51, -10, 9, 2, 970, 908, 39,≠
2025-03-18 11:43:03.345,944, 507, 315, -4, 30, -6, -12, 13, -2, 939, 814, 66,≠
2025-03-18 11:43:03.406,705, 700, 451, -42, 37, -52, -12, 13, -4, 886, 867, 307,≠
2025-03-18 11:43:03.653,673, 594, 460, -1, -5, 1, -9, 9, 1, 868, 729, 51,≈
2025-03-18 11:43:03.706,669, 585, 453, 1, -6, 1, -7, 11, -3, 866, 726, 35,≈
2025-03-18 11:43:03.759,690, 583, 432, 0, -8, 0, -11, 12, -1, 858, 725, 37,≈
2025-03-18 11:43:03.816,697, 577, 436, -1, -4, -2, -12, 11, -2, 863, 732, 53,≈
2025-03-18 11:43:03.869,682, 611, 449, -8, -1, -1, -11, 11, -2, 864, 725, 67,≈
2025-03-18 11:43:03.926,686, 613, 441, -7, -1, 2, -11, 14, -1, 869, 693, 42,≈
2025-03-18 11:43:03.980,673, 567, 461, -1, -4, 4, -13, 12, -3, 879, 715, 70,≈
2025-03-18 11:43:04.033,703, 580, 441, 4, -3, 5, -12, 11, 0, 885, 745, 56,≈
2025-03-18 11:43:04.086,703, 582, 425, 1, 0, 0, -12, 11, -1, 898, 759, 73,≈
2025-03-18 11:43:04.140,697, 594, 445, 2, 0, 0, -9, 11, -2, 902, 767, 34,≈
2025-03-18 11:43:04.193,692, 592, 436, 1, 0, -3, -12, 11, -1, 899, 771, 66,≈
2025-03-18 11:43:04.250,700, 584, 424, 2, -1, -3, -12, 12, -2, 896, 768, 47,≈
2025-03-18 11:43:04.303,708, 603, 414, -1, 1, -2, -13, 12, 0, 894, 770, 70,≈
2025-03-18 11:43:04.357,686, 608, 425, -1, 0, 0, -12, 11, 2, 903, 788, 45,≈
2025-03-18 11:43:04.410,684, 576, 445, 2, -2, -2, -11, 12, -1, 902, 801, 52,≈
2025-03-18 11:43:04.463,695, 597, 415, 0, -1, -3, -11, 11, 1, 902, 797, 42,≈
2025-03-18 11:43:04.521,693, 609, 416, -1, -1, -1, -13, 11, -4, 909, 802, 59,≈
2025-03-18 11:43:04.573,699, 601, 422, -2, 0, -2, -10, 11, -2, 908, 807, 59,≈
2025-03-18 11:43:04.631,682, 582, 444, -3, 0, -1, -11, 11, -2, 908, 804, 36,≈
2025-03-18 11:43:04.684,685, 598, 426, -1, 1, 1, -12, 11, -1, 909, 797, 68,≈
2025-03-18 11:43:04.738,692, 603, 416, -3, 0, 0, -14, 9, 1, 906, 795, 42,≈
2025-03-18 11:43:04.791,678, 585, 436, -1, -5, 3, -11, 11, -3, 911, 814, 71,≈
2025-03-18 11:43:04.848,709, 583, 379, -1, -1, -2, -11, 10, 3, 911, 812, 37,≈
2025-03-18 11:43:04.902,688, 607, 434, -2, 0, -1, -12, 11, -1, 913, 828, 53,≈
2025-03-18 11:43:04.958,666, 572, 473, -1, -6, 3, -11, 11, -1, 920, 853, 66,≈
2025-03-18 11:43:05.012,721, 619, 369, 0, -3, -6, -12, 11, 1, 927, 869, 56,≈
2025-03-18 11:43:05.065,704, 612, 414, 5, -1, -4, -11, 11, 1, 932, 867, 66,≈
2025-03-18 11:43:05.119,699, 599, 399, 0, 0, 0, -12, 11, -2, 928, 863, 51,≈
2025-03-18 11:43:05.172,705, 603, 400, 5, 1, -3, -11, 11, 0, 920, 823, 53,≈
2025-03-18 11:43:05.221,645, 623, 385, 0, 2, 0, -12, 11, 0, 919, 798, 71,≈
2025-03-18 11:43:05.278,653, 575, 376, -3, -6, 5, -8, 11, -1, 925, 853, 33,≈
2025-03-18 11:43:05.331,857, 463, 345, 25, -3, -6, -11, 10, 1, 940, 914, 59,≈
2025-03-18 11:43:05.384,603, 454, 303, 2, 3, 13, -11, 8, 3, 961, 941, 389,≈
2025-03-18 11:43:05.438,709, 713, 311, 8, -2, 7, -12, 11, 1, 968, 943, 370,≈
2025-03-18 11:43:05.495,709, 631, 299, -5, 9, 15, -10, 13, 2, 968, 943, 330,≈
2025-03-18 11:43:05.548,644, 524, 365, 5, 26, -16, -11, 10, 1, 956, 913, 462,≈
2025-03-18 11:43:05.606,750, 559, 469, -7, 3, 2, -12, 11, -1, 944, 835, 65,≈
2025-03-18 11:43:05.659,807, 582, 283, -1, 5, -5, -6, 11, -2, 940, 854, 50,≈
2025-03-18 11:43:05.712,576, 622, 480, 1, -1, 3, -11, 11, -1, 942, 874, 76,≈
2025-03-18 11:43:05.761,828, 536, 245, 0, 1, -3, -8, 8, 3, 952, 917, 46,≈
2025-03-18 11:43:05.818,728, 547, 481, -3, -8, 17, -12, 11, 0, 969, 947, 248,≈
2025-03-18 11:43:05.876,766, 640, 265, 14, 1, 10, -10, 12, 1, 972, 944, 239,≈
2025-03-18 11:43:05.934,749, 538, 411, -15, 14, -11, -11, 11, 1, 962, 923, 324,≈
2025-03-18 11:43:05.991,665, 607, 478, -31, 26, -29, -12, 11, 0, 934, 853, 275,≈
2025-03-18 11:43:06.258,697, 605, 408, -5, -3, -1, -12, 11, -2, 913, 772, 60,<
2025-03-18 11:43:06.310,693, 601, 415, -4, -3, 0, -10, 10, -2, 913, 778, 56,<
2025-03-18 11:43:06.368,700, 598, 413, -3, -5, -5, -10, 11, 0, 919, 809, 59,<
2025-03-18 11:43:06.421,724, 591, 412, -2, -5, -15, -11, 11, 1, 919, 810, 57,<
2025-03-18 11:43:06.479,720, 603, 447, 1, -14, -35, -13, 12, 1, 917, 781, 56,<
2025-03-18 11:43:06.536,603, 722, 375, 3, -28, -26, -12, 9, 5, 914, 758, 59,<
2025-03-18 11:43:06.590,594, 701, 358, 17, -34, 23, -11, 5, 8, 924, 803, 39,<
2025-03-18 11:43:06.642,794, 639, 339, 4, 7, 25, -12, 8, 8, 931, 829, 67,<
2025-03-18 11:43:06.695,698, 597, 306, -10, 7, 15, -12, 8, 6, 937, 853, 56,<
2025-03-18 11:43:06.749,712, 590, 394, -11, 3, 6, -12, 9, 5, 946, 872, 71,<
2025-03-18 11:43:06.802,763, 584, 361, -3, 0, 9, -14, 9, 4, 950, 887, 55,<
2025-03-18 11:43:06.856,691, 573, 387, -13, -3, 7, -12, 5, 9, 956, 914, 53,<
2025-03-18 11:43:06.909,736, 579, 350, -16, -5, -1, -13, 10, 7, 964, 934, 62,<
2025-03-18 11:43:06.966,562, 607, 452, 27, 7, -3, -13, 11, 6, 970, 922, 58,<
2025-03-18 11:43:07.019,694, 496, 261, -5, 33, 22, -11, 11, 3, 967, 895, 43,<
2025-03-18 11:43:07.076,466, 472, 290, -40, 8, 36, -12, 12, 3, 977, 958, 55,<
2025-03-18 11:43:07.129,707, 539, 540, 26, 13, 11, -11, 10, 6, 968, 946, 54,<
2025-03-18 11:43:07.187,673, 522, 355, -12, 62, -59, -11, 12, 0, 937, 867, 76,<
2025-03-18 11:43:07.454,617, 647, 480, 2, -17, 4, -13, 9, 3, 936, 855, 61,≤
2025-03-18 11:43:07.506,600, 632, 488, 4, -19, 7, -12, 8, 1, 938, 860, 70,≤
2025-03-18 11:43:07.564,635, 649, 396, 17, -23, 26, -13, 9, 4, 945, 868, 55,≤
2025-03-18 11:43:07.617,804, 606, 260, 4, -10, 6, -9, 10, 3, 949, 873, 46,≤
2025-03-18 11:43:07.670,711, 586, 385, -10, -1, -2, -12, 11, 4, 950, 887, 55,≤
2025-03-18 11:43:07.728,660, 634, 458, -1, -14, 10, -11, 9, 6, 958, 910, 59,≤
2025-03-18 11:43:07.781,636, 574, 404, 8, -1, -3, -14, 12, 5, 964, 919, 60,≤
2025-03-18 11:43:07.838,997, 556, 397, -11, 27, 14, -11, 11, 4, 965, 885, 61,≤
2025-03-18 11:43:07.892,803, 737, 304, -60, 13, 33, -11, 9, 6, 972, 936, 46,≤
2025-03-18 11:43:07.945,659, 580, 525, 18, 4, 13, -12, 12, 2, 968, 926, 72,≤
2025-03-18 11:43:08.002,620, 563, 244, 21, 51, -9, -10, 11, 5, 954, 820, 66,≤
2025-03-18 11:43:08.055,723, 503, 538, 6, -23, 17, -11, 11, 1, 959, 855, 58,≤
2025-03-18 11:43:08.109,668, 425, 313, -3, 1, 25, -12, 12, 1, 973, 950, 57,≤
2025-03-18 11:43:08.162,776, 508, 508, 22, 7, 0, -12, 13, 0, 960, 898, 46,≤
2025-03-18 11:43:08.465,707, 609, 406, -7, -10, 5, -12, 12, -1, 923, 873, 72,>
2025-03-18 11:43:08.522,697, 582, 410, -10, -11, 3, -8, 12, 3, 925, 879, 70,>
2025-03-18 11:43:08.575,705, 577, 425, -4, -6, 2, -13, 11, 1, 934, 889, 56,>
2025-03-18 11:43:08.628,696, 614, 412, -9, -4, 0, -12, 11, 2, 945, 900, 72,>
2025-03-18 11:43:08.686,685, 550, 473, -3, -18, 8, -13, 11, 6, 954, 913, 57,>
2025-03-18 11:43:08.740,819, 400, 255, 2, -5, -2, -13, 12, 2, 967, 936, 61,>
2025-03-18 11:43:08.793,788, 590, 384, 10, 3, 23, -12, 12, 2, 974, 942, 57,>
2025-03-18 11:43:08.845,622, 604, 341, 28, 7, 3, -13, 12, 4, 974, 937, 74,>
2025-03-18 11:43:08.899,975, 525, 147, -8, 38, 4, -10, 11, 4, 974, 928, 46,>
2025-03-18 11:43:08.956,792, 371, 388, -9, 41, -44, -12, 13, -1, 953, 917, 63,>
2025-03-18 11:43:09.252,686, 593, 441, 5, -6, 6, -14, 13, -1, 933, 878, 63,≥
2025-03-18 11:43:09.305,688, 606, 437, 3, -7, 7, -13, 12, 3, 934, 881, 74,≥
2025-03-18 11:43:09.358,704, 584, 430, 1, -7, 1, -14, 12, 0, 938, 887, 55,≥
2025-03-18 11:43:09.410,671, 556, 482, 4, -25, 6, -14, 14, 0, 941, 893, 53,≥
2025-03-18 11:43:09.468,808, 713, 345, -13, -7, -5, -12, 11, 3, 955, 917, 61,≥
2025-03-18 11:43:09.522,707, 476, 365, 4, 2, 20, -13, 12, 3, 965, 937, 74,≥
2025-03-18 11:43:09.574,615, 491, 623, 18, -8, 1, -13, 11, 5, 971, 932, 43,≥
2025-03-18 11:43:09.628,533, 777, 107, 6, 22, 6, -12, 11, 4, 972, 926, 55,≥
2025-03-18 11:43:09.681,959, 332, 379, -26, 53, 5, -15, 12, 0, 960, 899, 61,≥
2025-03-18 11:43:09.739,281, 721, 896, -8, -3, 22, -12, 14, -3, 957, 885, 60,≥
2025-03-18 11:43:09.796,902, 426, 51, -29, -15, 15, -11, 11, 3, 972, 947, 68,≥
2025-03-18 11:43:09.849,623, 445, 440, 25, 1, 19, -11, 15, 2, 970, 938, 43,≥
2025-03-18 11:43:09.906,726, 483, 211, -5, 51, -58, -12, 12, 1, 945, 866, 59,≥
2025-03-18 11:43:10.205,707, 678, 432, -19, 19, -75, -14, 7, 0, 723, 569, 243,±
2025-03-18 11:43:10.263,631, 739, 435, -26, 25, -72, -11, 5, 1, 726, 597, 255,±
2025-03-18 11:43:10.320,458, 699, 544, -19, 25, -55, -14, 5, -2, 741, 708, 404,±
2025-03-18 11:43:10.373,240, 739, 645, 1, 1, 27, -14, 4, 1, 824, 766, 320,±
2025-03-18 11:43:10.431,329, 645, 491, 26, -45, 97, -16, 5, 1, 827, 727, 40,±
2025-03-18 11:43:10.484,633, 576, 391, 42, -34, 91, -15, 8, 1, 789, 685, 92,±
2025-03-18 11:43:10.541,918, 577, 430, 21, -21, 24, -13, 11, 0, 785, 675, 273,±
2025-03-18 11:43:10.598,672, 560, 388, -24, 15, -4, -13, 8, 2, 832, 714, 210,±
2025-03-18 11:43:10.652,627, 600, 511, 3, -13, 9, -13, 11, 0, 859, 747, 212,±
2025-03-18 11:43:10.709,762, 625, 386, -2, -9, 8, -11, 11, 1, 877, 767, 242,±
2025-03-18 11:43:10.762,640, 579, 453, -8, 4, 0, -11, 7, 6, 889, 775, 198,±
2025-03-18 11:43:10.816,754, 587, 387, -5, -5, -6, -14, 11, 0, 893, 792, 271,±
2025-03-18 11:43:10.873,605, 626, 503, -2, 0, -2, -14, 11, 0, 905, 818, 192,±
2025-03-18 11:43:10.926,660, 527, 472, 2, -23, 8, -14, 12, 2, 920, 842, 51,±
2025-03-18 11:43:10.983,787, 569, 257, -13, -14, -7, -13, 11, 2, 957, 918, 68,±
2025-03-18 11:43:11.037,500, 587, 481, 0, 8, 31, -12, 10, 4, 965, 944, 78,±
2025-03-18 11:43:11.090,681, 351, 403, -8, 7, -27, -14, 11, 3, 943, 899, 386,±
2025-03-18 11:43:11.148,793, 437, 587, 1, -25, 8, -13, 11, 3, 955, 908, 362,±
2025-03-18 11:43:11.204,792, 889, 270, -2, 48, 67, -11, 12, -1, 971, 927, 48,±
2025-03-18 11:43:11.262,623, 416, 435, -10, 40, -23, -12, 13, 0, 949, 830, 91,±
2025-03-18 11:43:11.315,740, 151, 442, 34, -1, -17, -12, 13, -2, 956, 908, 71,±
2025-03-18 11:43:11.373,881, 429, 457, 14, -5, 35, -14, 13, -1, 972, 952, 65,±
2025-03-18 11:43:11.430,806, 401, 217, -29, 70, -65, -10, 12, 0, 938, 863, 174,±
2025-03-18 11:43:11.725,671, 578, 453, -2, -6, 8, -12, 12, -1, 922, 795, 58,∓
2025-03-18 11:43:11.778,684, 564, 463, 4, -8, 9, -10, 13, 2, 925, 804, 46,∓
2025-03-18 11:43:11.832,681, 571, 453, 2, -1, 3, -13, 13, -1, 927, 837, 243,∓
2025-03-18 11:43:11.888,720, 561, 416, 0, -5, -1, -12, 11, -1, 929, 853, 285,∓
2025-03-18 11:43:11.946,679, 580, 455, -6, 0, -6, -14, 14, -1, 926, 849, 213,∓
2025-03-18 11:43:11.999,655, 573, 459, -7, -1, -7, -15, 13, 0, 926, 788, 73,∓
2025-03-18 11:43:12.053,666, 496, 526, 8, -25, 9, -12, 11, 0, 940, 850, 49,∓
2025-03-18 11:43:12.110,721, 922, 241, -24, -13, 33, -12, 12, 3, 971, 950, 58,∓
2025-03-18 11:43:12.168,638, 642, 529, 16, -3, 12, -13, 11, 2, 971, 948, 61,∓
2025-03-18 11:43:12.224,713, 361, 288, -5, 21, -53, -11, 13, 0, 948, 888, 244,∓
2025-03-18 11:43:12.282,648, 659, 661, -3, -25, 11, -11, 13, -1, 935, 891, 296,∓
2025-03-18 11:43:12.339,756, 748, 399, 11, -7, -7, -15, 12, 0, 954, 919, 285,∓
2025-03-18 11:43:12.392,706, 591, 473, -5, 4, 0, -15, 11, 0, 960, 933, 59,∓
2025-03-18 11:43:12.446,712, 579, 397, -4, 2, 1, -16, 11, 1, 964, 936, 55,∓
2025-03-18 11:43:12.499,715, 575, 424, -1, 3, 0, -14, 13, 1, 960, 939, 105,∓
2025-03-18 11:43:12.553,723, 593, 397, 3, -1, 2, -14, 12, 3, 953, 920, 322,∓
2025-03-18 11:43:12.609,704, 598, 350, -5, 14, -4, -14, 12, 2, 951, 899, 366,∓
2025-03-18 11:43:12.663,650, 605, 465, -6, 2, 1, -13, 11, 2, 948, 887, 207,∓
2025-03-18 11:43:12.720,712, 551, 406, -5, -1, -4, -15, 12, -1, 949, 891, 84,∓
2025-03-18 11:43:12.773,716, 584, 409, 1, -1, 0, -14, 12, -2, 948, 887, 71,∓
2025-03-18 11:43:12.827,715, 590, 417, -5, 1, -1, -10, 10, 1, 947, 886, 59,∓
2025-03-18 11:43:12.880,707, 544, 458, 1, -1, -2, -14, 12, 1, 947, 888, 72,∓
2025-03-18 11:43:12.933,701, 591, 421, -4, 2, 0, -13, 12, 1, 950, 884, 53,∓
2025-03-18 11:43:12.987,693, 591, 432, 1, 3, 3, -14, 12, 1, 948, 878, 76,∓
2025-03-18 11:43:13.035,703, 577, 422, 1, 1, 2, -14, 13, 0, 948, 873, 92,∓
2025-03-18 11:43:13.089,704, 588, 413, 2, 3, 5, -13, 11, 1, 949, 874, 166,∓
2025-03-18 11:43:13.146,692, 599, 435, -2, 4, 6, -13, 11, 1, 949, 872, 198,∓
2025-03-18 11:43:13.199,701, 549, 388, 1, -3, 1, -12, 11, -1, 951, 871, 59,∓
2025-03-18 11:43:13.252,703, 566, 433, -2, 0, -3, -13, 13, -1, 950, 875, 142,∓
2025-03-18 11:43:13.306,704, 588, 415, 0, 2, 3, -12, 11, 0, 952, 873, 53,∓
2025-03-18 11:43:13.359,713, 577, 440, -2, 2, -3, -14, 14, 0, 951, 870, 95,∓
2025-03-18 11:43:13.412,718, 568, 423, -1, 1, 1, -14, 13, 1, 951, 858, 45,∓
2025-03-18 11:43:13.466,708, 565, 442, -2, 0, 0, -13, 12, 1, 951, 850, 55,∓
2025-03-18 11:43:13.519,698, 573, 429, -2, 2, -2, -14, 13, 0, 949, 833, 58,∓
2025-03-18 11:43:13.576,674, 584, 451, -4, -1, 0, -13, 14, -1, 947, 797, 64,∓
2025-03-18 11:43:13.633,814, 592, 421, -21, -8, -5, -14, 14, 0, 958, 883, 55,∓
2025-03-18 11:43:13.687,747, 662, 260, -27, -1, 37, -12, 11, 2, 971, 950, 64,∓
2025-03-18 11:43:13.740,664, 555, 472, 12, 4, 9, -14, 13, 2, 963, 924, 86,∓
2025-03-18 11:43:13.797,556, 645, 567, -18, 6, -29, -12, 13, 0, 951, 877, 51,∓
2025-03-18 11:43:13.854,742, 796, 208, -11, -2, 21, -13, 13, 1, 972, 932, 61,∓
2025-03-18 11:43:13.908,786, 499, 416, -16, 30, 24, -12, 13, 1, 965, 906, 71,∓
2025-03-18 11:43:13.965,668, 597, 414, -7, 47, -72, -11, 13, -2, 904, 741, 198,∓
2025-03-18 11:43:14.236,678, 582, 468, -5, 0, -3, -14, 13, -2, 852, 631, 42,∞
2025-03-18 11:43:14.292,686, 583, 468, -3, -2, -2, -16, 13, 1, 854, 638, 63,∞
2025-03-18 11:43:14.346,666, 572, 467, 0, -3, 1, -15, 14, -4, 857, 669, 66,∞
2025-03-18 11:43:14.399,695, 581, 449, 0, -5, 1, -13, 14, -4, 857, 698, 66,∞
2025-03-18 11:43:14.456,700, 572, 432, -4, -1, 1, -14, 14, -3, 861, 706, 64,∞
2025-03-18 11:43:14.510,680, 588, 459, -4, -1, 0, -12, 12, 0, 868, 712, 47,∞
2025-03-18 11:43:14.568,688, 580, 448, -4, -2, -1, -12, 11, -1, 879, 725, 69,∞
2025-03-18 11:43:14.621,679, 577, 461, -3, -2, 0, -13, 13, 1, 886, 733, 48,∞
2025-03-18 11:43:14.674,685, 574, 464, 1, -7, 0, -14, 13, -2, 884, 723, 49,∞
2025-03-18 11:43:14.727,695, 570, 419, 0, -3, -4, -11, 10, 4, 875, 714, 51,∞
2025-03-18 11:43:14.780,709, 584, 414, 0, -1, -1, -14, 13, 1, 876, 730, 54,∞
2025-03-18 11:43:14.838,682, 592, 455, -3, -2, -1, -10, 11, 1, 874, 743, 54,∞
2025-03-18 11:43:14.891,723, 576, 409, -3, -1, -1, -13, 12, 0, 884, 761, 47,∞
2025-03-18 11:43:14.944,716, 570, 436, 2, -6, 0, -14, 13, 0, 892, 820, 76,∞
2025-03-18 11:43:15.002,666, 547, 430, 14, -10, 14, -14, 12, 0, 915, 875, 263,∞
2025-03-18 11:43:15.058,626, 584, 484, -10, -14, 10, -14, 12, 1, 941, 903, 230,∞
2025-03-18 11:43:15.112,641, 528, 408, 10, 8, 8, -14, 13, 1, 968, 920, 65,∞
2025-03-18 11:43:15.169,618, 755, 330, -29, 26, 20, -12, 12, 1, 967, 913, 45,∞
2025-03-18 11:43:15.223,854, 124, 410, 3, 23, -18, -12, 16, 0, 940, 893, 71,∞
2025-03-18 11:43:15.284,762, 732, 493, -17, -32, 19, -12, 14, -2, 964, 945, 59,∞
2025-03-18 11:43:15.338,654, 570, 416, -19, -9, -2, -15, 15, 1, 971, 953, 56,∞
2025-03-18 11:43:15.399,683, 624, 598, 12, -12, -12, -11, 15, -1, 966, 950, 43,∞
2025-03-18 11:43:15.452,1149, 371, 562, 33, 43, 32, -10, 14, 2, 975, 943, 36,∞
2025-03-18 11:43:15.509,789, 494, 233, -29, 28, 0, -12, 11, 0, 964, 906, 76,∞
2025-03-18 11:43:15.567,956, 377, 512, 28, 14, -60, -12, 13, -2, 883, 808, 65,∞
2025-03-18 11:43:15.624,537, 601, 648, -18, 23, -32, -12, 13, -3, 853, 837, 55,∞
2025-03-18 11:43:15.854,700, 579, 446, 1, -3, 0, -11, 11, 1, 835, 686, 61,∑
2025-03-18 11:43:15.908,684, 584, 456, 2, -2, 0, -10, 11, 3, 834, 688, 54,∑
2025-03-18 11:43:15.960,670, 594, 472, 2, -3, 1, -12, 12, 0, 835, 716, 71,∑
2025-03-18 11:43:16.017,685, 575, 458, 4, -10, 0, -13, 14, -2, 828, 711, 58,∑
2025-03-18 11:43:16.070,730, 554, 415, 2, -6, -4, -12, 11, -1, 826, 705, 72,∑
2025-03-18 11:43:16.128,689, 584, 454, -10, 1, -6, -12, 12, -1, 835, 683, 49,∑
2025-03-18 11:43:16.181,675, 581, 479, -5, 0, -1, -11, 13, -1, 855, 684, 68,∑
2025-03-18 11:43:16.235,697, 574, 454, 5, -6, 2, -14, 14, -1, 867, 707, 72,∑
2025-03-18 11:43:16.288,705, 576, 429, 2, -4, 2, -13, 12, 0, 880, 740, 73,∑
2025-03-18 11:43:16.345,691, 595, 442, -4, -2, -2, -12, 12, 0, 883, 754, 52,∑
2025-03-18 11:43:16.398,705, 583, 432, -2, 0, 0, -13, 14, 0, 890, 763, 68,∑
2025-03-18 11:43:16.456,731, 580, 431, -3, -5, -3, -14, 13, -1, 890, 777, 51,∑
2025-03-18 11:43:16.509,677, 608, 475, -13, 4, -9, -14, 15, -2, 895, 787, 53,∑
2025-03-18 11:43:16.562,634, 591, 502, 3, -6, -2, -12, 13, 1, 902, 755, 64,∑
2025-03-18 11:43:16.619,703, 532, 408, 26, -19, -1, -11, 9, 4, 904, 790, 55,∑
2025-03-18 11:43:16.676,997, 982, 277, -11, -27, 47, -13, 12, 2, 963, 940, 68,∑
2025-03-18 11:43:16.730,632, 510, 542, 24, 2, 13, -13, 12, 1, 963, 934, 64,∑
2025-03-18 11:43:16.787,641, 544, 387, 6, 28, -26, -14, 11, 4, 937, 857, 170,∑
2025-03-18 11:43:16.841,906, 228, 221, 36, -7, -23, -13, 12, 0, 946, 866, 41,∑
2025-03-18 11:43:16.898,875, 697, 319, -12, 3, 27, -13, 12, 1, 970, 938, 73,∑
2025-03-18 11:43:16.952,624, 752, 518, 8, 14, 12, -12, 13, 0, 967, 924, 53,∑
2025-03-18 11:43:17.009,1188, 345, 530, -15, 18, -7, -12, 12, -1, 952, 758, 63,∑
2025-03-18 11:43:17.067,809, 327, 243, -17, 10, 37, -11, 13, -1, 969, 946, 58,∑
2025-03-18 11:43:17.119,739, 514, 460, 14, 2, 4, -12, 14, -2, 954, 925, 62,∑
2025-03-18 11:43:17.435,707, 598, 434, -3, -2, -4, -12, 11, 1, 893, 737, 75,∏
2025-03-18 11:43:17.488,694, 613, 449, -4, -2, -1, -9, 11, 3, 896, 738, 63,∏
2025-03-18 11:43:17.540,676, 590, 472, 1, -9, 5, -13, 11, -1, 904, 722, 55,∏
2025-03-18 11:43:17.598,702, 585, 421, 2, -11, 6, -15, 11, 1, 916, 758, 51,∏
2025-03-18 11:43:17.651,699, 579, 416, -1, -9, 4, -12, 11, 1, 926, 785, 60,∏
2025-03-18 11:43:17.705,731, 594, 372, -3, 2, -1, -11, 10, 4, 928, 797, 54,∏
2025-03-18 11:43:17.758,702, 579, 416, -3, 0, -1, -13, 11, 2, 931, 814, 64,∏
2025-03-18 11:43:17.815,700, 577, 429, -2, -2, -2, -10, 10, 5, 931, 826, 72,∏
2025-03-18 11:43:17.868,709, 566, 431, -2, -1, 1, -11, 11, 3, 933, 829, 52,∏
2025-03-18 11:43:17.922,725, 575, 399, -4, -1, -1, -13, 11, 2, 936, 836, 59,∏
2025-03-18 11:43:17.975,718, 561, 422, -3, -2, 0, -11, 8, 5, 937, 846, 34,∏
2025-03-18 11:43:18.029,700, 576, 409, -4, 1, -3, -13, 12, 3, 938, 854, 65,∏
2025-03-18 11:43:18.086,702, 568, 419, -2, -2, -3, -12, 11, 3, 936, 857, 58,∏
2025-03-18 11:43:18.139,643, 605, 435, -5, 1, -8, -13, 12, 0, 932, 824, 57,∏
2025-03-18 11:43:18.192,667, 607, 469, -1, -12, 0, -13, 12, 2, 930, 804, 41,∏
2025-03-18 11:43:18.254,835, 1010, 519, -10, -29, 28, -11, 11, 4, 966, 943, 58,∏
2025-03-18 11:43:18.306,666, 542, 451, 6, -2, 21, -11, 11, 5, 969, 942, 71,∏
2025-03-18 11:43:18.361,594, 416, 278, 6, 18, -23, -10, 12, 6, 955, 898, 55,∏
2025-03-18 11:43:18.418,960, 707, 541, 21, 3, -3, -14, 12, 0, 935, 861, 151,∏
2025-03-18 11:43:18.471,645, 430, 420, 1, 2, 12, -12, 11, 3, 967, 927, 55,∏
2025-03-18 11:43:18.524,571, 664, 111, -17, 39, 21, -11, 12, 3, 970, 921, 71,∏
2025-03-18 11:43:18.582,861, 678, 457, -2, 13, 16, -12, 15, 0, 949, 885, 53,∏
2025-03-18 11:43:18.639,615, 661, 547, -21, -11, -20, -12, 11, 2, 930, 899, 214,∏
2025-03-18 11:43:18.696,684, 608, 471, -4, -18, 6, -11, 13, 2, 940, 920, 160,∏
2025-03-18 11:43:18.753,747, 456, 435, -20, -3, -4, -14, 13, 1, 963, 940, 58,∏
2025-03-18 11:43:18.806,477, 590, 351, 15, 31, 43, -12, 13, 1, 977, 945, 66,∏
2025-03-18 11:43:18.864,794, 562, 354, -9, 31, 21, -11, 13, 1, 971, 938, 71,∏
2025-03-18 11:43:18.922,896, 422, 291, 41, 19, -75, -11, 16, -3, 912, 884, 207,∏
2025-03-18 11:43:18.978,505, 555, 666, -23, 22, -43, -12, 13, -3, 874, 873, 182,∏
2025-03-18 11:43:19.261,647, 575, 495, 3, -6, 0, -14, 13, 0, 860, 744, 65,√
2025-03-18 11:43:19.314,654, 591, 510, 5, -7, 1, -11, 11, 1, 861, 750, 52,√
2025-03-18 11:43:19.368,684, 570, 434, 4, -13, 2, -9, 10, 3, 874, 773, 39,√
2025-03-18 11:43:19.422,702, 592, 418, 4, -9, 2, -13, 13, 0, 885, 788, 70,√
2025-03-18 11:43:19.475,705, 602, 421, 0, -5, 0, -15, 13, 1, 892, 794, 41,√
2025-03-18 11:43:19.528,694, 576, 452, 2, -2, -4, -14, 12, 1, 896, 800, 64,√
2025-03-18 11:43:19.582,686, 609, 440, -1, -2, 0, -14, 12, 0, 901, 802, 60,√
2025-03-18 11:43:19.634,686, 603, 443, -3, 1, 3, -14, 12, 2, 911, 809, 74,√
2025-03-18 11:43:19.688,686, 581, 445, -2, -4, 4, -13, 11, 2, 917, 809, 59,√
2025-03-18 11:43:19.745,708, 575, 423, -2, -3, 4, -13, 11, 1, 919, 807, 51,√
2025-03-18 11:43:19.798,701, 561, 418, 0, -1, -1, -14, 13, 0, 918, 792, 45,√
2025-03-18 11:43:19.851,686, 591, 439, -4, -1, 3, -15, 14, 1, 922, 801, 54,√
2025-03-18 11:43:19.904,725, 574, 414, 0, -2, -1, -13, 13, 1, 924, 808, 49,√
2025-03-18 11:43:19.958,680, 578, 449, -5, 0, -3, -14, 12, 0, 923, 822, 60,√
2025-03-18 11:43:20.011,696, 578, 447, 0, 1, 0, -14, 13, 0, 923, 821, 41,√
2025-03-18 11:43:20.065,743, 565, 420, 4, 2, -1, -13, 11, 2, 919, 805, 51,√
2025-03-18 11:43:20.122,638, 588, 455, -3, 16, -1, -13, 13, -2, 909, 745, 72,√
2025-03-18 11:43:20.175,672, 531, 426, 7, -6, -3, -12, 13, -1, 905, 738, 58,√
2025-03-18 11:43:20.232,785, 809, 384, 18, 1, -2, -12, 11, -2, 941, 904, 57,√
2025-03-18 11:43:20.285,497, 460, 458, -4, 11, 21, -13, 12, 1, 962, 924, 58,√
2025-03-18 11:43:20.339,453, 615, 258, -5, 29, 42, -11, 12, 0, 969, 917, 50,√
2025-03-18 11:43:20.396,831, 553, 632, -57, -10, 9, -14, 16, -1, 960, 932, 55,√
2025-03-18 11:43:20.458,668, 777, 615, -18, -26, -13, -14, 14, 0, 956, 941, 64,√
2025-03-18 11:43:20.511,773, 568, 208, 1, -13, 16, -14, 13, 4, 969, 954, 69,√
2025-03-18 11:43:20.564,833, 398, 308, 9, 11, -29, -13, 12, 4, 949, 928, 62,√
2025-03-18 11:43:20.621,579, 585, 565, -24, 49, -39, -15, 13, 1, 925, 858, 50,√
2025-03-18 11:43:20.875,725, 573, 400, -4, -5, -1, -15, 12, 1, 836, 714, 54,∛
2025-03-18 11:43:20.928,708, 566, 399, -3, -3, -1, -12, 11, 1, 838, 718, 58,∛
2025-03-18 11:43:20.982,681, 601, 431, -2, -4, 1, -13, 11, 3, 848, 732, 53,∛
2025-03-18 11:43:21.035,707, 582, 384, -3, -5, 3, -15, 13, 2, 871, 759, 70,∛
2025-03-18 11:43:21.089,704, 585, 418, -8, 0, 1, -13, 11, 4, 880, 796, 50,∛
2025-03-18 11:43:21.146,698, 572, 438, -3, -1, 1, -14, 13, 3, 890, 820, 54,∛
2025-03-18 11:43:21.199,722, 575, 418, -1, 1, 0, -15, 12, 2, 900, 817, 42,∛
2025-03-18 11:43:21.248,667, 565, 420, -4, 4, 1, -13, 11, 1, 905, 782, 71,∛
2025-03-18 11:43:21.301,651, 604, 423, 6, 8, 5, -13, 13, 3, 905, 751, 56,∛
2025-03-18 11:43:21.359,730, 580, 358, -12, -7, 4, -11, 10, 1, 913, 809, 47,∛
2025-03-18 11:43:21.412,837, 642, 555, 11, -9, 13, -11, 13, -1, 945, 922, 72,∛
2025-03-18 11:43:21.469,533, 798, 569, 4, 23, 37, -13, 12, 0, 962, 927, 67,∛
2025-03-18 11:43:21.522,623, 697, 172, -39, 16, 20, -13, 14, -2, 970, 926, 45,∛
2025-03-18 11:43:21.583,777, 201, 534, -9, -29, -31, -13, 16, -2, 951, 936, 61,∛
2025-03-18 11:43:21.637,757, 557, 604, 20, -24, 3, -15, 15, 1, 963, 952, 70,∛
2025-03-18 11:43:21.690,660, 592, 390, 19, 2, 6, -14, 12, 4, 960, 926, 247,∛
2025-03-18 11:43:21.751,573, 532, 354, -19, 17, -59, -14, 12, 4, 942, 898, 214,∛
2025-03-18 11:43:21.805,645, 638, 658, 6, -34, -2, -13, 11, 2, 937, 886, 56,∛
2025-03-18 11:43:21.858,726, 835, 212, 1, -13, -8, -15, 11, 4, 960, 938, 64,∛
2025-03-18 11:43:21.915,578, 622, 476, 4, 10, 12, -14, 11, 6, 968, 942, 255,∛
2025-03-18 11:43:21.968,736, 488, 349, 4, 9, 6, -13, 11, 3, 968, 937, 189,∛
2025-03-18 11:43:22.022,736, 648, 426, -7, 15, 5, -8, 11, 5, 972, 939, 46,∛
2025-03-18 11:43:22.075,821, 346, 511, 8, 10, 2, -13, 14, 2, 963, 907, 55,∛
2025-03-18 11:43:22.133,898, 490, 276, -13, 46, -45, -12, 11, 1, 909, 856, 60,∛
2025-03-18 11:43:22.432,666, 594, 446, 4, 2, 3, -13, 10, 4, 865, 675, 41,∜
2025-03-18 11:43:22.486,663, 596, 456, 5, 2, 4, -13, 10, 4, 865, 678, 57,∜
2025-03-18 11:43:22.538,691, 589, 424, 5, -1, 3, -14, 12, 0, 859, 658, 67,∜
2025-03-18 11:43:22.588,696, 574, 419, 2, -1, 1, -13, 11, 2, 859, 601, 38,∜
2025-03-18 11:43:22.640,706, 605, 428, 4, 2, 1, -14, 12, 0, 858, 608, 69,∜
2025-03-18 11:43:22.694,694, 599, 423, 0, 0, 1, -15, 12, 0, 864, 651, 50,∜
2025-03-18 11:43:22.748,658, 578, 464, 6, -5, 3, -11, 12, 0, 875, 675, 47,∜
2025-03-18 11:43:22.801,775, 593, 339, 11, 2, -10, -12, 11, 1, 901, 786, 74,∜
2025-03-18 11:43:22.858,684, 707, 344, -7, -9, 30, -14, 13, -2, 955, 920, 233,∜
2025-03-18 11:43:22.914,923, 471, 470, 10, 16, 16, -11, 15, -2, 969, 916, 42,∜
2025-03-18 11:43:22.972,723, 607, 315, -37, 16, 11, -12, 13, -1, 965, 920, 72,∜
2025-03-18 11:43:23.029,533, 467, 490, 4, -49, -46, -12, 14, 0, 954, 945, 69,∜
2025-03-18 11:43:23.083,727, 693, 455, 13, -20, 1, -12, 12, 4, 969, 953, 57,∜
2025-03-18 11:43:23.136,787, 591, 309, -7, 7, -5, -14, 13, 2, 964, 937, 164,∜
2025-03-18 11:43:23.193,500, 580, 552, -26, 0, -75, -12, 13, 1, 949, 911, 171,∜
2025-03-18 11:43:23.251,728, 475, 384, 23, -60, 15, -14, 11, 4, 958, 936, 392,∜
2025-03-18 11:43:23.308,690, 626, 419, 23, -9, -9, -12, 11, 6, 971, 948, 392,∜
2025-03-18 11:43:23.361,443, 649, 199, 9, 27, 16, -8, 4, 6, 973, 915, 48,∜
2025-03-18 11:43:23.414,758, 517, 345, -20, 15, 7, -11, 11, 6, 970, 927, 68,∜
2025-03-18 11:43:23.472,602, 536, 271, -11, 5, 17, -13, 12, 4, 975, 957, 53,∜
2025-03-18 11:43:23.529,749, 299, 340, -14, 18, -37, -14, 12, 4, 965, 922, 173,∜
2025-03-18 11:43:23.587,595, 685, 628, 14, -36, 24, -13, 11, 4, 962, 921, 380,∜
2025-03-18 11:43:23.640,584, 600, 196, 4, 39, 30, -14, 11, 3, 975, 935, 158,∜
2025-03-18 11:43:23.696,838, 363, 389, -5, 31, -18, -15, 13, 0, 962, 874, 59,∜
2025-03-18 11:43:23.755,608, 640, 610, -34, 25, -39, -14, 12, 0, 914, 869, 463,∜
2025-03-18 11:43:24.029,673, 602, 452, 0, 1, 0, -12, 9, 4, 903, 734, 51,∫
2025-03-18 11:43:24.078,675, 602, 443, 0, 0, 0, -12, 9, 4, 901, 737, 53,∫
2025-03-18 11:43:24.131,675, 585, 447, 2, -5, 2, -14, 11, 1, 901, 756, 71,∫
2025-03-18 11:43:24.184,713, 581, 399, 1, -4, 2, -10, 9, 4, 899, 754, 44,∫
2025-03-18 11:43:24.238,685, 596, 447, -3, 0, 1, -11, 11, 2, 901, 761, 69,∫
2025-03-18 11:43:24.288,685, 587, 438, 1, -1, 4, -13, 12, 0, 904, 766, 57,∫
2025-03-18 11:43:24.344,722, 576, 395, -2, -1, 2, -16, 12, 1, 911, 771, 51,∫
2025-03-18 11:43:24.398,678, 599, 439, 0, -3, 3, -15, 11, 0, 921, 813, 70,∫
2025-03-18 11:43:24.446,721, 583, 413, 1, 1, 0, -10, 11, 3, 924, 816, 33,∫
2025-03-18 11:43:24.500,689, 580, 422, -2, 0, 1, -14, 11, 3, 927, 822, 66,∫
2025-03-18 11:43:24.553,745, 599, 430, 3, -3, 7, -12, 12, 1, 935, 847, 120,∫
2025-03-18 11:43:24.610,699, 637, 429, 3, -6, 17, -12, 11, 3, 944, 872, 226,∫
2025-03-18 11:43:24.668,634, 623, 431, -11, -17, 10, -13, 12, 2, 953, 896, 235,∫
2025-03-18 11:43:24.726,684, 488, 486, -10, -7, -11, -14, 12, 4, 956, 925, 139,∫
2025-03-18 11:43:24.778,793, 706, 227, 41, 20, 7, -14, 13, 3, 967, 923, 62,∫
2025-03-18 11:43:24.836,678, 596, 358, 10, 33, 16, -14, 13, 0, 970, 926, 71,∫
2025-03-18 11:43:24.889,539, 467, 384, 1, 35, 9, -12, 12, 1, 950, 856, 39,∫
2025-03-18 11:43:24.947,970, 436, 303, -10, 34, -51, -10, 13, -1, 853, 744, 75,∫
2025-03-18 11:43:25.249,651, 622, 474, 4, -4, 5, -14, 13, -2, 899, 804, 63,∮
2025-03-18 11:43:25.302,643, 635, 474, 3, -6, 8, -14, 13, 1, 900, 809, 58,∮
2025-03-18 11:43:25.356,707, 588, 424, 10, -15, 9, -15, 13, 0, 908, 835, 56,∮
2025-03-18 11:43:25.409,747, 571, 357, -1, -6, 0, -13, 10, 2, 910, 838, 56,∮
2025-03-18 11:43:25.467,695, 561, 414, -8, 2, -3, -14, 11, 3, 917, 842, 53,∮
2025-03-18 11:43:25.520,697, 571, 401, -7, 0, -3, -13, 11, 2, 921, 832, 54,∮
2025-03-18 11:43:25.573,708, 576, 410, -3, -1, -2, -13, 12, 2, 921, 836, 60,∮
2025-03-18 11:43:25.626,701, 592, 432, -4, 0, 2, -12, 13, 1, 929, 846, 53,∮
2025-03-18 11:43:25.684,705, 580, 421, -3, -2, -1, -15, 11, 3, 929, 857, 67,∮
2025-03-18 11:43:25.737,712, 576, 437, -4, 1, 0, -15, 11, 2, 932, 859, 55,∮
2025-03-18 11:43:25.789,718, 588, 414, -4, -3, 2, -13, 11, 3, 935, 864, 62,∮
2025-03-18 11:43:25.843,684, 574, 425, 0, -1, 3, -14, 11, 2, 941, 872, 72,∮
2025-03-18 11:43:25.896,723, 581, 424, -7, -1, 7, -14, 11, 0, 942, 874, 54,∮
2025-03-18 11:43:25.950,709, 559, 426, -4, -4, 11, -14, 13, 3, 950, 885, 48,∮
2025-03-18 11:43:26.007,662, 568, 417, -10, -19, 7, -13, 12, 3, 956, 906, 46,∮
2025-03-18 11:43:26.065,846, 375, 520, 12, -3, -18, -13, 13, 3, 960, 926, 55,∮
2025-03-18 11:43:26.118,846, 662, 262, 37, 9, -2, -13, 12, 2, 963, 923, 71,∮
2025-03-18 11:43:26.171,729, 664, 465, 20, 9, 5, -12, 12, 3, 969, 928, 51,∮
2025-03-18 11:43:26.224,729, 665, 291, -2, 11, 8, -12, 11, 3, 954, 901, 59,∮
2025-03-18 11:43:26.281,704, 536, 382, -23, 5, -20, -13, 14, 1, 941, 887, 56,∮
2025-03-18 11:43:26.339,622, 605, 555, -4, -27, -3, -14, 14, 0, 939, 905, 73,∮
2025-03-18 11:43:26.392,863, 388, 352, -4, -7, -8, -15, 14, 2, 951, 931, 62,∮
2025-03-18 11:43:26.445,700, 587, 416, 13, -3, 12, -12, 12, 4, 968, 938, 58,∮
2025-03-18 11:43:26.503,632, 875, 361, 3, 22, 26, -14, 13, 2, 972, 940, 58,∮
2025-03-18 11:43:26.555,517, 631, 324, -57, 31, 14, -9, 12, 1, 969, 918, 55,∮
2025-03-18 11:43:26.613,1086, 373, 465, 9, 3, -47, -12, 15, -2, 938, 867, 52,∮
2025-03-18 11:43:26.672,543, 547, 786, -19, -19, -21, -13, 13, 0, 953, 924, 78,∮
2025-03-18 11:43:26.728,599, 578, 492, 19, -27, 11, -15, 13, 4, 957, 929, 59,∮
2025-03-18 11:43:26.781,741, 468, 379, -4, -12, -8, -10, 13, 3, 951, 928, 50,∮
2025-03-18 11:43:26.838,792, 519, 465, 34, 7, -2, -14, 13, 3, 966, 930, 54,∮
2025-03-18 11:43:26.892,1327, 597, 474, -2, 42, 57, -15, 15, 1, 977, 939, 56,∮
2025-03-18 11:43:26.949,785, 421, 470, -34, 25, 15, -12, 17, -2, 972, 908, 50,∮
2025-03-18 11:43:27.006,961, 373, 267, 62, 38, -76, -11, 16, -2, 905, 783, 55,∮
2025-03-18 11:43:27.064,509, 559, 686, -12, 30, -45, -12, 15, -4, 820, 821, 74,∮
2025-03-18 11:43:27.122,544, 677, 611, 20, -16, -2, -14, 14, -5, 716, 727, 59,∮
2025-03-18 11:43:27.653,644, 607, 470, 0, 0, -6, -12, 11, -1, 643, 331, 42,∂
2025-03-18 11:43:27.707,654, 612, 464, -1, 0, -6, -12, 11, -1, 639, 317, 52,∂
2025-03-18 11:43:27.761,651, 615, 482, 1, -3, -11, -13, 9, 0, 539, 240, 46,∂
2025-03-18 11:43:27.818,647, 616, 486, 10, -11, -19, -15, 11, 0, 546, 253, 52,∂
2025-03-18 11:43:27.875,669, 640, 430, 21, -25, -27, -15, 10, 0, 460, 229, 48,∂
2025-03-18 11:43:27.932,607, 684, 401, -1, -25, -38, -14, 8, 2, 426, 279, 48,∂
2025-03-18 11:43:27.989,642, 751, 390, -11, -14, -28, -14, 5, 5, 460, 395, 60,∂
2025-03-18 11:43:28.046,645, 722, 703, 47, -27, -23, -13, 4, 6, 593, 522, 58,∂
2025-03-18 11:43:28.096,468, 690, 454, 3, 4, 16, -15, 3, 7, 729, 599, 50,∂
2025-03-18 11:43:28.149,413, 613, 293, 25, 23, 78, -14, 4, 9, 781, 598, 42,∂
2025-03-18 11:43:28.203,632, 539, 296, 4, 24, 46, -16, 7, 4, 798, 611, 60,∂
2025-03-18 11:43:28.260,906, 720, 777, 30, -17, 59, -15, 11, 0, 839, 614, 40,∂
2025-03-18 11:43:28.317,699, 592, 78, -27, 25, -7, -14, 11, 1, 876, 652, 67,∂
2025-03-18 11:43:28.370,580, 661, 562, -19, 2, -4, -14, 11, 1, 888, 680, 60,∂
2025-03-18 11:43:28.423,763, 507, 423, 13, -29, 4, -12, 11, 1, 896, 781, 42,∂
2025-03-18 11:43:28.481,843, 666, 240, 13, -7, 23, -14, 11, 4, 956, 906, 65,∂
2025-03-18 11:43:28.534,403, 595, 527, 37, 27, 21, -11, 10, 4, 965, 900, 68,∂
2025-03-18 11:43:28.591,945, 506, 347, -60, 25, 11, -12, 13, 0, 942, 772, 52,∂
2025-03-18 11:43:28.649,806, 473, 520, -9, -14, -12, -12, 13, -1, 959, 937, 73,∂
2025-03-18 11:43:28.702,705, 585, 365, 28, 3, 8, -13, 14, 0, 963, 940, 64,∂
2025-03-18 11:43:28.759,695, 556, 299, -36, 77, -66, -14, 14, -1, 921, 834, 54,∂
2025-03-18 11:43:28.816,483, 588, 711, 2, 0, -12, -14, 15, -5, 884, 740, 60,∂
2025-03-18 11:43:28.874,700, 615, 469, 23, -21, -3, -14, 15, -5, 831, 720, 58,∂
2025-03-18 11:43:28.931,683, 591, 417, -8, 1, -16, -12, 12, -2, 807, 677, 52,∂
2025-03-18 11:43:28.985,613, 616, 495, -4, 0, -12, -10, 12, -2, 783, 483, 50,∂
2025-03-18 11:43:29.042,648, 605, 472, -3, -4, -13, -14, 11, -2, 748, 379, 55,∂
2025-03-18 11:43:29.099,630, 650, 473, -9, -3, -8, -14, 11, -1, 745, 434, 52,∂
2025-03-18 11:43:29.156,655, 616, 479, -3, -7, -16, -13, 12, -1, 728, 469, 63,∂
2025-03-18 11:43:29.455,597, 518, 288, 3, 5, -11, -11, 10, 3, 505, 323, 34,∇
2025-03-18 11:43:29.509,585, 545, 301, 1, 6, -12, -15, 10, 2, 502, 292, 33,∇
2025-03-18 11:43:29.562,900, 850, 708, 33, 8, -48, -14, 9, 3, 424, 137, 47,∇
2025-03-18 11:43:29.620,453, 521, 292, -38, 18, -13, -15, 9, 3, 535, 323, 51,∇
2025-03-18 11:43:29.673,759, 738, 426, 5, -18, 7, -15, 10, 2, 661, 456, 69,∇
2025-03-18 11:43:29.726,623, 551, 461, -5, -8, 2, -10, 9, 3, 758, 586, 48,∇
2025-03-18 11:43:29.783,654, 661, 422, -13, -11, 16, -13, 11, 5, 816, 686, 52,∇
2025-03-18 11:43:29.837,704, 652, 379, -4, -8, 7, -12, 9, 6, 842, 713, 50,∇
2025-03-18 11:43:29.890,669, 615, 450, -2, -3, 3, -14, 12, 3, 854, 734, 70,∇
2025-03-18 11:43:29.943,710, 617, 386, -5, -4, 5, -12, 11, 4, 857, 744, 71,∇
2025-03-18 11:43:30.001,711, 587, 370, -11, 3, -2, -13, 13, 4, 870, 749, 73,∇
2025-03-18 11:43:30.054,594, 602, 487, -2, 5, -3, -13, 12, 3, 873, 742, 64,∇
2025-03-18 11:43:30.107,838, 433, 364, 12, -19, 1, -12, 12, 3, 895, 806, 63,∇
2025-03-18 11:43:30.165,782, 890, 384, -17, -16, 24, -12, 10, 4, 955, 932, 57,∇
2025-03-18 11:43:30.222,603, 630, 517, -14, -2, 17, -15, 13, 4, 966, 951, 53,∇
2025-03-18 11:43:30.279,657, 548, 510, 27, -11, -7, -9, 10, 7, 968, 934, 51,∇
2025-03-18 11:43:30.336,1333, 508, 569, -19, 49, 47, -13, 12, 2, 966, 895, 61,∇
2025-03-18 11:43:30.393,743, 379, 543, -40, 15, -21, -12, 13, -1, 929, 837, 60,∇
2025-03-18 11:43:30.451,587, 936, 677, 6, -48, -11, -14, 12, 1, 873, 861, 142,∇
2025-03-18 11:43:30.504,875, 539, 394, 28, -9, 4, -11, 10, 3, 964, 930, 58,∇
2025-03-18 11:43:30.562,835, 653, 350, -34, 39, 46, -13, 14, 3, 965, 898, 55,∇
2025-03-18 11:43:30.615,750, 252, 307, 22, 29, -72, -12, 16, 0, 880, 680, 99,∇
2025-03-18 11:43:30.926,691, 610, 429, -9, -4, 2, -13, 13, 2, 846, 740, 68,∆
2025-03-18 11:43:30.985,690, 611, 442, -10, -3, 1, -9, 13, 5, 851, 746, 65,∆
2025-03-18 11:43:31.038,682, 589, 459, -4, -4, -2, -14, 13, 2, 867, 781, 131,∆
2025-03-18 11:43:31.094,666, 594, 466, -4, -5, -1, -13, 13, 3, 870, 786, 74,∆
2025-03-18 11:43:31.148,701, 589, 433, -5, 0, -2, -14, 12, 3, 876, 789, 136,∆
2025-03-18 11:43:31.205,672, 591, 467, -4, -3, 2, -14, 12, 3, 888, 790, 155,∆
2025-03-18 11:43:31.259,687, 584, 455, -2, -5, 2, -13, 11, 5, 897, 794, 127,∆
2025-03-18 11:43:31.312,705, 571, 447, -3, -1, 0, -15, 14, 1, 896, 800, 57,∆
2025-03-18 11:43:31.365,693, 573, 450, -2, 0, -1, -13, 13, 3, 898, 809, 53,∆
2025-03-18 11:43:31.423,689, 572, 450, -1, -3, -3, -12, 12, 4, 900, 813, 46,∆
2025-03-18 11:43:31.475,714, 582, 441, 2, -6, -3, -14, 12, 5, 900, 835, 69,∆
2025-03-18 11:43:31.533,636, 608, 485, -9, -18, -2, -10, 10, 8, 909, 863, 44,∆
2025-03-18 11:43:31.585,690, 508, 515, 0, -13, -7, -13, 13, 6, 948, 910, 55,∆
2025-03-18 11:43:31.643,585, 428, 384, 41, -1, -8, -14, 11, 6, 965, 916, 61,∆
2025-03-18 11:43:31.696,739, 656, 269, -19, 27, 3, -5, 12, 2, 957, 755, 48,∆
2025-03-18 11:43:31.754,947, 826, 375, -17, 22, 24, -12, 14, 4, 959, 910, 67,∆
2025-03-18 11:43:31.806,579, 489, 515, -22, 0, 17, -12, 14, 4, 970, 951, 53,∆
2025-03-18 11:43:31.860,687, 543, 431, -9, 4, 1, -14, 13, 4, 949, 914, 51,∆
