Timestamp,Acc_X,Acc_Y,Acc_Z,Gyro_X,Gyro_Y,Gyro_Z,Mag_X,Mag_Y,Mag_Z,Force1,Force2,Force3,Letter
2025-03-17 11:13:49.240,602, 630, 508, -3, 3, 3, -1, 6, -11, 825, 533, 86,noise
2025-03-17 11:13:56.146,635, 627, 484, -1, -1, 0, -1, 1, 4, 873, 703, 212,A
2025-03-17 11:13:56.197,639, 621, 483, -1, -1, 0, -1, 5, 5, 872, 706, 213,A
2025-03-17 11:13:56.251,630, 618, 468, -1, 0, -1, -1, 1, 6, 874, 707, 220,A
2025-03-17 11:13:56.300,639, 618, 483, -1, 1, 0, 0, -3, 6, 874, 700, 196,A
2025-03-17 11:13:56.355,634, 609, 482, -2, 0, -1, -2, 2, 2, 875, 707, 210,A
2025-03-17 11:13:56.406,644, 617, 484, -1, 0, 0, -1, 2, 4, 873, 712, 211,A
2025-03-17 11:13:56.456,638, 607, 490, -1, 0, -1, -3, 2, 6, 873, 711, 204,A
2025-03-17 11:13:56.511,643, 618, 486, -1, 0, -1, 0, 3, 2, 874, 718, 227,A
2025-03-17 11:13:56.567,632, 614, 496, -1, 0, -1, -2, 3, 2, 874, 723, 231,A
2025-03-17 11:13:56.620,643, 610, 488, -1, 0, -1, -1, 3, 2, 877, 725, 227,A
2025-03-17 11:13:56.673,645, 620, 482, -1, -1, -1, -2, 0, 5, 881, 742, 259,A
2025-03-17 11:13:56.727,626, 606, 478, -3, -1, -1, -1, -1, 8, 881, 745, 246,A
2025-03-17 11:13:56.777,644, 613, 480, -2, -1, -1, -2, 4, 1, 883, 753, 249,A
2025-03-17 11:13:56.838,640, 611, 490, -1, -1, -1, -3, 4, 1, 881, 752, 244,A
2025-03-17 11:13:56.889,641, 609, 491, -2, -2, -1, -1, 2, 5, 881, 756, 248,A
2025-03-17 11:13:56.940,639, 620, 481, -1, -1, 0, 0, 2, 5, 882, 758, 251,A
2025-03-17 11:13:56.996,639, 623, 480, -1, -5, -1, -1, 2, 4, 886, 770, 256,A
2025-03-17 11:13:57.049,633, 625, 503, -3, -8, 0, -1, 1, 4, 891, 802, 249,A
2025-03-17 11:13:57.103,645, 604, 479, 0, -14, 9, -2, 2, 4, 913, 829, 301,A
2025-03-17 11:13:57.157,683, 647, 466, 7, -16, 20, -2, 2, 5, 930, 874, 389,A
2025-03-17 11:13:57.207,678, 574, 439, 3, -11, 17, -1, 2, 7, 940, 902, 406,A
2025-03-17 11:13:57.257,650, 607, 504, 6, -16, 16, -3, 4, 6, 950, 917, 466,A
2025-03-17 11:13:57.321,681, 575, 411, 12, -24, 14, -3, 3, 5, 956, 928, 507,A
2025-03-17 11:13:57.370,754, 566, 331, 3, -9, 3, -2, 3, 8, 960, 933, 536,A
2025-03-17 11:13:57.426,739, 564, 425, -7, -15, -6, -4, 3, 8, 962, 941, 609,A
2025-03-17 11:13:57.476,685, 472, 549, 6, -24, -16, -4, 6, 9, 967, 946, 563,A
2025-03-17 11:13:57.538,946, 724, 234, 43, 20, -4, -3, 1, 11, 972, 938, 458,A
2025-03-17 11:13:57.589,841, 891, 317, -32, 61, 44, -1, 1, 9, 966, 918, 434,A
2025-03-17 11:13:57.648,604, 791, 806, -37, -51, -27, -3, 5, 6, 963, 928, 591,A
2025-03-17 11:13:57.696,750, 489, 531, 5, -31, -23, -4, 4, 7, 969, 952, 596,A
2025-03-17 11:13:57.756,685, 989, -27, 18, 42, 36, -4, 4, 7, 975, 951, 563,A
2025-03-17 11:13:57.813,766, 504, 439, -23, 42, 24, -3, 3, 9, 972, 939, 422,A
2025-03-17 11:13:57.870,446, 569, 815, -19, -47, -4, -3, 4, 8, 967, 927, 280,A
2025-03-17 11:13:57.922,852, 435, 358, 4, -15, -12, -1, 3, 9, 976, 966, 45,A
2025-03-17 11:13:57.976,686, 685, 475, -8, 15, 31, -3, 3, 7, 980, 967, 407,A
2025-03-17 11:13:58.032,763, 400, 285, -16, 67, -43, -2, 2, 6, 970, 959, 501,A
2025-03-17 11:13:58.086,565, 648, 726, -9, 18, -31, -2, 1, 6, 958, 938, 491,A
2025-03-17 11:13:58.139,626, 598, 528, 16, -20, 4, -1, 4, 3, 953, 925, 523,A
2025-03-17 11:13:58.189,764, 582, 363, 1, 0, 0, -1, 4, 5, 948, 916, 498,A
2025-03-17 11:13:58.246,666, 588, 482, -7, 6, -2, -1, 2, 5, 947, 910, 447,A
2025-03-17 11:13:58.297,671, 576, 498, -2, 2, 3, -1, 5, 5, 939, 897, 430,A
2025-03-17 11:13:58.636,691, 578, 457, 0, -2, 2, -1, 3, 5, 941, 903, 431,B
2025-03-17 11:13:58.689,699, 575, 458, -1, -1, 1, -2, 4, 4, 942, 902, 422,B
2025-03-17 11:13:58.742,673, 583, 482, -2, -1, 0, -1, 4, 4, 942, 909, 416,B
2025-03-17 11:13:58.796,690, 580, 472, 1, -3, 1, -3, 3, 4, 945, 915, 411,B
2025-03-17 11:13:58.843,672, 570, 480, 4, -4, 2, -3, 4, 5, 945, 921, 436,B
2025-03-17 11:13:58.896,673, 584, 473, 5, -7, 3, -5, 5, 8, 945, 926, 477,B
2025-03-17 11:13:58.948,656, 573, 484, 3, -19, 3, -3, 3, 5, 947, 932, 498,B
2025-03-17 11:13:59.005,695, 517, 437, 2, -37, 11, -3, 6, 6, 948, 943, 550,B
2025-03-17 11:13:59.056,866, 578, 532, 26, -2, -5, -3, 2, 8, 963, 948, 442,B
2025-03-17 11:13:59.106,1001, 928, 13, -14, 46, 40, -2, 2, 9, 969, 948, 63,B
2025-03-17 11:13:59.166,567, 150, 658, -34, -20, -31, -4, 7, 6, 965, 948, 57,B
2025-03-17 11:13:59.223,757, 233, 589, -20, -36, -36, -2, 7, 5, 970, 966, 38,B
2025-03-17 11:13:59.276,575, 444, 434, 33, -9, -6, -4, 4, 7, 972, 965, 415,B
2025-03-17 11:13:59.332,730, 656, 292, 10, 18, 22, -4, 3, 8, 974, 962, 98,B
2025-03-17 11:13:59.386,777, 574, 426, -11, 29, 12, -2, 6, 7, 972, 958, 56,B
2025-03-17 11:13:59.438,713, 822, 292, -11, 12, 12, -3, 5, 8, 971, 950, 53,B
2025-03-17 11:13:59.490,880, 270, 470, 36, 8, -29, -2, 3, 7, 952, 891, 60,B
2025-03-17 11:13:59.546,593, 441, 713, -30, 38, -43, -3, 4, 7, 941, 890, 42,B
2025-03-17 11:13:59.820,635, 585, 474, 4, -5, 11, -4, 4, 4, 941, 917, 372,C
2025-03-17 11:13:59.871,656, 597, 459, 5, -7, 13, -4, 4, 5, 940, 918, 376,C
2025-03-17 11:13:59.926,730, 540, 432, -2, -5, 10, -4, 3, 8, 943, 921, 400,C
2025-03-17 11:13:59.977,750, 522, 425, -1, -10, 6, -3, 5, 7, 943, 930, 448,C
2025-03-17 11:14:00.036,760, 463, 402, -12, -4, -7, -4, 7, 6, 949, 938, 395,C
2025-03-17 11:14:00.088,675, 598, 445, -16, -2, -7, -2, 3, 9, 952, 947, 223,C
2025-03-17 11:14:00.146,648, 379, 432, 43, 2, -19, -3, 4, 9, 962, 942, 45,C
2025-03-17 11:14:00.196,823, 640, 177, 26, 37, 47, -2, 3, 8, 969, 945, 55,C
2025-03-17 11:14:00.254,859, 496, 589, -18, 7, 21, -4, 5, 5, 968, 960, 144,C
2025-03-17 11:14:00.306,758, 483, 324, -27, 59, -45, -2, 6, 5, 960, 949, 328,C
2025-03-17 11:14:00.356,515, 604, 719, -16, 9, -21, -3, 6, 2, 947, 928, 224,C
2025-03-17 11:14:00.666,736, 538, 442, 0, -3, -1, -2, 5, 5, 944, 922, 309,D
2025-03-17 11:14:00.722,744, 544, 444, -1, -2, -1, 0, 4, 2, 943, 921, 299,D
2025-03-17 11:14:00.772,665, 561, 502, 0, -9, 1, -2, 4, 6, 943, 923, 310,D
2025-03-17 11:14:00.827,724, 558, 420, -1, -15, -2, -5, 6, 7, 942, 930, 337,D
2025-03-17 11:14:00.883,701, 454, 450, -7, -6, -7, -5, 4, 6, 947, 941, 349,D
2025-03-17 11:14:00.937,808, 668, 564, 66, 28, 17, -1, 5, 5, 960, 938, 230,D
2025-03-17 11:14:00.989,754, 327, 377, 18, 19, 19, -2, 3, 7, 964, 925, 59,D
2025-03-17 11:14:01.039,752, 106, 749, 21, -42, -46, 1, 5, 6, 948, 928, 316,D
2025-03-17 11:14:01.102,841, 381, 566, -11, -37, -16, -3, 4, 6, 963, 958, 525,D
2025-03-17 11:14:01.156,564, 678, 286, 18, 14, 21, -3, 2, 9, 975, 957, 394,D
2025-03-17 11:14:01.206,874, 327, 385, -40, 42, 28, -4, 4, 6, 970, 944, 49,D
2025-03-17 11:14:01.258,1074, 190, 321, 1, 40, -49, -1, 6, 5, 951, 875, 160,D
2025-03-17 11:14:01.323,497, 593, 731, -19, 6, -37, -2, 5, 3, 943, 911, 380,D
2025-03-17 11:14:01.581,681, 583, 471, -3, -4, 2, -2, 4, 5, 937, 916, 300,E
2025-03-17 11:14:01.637,678, 570, 477, -3, -5, 2, -3, 4, 4, 937, 917, 308,E
2025-03-17 11:14:01.687,708, 572, 435, 1, -12, 4, -2, 3, 5, 935, 921, 376,E
2025-03-17 11:14:01.739,705, 588, 431, -3, -12, 5, -3, 4, 5, 938, 932, 443,E
2025-03-17 11:14:01.796,733, 489, 522, -4, -7, -10, -2, 5, 7, 955, 941, 245,E
2025-03-17 11:14:01.846,1075, 662, 449, 13, 33, 37, -3, 3, 7, 967, 938, 59,E
2025-03-17 11:14:01.908,730, 702, 219, -15, 20, 13, -2, 3, 7, 966, 935, 47,E
2025-03-17 11:14:01.956,936, 778, 374, -15, -38, -50, -3, 5, 4, 961, 949, 53,E
2025-03-17 11:14:02.019,742, 768, 217, 29, -27, -3, -3, 3, 8, 972, 967, 285,E
2025-03-17 11:14:02.071,685, 562, 522, 16, 7, 16, -5, 4, 9, 971, 962, 450,E
2025-03-17 11:14:02.124,494, 423, 547, 26, 25, -26, -2, 5, 8, 961, 943, 313,E
2025-03-17 11:14:02.179,840, 485, 154, -3, 2, -1, 1, 2, 10, 970, 957, 139,E
2025-03-17 11:14:02.230,791, 735, 354, -1, 14, 25, -3, 2, 8, 974, 962, 58,E
2025-03-17 11:14:02.285,568, 297, 483, -4, 59, -26, -2, 5, 6, 960, 916, 44,E
2025-03-17 11:14:02.338,894, 410, 29, 47, -12, -17, -4, 6, 4, 964, 929, 65,E
2025-03-17 11:14:02.388,788, 552, 373, -19, 1, 20, -1, 4, 8, 972, 962, 51,E
2025-03-17 11:14:02.437,986, 304, 123, 1, 37, -31, -2, 7, 6, 960, 945, 311,E
2025-03-17 11:14:02.502,474, 605, 638, -17, 31, -39, -2, 4, 3, 941, 882, 339,E
2025-03-17 11:14:02.554,594, 619, 549, 8, -25, 7, -1, 1, 4, 930, 825, 294,E
2025-03-17 11:14:02.849,699, 562, 426, -2, -9, 0, -3, 4, 4, 925, 886, 298,F
2025-03-17 11:14:02.936,705, 547, 436, -1, -9, -1, 0, 3, 8, 925, 886, 300,F
2025-03-17 11:14:02.957,693, 570, 451, -1, -12, -1, -3, 3, 5, 926, 891, 274,F
2025-03-17 11:14:03.006,678, 573, 479, -2, -19, 4, -3, 5, 7, 933, 918, 308,F
2025-03-17 11:14:03.066,724, 508, 521, 13, -7, -12, -3, 3, 7, 952, 934, 237,F
2025-03-17 11:14:03.121,970, 690, 491, 18, 27, 32, -3, 5, 6, 964, 930, 46,F
2025-03-17 11:14:03.171,745, 744, 244, -19, 16, 17, -2, 3, 7, 961, 930, 65,F
2025-03-17 11:14:03.226,465, 790, 767, -7, -22, -48, 0, 1, 7, 953, 929, 45,F
2025-03-17 11:14:03.276,797, 461, 26, 30, -37, -19, -4, 4, 7, 970, 962, 230,F
2025-03-17 11:14:03.337,723, 389, 508, -1, 12, 28, -3, 5, 7, 972, 964, 433,F
2025-03-17 11:14:03.390,667, 353, 363, -1, 48, -26, -2, 3, 8, 963, 948, 312,F
2025-03-17 11:14:03.440,652, 571, 700, 18, -62, 34, -4, 3, 8, 963, 931, 48,F
2025-03-17 11:14:03.496,717, 628, 204, -26, 8, 30, -5, 3, 7, 971, 964, 40,F
2025-03-17 11:14:03.555,1029, 229, 155, -6, 44, -19, -2, 4, 7, 963, 951, 307,F
2025-03-17 11:14:03.611,454, 604, 830, -12, 21, -35, -4, 6, 3, 948, 901, 266,F
2025-03-17 11:14:03.856,679, 604, 455, -6, -3, 5, -3, 5, 5, 935, 905, 389,G
2025-03-17 11:14:03.908,683, 609, 461, -6, -5, 6, -3, 3, 4, 936, 908, 400,G
2025-03-17 11:14:03.956,652, 580, 495, 4, -18, 12, -3, 3, 7, 942, 923, 468,G
2025-03-17 11:14:04.018,709, 347, 178, -9, -3, -9, -3, 3, 7, 947, 938, 458,G
2025-03-17 11:14:04.071,645, 481, 485, 6, -9, -19, -2, 1, 11, 955, 950, 159,G
2025-03-17 11:14:04.122,1077, 552, 258, 37, 28, 9, -3, 3, 7, 967, 935, 32,G
2025-03-17 11:14:04.182,590, 512, 325, -29, 25, 28, -4, 4, 5, 970, 949, 55,G
2025-03-17 11:14:04.235,416, 211, 804, -3, -29, -26, -2, 4, 7, 966, 960, 275,G
2025-03-17 11:14:04.288,790, 1026, 166, 8, 8, 23, -3, 2, 9, 973, 958, 231,G
2025-03-17 11:14:04.341,746, 547, 390, -21, 16, 20, -2, 7, 6, 972, 953, 34,G
2025-03-17 11:14:04.398,446, 574, 789, -20, -32, -42, -3, 6, 5, 961, 922, 44,G
2025-03-17 11:14:04.452,923, 823, 436, 44, -18, -5, -2, 3, 8, 974, 961, 48,G
2025-03-17 11:14:04.505,775, 574, 511, -8, 10, 35, -2, 4, 6, 974, 963, 180,G
2025-03-17 11:14:04.556,633, 473, 418, -25, 73, -54, -3, 6, 4, 960, 942, 52,G
2025-03-17 11:14:04.862,686, 584, 455, 3, -8, 3, -2, 3, 6, 933, 891, 288,H
2025-03-17 11:14:04.918,700, 570, 445, 4, -8, 4, -4, 5, 7, 931, 890, 290,H
2025-03-17 11:14:04.970,724, 569, 417, -1, -3, -3, -3, 4, 7, 933, 891, 304,H
2025-03-17 11:14:05.026,641, 596, 484, -4, -11, -5, -2, 4, 6, 932, 905, 292,H
2025-03-17 11:14:05.076,702, 535, 472, 11, -23, 10, -4, 4, 6, 940, 923, 384,H
2025-03-17 11:14:05.135,675, 733, 445, 14, 28, 20, -4, 2, 7, 960, 919, 199,H
2025-03-17 11:14:05.187,811, 628, 366, 2, 23, 26, -2, 2, 7, 961, 882, 48,H
2025-03-17 11:14:05.246,677, 291, 582, -4, -16, -43, -4, 3, 9, 949, 862, 36,H
2025-03-17 11:14:05.297,758, 257, 275, -20, -16, -9, -2, 4, 6, 960, 948, 109,H
2025-03-17 11:14:05.352,771, 495, 283, -5, 9, 31, -2, 4, 9, 967, 951, 445,H
2025-03-17 11:14:05.406,327, 610, 955, 3, -24, -22, -2, 4, 8, 962, 944, 558,H
2025-03-17 11:14:05.456,828, 783, 102, 8, -15, -5, -3, 4, 9, 972, 948, 484,H
2025-03-17 11:14:05.516,602, 563, 279, 5, 45, 41, -3, 2, 9, 972, 940, 255,H
2025-03-17 11:14:05.570,876, 347, 319, -19, 19, -22, -1, 1, 8, 960, 922, 361,H
2025-03-17 11:14:05.864,684, 585, 449, -2, -2, -1, -3, 2, 6, 936, 876, 204,I
2025-03-17 11:14:05.918,702, 585, 451, 1, -3, 2, -1, 4, 9, 937, 880, 207,I
2025-03-17 11:14:05.971,717, 570, 414, 1, -7, 2, -2, 1, 9, 937, 892, 188,I
2025-03-17 11:14:06.021,711, 569, 453, -7, -3, -8, -3, 4, 7, 946, 917, 53,I
2025-03-17 11:14:06.077,781, 877, 383, 10, -22, 10, -3, 3, 8, 966, 954, 215,I
2025-03-17 11:14:06.127,731, 561, 356, 3, 8, 18, -2, 3, 10, 968, 960, 418,I
2025-03-17 11:14:06.184,796, 537, 237, -4, 23, -2, -1, 2, 10, 955, 942, 506,I
2025-03-17 11:14:06.239,639, 698, 698, 2, -29, 10, -2, 3, 7, 950, 931, 425,I
2025-03-17 11:14:06.288,740, 930, 193, 6, 15, 17, -3, 3, 8, 969, 948, 325,I
2025-03-17 11:14:06.347,867, 686, 230, 1, 42, 30, -4, 3, 7, 968, 940, 184,I
2025-03-17 11:14:06.397,796, 376, 365, 1, 23, -36, 0, 4, 5, 952, 895, 154,I
2025-03-17 11:14:06.454,669, 561, 471, -3, -5, -10, -2, 2, 6, 949, 894, 228,I
2025-03-17 11:14:06.506,720, 588, 401, -1, -1, 0, 0, 3, 7, 948, 894, 264,I
2025-03-17 11:14:06.559,700, 583, 436, 0, -5, 1, -4, 4, 5, 948, 895, 260,I
2025-03-17 11:14:06.606,705, 559, 433, 0, 1, 2, -2, 2, 7, 948, 898, 277,I
2025-03-17 11:14:06.656,707, 591, 417, 2, -2, 3, -3, 2, 11, 950, 902, 283,I
2025-03-17 11:14:06.713,694, 549, 456, 0, 0, 0, -3, 3, 5, 949, 899, 284,I
2025-03-17 11:14:06.756,711, 569, 435, -2, -9, 2, -3, 4, 6, 950, 900, 212,I
2025-03-17 11:14:06.809,724, 582, 411, -2, 1, -5, 0, 1, 8, 954, 915, 44,I
2025-03-17 11:14:06.868,712, 589, 435, -3, -3, -3, -2, 4, 6, 960, 933, 58,I
2025-03-17 11:14:06.920,685, 661, 316, -3, -3, 18, -2, 3, 6, 965, 946, 265,I
2025-03-17 11:14:06.975,692, 569, 445, 7, -6, 13, -2, 3, 7, 970, 955, 436,I
2025-03-17 11:14:07.026,715, 564, 389, 5, 0, 2, -3, 3, 7, 965, 951, 530,I
2025-03-17 11:14:07.076,904, 473, 357, -2, 18, -24, -5, 4, 5, 952, 927, 482,I
2025-03-17 11:14:07.138,647, 568, 512, -14, 10, -14, -3, 3, 5, 945, 905, 393,I
2025-03-17 11:14:07.188,696, 583, 408, 2, -8, 2, -3, 4, 5, 938, 890, 387,I
2025-03-17 11:14:07.244,738, 572, 390, -6, 2, -2, -3, 5, 7, 940, 890, 392,I
2025-03-17 11:14:07.297,682, 579, 455, -3, -1, 0, -3, 4, 6, 940, 890, 378,I
2025-03-17 11:14:07.344,721, 594, 409, 0, -3, 1, -2, 2, 8, 937, 887, 395,I
2025-03-17 11:14:07.404,720, 570, 417, -2, -1, -1, -3, 4, 5, 937, 886, 384,I
2025-03-17 11:14:07.682,709, 583, 431, -5, -1, -2, -1, 0, 9, 938, 893, 307,J
2025-03-17 11:14:07.736,696, 591, 427, -5, -2, -1, -3, 2, 10, 937, 893, 306,J
2025-03-17 11:14:07.793,718, 574, 408, -10, -3, -3, -3, 3, 6, 939, 897, 230,J
2025-03-17 11:14:07.846,694, 587, 450, -8, -2, -2, 1, 3, 6, 939, 893, 136,J
2025-03-17 11:14:07.901,688, 585, 439, -6, -5, -2, -3, 4, 7, 939, 895, 54,J
2025-03-17 11:14:07.954,660, 566, 496, -1, -20, 2, -1, 3, 7, 944, 900, 38,J
2025-03-17 11:14:08.006,857, 435, 418, 39, -12, -10, -3, 2, 9, 959, 943, 197,J
2025-03-17 11:14:08.060,705, 469, 363, 7, 0, 20, -5, 5, 9, 968, 952, 541,J
2025-03-17 11:14:08.106,657, 568, 425, 10, 0, -1, -4, 4, 9, 959, 938, 592,J
2025-03-17 11:14:08.168,852, 722, 588, 9, -9, 6, -4, 3, 8, 955, 928, 545,J
2025-03-17 11:14:08.220,834, 491, 491, -7, 27, 32, -2, 4, 7, 970, 945, 331,J
2025-03-17 11:14:08.271,740, 497, 377, -50, 26, 20, -3, 4, 7, 968, 940, 44,J
2025-03-17 11:14:08.330,1301, 357, 266, 42, -15, -51, -1, 1, 10, 941, 853, 113,J
2025-03-17 11:14:08.386,500, 635, 698, -1, 28, -23, -4, 3, 6, 939, 893, 322,J
2025-03-17 11:14:08.639,710, 581, 428, 1, -1, 2, -4, 3, 6, 922, 832, 403,K
2025-03-17 11:14:08.686,714, 601, 406, 0, 0, 2, -2, 6, 6, 925, 829, 401,K
2025-03-17 11:14:08.738,703, 583, 437, -4, 4, 1, -2, 2, 5, 924, 833, 394,K
2025-03-17 11:14:08.796,707, 569, 429, -3, 1, -2, -3, 7, 4, 923, 823, 361,K
2025-03-17 11:14:08.850,694, 595, 435, -5, -2, -2, -2, 2, 7, 923, 821, 332,K
2025-03-17 11:14:08.904,692, 588, 435, 2, -5, 2, -4, 0, 10, 921, 833, 341,K
2025-03-17 11:14:08.960,715, 570, 422, -2, -9, 3, -4, 3, 5, 926, 853, 374,K
2025-03-17 11:14:09.010,673, 579, 454, -9, -12, -1, -2, 3, 8, 932, 878, 324,K
2025-03-17 11:14:09.073,750, 326, 332, -10, -12, -13, -2, 4, 7, 947, 926, 197,K
2025-03-17 11:14:09.126,616, 805, 355, 32, 23, 14, -3, 1, 9, 965, 932, 64,K
2025-03-17 11:14:09.171,697, 858, 150, -31, 28, 26, -1, 3, 6, 969, 914, 59,K
2025-03-17 11:14:09.264,800, 624, 556, -36, -23, 21, -4, 5, 5, 972, 955, 50,K
2025-03-17 11:14:09.293,734, 476, 361, 24, -21, -11, -3, 7, 6, 968, 957, 49,K
2025-03-17 11:14:09.339,662, 593, 223, 4, 45, -45, -2, 4, 8, 955, 925, 45,K
2025-03-17 11:14:09.387,766, -21, -14, -13, -13, -11, -3, 2, 7, 963, 932, 48,K
2025-03-17 11:14:09.446,526, 387, 325, -18, 20, 35, -3, 3, 8, 974, 951, 58,K
2025-03-17 11:14:09.501,979, 268, 124, -15, 61, -60, -2, 3, 8, 961, 924, 46,K
2025-03-17 11:14:09.559,455, 692, 889, -7, 16, -43, -4, 4, 2, 930, 828, 45,K
2025-03-17 11:14:09.816,656, 594, 468, -1, -14, -1, -2, 5, 5, 916, 832, 170,L
2025-03-17 11:14:09.868,668, 598, 452, 0, -16, -2, -4, 1, 9, 917, 834, 186,L
2025-03-17 11:14:09.919,750, 566, 401, -1, -3, 2, -2, 2, 7, 919, 854, 232,L
2025-03-17 11:14:09.976,707, 593, 417, -3, -6, -4, -4, 4, 6, 924, 872, 285,L
2025-03-17 11:14:10.026,666, 592, 440, -8, -10, -2, -1, 3, 6, 929, 893, 275,L
2025-03-17 11:14:10.086,716, 584, 420, -1, -22, 1, -4, 2, 9, 933, 911, 248,L
2025-03-17 11:14:10.137,751, 536, 444, 4, -6, -9, -2, 1, 10, 950, 934, 109,L
2025-03-17 11:14:10.194,462, 671, 360, 45, 36, 25, -2, 2, 10, 960, 911, 48,L
2025-03-17 11:14:10.247,795, 459, 191, 17, 10, 11, -2, 2, 8, 966, 912, 57,L
2025-03-17 11:14:10.301,735, 355, 414, 18, -7, 13, -4, 5, 7, 970, 953, 58,L
2025-03-17 11:14:10.352,942, 301, 122, -9, 52, -45, -2, 5, 6, 957, 930, 167,L
2025-03-17 11:14:10.406,504, 581, 571, -24, 26, -27, -2, 3, 6, 938, 866, 58,L
2025-03-17 11:14:10.666,702, 590, 425, -3, -3, 2, -4, 2, 7, 932, 890, 295,M
2025-03-17 11:14:10.719,692, 593, 425, -3, -3, 2, -2, 4, 5, 932, 889, 292,M
2025-03-17 11:14:10.769,729, 575, 387, 1, -9, 2, -5, 2, 6, 933, 893, 285,M
2025-03-17 11:14:10.820,749, 602, 352, 0, -2, -2, -2, 1, 9, 937, 897, 300,M
2025-03-17 11:14:10.876,681, 587, 412, -9, -6, -7, -3, 4, 7, 935, 902, 266,M
2025-03-17 11:14:10.935,1192, 529, 238, -27, -7, -13, -3, 2, 7, 941, 926, 128,M
2025-03-17 11:14:10.986,686, 465, 570, 9, -13, -13, -2, 4, 6, 956, 939, 47,M
2025-03-17 11:14:11.036,622, 588, 231, 25, 45, 40, -4, 2, 8, 966, 929, 53,M
2025-03-17 11:14:11.096,730, 495, 561, -14, -2, -4, -3, 2, 7, 957, 928, 121,M
2025-03-17 11:14:11.156,656, 604, 651, -30, -27, -19, -3, 3, 8, 957, 955, 363,M
2025-03-17 11:14:11.206,989, 851, 32, 4, 26, 38, -2, 2, 10, 971, 953, 233,M
2025-03-17 11:14:11.256,765, 497, 451, -25, 16, 26, -4, 4, 7, 972, 954, 26,M
2025-03-17 11:14:11.319,759, 397, 453, 36, -19, -18, -4, 5, 6, 964, 951, 317,M
2025-03-17 11:14:11.369,731, 619, 303, -9, 50, -25, -3, 4, 6, 955, 923, 375,M
2025-03-17 11:14:11.427,494, 616, 670, -5, 5, 2, -2, 3, 7, 947, 884, 254,M
2025-03-17 11:14:11.480,735, 564, 408, 14, -24, 13, -2, 5, 4, 939, 884, 388,M
2025-03-17 11:14:11.533,769, 552, 363, -5, 2, -7, -1, 3, 6, 940, 893, 407,M
2025-03-17 11:14:11.586,687, 598, 444, 0, -7, 1, -2, 3, 5, 941, 904, 396,M
2025-03-17 11:14:11.636,742, 566, 382, 0, -7, 1, -4, 3, 6, 943, 911, 421,M
2025-03-17 11:14:11.686,720, 579, 412, 0, -5, 2, -3, 3, 8, 944, 917, 420,M
2025-03-17 11:14:11.743,733, 571, 371, -1, -7, 0, -1, 1, 8, 947, 922, 411,M
2025-03-17 11:14:11.796,738, 601, 397, -4, -3, -4, -3, 4, 8, 945, 925, 385,M
2025-03-17 11:14:11.852,728, 603, 376, -3, -5, -5, -3, 6, 5, 952, 938, 371,M
2025-03-17 11:14:11.906,700, 612, 398, 26, 8, -1, -2, 3, 9, 963, 936, 256,M
2025-03-17 11:14:11.956,777, 650, 106, 7, 34, 31, -4, 4, 7, 968, 929, 41,M
2025-03-17 11:14:12.009,972, 186, 314, -16, 19, -50, -1, 4, 7, 957, 920, 72,M
2025-03-17 11:14:12.066,502, 621, 770, -21, 21, -31, -1, 3, 4, 933, 906, 318,M
2025-03-17 11:14:12.119,624, 651, 515, 6, -23, 9, -1, 3, 5, 929, 898, 333,M
2025-03-17 11:14:12.457,699, 604, 429, -1, -5, 2, -2, 3, 6, 913, 853, 174,N
2025-03-17 11:14:12.517,713, 591, 414, -2, -4, 2, -3, 4, 7, 915, 855, 170,N
2025-03-17 11:14:12.566,715, 571, 435, -5, 1, 0, -3, 2, 5, 916, 854, 66,N
2025-03-17 11:14:12.620,688, 572, 469, -4, -1, -1, -2, 4, 5, 917, 846, 54,N
2025-03-17 11:14:12.670,708, 578, 436, -4, -4, -1, -4, 2, 7, 919, 840, 30,N
2025-03-17 11:14:12.719,685, 582, 456, 1, -9, 0, -3, 2, 6, 921, 844, 49,N
2025-03-17 11:14:12.769,738, 588, 393, 0, -6, 0, -2, 4, 5, 922, 833, 56,N
2025-03-17 11:14:12.826,684, 584, 433, 0, -6, -2, -2, 3, 8, 923, 831, 43,N
2025-03-17 11:14:12.876,744, 572, 389, -3, -3, -1, -3, 4, 7, 925, 843, 41,N
2025-03-17 11:14:12.934,696, 585, 421, -6, -1, -5, -2, 4, 6, 926, 861, 52,N
2025-03-17 11:14:12.986,628, 587, 518, 1, -22, -1, -5, 4, 7, 931, 880, 29,N
2025-03-17 11:14:13.037,722, 600, 399, -13, -12, -10, -3, 2, 8, 950, 923, 42,N
2025-03-17 11:14:13.087,701, 425, 401, 8, 33, 28, -4, 5, 7, 963, 925, 48,N
2025-03-17 11:14:13.144,771, 502, 434, -2, 9, 7, -2, 3, 8, 959, 916, 40,N
2025-03-17 11:14:13.200,635, 694, 597, -10, -37, -15, -2, 4, 6, 951, 939, 217,N
2025-03-17 11:14:13.251,582, 1104, 31, -1, 46, 65, -3, 4, 7, 968, 949, 37,N
2025-03-17 11:14:13.306,568, 576, 339, -46, 19, 28, -3, 3, 7, 969, 945, 45,N
2025-03-17 11:14:13.358,711, 457, 458, 15, -42, -25, -3, 4, 9, 962, 949, 270,N
2025-03-17 11:14:13.419,740, 578, 283, -7, 90, -33, -2, 3, 7, 954, 912, 412,N
2025-03-17 11:14:13.709,737, 570, 409, -2, -3, 1, -2, 3, 7, 934, 883, 45,O
2025-03-17 11:14:13.761,724, 568, 406, -3, -2, 0, -3, 5, 5, 935, 885, 47,O
2025-03-17 11:14:13.814,702, 584, 456, -3, -1, 2, -4, 3, 6, 939, 899, 60,O
2025-03-17 11:14:13.862,726, 577, 396, 5, -5, 7, -4, 5, 7, 945, 906, 195,O
2025-03-17 11:14:13.917,671, 596, 454, 0, -11, 8, -4, 4, 8, 945, 918, 214,O
2025-03-17 11:14:13.969,709, 509, 313, -28, -4, -11, -3, 4, 6, 951, 938, 49,O
2025-03-17 11:14:14.027,652, 343, 546, -4, -8, -24, -4, 1, 7, 953, 940, 45,O
2025-03-17 11:14:14.076,749, 666, 73, 54, 55, 53, -3, 3, 9, 966, 922, 47,O
2025-03-17 11:14:14.135,817, 773, 840, -49, 14, 35, -5, 6, 5, 967, 947, 38,O
2025-03-17 11:14:14.186,538, 417, 464, 46, -48, -38, -3, 4, 8, 952, 946, 48,O
2025-03-17 11:14:14.244,1018, 596, 43, -33, 54, -37, -4, 4, 7, 925, 897, 169,O
2025-03-17 11:14:14.296,491, 763, 707, -14, 16, 8, -1, 5, 3, 924, 844, 36,O
2025-03-17 11:14:14.557,681, 581, 448, 1, -16, 2, -1, 2, 10, 924, 851, 51,P
2025-03-17 11:14:14.610,690, 587, 446, 0, -18, 3, -4, 7, 7, 923, 855, 45,P
2025-03-17 11:14:14.658,699, 541, 441, -3, -16, 3, -2, 3, 7, 924, 894, 53,P
2025-03-17 11:14:14.716,747, 576, 424, -13, -1, -4, -4, 5, 7, 940, 927, 43,P
2025-03-17 11:14:14.769,822, 1069, 120, 27, 35, 35, -3, 4, 5, 960, 928, 29,P
2025-03-17 11:14:14.823,745, 695, 70, -12, 31, 25, -1, 4, 7, 967, 923, 43,P
2025-03-17 11:14:14.868,818, 128, 604, 17, -52, -72, -2, 3, 8, 949, 928, 32,P
2025-03-17 11:14:14.934,771, 584, 502, -27, -47, -17, -3, 4, 7, 965, 960, 152,P
2025-03-17 11:14:14.986,615, 757, 387, 6, 3, 15, -2, 3, 8, 974, 959, 42,P
2025-03-17 11:14:15.036,793, 584, -97, -3, 33, 17, -2, 4, 9, 968, 945, 46,P
2025-03-17 11:14:15.087,578, 545, 347, -48, 81, -50, -3, 5, 6, 955, 933, 35,P
2025-03-17 11:14:15.150,352, 733, 707, 22, -27, 17, -1, 3, 6, 954, 928, 130,P
2025-03-17 11:14:15.396,607, 571, 559, 4, -23, 13, 0, 4, 5, 944, 916, 299,Q
2025-03-17 11:14:15.449,637, 550, 513, 4, -29, 12, -2, 5, 4, 945, 918, 293,Q
2025-03-17 11:14:15.507,763, 480, 456, -6, -14, -21, -3, 4, 7, 948, 939, 38,Q
2025-03-17 11:14:15.556,703, 447, 165, 86, -10, -30, -4, 3, 9, 961, 922, 49,Q
2025-03-17 11:14:15.607,935, 395, 281, -37, 35, 44, -2, 6, 6, 972, 943, 52,Q
2025-03-17 11:14:15.669,480, 330, 637, -4, -38, -29, -1, 5, 8, 966, 953, 38,Q
2025-03-17 11:14:15.719,827, 579, 231, -10, 38, -40, -3, 2, 9, 951, 927, 39,Q
2025-03-17 11:14:15.777,637, -832, 118, 18, -15, -10, -2, 3, 9, 968, 945, 49,Q
2025-03-17 11:14:15.834,675, 513, 433, -2, 18, 42, -2, 5, 9, 976, 953, 30,Q
2025-03-17 11:14:15.886,884, 354, 85, -24, 81, -48, -3, 5, 5, 965, 930, 53,Q
2025-03-17 11:14:15.941,428, 673, 854, 1, 15, -39, -1, 6, 5, 941, 863, 42,Q
2025-03-17 11:14:16.216,733, 557, 394, 6, -8, 1, -2, 5, 6, 920, 866, 51,R
2025-03-17 11:14:16.267,728, 568, 381, 4, -6, -1, -3, 5, 7, 919, 864, 48,R
2025-03-17 11:14:16.326,633, 525, 524, 7, -17, -6, -3, 3, 8, 910, 865, 40,R
2025-03-17 11:14:16.376,769, 687, 458, 2, -12, -15, -2, 3, 9, 931, 915, 51,R
2025-03-17 11:14:16.432,899, 961, 296, 47, 29, 42, -5, 2, 9, 961, 926, 38,R
2025-03-17 11:14:16.485,707, 581, 156, 0, 23, 23, -2, 4, 7, 964, 915, 42,R
2025-03-17 11:14:16.537,504, 77, 536, 48, -57, -79, -2, 3, 5, 943, 923, 99,R
2025-03-17 11:14:16.591,722, 561, 588, 1, -36, -6, -3, 3, 7, 965, 961, 326,R
2025-03-17 11:14:16.646,695, 701, 312, -3, 22, 31, -2, 2, 9, 973, 961, 43,R
2025-03-17 11:14:16.703,879, 408, 416, -10, 25, 23, -1, 3, 10, 972, 952, 46,R
2025-03-17 11:14:16.752,824, 218, 372, -4, 7, 2, -2, 9, 5, 974, 950, 45,R
2025-03-17 11:14:16.803,535, 468, 581, 0, 52, -61, -2, 4, 6, 963, 935, 37,R
2025-03-17 11:14:17.088,694, 590, 441, -5, -4, 6, 0, 5, 2, 931, 908, 104,S
2025-03-17 11:14:17.137,701, 570, 451, -4, -5, 7, 0, 5, 2, 932, 909, 114,S
2025-03-17 11:14:17.189,708, 583, 441, 5, -8, 6, -2, 4, 6, 935, 917, 173,S
2025-03-17 11:14:17.242,741, 531, 419, 7, -11, 3, -3, 5, 5, 937, 919, 270,S
2025-03-17 11:14:17.297,667, 565, 477, 1, -7, 4, -2, 3, 8, 942, 929, 324,S
2025-03-17 11:14:17.350,687, 502, 259, -6, -3, -8, -4, 4, 6, 945, 938, 283,S
2025-03-17 11:14:17.399,754, 411, 441, 38, -1, -20, -2, 3, 8, 952, 938, 41,S
2025-03-17 11:14:17.456,1177, 892, 119, -48, 45, 33, -2, 2, 7, 967, 944, 37,S
2025-03-17 11:14:17.509,554, 821, 479, -38, 22, 36, -3, 4, 6, 969, 944, 48,S
2025-03-17 11:14:17.569,1077, 213, 270, 13, 18, -19, -2, 5, 2, 942, 851, 41,S
2025-03-17 11:14:17.620,319, 524, 949, -20, 42, -51, 0, 3, 2, 938, 896, 45,S
2025-03-17 11:14:17.863,743, 565, 345, -8, 1, -3, -3, 2, 6, 906, 852, 157,T
2025-03-17 11:14:17.906,731, 594, 404, -9, 3, -2, -3, 7, 8, 905, 849, 124,T
2025-03-17 11:14:17.965,657, 571, 483, -4, -4, 1, -3, 3, 7, 905, 831, 41,T
2025-03-17 11:14:18.017,703, 595, 409, -5, -6, 0, -2, 4, 6, 904, 810, 37,T
2025-03-17 11:14:18.067,636, 599, 487, -5, -9, -1, -2, 6, 5, 905, 811, 36,T
2025-03-17 11:14:18.118,780, 510, 438, 0, -31, -18, -2, 4, 8, 929, 860, 49,T
2025-03-17 11:14:18.177,795, 795, 563, 0, -29, 10, -2, 2, 10, 959, 944, 52,T
2025-03-17 11:14:18.226,405, 346, 488, 1, -5, 11, -3, 3, 6, 963, 947, 289,T
2025-03-17 11:14:18.286,759, 270, 301, -10, 22, -42, -2, 3, 7, 942, 905, 307,T
2025-03-17 11:14:18.336,645, 536, 642, 5, -44, 37, -4, 2, 10, 950, 913, 345,T
2025-03-17 11:14:18.392,793, 645, 188, -9, 43, 48, -3, 3, 9, 971, 941, 43,T
2025-03-17 11:14:18.448,695, 813, 246, 5, 30, 25, -3, 4, 8, 966, 922, 26,T
2025-03-17 11:14:18.500,824, 471, 284, -14, 29, -66, -3, 4, 6, 933, 871, 216,T
2025-03-17 11:14:18.556,509, 630, 616, -2, -16, -5, -3, 1, 8, 926, 897, 306,T
2025-03-17 11:14:18.607,742, 585, 322, 4, -15, 7, -4, 4, 4, 927, 899, 393,T
2025-03-17 11:14:18.665,693, 566, 425, -7, 4, -2, -3, 5, 4, 927, 895, 358,T
2025-03-17 11:14:18.717,692, 558, 452, 0, -4, 2, -1, 2, 7, 927, 895, 354,T
2025-03-17 11:14:18.977,713, 590, 421, -5, -1, 0, -3, 5, 7, 930, 879, 225,U
2025-03-17 11:14:19.036,712, 579, 426, -6, -1, 0, -2, 0, 7, 929, 878, 215,U
2025-03-17 11:14:19.087,713, 567, 423, -3, -1, 0, -4, 4, 7, 930, 884, 223,U
2025-03-17 11:14:19.143,684, 583, 454, -4, -6, 0, -2, 3, 6, 934, 893, 237,U
2025-03-17 11:14:19.197,724, 598, 394, -8, -4, -4, -2, 3, 8, 935, 902, 204,U
2025-03-17 11:14:19.252,718, 480, 516, -11, -8, -10, -2, 5, 7, 939, 919, 28,U
2025-03-17 11:14:19.307,954, 702, 351, 64, 20, 15, -2, 3, 7, 959, 912, 33,U
2025-03-17 11:14:19.357,706, 668, 219, -26, 21, 37, -1, 2, 7, 965, 931, 30,U
2025-03-17 11:14:19.417,496, 249, 596, -4, -44, -40, -4, 7, 6, 955, 943, 81,U
2025-03-17 11:14:19.468,718, 519, 452, 40, -18, -21, -4, 5, 5, 961, 936, 326,U
2025-03-17 11:14:19.518,824, 519, 283, -2, 25, 30, -2, 7, 3, 962, 927, 31,U
2025-03-17 11:14:19.582,668, 497, 420, -40, 57, -54, -2, 4, 5, 951, 914, 53,U
2025-03-17 11:14:19.853,699, 572, 469, 0, -4, 2, -1, 3, 6, 906, 768, 44,V
2025-03-17 11:14:19.901,705, 587, 447, 0, -4, 2, -2, 6, 2, 906, 766, 46,V
2025-03-17 11:14:19.951,691, 557, 476, 2, -2, 4, -2, 4, 5, 909, 778, 45,V
2025-03-17 11:14:20.000,721, 551, 439, 6, -5, 4, -1, 4, 5, 909, 780, 37,V
2025-03-17 11:14:20.057,715, 554, 447, -3, -4, -1, -2, 5, 6, 910, 788, 52,V
2025-03-17 11:14:20.106,616, 555, 502, -1, -20, -7, -3, 5, 5, 913, 810, 44,V
2025-03-17 11:14:20.166,707, 607, 466, -19, -12, -10, -2, 3, 8, 930, 886, 42,V
2025-03-17 11:14:20.217,855, 1241, 237, -7, 34, 43, -3, 4, 9, 959, 920, 30,V
2025-03-17 11:14:20.267,715, 607, 209, -18, 15, 27, -3, 6, 7, 966, 929, 38,V
2025-03-17 11:14:20.326,621, 360, 649, 48, -43, -37, -2, 6, 7, 960, 948, 28,V
2025-03-17 11:14:20.383,862, 569, 148, -23, 72, -26, -1, 4, 8, 939, 906, 427,V
2025-03-17 11:14:20.439,535, 603, 703, -15, 31, -4, -2, 6, 3, 928, 873, 235,V
2025-03-17 11:14:20.746,687, 554, 476, 4, -10, -5, -1, 4, 5, 900, 690, 38,W
2025-03-17 11:14:20.806,701, 551, 469, 7, -9, -5, -2, 5, 4, 896, 689, 45,W
2025-03-17 11:14:20.856,709, 570, 447, 4, -5, -2, -1, 4, 7, 896, 690, 29,W
2025-03-17 11:14:20.906,685, 578, 457, 4, -5, -1, -2, 5, 6, 901, 721, 37,W
2025-03-17 11:14:20.956,724, 598, 430, -8, -3, 3, -1, 3, 7, 904, 726, 49,W
2025-03-17 11:14:21.015,598, 571, 520, -17, -27, -7, -3, 3, 7, 911, 795, 34,W
2025-03-17 11:14:21.069,730, 403, 386, -17, -13, -13, -2, 5, 5, 943, 911, 37,W
2025-03-17 11:14:21.126,541, 629, 397, -11, 41, 78, -4, 3, 7, 966, 934, 135,W
2025-03-17 11:14:21.176,739, 671, 438, -25, 8, 17, -4, 6, 5, 970, 941, 31,W
2025-03-17 11:14:21.236,872, 562, 380, 3, -29, -22, -3, 5, 7, 964, 948, 233,W
2025-03-17 11:14:21.288,753, 993, 141, -10, 35, 49, -4, 5, 7, 969, 940, 28,W
2025-03-17 11:14:21.337,746, 508, 934, -64, -30, 10, -4, 4, 5, 970, 949, 43,W
2025-03-17 11:14:21.401,1083, 467, -84, 23, 42, -36, -4, 3, 9, 959, 916, 47,W
2025-03-17 11:14:21.454,436, 644, 858, -17, 64, -22, -4, 5, 5, 949, 881, 36,W
2025-03-17 11:14:21.758,696, 561, 459, -4, -7, -3, -3, 3, 6, 927, 843, 42,X
2025-03-17 11:14:21.807,707, 563, 456, -5, -7, -2, -1, 5, 7, 929, 844, 35,X
2025-03-17 11:14:21.864,691, 567, 472, -3, -8, 1, -2, 4, 6, 933, 858, 47,X
2025-03-17 11:14:21.917,736, 548, 419, 1, -9, 6, -1, 0, 11, 935, 874, 111,X
2025-03-17 11:14:21.966,729, 523, 440, 3, -8, 4, -2, 4, 7, 937, 889, 253,X
2025-03-17 11:14:22.020,750, 408, 373, -6, -5, -7, -2, 4, 7, 946, 920, 213,X
2025-03-17 11:14:22.071,671, 501, 552, 15, -7, -9, -3, 5, 8, 958, 930, 38,X
2025-03-17 11:14:22.126,1325, 937, 105, 10, 33, 20, -3, 5, 7, 962, 895, 49,X
2025-03-17 11:14:22.177,875, 424, 647, -32, 30, 1, -1, 4, 6, 946, 872, 49,X
2025-03-17 11:14:22.236,409, 713, 804, -3, -32, -7, -2, 4, 7, 944, 923, 226,X
2025-03-17 11:14:22.287,1002, 1149, 20, -25, 18, 54, -4, 4, 7, 970, 953, 52,X
2025-03-17 11:14:22.347,713, 605, 504, -18, 19, 32, -2, 5, 8, 970, 941, 31,X
2025-03-17 11:14:22.397,624, 453, 401, 9, 33, -65, -2, 5, 5, 943, 901, 45,X
2025-03-17 11:14:22.666,702, 555, 463, -4, -4, 0, -3, 3, 7, 926, 862, 224,Y
2025-03-17 11:14:22.716,702, 542, 459, -2, -4, -1, -5, 6, 5, 926, 863, 217,Y
2025-03-17 11:14:22.780,718, 563, 432, -4, -2, -1, -1, 2, 8, 926, 867, 176,Y
2025-03-17 11:14:22.832,710, 577, 433, -5, -2, -3, -3, 4, 7, 927, 870, 162,Y
2025-03-17 11:14:22.886,684, 563, 460, -4, -7, -1, -4, 4, 6, 927, 872, 44,Y
2025-03-17 11:14:22.936,682, 551, 471, -15, -8, -9, -1, 3, 8, 930, 886, 41,Y
2025-03-17 11:14:22.992,795, 299, 579, 45, -14, -14, -1, 0, 9, 956, 930, 46,Y
2025-03-17 11:14:23.047,690, 470, 371, 1, 37, 41, -3, 5, 7, 966, 940, 240,Y
2025-03-17 11:14:23.104,763, 292, 437, -9, -8, -32, -4, 7, 4, 957, 935, 440,Y
2025-03-17 11:14:23.157,1981, 186, 468, -14, -25, -17, -2, 5, 8, 961, 940, 421,Y
2025-03-17 11:14:23.215,257, 950, -48, -4, 62, 55, -3, 4, 6, 971, 931, 37,Y
2025-03-17 11:14:23.266,782, 419, 460, 7, 43, 17, -3, 6, 4, 960, 870, 48,Y
2025-03-17 11:14:23.316,848, 459, 302, -22, 15, -62, -2, 5, 5, 920, 816, 144,Y
2025-03-17 11:14:23.376,474, 686, 686, -6, -23, -20, -1, 1, 4, 912, 862, 96,Y
2025-03-17 11:14:23.637,697, 545, 491, -3, -2, -2, -3, 5, 6, 906, 810, 49,Z
2025-03-17 11:14:23.693,687, 551, 490, 1, -4, -1, -1, 4, 9, 907, 809, 48,Z
2025-03-17 11:14:23.742,729, 553, 422, 2, -7, 0, -4, 5, 7, 913, 825, 50,Z
2025-03-17 11:14:23.798,716, 554, 451, -1, -4, 0, -2, 4, 7, 918, 834, 54,Z
2025-03-17 11:14:23.849,653, 559, 500, 1, -11, 0, -2, 5, 8, 921, 837, 39,Z
2025-03-17 11:14:23.901,718, 584, 359, -14, -3, -11, -3, 2, 8, 935, 879, 23,Z
2025-03-17 11:14:23.956,842, 902, 451, 30, -20, 14, -3, 1, 9, 959, 943, 170,Z
2025-03-17 11:14:24.007,649, 663, 372, 38, 15, 21, -2, 3, 9, 964, 936, 293,Z
2025-03-17 11:14:24.067,1095, 387, 573, -44, 13, -11, -3, 3, 6, 960, 889, 31,Z
2025-03-17 11:14:24.124,1021, 834, 499, -31, 5, 28, -4, 5, 6, 971, 945, 49,Z
2025-03-17 11:14:24.166,708, 499, 459, 10, 2, 10, -1, 6, 6, 968, 947, 37,Z
2025-03-17 11:14:24.230,397, 548, 539, 17, 11, -79, -2, 4, 6, 952, 907, 40,Z
2025-03-17 11:14:24.283,828, 37, -165, -6, -23, -21, -3, 1, 7, 961, 938, 35,Z
2025-03-17 11:14:24.337,746, 754, 425, -7, 7, 31, -1, 1, 8, 971, 954, 43,Z
2025-03-17 11:14:24.387,792, 350, 295, 0, 24, -11, -4, 3, 7, 962, 933, 291,Z
2025-03-17 11:14:24.708,681, 584, 476, -6, -3, 7, -1, 3, 7, 927, 826, 41,a
2025-03-17 11:14:24.763,701, 581, 434, -7, -4, 7, -4, 4, 7, 925, 828, 38,a
2025-03-17 11:14:24.816,715, 568, 418, -3, -2, 2, -3, 2, 7, 927, 836, 38,a
2025-03-17 11:14:24.865,704, 588, 446, 3, -7, 8, -4, 4, 5, 930, 849, 31,a
2025-03-17 11:14:24.916,755, 553, 380, 6, -6, 8, -4, 6, 6, 937, 862, 121,a
2025-03-17 11:14:24.970,658, 545, 490, 2, -8, 7, -2, 3, 8, 941, 876, 165,a
2025-03-17 11:14:25.023,739, 601, 410, -19, -1, -6, -3, 4, 7, 945, 916, 38,a
2025-03-17 11:14:25.076,753, 435, 414, 0, -8, -21, -2, 3, 8, 954, 916, 34,a
2025-03-17 11:14:25.132,582, 764, 252, -14, 34, 35, -3, 3, 9, 968, 913, 48,a
2025-03-17 11:14:25.182,568, 426, 648, -16, -7, 6, -2, 5, 7, 970, 947, 42,a
2025-03-17 11:14:25.236,724, 453, 526, 20, -21, -13, -3, 4, 8, 968, 947, 48,a
2025-03-17 11:14:25.290,781, 502, 246, 0, 18, 15, -2, 3, 8, 969, 940, 47,a
2025-03-17 11:14:25.348,757, 490, 354, -20, 33, -36, -3, 6, 5, 961, 917, 41,a
2025-03-17 11:14:25.626,705, 557, 450, -10, -8, -2, -3, 4, 8, 931, 870, 38,b
2025-03-17 11:14:25.683,734, 567, 437, -9, -9, -1, -2, 4, 7, 930, 870, 45,b
2025-03-17 11:14:25.737,720, 558, 429, -6, -1, 0, -2, 1, 8, 935, 876, 51,b
2025-03-17 11:14:25.787,704, 539, 434, 1, -6, -5, -3, 5, 7, 932, 884, 34,b
2025-03-17 11:14:25.836,653, 567, 474, 0, -18, -10, -3, 3, 7, 928, 896, 29,b
2025-03-17 11:14:25.898,821, 592, 485, 0, -5, -12, -3, 3, 10, 944, 920, 43,b
2025-03-17 11:14:25.950,478, 824, 205, -11, 77, 67, -1, 2, 10, 965, 914, 38,b
2025-03-17 11:14:26.004,733, 641, 366, -5, 16, 13, -4, 4, 6, 958, 887, 47,b
2025-03-17 11:14:26.056,868, 691, 370, 11, -30, -21, -3, 5, 5, 953, 919, 299,b
2025-03-17 11:14:26.114,528, 849, 270, 19, 4, 17, -3, 4, 7, 970, 943, 167,b
2025-03-17 11:14:26.166,802, 474, 89, -13, 28, 12, -5, 5, 5, 965, 929, 49,b
2025-03-17 11:14:26.216,1043, 487, 269, -11, 31, -53, -1, 4, 6, 942, 823, 47,b
2025-03-17 11:14:26.267,480, 724, 732, 1, -10, -18, 0, 3, 3, 932, 852, 160,b
2025-03-17 11:14:26.516,722, 565, 407, -7, 2, 0, -2, 3, 7, 931, 872, 211,c
2025-03-17 11:14:26.569,718, 569, 429, -7, 2, 0, -3, 4, 6, 933, 870, 198,c
2025-03-17 11:14:26.626,712, 560, 442, 0, -5, 2, -3, 3, 6, 932, 877, 216,c
2025-03-17 11:14:26.680,714, 577, 433, -3, -1, 3, -2, 3, 7, 938, 882, 239,c
2025-03-17 11:14:26.733,701, 567, 409, -5, -9, 3, -1, 2, 7, 939, 886, 193,c
2025-03-17 11:14:26.786,711, 474, 391, -21, -4, -10, -4, 4, 6, 947, 918, 51,c
2025-03-17 11:14:26.842,373, 487, 534, -10, -10, -21, -2, 3, 9, 958, 923, 31,c
2025-03-17 11:14:26.897,699, 961, -117, 37, 37, 35, -2, 2, 8, 968, 932, 37,c
2025-03-17 11:14:26.949,707, 503, 727, -8, -16, 20, -2, 4, 8, 967, 942, 46,c
2025-03-17 11:14:27.007,631, 544, 370, -18, 54, -57, -3, 2, 7, 943, 919, 130,c
2025-03-17 11:14:27.296,708, 575, 445, 4, -5, 5, -3, 3, 8, 924, 861, 38,d
2025-03-17 11:14:27.348,714, 569, 439, 4, -5, 4, -1, 6, 5, 925, 861, 29,d
2025-03-17 11:14:27.399,724, 542, 459, 4, -5, 4, -3, 4, 6, 927, 868, 49,d
2025-03-17 11:14:27.451,747, 571, 389, 0, -4, 0, -3, 3, 7, 925, 865, 38,d
2025-03-17 11:14:27.502,699, 578, 451, 0, 0, 2, -3, 2, 10, 926, 871, 36,d
2025-03-17 11:14:27.557,652, 574, 494, 7, -19, 10, -2, 3, 7, 938, 890, 49,d
2025-03-17 11:14:27.606,614, 508, 487, -33, -15, -14, -1, 4, 7, 944, 930, 37,d
2025-03-17 11:14:27.668,1132, 287, 521, 18, -16, -22, -2, 4, 7, 954, 926, 45,d
2025-03-17 11:14:27.717,471, 462, 333, -3, 27, 36, -4, 2, 8, 968, 932, 37,d
2025-03-17 11:14:27.777,582, 291, 514, -11, -37, -15, -2, 4, 8, 963, 952, 38,d
2025-03-17 11:14:27.831,700, 430, 642, 23, -26, -25, -2, 2, 9, 959, 954, 44,d
2025-03-17 11:14:27.883,355, 763, 261, -36, 55, 56, -3, 3, 8, 970, 948, 27,d
2025-03-17 11:14:27.941,911, 186, 560, -22, 4, -20, -3, 5, 6, 966, 937, 45,d
2025-03-17 11:14:28.240,707, 556, 429, -3, 1, 0, -2, 3, 7, 937, 881, 38,e
2025-03-17 11:14:28.287,707, 553, 446, -2, 0, 0, 0, 3, 5, 936, 882, 52,e
2025-03-17 11:14:28.341,706, 570, 432, 1, -2, 0, -2, 4, 7, 938, 876, 34,e
2025-03-17 11:14:28.391,700, 560, 461, 2, -9, 1, -1, 3, 7, 939, 871, 42,e
2025-03-17 11:14:28.446,787, 643, 418, -4, 1, -8, -2, 4, 9, 948, 900, 49,e
2025-03-17 11:14:28.499,762, 630, 280, -31, 6, 30, -3, 4, 8, 968, 941, 55,e
2025-03-17 11:14:28.549,682, 523, 673, -20, -17, 2, -3, 3, 5, 965, 949, 32,e
2025-03-17 11:14:28.606,1118, 418, 549, 28, -14, -30, -3, 4, 9, 961, 940, 51,e
2025-03-17 11:14:28.663,804, 489, 120, 3, 25, 23, -3, 4, 7, 972, 942, 34,e
2025-03-17 11:14:28.706,631, 401, 618, -16, 1, 16, -2, 4, 7, 968, 944, 43,e
2025-03-17 11:14:28.767,461, 524, 762, -6, 25, -25, -2, 3, 6, 949, 928, 33,e
2025-03-17 11:14:29.050,715, 546, 461, 8, -2, 10, -2, 4, 5, 941, 875, 37,f
2025-03-17 11:14:29.098,723, 554, 428, 7, -1, 10, -3, 6, 5, 940, 876, 46,f
2025-03-17 11:14:29.148,726, 529, 475, 5, -1, 7, -2, 3, 7, 939, 868, 44,f
2025-03-17 11:14:29.206,817, 515, 349, -5, -4, -2, -2, 5, 5, 938, 860, 32,f
2025-03-17 11:14:29.256,725, 547, 415, -19, 1, 0, -2, 6, 4, 943, 880, 38,f
2025-03-17 11:14:29.313,945, 655, 464, -33, -33, -46, -2, 2, 8, 946, 945, 42,f
2025-03-17 11:14:29.367,690, 501, 509, 8, -26, -14, -4, 4, 9, 960, 962, 263,f
2025-03-17 11:14:29.416,750, 842, 70, 16, 14, 23, -3, 3, 8, 965, 955, 314,f
2025-03-17 11:14:29.477,489, 615, 446, 17, 29, -26, -3, 4, 8, 956, 942, 107,f
2025-03-17 11:14:29.531,826, 340, 44, -27, -1, -2, -3, 3, 6, 968, 961, 30,f
2025-03-17 11:14:29.581,855, 686, 392, -16, 7, 22, -2, 4, 8, 972, 962, 41,f
2025-03-17 11:14:29.636,625, 615, 322, -12, 65, -52, -1, 2, 8, 959, 939, 52,f
2025-03-17 11:14:29.916,681, 546, 475, 10, -13, 13, -4, 4, 6, 944, 884, 190,g
2025-03-17 11:14:29.966,710, 546, 448, 10, -15, 13, -3, 1, 7, 946, 886, 188,g
2025-03-17 11:14:30.018,782, 526, 360, -6, -6, 0, -3, 5, 6, 949, 907, 181,g
2025-03-17 11:14:30.080,696, 585, 467, -18, -7, -9, -3, 4, 8, 951, 934, 37,g
2025-03-17 11:14:30.133,436, 475, 499, -9, -13, -20, -4, 3, 7, 956, 939, 46,g
2025-03-17 11:14:30.186,871, 535, 423, 2, 37, 38, -1, 4, 6, 967, 938, 24,g
2025-03-17 11:14:30.236,653, 561, 647, -25, 16, 21, -4, 7, 4, 965, 946, 46,g
2025-03-17 11:14:30.297,832, 427, 530, 31, -21, -22, -2, 4, 8, 955, 938, 220,g
2025-03-17 11:14:30.350,1119, 912, 486, 5, 40, 38, -2, 4, 7, 966, 931, 38,g
2025-03-17 11:14:30.398,728, 468, 408, -51, 25, 24, -2, 6, 5, 960, 916, 38,g
2025-03-17 11:14:30.456,1092, 429, 112, 17, 44, -68, 0, 6, 5, 933, 838, 55,g
2025-03-17 11:14:30.507,379, 602, 769, -6, -3, -38, -4, 3, 4, 922, 876, 37,g
2025-03-17 11:14:30.759,748, 561, 359, 1, -2, 5, -2, 2, 8, 912, 868, 381,h
2025-03-17 11:14:30.807,731, 586, 381, 0, 0, 5, -5, 3, 7, 912, 867, 382,h
2025-03-17 11:14:30.862,692, 570, 442, -1, -6, 3, -2, 3, 8, 913, 867, 387,h
2025-03-17 11:14:30.915,737, 565, 391, -9, -13, 1, -4, 4, 8, 918, 884, 408,h
2025-03-17 11:14:30.968,747, 419, 544, 4, -5, -6, -3, 3, 8, 937, 912, 361,h
2025-03-17 11:14:31.018,562, 758, 500, 26, 25, 27, -3, 5, 7, 960, 917, 53,h
2025-03-17 11:14:31.068,759, 383, 197, 0, 18, 18, -3, 3, 7, 961, 915, 43,h
2025-03-17 11:14:31.129,515, 132, 520, -11, -44, -28, -4, 3, 9, 957, 930, 32,h
2025-03-17 11:14:31.182,691, 666, 303, 18, -14, -2, -4, 6, 7, 965, 937, 34,h
2025-03-17 11:14:31.231,820, 491, 450, 5, 26, 24, -4, 6, 6, 964, 930, 48,h
2025-03-17 11:14:31.292,653, 479, 511, -13, 34, -53, -3, 4, 6, 946, 912, 51,h
2025-03-17 11:14:31.591,700, 681, 316, 16, -7, 87, -4, 0, 7, 936, 823, 46,i
2025-03-17 11:14:31.637,802, 659, 336, 7, -7, 83, -1, 1, 10, 938, 833, 43,i
2025-03-17 11:14:31.698,848, 481, 326, -9, 3, 33, -5, 5, 6, 944, 869, 49,i
2025-03-17 11:14:31.747,728, 558, 431, -8, 9, 9, -4, 5, 8, 946, 888, 35,i
2025-03-17 11:14:31.797,725, 526, 440, 1, -6, 2, -2, 3, 7, 947, 891, 29,i
2025-03-17 11:14:31.847,760, 561, 401, -6, -9, -3, -2, 3, 10, 946, 896, 32,i
2025-03-17 11:14:31.906,836, 523, 444, -11, -11, -14, -3, 4, 10, 954, 928, 38,i
2025-03-17 11:14:31.956,781, 827, 337, 3, 27, 30, -4, 5, 9, 967, 939, 40,i
2025-03-17 11:14:32.017,727, 436, 356, -12, 20, 18, -3, 5, 7, 966, 935, 45,i
2025-03-17 11:14:32.067,458, 796, 833, -33, -21, -57, -3, 3, 8, 960, 944, 40,i
2025-03-17 11:14:32.127,839, 397, -207, 16, -5, -8, -3, 1, 11, 968, 960, 20,i
2025-03-17 11:14:32.180,969, 145, 290, -13, 54, -7, -2, 5, 8, 962, 942, 49,i
2025-03-17 11:14:32.231,501, 476, 720, -9, 23, -3, -5, 6, 4, 958, 923, 42,i
2025-03-17 11:14:32.510,732, 527, 443, 2, -2, 1, -4, 4, 7, 941, 864, 29,j
2025-03-17 11:14:32.566,719, 534, 433, 0, -4, 0, -4, 6, 10, 942, 865, 39,j
2025-03-17 11:14:32.617,687, 523, 486, -9, -14, -6, -4, 4, 7, 936, 872, 49,j
2025-03-17 11:14:32.667,813, 495, 309, 12, -1, -1, -3, 6, 6, 953, 906, 34,j
2025-03-17 11:14:32.718,826, 850, 146, 1, 35, 46, -4, 5, 9, 965, 923, 42,j
2025-03-17 11:14:32.778,688, 513, 333, -71, 31, 28, -2, 7, 5, 964, 931, 44,j
2025-03-17 11:14:32.831,991, 956, 204, 18, -51, -99, -2, 5, 7, 956, 939, 47,j
2025-03-17 11:14:32.890,622, 767, 673, -7, -30, -14, -3, 5, 10, 968, 968, 27,j
2025-03-17 11:14:32.946,851, 526, 434, -19, 29, 36, -5, 6, 10, 966, 956, 49,j
2025-03-17 11:14:32.997,560, 577, 713, -12, 38, -15, -3, 6, 6, 961, 943, 44,j
2025-03-17 11:14:33.275,689, 542, 448, 3, 0, -2, -2, 4, 6, 943, 874, 33,k
2025-03-17 11:14:33.327,711, 563, 447, 2, -1, -3, -2, 5, 8, 941, 875, 44,k
2025-03-17 11:14:33.381,707, 530, 453, -3, -6, -5, -5, 5, 7, 939, 866, 41,k
2025-03-17 11:14:33.431,661, 580, 490, 5, -20, 7, -3, 2, 8, 938, 880, 40,k
2025-03-17 11:14:33.486,769, 637, 271, -9, -6, -3, -2, 1, 10, 951, 921, 29,k
2025-03-17 11:14:33.540,721, 515, 502, 27, -9, -7, -4, 6, 8, 959, 925, 44,k
2025-03-17 11:14:33.589,762, 744, 250, 6, 41, 33, -2, 2, 9, 965, 898, 31,k
2025-03-17 11:14:33.639,812, 719, 443, -34, 5, 21, -1, 4, 9, 968, 938, 42,k
2025-03-17 11:14:33.697,698, 542, 298, 14, -17, -3, -5, 6, 8, 968, 956, 43,k
2025-03-17 11:14:33.748,854, 489, 84, 8, 37, -27, -4, 4, 8, 957, 927, 33,k
2025-03-17 11:14:33.797,522, 882, 827, 13, -55, 44, -3, 4, 8, 956, 902, 37,k
2025-03-17 11:14:33.860,1046, 759, 352, -32, 17, 47, -4, 4, 9, 972, 945, 40,k
2025-03-17 11:14:33.913,1016, 88, 80, -7, 50, -43, -4, 5, 8, 962, 915, 47,k
2025-03-17 11:14:34.180,758, 562, 376, -6, -2, 1, -2, 3, 8, 927, 858, 149,l
2025-03-17 11:14:34.232,737, 556, 416, -7, -1, 1, -4, 5, 6, 925, 859, 155,l
2025-03-17 11:14:34.286,700, 560, 437, -4, -11, 2, -4, 4, 7, 926, 870, 203,l
2025-03-17 11:14:34.339,682, 540, 472, -2, -27, 0, -4, 6, 6, 930, 890, 267,l
2025-03-17 11:14:34.396,775, 589, 286, -12, -4, -6, -3, 3, 8, 935, 917, 226,l
2025-03-17 11:14:34.449,730, 424, 643, 15, -20, -11, -3, 4, 10, 958, 932, 49,l
2025-03-17 11:14:34.507,375, 635, 540, -17, 39, 37, -4, 3, 10, 971, 931, 40,l
2025-03-17 11:14:34.561,799, 536, 433, -10, 21, 7, -6, 5, 7, 964, 926, 50,l
2025-03-17 11:14:34.617,585, 546, 619, -25, 57, -52, -4, 6, 3, 941, 916, 108,l
2025-03-17 11:14:34.667,517, 601, 619, 11, -16, 4, -3, 4, 6, 927, 896, 162,l
2025-03-17 11:14:34.914,727, 551, 433, 0, -6, 2, -4, 6, 6, 922, 859, 39,m
2025-03-17 11:14:34.962,720, 559, 436, 1, -6, 3, -1, 4, 6, 923, 862, 50,m
2025-03-17 11:14:35.014,737, 565, 397, 3, -5, 4, -4, 5, 7, 923, 864, 46,m
2025-03-17 11:14:35.067,727, 552, 398, -4, -7, 4, -3, 4, 7, 929, 876, 49,m
2025-03-17 11:14:35.116,760, 595, 303, -22, -4, -6, -3, 6, 9, 940, 910, 22,m
2025-03-17 11:14:35.168,724, 425, 523, 4, -15, -11, -4, 3, 8, 959, 936, 43,m
2025-03-17 11:14:35.228,635, 910, 258, -29, 31, 33, -1, 4, 7, 969, 929, 25,m
2025-03-17 11:14:35.280,887, 527, 582, -29, 0, 8, -2, 5, 7, 965, 940, 39,m
2025-03-17 11:14:35.329,701, 599, 441, -14, -25, -8, -2, 4, 9, 967, 949, 41,m
2025-03-17 11:14:35.386,724, 563, 186, -3, 16, 26, -4, 4, 9, 973, 950, 53,m
2025-03-17 11:14:35.439,794, 597, 437, -25, 12, 11, -3, 6, 7, 970, 952, 37,m
2025-03-17 11:14:35.494,746, 564, 472, 3, -30, -9, -4, 6, 8, 971, 956, 47,m
2025-03-17 11:14:35.547,745, 646, 128, -1, 37, 33, -4, 3, 11, 972, 953, 40,m
2025-03-17 11:14:35.603,761, 511, 345, -39, 63, -41, -3, 6, 7, 964, 943, 40,m
2025-03-17 11:14:35.907,732, 543, 402, 2, -1, 2, -4, 4, 9, 941, 897, 34,n
2025-03-17 11:14:35.962,733, 557, 407, 0, -2, 2, -3, 4, 7, 942, 899, 28,n
2025-03-17 11:14:36.015,709, 518, 418, 2, -2, -4, -3, 5, 5, 941, 898, 39,n
2025-03-17 11:14:36.067,695, 523, 458, 0, -16, -6, -4, 4, 8, 940, 904, 32,n
2025-03-17 11:14:36.125,763, 593, 384, -21, -5, -5, -2, 4, 9, 949, 926, 40,n
2025-03-17 11:14:36.166,721, 789, 358, 1, 19, 26, -4, 4, 8, 964, 931, 31,n
2025-03-17 11:14:36.227,773, 611, 394, -26, 12, 17, -2, 5, 7, 967, 938, 36,n
2025-03-17 11:14:36.281,948, 361, 479, 10, -50, -31, -3, 6, 8, 966, 952, 46,n
2025-03-17 11:14:36.336,697, 684, 325, 12, -1, 19, -4, 5, 8, 973, 952, 51,n
2025-03-17 11:14:36.388,808, 481, 297, -8, 27, 18, -4, 4, 8, 969, 947, 46,n
2025-03-17 11:14:36.444,639, 492, 601, -19, 46, -39, -1, 5, 6, 959, 934, 28,n
2025-03-17 11:14:36.726,715, 542, 458, -5, 1, -1, -3, 6, 7, 943, 894, 33,o
2025-03-17 11:14:36.778,717, 537, 468, -2, 0, 1, -3, 6, 7, 943, 897, 27,o
2025-03-17 11:14:36.826,753, 533, 410, 1, -3, 3, -2, 4, 8, 944, 902, 51,o
2025-03-17 11:14:36.878,708, 556, 456, 1, -4, 5, -3, 4, 7, 944, 908, 48,o
2025-03-17 11:14:36.928,680, 508, 481, -4, -28, 2, -3, 7, 6, 946, 924, 36,o
2025-03-17 11:14:36.978,651, 500, 535, -8, -9, -15, -4, 5, 10, 950, 938, 46,o
2025-03-17 11:14:37.038,899, 650, 305, 8, 36, 24, -2, 2, 9, 964, 922, 36,o
2025-03-17 11:14:37.088,762, 652, 565, -78, 16, 38, -3, 5, 7, 968, 949, 43,o
2025-03-17 11:14:37.146,585, 175, 733, 37, -33, -36, -3, 6, 7, 960, 951, 30,o
2025-03-17 11:14:37.201,1009, 516, 60, -24, 52, -38, -3, 6, 9, 934, 920, 42,o
2025-03-17 11:14:37.496,729, 528, 456, -4, 0, 3, -2, 6, 6, 913, 803, 30,p
2025-03-17 11:14:37.546,731, 523, 462, -3, -2, 3, -2, 6, 6, 914, 806, 38,p
2025-03-17 11:14:37.601,735, 539, 428, -1, -6, 2, -4, 6, 6, 917, 818, 42,p
2025-03-17 11:14:37.650,700, 530, 493, -5, -13, 0, -2, 4, 7, 919, 853, 34,p
2025-03-17 11:14:37.711,788, 556, 289, -18, -26, -2, -6, 6, 5, 933, 897, 45,p
2025-03-17 11:14:37.757,771, 510, 378, 41, 3, -1, -4, 5, 8, 956, 919, 39,p
2025-03-17 11:14:37.816,794, 525, 258, -27, 45, 56, -4, 6, 6, 969, 919, 42,p
2025-03-17 11:14:37.866,659, 209, 772, -41, -12, -17, -2, 7, 6, 960, 929, 38,p
2025-03-17 11:14:37.927,833, 517, 301, -56, -42, -28, -2, 4, 9, 963, 954, 50,p
2025-03-17 11:14:37.980,668, 806, 419, -7, 4, 21, -2, 5, 9, 977, 962, 43,p
2025-03-17 11:14:38.031,745, 484, 188, -24, 26, 27, -4, 6, 7, 974, 954, 50,p
2025-03-17 11:14:38.086,1073, 489, 81, -28, 46, -39, -3, 7, 7, 964, 945, 40,p
2025-03-17 11:14:38.396,740, 505, 462, 2, -7, 2, -3, 6, 8, 949, 927, 44,q
2025-03-17 11:14:38.448,738, 511, 449, 2, -7, 3, -2, 4, 9, 949, 927, 38,q
2025-03-17 11:14:38.496,741, 505, 443, -4, -9, 2, -4, 6, 8, 951, 930, 46,q
2025-03-17 11:14:38.557,728, 476, 474, -16, -5, -10, -1, 7, 8, 956, 943, 23,q
2025-03-17 11:14:38.610,813, 449, 465, 15, -2, -15, -2, 4, 7, 961, 943, 49,q
2025-03-17 11:14:38.663,754, 378, 341, 6, 22, 22, -4, 4, 8, 972, 939, 41,q
2025-03-17 11:14:38.716,631, 345, 762, -33, 1, 17, -3, 8, 5, 970, 953, 48,q
2025-03-17 11:14:38.767,689, 424, 464, 2, -22, -19, -4, 5, 9, 964, 955, 34,q
2025-03-17 11:14:38.819,518, 776, 311, 24, 49, 34, -4, 6, 8, 970, 947, 41,q
2025-03-17 11:14:38.878,762, 457, 275, -40, 21, 23, -3, 9, 5, 975, 954, 38,q
2025-03-17 11:14:38.929,893, 443, 361, 29, -19, -30, -3, 7, 7, 964, 952, 39,q
2025-03-17 11:14:39.226,728, 507, 469, -5, 0, -1, -2, 4, 8, 937, 885, 47,r
2025-03-17 11:14:39.287,716, 508, 474, -4, -1, -1, -1, 5, 8, 937, 885, 51,r
2025-03-17 11:14:39.337,742, 503, 455, 0, -4, 1, -3, 5, 7, 936, 895, 47,r
2025-03-17 11:14:39.386,764, 492, 454, 1, -7, 1, -3, 6, 6, 936, 900, 48,r
2025-03-17 11:14:39.443,737, 500, 463, -3, -3, -2, -2, 5, 8, 939, 905, 48,r
2025-03-17 11:14:39.496,695, 528, 466, -5, -17, -2, -2, 5, 8, 940, 914, 29,r
2025-03-17 11:14:39.550,798, 393, 557, 3, -1, -9, -4, 7, 9, 954, 941, 40,r
2025-03-17 11:14:39.598,864, 1020, 254, -45, 45, 54, -4, 6, 8, 969, 942, 43,r
2025-03-17 11:14:39.660,806, 606, 368, -94, 17, 23, -2, 8, 7, 971, 951, 37,r
2025-03-17 11:14:39.713,532, 536, 590, 12, -20, -12, -3, 9, 6, 972, 961, 24,r
2025-03-17 11:14:39.766,776, 342, 324, -29, 64, -22, -3, 8, 7, 968, 957, 50,r
2025-03-17 11:14:39.817,499, 442, 749, -5, 4, -11, -2, 6, 6, 959, 938, 51,r
2025-03-17 11:14:40.097,717, 490, 524, 6, -10, 4, -3, 6, 7, 952, 923, 49,s
2025-03-17 11:14:40.147,729, 486, 495, 8, -12, 4, -3, 7, 9, 951, 924, 47,s
2025-03-17 11:14:40.197,787, 471, 434, 5, -4, 1, -3, 6, 6, 950, 922, 40,s
2025-03-17 11:14:40.247,753, 486, 463, 1, -7, -1, -3, 7, 6, 951, 920, 39,s
2025-03-17 11:14:40.306,773, 487, 429, -4, 1, 0, -3, 6, 9, 952, 922, 37,s
2025-03-17 11:14:40.356,753, 493, 475, 0, -3, 5, -1, 8, 8, 955, 924, 37,s
2025-03-17 11:14:40.410,733, 552, 463, -14, -4, -1, -4, 8, 7, 958, 935, 48,s
2025-03-17 11:14:40.466,677, 319, 565, 15, -13, -15, -4, 7, 8, 959, 943, 49,s
2025-03-17 11:14:40.517,980, 604, 308, 5, 15, 1, -4, 7, 10, 968, 942, 39,s
2025-03-17 11:14:40.567,643, 680, 588, 3, 12, 16, -3, 5, 8, 972, 942, 37,s
2025-03-17 11:14:40.616,748, 317, 343, 0, 17, 10, -4, 9, 6, 960, 930, 37,s
2025-03-17 11:14:40.675,915, 472, 134, -54, 84, -50, -3, 7, 5, 948, 900, 43,s
2025-03-17 11:14:40.971,648, 610, 636, 9, 4, -74, -1, 0, 6, 883, 697, 38,t
2025-03-17 11:14:41.029,626, 593, 645, 15, -2, -72, -5, 3, 6, 880, 677, 30,t
2025-03-17 11:14:41.079,545, 654, 550, 21, -22, -45, -2, -2, 6, 883, 586, 26,t
2025-03-17 11:14:41.144,624, 778, 349, 18, -22, -32, -4, 0, 8, 888, 497, 44,t
2025-03-17 11:14:41.197,574, 748, 324, 10, -20, -24, -4, -5, 9, 885, 485, 106,t
2025-03-17 11:14:41.247,454, 814, 327, 6, 4, 15, -5, -5, 10, 885, 460, 136,t
2025-03-17 11:14:41.307,579, 783, 406, -7, 22, 73, -4, -4, 10, 898, 561, 136,t
2025-03-17 11:14:41.362,655, 645, 471, -7, 20, 88, -4, -1, 9, 911, 736, 47,t
2025-03-17 11:14:41.413,800, 549, 315, 3, 6, 41, -3, 1, 8, 926, 816, 33,t
2025-03-17 11:14:41.466,695, 553, 453, -1, 1, 29, -2, 2, 7, 933, 852, 49,t
2025-03-17 11:14:41.516,753, 506, 409, -10, -34, 3, -2, 3, 9, 940, 890, 164,t
2025-03-17 11:14:41.566,779, 420, 545, 3, -7, -13, -3, 4, 10, 949, 932, 39,t
2025-03-17 11:14:41.630,569, 1171, 110, 16, 59, 53, -4, 3, 10, 967, 923, 43,t
2025-03-17 11:14:41.680,765, 636, 450, -37, 23, 29, -1, 2, 9, 963, 936, 48,t
2025-03-17 11:14:41.737,369, 638, 750, -6, -23, -38, -4, 4, 6, 956, 924, 41,t
2025-03-17 11:14:41.787,1005, 637, 146, 5, 3, -2, -4, 4, 8, 970, 953, 39,t
2025-03-17 11:14:41.843,638, 520, 510, -16, 9, 35, -4, 5, 9, 970, 951, 48,t
2025-03-17 11:14:41.896,592, 501, 477, 6, 46, -53, -2, 2, 10, 958, 931, 39,t
2025-03-17 11:14:42.691,707, 578, 436, 2, -1, 2, -2, 3, 8, 922, 853, 30,u
2025-03-17 11:14:42.746,714, 576, 434, 1, -1, 3, -2, 4, 7, 922, 854, 46,u
2025-03-17 11:14:42.796,711, 561, 437, 1, -1, 3, -3, 3, 8, 925, 851, 41,u
2025-03-17 11:14:42.846,666, 566, 452, 4, -6, 7, -2, 3, 7, 927, 860, 37,u
2025-03-17 11:14:42.896,749, 560, 384, 3, -3, 6, -4, 3, 8, 931, 859, 33,u
2025-03-17 11:14:42.948,722, 560, 416, -2, 1, 2, 0, 2, 9, 935, 862, 30,u
2025-03-17 11:14:42.996,746, 542, 398, -3, 2, -1, -2, 3, 7, 939, 869, 38,u
2025-03-17 11:14:43.047,659, 563, 478, -7, -4, 0, -3, 4, 7, 940, 877, 49,u
2025-03-17 11:14:43.109,721, 504, 529, -40, -22, -9, -4, 3, 10, 948, 902, 39,u
2025-03-17 11:14:43.162,730, 605, 186, 17, 26, 29, -2, 3, 10, 964, 919, 51,u
2025-03-17 11:14:43.212,611, 699, 245, -57, 19, 32, -2, 6, 7, 967, 939, 35,u
2025-03-17 11:14:43.267,718, 511, 393, -8, -21, -24, -3, 6, 7, 963, 947, 46,u
2025-03-17 11:14:43.326,848, 862, 165, 4, 16, 12, -4, 7, 8, 970, 945, 29,u
2025-03-17 11:14:43.378,806, 607, 326, -12, 13, 13, -3, 5, 9, 965, 934, 44,u
2025-03-17 11:14:43.429,634, 479, 562, -19, 34, -45, -2, 7, 4, 955, 910, 38,u
2025-03-17 11:14:43.718,706, 548, 456, -2, -1, 5, -4, 6, 7, 939, 841, 50,v
2025-03-17 11:14:43.767,711, 544, 452, 0, -1, 6, -2, 3, 9, 940, 841, 48,v
2025-03-17 11:14:43.819,746, 521, 437, 2, -1, 6, -1, 5, 6, 940, 840, 24,v
2025-03-17 11:14:43.869,735, 535, 440, 1, 2, -1, -4, 5, 7, 942, 850, 35,v
2025-03-17 11:14:43.920,736, 534, 433, 2, -3, 1, -2, 6, 6, 943, 854, 36,v
2025-03-17 11:14:43.977,751, 544, 409, 0, -4, -2, -4, 5, 6, 943, 863, 33,v
2025-03-17 11:14:44.026,715, 497, 460, 6, -6, -6, -3, 4, 8, 942, 862, 30,v
2025-03-17 11:14:44.083,746, 577, 432, -11, -5, -12, -3, 3, 9, 949, 890, 46,v
2025-03-17 11:14:44.137,649, 1028, 131, 33, 23, 21, -4, 5, 6, 964, 913, 28,v
2025-03-17 11:14:44.190,758, 414, 188, -28, 15, 23, -2, 7, 8, 971, 936, 34,v
2025-03-17 11:14:44.244,609, 336, 427, 42, -38, -36, -2, 5, 8, 965, 951, 33,v
2025-03-17 11:14:44.297,926, 564, 58, -6, 51, -21, -3, 4, 8, 953, 931, 43,v
2025-03-17 11:14:44.602,745, 521, 434, -3, -4, -1, -4, 6, 7, 933, 808, 45,w
2025-03-17 11:14:44.657,730, 525, 430, -2, -4, -2, -3, 2, 8, 934, 808, 38,w
2025-03-17 11:14:44.710,740, 557, 421, 1, -3, 0, -3, 5, 5, 936, 826, 50,w
2025-03-17 11:14:44.760,722, 527, 433, -2, -8, -5, -2, 3, 9, 935, 840, 39,w
2025-03-17 11:14:44.816,843, 529, 396, -32, -3, -15, -1, 4, 7, 945, 893, 43,w
2025-03-17 11:14:44.866,729, 290, 582, 11, -14, -16, -4, 4, 9, 960, 938, 36,w
2025-03-17 11:14:44.920,829, 544, 358, -9, 26, 43, -4, 4, 9, 972, 936, 38,w
2025-03-17 11:14:44.977,844, 666, 520, -49, 5, 23, -5, 8, 6, 969, 945, 38,w
2025-03-17 11:14:45.030,669, 372, 514, 12, -21, -16, -5, 7, 7, 965, 948, 44,w
2025-03-17 11:14:45.087,815, 429, 422, -18, 25, 30, -3, 7, 7, 970, 943, 34,w
2025-03-17 11:14:45.144,1024, 255, 372, -20, -40, -14, -2, 6, 10, 968, 950, 51,w
2025-03-17 11:14:45.199,585, 450, 527, -24, 82, -59, -4, 4, 7, 953, 935, 39,w
2025-03-17 11:14:45.476,758, 532, 391, -5, -2, 2, -3, 6, 9, 943, 877, 32,x
2025-03-17 11:14:45.529,749, 524, 423, -7, -1, 2, -3, 6, 9, 943, 877, 36,x
2025-03-17 11:14:45.579,759, 518, 417, -10, -3, 0, -4, 4, 10, 944, 879, 39,x
2025-03-17 11:14:45.636,738, 522, 443, -3, -6, 0, -4, 3, 10, 948, 886, 31,x
2025-03-17 11:14:45.682,784, 491, 386, 0, -2, 1, -4, 6, 8, 946, 894, 46,x
2025-03-17 11:14:45.738,745, 512, 447, -6, 1, -1, -3, 5, 9, 948, 903, 43,x
2025-03-17 11:14:45.791,759, 514, 417, -2, 0, -1, -4, 6, 10, 949, 910, 35,x
2025-03-17 11:14:45.845,753, 508, 430, -1, 3, -2, -4, 5, 8, 950, 914, 47,x
2025-03-17 11:14:45.896,730, 520, 441, -4, -4, -2, -3, 6, 8, 953, 924, 26,x
2025-03-17 11:14:45.947,706, 502, 474, -2, -10, 2, -4, 7, 7, 955, 936, 48,x
2025-03-17 11:14:45.997,668, 474, 517, 12, -8, -10, -2, 4, 10, 966, 948, 43,x
2025-03-17 11:14:46.057,756, 639, 299, 1, 49, 25, -2, 2, 10, 970, 939, 49,x
2025-03-17 11:14:46.111,661, 121, 602, -6, 0, -37, -4, 7, 6, 956, 846, 43,x
2025-03-17 11:14:46.167,1137, 535, 541, -15, -24, -20, -3, 4, 8, 964, 941, 40,x
2025-03-17 11:14:46.217,586, 858, 92, -60, 34, 56, -3, 5, 7, 978, 954, 33,x
2025-03-17 11:14:46.275,747, 200, 522, -5, 11, -12, -3, 5, 8, 971, 943, 54,x
2025-03-17 11:14:46.328,714, 519, 585, 20, 25, -52, -2, 5, 7, 950, 908, 37,x
2025-03-17 11:14:46.589,730, 541, 426, -1, -5, 1, -1, 2, 8, 948, 889, 35,y
2025-03-17 11:14:46.647,740, 536, 408, -1, -4, 1, -1, 2, 9, 948, 888, 31,y
2025-03-17 11:14:46.699,721, 534, 423, -4, -3, -6, -4, 4, 7, 947, 884, 29,y
2025-03-17 11:14:46.751,703, 570, 439, -9, -16, -3, -4, 4, 8, 948, 896, 50,y
2025-03-17 11:14:46.807,798, 497, 428, -27, -1, -6, -4, 3, 9, 955, 928, 36,y
2025-03-17 11:14:46.860,827, 541, 470, 58, -8, -6, -4, 2, 8, 969, 936, 48,y
2025-03-17 11:14:46.912,851, 458, 177, 1, 30, 39, -4, 5, 8, 973, 942, 28,y
2025-03-17 11:14:46.966,734, 123, 567, 11, -18, -24, -3, 4, 7, 963, 938, 49,y
2025-03-17 11:14:47.016,673, 643, 619, 27, -24, 3, -2, 4, 9, 955, 924, 40,y
2025-03-17 11:14:47.078,747, 887, 225, -21, 30, 41, -3, 4, 10, 969, 940, 46,y
2025-03-17 11:14:47.128,824, 454, 383, -63, 26, 28, -3, 8, 5, 964, 915, 34,y
2025-03-17 11:14:47.188,1228, 530, 101, 26, 11, -77, -2, 7, 5, 939, 823, 42,y
2025-03-17 11:14:47.242,357, 640, 887, 20, -29, -16, -3, 1, 9, 937, 883, 26,y
2025-03-17 11:14:47.496,746, 536, 422, -3, -2, 0, -3, 6, 7, 931, 842, 32,z
2025-03-17 11:14:47.550,747, 536, 409, -3, -1, 0, -3, 4, 8, 930, 846, 42,z
2025-03-17 11:14:47.610,706, 533, 447, -10, -1, -4, -4, 5, 6, 934, 828, 50,z
2025-03-17 11:14:47.659,687, 523, 526, 7, -28, -3, -2, 3, 7, 941, 827, 37,z
2025-03-17 11:14:47.716,855, 396, 370, 28, -3, -10, -3, 4, 9, 955, 922, 48,z
2025-03-17 11:14:47.767,530, 511, 529, 16, -2, 21, -6, 6, 7, 967, 940, 34,z
2025-03-17 11:14:47.816,731, 460, 396, 8, 33, 16, -2, 4, 8, 966, 925, 34,z
2025-03-17 11:14:47.872,822, 618, 360, -10, 16, 6, -4, 5, 7, 968, 919, 42,z
2025-03-17 11:14:47.925,571, 299, 349, 6, 9, 19, -4, 8, 7, 974, 951, 45,z
2025-03-17 11:14:47.975,819, 414, 515, 19, -1, 0, -4, 5, 7, 963, 936, 38,z
2025-03-17 11:14:48.028,310, 649, 936, 30, -18, -48, -2, 5, 6, 951, 895, 39,z
2025-03-17 11:14:48.081,779, 517, 128, 0, -7, -8, -3, 2, 7, 968, 946, 47,z
2025-03-17 11:14:48.130,618, 574, 334, -20, 8, 25, -3, 3, 8, 968, 948, 36,z
2025-03-17 11:14:48.192,837, 474, 137, -12, 68, -64, -2, 6, 7, 957, 923, 41,z
2025-03-17 11:14:48.490,724, 566, 420, -2, -6, 2, -3, 3, 7, 936, 849, 39,0
2025-03-17 11:14:48.542,730, 551, 417, -3, -6, 1, -2, 7, 4, 935, 847, 45,0
2025-03-17 11:14:48.598,740, 557, 409, -5, -1, -2, -2, 3, 8, 935, 846, 36,0
2025-03-17 11:14:48.647,727, 579, 405, -7, -1, 0, -1, 3, 8, 937, 853, 26,0
2025-03-17 11:14:48.697,731, 564, 417, -4, -2, 0, -3, 4, 8, 938, 857, 43,0
2025-03-17 11:14:48.749,720, 547, 443, -6, -3, 0, -3, 4, 7, 939, 863, 51,0
2025-03-17 11:14:48.800,730, 555, 422, 0, -7, 3, -4, 3, 8, 941, 867, 28,0
2025-03-17 11:14:48.848,751, 552, 377, 0, -1, -1, -3, 3, 8, 941, 865, 37,0
2025-03-17 11:14:48.903,707, 554, 454, -1, 0, 2, -4, 5, 7, 941, 868, 36,0
2025-03-17 11:14:48.958,749, 543, 412, 0, -3, 1, -3, 3, 9, 944, 869, 35,0
2025-03-17 11:14:49.006,732, 540, 445, 3, 0, 2, -3, 5, 8, 945, 874, 27,0
2025-03-17 11:14:49.060,751, 551, 381, -4, 2, -3, -4, 4, 8, 943, 875, 31,0
2025-03-17 11:14:49.113,706, 536, 478, -5, -2, -1, -2, 3, 10, 945, 883, 35,0
2025-03-17 11:14:49.160,758, 536, 391, 0, 0, -1, -3, 4, 8, 945, 884, 38,0
2025-03-17 11:14:49.210,699, 549, 471, 0, -5, 4, -3, 2, 8, 945, 886, 28,0
2025-03-17 11:14:49.266,756, 556, 368, -1, -4, 2, -3, 4, 10, 946, 894, 41,0
2025-03-17 11:14:49.316,769, 459, 413, -20, -14, -8, -3, 3, 8, 949, 916, 52,0
2025-03-17 11:14:49.378,726, 544, 417, -17, -3, -8, -2, 3, 10, 953, 933, 43,0
2025-03-17 11:14:49.428,597, 587, 515, 5, -14, -16, -4, 5, 9, 958, 940, 38,0
2025-03-17 11:14:49.487,1104, 885, 113, -1, 54, 59, -4, 4, 8, 971, 936, 41,0
2025-03-17 11:14:49.536,747, 645, 949, -50, -2, 30, -3, 5, 7, 972, 953, 34,0
2025-03-17 11:14:49.596,676, 462, 480, 47, -33, -39, -3, 4, 10, 961, 948, 43,0
2025-03-17 11:14:49.650,813, 606, 168, -29, 62, -40, -3, 3, 9, 939, 920, 38,0
2025-03-17 11:14:49.949,729, 560, 435, 0, -5, 1, -4, 3, 9, 933, 871, 43,1
2025-03-17 11:14:49.997,738, 559, 423, 1, -5, 1, -4, 7, 7, 933, 871, 40,1
2025-03-17 11:14:50.050,748, 560, 384, -1, -1, -1, -3, 2, 10, 934, 874, 43,1
2025-03-17 11:14:50.096,718, 564, 417, -4, -1, -2, -4, 4, 8, 936, 881, 36,1
2025-03-17 11:14:50.157,671, 560, 461, 3, -8, 3, -4, 4, 7, 939, 885, 40,1
2025-03-17 11:14:50.211,797, 523, 194, -26, -5, -11, -4, 4, 10, 951, 914, 42,1
2025-03-17 11:14:50.262,571, 638, 155, -33, 1, 14, -3, 5, 8, 959, 945, 46,1
2025-03-17 11:14:50.317,708, 297, 904, 26, -13, 3, -2, 2, 9, 966, 945, 39,1
2025-03-17 11:14:50.366,545, 551, 136, 20, 43, 34, -2, 4, 9, 972, 943, 29,1
2025-03-17 11:14:50.424,750, 447, 454, 1, 31, -3, -3, 6, 7, 966, 928, 45,1
2025-03-17 11:14:50.478,643, 729, 873, 33, -47, 14, -2, 3, 8, 959, 898, 42,1
2025-03-17 11:14:50.535,701, 859, 483, -32, -17, 34, -4, 5, 8, 972, 951, 42,1
2025-03-17 11:14:50.578,836, 369, 405, 0, 8, 9, -3, 6, 7, 971, 939, 32,1
2025-03-17 11:14:50.887,728, 553, 391, -5, 0, -1, -3, 5, 7, 931, 877, 38,2
2025-03-17 11:14:50.946,734, 555, 415, -4, 0, 0, -3, 3, 9, 931, 879, 49,2
2025-03-17 11:14:50.997,711, 561, 416, 0, -3, 1, -4, 5, 6, 933, 880, 36,2
2025-03-17 11:14:51.047,703, 568, 408, 4, -9, 1, -3, 3, 8, 934, 878, 40,2
2025-03-17 11:14:51.097,748, 565, 407, -10, -19, -4, -4, 3, 9, 937, 882, 36,2
2025-03-17 11:14:51.161,905, 480, 504, 37, -16, -11, -2, 4, 8, 955, 930, 47,2
2025-03-17 11:14:51.209,507, 722, 304, 14, 15, 27, -4, 3, 9, 965, 929, 34,2
2025-03-17 11:14:51.261,921, 426, 229, -31, 28, 2, -5, 6, 5, 962, 914, 46,2
2025-03-17 11:14:51.317,1127, 726, 414, -21, 2, 23, -2, 3, 9, 970, 950, 54,2
2025-03-17 11:14:51.367,783, 408, 372, 22, 8, 20, -2, 3, 9, 968, 942, 39,2
2025-03-17 11:14:51.428,614, 571, 449, -10, 56, -58, -4, 7, 5, 944, 909, 47,2
2025-03-17 11:14:51.670,733, 570, 409, -11, 0, -2, -2, 4, 8, 920, 855, 52,3
2025-03-17 11:14:51.723,725, 571, 432, -8, -1, -1, -3, 2, 7, 920, 855, 49,3
2025-03-17 11:14:51.775,724, 566, 419, -4, -4, 2, -3, 1, 7, 917, 854, 38,3
2025-03-17 11:14:51.828,745, 556, 392, -9, -7, -1, -3, 4, 6, 918, 850, 32,3
2025-03-17 11:14:51.877,674, 575, 465, -11, -11, 1, -4, 5, 8, 924, 858, 37,3
2025-03-17 11:14:51.939,2048, 385, 37, -37, -17, -13, -3, 4, 9, 934, 904, 41,3
2025-03-17 11:14:51.992,939, 848, 297, 25, -9, 16, -2, 1, 10, 956, 932, 49,3
2025-03-17 11:14:52.043,622, 724, 528, 8, 5, 16, -4, 5, 10, 960, 929, 33,3
2025-03-17 11:14:52.097,842, 198, 391, 13, -6, -8, -2, 4, 9, 961, 929, 35,3
2025-03-17 11:14:52.147,513, 417, 590, -4, 21, 10, -2, 4, 8, 967, 936, 46,3
2025-03-17 11:14:52.198,794, 373, 364, 1, 20, 11, -3, 8, 5, 964, 926, 39,3
2025-03-17 11:14:52.259,1074, 309, 144, -10, 48, -50, -2, 5, 8, 935, 879, 52,3
2025-03-17 11:14:52.557,759, 533, 370, -5, -6, -2, -2, 2, 7, 923, 882, 50,4
2025-03-17 11:14:52.610,761, 543, 381, -5, -6, -3, 0, 2, 7, 922, 888, 51,4
2025-03-17 11:14:52.659,717, 537, 405, 2, -4, 0, -4, 5, 7, 924, 893, 49,4
2025-03-17 11:14:52.717,701, 559, 409, 0, -13, 2, -3, 3, 11, 926, 903, 47,4
2025-03-17 11:14:52.775,741, 570, 447, -16, -8, -7, -2, 2, 11, 946, 927, 37,4
2025-03-17 11:14:52.824,582, 800, 69, 36, 18, 4, -3, 3, 8, 961, 918, 48,4
2025-03-17 11:14:52.878,870, 642, -97, -11, 19, 20, -4, 3, 10, 967, 926, 39,4
2025-03-17 11:14:52.928,637, 517, 708, -9, -8, 31, -4, 5, 8, 971, 951, 40,4
2025-03-17 11:14:52.987,837, 251, 253, 20, 1, -35, -2, 5, 10, 960, 937, 35,4
2025-03-17 11:14:53.041,528, 835, 810, 27, -33, 21, -2, 2, 8, 955, 925, 47,4
2025-03-17 11:14:53.094,854, 928, 141, 1, 22, 32, -2, 2, 8, 971, 935, 37,4
2025-03-17 11:14:53.146,734, 516, 358, -11, 36, 32, -4, 6, 8, 966, 918, 44,4
2025-03-17 11:14:53.197,764, 522, 260, -19, 47, -72, -2, 3, 7, 946, 883, 30,4
2025-03-17 11:14:53.469,705, 575, 467, -4, 2, 0, -4, 5, 6, 938, 854, 48,5
2025-03-17 11:14:53.516,711, 573, 454, -5, 0, 1, -3, 5, 8, 937, 853, 41,5
2025-03-17 11:14:53.574,728, 545, 427, -4, -2, -3, -4, 5, 5, 936, 849, 31,5
2025-03-17 11:14:53.627,724, 572, 419, -4, 1, -4, -4, 5, 6, 933, 848, 37,5
2025-03-17 11:14:53.678,709, 567, 450, -4, -1, -1, -1, 3, 8, 928, 838, 45,5
2025-03-17 11:14:53.728,726, 556, 431, 0, -5, 0, -5, 4, 6, 927, 840, 31,5
2025-03-17 11:14:53.778,731, 559, 411, -4, -1, -1, -3, 5, 7, 932, 852, 35,5
2025-03-17 11:14:53.835,686, 546, 475, -4, -2, 0, -2, 4, 8, 937, 869, 50,5
2025-03-17 11:14:53.886,670, 562, 446, -3, -10, -1, -2, 3, 8, 938, 881, 22,5
2025-03-17 11:14:53.942,723, 514, 596, 21, -65, 23, -4, 3, 7, 948, 905, 39,5
2025-03-17 11:14:53.994,928, 1023, 202, -37, 4, 46, -4, 3, 9, 968, 948, 29,5
2025-03-17 11:14:54.047,612, 544, 561, 1, -4, 10, -4, 6, 9, 967, 949, 40,5
2025-03-17 11:14:54.102,602, 436, 520, 40, -11, -35, -4, 6, 8, 964, 938, 30,5
2025-03-17 11:14:54.159,898, 867, 253, -1, 33, 29, -4, 1, 10, 971, 946, 53,5
2025-03-17 11:14:54.208,673, 480, 426, -8, 18, 24, -2, 4, 8, 972, 941, 31,5
2025-03-17 11:14:54.259,1045, 111, 329, 9, 8, -47, -3, 6, 6, 958, 865, 46,5
2025-03-17 11:14:54.316,567, 576, 772, -11, 31, -36, -2, 2, 7, 931, 849, 32,5
2025-03-17 11:14:54.601,702, 571, 445, -4, 0, 0, -1, 3, 7, 915, 824, 23,6
2025-03-17 11:14:54.650,696, 563, 450, -3, -2, 0, -1, 3, 7, 915, 823, 26,6
2025-03-17 11:14:54.699,730, 557, 405, -6, -4, -3, -3, 5, 8, 914, 827, 48,6
2025-03-17 11:14:54.758,725, 582, 425, 1, -6, 1, -5, 4, 6, 912, 826, 28,6
2025-03-17 11:14:54.806,735, 578, 417, 3, -9, 5, -1, 2, 10, 916, 854, 34,6
2025-03-17 11:14:54.860,761, 563, 438, 9, -11, 12, -4, 5, 7, 925, 874, 46,6
2025-03-17 11:14:54.909,708, 559, 359, -4, -8, 5, -4, 4, 8, 930, 884, 27,6
2025-03-17 11:14:54.966,725, 509, 377, -32, -8, -11, -3, 5, 10, 939, 925, 44,6
2025-03-17 11:14:55.023,1205, 689, 402, 81, 14, -15, -3, 4, 9, 957, 907, 26,6
2025-03-17 11:14:55.076,919, 639, 433, -49, 45, 48, -2, 3, 7, 968, 934, 49,6
2025-03-17 11:14:55.126,659, 242, 654, -31, -21, -13, -4, 6, 6, 963, 948, 45,6
2025-03-17 11:14:55.187,1125, 434, 45, 21, 20, -44, -3, 6, 7, 929, 897, 32,6
2025-03-17 11:14:55.486,729, 562, 395, -4, 2, -3, -2, 4, 7, 907, 828, 30,7
2025-03-17 11:14:55.541,711, 558, 430, -3, 3, -3, -2, 4, 7, 906, 831, 32,7
2025-03-17 11:14:55.593,686, 554, 468, 1, -6, 4, -2, 3, 6, 908, 833, 49,7
2025-03-17 11:14:55.646,729, 537, 426, -8, 2, -3, -3, 5, 5, 906, 815, 37,7
2025-03-17 11:14:55.696,723, 533, 446, -6, -5, -1, -3, 5, 8, 909, 815, 40,7
2025-03-17 11:14:55.747,629, 581, 511, -2, -16, 2, -3, 4, 7, 914, 828, 45,7
2025-03-17 11:14:55.806,820, 695, 254, -3, -13, -13, -3, 3, 9, 936, 866, 24,7
2025-03-17 11:14:55.862,1040, 882, 321, 16, -15, 23, -4, 3, 8, 954, 931, 49,7
2025-03-17 11:14:55.916,654, 545, 392, 52, -7, 9, -4, 5, 8, 965, 927, 42,7
2025-03-17 11:14:55.966,964, 583, -116, 4, 45, 46, -4, 3, 10, 969, 922, 40,7
2025-03-17 11:14:56.023,724, 281, 599, -52, 19, -17, -3, 7, 6, 962, 909, 33,7
2025-03-17 11:14:56.080,1784, 521, 25, -28, -27, -29, -2, 3, 6, 961, 922, 45,7
2025-03-17 11:14:56.128,806, 833, 212, -13, -6, 28, -4, 2, 9, 972, 945, 42,7
2025-03-17 11:14:56.187,912, 227, 34, -13, 49, -47, -2, 5, 9, 965, 932, 32,7
2025-03-17 11:14:56.497,723, 578, 409, -2, -1, 5, -2, 5, 7, 933, 835, 35,8
2025-03-17 11:14:56.551,729, 570, 396, -2, -1, 5, -4, 4, 7, 934, 839, 35,8
2025-03-17 11:14:56.600,730, 545, 459, -5, 0, 3, -5, 5, 6, 936, 835, 49,8
2025-03-17 11:14:56.647,739, 542, 403, -2, 2, -1, -2, 4, 8, 936, 832, 49,8
2025-03-17 11:14:56.699,717, 567, 432, -2, 1, 4, -3, 6, 7, 940, 832, 29,8
2025-03-17 11:14:56.756,734, 542, 436, 5, -2, 7, -3, 3, 6, 942, 836, 38,8
2025-03-17 11:14:56.806,729, 527, 448, 3, -3, 6, -3, 4, 6, 942, 845, 39,8
2025-03-17 11:14:56.850,741, 547, 384, 6, -8, 8, -2, 5, 7, 945, 854, 41,8
2025-03-17 11:14:56.909,651, 553, 475, -1, -18, 12, -5, 6, 7, 947, 878, 47,8
2025-03-17 11:14:56.964,686, 469, 636, -32, -11, -9, -2, 6, 7, 955, 923, 49,8
2025-03-17 11:14:57.017,1000, 352, 285, 41, -2, -16, -2, 5, 8, 964, 919, 29,8
2025-03-17 11:14:57.075,757, 1019, 370, -35, 31, 53, -2, 4, 7, 972, 938, 47,8
2025-03-17 11:14:57.132,562, 141, 668, -11, -62, -47, -2, 4, 9, 968, 950, 40,8
2025-03-17 11:14:57.186,866, 448, 555, 5, -37, -33, -5, 6, 8, 968, 956, 33,8
2025-03-17 11:14:57.239,653, 916, 311, 11, 15, 19, -4, 4, 9, 972, 953, 50,8
2025-03-17 11:14:57.286,826, 329, 247, 6, 21, 9, -3, 3, 10, 966, 940, 37,8
2025-03-17 11:14:57.595,754, 587, 379, -10, 4, -1, -5, 5, 7, 933, 819, 29,9
2025-03-17 11:14:57.646,736, 573, 388, -11, 4, -1, 1, 2, 9, 934, 816, 55,9
2025-03-17 11:14:57.702,725, 552, 442, -5, -2, 1, -3, 3, 8, 932, 818, 40,9
2025-03-17 11:14:57.752,753, 573, 379, -4, -1, -1, -1, 5, 4, 932, 826, 21,9
2025-03-17 11:14:57.796,719, 550, 434, -3, 0, 0, -4, 4, 8, 932, 841, 43,9
2025-03-17 11:14:57.858,759, 559, 371, -2, -1, 3, -4, 4, 8, 933, 855, 41,9
2025-03-17 11:14:57.906,741, 549, 424, 0, 0, 0, -3, 2, 13, 936, 878, 27,9
2025-03-17 11:14:57.959,721, 562, 427, 0, -9, 3, -6, 7, 4, 939, 897, 37,9
2025-03-17 11:14:58.007,717, 534, 442, 5, -17, 6, -3, 5, 9, 942, 911, 36,9
2025-03-17 11:14:58.067,729, 464, 392, -19, -5, -12, -3, 6, 9, 948, 930, 48,9
2025-03-17 11:14:58.116,783, 495, 430, 6, -7, -18, -2, 2, 10, 954, 933, 50,9
2025-03-17 11:14:58.173,664, 939, 48, 2, 44, 36, -2, 2, 10, 967, 934, 42,9
2025-03-17 11:14:58.226,619, 628, 371, -23, 25, 24, -1, 6, 7, 969, 941, 34,9
2025-03-17 11:14:58.276,646, 523, 488, 17, -27, -33, -4, 6, 6, 957, 940, 36,9
2025-03-17 11:14:58.327,936, 991, 84, 35, 31, 23, -2, 3, 9, 967, 933, 44,9
2025-03-17 11:14:58.386,514, 697, 141, -23, 43, 39, -3, 6, 7, 968, 934, 57,9
2025-03-17 11:14:58.439,1037, 139, 385, 0, 13, -60, -3, 8, 6, 946, 864, 36,9
2025-03-17 11:14:58.738,727, 554, 424, -5, 0, 1, -2, 4, 7, 895, 818, 43,+
2025-03-17 11:14:58.786,719, 555, 430, -6, 0, 0, -1, 6, 9, 896, 818, 41,+
2025-03-17 11:14:58.841,722, 565, 440, -3, -1, 0, -2, 5, 5, 897, 807, 31,+
2025-03-17 11:14:58.890,703, 572, 450, 1, -5, 3, -1, 3, 7, 898, 808, 49,+
2025-03-17 11:14:58.943,733, 554, 426, 0, -2, 3, -4, 4, 7, 896, 807, 51,+
2025-03-17 11:14:58.993,739, 550, 436, -1, 0, 0, -3, 3, 8, 897, 806, 47,+
2025-03-17 11:14:59.041,709, 565, 441, -4, -1, 0, -3, 4, 7, 898, 805, 34,+
2025-03-17 11:14:59.091,708, 542, 448, -2, -4, 1, -3, 6, 7, 900, 809, 36,+
2025-03-17 11:14:59.146,727, 557, 431, -9, -1, -3, -3, 4, 8, 903, 809, 33,+
2025-03-17 11:14:59.196,737, 542, 433, -5, -2, 2, -3, 6, 5, 909, 813, 25,+
2025-03-17 11:14:59.255,719, 548, 427, -1, -1, -1, -3, 6, 8, 911, 817, 37,+
2025-03-17 11:14:59.308,768, 545, 417, -2, -2, 5, -3, 5, 7, 920, 838, 38,+
2025-03-17 11:14:59.357,699, 567, 459, 0, 5, 0, -4, 3, 8, 923, 857, 20,+
2025-03-17 11:14:59.409,731, 531, 445, -2, -5, -4, -2, 5, 6, 925, 859, 42,+
2025-03-17 11:14:59.460,716, 550, 448, -11, -3, -8, -5, 6, 7, 926, 870, 50,+
2025-03-17 11:14:59.517,683, 564, 466, -7, -14, 2, -4, 7, 6, 929, 887, 30,+
2025-03-17 11:14:59.571,829, 445, 408, 1, -7, -7, -2, 4, 9, 941, 922, 38,+
2025-03-17 11:14:59.623,1116, 823, 296, 69, 43, 41, -5, 4, 10, 966, 931, 42,+
2025-03-17 11:14:59.677,794, 872, 82, -14, 39, 48, -4, 6, 6, 970, 931, 50,+
2025-03-17 11:14:59.727,750, -50, 694, -12, -24, -48, -4, 6, 7, 955, 901, 34,+
2025-03-17 11:14:59.787,832, 508, 400, 22, -17, -20, -3, 5, 7, 956, 932, 35,+
2025-03-17 11:14:59.839,338, 447, 241, -20, 3, 44, -2, 6, 8, 971, 955, 44,+
2025-03-17 11:14:59.891,874, 166, 321, 3, 13, -21, -4, 5, 8, 963, 938, 33,+
2025-03-17 11:15:00.216,719, 556, 429, -5, 2, 3, -4, 5, 7, 916, 828, 54,-
2025-03-17 11:15:00.274,717, 568, 433, -5, 1, 4, -3, 5, 5, 915, 824, 49,-
2025-03-17 11:15:00.327,748, 554, 408, -1, -2, 2, -4, 4, 8, 917, 818, 36,-
2025-03-17 11:15:00.376,747, 564, 404, 1, 0, 1, -4, 5, 6, 916, 818, 43,-
2025-03-17 11:15:00.427,709, 539, 429, 1, 3, 1, -3, 4, 8, 919, 818, 44,-
2025-03-17 11:15:00.476,714, 540, 412, 5, -1, -3, -3, 4, 7, 921, 796, 31,-
2025-03-17 11:15:00.527,778, 526, 419, 8, -7, -1, -2, 2, 9, 918, 807, 51,-
2025-03-17 11:15:00.577,691, 573, 437, -11, -1, -6, -3, 7, 5, 922, 812, 33,-
2025-03-17 11:15:00.638,786, 535, 387, -21, -8, -8, -4, 3, 7, 950, 886, 51,-
2025-03-17 11:15:00.690,895, 619, 244, -32, -8, 55, -5, 5, 6, 969, 951, 40,-
2025-03-17 11:15:00.740,604, 440, 430, 5, -1, 14, -3, 6, 8, 967, 945, 170,-
2025-03-17 11:15:00.796,896, 325, 104, -16, 37, -46, -2, 4, 10, 943, 917, 33,-
2025-03-17 11:15:00.855,581, 602, 766, -17, 23, -24, -2, 3, 6, 926, 855, 28,-
2025-03-17 11:15:01.133,737, 542, 433, 1, -4, 0, -2, 5, 8, 913, 779, 47,÷
2025-03-17 11:15:01.183,738, 541, 416, 0, -3, 0, -1, 6, 4, 913, 785, 48,÷
2025-03-17 11:15:01.236,726, 547, 456, -2, -2, -3, -3, 4, 6, 913, 816, 47,÷
2025-03-17 11:15:01.285,738, 557, 423, 1, -5, 2, -3, 4, 7, 922, 851, 45,÷
2025-03-17 11:15:01.340,729, 527, 445, 0, -1, -2, -3, 4, 7, 923, 855, 41,÷
2025-03-17 11:15:01.389,722, 544, 432, 0, -4, 0, -3, 4, 8, 924, 865, 42,÷
2025-03-17 11:15:01.441,757, 539, 400, 0, -2, -3, -4, 6, 7, 926, 867, 28,÷
2025-03-17 11:15:01.493,724, 555, 445, -4, -1, -2, -4, 5, 7, 930, 867, 37,÷
2025-03-17 11:15:01.546,733, 550, 432, -1, 0, 1, -2, 4, 8, 932, 873, 51,÷
2025-03-17 11:15:01.596,739, 528, 436, 0, -1, -1, -4, 5, 7, 933, 872, 37,÷
2025-03-17 11:15:01.646,753, 549, 405, -3, 0, -3, -3, 4, 7, 931, 873, 37,÷
2025-03-17 11:15:01.705,713, 555, 443, -4, 1, -1, -4, 5, 7, 931, 873, 37,÷
2025-03-17 11:15:01.749,747, 540, 403, -3, -1, 0, -3, 5, 8, 935, 875, 46,÷
2025-03-17 11:15:01.807,727, 553, 432, -3, 0, -1, -2, 4, 8, 934, 873, 32,÷
2025-03-17 11:15:01.860,738, 551, 431, -2, -4, 1, -4, 5, 7, 934, 876, 36,÷
2025-03-17 11:15:01.909,742, 540, 456, 2, -6, 3, -4, 4, 9, 937, 886, 46,÷
2025-03-17 11:15:01.958,752, 550, 388, -2, -3, 0, -4, 5, 8, 937, 886, 35,÷
2025-03-17 11:15:02.009,732, 552, 397, -3, 1, -1, -3, 6, 7, 940, 893, 51,÷
2025-03-17 11:15:02.058,724, 528, 444, -3, -3, 0, -4, 4, 8, 940, 894, 39,÷
2025-03-17 11:15:02.116,752, 561, 385, -6, -1, 1, -3, 5, 8, 943, 903, 33,÷
2025-03-17 11:15:02.166,686, 371, 375, -48, -13, -10, 0, 5, 7, 950, 925, 47,÷
2025-03-17 11:15:02.224,752, 509, 271, 9, 1, -7, -5, 6, 9, 956, 942, 36,÷
2025-03-17 11:15:02.273,732, 605, 422, 8, 0, 4, -3, 6, 7, 957, 945, 23,÷
2025-03-17 11:15:02.327,756, 494, 472, 18, -11, -14, -4, 4, 11, 956, 945, 34,÷
2025-03-17 11:15:02.377,814, 738, 229, 3, 9, 9, -3, 4, 8, 961, 945, 43,÷
2025-03-17 11:15:02.426,894, 375, 74, -18, 91, -12, -4, 2, 8, 957, 933, 26,÷
2025-03-17 11:15:02.484,375, 599, 908, 15, -27, 42, -2, 4, 6, 960, 921, 44,÷
2025-03-17 11:15:02.540,846, 749, 32, -40, -2, -7, -4, 6, 7, 962, 937, 33,÷
2025-03-17 11:15:02.591,780, 601, 453, 12, -2, 1, -5, 7, 6, 963, 940, 45,÷
2025-03-17 11:15:02.641,872, 294, 164, -34, 26, -31, -3, 4, 7, 962, 939, 43,÷
2025-03-17 11:15:02.696,363, 619, 832, 2, -52, -1, -3, 4, 7, 958, 933, 34,÷
2025-03-17 11:15:02.746,817, 274, -40, -1, 5, -4, -3, 3, 9, 972, 953, 41,÷
2025-03-17 11:15:02.806,679, 612, 479, 1, -1, 34, -4, 4, 11, 974, 957, 31,÷
2025-03-17 11:15:02.857,1007, 208, 11, -5, 53, -60, -5, 7, 7, 962, 941, 41,÷
2025-03-17 11:15:02.907,475, 648, 847, -23, 39, -58, -2, 3, 6, 934, 887, 35,÷
2025-03-17 11:15:03.227,714, 562, 446, -6, -1, -1, -3, 5, 4, 893, 741, 28,=
2025-03-17 11:15:03.277,712, 560, 444, -7, -1, -2, -3, 5, 4, 893, 739, 40,=
2025-03-17 11:15:03.334,709, 565, 454, -1, -2, -3, -2, 4, 7, 895, 723, 35,=
2025-03-17 11:15:03.379,701, 571, 454, -4, 1, -2, 0, 3, 7, 896, 724, 40,=
2025-03-17 11:15:03.436,705, 548, 455, -5, 0, -2, -4, 5, 6, 895, 731, 36,=
2025-03-17 11:15:03.489,693, 561, 463, -4, -1, -3, -2, 3, 7, 900, 742, 31,=
2025-03-17 11:15:03.540,703, 558, 465, -1, -2, 0, -4, 3, 7, 903, 753, 36,=
2025-03-17 11:15:03.590,697, 576, 462, 4, -7, 4, -2, 4, 7, 905, 770, 34,=
2025-03-17 11:15:03.639,720, 560, 442, 1, -3, 3, -3, 4, 8, 909, 790, 34,=
2025-03-17 11:15:03.691,701, 556, 444, 3, -5, 4, -3, 2, 8, 915, 803, 23,=
2025-03-17 11:15:03.747,714, 547, 458, 6, -10, 5, -3, 3, 7, 917, 816, 37,=
2025-03-17 11:15:03.797,739, 561, 397, 5, -8, 2, -3, 4, 7, 921, 826, 47,=
2025-03-17 11:15:03.847,734, 545, 428, -1, -2, 1, -3, 2, 9, 923, 839, 39,=
2025-03-17 11:15:03.897,687, 569, 449, 1, -1, 0, -2, 4, 7, 924, 845, 33,=
2025-03-17 11:15:03.947,593, 528, 521, 20, -30, 11, -3, 4, 9, 931, 855, 49,=
2025-03-17 11:15:04.005,876, 561, 344, 41, -7, -7, -3, 4, 10, 959, 930, 52,=
2025-03-17 11:15:04.057,574, 363, 297, -7, 11, 27, -3, 4, 10, 967, 946, 45,=
2025-03-17 11:15:04.116,655, 343, 377, 10, 28, -9, -4, 3, 8, 953, 910, 50,=
2025-03-17 11:15:04.167,845, 334, 394, 27, -4, -16, -3, 4, 8, 954, 892, 40,=
2025-03-17 11:15:04.223,660, 464, 208, -36, 11, 41, -4, 5, 7, 970, 948, 50,=
2025-03-17 11:15:04.277,858, 327, 342, -6, 12, -14, -2, 5, 9, 958, 928, 45,=
2025-03-17 11:15:04.334,556, 535, 705, -34, 45, -62, -1, 4, 7, 919, 807, 47,=
2025-03-17 11:15:04.578,740, 589, 390, -5, 0, 1, -2, 3, 9, 906, 778, 36,≠
2025-03-17 11:15:04.627,728, 578, 398, -7, 0, 2, -1, 3, 8, 907, 778, 37,≠
2025-03-17 11:15:04.683,718, 551, 441, 1, -3, 3, -3, 5, 7, 907, 788, 26,≠
2025-03-17 11:15:04.734,744, 556, 388, -2, -2, -2, -3, 2, 8, 907, 788, 21,≠
2025-03-17 11:15:04.786,714, 571, 420, -5, -1, 0, -1, 2, 10, 909, 795, 49,≠
2025-03-17 11:15:04.838,728, 578, 400, -6, -1, 2, -5, 6, 6, 911, 799, 33,≠
2025-03-17 11:15:04.888,727, 560, 419, -5, -3, 2, -4, 4, 8, 917, 817, 49,≠
2025-03-17 11:15:04.938,740, 564, 387, -5, -2, 1, -4, 4, 8, 921, 822, 39,≠
2025-03-17 11:15:04.997,719, 562, 422, -5, -3, 0, -4, 3, 7, 922, 830, 32,≠
2025-03-17 11:15:05.046,753, 559, 400, -3, 0, -1, -3, 3, 9, 924, 837, 43,≠
2025-03-17 11:15:05.099,743, 554, 404, -1, -1, -1, -3, 4, 8, 923, 832, 38,≠
2025-03-17 11:15:05.147,745, 568, 407, -2, 0, -2, -4, 3, 9, 924, 836, 44,≠
2025-03-17 11:15:05.205,722, 550, 422, -4, -3, -3, -3, 3, 9, 924, 848, 35,≠
2025-03-17 11:15:05.256,734, 572, 368, -1, -1, -1, -3, 5, 6, 927, 852, 52,≠
2025-03-17 11:15:05.306,732, 558, 424, -3, -2, -4, -5, 6, 7, 926, 848, 26,≠
2025-03-17 11:15:05.366,2402, 449, 318, -60, -11, -16, -3, 2, 8, 942, 877, 36,≠
2025-03-17 11:15:05.427,1011, 927, 142, -12, -15, 38, -3, 1, 10, 964, 942, 40,≠
2025-03-17 11:15:05.477,573, 340, 534, 17, 1, 8, -4, 5, 9, 963, 934, 26,≠
2025-03-17 11:15:05.527,530, 454, 500, 3, 29, -25, -2, 5, 8, 951, 891, 38,≠
2025-03-17 11:15:05.581,849, 428, 133, 12, -2, -7, -4, 3, 9, 964, 923, 50,≠
2025-03-17 11:15:05.636,786, 455, 388, -16, 11, 48, -5, 7, 8, 970, 950, 33,≠
2025-03-17 11:15:05.689,867, 125, 177, -5, -3, -78, -2, 4, 8, 960, 939, 34,≠
2025-03-17 11:15:05.747,489, 947, 828, 22, -81, 17, -3, 1, 11, 955, 923, 195,≠
2025-03-17 11:15:05.797,756, 573, 507, 29, 15, 10, -6, 5, 10, 972, 931, 29,≠
2025-03-17 11:15:05.847,299, 433, 141, -14, 47, 24, -3, 4, 8, 967, 907, 44,≠
2025-03-17 11:15:05.906,1135, 219, 174, -16, 39, -70, -3, 2, 10, 944, 856, 35,≠
2025-03-17 11:15:06.217,713, 574, 434, -6, 3, 1, -4, 3, 9, 905, 778, 45,≈
2025-03-17 11:15:06.267,711, 564, 446, -6, 2, 2, -1, 6, 7, 904, 774, 45,≈
2025-03-17 11:15:06.321,721, 566, 405, -5, 1, -1, -3, 5, 8, 903, 774, 43,≈
2025-03-17 11:15:06.367,712, 572, 421, -6, 1, 0, -4, 4, 6, 907, 774, 31,≈
2025-03-17 11:15:06.423,722, 571, 428, -7, 2, 2, -2, 4, 8, 909, 767, 40,≈
2025-03-17 11:15:06.473,722, 556, 425, -5, 1, 1, -2, 4, 7, 910, 744, 27,≈
2025-03-17 11:15:06.525,707, 556, 448, -3, -2, 0, -1, 4, 8, 915, 746, 27,≈
2025-03-17 11:15:06.575,724, 530, 443, 1, 0, 0, -3, 5, 5, 916, 757, 38,≈
2025-03-17 11:15:06.626,722, 543, 428, 3, -1, 0, -3, 3, 8, 918, 769, 47,≈
2025-03-17 11:15:06.677,714, 553, 440, 2, -1, 1, -3, 5, 6, 919, 790, 51,≈
2025-03-17 11:15:06.726,727, 558, 437, 4, -4, -1, -4, 2, 8, 918, 793, 40,≈
2025-03-17 11:15:06.779,701, 555, 464, 9, -4, -1, -4, 4, 8, 916, 797, 36,≈
2025-03-17 11:15:06.830,705, 556, 403, 9, -5, 0, -3, 4, 7, 915, 788, 41,≈
2025-03-17 11:15:06.885,738, 534, 402, 0, -5, -5, -2, 4, 10, 918, 785, 39,≈
2025-03-17 11:15:06.927,731, 556, 406, 1, -2, -3, -2, 4, 8, 923, 818, 33,≈
2025-03-17 11:15:06.988,736, 572, 422, 1, -1, -2, -2, 3, 7, 923, 833, 43,≈
2025-03-17 11:15:07.041,706, 547, 437, -11, -1, -3, -2, 3, 7, 932, 865, 53,≈
2025-03-17 11:15:07.092,781, 565, 344, -4, -8, -8, -5, 3, 7, 942, 897, 45,≈
2025-03-17 11:15:07.148,689, 765, 419, -4, -11, 19, -2, 2, 9, 954, 924, 40,≈
2025-03-17 11:15:07.197,636, 515, 369, 5, -1, 2, -3, 1, 10, 961, 927, 38,≈
2025-03-17 11:15:07.254,855, 678, 402, -13, 0, 14, -5, 4, 8, 963, 936, 45,≈
2025-03-17 11:15:07.307,671, 468, 411, 4, -7, 2, -4, 3, 11, 964, 938, 31,≈
2025-03-17 11:15:07.358,722, 461, 330, 6, 20, -17, -4, 3, 10, 958, 925, 44,≈
2025-03-17 11:15:07.408,615, 627, 527, 6, 14, -4, -4, 3, 8, 947, 856, 47,≈
2025-03-17 11:15:07.467,908, 600, 277, 26, -3, -13, -3, 4, 11, 952, 874, 32,≈
2025-03-17 11:15:07.520,892, 681, 510, -14, -15, 7, -4, 3, 9, 962, 933, 36,≈
2025-03-17 11:15:07.573,615, 676, 420, -1, -3, 10, -4, 4, 9, 965, 937, 31,≈
2025-03-17 11:15:07.627,794, 572, 286, -6, 8, 16, -2, 3, 10, 970, 936, 43,≈
2025-03-17 11:15:07.676,798, 450, 575, 0, -6, 4, -2, 2, 9, 968, 940, 29,≈
2025-03-17 11:15:07.733,865, 418, 106, -25, 58, -32, -5, 5, 6, 959, 928, 46,≈
2025-03-17 11:15:07.786,532, 613, 669, -21, 18, -12, -2, 3, 7, 951, 905, 38,≈
2025-03-17 11:15:08.036,721, 583, 452, 1, -5, 1, -3, 4, 5, 915, 725, 26,<
2025-03-17 11:15:08.089,704, 592, 463, 3, -6, 3, -3, 4, 5, 914, 728, 29,<
2025-03-17 11:15:08.139,723, 556, 430, -1, -3, 2, -4, 2, 8, 914, 735, 41,<
2025-03-17 11:15:08.196,737, 583, 422, -1, -3, 3, -4, 5, 6, 917, 748, 45,<
2025-03-17 11:15:08.240,720, 558, 424, -3, 0, 0, -2, 3, 8, 916, 759, 24,<
2025-03-17 11:15:08.297,722, 559, 422, -4, -1, -1, -3, 4, 8, 918, 763, 42,<
2025-03-17 11:15:08.349,718, 557, 445, -5, -2, 0, -3, 4, 7, 923, 776, 50,<
2025-03-17 11:15:08.404,726, 562, 419, -2, -2, 0, -5, 5, 7, 922, 787, 33,<
2025-03-17 11:15:08.453,707, 554, 453, -1, -3, 2, -4, 7, 6, 929, 809, 36,<
2025-03-17 11:15:08.507,728, 543, 425, 0, -2, 0, -3, 3, 7, 930, 820, 43,<
2025-03-17 11:15:08.556,764, 561, 372, 5, -6, 6, -5, 5, 8, 935, 846, 32,<
2025-03-17 11:15:08.607,724, 574, 437, -1, -7, 1, -2, 4, 11, 936, 861, 32,<
2025-03-17 11:15:08.656,644, 570, 427, -9, -23, 6, -2, 3, 8, 940, 891, 42,<
2025-03-17 11:15:08.720,744, 611, 415, -16, -12, -6, -4, 5, 9, 952, 927, 41,<
2025-03-17 11:15:08.772,778, 496, 470, 40, -2, -14, -5, 5, 8, 961, 932, 31,<
2025-03-17 11:15:08.827,1084, 744, 233, -24, 17, 6, -2, 6, 6, 965, 899, 22,<
2025-03-17 11:15:08.882,1073, 1111, 563, -55, 14, 53, -4, 5, 9, 972, 940, 40,<
2025-03-17 11:15:08.927,708, 457, 465, 6, 2, 12, -4, 5, 9, 971, 945, 54,<
2025-03-17 11:15:08.986,796, 493, 190, -6, 65, -57, -4, 3, 7, 954, 913, 50,<
2025-03-17 11:15:09.289,687, 578, 466, -1, -6, 3, -3, 2, 8, 931, 854, 48,≤
2025-03-17 11:15:09.339,696, 566, 443, 0, -8, 3, -5, 4, 11, 932, 855, 41,≤
2025-03-17 11:15:09.396,746, 555, 392, 1, -14, 2, -3, 4, 8, 932, 869, 40,≤
2025-03-17 11:15:09.441,744, 583, 383, -3, 0, 2, -3, 3, 9, 934, 874, 45,≤
2025-03-17 11:15:09.497,746, 558, 406, -4, -8, 1, -3, 4, 8, 936, 884, 43,≤
2025-03-17 11:15:09.546,754, 555, 402, 2, -9, 7, -4, 7, 7, 941, 904, 34,≤
2025-03-17 11:15:09.596,711, 568, 361, -1, -3, 2, -4, 3, 11, 942, 915, 47,≤
2025-03-17 11:15:09.654,752, 524, 352, -16, -2, 0, -3, 6, 9, 948, 926, 37,≤
2025-03-17 11:15:09.707,737, 478, 464, 2, -11, -9, -5, 6, 10, 956, 938, 36,≤
2025-03-17 11:15:09.760,660, 520, 269, 27, 25, 7, -4, 4, 11, 963, 925, 45,≤
2025-03-17 11:15:09.806,798, 554, 202, -11, 9, -2, -6, 5, 10, 966, 922, 37,≤
2025-03-17 11:15:09.871,680, 432, 523, -28, -10, 31, -4, 4, 10, 973, 958, 69,≤
2025-03-17 11:15:09.922,745, 584, 348, 32, 13, 15, -6, 5, 9, 968, 942, 37,≤
2025-03-17 11:15:09.978,420, 748, 738, 1, 23, -16, -2, 6, 6, 959, 867, 39,≤
2025-03-17 11:15:10.027,902, 500, -152, -3, 7, 19, -4, 8, 5, 971, 940, 49,≤
2025-03-17 11:15:10.083,804, 410, 335, 3, -2, 19, -2, 7, 11, 972, 946, 38,≤
2025-03-17 11:15:10.138,774, 499, 98, -4, 73, -67, -2, 4, 7, 952, 906, 31,≤
2025-03-17 11:15:10.399,712, 564, 433, -5, -7, 2, -4, 2, 9, 924, 809, 38,>
2025-03-17 11:15:10.447,714, 542, 448, -4, -8, 2, -2, 6, 9, 925, 813, 40,>
2025-03-17 11:15:10.497,763, 586, 372, -1, -7, -1, -4, 3, 9, 926, 838, 50,>
2025-03-17 11:15:10.555,720, 563, 420, -5, -1, -2, -4, 4, 9, 931, 852, 39,>
2025-03-17 11:15:10.607,729, 574, 391, -3, -7, 2, -7, 5, 6, 930, 868, 33,>
2025-03-17 11:15:10.657,714, 578, 405, -6, -5, 0, -2, 4, 9, 931, 877, 40,>
2025-03-17 11:15:10.707,632, 526, 514, 3, -29, 12, -3, 4, 10, 940, 898, 48,>
2025-03-17 11:15:10.767,739, 800, 301, 30, -7, 16, -4, 3, 11, 960, 938, 48,>
2025-03-17 11:15:10.821,630, 553, 568, 12, 1, 9, -4, 4, 10, 966, 943, 56,>
2025-03-17 11:15:10.872,708, 472, 306, 23, 33, 15, -3, 4, 10, 971, 939, 28,>
2025-03-17 11:15:10.922,853, 590, 207, 2, 38, 4, -2, 3, 9, 961, 919, 40,>
2025-03-17 11:15:10.976,749, 508, 93, -36, 57, -58, -4, 4, 8, 941, 893, 36,>
2025-03-17 11:15:11.284,729, 582, 401, -5, -2, -3, -3, 3, 8, 929, 852, 31,≥
2025-03-17 11:15:11.338,719, 583, 406, -6, -3, -1, -3, 3, 8, 929, 857, 39,≥
2025-03-17 11:15:11.387,722, 579, 388, 1, -5, 1, -4, 6, 7, 930, 868, 33,≥
2025-03-17 11:15:11.440,732, 569, 397, -5, -3, 0, -2, 1, 10, 933, 876, 37,≥
2025-03-17 11:15:11.489,717, 574, 387, -4, -4, -1, -3, 4, 8, 937, 882, 40,≥
2025-03-17 11:15:11.547,610, 537, 563, 1, -28, 6, -7, 4, 10, 943, 896, 35,≥
2025-03-17 11:15:11.604,875, 396, 307, 41, -2, -11, -4, 2, 11, 957, 931, 41,≥
2025-03-17 11:15:11.653,589, 493, 450, 14, -3, 14, -7, 4, 9, 967, 942, 43,≥
2025-03-17 11:15:11.707,593, 515, 297, 10, 10, 5, -3, 3, 10, 968, 940, 36,≥
2025-03-17 11:15:11.759,734, 667, 228, -2, 53, 18, -5, 4, 8, 960, 904, 27,≥
2025-03-17 11:15:11.817,353, 657, 711, -1, 38, -10, -2, 3, 9, 954, 850, 45,≥
2025-03-17 11:15:11.870,973, 1335, 253, 38, -17, 6, -1, 2, 10, 964, 925, 49,≥
2025-03-17 11:15:11.923,790, 473, 244, -4, -7, 29, -2, 3, 9, 973, 949, 188,≥
2025-03-17 11:15:11.977,956, 256, 74, -15, 38, -41, -5, 4, 7, 964, 932, 29,≥
2025-03-17 11:15:12.027,566, 678, 797, -7, 24, -42, -3, 4, 5, 937, 853, 41,≥
2025-03-17 11:15:12.287,716, 555, 438, -6, -5, -2, -3, 3, 7, 911, 747, 49,±
2025-03-17 11:15:12.337,706, 560, 453, -5, -6, -1, -1, 3, 10, 912, 751, 47,±
2025-03-17 11:15:12.388,729, 579, 370, 7, -12, 4, -3, 3, 7, 910, 764, 44,±
2025-03-17 11:15:12.447,739, 583, 378, -2, -2, 1, -6, 6, 7, 912, 787, 35,±
2025-03-17 11:15:12.497,750, 579, 379, -5, 1, 0, -3, 1, 10, 915, 798, 36,±
2025-03-17 11:15:12.547,716, 570, 423, -4, 0, -1, -4, 4, 8, 919, 805, 44,±
2025-03-17 11:15:12.603,730, 579, 394, -4, -3, -2, -3, 1, 9, 922, 823, 33,±
2025-03-17 11:15:12.657,730, 580, 382, -2, -3, -1, -4, 4, 7, 925, 829, 41,±
2025-03-17 11:15:12.707,713, 571, 411, -3, -3, 2, -5, 4, 8, 930, 854, 35,±
2025-03-17 11:15:12.758,756, 563, 329, -1, -1, 3, -2, 2, 9, 936, 866, 24,±
2025-03-17 11:15:12.807,726, 559, 415, 0, -6, 3, -4, 5, 7, 941, 877, 50,±
2025-03-17 11:15:12.857,756, 580, 358, -4, 1, -1, -4, 3, 9, 942, 887, 48,±
2025-03-17 11:15:12.912,741, 551, 412, 0, -2, 0, -4, 3, 7, 943, 891, 28,±
2025-03-17 11:15:12.967,721, 565, 399, 3, 3, -1, -4, 3, 10, 943, 886, 29,±
2025-03-17 11:15:13.021,685, 555, 424, -1, -7, -3, -4, 2, 10, 944, 883, 35,±
2025-03-17 11:15:13.072,821, 445, 259, -5, -13, -6, -6, 3, 9, 962, 926, 29,±
2025-03-17 11:15:13.127,887, 402, 260, 4, 11, 33, -5, 5, 9, 969, 946, 38,±
2025-03-17 11:15:13.177,752, 280, 336, 3, 12, -43, -4, 5, 8, 957, 927, 43,±
2025-03-17 11:15:13.228,649, 664, 645, 6, -49, 22, -3, 4, 13, 960, 929, 33,±
2025-03-17 11:15:13.287,851, 491, 176, 19, 38, 32, -4, 1, 10, 970, 934, 35,±
2025-03-17 11:15:13.339,793, 333, 210, 1, 45, -30, -4, 3, 10, 957, 877, 36,±
2025-03-17 11:15:13.397,468, -439, 500, -7, -21, -21, -4, 5, 6, 959, 909, 37,±
2025-03-17 11:15:13.451,1135, 387, 364, -12, 3, 31, -4, 4, 7, 974, 949, 104,±
2025-03-17 11:15:13.507,981, 210, -73, -19, 57, -58, -5, 3, 9, 963, 930, 30,±
2025-03-17 11:15:13.556,495, 615, 781, 7, 38, -55, -2, 5, 7, 924, 803, 52,±
2025-03-17 11:15:13.843,717, 586, 442, -11, -3, 0, -4, 6, 7, 909, 798, 44,∓
2025-03-17 11:15:13.897,713, 581, 438, -10, -5, 1, -5, 6, 10, 910, 799, 42,∓
2025-03-17 11:15:13.948,725, 569, 402, 0, -8, 3, -4, 4, 7, 917, 815, 35,∓
2025-03-17 11:15:13.997,726, 567, 379, -3, -6, 0, -2, 4, 9, 922, 838, 34,∓
2025-03-17 11:15:14.053,746, 561, 378, -2, -8, -1, -4, 1, 12, 924, 856, 30,∓
2025-03-17 11:15:14.104,758, 565, 375, -5, 0, -3, -3, 3, 8, 926, 863, 44,∓
2025-03-17 11:15:14.159,718, 577, 414, -6, -2, -3, -4, 4, 8, 931, 868, 48,∓
2025-03-17 11:15:14.206,686, 571, 414, -8, -5, -3, -5, 7, 5, 934, 867, 46,∓
2025-03-17 11:15:14.266,824, 542, 329, -27, -6, -6, -4, 2, 10, 953, 900, 38,∓
2025-03-17 11:15:14.322,861, 648, 191, -13, -14, 41, -3, 3, 10, 970, 945, 45,∓
2025-03-17 11:15:14.376,679, 541, 423, 27, 3, 10, -4, 7, 7, 962, 930, 27,∓
2025-03-17 11:15:14.427,671, 479, 311, -23, 49, -42, -5, 4, 8, 948, 848, 41,∓
2025-03-17 11:15:14.487,1145, -573, -126, -9, -18, -19, -3, 3, 9, 956, 892, 36,∓
2025-03-17 11:15:14.536,588, 597, 224, -17, -2, 22, -4, 5, 9, 970, 947, 28,∓
2025-03-17 11:15:14.587,812, 361, 340, 3, 3, -16, -5, 5, 8, 958, 930, 33,∓
2025-03-17 11:15:14.647,577, 811, 867, 22, -35, 4, -5, 2, 10, 953, 917, 47,∓
2025-03-17 11:15:14.697,989, 475, 559, 5, 14, 7, -3, 2, 11, 971, 937, 50,∓
2025-03-17 11:15:14.753,722, 619, 318, -13, 25, 17, -3, 5, 8, 965, 895, 52,∓
2025-03-17 11:15:14.806,767, 574, 270, 0, 53, -72, -2, 4, 5, 933, 818, 34,∓
2025-03-17 11:15:15.087,726, 592, 400, -1, -2, 2, -4, 5, 5, 891, 694, 32,∞
2025-03-17 11:15:15.138,725, 587, 388, -1, -1, 1, -1, 5, 8, 893, 695, 41,∞
2025-03-17 11:15:15.197,723, 560, 431, -3, -1, -1, -2, 3, 7, 891, 694, 46,∞
2025-03-17 11:15:15.241,741, 581, 402, -2, -2, 1, -3, 3, 4, 893, 679, 23,∞
2025-03-17 11:15:15.297,707, 581, 445, 1, -4, 2, -3, 2, 8, 897, 626, 50,∞
2025-03-17 11:15:15.347,729, 561, 400, -6, -1, 1, -3, 5, 7, 901, 629, 48,∞
2025-03-17 11:15:15.400,725, 551, 409, -2, -2, -1, -4, 3, 9, 903, 662, 39,∞
2025-03-17 11:15:15.454,727, 565, 400, -5, -2, -4, -4, 4, 9, 901, 684, 49,∞
2025-03-17 11:15:15.509,713, 578, 422, -3, -4, -5, -5, 1, 9, 900, 711, 36,∞
2025-03-17 11:15:15.560,728, 571, 405, -3, -4, -5, -3, 3, 7, 899, 704, 27,∞
2025-03-17 11:15:15.608,741, 577, 397, -2, -4, 0, -2, 4, 8, 904, 729, 49,∞
2025-03-17 11:15:15.660,711, 567, 423, -5, 1, 1, -3, 1, 9, 908, 746, 37,∞
2025-03-17 11:15:15.708,721, 554, 390, 1, 3, -3, -4, 4, 5, 906, 734, 34,∞
2025-03-17 11:15:15.760,670, 554, 443, 0, -3, -5, -5, 4, 7, 907, 714, 40,∞
2025-03-17 11:15:15.819,797, 603, 348, 5, -3, 0, -2, 2, 10, 905, 767, 32,∞
2025-03-17 11:15:15.871,669, 600, 427, 1, 16, -4, -2, 4, 6, 907, 792, 42,∞
2025-03-17 11:15:15.924,726, 565, 438, 15, -10, 6, -4, 4, 6, 910, 801, 34,∞
2025-03-17 11:15:15.977,716, 529, 345, -10, 8, -3, -3, 2, 9, 918, 847, 41,∞
2025-03-17 11:15:16.027,729, 590, 468, -3, -10, 9, -4, 2, 8, 926, 866, 22,∞
2025-03-17 11:15:16.082,709, 528, 390, -2, -11, 12, -3, 2, 9, 935, 890, 50,∞
2025-03-17 11:15:16.137,660, 95, 401, -15, -11, -13, -4, 4, 8, 946, 907, 45,∞
2025-03-17 11:15:16.188,323, 755, 119, -36, 26, 6, -4, 4, 8, 957, 901, 39,∞
2025-03-17 11:15:16.247,774, 448, 291, -38, 18, -5, -3, 4, 10, 947, 871, 41,∞
2025-03-17 11:15:16.302,894, 630, 383, 11, -31, -7, -2, 3, 9, 957, 931, 39,∞
2025-03-17 11:15:16.355,471, 550, 286, -17, -8, 12, -4, 3, 8, 969, 941, 22,∞
2025-03-17 11:15:16.407,827, 545, 435, -17, -24, -13, -4, 5, 10, 963, 942, 37,∞
2025-03-17 11:15:16.457,724, 536, 466, 17, -1, -9, -4, 3, 11, 964, 939, 36,∞
2025-03-17 11:15:16.519,102, 669, 103, -15, 25, 3, -4, 5, 9, 966, 920, 28,∞
2025-03-17 11:15:16.568,926, 549, 482, 6, 17, 5, -4, 4, 8, 944, 824, 51,∞
2025-03-17 11:15:16.621,656, 543, 354, -37, 55, -43, -4, 3, 8, 913, 829, 50,∞
2025-03-17 11:15:16.883,733, 563, 401, -6, 2, -1, -5, 6, 6, 895, 766, 43,∑
2025-03-17 11:15:16.937,724, 570, 415, -6, 2, -1, -3, 3, 7, 895, 763, 37,∑
2025-03-17 11:15:16.987,708, 565, 439, 2, -5, 1, -4, 2, 8, 897, 764, 28,∑
2025-03-17 11:15:17.037,738, 561, 393, -1, -1, 1, -4, 2, 8, 899, 778, 39,∑
2025-03-17 11:15:17.087,709, 566, 421, -4, -3, 0, -3, 6, 7, 903, 800, 38,∑
2025-03-17 11:15:17.146,737, 569, 399, -2, -6, 0, -1, 2, 11, 903, 806, 43,∑
2025-03-17 11:15:17.197,734, 588, 395, -7, 2, -3, -2, 1, 10, 903, 803, 37,∑
2025-03-17 11:15:17.246,718, 558, 412, -2, -2, 3, -4, 4, 7, 912, 806, 43,∑
2025-03-17 11:15:17.301,754, 557, 370, -6, 0, 1, -3, 1, 9, 920, 822, 27,∑
2025-03-17 11:15:17.352,702, 569, 437, -5, -2, -2, -4, 5, 10, 922, 839, 30,∑
2025-03-17 11:15:17.408,735, 559, 415, 1, -2, -2, -4, 4, 9, 923, 845, 36,∑
2025-03-17 11:15:17.457,741, 586, 393, -3, -5, -7, -5, 5, 9, 921, 837, 30,∑
2025-03-17 11:15:17.508,697, 571, 467, -1, -7, 0, -5, 3, 9, 927, 853, 40,∑
2025-03-17 11:15:17.568,774, 569, 266, -22, -5, -10, -3, 2, 11, 944, 888, 44,∑
2025-03-17 11:15:17.622,897, 839, 140, -13, -10, 40, -3, 1, 11, 965, 946, 39,∑
2025-03-17 11:15:17.677,650, 520, 500, 29, -2, 8, -3, 3, 10, 961, 938, 48,∑
2025-03-17 11:15:17.727,577, 518, 361, 15, 24, -49, -4, 4, 9, 944, 905, 47,∑
2025-03-17 11:15:17.787,729, 729, 294, 30, -11, -15, -5, 3, 10, 957, 925, 28,∑
2025-03-17 11:15:17.837,705, 377, 510, -10, 9, 26, -4, 2, 10, 968, 946, 38,∑
2025-03-17 11:15:17.887,568, 600, 397, 5, 15, 11, -3, 3, 12, 966, 938, 39,∑
2025-03-17 11:15:17.947,856, 485, 363, 6, 4, -18, -2, 3, 10, 960, 882, 52,∑
2025-03-17 11:15:18.001,1330, 649, 216, -46, -9, 42, -2, 2, 9, 971, 947, 40,∑
2025-03-17 11:15:18.053,620, 593, 361, -3, 8, 17, -3, 5, 7, 969, 944, 49,∑
2025-03-17 11:15:18.106,645, 555, 256, -21, 64, -63, -2, 3, 7, 948, 880, 28,∑
2025-03-17 11:15:18.407,703, 586, 440, -6, -4, 2, -2, 3, 8, 923, 820, 42,∏
2025-03-17 11:15:18.456,700, 573, 438, -6, -5, 3, 0, 5, 8, 926, 823, 50,∏
2025-03-17 11:15:18.510,722, 573, 416, -2, -10, 2, -3, 4, 6, 923, 834, 36,∏
2025-03-17 11:15:18.567,734, 573, 377, -6, 0, -2, -2, 3, 10, 921, 836, 38,∏
2025-03-17 11:15:18.616,708, 567, 418, -5, -3, 2, -2, 2, 9, 926, 855, 47,∏
2025-03-17 11:15:18.669,754, 561, 386, -7, -3, 1, -4, 4, 7, 932, 868, 49,∏
2025-03-17 11:15:18.718,725, 557, 426, -6, 0, 0, -2, 4, 8, 936, 870, 27,∏
2025-03-17 11:15:18.770,734, 562, 426, -4, -5, 1, -2, 3, 8, 938, 880, 31,∏
2025-03-17 11:15:18.820,735, 566, 393, -1, -1, -1, -3, 3, 9, 938, 884, 40,∏
2025-03-17 11:15:18.876,716, 548, 448, 7, -1, -1, -4, 3, 8, 939, 882, 38,∏
2025-03-17 11:15:18.929,790, 534, 355, -2, 6, -3, -6, 1, 10, 937, 878, 34,∏
2025-03-17 11:15:18.984,699, 573, 438, -1, -3, -5, -2, 2, 9, 938, 877, 40,∏
2025-03-17 11:15:19.036,667, 592, 409, -2, -7, -9, -4, 4, 7, 937, 870, 42,∏
2025-03-17 11:15:19.087,807, 65, 201, -16, -16, -24, -4, 5, 10, 945, 896, 37,∏
2025-03-17 11:15:19.147,769, 954, 171, -45, -19, 63, -6, 1, 10, 969, 949, 38,∏
2025-03-17 11:15:19.201,664, 521, 532, 12, -2, 13, -3, 4, 11, 968, 948, 200,∏
2025-03-17 11:15:19.256,697, 362, 302, 25, 24, -57, -4, 3, 11, 948, 916, 41,∏
2025-03-17 11:15:19.313,745, 682, 496, -18, -21, 27, -4, 2, 11, 954, 921, 30,∏
2025-03-17 11:15:19.369,633, 395, 516, 15, 32, 36, -3, 3, 10, 972, 942, 32,∏
2025-03-17 11:15:19.420,963, 625, 272, -10, 32, 24, -4, 4, 9, 966, 935, 35,∏
2025-03-17 11:15:19.470,770, 368, 311, 6, -12, -59, -4, 3, 9, 947, 919, 26,∏
2025-03-17 11:15:19.526,640, 606, 505, -76, -46, 5, -5, 3, 10, 959, 948, 39,∏
2025-03-17 11:15:19.586,440, 663, 259, -11, 36, 30, -6, 6, 9, 974, 946, 27,∏
2025-03-17 11:15:19.635,771, 283, 394, 17, 13, 5, -3, 4, 9, 967, 938, 43,∏
2025-03-17 11:15:19.687,783, 630, 283, -14, 53, -55, -4, 4, 8, 944, 916, 53,∏
2025-03-17 11:15:19.992,723, 568, 431, 7, -9, 1, -2, 3, 7, 917, 788, 46,√
2025-03-17 11:15:20.037,735, 567, 412, 6, -8, 2, -1, 3, 8, 918, 790, 29,√
2025-03-17 11:15:20.097,742, 553, 400, 4, -5, 1, -2, 2, 8, 919, 807, 40,√
2025-03-17 11:15:20.151,743, 567, 382, 0, -1, -1, -3, 3, 7, 920, 820, 31,√
2025-03-17 11:15:20.201,724, 579, 413, -3, 0, 0, -3, 4, 8, 922, 825, 49,√
2025-03-17 11:15:20.254,735, 575, 393, -2, -1, 1, -2, 3, 9, 924, 828, 43,√
2025-03-17 11:15:20.306,725, 556, 411, -4, 0, -1, -4, 3, 9, 926, 830, 42,√
2025-03-17 11:15:20.356,728, 567, 427, -2, -1, 0, -4, 4, 8, 928, 835, 25,√
2025-03-17 11:15:20.407,744, 572, 398, -2, -3, -1, -4, 5, 7, 928, 841, 45,√
2025-03-17 11:15:20.457,730, 553, 427, -2, -1, -2, -4, 2, 11, 929, 848, 37,√
2025-03-17 11:15:20.517,757, 566, 372, -4, -1, -2, -3, 3, 9, 928, 839, 38,√
2025-03-17 11:15:20.569,732, 551, 416, 2, -1, -1, -4, 4, 9, 930, 848, 35,√
2025-03-17 11:15:20.618,696, 574, 375, 12, -1, 2, 0, 3, 9, 928, 868, 18,√
2025-03-17 11:15:20.676,716, 551, 404, -26, 6, -11, -2, 3, 10, 931, 862, 28,√
2025-03-17 11:15:20.727,678, 583, 434, -27, 7, -1, -4, 3, 7, 938, 769, 42,√
2025-03-17 11:15:20.777,686, 576, 466, 21, -14, 4, -4, 6, 7, 941, 797, 34,√
2025-03-17 11:15:20.826,822, 584, 313, 28, 6, -3, -3, 4, 8, 953, 913, 47,√
2025-03-17 11:15:20.885,601, 558, 480, 16, -3, 14, -3, 2, 9, 959, 929, 25,√
2025-03-17 11:15:20.938,679, 554, 335, 8, 25, 26, -1, 3, 9, 964, 919, 49,√
2025-03-17 11:15:20.986,745, 663, 289, -72, 11, 30, -4, 4, 8, 966, 928, 39,√
2025-03-17 11:15:21.047,921, 666, 117, -8, -67, -33, -4, 4, 9, 960, 949, 31,√
2025-03-17 11:15:21.101,809, 697, 219, 22, -21, 0, -5, 3, 12, 968, 953, 45,√
2025-03-17 11:15:21.152,740, 559, 436, 20, 4, 6, -4, 3, 13, 960, 941, 50,√
2025-03-17 11:15:21.209,607, 600, 401, 3, 47, -41, -3, 3, 10, 942, 914, 49,√
2025-03-17 11:15:21.507,707, 582, 424, -4, -2, -1, -3, 1, 10, 879, 612, 44,∛
2025-03-17 11:15:21.556,708, 583, 423, 2, -4, 1, -5, 5, 9, 879, 627, 36,∛
2025-03-17 11:15:21.607,733, 579, 343, 1, 2, 3, -3, 2, 11, 889, 683, 31,∛
2025-03-17 11:15:21.657,703, 594, 400, 0, 3, 6, -4, 1, 9, 903, 710, 51,∛
2025-03-17 11:15:21.707,746, 598, 348, -4, 5, 6, -3, 2, 8, 908, 722, 42,∛
2025-03-17 11:15:21.758,723, 577, 392, -1, 5, 5, -3, 3, 8, 911, 719, 39,∛
2025-03-17 11:15:21.808,734, 569, 409, -1, 5, 2, -3, 4, 8, 914, 705, 41,∛
2025-03-17 11:15:21.859,726, 587, 380, -2, 3, 0, -3, 1, 8, 917, 703, 27,∛
2025-03-17 11:15:21.908,705, 555, 424, 3, 1, 1, -2, 1, 12, 917, 690, 35,∛
2025-03-17 11:15:21.966,698, 660, 337, -6, 1, -7, -4, 5, 8, 927, 779, 36,∛
2025-03-17 11:15:22.019,873, 470, 476, 16, 0, 4, -3, 2, 11, 946, 885, 47,∛
2025-03-17 11:15:22.070,672, 416, 614, 25, -12, 5, -4, 3, 7, 952, 912, 31,∛
2025-03-17 11:15:22.119,722, 804, 172, 22, 17, 23, -4, 3, 9, 961, 901, 48,∛
2025-03-17 11:15:22.177,764, 671, 278, -71, 13, 26, -3, 5, 8, 965, 926, 39,∛
2025-03-17 11:15:22.227,966, 686, 456, -27, -47, -38, -4, 5, 9, 961, 944, 36,∛
2025-03-17 11:15:22.286,787, 577, 183, 9, -14, 3, -6, 4, 10, 970, 950, 175,∛
2025-03-17 11:15:22.337,778, 348, 367, 3, 13, -20, -4, 5, 12, 961, 941, 42,∛
2025-03-17 11:15:22.397,499, 519, 532, 21, 24, -65, -4, 2, 11, 952, 922, 29,∛
2025-03-17 11:15:22.450,634, 604, 371, 12, -68, 38, -4, 3, 9, 954, 929, 36,∛
2025-03-17 11:15:22.503,817, 675, 357, -5, 12, 3, -5, 2, 11, 969, 952, 34,∛
2025-03-17 11:15:22.556,573, 498, 462, 11, 2, 6, -4, 2, 11, 967, 947, 42,∛
2025-03-17 11:15:22.607,834, 431, 337, 3, -2, -6, -4, 2, 10, 968, 950, 29,∛
2025-03-17 11:15:22.657,625, 622, 479, -5, 7, 8, -4, 3, 11, 970, 953, 42,∛
2025-03-17 11:15:22.708,909, 464, 230, 12, 12, -11, -4, 4, 10, 958, 927, 37,∛
2025-03-17 11:15:22.769,586, 554, 630, -38, 63, -35, -2, 1, 9, 940, 904, 52,∛
2025-03-17 11:15:23.047,702, 576, 423, 3, -1, 3, -2, 1, 9, 921, 743, 30,∜
2025-03-17 11:15:23.101,708, 578, 425, 4, -1, 3, -3, 3, 7, 920, 746, 35,∜
2025-03-17 11:15:23.154,723, 573, 387, 0, -1, 2, -4, 4, 7, 919, 763, 44,∜
2025-03-17 11:15:23.204,734, 595, 371, -2, -1, 1, -3, 2, 8, 918, 768, 49,∜
2025-03-17 11:15:23.257,715, 596, 385, -5, 0, 2, -3, 4, 7, 916, 762, 22,∜
2025-03-17 11:15:23.304,732, 571, 410, -2, -2, 3, -2, 4, 8, 924, 772, 35,∜
2025-03-17 11:15:23.357,709, 573, 436, -3, 3, 1, -2, 3, 9, 929, 770, 40,∜
2025-03-17 11:15:23.406,722, 579, 384, 2, 4, 4, -3, 3, 8, 931, 767, 41,∜
2025-03-17 11:15:23.457,703, 577, 439, 7, -1, 6, -3, 3, 10, 933, 757, 29,∜
2025-03-17 11:15:23.514,793, 415, 291, -2, -1, -11, -1, 0, 11, 943, 819, 38,∜
2025-03-17 11:15:23.567,868, 693, 436, 26, -5, 15, -4, 2, 9, 957, 919, 34,∜
2025-03-17 11:15:23.620,602, 531, 563, 50, 5, 10, -4, 4, 8, 963, 918, 39,∜
2025-03-17 11:15:23.669,960, 719, -76, -15, 22, 15, -3, 5, 7, 966, 903, 47,∜
2025-03-17 11:15:23.727,872, 424, 673, -76, -12, 18, -5, 7, 5, 966, 942, 38,∜
2025-03-17 11:15:23.784,590, 338, 649, -20, -48, -14, -3, 7, 10, 966, 954, 38,∜
2025-03-17 11:15:23.837,774, 664, 253, 16, 4, 10, -5, 3, 12, 965, 946, 39,∜
2025-03-17 11:15:23.895,578, 573, 412, -10, 39, -49, -4, 4, 8, 959, 940, 36,∜
2025-03-17 11:15:23.947,627, 755, 617, 22, -40, -7, -3, 3, 7, 952, 926, 39,∜
2025-03-17 11:15:24.002,853, 492, 104, -44, -6, -4, -1, 3, 12, 963, 947, 32,∜
2025-03-17 11:15:24.057,778, 519, 645, 22, -12, -5, -5, 1, 11, 969, 945, 36,∜
2025-03-17 11:15:24.106,714, 704, 132, -1, 5, 0, -3, 2, 11, 968, 935, 47,∜
2025-03-17 11:15:24.166,1025, 613, 425, -36, -17, 26, -4, 1, 10, 974, 956, 37,∜
2025-03-17 11:15:24.219,649, 505, 437, 5, 1, 7, -2, 3, 11, 972, 949, 38,∜
2025-03-17 11:15:24.268,538, 667, 592, 6, 0, -29, -4, 3, 9, 964, 939, 37,∜
2025-03-17 11:15:24.321,770, 534, 175, 15, 1, 9, -5, 4, 10, 974, 949, 31,∜
2025-03-17 11:15:24.369,733, 491, 415, -9, 30, 28, -4, 6, 9, 971, 941, 46,∜
2025-03-17 11:15:24.427,689, 548, 311, -25, 77, -63, -3, 3, 8, 956, 907, 41,∜
2025-03-17 11:15:24.485,406, 601, 753, -16, 1, -4, -3, 3, 5, 941, 890, 51,∜
2025-03-17 11:15:24.737,705, 563, 443, -4, 1, 3, -2, 4, 8, 932, 774, 37,∫
2025-03-17 11:15:24.790,717, 572, 447, -3, 0, 3, -2, 1, 6, 932, 769, 32,∫
2025-03-17 11:15:24.838,710, 544, 464, 5, -2, 3, -3, 4, 8, 931, 785, 35,∫
2025-03-17 11:15:24.888,718, 569, 429, 0, 0, 1, -3, 4, 8, 930, 799, 33,∫
2025-03-17 11:15:24.945,705, 560, 467, 3, -4, 2, -3, 3, 8, 931, 804, 45,∫
2025-03-17 11:15:24.992,716, 569, 409, 2, -4, 4, -4, 4, 8, 933, 813, 47,∫
2025-03-17 11:15:25.043,697, 561, 448, -3, 0, 1, -3, 4, 8, 933, 818, 36,∫
2025-03-17 11:15:25.093,729, 569, 403, 0, -4, 4, 0, 3, 8, 934, 825, 43,∫
2025-03-17 11:15:25.149,731, 567, 399, -2, 1, -1, -2, 3, 9, 937, 831, 38,∫
2025-03-17 11:15:25.197,700, 562, 438, 5, -1, 3, -2, 3, 9, 937, 833, 44,∫
2025-03-17 11:15:25.251,766, 559, 387, 1, 0, -2, -3, 4, 7, 937, 829, 48,∫
2025-03-17 11:15:25.300,682, 568, 482, 3, 2, 2, -1, 2, 9, 940, 817, 29,∫
2025-03-17 11:15:25.349,790, 575, 331, 14, -3, 8, -3, 6, 5, 941, 849, 21,∫
2025-03-17 11:15:25.402,649, 561, 460, -4, -14, 6, -2, 3, 9, 945, 877, 45,∫
2025-03-17 11:15:25.452,749, 557, 293, -8, -18, 19, -4, 5, 9, 951, 899, 42,∫
2025-03-17 11:15:25.506,679, 583, 471, -15, -12, 1, -5, 5, 8, 953, 915, 39,∫
2025-03-17 11:15:25.566,851, 417, 474, 17, -8, -18, -4, 3, 10, 961, 926, 37,∫
2025-03-17 11:15:25.619,738, 649, 422, 11, 36, 23, -3, 2, 11, 972, 933, 45,∫
2025-03-17 11:15:25.676,625, 539, 521, -14, 16, 16, -4, 2, 9, 972, 936, 31,∫
2025-03-17 11:15:25.730,1062, 256, 291, 37, 14, -25, -3, 5, 7, 944, 841, 49,∫
2025-03-17 11:15:25.784,439, 411, 754, -36, 62, -46, -2, 5, 5, 926, 846, 38,∫
2025-03-17 11:15:26.056,743, 538, 403, 8, -14, 5, -3, 4, 8, 925, 866, 30,∮
2025-03-17 11:15:26.106,759, 544, 381, 5, -12, 5, -1, 3, 9, 925, 867, 33,∮
2025-03-17 11:15:26.157,734, 570, 377, -2, -1, -1, -2, 3, 10, 927, 874, 25,∮
2025-03-17 11:15:26.218,731, 554, 419, -5, -4, 1, -2, 2, 11, 929, 881, 42,∮
2025-03-17 11:15:26.267,731, 550, 409, -2, -3, 2, -4, 4, 9, 934, 882, 44,∮
2025-03-17 11:15:26.317,769, 564, 412, 2, -10, 3, -3, 3, 9, 935, 886, 29,∮
2025-03-17 11:15:26.367,731, 558, 402, -2, -9, 4, -5, 4, 10, 941, 897, 45,∮
2025-03-17 11:15:26.427,753, 573, 355, -20, -2, -3, -3, 5, 9, 943, 911, 34,∮
2025-03-17 11:15:26.483,677, 500, 426, -10, -4, -8, -4, 4, 10, 949, 927, 39,∮
2025-03-17 11:15:26.537,1026, 661, 69, 85, 7, -14, -5, 3, 9, 959, 891, 32,∮
2025-03-17 11:15:26.587,887, 818, 119, -18, 50, 46, -4, 3, 9, 961, 888, 34,∮
2025-03-17 11:15:26.637,656, 180, 598, 2, -31, -50, -1, 5, 10, 945, 908, 31,∮
2025-03-17 11:15:26.701,874, 613, -21, -65, -48, -31, -3, 3, 11, 938, 927, 43,∮
2025-03-17 11:15:26.757,549, 330, 482, -20, 14, 27, -2, 2, 11, 967, 938, 41,∮
2025-03-17 11:15:26.807,791, 958, 139, -1, 40, 36, -3, 5, 10, 972, 937, 39,∮
2025-03-17 11:15:26.865,939, 69, 592, 12, -2, -33, -4, 4, 8, 950, 900, 50,∮
2025-03-17 11:15:26.918,489, 447, 866, -58, -5, -24, -4, 5, 7, 955, 936, 28,∮
2025-03-17 11:15:26.969,665, 568, 627, 31, -64, 24, -3, 6, 9, 961, 945, 52,∮
2025-03-17 11:15:27.027,679, 416, 314, 35, 12, -5, -2, 3, 11, 965, 942, 35,∮
2025-03-17 11:15:27.082,731, 1048, -25, 21, 40, 31, -3, 1, 11, 972, 946, 50,∮
2025-03-17 11:15:27.135,691, 638, 432, -14, 18, 16, -2, 5, 8, 967, 929, 39,∮
2025-03-17 11:15:27.186,1083, 448, 76, 0, 52, -51, -4, 5, 7, 932, 841, 40,∮
2025-03-17 11:15:27.512,690, 573, 442, -18, 12, -40, -2, 1, 8, 746, 551, 45,∂
2025-03-17 11:15:27.565,671, 569, 477, -15, 11, -41, -2, 3, 5, 740, 540, 38,∂
2025-03-17 11:15:27.618,687, 619, 426, -22, 14, -53, -1, 0, 6, 732, 595, 37,∂
2025-03-17 11:15:27.676,630, 652, 436, -17, 6, -83, -3, -2, 6, 724, 610, 42,∂
2025-03-17 11:15:27.727,497, 684, 562, -8, 8, -93, -2, -3, 4, 702, 524, 27,∂
2025-03-17 11:15:27.787,405, 702, 662, 6, -10, -88, -1, -6, 5, 694, 407, 218,∂
2025-03-17 11:15:27.836,324, 796, 573, 21, -8, -57, 1, -12, 7, 677, 410, 336,∂
2025-03-17 11:15:27.900,376, 864, 431, 46, -23, -51, -1, -10, 6, 666, 345, 456,∂
2025-03-17 11:15:27.956,149, 1071, 458, 18, 21, 30, -2, -12, 5, 793, 392, 525,∂
2025-03-17 11:15:28.006,254, 860, 427, 3, 52, 164, 0, -9, 5, 837, 520, 401,∂
2025-03-17 11:15:28.065,526, 479, 497, 0, 27, 174, -3, -4, 3, 842, 661, 189,∂
2025-03-17 11:15:28.118,675, 464, 458, 4, -3, 87, -1, 0, 2, 843, 691, 29,∂
2025-03-17 11:15:28.167,835, 660, 735, 32, -22, 39, -1, 3, 5, 856, 717, 117,∂
2025-03-17 11:15:28.227,528, 490, 376, -3, -24, 29, -2, 3, 4, 882, 784, 49,∂
2025-03-17 11:15:28.282,905, 598, 287, 14, -32, 18, -4, 3, 7, 898, 815, 166,∂
2025-03-17 11:15:28.337,720, 582, 395, -6, -4, -10, -3, 2, 6, 906, 833, 163,∂
2025-03-17 11:15:28.387,623, 546, 500, -15, -3, -20, -4, 3, 5, 914, 844, 47,∂
2025-03-17 11:15:28.442,723, 577, 539, 28, -63, 22, -4, 0, 8, 922, 860, 32,∂
2025-03-17 11:15:28.500,694, 820, 206, -2, -3, 10, -2, 1, 10, 955, 928, 189,∂
2025-03-17 11:15:28.554,804, 965, 431, -1, 43, 28, 0, 1, 10, 958, 911, 36,∂
2025-03-17 11:15:28.607,375, 510, 135, -35, -1, -19, -3, 2, 6, 946, 858, 48,∂
2025-03-17 11:15:28.656,889, 789, 361, -13, -38, 4, -2, 1, 9, 962, 947, 38,∂
2025-03-17 11:15:28.715,659, 608, 351, 0, 7, 14, -4, 3, 8, 969, 949, 36,∂
2025-03-17 11:15:28.768,809, 431, 193, -11, 54, -49, -5, 6, 5, 955, 921, 31,∂
2025-03-17 11:15:29.060,673, 605, 446, -1, 1, -12, -1, 1, 8, 908, 814, 39,∇
2025-03-17 11:15:29.118,666, 615, 449, 2, 0, -11, -4, 2, 8, 906, 814, 33,∇
2025-03-17 11:15:29.170,694, 617, 376, 9, -6, -11, -2, 1, 8, 907, 799, 55,∇
2025-03-17 11:15:29.218,695, 649, 366, 6, -8, -23, -3, 0, 9, 908, 776, 209,∇
2025-03-17 11:15:29.268,577, 703, 434, 0, 3, 2, -2, 0, 8, 913, 773, 211,∇
2025-03-17 11:15:29.327,585, 687, 458, 13, -14, 31, -3, 2, 7, 920, 784, 135,∇
2025-03-17 11:15:29.383,758, 565, 320, 12, -16, 28, -5, -1, 9, 926, 803, 46,∇
2025-03-17 11:15:29.437,842, 553, 211, -11, 3, 1, -4, 0, 11, 927, 814, 34,∇
2025-03-17 11:15:29.487,680, 626, 424, -10, 5, 0, -3, 3, 8, 928, 840, 50,∇
2025-03-17 11:15:29.537,751, 606, 348, -4, -6, 2, -5, 1, 8, 929, 839, 23,∇
2025-03-17 11:15:29.591,753, 588, 346, -4, 1, 0, -4, 1, 9, 929, 847, 42,∇
2025-03-17 11:15:29.642,655, 636, 418, -22, 5, -5, -5, 1, 9, 931, 806, 37,∇
2025-03-17 11:15:29.699,627, 558, 438, 0, -20, -2, -2, 2, 8, 938, 797, 26,∇
2025-03-17 11:15:29.751,929, 657, 422, 37, -7, -2, -4, 3, 8, 955, 928, 48,∇
2025-03-17 11:15:29.801,741, 500, 594, 3, 3, 32, -2, 2, 11, 968, 941, 42,∇
2025-03-17 11:15:29.851,429, 521, 370, 14, 23, 9, -3, 2, 10, 968, 931, 42,∇
2025-03-17 11:15:29.907,992, 808, 183, -30, 38, 13, -3, 4, 8, 961, 887, 40,∇
2025-03-17 11:15:29.965,714, 218, 637, -11, 2, -58, -2, 7, 6, 940, 840, 33,∇
2025-03-17 11:15:30.018,753, 712, -356, -128, -21, -43, -3, 2, 10, 943, 899, 47,∇
2025-03-17 11:15:30.068,388, 671, -21, -12, 21, 59, -4, 1, 9, 969, 941, 39,∇
2025-03-17 11:15:30.127,619, 509, 418, -6, 22, 26, -4, 4, 8, 966, 925, 37,∇
2025-03-17 11:15:30.187,654, 513, 327, -11, 45, -71, -3, 4, 6, 934, 852, 52,∇
2025-03-17 11:15:30.477,696, 592, 432, 6, -16, 5, -4, 2, 9, 907, 847, 29,∆
2025-03-17 11:15:30.535,723, 596, 404, 5, -16, 5, -4, 2, 9, 907, 848, 28,∆
2025-03-17 11:15:30.584,750, 571, 374, 2, -8, 4, -6, 3, 8, 912, 857, 37,∆
2025-03-17 11:15:30.637,724, 604, 370, -6, 0, -2, -4, 3, 10, 917, 859, 33,∆
2025-03-17 11:15:30.687,702, 562, 435, -7, -7, -1, -6, 3, 7, 927, 876, 48,∆
2025-03-17 11:15:30.742,717, 685, 375, -3, -9, -1, -2, 2, 9, 941, 913, 44,∆
2025-03-17 11:15:30.796,707, 606, 431, -7, -6, -4, -2, 1, 11, 954, 933, 37,∆
2025-03-17 11:15:30.850,708, 519, 486, 12, -8, -8, -4, 3, 9, 959, 932, 35,∆
2025-03-17 11:15:30.901,862, 856, 88, -2, 31, 13, -2, 4, 8, 962, 870, 37,∆
2025-03-17 11:15:30.957,756, 534, 489, -12, 15, 3, -3, 2, 9, 958, 856, 42,∆
2025-03-17 11:15:31.007,801, 659, 302, -32, -7, 41, -5, 3, 10, 970, 938, 38,∆
2025-03-17 11:15:31.057,712, 442, 294, 10, 7, 8, -4, 3, 9, 971, 946, 38,∆
2025-03-17 11:15:31.117,779, 266, 300, 28, -2, -45, -4, 5, 8, 953, 923, 42,∆
2025-03-17 11:15:31.168,633, 880, 700, 10, -34, -18, -3, 3, 8, 936, 890, 355,∆
2025-03-17 11:15:31.227,831, 787, -96, -6, 11, 16, -2, 1, 11, 971, 942, 30,∆
2025-03-17 11:15:31.277,663, 613, 253, -27, 44, 47, -2, 3, 9, 975, 945, 48,∆
2025-03-17 11:15:31.333,807, 171, 344, -2, 17, -46, -4, 2, 10, 959, 910, 40,∆
2025-03-17 11:15:31.387,624, 655, 641, -9, 19, -28, -4, 4, 5, 906, 844, 117,∆
2025-03-17 11:15:31.667,683, 560, 457, -11, -6, -1, -3, 2, 8, 894, 684, 42,π
2025-03-17 11:15:31.723,697, 570, 421, -7, -6, -1, -3, 3, 7, 894, 684, 47,π
2025-03-17 11:15:31.769,659, 573, 461, 0, -2, -1, -5, 3, 6, 895, 718, 48,π
2025-03-17 11:15:31.827,663, 579, 472, -2, -8, 2, -4, 4, 7, 904, 793, 39,π
2025-03-17 11:15:31.877,708, 582, 417, 6, -9, 7, -1, 1, 7, 910, 811, 28,π
2025-03-17 11:15:31.931,738, 541, 399, -6, 1, 0, -4, 3, 8, 915, 820, 32,π
2025-03-17 11:15:31.981,702, 568, 445, -3, -1, 1, -3, 1, 9, 922, 832, 33,π
2025-03-17 11:15:32.034,721, 556, 437, 0, -2, 0, -2, 4, 7, 926, 836, 43,π
2025-03-17 11:15:32.083,697, 580, 420, 1, 1, -3, -2, 4, 8, 924, 818, 32,π
2025-03-17 11:15:32.135,702, 583, 426, 2, -4, 2, -5, 5, 7, 926, 812, 29,π
2025-03-17 11:15:32.186,750, 588, 374, -2, -3, -1, -5, 4, 6, 930, 825, 39,π
2025-03-17 11:15:32.238,654, 571, 494, 3, -3, 2, -2, 2, 8, 932, 832, 44,π
2025-03-17 11:15:32.287,677, 540, 399, 6, -15, -9, -2, 5, 8, 931, 817, 29,π
2025-03-17 11:15:32.349,725, 549, 329, -22, -11, -14, -1, 2, 9, 950, 892, 48,π
2025-03-17 11:15:32.400,837, 553, 193, -14, -13, 54, -4, 4, 10, 971, 950, 29,π
2025-03-17 11:15:32.456,616, 625, 566, 16, -3, 14, -4, 3, 10, 969, 944, 45,π
2025-03-17 11:15:32.507,701, 432, 353, 15, 13, -48, -4, 5, 8, 944, 903, 43,π
2025-03-17 11:15:32.565,729, 747, 548, 8, -19, 11, -2, 0, 9, 944, 899, 44,π
2025-03-17 11:15:32.617,742, 864, 241, -26, 15, 19, -4, 0, 12, 967, 936, 46,π
2025-03-17 11:15:32.667,898, 432, 458, -55, 24, 21, -4, 3, 8, 968, 919, 40,π
2025-03-17 11:15:32.727,1026, 351, 699, 57, -31, -28, -4, 4, 9, 945, 887, 39,π
2025-03-17 11:15:32.783,394, 633, 807, 10, -47, 10, -5, 4, 10, 959, 935, 40,π
2025-03-17 11:15:32.840,770, 471, 400, 28, -1, -6, -4, 2, 10, 970, 941, 40,π
2025-03-17 11:15:32.887,848, 813, 3, -14, 28, 32, -3, 3, 10, 976, 944, 38,π
2025-03-17 11:15:32.941,700, 387, 541, 2, -11, 8, -4, 2, 9, 970, 946, 50,π
2025-03-17 11:15:32.999,677, 491, 319, -33, 85, -50, -4, 4, 8, 954, 927, 35,π
2025-03-17 11:15:33.316,671, 556, 458, 3, -3, -10, -1, 0, 8, 891, 683, 22,θ
2025-03-17 11:15:33.368,662, 610, 477, 4, -5, -6, -1, 0, 8, 893, 698, 30,θ
2025-03-17 11:15:33.426,666, 614, 425, 18, -12, 8, -3, 3, 6, 894, 746, 35,θ
2025-03-17 11:15:33.477,746, 582, 356, 7, -10, 6, -3, 1, 6, 896, 775, 49,θ
2025-03-17 11:15:33.527,716, 591, 431, -4, 2, -1, -1, 3, 9, 900, 791, 39,θ
2025-03-17 11:15:33.582,711, 594, 409, -3, -4, 2, -4, 1, 9, 908, 804, 31,θ
2025-03-17 11:15:33.634,717, 592, 410, -6, 0, -3, -1, 1, 10, 915, 810, 41,θ
2025-03-17 11:15:33.687,706, 601, 399, -3, -5, 2, -3, 3, 7, 919, 816, 42,θ
2025-03-17 11:15:33.737,735, 592, 395, -3, -3, 1, -3, 1, 9, 925, 817, 42,θ
2025-03-17 11:15:33.787,711, 598, 403, 0, -1, 0, -3, 2, 8, 927, 818, 39,θ
2025-03-17 11:15:33.839,719, 581, 394, 0, -6, -3, -4, 4, 9, 927, 833, 41,θ
2025-03-17 11:15:33.887,723, 603, 426, -4, -6, 4, -2, 2, 9, 929, 854, 37,θ
2025-03-17 11:15:33.941,757, 583, 337, 0, 5, 0, -2, 4, 7, 932, 861, 32,θ
2025-03-17 11:15:33.992,682, 615, 445, -7, -7, -2, -3, 4, 7, 934, 861, 23,θ
2025-03-17 11:15:34.048,673, 610, 420, 5, -22, 10, -4, 4, 8, 936, 880, 50,θ
2025-03-17 11:15:34.107,792, 617, 286, -22, -5, -6, -3, 1, 10, 940, 901, 36,θ
2025-03-17 11:15:34.157,904, 266, 557, 80, -15, -30, -3, 1, 10, 956, 899, 49,θ
2025-03-17 11:15:34.217,776, 500, -231, 7, 57, 45, -2, 1, 11, 965, 899, 49,θ
2025-03-17 11:15:34.271,649, 149, 679, 11, -36, -42, -3, 4, 7, 950, 896, 156,θ
2025-03-17 11:15:34.327,887, 242, 366, -1, -23, -16, -5, 1, 10, 951, 926, 356,θ
2025-03-17 11:15:34.381,676, 558, 419, -3, 25, 32, -4, 0, 10, 971, 938, 44,θ
2025-03-17 11:15:34.437,533, 955, 47, -62, 46, 41, -3, 2, 10, 973, 938, 28,θ
2025-03-17 11:15:34.487,823, 127, 574, 15, -9, -42, -3, 6, 8, 952, 895, 41,θ
2025-03-17 11:15:34.549,2372, 439, 52, -36, -16, -18, -2, 1, 10, 961, 945, 23,θ
2025-03-17 11:15:34.598,950, 501, 151, 4, 7, 25, -4, 4, 10, 972, 955, 34,θ
2025-03-17 11:15:34.650,882, 324, 204, 13, 26, -19, -3, 4, 10, 960, 939, 40,θ
2025-03-17 11:15:34.708,635, 593, 591, -23, 42, -34, -4, 3, 6, 931, 851, 43,θ
2025-03-17 11:15:34.982,703, 609, 395, -7, -2, -1, -4, 3, 5, 899, 729, 36,λ
2025-03-17 11:15:35.033,709, 599, 392, -8, -1, -2, -2, 2, 8, 898, 730, 42,λ
2025-03-17 11:15:35.084,694, 572, 453, -7, 0, -2, -3, 4, 7, 898, 752, 46,λ
2025-03-17 11:15:35.137,697, 607, 451, -3, -4, 0, -2, 2, 8, 897, 754, 45,λ
2025-03-17 11:15:35.187,695, 579, 442, -3, -3, 2, -4, 3, 6, 896, 753, 24,λ
2025-03-17 11:15:35.241,697, 584, 420, -3, -5, 2, -4, 4, 8, 900, 768, 45,λ
2025-03-17 11:15:35.295,718, 590, 409, -6, 0, 1, -3, 1, 7, 904, 773, 51,λ
2025-03-17 11:15:35.347,704, 573, 441, -5, -1, -2, -3, 3, 8, 906, 774, 33,λ
2025-03-17 11:15:35.397,698, 596, 437, -3, -4, 2, -3, 5, 5, 910, 801, 41,λ
2025-03-17 11:15:35.449,718, 571, 404, 3, -4, 2, -4, 4, 8, 915, 815, 50,λ
2025-03-17 11:15:35.499,685, 561, 441, 2, 0, 2, -3, 1, 8, 919, 820, 46,λ
2025-03-17 11:15:35.552,696, 586, 428, 3, -11, 2, -4, 2, 8, 922, 821, 31,λ
2025-03-17 11:15:35.601,626, 589, 473, 5, -13, 2, -4, 4, 8, 926, 845, 48,λ
2025-03-17 11:15:35.657,823, 584, 193, -40, -6, 0, -4, 2, 11, 947, 915, 39,λ
2025-03-17 11:15:35.709,876, 711, 430, 17, -15, 22, -3, 2, 9, 963, 937, 32,λ
2025-03-17 11:15:35.759,665, 748, 252, 45, 14, 6, -3, 3, 9, 969, 937, 40,λ
2025-03-17 11:15:35.818,862, 766, 124, -23, 37, 30, -3, 4, 10, 968, 930, 29,λ
2025-03-17 11:15:35.867,460, 683, 673, 2, -15, -42, -2, 2, 9, 953, 922, 41,λ
2025-03-17 11:15:35.927,780, 1143, 515, 7, -15, -2, -2, 4, 10, 968, 948, 36,λ
2025-03-17 11:15:35.982,861, 782, 262, -6, 38, 17, -2, 3, 12, 972, 940, 44,λ
2025-03-17 11:15:36.031,814, 569, 312, 4, 24, 7, -2, 4, 9, 956, 885, 40,λ
2025-03-17 11:15:36.087,587, 613, 528, -26, 33, -38, -4, 3, 6, 932, 887, 49,λ
2025-03-17 11:15:36.367,699, 592, 398, 0, 1, 4, -3, 1, 9, 911, 822, 50,μ
2025-03-17 11:15:36.417,694, 577, 412, 1, 1, 5, -4, 3, 9, 914, 822, 47,μ
2025-03-17 11:15:36.470,697, 616, 452, 10, -2, 12, -3, 4, 8, 911, 811, 34,μ
2025-03-17 11:15:36.520,763, 539, 374, -2, 1, 0, -3, 8, 5, 915, 811, 36,μ
2025-03-17 11:15:36.570,705, 577, 436, -4, 1, 0, -4, 2, 8, 921, 818, 47,μ
2025-03-17 11:15:36.618,715, 584, 407, -5, 0, 0, -4, 5, 7, 926, 825, 50,μ
2025-03-17 11:15:36.668,726, 579, 405, -7, 0, 1, -4, 2, 8, 928, 831, 49,μ
2025-03-17 11:15:36.727,703, 570, 426, -2, -2, -1, -4, 4, 8, 932, 844, 39,μ
2025-03-17 11:15:36.777,739, 562, 414, 0, 0, 2, -4, 3, 8, 934, 852, 39,μ
2025-03-17 11:15:36.830,717, 571, 435, -4, 0, -1, -3, 4, 8, 934, 855, 45,μ
2025-03-17 11:15:36.883,730, 560, 416, -8, -2, -4, -4, 4, 7, 934, 861, 33,μ
2025-03-17 11:15:36.932,691, 589, 436, -6, 3, -2, -6, 6, 7, 934, 865, 41,μ
2025-03-17 11:15:36.986,755, 511, 431, 18, 11, 5, -3, 4, 7, 931, 809, 37,μ
2025-03-17 11:15:37.037,668, 616, 465, 4, 16, 15, -2, 2, 7, 930, 682, 49,μ
2025-03-17 11:15:37.087,713, 604, 416, 8, 10, 20, -1, 2, 8, 933, 575, 33,μ
2025-03-17 11:15:37.141,814, 428, 238, 1, -2, -9, -4, 4, 6, 945, 751, 35,μ
2025-03-17 11:15:37.191,755, 538, 490, -15, -16, -4, -2, 3, 8, 952, 916, 42,μ
2025-03-17 11:15:37.251,846, 357, 523, -2, -50, -27, -4, 3, 8, 956, 948, 45,μ
2025-03-17 11:15:37.299,716, 469, 555, 3, -14, -7, -4, 4, 9, 963, 951, 26,μ
2025-03-17 11:15:37.357,624, 909, 225, 8, 29, 26, -4, 3, 12, 970, 948, 53,μ
2025-03-17 11:15:37.407,830, 925, 112, -28, 21, 23, -5, 3, 10, 971, 949, 43,μ
2025-03-17 11:15:37.466,663, 466, 514, -13, -14, -1, -5, 6, 8, 969, 953, 48,μ
2025-03-17 11:15:37.516,739, 657, 291, 17, 6, 4, -5, 5, 8, 972, 946, 30,μ
2025-03-17 11:15:37.567,773, 684, 300, -27, 8, 15, -4, 5, 9, 974, 946, 35,μ
2025-03-17 11:15:37.617,765, 498, 459, 19, -18, -13, -5, 6, 8, 965, 947, 51,μ
2025-03-17 11:15:37.682,715, 541, 418, -28, 72, -37, -3, 5, 8, 956, 931, 38,μ
2025-03-17 11:15:37.732,465, 594, 751, 1, 12, -2, -3, 4, 6, 950, 911, 37,μ
2025-03-17 11:15:37.787,711, 501, 459, 23, -23, 12, -2, 5, 6, 943, 873, 42,μ
2025-03-17 11:15:37.836,805, 531, 347, 2, 3, -8, -2, 4, 7, 937, 844, 52,μ
2025-03-17 11:15:37.887,669, 566, 519, -7, 8, -8, -3, 4, 5, 931, 810, 39,μ
2025-03-17 11:15:38.739,706, 567, 455, -1, -2, -2, -2, 3, 8, 926, 833, 47,ω
2025-03-17 11:15:38.787,698, 571, 447, 0, -3, -1, 0, 6, 10, 925, 836, 50,ω
2025-03-17 11:15:38.845,708, 567, 423, -3, -4, 0, -4, 4, 7, 933, 856, 48,ω
2025-03-17 11:15:38.898,700, 590, 424, 8, -15, 7, -3, 3, 7, 935, 866, 38,ω
2025-03-17 11:15:38.947,782, 582, 351, -1, -13, 6, -3, 3, 10, 940, 872, 26,ω
2025-03-17 11:15:38.997,774, 555, 361, 2, -1, 0, -4, 4, 8, 944, 887, 41,ω
2025-03-17 11:15:39.046,723, 582, 409, -2, 3, -1, -3, 3, 10, 941, 886, 46,ω
2025-03-17 11:15:39.107,707, 562, 446, -2, -8, 2, -3, 4, 10, 946, 896, 38,ω
2025-03-17 11:15:39.163,757, 625, 482, -13, -13, -15, -4, 3, 9, 952, 929, 50,ω
2025-03-17 11:15:39.218,754, 352, 65, 66, 11, -9, -3, 3, 11, 966, 927, 44,ω
2025-03-17 11:15:39.271,621, 645, 88, -33, 33, 43, -3, 3, 10, 972, 941, 38,ω
2025-03-17 11:15:39.326,549, 516, 585, -22, -20, -4, -4, 5, 10, 970, 949, 38,ω
2025-03-17 11:15:39.380,766, 474, 245, 64, -8, -10, -5, 3, 12, 968, 938, 42,ω
2025-03-17 11:15:39.438,707, 670, 253, -44, 10, 19, -3, 3, 10, 970, 947, 37,ω
2025-03-17 11:15:39.489,827, 411, 538, 31, -29, -19, -5, 5, 9, 960, 945, 42,ω
2025-03-17 11:15:39.548,772, 414, 376, -28, 74, -41, -5, 5, 8, 937, 920, 45,ω
2025-03-17 11:15:39.857,751, 561, 378, 8, -8, 6, -4, 3, 9, 905, 772, 20,!
2025-03-17 11:15:39.907,750, 555, 359, 8, -6, 4, -4, 3, 9, 905, 776, 26,!
2025-03-17 11:15:39.963,750, 565, 371, 2, -1, -1, -3, 5, 7, 912, 797, 35,!
2025-03-17 11:15:40.017,735, 581, 383, -2, 1, -4, -4, 3, 10, 913, 809, 35,!
2025-03-17 11:15:40.066,721, 589, 385, -3, 1, -2, -3, 3, 11, 913, 811, 37,!
2025-03-17 11:15:40.117,728, 583, 406, -3, -3, 1, -3, 3, 8, 920, 819, 50,!
2025-03-17 11:15:40.167,733, 576, 380, -1, 0, -1, -4, 3, 8, 922, 823, 22,!
2025-03-17 11:15:40.225,723, 572, 398, 4, -4, 1, -6, 4, 7, 923, 826, 40,!
2025-03-17 11:15:40.276,741, 580, 359, -1, -1, -3, -5, 4, 9, 924, 833, 43,!
2025-03-17 11:15:40.326,724, 583, 374, -3, 0, -1, -4, 4, 9, 927, 829, 29,!
2025-03-17 11:15:40.381,744, 575, 346, -9, -1, -5, -5, 7, 6, 929, 839, 41,!
2025-03-17 11:15:40.431,702, 602, 401, -7, -3, -1, -2, 3, 11, 929, 853, 42,!
2025-03-17 11:15:40.489,729, 573, 398, -14, -14, 0, -5, 3, 8, 931, 875, 32,!
2025-03-17 11:15:40.541,707, 540, 541, -32, -1, -2, -3, 4, 9, 942, 915, 37,!
2025-03-17 11:15:40.597,885, 987, 174, 27, 21, 18, -6, 3, 10, 966, 923, 36,!
2025-03-17 11:15:40.648,914, 1059, 54, -19, 53, 51, -4, 3, 10, 963, 909, 36,!
2025-03-17 11:15:40.698,145, 681, 937, 4, 55, -9, -3, 4, 6, 955, 862, 43,!
2025-03-17 11:15:40.757,849, 1568, 25, -9, -19, 13, -2, 4, 8, 964, 927, 50,!
2025-03-17 11:15:40.806,885, 535, 631, 24, -2, 3, -4, 6, 5, 954, 900, 49,!
2025-03-17 11:15:40.864,573, 499, 443, -37, 76, -47, -3, 6, 5, 933, 829, 42,!
2025-03-17 11:15:41.146,701, 567, 426, -3, 2, -2, -1, 5, 5, 893, 757, 30,@
2025-03-17 11:15:41.197,716, 562, 439, -1, 2, -2, -1, 5, 5, 894, 761, 43,@
2025-03-17 11:15:41.256,700, 569, 448, -7, 1, -1, -3, 4, 7, 901, 762, 39,@
2025-03-17 11:15:41.307,715, 567, 424, -4, 0, -1, -4, 6, 5, 901, 764, 34,@
2025-03-17 11:15:41.360,722, 563, 440, -7, 1, 0, -2, 4, 7, 902, 764, 39,@
2025-03-17 11:15:41.413,708, 569, 430, -3, 0, -2, -3, 1, 8, 904, 767, 40,@
2025-03-17 11:15:41.462,708, 570, 437, -4, 0, -2, -3, 4, 6, 903, 761, 26,@
2025-03-17 11:15:41.516,713, 572, 432, -5, -1, -1, -3, 4, 8, 903, 751, 42,@
2025-03-17 11:15:41.566,706, 559, 444, -8, -1, -1, -2, 3, 8, 908, 743, 44,@
2025-03-17 11:15:41.616,718, 561, 432, -5, -2, -1, -3, 6, 7, 909, 739, 33,@
2025-03-17 11:15:41.670,708, 556, 438, -3, -1, 1, -3, 2, 7, 910, 750, 53,@
2025-03-17 11:15:41.729,711, 562, 437, -1, -1, 0, -2, 4, 7, 910, 752, 58,@
2025-03-17 11:15:41.777,715, 561, 444, -4, 0, 0, -4, 3, 7, 912, 757, 19,@
2025-03-17 11:15:41.831,723, 544, 447, -3, -2, -1, -4, 4, 8, 914, 768, 37,@
2025-03-17 11:15:41.881,715, 557, 444, -3, -2, -2, -3, 3, 8, 915, 783, 50,@
2025-03-17 11:15:41.936,701, 556, 461, 1, -2, -1, -2, 4, 8, 915, 787, 26,@
2025-03-17 11:15:41.986,724, 548, 422, 0, -2, -1, -2, 2, 9, 915, 802, 54,@
