Timestamp,Acc_X,Acc_Y,Acc_Z,Gyro_X,Gyro_Y,Gyro_Z,Mag_X,Mag_Y,Mag_Z,Force1,Force2,Force3,Letter
2025-03-12 15:36:45.185,920, 799, 597, -6, -1, -23, 2, 6, -11, 915, 766, 657,noise
2025-03-12 15:36:45.188,578, 471, 661, 0, 14, 21, 3, 8, -11, 873, 755, 597,noise
2025-03-12 15:36:45.189,920, 799, 597, -6, -1, -23, 2, 6, -11, 915, 766, 657,noise
2025-03-12 15:36:52.087,710, 547, 463, 0, 1, 0, 0, 2, 0, 913, 758, 619,A
2025-03-12 15:36:52.137,708, 547, 464, 0, 0, 0, 1, 0, 3, 913, 753, 609,A
2025-03-12 15:36:52.187,717, 539, 461, -4, 0, -1, -2, 0, 1, 906, 746, 602,A
2025-03-12 15:36:52.238,717, 544, 469, 0, -1, -1, -4, 0, 1, 903, 739, 585,A
2025-03-12 15:36:52.290,713, 550, 467, -4, 0, -1, -1, 1, -1, 902, 732, 595,A
2025-03-12 15:36:52.349,710, 547, 475, -3, 0, 0, -4, 1, 1, 902, 707, 577,A
2025-03-12 15:36:52.402,714, 537, 469, -2, 1, 0, -2, 1, 1, 900, 684, 494,A
2025-03-12 15:36:52.452,718, 535, 472, -2, 2, 1, -1, 1, 1, 902, 663, 476,A
2025-03-12 15:36:52.504,713, 537, 479, -2, 0, 0, -3, 1, 0, 903, 661, 470,A
2025-03-12 15:36:52.557,715, 543, 466, -1, -1, 0, -3, 0, 2, 904, 686, 499,A
2025-03-12 15:36:52.611,708, 541, 467, -4, 0, 1, -3, -2, 2, 913, 729, 574,A
2025-03-12 15:36:52.666,716, 517, 479, -5, -4, -2, -2, 1, 2, 924, 768, 605,A
2025-03-12 15:36:52.719,811, 537, 402, -21, 2, -7, -1, 3, 0, 937, 818, 647,A
2025-03-12 15:36:52.770,745, 547, 491, -47, 5, -13, 1, 0, 1, 953, 882, 615,A
2025-03-12 15:36:52.828,681, 464, 546, -40, 3, -7, -1, 1, 1, 956, 912, 590,A
2025-03-12 15:36:52.883,602, 511, 552, -6, -15, 7, 0, 2, 1, 967, 941, 634,A
2025-03-12 15:36:52.936,680, 501, 516, 21, -16, 18, -2, 3, -1, 963, 945, 671,A
2025-03-12 15:36:52.988,736, 495, 450, 25, -6, 17, -4, 2, 2, 965, 944, 730,A
2025-03-12 15:36:53.038,763, 464, 494, 10, -7, 1, -4, 3, 3, 964, 944, 757,A
2025-03-12 15:36:53.099,761, 484, 465, 7, -18, -4, -2, 2, 3, 968, 949, 777,A
2025-03-12 15:36:53.153,762, 515, 425, -12, -19, -23, -3, 1, 4, 968, 948, 813,A
2025-03-12 15:36:53.207,690, 480, 565, -4, -52, 5, -3, 1, 5, 969, 952, 829,A
2025-03-12 15:36:53.263,825, 461, 383, 21, -4, -18, -3, 1, 9, 978, 957, 815,A
2025-03-12 15:36:53.316,714, 527, 245, 20, 45, 29, -3, 2, 7, 978, 951, 667,A
2025-03-12 15:36:53.370,925, 294, 548, -43, 20, 4, -2, 2, 3, 969, 945, 716,A
2025-03-12 15:36:53.428,419, 489, 970, -8, -62, -3, -4, 2, 5, 965, 946, 768,A
2025-03-12 15:36:53.478,765, 556, -84, 37, 5, 14, -4, 2, 7, 974, 954, 742,A
2025-03-12 15:36:53.537,839, 471, 499, -20, 40, 37, -3, 3, 5, 971, 949, 651,A
2025-03-12 15:36:53.591,516, 545, 770, -20, -11, -32, -4, 3, 4, 970, 929, 604,A
2025-03-12 15:36:53.649,882, 579, 244, -4, -19, 8, -1, 1, 7, 979, 962, 628,A
2025-03-12 15:36:53.701,1112, 61, 275, -10, 35, -9, -4, 3, 4, 974, 955, 655,A
2025-03-12 15:36:53.757,584, 474, 571, -32, 84, -59, -3, 4, -2, 962, 930, 611,A
2025-03-12 15:36:53.817,457, 617, 797, -7, -15, -3, -1, 1, -3, 956, 911, 598,A
2025-03-12 15:36:53.869,827, 502, 379, 11, -32, 19, -2, 1, 0, 959, 915, 622,A
2025-03-12 15:36:54.145,736, 479, 488, 1, -4, 6, -3, 2, 2, 956, 918, 667,B
2025-03-12 15:36:54.197,733, 496, 475, 1, -4, 5, -2, 2, 3, 958, 920, 665,B
2025-03-12 15:36:54.251,727, 511, 495, -3, -7, 7, -2, 0, 4, 963, 929, 694,B
2025-03-12 15:36:54.301,729, 490, 468, -1, -14, 7, -3, 2, 4, 958, 929, 701,B
2025-03-12 15:36:54.357,775, 450, 493, -5, -19, 0, -4, 4, 4, 962, 944, 731,B
2025-03-12 15:36:54.410,732, 335, 586, 20, -7, -12, -4, 2, 4, 968, 950, 714,B
2025-03-12 15:36:54.468,268, 781, 136, 24, 47, 55, -3, 2, 5, 976, 944, 390,B
2025-03-12 15:36:54.519,767, 345, 733, -28, 1, -6, -1, 4, 4, 969, 946, 509,B
2025-03-12 15:36:54.578,944, 416, 792, -23, -30, -21, -3, 4, 3, 977, 960, 746,B
2025-03-12 15:36:54.628,639, 711, 485, -9, -1, 20, -2, 2, 6, 982, 963, 670,B
2025-03-12 15:36:54.687,943, 524, 226, -9, 14, 20, -3, 3, 5, 977, 962, 527,B
2025-03-12 15:36:54.737,659, 383, 693, 0, 2, -2, -3, 3, 3, 983, 966, 482,B
2025-03-12 15:36:54.788,965, 429, 276, 10, 21, 6, -3, 4, 4, 980, 959, 312,B
2025-03-12 15:36:54.847,1094, 395, 244, -5, 60, -42, -2, 4, 4, 963, 926, 508,B
2025-03-12 15:36:54.900,484, 534, 870, -23, -1, -16, -1, 3, 0, 957, 919, 498,B
2025-03-12 15:36:54.958,655, 507, 573, 10, -41, 13, -2, 4, 3, 961, 926, 512,B
2025-03-12 15:36:55.010,853, 440, 326, -1, -11, -3, -2, 2, 2, 955, 922, 535,B
2025-03-12 15:36:55.066,698, 492, 529, -4, 3, -3, -2, 4, 3, 953, 922, 574,B
2025-03-12 15:36:55.118,730, 473, 533, -2, -8, 5, -4, 4, 3, 950, 915, 560,B
2025-03-12 15:36:55.168,784, 472, 440, -10, 4, -3, -4, 2, 2, 953, 919, 518,B
2025-03-12 15:36:55.438,750, 487, 469, -2, -2, 3, -2, 2, 4, 958, 922, 562,C
2025-03-12 15:36:55.488,750, 482, 476, -2, -1, 3, -3, 3, 2, 957, 922, 575,C
2025-03-12 15:36:55.549,734, 472, 506, 5, -10, 8, -2, 2, 4, 959, 924, 588,C
2025-03-12 15:36:55.602,772, 479, 433, 1, -9, 3, -5, 5, 3, 960, 930, 599,C
2025-03-12 15:36:55.652,684, 421, 541, -5, -15, -10, -5, 5, 3, 959, 939, 611,C
2025-03-12 15:36:55.711,586, 301, 580, -3, -8, -21, -4, 3, 6, 966, 944, 456,C
2025-03-12 15:36:55.766,1364, 785, 270, 46, 34, 27, -1, 3, 8, 971, 941, 265,C
2025-03-12 15:36:55.818,767, 575, 703, -19, 11, 39, -3, 5, 4, 976, 953, 330,C
2025-03-12 15:36:55.876,733, 421, 422, -27, 60, -56, -2, 3, 1, 954, 939, 541,C
2025-03-12 15:36:55.934,481, 643, 747, -16, 2, -14, -2, 2, -1, 947, 925, 527,C
2025-03-12 15:36:55.984,764, 511, 498, 7, -20, 11, -1, 1, 0, 938, 921, 515,C
2025-03-12 15:36:56.288,763, 452, 481, 4, -7, 1, -2, 3, 4, 959, 931, 562,D
2025-03-12 15:36:56.338,764, 451, 453, 3, -6, 0, -3, 4, 5, 960, 928, 559,D
2025-03-12 15:36:56.388,739, 483, 471, -8, -6, -10, -1, 3, 4, 952, 927, 581,D
2025-03-12 15:36:56.449,771, 515, 433, -5, -20, 4, -3, 2, 5, 958, 938, 605,D
2025-03-12 15:36:56.501,749, 377, 483, 20, 4, -7, -2, -1, 7, 966, 946, 495,D
2025-03-12 15:36:56.551,1253, 760, 529, 20, 36, 39, -3, 4, 4, 966, 936, 75,D
2025-03-12 15:36:56.610,771, 581, 372, -19, 15, 16, -4, 6, 3, 967, 937, 114,D
2025-03-12 15:36:56.668,752, 660, 484, -6, -48, -51, -1, 3, 5, 953, 941, 691,D
2025-03-12 15:36:56.717,751, 587, 542, -13, -9, 28, -3, 4, 6, 967, 951, 563,D
2025-03-12 15:36:56.777,554, 1141, 273, -35, 39, 40, -3, 5, 6, 978, 954, 52,D
2025-03-12 15:36:56.834,1083, 227, 272, 23, 43, -29, -3, 5, 4, 954, 912, 388,D
2025-03-12 15:36:56.888,620, 515, 752, -20, 33, -41, -2, 2, 0, 941, 905, 563,D
2025-03-12 15:36:57.193,716, 481, 521, -7, -10, -3, -2, 1, 1, 943, 904, 490,E
2025-03-12 15:36:57.248,706, 478, 529, -7, -11, -3, -2, 3, 1, 941, 904, 502,E
2025-03-12 15:36:57.301,698, 473, 543, -1, -22, 2, -2, 2, 4, 941, 912, 552,E
2025-03-12 15:36:57.358,744, 452, 500, 6, -35, 8, -3, 1, 3, 947, 927, 629,E
2025-03-12 15:36:57.411,701, 150, 537, 34, -6, -18, -3, 2, 3, 963, 938, 454,E
2025-03-12 15:36:57.466,961, 141, 198, 0, 37, 49, -2, 2, 4, 971, 936, 63,E
2025-03-12 15:36:57.519,939, 416, 670, -35, 2, 10, -3, 5, 2, 965, 931, 78,E
2025-03-12 15:36:57.567,525, 530, 869, 5, -48, -28, -3, 2, 4, 964, 945, 551,E
2025-03-12 15:36:57.618,909, 811, 97, 15, -20, 22, -3, 3, 6, 968, 955, 631,E
2025-03-12 15:36:57.678,644, 520, 503, 24, 17, 21, -2, 2, 7, 966, 944, 698,E
2025-03-12 15:36:57.733,557, 536, 613, 7, -8, -7, -3, 5, 3, 959, 916, 596,E
2025-03-12 15:36:57.787,893, 784, 460, -19, 7, 26, -4, 4, 4, 977, 952, 443,E
2025-03-12 15:36:57.837,734, 397, 596, 19, 17, 17, -3, 3, 5, 967, 939, 510,E
2025-03-12 15:36:57.891,397, 670, 927, 8, -31, -2, 0, 2, 4, 963, 847, 114,E
2025-03-12 15:36:57.949,928, 710, 443, -14, 6, 23, -2, 2, 5, 969, 940, 154,E
2025-03-12 15:36:58.002,971, 215, 239, -21, 23, -12, -2, 5, 4, 968, 935, 344,E
2025-03-12 15:36:58.061,485, 569, 862, -29, 37, -44, -2, 4, -1, 945, 886, 400,E
2025-03-12 15:36:58.328,714, 485, 514, -12, -7, -4, -4, 4, 3, 956, 911, 529,F
2025-03-12 15:36:58.388,709, 497, 507, -11, -10, -3, -1, 4, 3, 953, 911, 533,F
2025-03-12 15:36:58.438,746, 486, 490, -4, -30, 4, -2, 3, 4, 955, 925, 602,F
2025-03-12 15:36:58.498,856, 362, 544, 30, 2, -8, -3, 3, 4, 959, 927, 459,F
2025-03-12 15:36:58.550,840, 1068, 263, -45, 34, 48, -2, 4, 3, 973, 924, 36,F
2025-03-12 15:36:58.607,753, -75, 679, -13, -31, -50, -2, 4, 4, 963, 925, 223,F
2025-03-12 15:36:58.666,868, 602, 646, 11, -27, -17, -1, 2, 5, 969, 951, 487,F
2025-03-12 15:36:58.717,588, 509, 303, 8, 10, 26, -4, 1, 7, 976, 956, 585,F
2025-03-12 15:36:58.767,633, 254, 381, 6, 54, -31, -4, 5, 3, 964, 932, 600,F
2025-03-12 15:36:58.828,946, -492, 48, -23, -9, -14, -3, 4, 4, 972, 934, 436,F
2025-03-12 15:36:58.883,712, 486, 343, -25, 12, 38, -4, 2, 4, 974, 952, 438,F
2025-03-12 15:36:58.938,758, 462, 272, -16, 84, -58, -2, 3, 3, 960, 928, 549,F
2025-03-12 15:36:58.998,362, 572, 890, -14, -6, -14, -2, 3, -1, 955, 910, 553,F
2025-03-12 15:36:59.257,745, 504, 481, -1, -9, 1, -4, 2, 3, 963, 929, 559,G
2025-03-12 15:36:59.314,746, 501, 467, -2, -10, 2, -2, 5, 5, 963, 928, 560,G
2025-03-12 15:36:59.370,707, 477, 520, -6, -19, 4, -5, 4, 3, 965, 939, 598,G
2025-03-12 15:36:59.421,804, 486, 372, -21, 0, -7, -2, 3, 4, 972, 950, 467,G
2025-03-12 15:36:59.478,444, 479, 455, 50, 13, -12, -3, 3, 6, 977, 947, 224,G
2025-03-12 15:36:59.528,831, 1054, 59, -10, 52, 60, -4, 2, 5, 980, 946, 33,G
2025-03-12 15:36:59.588,789, 241, 632, -3, -29, -23, -3, 3, 5, 975, 948, 293,G
2025-03-12 15:36:59.638,630, 698, 291, 19, -4, -12, -3, 4, 6, 977, 944, 253,G
2025-03-12 15:36:59.698,709, 491, 386, -34, 23, 23, -4, 5, 5, 977, 936, 34,G
2025-03-12 15:36:59.752,583, 457, 702, 9, -26, -20, -4, 4, 3, 969, 927, 92,G
2025-03-12 15:36:59.805,906, 676, 277, -10, -12, 36, -4, 3, 4, 977, 950, 33,G
2025-03-12 15:36:59.862,891, 278, 42, -21, 68, -48, -1, 5, 4, 967, 936, 112,G
2025-03-12 15:36:59.918,512, 550, 893, -36, 43, -38, -2, 2, 1, 960, 900, 180,G
2025-03-12 15:37:00.447,709, 502, 517, -3, -4, 1, -2, 3, 0, 929, 851, 239,H
2025-03-12 15:37:00.500,703, 499, 526, -2, -4, 1, -1, 2, 1, 928, 850, 271,H
2025-03-12 15:37:00.558,697, 499, 529, 3, -11, 7, -2, 3, 1, 932, 857, 255,H
2025-03-12 15:37:00.610,735, 497, 476, 8, -16, 7, -3, 2, 1, 933, 878, 381,H
2025-03-12 15:37:00.660,744, 497, 471, 6, -12, 6, -2, 2, 3, 937, 893, 407,H
2025-03-12 15:37:00.714,770, 484, 458, 1, -11, 0, -2, 2, 3, 940, 902, 483,H
2025-03-12 15:37:00.768,744, 496, 449, -4, -7, -6, -4, 1, 3, 943, 908, 526,H
2025-03-12 15:37:00.824,712, 537, 518, -4, -28, 3, -4, 3, -1, 951, 924, 533,H
2025-03-12 15:37:00.877,748, 484, 412, 35, -5, -10, -3, 3, 6, 971, 938, 343,H
2025-03-12 15:37:00.931,952, 790, 203, 3, 35, 54, 0, 2, 6, 978, 929, 78,H
2025-03-12 15:37:00.984,710, 251, 669, -18, 4, 1, -1, 3, 6, 972, 924, 82,H
2025-03-12 15:37:01.037,773, 880, 275, 32, -25, 10, -4, 4, 3, 975, 952, 413,H
2025-03-12 15:37:01.089,898, 251, 314, -9, 12, -3, -5, 5, 3, 972, 948, 555,H
2025-03-12 15:37:01.148,303, 580, 1015, 10, -34, -5, -2, 2, 4, 971, 942, 642,H
2025-03-12 15:37:01.200,797, 780, -21, 18, 21, 19, -4, 2, 7, 979, 948, 181,H
2025-03-12 15:37:01.252,770, 403, 667, -2, 24, 34, -4, 2, 5, 977, 934, 52,H
2025-03-12 15:37:01.308,713, 452, 482, -4, 49, -62, -3, 4, 0, 959, 914, 362,H
2025-03-12 15:37:01.560,761, 473, 450, -10, 4, -3, -3, 3, 2, 950, 908, 299,I
2025-03-12 15:37:01.618,747, 472, 457, -9, 5, -3, -4, 0, 5, 949, 906, 292,I
2025-03-12 15:37:01.668,729, 505, 505, -8, 0, -2, -2, 3, 2, 949, 906, 272,I
2025-03-12 15:37:01.717,755, 488, 462, -8, 0, -3, -2, 2, 3, 947, 902, 263,I
2025-03-12 15:37:01.778,715, 492, 528, -3, 0, 0, -4, 3, 4, 947, 901, 161,I
2025-03-12 15:37:01.832,747, 481, 470, 0, -3, 1, -3, 2, 3, 950, 900, 225,I
2025-03-12 15:37:01.881,729, 468, 512, -3, 0, 1, -4, 1, 3, 948, 904, 291,I
2025-03-12 15:37:01.932,738, 484, 493, 2, -8, 2, -3, 3, 3, 948, 906, 312,I
2025-03-12 15:37:01.988,752, 488, 458, 0, -5, 0, -3, 1, 5, 951, 910, 320,I
2025-03-12 15:37:02.038,732, 492, 486, -4, -10, 0, -2, 1, 6, 955, 914, 328,I
2025-03-12 15:37:02.098,1000, 322, 330, -23, -6, -20, -3, 5, 2, 960, 919, 41,I
2025-03-12 15:37:02.149,968, 1131, 556, 30, -31, 38, -4, 4, 4, 973, 948, 340,I
2025-03-12 15:37:02.200,636, 174, 541, 35, 2, 8, -6, 4, 5, 974, 950, 489,I
2025-03-12 15:37:02.258,565, 541, 622, 12, -2, -28, -4, 3, 7, 969, 943, 521,I
2025-03-12 15:37:02.315,596, 1064, 13, 15, 30, 36, -3, 3, 6, 980, 949, 238,I
2025-03-12 15:37:02.368,684, 414, 456, -7, 35, 33, -2, 4, 5, 976, 934, 73,I
2025-03-12 15:37:02.417,659, 458, 719, 27, -27, -18, -2, 4, 1, 969, 898, 113,I
2025-03-12 15:37:02.477,879, 786, 313, -24, -11, 39, -2, 3, 5, 978, 954, 141,I
2025-03-12 15:37:02.532,955, 239, 106, -23, 51, -40, -3, 6, 1, 972, 941, 165,I
2025-03-12 15:37:02.828,704, 499, 501, -3, 0, -4, -3, 3, 3, 951, 905, 289,J
2025-03-12 15:37:02.868,702, 492, 519, 0, -2, -3, -1, 4, 2, 952, 906, 308,J
2025-03-12 15:37:02.927,722, 514, 474, 7, -6, 3, -3, 2, 3, 952, 903, 364,J
2025-03-12 15:37:02.983,771, 489, 444, 3, 0, 3, -2, 4, 3, 950, 902, 421,J
2025-03-12 15:37:03.037,741, 504, 481, -1, 2, -1, -1, 4, 2, 947, 893, 444,J
2025-03-12 15:37:03.084,745, 495, 459, -2, 3, -1, -1, 1, 2, 939, 869, 320,J
2025-03-12 15:37:03.138,745, 500, 461, -8, 10, -3, -2, 2, 2, 914, 808, 197,J
2025-03-12 15:37:03.188,727, 479, 500, -7, 4, -1, -1, 1, 4, 912, 786, 50,J
2025-03-12 15:37:03.238,741, 509, 493, -9, 6, -1, -2, 3, 1, 910, 781, 87,J
2025-03-12 15:37:03.298,701, 486, 528, 4, -2, -1, -2, 3, 1, 898, 772, 54,J
2025-03-12 15:37:03.347,741, 482, 497, 0, 1, 0, -3, 4, 1, 886, 768, 32,J
2025-03-12 15:37:03.399,728, 483, 506, -2, -1, 1, -2, 1, 3, 896, 788, 70,J
2025-03-12 15:37:03.449,717, 484, 526, 0, -5, 0, -3, 4, 1, 904, 801, 138,J
2025-03-12 15:37:03.499,723, 495, 507, -3, -13, -1, -1, 2, 1, 916, 849, 205,J
2025-03-12 15:37:03.560,729, 515, 493, -10, -33, 1, -3, 1, 5, 936, 905, 336,J
2025-03-12 15:37:03.618,707, 435, 522, -3, -25, -2, -5, 3, 6, 954, 928, 229,J
2025-03-12 15:37:03.668,840, 314, 285, -13, -8, -18, -5, 5, 4, 972, 949, 62,J
2025-03-12 15:37:03.728,630, 651, 410, -19, -8, 32, -4, 4, 5, 979, 959, 314,J
2025-03-12 15:37:03.782,721, 254, 320, 16, 2, -24, -4, 3, 6, 971, 954, 439,J
2025-03-12 15:37:03.832,1103, 285, 517, 21, 3, -15, -4, 2, 5, 975, 952, 425,J
2025-03-12 15:37:03.888,616, 774, 91, -53, 38, 66, -2, 6, 4, 981, 953, 90,J
2025-03-12 15:37:03.937,673, -278, 709, 5, 19, -26, -2, 4, 4, 976, 938, 105,J
2025-03-12 15:37:03.998,771, 441, 472, 36, 88, -62, 0, 1, 2, 897, 848, 350,J
2025-03-12 15:37:04.049,456, 598, 677, 5, 12, 1, -1, 1, -3, 835, 822, 566,J
2025-03-12 15:37:55.487,526, 616, 429, -1, 15, -1, 1, -9, 7, 707, 82, 393,K
2025-03-12 15:37:55.540,490, 621, 425, 28, 14, -6, 0, -8, 5, 717, 86, 423,K
2025-03-12 15:37:55.598,521, 919, 286, 136, 27, 20, -2, -11, 8, 828, 102, 391,K
2025-03-12 15:37:55.655,512, 823, 257, 76, 88, 32, 1, -12, 6, 879, 550, 287,K
2025-03-12 15:37:55.707,525, 832, 243, 8, 36, 2, 2, -12, 5, 894, 598, 290,K
2025-03-12 15:37:55.758,438, 851, 342, -64, 33, 4, 3, -10, 1, 918, 639, 522,K
2025-03-12 15:37:55.813,404, 885, 333, -66, 18, 28, 3, -9, 1, 927, 612, 560,K
2025-03-12 15:37:55.872,550, 524, 488, -50, 50, 25, 2, -9, -2, 924, 393, 598,K
2025-03-12 15:37:55.928,527, 832, 292, -13, -5, -31, 6, -7, -1, 925, 573, 534,K
2025-03-12 15:37:55.987,583, 875, 501, -56, -15, -16, 3, -5, -6, 892, 534, 494,K
2025-03-12 15:37:56.038,330, 820, 526, -56, -4, 27, 3, -5, -5, 861, 458, 430,K
2025-03-12 15:37:56.102,424, 698, 784, -63, -88, 69, 0, -6, -2, 777, 605, 323,K
2025-03-12 15:37:56.158,897, 633, 83, -28, -68, 34, -1, -2, 4, 721, 508, 193,K
2025-03-12 15:37:56.212,528, 663, 435, 43, 20, 15, -2, -3, 4, 813, 709, 89,K
2025-03-12 15:37:56.263,626, 456, 374, 23, 13, 38, -3, -4, 4, 833, 658, 352,K
2025-03-12 15:37:56.319,684, 486, 445, 7, 25, 3, -1, -2, 5, 882, 87, 560,K
2025-03-12 15:37:56.370,755, 945, 551, 18, -11, -49, -2, -1, 2, 872, 95, 599,K
2025-03-12 15:37:56.427,546, 555, 602, -25, 1, 13, -1, -1, 0, 842, 92, 581,K
2025-03-12 15:37:56.486,658, 695, 256, -42, -39, 17, -3, 1, 2, 460, 691, 664,K
2025-03-12 15:37:56.538,614, 447, 416, -1, 12, 36, -5, 0, 4, 105, 756, 521,K
2025-03-12 15:37:56.588,572, 372, 481, -53, 29, 16, -4, 1, 2, 95, 701, 217,K
2025-03-12 15:37:56.638,729, 523, 726, 10, 37, 19, 0, 1, -2, 896, 773, 518,K
2025-03-12 15:37:56.703,469, 476, 306, -32, 18, 16, -1, 2, -2, 939, 871, 621,K
2025-03-12 15:37:56.757,753, 593, 619, -4, -23, -1, 1, 2, -2, 960, 915, 686,K
2025-03-12 15:37:56.818,719, 463, 569, -17, -52, -14, -2, 4, -1, 963, 934, 743,K
2025-03-12 15:37:56.869,742, 193, 650, 24, -23, -26, -2, 4, -1, 967, 945, 742,K
2025-03-12 15:37:56.927,877, 1148, 51, 70, 30, 33, -2, 3, 2, 970, 937, 721,K
2025-03-12 15:37:56.977,861, 636, 628, -41, 1, 20, -1, 2, 0, 974, 951, 632,K
2025-03-12 15:37:57.037,589, 303, 591, 25, -27, -16, -2, 4, 3, 969, 951, 737,K
2025-03-12 15:37:57.088,518, 595, 637, 6, 35, -21, -1, 2, 3, 964, 921, 734,K
2025-03-12 15:37:57.137,767, 1001, 7, -29, 14, 51, -3, 3, 3, 972, 950, 447,K
2025-03-12 15:37:57.198,739, 428, 555, 9, 6, 38, -2, 4, 0, 970, 942, 567,K
2025-03-12 15:37:57.257,535, 336, 523, -11, 72, -84, -2, 4, -1, 958, 914, 669,K
2025-03-12 15:37:57.312,474, 751, 876, -24, -21, -8, -1, 2, -6, 948, 897, 735,K
2025-03-12 15:37:57.368,727, 514, 448, 15, -36, 15, -3, 3, -5, 948, 912, 748,K
2025-03-12 15:37:57.661,724, 510, 468, -12, -2, -8, -2, 2, 2, 952, 896, 721,L
2025-03-12 15:37:57.712,714, 517, 472, -13, -2, -8, 0, 1, 6, 955, 896, 718,L
2025-03-12 15:37:57.774,679, 519, 501, -22, -12, -10, -3, 4, -1, 951, 909, 724,L
2025-03-12 15:37:57.827,755, 449, 534, -9, -13, 0, -2, 3, 0, 958, 925, 699,L
2025-03-12 15:37:57.884,727, 559, 492, 14, -3, -8, -3, 2, 3, 967, 936, 655,L
2025-03-12 15:37:57.937,500, 848, 302, 44, 27, 15, 0, 2, 4, 966, 917, 318,L
2025-03-12 15:37:57.987,940, 728, 290, -2, 20, 32, -2, 3, 0, 966, 938, 248,L
2025-03-12 15:37:58.037,644, 480, 554, 16, -6, 9, -2, 1, 2, 970, 952, 424,L
2025-03-12 15:37:58.098,876, 403, 195, 2, 38, -20, -2, 2, 2, 963, 924, 625,L
2025-03-12 15:37:58.154,603, 587, 682, -19, 22, -30, -2, 5, -3, 953, 874, 603,L
2025-03-12 15:37:58.202,676, 496, 558, 11, -24, 8, 1, 3, -2, 955, 887, 625,L
2025-03-12 15:37:58.259,774, 493, 395, -4, -1, -4, -2, 1, 1, 953, 889, 640,L
2025-03-12 15:37:58.312,654, 553, 567, -4, -6, 4, -4, -1, 3, 955, 896, 636,L
2025-03-12 15:37:58.367,787, 509, 415, 1, -4, -1, -3, 3, 0, 950, 895, 660,L
2025-03-12 15:37:58.624,694, 527, 480, -10, -11, -3, -2, 4, 1, 955, 899, 648,M
2025-03-12 15:37:58.677,687, 521, 487, -12, -13, -4, 0, 3, 1, 955, 899, 639,M
2025-03-12 15:37:58.736,782, 490, 488, -12, -11, 1, -3, 2, 3, 960, 926, 637,M
2025-03-12 15:37:58.787,825, 783, 393, 38, 9, 19, -4, 4, 1, 966, 928, 498,M
2025-03-12 15:37:58.838,783, 786, 130, -23, 30, 39, -1, 4, 1, 971, 923, 168,M
2025-03-12 15:37:58.900,634, 327, 514, -1, -26, -58, -2, 3, 2, 960, 926, 635,M
2025-03-12 15:37:58.958,738, 240, 671, -7, -23, -12, -3, 1, 5, 970, 950, 604,M
2025-03-12 15:37:59.008,775, 921, 97, 12, 28, 40, -2, 1, 4, 975, 951, 558,M
2025-03-12 15:37:59.068,624, 232, 767, -14, -21, -16, -3, 4, 2, 972, 952, 646,M
2025-03-12 15:37:59.122,1097, 722, 182, 28, 20, 25, -4, 2, 3, 977, 954, 535,M
2025-03-12 15:37:59.171,888, 290, 456, -9, 16, 4, -2, 4, 3, 972, 939, 549,M
2025-03-12 15:37:59.228,631, 503, 670, -24, 28, -32, -3, 3, -1, 962, 923, 597,M
2025-03-12 15:37:59.488,717, 516, 453, -10, -1, -8, -3, 4, 1, 956, 914, 641,N
2025-03-12 15:37:59.547,736, 526, 439, -12, -1, -9, 0, 2, 3, 956, 914, 641,N
2025-03-12 15:37:59.604,685, 480, 557, -18, -14, -6, -3, 2, 1, 958, 928, 648,N
2025-03-12 15:37:59.658,789, 492, 523, 36, -1, -4, -3, 2, 3, 971, 939, 572,N
2025-03-12 15:37:59.708,908, 634, 173, -1, 24, 30, -3, 4, 3, 969, 926, 170,N
2025-03-12 15:37:59.768,715, 273, 707, -26, -8, -7, -4, 4, 0, 962, 925, 439,N
2025-03-12 15:37:59.822,788, 471, 541, -40, -21, -15, -1, 1, 3, 966, 948, 590,N
2025-03-12 15:37:59.878,977, 470, 506, 21, 28, 44, -1, 1, 3, 975, 947, 385,N
2025-03-12 15:37:59.929,728, 627, 582, -41, 0, 17, -1, 3, 2, 977, 950, 248,N
2025-03-12 15:37:59.986,945, 375, 324, 30, 6, -18, -5, 3, 1, 967, 943, 654,N
2025-03-12 15:38:00.042,570, 586, 585, -9, 54, -19, -1, 1, -2, 961, 915, 661,N
2025-03-12 15:38:00.279,663, 517, 533, -6, -18, 8, -4, 5, 0, 956, 917, 615,O
2025-03-12 15:38:00.338,685, 492, 504, -8, -19, 6, -2, 3, 2, 956, 921, 615,O
2025-03-12 15:38:00.388,591, 441, 512, -26, 0, -19, -2, 3, 5, 961, 939, 485,O
2025-03-12 15:38:00.448,555, 205, 735, 50, -8, -29, -2, 4, 1, 965, 935, 210,O
2025-03-12 15:38:00.504,881, 1250, -157, -64, 48, 85, -4, 4, 3, 974, 945, 42,O
2025-03-12 15:38:00.557,306, 65, 1004, -43, -46, -21, -3, 3, 0, 974, 961, 28,O
2025-03-12 15:38:00.611,913, 651, 165, 59, -9, -38, -3, 3, 3, 959, 936, 599,O
2025-03-12 15:38:00.668,567, 485, 657, -34, 70, -17, -2, 4, 1, 957, 918, 410,O
2025-03-12 15:38:00.719,522, 525, 675, 14, 2, 8, -1, 4, -2, 951, 845, 431,O
2025-03-12 15:38:00.988,706, 520, 488, -12, -13, -3, -1, 4, -1, 946, 897, 519,P
2025-03-12 15:38:01.050,689, 513, 484, -15, -15, -5, -1, 4, -1, 948, 901, 519,P
2025-03-12 15:38:01.104,830, 362, 565, -2, -7, -7, -2, 5, 2, 954, 927, 525,P
2025-03-12 15:38:01.158,1239, 597, 802, -19, 44, 54, -2, 3, 3, 966, 925, 58,P
2025-03-12 15:38:01.209,714, 451, 322, -19, 16, 19, -1, 7, 1, 971, 936, 20,P
2025-03-12 15:38:01.268,632, 598, 580, 16, -40, -76, -3, 5, 0, 966, 950, 638,P
2025-03-12 15:38:01.321,770, 759, 512, 6, -32, 5, -4, 4, 3, 973, 959, 652,P
2025-03-12 15:38:01.370,686, 546, 119, 7, 16, 20, -3, 2, 5, 980, 959, 464,P
2025-03-12 15:38:01.421,1082, 311, 419, -3, 41, 1, 0, 4, 3, 971, 937, 577,P
2025-03-12 15:38:01.484,518, 471, 852, -25, 41, -29, 0, 2, -1, 965, 929, 567,P
2025-03-12 15:38:01.540,514, 542, 677, 15, -33, 8, -3, 4, -3, 966, 927, 557,P
2025-03-12 15:38:01.779,718, 496, 490, -3, -5, 5, -1, 1, 2, 960, 924, 581,Q
2025-03-12 15:38:01.838,717, 494, 501, -1, -6, 5, -2, 3, -1, 960, 924, 584,Q
2025-03-12 15:38:01.888,711, 478, 460, -5, -17, 7, -4, 1, 3, 962, 929, 595,Q
2025-03-12 15:38:01.952,645, 610, 544, -31, -5, -13, -4, 4, 3, 967, 945, 389,Q
2025-03-12 15:38:02.005,470, 90, 719, 61, -17, -42, -2, 3, 3, 968, 929, 165,Q
2025-03-12 15:38:02.057,560, 1216, 144, -79, 55, 83, -1, 3, 3, 975, 941, 41,Q
2025-03-12 15:38:02.113,419, 185, 632, -27, -24, -5, -3, 5, 1, 972, 955, 36,Q
2025-03-12 15:38:02.172,899, 489, 242, 22, 12, -37, -3, 4, 3, 959, 933, 396,Q
2025-03-12 15:38:02.222,518, 516, 875, -5, -41, 27, -2, 4, 1, 970, 932, 108,Q
2025-03-12 15:38:02.278,814, 866, 250, -28, 7, 45, -2, 4, 3, 982, 954, 32,Q
2025-03-12 15:38:02.333,912, 163, 295, 17, 31, -12, -1, 4, 3, 969, 926, 41,Q
2025-03-12 15:38:02.388,566, 480, 614, -18, 70, -66, -1, 4, -2, 942, 830, 437,Q
2025-03-12 15:38:02.678,666, 506, 572, -2, -8, 4, -2, 3, 0, 942, 878, 451,R
2025-03-12 15:38:02.737,653, 506, 569, 0, -13, 6, -4, 2, 1, 942, 881, 455,R
2025-03-12 15:38:02.788,752, 487, 453, -1, -23, 3, -2, 5, 1, 941, 900, 507,R
2025-03-12 15:38:02.838,738, 496, 490, -2, 1, -3, -3, 5, 0, 943, 908, 523,R
2025-03-12 15:38:02.890,698, 452, 541, -2, -12, -3, -2, 3, 2, 948, 917, 487,R
2025-03-12 15:38:02.950,740, 466, 516, 0, -1, -6, -2, 2, 3, 950, 922, 386,R
2025-03-12 15:38:03.002,738, 359, 569, 26, -7, -8, -2, 2, 3, 961, 925, 378,R
2025-03-12 15:38:03.052,373, 88, 580, 30, 30, 37, -2, 4, 4, 966, 893, 33,R
2025-03-12 15:38:03.107,786, 679, 366, -26, 19, 16, -1, 4, 2, 962, 907, 35,R
2025-03-12 15:38:03.167,536, 731, 562, -3, -33, -49, -1, 4, 2, 960, 939, 504,R
2025-03-12 15:38:03.218,799, 829, 346, 11, -20, 5, -2, 3, 3, 975, 957, 517,R
2025-03-12 15:38:03.274,487, 372, 348, 17, 19, 32, -1, 2, 4, 974, 952, 165,R
2025-03-12 15:38:03.318,892, 265, 374, -3, 18, 11, -2, 3, 3, 977, 949, 35,R
2025-03-12 15:38:03.384,746, 542, 584, -13, 1, 27, -3, 5, -1, 976, 951, 34,R
2025-03-12 15:38:03.438,592, 340, 525, 5, 84, -62, 1, 5, -2, 962, 930, 75,R
2025-03-12 15:38:03.727,771, 501, 520, -2, -4, 7, -1, 3, 1, 945, 890, 465,S
2025-03-12 15:38:03.783,743, 516, 541, -2, -4, 9, -1, 6, -1, 944, 888, 475,S
2025-03-12 15:38:03.836,684, 493, 515, -3, -10, 4, -2, 3, 1, 945, 896, 511,S
2025-03-12 15:38:03.889,706, 519, 523, -17, -24, 7, -3, 2, 1, 952, 916, 551,S
2025-03-12 15:38:03.939,743, 575, 506, -19, -5, -10, -3, 5, 1, 957, 938, 404,S
2025-03-12 15:38:04.004,677, 343, 583, 31, -10, -24, -4, 4, 0, 967, 939, 126,S
2025-03-12 15:38:04.057,892, 895, 345, -4, 23, 36, -3, 2, 3, 975, 944, 148,S
2025-03-12 15:38:04.108,599, 618, 495, -11, 23, 31, -2, 5, 1, 979, 945, 24,S
2025-03-12 15:38:04.167,1026, 208, 512, 32, 21, -27, -1, 4, 1, 956, 838, 142,S
2025-03-12 15:38:04.220,491, 512, 958, -18, 62, -40, 1, 3, -6, 940, 833, 390,S
2025-03-12 15:38:04.278,469, 592, 720, 12, -24, 9, 0, 3, -5, 939, 865, 409,S
2025-03-12 15:38:04.507,715, 511, 508, -3, -7, 2, -2, 3, 0, 938, 875, 464,T
2025-03-12 15:38:04.560,730, 500, 502, -2, -7, 3, -2, 4, 2, 939, 875, 473,T
2025-03-12 15:38:04.611,733, 503, 478, 0, -4, 4, -1, 3, 1, 939, 880, 510,T
2025-03-12 15:38:04.667,738, 497, 475, -4, -3, -2, -1, 3, 2, 941, 886, 523,T
2025-03-12 15:38:04.720,706, 504, 526, -5, -6, -2, -2, 4, -1, 942, 887, 488,T
2025-03-12 15:38:04.778,704, 516, 483, -13, -3, -5, -1, 3, 2, 949, 881, 317,T
2025-03-12 15:38:04.834,822, 308, 405, -27, -3, -17, -1, 3, 3, 951, 889, 37,T
2025-03-12 15:38:04.888,895, 972, 498, 28, -40, 26, -1, 3, 4, 967, 943, 385,T
2025-03-12 15:38:04.938,688, 340, 457, 24, 11, 16, -4, 4, 0, 968, 937, 566,T
2025-03-12 15:38:04.994,529, 525, 634, 1, 6, -23, -4, 4, 2, 959, 927, 620,T
2025-03-12 15:38:05.039,766, 533, 440, 26, 4, 0, -2, 4, 3, 974, 935, 351,T
2025-03-12 15:38:05.101,783, 276, 228, 12, 29, 38, -2, 6, 3, 974, 927, 30,T
2025-03-12 15:38:05.158,1013, 175, 244, -20, 36, -55, -2, 4, 1, 958, 871, 277,T
2025-03-12 15:38:05.215,570, 520, 720, -19, 19, -34, -1, 3, -2, 944, 854, 394,T
2025-03-12 15:38:05.477,740, 500, 464, -1, -6, 0, 0, 2, 0, 941, 858, 459,U
2025-03-12 15:38:05.527,717, 512, 471, -3, -6, 0, -2, 5, 1, 944, 860, 464,U
2025-03-12 15:38:05.585,679, 500, 527, -13, -18, -4, -2, 4, 2, 947, 884, 454,U
2025-03-12 15:38:05.637,743, 395, 485, -17, -2, -9, -1, 4, 2, 951, 911, 90,U
2025-03-12 15:38:05.687,707, 625, 461, 19, 21, 17, -2, 5, 2, 964, 909, 53,U
2025-03-12 15:38:05.749,1007, 521, 224, -31, 25, 52, -2, 3, 1, 970, 931, 145,U
2025-03-12 15:38:05.802,762, 353, 607, 3, -30, -38, -2, 5, 2, 963, 940, 379,U
2025-03-12 15:38:05.855,812, 730, 316, 34, 0, -6, -4, 4, 4, 974, 940, 272,U
2025-03-12 15:38:05.908,749, 547, 261, -43, 26, 36, -2, 2, 4, 971, 930, 55,U
2025-03-12 15:38:05.966,712, 445, 436, -17, 54, -47, -2, 3, 2, 963, 900, 39,U
2025-03-12 15:38:06.019,537, 643, 783, -4, 2, -13, -1, 5, -2, 945, 867, 404,U
2025-03-12 15:38:06.231,714, 502, 496, 3, 2, 0, 1, 3, 1, 936, 743, 222,V
2025-03-12 15:38:06.285,711, 501, 510, 3, 1, 0, 1, 3, 1, 933, 744, 240,V
2025-03-12 15:38:06.338,697, 491, 545, 3, -1, 2, -2, 5, -1, 931, 736, 312,V
2025-03-12 15:38:06.388,713, 500, 500, 2, -2, -1, -1, 4, 1, 931, 750, 360,V
2025-03-12 15:38:06.438,704, 501, 516, 0, -3, -1, -1, 2, -1, 932, 759, 351,V
2025-03-12 15:38:06.497,698, 497, 525, -2, -5, 2, -1, 5, 0, 929, 752, 282,V
2025-03-12 15:38:06.550,723, 506, 496, -1, -5, 3, -2, 4, 0, 932, 738, 227,V
2025-03-12 15:38:06.604,693, 487, 528, 1, -7, 3, -3, 4, 1, 933, 761, 205,V
2025-03-12 15:38:06.658,757, 492, 462, 1, -11, 1, -4, 4, 2, 935, 789, 198,V
2025-03-12 15:38:06.710,703, 490, 515, -10, -3, -9, -2, 3, 2, 938, 819, 73,V
2025-03-12 15:38:06.764,741, 563, 451, -37, 1, -11, -2, 5, 1, 947, 896, 38,V
2025-03-12 15:38:06.816,1037, 958, 479, 37, 17, 51, -2, 4, 1, 966, 914, 42,V
2025-03-12 15:38:06.871,674, 612, 249, -45, 10, 30, -2, 4, 3, 972, 928, 39,V
2025-03-12 15:38:06.928,738, 246, 556, 54, -22, -31, -3, 4, 3, 966, 942, 41,V
2025-03-12 15:38:06.985,716, 465, 383, -25, 98, -41, -4, 7, 1, 956, 914, 256,V
2025-03-12 15:38:07.038,467, 595, 784, -9, 20, 9, -1, 6, -4, 946, 792, 218,V
2025-03-12 15:38:07.282,677, 507, 580, 0, -3, -2, 0, 3, 0, 931, 716, 180,W
2025-03-12 15:38:07.333,672, 509, 565, 0, -5, -1, -4, 5, -2, 929, 728, 198,W
2025-03-12 15:38:07.387,711, 484, 529, 5, -9, -2, -2, 4, -1, 929, 741, 259,W
2025-03-12 15:38:07.437,724, 497, 500, -4, -6, -2, -3, 1, 0, 927, 751, 299,W
2025-03-12 15:38:07.501,686, 506, 549, -2, -11, -1, -3, 3, -2, 930, 780, 318,W
2025-03-12 15:38:07.551,705, 486, 508, 1, -12, 2, -4, 3, 0, 932, 800, 271,W
2025-03-12 15:38:07.601,705, 489, 504, -3, -16, 0, -1, 4, 2, 936, 793, 183,W
2025-03-12 15:38:07.660,801, 470, 384, -32, 4, -16, -1, 3, 1, 943, 886, 50,W
2025-03-12 15:38:07.710,724, 462, 563, 2, -5, -7, -4, 3, 2, 955, 923, 22,W
2025-03-12 15:38:07.767,730, 557, 444, 3, -3, -2, -2, 3, 2, 958, 923, 59,W
2025-03-12 15:38:07.818,750, 488, 538, 16, -6, 2, -3, 4, 3, 964, 926, 62,W
2025-03-12 15:38:07.867,768, 546, 561, -11, 11, 38, -3, 4, 5, 972, 933, 29,W
2025-03-12 15:38:07.918,614, 259, 828, -28, -16, -4, -1, 4, 2, 967, 942, 47,W
2025-03-12 15:38:07.984,729, 235, 654, 31, -11, -15, -1, 5, 1, 974, 948, 50,W
2025-03-12 15:38:08.038,800, 518, 379, -15, 13, 37, -3, 4, 3, 970, 939, 53,W
2025-03-12 15:38:08.087,766, 182, 464, 40, -18, -10, -2, 5, 3, 965, 933, 47,W
2025-03-12 15:38:08.148,470, 438, 902, -14, 93, -50, -2, 4, -2, 950, 875, 69,W
2025-03-12 15:38:08.408,639, 577, 539, 14, -17, 15, -3, 3, 0, 945, 860, 296,X
2025-03-12 15:38:08.460,652, 580, 514, 11, -16, 20, -2, 1, 2, 948, 863, 286,X
2025-03-12 15:38:08.520,809, 495, 374, 10, -17, 12, -4, 5, 2, 951, 877, 401,X
2025-03-12 15:38:08.570,748, 476, 476, -7, 2, -7, -4, 4, 2, 950, 889, 460,X
2025-03-12 15:38:08.627,718, 465, 547, -7, -25, 7, -3, 3, 2, 957, 912, 467,X
2025-03-12 15:38:08.678,588, 560, 502, 50, 19, 2, -4, 4, 3, 967, 911, 43,X
2025-03-12 15:38:08.734,658, 794, 237, -30, 34, 36, -3, 2, 4, 966, 904, 59,X
2025-03-12 15:38:08.787,712, 121, 717, 19, -23, -80, -1, 4, 2, 952, 897, 402,X
2025-03-12 15:38:08.838,863, 369, 516, -3, -32, -6, 0, 2, 3, 975, 943, 31,X
2025-03-12 15:38:08.898,625, 188, 469, -57, 33, 64, -3, 6, 2, 974, 943, 61,X
2025-03-12 15:38:08.951,818, 303, 188, -4, 45, -61, -2, 4, 1, 964, 923, 41,X
2025-03-12 15:38:09.008,619, 515, 833, -11, 21, -49, -1, 5, 0, 942, 885, 212,X
2025-03-12 15:38:09.229,746, 503, 437, -4, 3, -2, -2, 4, 0, 941, 852, 433,Y
2025-03-12 15:38:09.282,736, 483, 491, -5, 3, -4, -1, 1, 2, 942, 856, 443,Y
2025-03-12 15:38:09.335,701, 494, 530, -2, -2, -2, -3, 4, 1, 942, 865, 425,Y
2025-03-12 15:38:09.388,732, 506, 477, -6, 0, -2, -2, 6, 1, 943, 866, 407,Y
2025-03-12 15:38:09.438,721, 516, 499, -2, 0, -1, -2, 2, 3, 943, 858, 399,Y
2025-03-12 15:38:09.496,729, 506, 486, 0, -5, 2, -3, 4, 1, 946, 853, 360,Y
2025-03-12 15:38:09.549,729, 511, 485, 2, -4, 1, -4, 4, 0, 944, 854, 391,Y
2025-03-12 15:38:09.601,738, 503, 485, -3, -2, -2, -3, 3, 3, 942, 864, 400,Y
2025-03-12 15:38:09.651,724, 505, 487, -2, -1, -4, -3, 4, 4, 944, 866, 302,Y
2025-03-12 15:38:09.710,690, 512, 508, -5, -10, -6, -2, 3, 4, 942, 872, 253,Y
2025-03-12 15:38:09.766,766, 475, 627, -21, -10, -11, -1, 1, 5, 955, 912, 43,Y
2025-03-12 15:38:09.818,672, 260, 333, -6, 16, 51, -4, 5, 2, 970, 939, 76,Y
2025-03-12 15:38:09.868,761, 193, 497, -7, 6, -21, -2, 6, 3, 965, 936, 270,Y
2025-03-12 15:38:09.928,719, 389, 743, 10, -21, -14, -4, 3, 4, 964, 938, 373,Y
2025-03-12 15:38:09.983,924, 596, 455, 15, 29, 16, -4, 4, 5, 971, 922, 76,Y
2025-03-12 15:38:10.034,836, 585, 480, -13, 20, 18, -2, 3, 3, 964, 896, 147,Y
2025-03-12 15:38:10.327,770, 524, 425, 2, -9, 3, -4, 3, 1, 944, 880, 344,Z
2025-03-12 15:38:10.370,770, 517, 411, -1, -5, 2, -3, 2, 3, 945, 877, 319,Z
2025-03-12 15:38:10.428,717, 478, 487, -8, 1, -6, -6, 5, 1, 949, 885, 254,Z
2025-03-12 15:38:10.487,715, 410, 468, -21, -4, -18, -3, 4, 5, 948, 884, 55,Z
2025-03-12 15:38:10.538,1017, 343, 580, 62, -6, -6, -3, 2, 3, 962, 934, 57,Z
2025-03-12 15:38:10.588,715, 279, 628, 38, -6, 11, -3, 5, 3, 970, 935, 451,Z
2025-03-12 15:38:10.638,341, 535, 236, -5, 43, 29, -3, 3, 3, 969, 901, 74,Z
2025-03-12 15:38:10.700,807, 455, 244, -28, 13, 4, -2, 5, 3, 968, 920, 85,Z
2025-03-12 15:38:10.751,640, 453, 533, -17, 1, 32, -1, 6, 0, 976, 946, 58,Z
2025-03-12 15:38:10.804,725, 227, 223, 23, 22, -66, -2, 4, 4, 961, 912, 76,Z
2025-03-12 15:38:10.861,2959, -480, -14, -3, -28, -26, -2, 1, 4, 966, 927, 133,Z
2025-03-12 15:38:10.917,900, 399, 331, -6, 12, 31, -1, 5, 4, 974, 945, 35,Z
2025-03-12 15:38:10.967,684, 585, 195, -9, 97, -50, -4, 5, 0, 952, 840, 74,Z
2025-03-12 15:38:11.257,722, 513, 501, 1, -5, -4, -1, 1, 2, 948, 855, 444,a
2025-03-12 15:38:11.310,728, 516, 476, 1, -5, -5, -4, 5, 1, 947, 853, 449,a
2025-03-12 15:38:11.361,770, 523, 465, -12, 1, -12, -3, 1, 3, 948, 854, 499,a
2025-03-12 15:38:11.419,729, 420, 453, -30, -17, -38, -4, 2, 6, 951, 861, 266,a
2025-03-12 15:38:11.469,510, 619, 649, -20, 0, 2, -4, 2, 0, 948, 848, 52,a
2025-03-12 15:38:11.528,675, 552, 515, 24, -25, 33, -3, 3, 2, 956, 877, 28,a
2025-03-12 15:38:11.581,879, 473, 268, -2, 2, 14, -3, 4, 3, 954, 892, 55,a
2025-03-12 15:38:11.634,705, 511, 520, -5, 13, -2, -4, 2, 3, 962, 901, 22,a
2025-03-12 15:38:11.682,718, 484, 503, 1, -4, 5, -3, 2, 3, 957, 902, 52,a
2025-03-12 15:38:11.732,742, 492, 480, 0, 3, 7, -3, 4, 2, 957, 899, 44,a
2025-03-12 15:38:11.783,718, 520, 475, 0, 1, 11, -1, 2, 2, 959, 900, 36,a
2025-03-12 15:38:11.838,692, 466, 513, -1, -9, 10, -3, 4, 3, 960, 906, 30,a
2025-03-12 15:38:11.888,712, 461, 541, -17, 1, -12, -4, 5, 3, 963, 920, 52,a
2025-03-12 15:38:11.938,831, 487, 393, 13, 3, -11, -4, 3, 6, 968, 913, 48,a
2025-03-12 15:38:11.998,611, 316, 575, -41, 6, 28, -2, 4, 3, 972, 937, 34,a
2025-03-12 15:38:12.050,723, 362, 648, 11, -15, -20, -4, 5, 3, 968, 935, 52,a
2025-03-12 15:38:12.108,833, 996, 152, -10, 35, 34, -2, 5, 3, 970, 927, 42,a
2025-03-12 15:38:12.159,745, 426, 312, -30, 41, -29, -3, 7, 2, 967, 903, 54,a
2025-03-12 15:38:12.411,730, 495, 528, -11, -7, -2, -2, 4, 4, 957, 894, 262,b
2025-03-12 15:38:12.466,730, 484, 525, -11, -10, -3, -2, 4, 4, 956, 894, 271,b
2025-03-12 15:38:12.518,706, 488, 529, -6, -10, 2, -3, 4, 1, 954, 895, 336,b
2025-03-12 15:38:12.568,750, 497, 452, -15, -12, 0, -4, 4, 3, 958, 909, 357,b
2025-03-12 15:38:12.628,696, 352, 562, 57, 4, -4, -3, 3, 3, 962, 911, 180,b
2025-03-12 15:38:12.682,467, 537, 200, -10, 44, 56, -2, 5, 3, 973, 905, 18,b
2025-03-12 15:38:12.733,709, 259, 647, -24, 5, -3, -3, 6, 1, 964, 908, 41,b
2025-03-12 15:38:12.788,791, 563, 576, -13, -27, -4, -4, 6, 0, 970, 935, 42,b
2025-03-12 15:38:12.837,567, 701, 361, 5, 17, 27, -2, 4, 4, 971, 932, 58,b
2025-03-12 15:38:12.889,965, 321, 406, 0, 23, -7, -3, 5, 3, 969, 893, 28,b
2025-03-12 15:38:12.948,657, 402, 739, -27, 51, -41, 0, 5, 0, 957, 884, 52,b
2025-03-12 15:38:13.227,708, 478, 542, -2, -3, 2, -3, 5, 0, 958, 887, 66,c
2025-03-12 15:38:13.280,705, 478, 545, 0, -4, 3, -3, 4, 2, 956, 889, 102,c
2025-03-12 15:38:13.333,726, 470, 516, 2, -10, 6, -3, 5, 1, 958, 891, 76,c
2025-03-12 15:38:13.386,741, 473, 492, -9, -15, 3, -3, 3, 3, 960, 904, 61,c
2025-03-12 15:38:13.438,689, 513, 535, -21, -6, -11, -4, 5, 3, 964, 923, 58,c
2025-03-12 15:38:13.490,825, 564, 190, 40, 15, -9, -3, 5, 3, 971, 921, 53,c
2025-03-12 15:38:13.547,947, 880, 105, -52, 30, 56, -3, 6, 2, 974, 940, 62,c
2025-03-12 15:38:13.600,1037, 296, -91, -26, 70, -58, -4, 6, 2, 968, 934, 45,c
2025-03-12 15:38:13.660,423, 602, 1024, -22, 26, -32, -1, 6, -3, 950, 902, 93,c
2025-03-12 15:38:13.928,710, 456, 527, 7, -12, 9, -2, 5, 3, 954, 890, 60,d
2025-03-12 15:38:13.985,714, 459, 520, 7, -13, 10, -4, 6, 3, 954, 890, 56,d
2025-03-12 15:38:14.038,747, 441, 475, -28, -13, -3, -4, 5, 2, 958, 903, 60,d
2025-03-12 15:38:14.091,539, 346, 663, -7, -6, -22, -3, 5, 3, 961, 926, 52,d
2025-03-12 15:38:14.149,1143, 412, 410, 38, 11, -1, -3, 4, 4, 970, 909, 80,d
2025-03-12 15:38:14.199,789, 650, 384, -72, 15, 49, -2, 4, 5, 974, 942, 49,d
2025-03-12 15:38:14.257,780, 279, 483, -18, -32, -50, -1, 7, 1, 969, 951, 57,d
2025-03-12 15:38:14.309,735, 333, 619, 28, -22, -31, -6, 6, 4, 969, 948, 83,d
2025-03-12 15:38:14.368,794, 521, 384, -16, 35, 54, -2, 10, 1, 979, 940, 38,d
2025-03-12 15:38:14.418,961, 253, 207, -29, 48, -50, -4, 6, 3, 969, 921, 83,d
2025-03-12 15:38:14.475,523, 518, 891, 2, 10, -22, -2, 5, -3, 954, 907, 92,d
2025-03-12 15:38:14.821,696, 464, 550, 5, -2, 0, -3, 4, -2, 940, 825, 69,e
2025-03-12 15:38:14.867,686, 475, 558, 5, -3, 3, 0, 5, 0, 941, 826, 61,e
2025-03-12 15:38:14.928,732, 486, 512, 3, -4, 5, -2, 4, -2, 943, 820, 75,e
2025-03-12 15:38:14.980,719, 487, 541, -1, -2, 5, -2, 4, 0, 945, 815, 95,e
2025-03-12 15:38:15.030,724, 456, 532, 0, -5, 4, -3, 5, -1, 943, 816, 47,e
2025-03-12 15:38:15.081,719, 458, 547, 2, -5, 2, -2, 4, 0, 943, 835, 51,e
2025-03-12 15:38:15.132,750, 462, 497, 4, -8, 4, -4, 7, 2, 944, 845, 74,e
2025-03-12 15:38:15.185,694, 477, 528, 5, -5, 3, -2, 3, 3, 949, 857, 104,e
2025-03-12 15:38:15.238,867, 181, 263, 3, 0, -17, -3, 5, 1, 956, 881, 31,e
2025-03-12 15:38:15.288,832, 709, 502, -20, 4, 31, -3, 5, 1, 966, 921, 51,e
2025-03-12 15:38:15.337,687, 373, 621, -10, -2, 0, -2, 5, 3, 962, 928, 77,e
2025-03-12 15:38:15.390,722, 426, 504, 2, -3, -22, -5, 4, 4, 965, 924, 45,e
2025-03-12 15:38:15.447,750, 786, 219, -4, 17, 22, -3, 5, 4, 965, 917, 59,e
2025-03-12 15:38:15.501,928, 570, 573, -17, 20, 45, -2, 6, 3, 974, 935, 58,e
2025-03-12 15:38:15.558,977, 314, 87, -14, 49, -47, -1, 6, 1, 966, 915, 76,e
2025-03-12 15:38:15.611,536, 551, 857, -14, 27, -38, -2, 4, -2, 946, 865, 48,e
2025-03-12 15:38:15.925,729, 450, 525, -1, 1, 11, -2, 5, 2, 953, 865, 52,f
2025-03-12 15:38:15.980,747, 439, 514, -1, 1, 10, -3, 6, 0, 950, 864, 70,f
2025-03-12 15:38:16.029,765, 447, 497, -6, 3, 11, -2, 7, 1, 953, 868, 41,f
2025-03-12 15:38:16.082,730, 458, 506, -23, 3, 2, -3, 6, 2, 955, 885, 65,f
2025-03-12 15:38:16.138,782, 361, 362, -14, -20, -50, -3, 7, 1, 958, 934, 39,f
2025-03-12 15:38:16.188,922, 404, 445, 20, -37, -23, -4, 4, 3, 963, 953, 63,f
2025-03-12 15:38:16.245,640, 686, 223, 20, 16, 32, -3, 5, 3, 970, 947, 24,f
2025-03-12 15:38:16.298,560, 417, 631, -10, 45, -36, -3, 5, 1, 962, 930, 62,f
2025-03-12 15:38:16.348,799, 1129, 808, -2, -24, 0, -2, 3, 2, 969, 946, 39,f
2025-03-12 15:38:16.398,815, 306, 322, 2, 4, 28, -3, 4, 1, 969, 944, 62,f
2025-03-12 15:38:16.463,679, 485, 270, -7, 66, -38, -4, 3, 2, 956, 903, 65,f
2025-03-12 15:38:16.727,680, 457, 560, 5, -25, 18, -2, 5, 2, 956, 884, 59,g
2025-03-12 15:38:16.782,696, 447, 527, 7, -28, 18, -2, 5, -1, 957, 882, 55,g
2025-03-12 15:38:16.838,677, 390, 473, -34, -3, -17, -2, 5, 4, 957, 914, 49,g
2025-03-12 15:38:16.896,918, 436, 593, 10, -6, -15, -2, 3, 3, 964, 929, 65,g
2025-03-12 15:38:16.948,614, 425, 337, -25, 41, 63, -3, 7, 2, 971, 937, 53,g
2025-03-12 15:38:16.999,648, 151, 708, 7, -3, 0, -4, 5, -1, 970, 937, 53,g
2025-03-12 15:38:17.049,756, 300, 620, 33, -16, -15, -4, 5, 2, 969, 931, 70,g
2025-03-12 15:38:17.114,655, 333, 501, -35, 36, 39, -2, 7, 1, 969, 930, 75,g
2025-03-12 15:38:17.167,1106, 205, 212, -24, 43, -77, -2, 4, 0, 958, 876, 83,g
2025-03-12 15:38:17.458,738, 469, 456, -1, -15, 1, -3, 5, 1, 940, 877, 54,h
2025-03-12 15:38:17.507,745, 465, 458, -2, -15, -2, -2, 5, 1, 940, 880, 73,h
2025-03-12 15:38:17.568,750, 488, 484, -26, -23, -11, -3, 5, 1, 943, 910, 180,h
2025-03-12 15:38:17.617,752, 312, 536, 21, -4, -11, -3, 4, 3, 960, 925, 60,h
2025-03-12 15:38:17.679,104, 764, 503, -15, 40, 48, -2, 5, 3, 971, 920, 28,h
2025-03-12 15:38:17.732,806, 518, 491, -26, 15, 13, -3, 6, -1, 967, 929, 62,h
2025-03-12 15:38:17.787,635, 271, 732, 10, -24, -21, -4, 8, -3, 971, 937, 60,h
2025-03-12 15:38:17.838,783, 553, 378, -16, 31, 47, -3, 5, 3, 972, 927, 34,h
2025-03-12 15:38:17.896,792, 390, 353, -31, 68, -41, -1, 5, 0, 963, 896, 50,h
2025-03-12 15:38:17.949,513, 519, 899, 5, 4, -24, 0, 2, -2, 949, 867, 43,h
2025-03-12 15:38:18.208,752, 443, 498, 0, 0, 2, -2, 4, 1, 947, 874, 33,i
2025-03-12 15:38:18.248,764, 430, 500, -1, -1, 0, -3, 6, 0, 947, 874, 31,i
2025-03-12 15:38:18.309,746, 432, 526, -4, -4, -5, -4, 7, 0, 947, 875, 29,i
2025-03-12 15:38:18.364,710, 448, 558, -11, -11, 2, -3, 5, 0, 946, 892, 39,i
2025-03-12 15:38:18.417,789, 436, 539, -21, -2, -6, -2, 5, 2, 952, 915, 45,i
2025-03-12 15:38:18.468,699, 761, 330, 3, 6, 20, -4, 5, 3, 966, 917, 40,i
2025-03-12 15:38:18.523,762, 403, 454, -10, 23, 25, -3, 5, 3, 966, 910, 41,i
2025-03-12 15:38:18.580,294, 610, 1243, -5, -30, -47, -2, 5, 0, 967, 926, 31,i
2025-03-12 15:38:18.631,941, 356, 41, 21, -10, -12, -4, 5, 4, 970, 942, 30,i
2025-03-12 15:38:18.681,921, 130, 538, -17, 38, 7, -4, 6, 3, 959, 908, 31,i
2025-03-12 15:38:18.968,720, 456, 547, 6, -5, 12, -3, 5, 0, 950, 846, 23,j
2025-03-12 15:38:19.022,730, 436, 554, 10, -6, 13, -3, 5, -1, 951, 847, 28,j
2025-03-12 15:38:19.073,728, 436, 516, 10, -7, 10, -2, 6, 0, 947, 849, 33,j
2025-03-12 15:38:19.129,628, 439, 673, 17, -31, 10, -4, 6, 1, 950, 862, 29,j
2025-03-12 15:38:19.181,880, 390, 430, 9, 10, 8, -2, 5, 1, 963, 898, 30,j
2025-03-12 15:38:19.231,428, 584, 520, -35, 25, 45, -3, 7, 3, 974, 913, 20,j
2025-03-12 15:38:19.288,1084, -454, 654, -27, -25, -95, -1, 8, 0, 964, 909, 27,j
2025-03-12 15:38:19.347,220, 436, 1252, 19, -113, 12, -2, 6, 1, 969, 938, 37,j
2025-03-12 15:38:19.399,839, 480, 266, 37, 14, 4, -5, 6, 4, 971, 932, 23,j
2025-03-12 15:38:19.448,807, 243, 278, -6, 48, -20, -4, 7, 3, 960, 882, 29,j
2025-03-12 15:38:19.508,547, 520, 698, -22, 27, -16, -3, 7, 1, 959, 873, 12,j
2025-03-12 15:38:19.748,698, 451, 585, 1, -6, -4, -4, 4, 4, 953, 861, 46,k
2025-03-12 15:38:19.798,697, 460, 578, 2, -11, -3, -4, 8, 3, 955, 869, 54,k
2025-03-12 15:38:19.848,852, 506, 389, -39, -4, -7, -2, 5, 3, 957, 899, 46,k
2025-03-12 15:38:19.904,753, 416, 598, -4, -3, -4, -4, 6, 1, 964, 917, 36,k
2025-03-12 15:38:19.958,745, 694, 421, 42, 6, 8, -2, 2, 4, 970, 889, 103,k
2025-03-12 15:38:20.014,626, 494, 311, -31, 23, 36, -4, 6, 4, 972, 904, 73,k
2025-03-12 15:38:20.066,599, 313, 383, -40, -20, 8, -4, 8, 2, 974, 947, 72,k
2025-03-12 15:38:20.122,717, 370, 631, 58, -3, -15, -4, 7, 3, 963, 916, 65,k
2025-03-12 15:38:20.177,571, 564, 1088, 24, -25, 27, -2, 6, 1, 962, 876, 57,k
2025-03-12 15:38:20.231,670, 886, 408, -10, 5, 42, -3, 7, 2, 976, 932, 82,k
2025-03-12 15:38:20.281,1078, 149, -23, -2, 45, -47, -4, 8, 0, 965, 891, 74,k
2025-03-12 15:38:20.567,737, 466, 494, -6, -3, 1, -4, 4, 2, 952, 881, 30,l
2025-03-12 15:38:20.613,730, 470, 503, -4, -2, 2, -2, 4, 0, 954, 885, 73,l
2025-03-12 15:38:20.668,758, 466, 485, -1, -2, 5, -4, 4, 2, 954, 884, 58,l
2025-03-12 15:38:20.718,728, 444, 519, -6, -17, -6, -3, 4, 3, 955, 897, 44,l
2025-03-12 15:38:20.780,801, 490, 293, -39, -3, -9, -3, 6, 3, 960, 927, 101,l
2025-03-12 15:38:20.830,760, 327, 599, 30, -13, -14, -3, 2, 4, 976, 933, 63,l
2025-03-12 15:38:20.888,597, 1000, 355, -23, 33, 59, -4, 6, 3, 983, 926, 126,l
2025-03-12 15:38:20.938,908, 29, 687, -3, 3, -18, -2, 6, 0, 974, 916, 110,l
2025-03-12 15:38:20.996,687, 383, 765, -31, 40, -53, -2, 5, 0, 956, 894, 109,l
2025-03-12 15:38:21.237,727, 482, 505, -3, -2, -2, -3, 6, -1, 928, 803, 118,m
2025-03-12 15:38:21.287,731, 472, 512, -3, -1, -1, 0, 6, 0, 928, 799, 80,m
2025-03-12 15:38:21.345,737, 467, 516, -7, 1, -3, -3, 5, -1, 931, 805, 99,m
2025-03-12 15:38:21.399,729, 462, 525, -8, -1, -3, -2, 4, 1, 927, 796, 117,m
2025-03-12 15:38:21.449,729, 467, 536, -4, -4, -4, -3, 5, 2, 930, 797, 127,m
2025-03-12 15:38:21.500,712, 450, 573, 6, -15, -4, -4, 3, -1, 924, 775, 38,m
2025-03-12 15:38:21.558,734, 487, 481, 6, -16, -2, -3, 4, 3, 932, 800, 51,m
2025-03-12 15:38:21.612,658, 475, 556, 4, -20, 14, -4, 5, 4, 945, 843, 46,m
2025-03-12 15:38:21.665,936, 33, 146, -18, -4, -11, -4, 6, 4, 963, 897, 57,m
2025-03-12 15:38:21.718,750, 839, 404, -17, 33, 27, -3, 5, 5, 972, 911, 63,m
2025-03-12 15:38:21.768,708, 169, 508, -23, 17, 19, -3, 7, 3, 974, 916, 52,m
2025-03-12 15:38:21.828,831, 499, 359, 1, -31, -41, -4, 7, 2, 966, 932, 36,m
2025-03-12 15:38:21.880,738, 747, 458, 11, -15, 3, -4, 7, 4, 974, 940, 40,m
2025-03-12 15:38:21.930,797, 353, 294, -13, 17, 23, -3, 7, 6, 970, 931, 80,m
2025-03-12 15:38:21.988,926, 171, 735, 4, -32, -27, -4, 5, 4, 974, 945, 69,m
2025-03-12 15:38:22.037,886, 847, 40, 32, -4, 29, -4, 6, 5, 973, 940, 217,m
2025-03-12 15:38:22.095,1116, 83, 186, -26, 49, -27, -4, 6, 3, 969, 928, 50,m
2025-03-12 15:38:22.149,640, 339, 744, -48, 95, -70, -3, 7, -2, 956, 920, 121,m
2025-03-12 15:38:22.421,463, 577, 823, 24, -11, -64, -2, -3, -5, 706, 416, 89,n
2025-03-12 15:38:22.479,491, 682, 840, 23, -19, -54, 0, 0, -7, 712, 461, 77,n
2025-03-12 15:38:22.531,439, 643, 626, 28, -49, 18, -3, -1, -7, 729, 578, 71,n
2025-03-12 15:38:22.588,374, 631, 471, 58, -53, 76, -4, -2, -2, 753, 555, 79,n
2025-03-12 15:38:22.638,716, 454, 319, 42, -18, 94, -7, -3, 4, 733, 464, 77,n
2025-03-12 15:38:22.697,728, 559, 340, 43, 21, 32, -4, 0, 4, 696, 190, 33,n
2025-03-12 15:38:22.750,783, 512, 370, -2, 9, 13, -7, 0, 2, 760, 246, 76,n
2025-03-12 15:38:22.797,887, 673, 719, -17, 5, 13, -3, 2, -1, 840, 453, 93,n
2025-03-12 15:38:22.857,592, 425, 440, -31, 12, 14, -4, 2, 2, 876, 602, 34,n
2025-03-12 15:38:22.914,757, 599, 450, -2, -28, -8, -2, 2, 1, 888, 737, 143,n
2025-03-12 15:38:22.967,712, 534, 625, -28, -3, -16, -2, -1, 4, 931, 891, 45,n
2025-03-12 15:38:23.020,546, 895, 189, 5, 20, 15, -3, 4, 2, 960, 904, 46,n
2025-03-12 15:38:23.072,756, 248, 318, -12, 17, 13, -2, 5, 0, 962, 918, 57,n
2025-03-12 15:38:23.129,636, 316, 710, 4, -45, -38, -2, 6, 1, 960, 934, 81,n
2025-03-12 15:38:23.180,857, 966, 147, -10, 13, 35, -6, 7, 0, 973, 939, 73,n
2025-03-12 15:38:23.230,851, 341, 446, -16, 24, 6, -2, 6, 2, 965, 893, 110,n
2025-03-12 15:38:23.288,584, 438, 786, 16, 8, -21, -3, 6, -2, 950, 846, 77,n
2025-03-12 15:38:23.338,712, 498, 480, 13, -23, -5, -2, 5, 0, 939, 846, 73,n
2025-03-12 15:38:23.397,741, 508, 448, -1, -1, 3, -2, 3, 1, 938, 848, 84,n
2025-03-12 15:38:23.447,736, 465, 524, -1, -1, 5, -4, 5, 1, 927, 838, 146,n
2025-03-12 15:38:23.761,739, 503, 462, -1, 0, -5, -3, 3, 2, 903, 612, 79,o
2025-03-12 15:38:23.815,735, 508, 471, -2, 1, -5, -4, 3, -1, 901, 615, 88,o
2025-03-12 15:38:23.868,708, 506, 513, -6, -3, 1, -3, 2, 1, 901, 653, 80,o
2025-03-12 15:38:23.918,750, 490, 460, 2, -5, 1, -4, 3, 3, 909, 677, 91,o
2025-03-12 15:38:23.967,725, 491, 502, -8, 1, -1, -3, 4, 2, 912, 704, 114,o
2025-03-12 15:38:24.018,736, 497, 479, -1, -4, 1, -4, 3, 2, 917, 716, 118,o
2025-03-12 15:38:24.073,771, 494, 474, 1, -1, 4, -3, 4, 1, 917, 730, 95,o
2025-03-12 15:38:24.123,724, 478, 486, -1, -2, 5, -5, 6, 1, 920, 763, 53,o
2025-03-12 15:38:24.181,657, 460, 584, -18, -16, 2, -4, 5, 1, 922, 822, 42,o
2025-03-12 15:38:24.237,782, 377, 639, -13, -12, -19, -4, 4, 2, 936, 903, 130,o
2025-03-12 15:38:24.288,942, 1178, 121, 6, 41, 43, -4, 5, 4, 966, 906, 72,o
2025-03-12 15:38:24.347,588, 358, 825, -56, -5, 21, -2, 7, 1, 968, 942, 69,o
2025-03-12 15:38:24.398,936, 343, 380, 77, -21, -47, -4, 5, 2, 946, 920, 76,o
2025-03-12 15:38:24.458,733, 594, 490, -26, 49, -35, -3, 4, 1, 914, 851, 42,o
2025-03-12 15:38:24.507,565, 609, 670, -5, 5, 9, -4, 5, 0, 909, 757, 95,o
2025-03-12 15:38:24.558,722, 477, 499, 8, -20, 12, -3, 5, 0, 900, 721, 53,o
2025-03-12 15:38:24.614,786, 473, 436, -1, -2, -5, -3, 3, 1, 886, 754, 47,o
2025-03-12 15:38:24.665,692, 520, 561, -2, 1, 3, -5, 6, 0, 886, 774, 111,o
2025-03-12 15:38:24.715,759, 493, 459, -3, -4, -1, -4, 3, 1, 882, 765, 55,o
2025-03-12 15:38:24.768,717, 501, 522, -8, 5, -2, -4, 3, 0, 879, 754, 49,o
2025-03-12 15:38:24.818,723, 483, 522, -3, 0, -3, -4, 6, -1, 878, 746, 71,o
2025-03-12 15:38:24.874,737, 497, 492, -4, 1, -2, -4, 3, 0, 875, 706, 26,o
2025-03-12 15:38:24.921,704, 489, 528, -5, 1, -2, -3, 4, 0, 882, 705, 58,o
2025-03-12 15:38:24.977,715, 491, 515, 0, -3, 2, -3, 4, 0, 892, 721, 81,o
2025-03-12 15:38:25.277,714, 485, 528, 4, -1, 3, -2, 4, 1, 890, 747, 47,p
2025-03-12 15:38:25.329,708, 489, 526, 6, -2, 3, -4, 5, 0, 891, 747, 41,p
2025-03-12 15:38:25.379,710, 492, 520, 6, -4, 6, -4, 4, 1, 893, 754, 52,p
2025-03-12 15:38:25.430,745, 487, 469, 5, -3, 4, -4, 6, 1, 900, 762, 26,p
2025-03-12 15:38:25.480,734, 510, 495, -1, 3, 8, -2, 4, 2, 908, 779, 40,p
2025-03-12 15:38:25.529,729, 489, 484, 0, -2, 5, -4, 4, 2, 917, 799, 53,p
2025-03-12 15:38:25.588,704, 460, 509, -8, -7, -3, -5, 5, 1, 919, 841, 75,p
2025-03-12 15:38:25.637,709, 100, 724, 3, -4, -12, -4, 5, 0, 949, 892, 62,p
2025-03-12 15:38:25.694,773, 394, 459, -50, 48, 73, -2, 5, 1, 965, 897, 62,p
2025-03-12 15:38:25.748,666, -125, 975, -18, -14, -11, -2, 8, -2, 962, 929, 45,p
2025-03-12 15:38:25.809,905, 570, 770, -45, -44, -39, -5, 6, -2, 966, 948, 59,p
2025-03-12 15:38:25.862,458, 661, 176, 30, 15, 28, -4, 6, 1, 975, 938, 75,p
2025-03-12 15:38:25.914,971, 324, 337, -13, 28, -1, -3, 8, 0, 962, 867, 48,p
2025-03-12 15:38:25.972,568, 442, 836, -27, 35, -37, -2, 4, -2, 945, 863, 85,p
2025-03-12 15:38:26.022,542, 545, 616, 19, -36, 2, -2, 5, -1, 940, 873, 86,p
2025-03-12 15:38:26.080,822, 512, 347, 2, -10, 10, -3, 3, 0, 935, 872, 61,p
2025-03-12 15:38:26.129,754, 446, 468, -6, 6, 3, -3, 5, 0, 937, 876, 70,p
2025-03-12 15:38:26.521,722, 470, 504, -5, 0, -1, -3, 5, 0, 937, 830, 63,q
2025-03-12 15:38:26.569,723, 467, 519, -4, 0, -1, -4, 6, 0, 936, 829, 46,q
2025-03-12 15:38:26.621,742, 466, 500, -3, 0, 1, -3, 6, 0, 935, 830, 61,q
2025-03-12 15:38:26.678,732, 484, 525, -4, -2, 2, -5, 7, 0, 936, 833, 70,q
2025-03-12 15:38:26.732,744, 476, 495, -1, -1, 2, -5, 5, 2, 936, 839, 91,q
2025-03-12 15:38:26.781,741, 453, 520, 1, -3, 2, -4, 6, 0, 937, 839, 61,q
2025-03-12 15:38:26.832,741, 464, 491, -1, -1, -1, -3, 5, 3, 940, 845, 45,q
2025-03-12 15:38:26.881,726, 482, 527, 1, -5, 5, -4, 3, 1, 944, 865, 89,q
2025-03-12 15:38:26.938,673, 488, 555, -4, -21, 7, -4, 5, 1, 947, 887, 81,q
2025-03-12 15:38:26.994,729, 381, 587, -26, -11, -16, -3, 7, 1, 959, 923, 45,q
2025-03-12 15:38:27.047,997, 973, 293, 22, 18, 19, -3, 5, 3, 971, 920, 92,q
2025-03-12 15:38:27.098,644, 432, 603, -41, 11, 27, -3, 6, 1, 975, 939, 39,q
2025-03-12 15:38:27.158,641, 308, 652, 16, -15, -22, -4, 6, 3, 970, 945, 66,q
2025-03-12 15:38:27.210,773, 1005, 452, -1, 23, 48, -5, 5, 1, 976, 929, 76,q
2025-03-12 15:38:27.263,790, 166, 740, -16, -3, 16, -4, 8, 0, 974, 942, 82,q
2025-03-12 15:38:27.318,594, 329, 481, -35, 102, -57, -4, 8, -3, 955, 915, 72,q
2025-03-12 15:38:27.565,780, 466, 425, -6, -2, 0, -3, 6, 0, 941, 867, 69,r
2025-03-12 15:38:27.615,762, 451, 469, -5, 0, 0, -3, 9, 1, 941, 868, 81,r
2025-03-12 15:38:27.668,726, 450, 530, 3, -4, 2, -4, 6, 1, 940, 873, 75,r
2025-03-12 15:38:27.718,761, 458, 484, -2, -3, 1, -5, 6, 1, 941, 874, 66,r
2025-03-12 15:38:27.771,752, 459, 482, -4, -1, -7, -4, 5, 4, 942, 881, 85,r
2025-03-12 15:38:27.822,701, 447, 539, -8, -8, -7, -4, 4, 2, 943, 901, 68,r
2025-03-12 15:38:27.878,766, 219, 610, -5, -5, -12, -4, 6, 2, 960, 927, 95,r
2025-03-12 15:38:27.929,856, 370, 497, -25, 30, 51, -6, 3, 4, 973, 925, 72,r
2025-03-12 15:38:27.988,867, 217, 835, -55, -1, 13, -2, 8, 1, 972, 945, 90,r
2025-03-12 15:38:28.037,752, 326, 532, 69, -18, -18, -4, 8, 2, 968, 937, 71,r
2025-03-12 15:38:28.098,635, 479, 563, -18, 68, -12, -2, 6, 1, 962, 888, 104,r
2025-03-12 15:38:28.377,725, 439, 541, 3, -10, 8, -4, 7, 3, 954, 901, 85,s
2025-03-12 15:38:28.429,719, 444, 540, 3, -12, 7, -6, 6, 1, 954, 900, 74,s
2025-03-12 15:38:28.479,736, 417, 503, -13, -14, 1, -5, 8, 2, 958, 915, 61,s
2025-03-12 15:38:28.530,618, 352, 599, -13, -2, -11, -5, 6, 3, 964, 934, 62,s
2025-03-12 15:38:28.587,759, 585, 290, 40, 17, 3, -2, 5, 3, 973, 934, 73,s
2025-03-12 15:38:28.643,416, 295, 639, -28, 20, 24, -3, 8, 1, 976, 939, 87,s
2025-03-12 15:38:28.697,727, 202, 376, 6, 20, 8, -2, 6, 3, 968, 905, 80,s
2025-03-12 15:38:28.748,978, 459, 250, -32, 77, -57, -3, 7, 1, 949, 831, 78,s
2025-03-12 15:38:29.027,808, 434, 405, 0, -6, -3, -5, 6, 1, 945, 905, 64,t
2025-03-12 15:38:29.087,801, 455, 405, -3, -5, -6, -4, 4, 4, 947, 906, 86,t
2025-03-12 15:38:29.143,659, 461, 551, -14, -17, -9, -5, 5, 2, 949, 919, 88,t
2025-03-12 15:38:29.197,687, 325, 560, -19, -5, -15, -4, 5, 5, 957, 934, 60,t
2025-03-12 15:38:29.247,845, 594, 594, 112, 31, 3, -4, 4, 5, 973, 915, 54,t
2025-03-12 15:38:29.308,670, 563, 44, -71, 52, 59, -4, 5, 4, 974, 933, 66,t
2025-03-12 15:38:29.353,612, 205, 529, 16, 7, -79, -4, 7, 1, 965, 921, 87,t
2025-03-12 15:38:29.413,896, 1084, 723, -17, -32, -21, -4, 4, 1, 974, 932, 46,t
2025-03-12 15:38:29.471,635, 615, 474, -26, 13, 48, -4, 5, 3, 977, 948, 49,t
2025-03-12 15:38:29.523,606, 603, 425, -4, 68, -42, -4, 5, 1, 962, 906, 68,t
2025-03-12 15:38:29.774,709, 482, 499, -2, -5, 2, -3, 3, 2, 942, 738, 76,u
2025-03-12 15:38:29.826,712, 473, 502, -2, -6, 1, -2, 5, -2, 944, 733, 57,u
2025-03-12 15:38:29.878,668, 486, 555, 1, -15, 2, -2, 6, 2, 938, 755, 62,u
2025-03-12 15:38:29.928,754, 473, 528, -19, -3, -9, -4, 5, 1, 949, 860, 68,u
2025-03-12 15:38:29.978,752, 965, 253, 17, 22, 34, -3, 5, 3, 970, 890, 64,u
2025-03-12 15:38:30.038,742, 595, 500, -43, 15, 39, -3, 7, 1, 972, 932, 75,u
2025-03-12 15:38:30.094,742, 442, 543, 11, -20, -34, -2, 8, 1, 967, 942, 80,u
2025-03-12 15:38:30.145,787, 995, 98, 18, 11, 30, -2, 2, 5, 974, 931, 88,u
2025-03-12 15:38:30.197,886, 263, 425, -19, 17, 1, -4, 7, 2, 970, 905, 76,u
2025-03-12 15:38:30.248,552, 387, 809, 11, 18, -30, -4, 8, -4, 957, 885, 61,u
2025-03-12 15:38:30.508,732, 450, 499, -1, -2, 2, -3, 6, 2, 938, 724, 94,v
2025-03-12 15:38:30.562,723, 450, 510, 1, -1, 2, -2, 6, 1, 939, 727, 86,v
2025-03-12 15:38:30.612,764, 466, 452, 8, -3, -5, -3, 6, 1, 930, 744, 54,v
2025-03-12 15:38:30.662,744, 493, 558, 4, -5, -9, -3, 4, 1, 929, 796, 69,v
2025-03-12 15:38:30.718,750, 477, 517, -30, -4, -9, -4, 6, 0, 948, 895, 80,v
2025-03-12 15:38:30.772,954, 1114, 564, 8, -4, 25, -3, 5, 1, 973, 913, 74,v
2025-03-12 15:38:30.826,713, 464, 323, -44, 14, 35, -2, 7, 1, 975, 927, 80,v
2025-03-12 15:38:30.878,915, 309, 591, 57, -21, -32, -4, 6, 3, 969, 942, 84,v
2025-03-12 15:38:30.928,799, 500, 238, -10, 56, -18, -4, 6, 2, 951, 879, 72,v
2025-03-12 15:38:31.241,695, 456, 561, 2, -14, -4, -4, 6, 1, 904, 703, 59,w
2025-03-12 15:38:31.294,708, 453, 565, 2, -19, -4, -2, 7, 2, 909, 722, 79,w
2025-03-12 15:38:31.348,748, 529, 581, -50, 3, -9, -4, 5, 2, 946, 888, 62,w
2025-03-12 15:38:31.398,783, 790, 484, 11, 2, 14, -2, 4, 4, 971, 911, 50,w
2025-03-12 15:38:31.448,865, 659, 291, -28, 16, 34, -4, 7, 1, 977, 931, 60,w
2025-03-12 15:38:31.511,607, 295, 612, -12, -18, -22, -3, 9, 0, 975, 946, 41,w
2025-03-12 15:38:31.560,547, 846, 248, 23, 9, 35, -4, 8, 2, 976, 937, 81,w
2025-03-12 15:38:31.611,933, 529, 428, -46, 5, 23, -2, 8, 2, 980, 950, 49,w
2025-03-12 15:38:31.661,995, 353, 157, 21, 26, -21, -6, 7, 1, 971, 941, 86,w
2025-03-12 15:38:31.721,595, 520, 732, 1, 46, -16, -4, 9, -3, 960, 892, 58,w
2025-03-12 15:38:31.982,753, 426, 521, -3, -22, 4, -4, 8, 2, 954, 873, 45,x
2025-03-12 15:38:32.038,752, 439, 514, -7, -23, 3, -4, 8, 2, 955, 879, 61,x
2025-03-12 15:38:32.096,835, 261, 303, -28, -7, -8, -4, 7, 3, 966, 914, 38,x
2025-03-12 15:38:32.146,589, 401, 498, 6, 0, -9, -5, 7, 3, 971, 929, 58,x
2025-03-12 15:38:32.198,633, 712, 146, 21, 41, 28, -4, 8, 3, 968, 905, 60,x
2025-03-12 15:38:32.248,927, -180, 966, 14, -9, -75, -4, 6, 0, 955, 867, 54,x
2025-03-12 15:38:32.309,910, 326, 649, 17, -31, -13, -4, 5, 4, 972, 929, 83,x
2025-03-12 15:38:32.363,818, -8, 391, -4, 23, 50, -2, 7, 4, 978, 936, 59,x
2025-03-12 15:38:32.414,783, 285, 269, -5, 52, -51, -4, 10, 3, 967, 894, 74,x
2025-03-12 15:38:32.687,624, 421, 652, -1, -35, 0, -3, 7, 0, 949, 889, 51,y
2025-03-12 15:38:32.738,660, 436, 629, -5, -39, 1, -3, 6, 1, 952, 898, 39,y
2025-03-12 15:38:32.793,766, 231, 442, 48, -1, -14, -4, 6, 0, 970, 914, 50,y
2025-03-12 15:38:32.846,912, 481, 359, -25, 19, 57, -2, 8, 2, 976, 932, 66,y
2025-03-12 15:38:32.898,674, 216, 525, 37, -19, -58, -5, 7, 1, 967, 923, 65,y
2025-03-12 15:38:32.949,942, 851, 295, 0, -2, 31, -3, 6, 2, 971, 933, 80,y
2025-03-12 15:38:33.010,745, 269, 432, -17, 31, 44, -3, 6, -1, 977, 929, 56,y
2025-03-12 15:38:33.063,1130, 39, 469, 29, 11, -58, -2, 10, 1, 958, 858, 66,y
2025-03-12 15:38:33.112,497, 386, 941, -16, 0, -34, -4, 8, -3, 920, 877, 71,y
2025-03-12 15:38:33.372,680, 416, 591, 6, -18, -3, -3, 7, 2, 934, 840, 84,z
2025-03-12 15:38:33.428,697, 413, 555, 5, -20, -4, -3, 8, 2, 934, 850, 85,z
2025-03-12 15:38:33.478,806, 484, 479, -38, 1, -8, -4, 9, 3, 953, 907, 58,z
2025-03-12 15:38:33.529,848, 689, 473, 27, -23, 25, -3, 5, 3, 971, 942, 61,z
2025-03-12 15:38:33.579,778, 421, 519, 26, 12, 27, -5, 7, 2, 970, 916, 101,z
2025-03-12 15:38:33.638,835, 384, 475, -31, 25, -3, -3, 8, 1, 962, 875, 54,z
2025-03-12 15:38:33.697,670, 154, 398, -25, -16, 35, -3, 9, 0, 971, 935, 101,z
2025-03-12 15:38:33.747,722, 295, 525, 40, 0, 0, -4, 9, -1, 963, 911, 48,z
2025-03-12 15:38:33.797,418, 451, 487, 3, 30, -80, -4, 7, 2, 939, 794, 71,z
2025-03-12 15:38:33.858,931, 732, 309, -48, -18, 10, -4, 5, 1, 968, 929, 48,z
2025-03-12 15:38:33.911,819, 399, 567, 13, -4, 33, -4, 8, 0, 972, 926, 58,z
2025-03-12 15:38:33.962,824, 412, 73, 11, 67, -53, -4, 7, 2, 947, 825, 71,z
2025-03-12 15:38:34.237,711, 464, 522, -10, 0, 3, -3, 4, -1, 909, 727, 86,0
2025-03-12 15:38:34.292,702, 461, 541, -8, -1, 3, -4, 8, 0, 910, 724, 74,0
2025-03-12 15:38:34.337,729, 449, 566, -5, -9, 2, -3, 5, 0, 912, 735, 77,0
2025-03-12 15:38:34.394,770, 457, 483, -6, -4, -3, -3, 5, -1, 913, 741, 60,0
2025-03-12 15:38:34.448,730, 452, 532, -8, 0, -2, -4, 5, 1, 915, 762, 84,0
2025-03-12 15:38:34.497,738, 445, 537, -5, -4, 1, -4, 5, -1, 919, 780, 63,0
2025-03-12 15:38:34.548,739, 450, 528, -5, -3, 1, -1, 7, -2, 925, 790, 59,0
2025-03-12 15:38:34.598,752, 451, 519, -4, -4, 1, -4, 6, 0, 931, 804, 62,0
2025-03-12 15:38:34.660,747, 442, 541, -4, -2, 0, -4, 7, -1, 933, 813, 53,0
2025-03-12 15:38:34.709,745, 451, 528, -1, -4, 5, -4, 5, 0, 938, 834, 62,0
2025-03-12 15:38:34.761,714, 452, 537, 5, -10, 10, -2, 6, 2, 942, 843, 57,0
2025-03-12 15:38:34.811,826, 434, 331, -6, 6, -7, -2, 9, 0, 942, 857, 58,0
2025-03-12 15:38:34.868,660, 436, 648, -10, 9, -8, -4, 5, 0, 940, 861, 57,0
2025-03-12 15:38:34.919,763, 441, 476, 3, -12, -2, -3, 7, 0, 939, 866, 80,0
2025-03-12 15:38:34.971,748, 445, 540, -8, -5, 0, -5, 7, 0, 941, 881, 41,0
2025-03-12 15:38:35.025,728, 440, 546, 0, -7, 1, -4, 5, 0, 943, 887, 72,0
2025-03-12 15:38:35.077,688, 426, 548, -14, -15, -3, -4, 7, 0, 944, 903, 60,0
2025-03-12 15:38:35.128,595, 228, 630, -25, -11, -24, -5, 8, 2, 952, 932, 78,0
2025-03-12 15:38:35.188,795, 1271, -21, 42, 52, 45, -4, 4, 3, 974, 921, 36,0
2025-03-12 15:38:35.242,628, 62, 775, -54, -2, 32, -2, 6, 1, 976, 947, 57,0
2025-03-12 15:38:35.298,971, 208, 499, 64, -36, -53, -5, 8, 1, 963, 944, 63,0
2025-03-12 15:38:35.348,735, 660, 293, -15, 83, -26, -4, 5, 2, 938, 885, 69,0
2025-03-12 15:38:35.635,721, 475, 516, 0, -4, -1, -3, 5, 1, 930, 821, 58,1
2025-03-12 15:38:35.688,730, 469, 502, 0, -4, -1, -3, 7, 0, 929, 823, 55,1
2025-03-12 15:38:35.743,673, 486, 521, -5, 0, -2, -4, 2, 2, 932, 829, 86,1
2025-03-12 15:38:35.796,772, 365, 338, -21, -2, -14, -5, 6, 0, 942, 879, 58,1
2025-03-12 15:38:35.848,652, 610, 390, -43, -6, 16, -3, 7, 2, 958, 940, 65,1
2025-03-12 15:38:35.898,562, 184, 906, 44, -23, -2, -3, 5, 1, 975, 942, 44,1
2025-03-12 15:38:35.949,467, 61, 210, 22, 30, 49, -3, 6, 3, 977, 927, 58,1
2025-03-12 15:38:36.010,791, 289, 550, -7, 33, -12, -4, 7, 2, 966, 848, 60,1
2025-03-12 15:38:36.061,635, 611, 1068, 46, -64, 18, -2, 4, 2, 959, 836, 67,1
2025-03-12 15:38:36.118,979, 799, 451, -14, -19, 37, -3, 7, 3, 975, 943, 64,1
2025-03-12 15:38:36.176,868, 228, 400, 24, 16, -15, -4, 7, 2, 964, 900, 81,1
2025-03-12 15:38:36.453,705, 478, 516, -9, -10, -5, -4, 5, 4, 933, 825, 54,2
2025-03-12 15:38:36.508,715, 465, 514, -10, -11, -5, -4, 3, 2, 933, 828, 74,2
2025-03-12 15:38:36.560,714, 492, 527, -18, -1, -17, -1, 4, 3, 938, 856, 42,2
2025-03-12 15:38:36.610,863, 488, 645, 29, -30, 1, -5, 6, 2, 958, 929, 82,2
2025-03-12 15:38:36.667,673, 612, 479, 33, 4, 16, -6, 6, 3, 969, 924, 41,2
2025-03-12 15:38:36.718,516, 394, 535, -40, 36, 6, -4, 3, 5, 962, 867, 74,2
2025-03-12 15:38:36.769,1145, 571, 531, 10, 6, 19, -4, 6, 2, 974, 940, 66,2
2025-03-12 15:38:36.827,538, 212, 678, 9, -1, 26, -4, 9, 1, 972, 937, 75,2
2025-03-12 15:38:36.877,677, 459, 280, -6, 76, -47, -4, 7, 2, 949, 863, 87,2
2025-03-12 15:38:37.138,679, 479, 571, -16, -2, -3, -6, 7, 0, 926, 857, 57,3
2025-03-12 15:38:37.196,677, 474, 569, -14, -5, -1, -3, 6, 1, 928, 859, 56,3
2025-03-12 15:38:37.248,658, 460, 582, -9, -36, 0, -6, 7, 2, 934, 882, 67,3
2025-03-12 15:38:37.298,826, 246, 583, 5, 4, -4, -4, 7, 3, 955, 933, 79,3
2025-03-12 15:38:37.348,792, 400, 575, 26, -6, 11, -5, 6, 2, 968, 941, 42,3
2025-03-12 15:38:37.403,783, 354, 411, 4, 13, 10, -6, 6, 4, 972, 939, 63,3
2025-03-12 15:38:37.459,981, 399, 480, 16, 12, -3, -4, 5, 4, 973, 937, 58,3
2025-03-12 15:38:37.512,550, 620, 482, 9, 8, 18, -6, 7, 4, 974, 936, 63,3
2025-03-12 15:38:37.560,870, 316, 260, 4, 24, 3, -4, 6, 4, 961, 876, 82,3
2025-03-12 15:38:37.618,914, 507, 261, -27, 56, -38, -3, 7, -1, 935, 797, 88,3
2025-03-12 15:38:37.670,472, 531, 762, -6, -12, -11, -3, 6, -2, 932, 826, 59,3
2025-03-12 15:38:37.923,706, 452, 597, 1, -22, 0, -4, 7, 2, 937, 888, 56,4
2025-03-12 15:38:37.974,718, 472, 568, 2, -26, 2, -6, 6, 1, 939, 892, 54,4
2025-03-12 15:38:38.028,819, 438, 432, -7, -22, 5, -4, 5, 3, 951, 915, 65,4
2025-03-12 15:38:38.081,741, 429, 586, -3, -7, -6, -5, 5, 4, 963, 932, 65,4
2025-03-12 15:38:38.133,580, 597, 437, 60, 3, -18, -5, 6, 4, 965, 898, 76,4
2025-03-12 15:38:38.182,868, 546, 27, 11, 14, -4, -5, 6, 4, 972, 929, 37,4
2025-03-12 15:38:38.238,852, 453, 614, -24, -7, 42, -4, 6, 5, 977, 951, 104,4
2025-03-12 15:38:38.293,797, 276, 512, 5, 1, -17, -2, 5, 4, 967, 935, 54,4
2025-03-12 15:38:38.344,653, 566, 825, -3, -8, -15, -5, 6, 1, 964, 929, 81,4
2025-03-12 15:38:38.398,651, 289, 464, 46, 5, 23, -5, 6, 5, 977, 934, 100,4
2025-03-12 15:38:38.447,901, 559, 486, -9, 33, 36, -5, 7, 3, 974, 897, 77,4
2025-03-12 15:38:38.499,845, 383, 243, 4, 52, -54, -3, 5, 1, 950, 818, 67,4
2025-03-12 15:38:38.778,731, 439, 557, -2, -9, 2, -5, 6, 0, 948, 854, 37,5
2025-03-12 15:38:38.834,750, 449, 495, -5, -8, 0, -6, 5, 3, 948, 854, 61,5
2025-03-12 15:38:38.893,686, 439, 584, -14, -8, -7, -3, 6, -1, 948, 851, 81,5
2025-03-12 15:38:38.942,1792, 22, 122, -28, -15, -18, -6, 6, 3, 960, 892, 62,5
2025-03-12 15:38:38.998,734, 470, 339, -14, -2, 40, -5, 5, 2, 972, 943, 51,5
2025-03-12 15:38:39.048,611, 395, 620, 32, -9, -5, -4, 7, 3, 966, 935, 77,5
2025-03-12 15:38:39.101,773, 668, 240, 51, 15, -9, -3, 4, 5, 969, 917, 39,5
2025-03-12 15:38:39.162,123, 167, 795, -39, 28, 35, -2, 6, 4, 976, 938, 80,5
2025-03-12 15:38:39.212,902, 361, 513, 8, 25, 11, -4, 7, 2, 969, 910, 80,5
2025-03-12 15:38:39.268,1131, 385, 136, -18, 68, -53, -4, 8, -2, 939, 839, 74,5
2025-03-12 15:38:39.528,731, 500, 497, 0, -18, 9, -4, 5, 4, 945, 890, 85,6
2025-03-12 15:38:39.577,754, 490, 497, 0, -20, 11, -6, 7, 1, 947, 897, 72,6
2025-03-12 15:38:39.636,736, 441, 466, -7, -22, 8, -4, 5, 4, 953, 920, 80,6
2025-03-12 15:38:39.687,730, 387, 471, -30, 2, -7, -5, 7, 2, 959, 939, 59,6
2025-03-12 15:38:39.742,848, 232, 565, 20, 1, -19, -4, 5, 4, 965, 941, 58,6
2025-03-12 15:38:39.792,855, 939, 30, 0, 55, 57, -2, 3, 4, 975, 936, 72,6
2025-03-12 15:38:39.847,721, 667, 854, -45, 7, 27, -3, 7, 1, 975, 946, 60,6
2025-03-12 15:38:39.897,782, 296, 410, 80, -15, -44, -5, 8, -1, 949, 930, 55,6
2025-03-12 15:38:39.961,655, 502, 724, -41, 86, -30, -3, 4, -1, 934, 879, 84,6
2025-03-12 15:38:40.247,691, 452, 520, -7, -21, -5, -4, 7, 2, 939, 888, 68,7
2025-03-12 15:38:40.297,712, 465, 522, -12, -24, -7, -5, 7, 1, 939, 889, 41,7
2025-03-12 15:38:40.358,778, 335, 498, -29, -8, -15, -3, 6, 4, 948, 924, 84,7
2025-03-12 15:38:40.411,824, 570, 513, 8, -9, 27, -4, 4, 6, 965, 944, 44,7
2025-03-12 15:38:40.461,712, 454, 491, 72, 3, 7, -5, 6, 4, 973, 930, 55,7
2025-03-12 15:38:40.511,904, 460, 225, 10, 45, 46, -5, 8, 4, 972, 904, 57,7
2025-03-12 15:38:40.566,649, 67, 729, -23, 7, -45, -2, 6, 0, 962, 883, 57,7
2025-03-12 15:38:40.618,997, 582, 320, -45, -20, -7, -5, 5, 2, 971, 940, 61,7
2025-03-12 15:38:40.673,1031, 455, 311, 15, 1, 37, -5, 7, 3, 974, 938, 54,7
2025-03-12 15:38:40.728,767, 466, 59, -21, 85, -50, -5, 7, 2, 956, 881, 62,7
2025-03-12 15:38:41.718,748, 483, 480, -6, -3, 1, -5, 7, 1, 935, 814, 64,8
2025-03-12 15:38:41.771,754, 462, 480, -5, -3, 1, -2, 7, 4, 936, 820, 83,8
2025-03-12 15:38:41.825,762, 458, 492, -1, -2, 3, -5, 7, 1, 940, 831, 74,8
2025-03-12 15:38:41.875,762, 469, 478, -2, -4, 2, -4, 4, 3, 945, 841, 83,8
2025-03-12 15:38:41.927,739, 448, 500, -2, -9, 3, -5, 5, 3, 948, 855, 51,8
2025-03-12 15:38:41.980,756, 506, 397, -36, -1, -5, -5, 6, 1, 954, 890, 58,8
2025-03-12 15:38:42.032,500, 229, 655, -8, -11, -24, -5, 7, 2, 963, 923, 58,8
2025-03-12 15:38:42.082,870, 768, 319, 50, 29, 22, -4, 8, 3, 972, 928, 75,8
2025-03-12 15:38:42.143,641, 461, 628, -19, 11, 29, -4, 6, 3, 975, 943, 60,8
2025-03-12 15:38:42.193,1179, 641, 296, 9, -52, -69, -4, 7, 3, 965, 954, 69,8
2025-03-12 15:38:42.248,832, 462, 659, 14, -28, -23, -5, 6, 3, 977, 961, 47,8
2025-03-12 15:38:42.303,741, 584, 125, 9, 30, 47, -6, 6, 5, 977, 949, 83,8
2025-03-12 15:38:42.356,996, 198, 323, -8, 37, -14, -4, 5, 4, 963, 916, 89,8
2025-03-12 15:38:42.409,620, 470, 837, -18, 28, -32, -4, 5, 1, 949, 891, 88,8
2025-03-12 15:38:42.458,665, 525, 534, 9, -31, 3, -4, 5, 0, 944, 887, 44,8
2025-03-12 15:38:42.514,849, 454, 352, 1, -2, 1, -5, 3, 3, 939, 876, 60,8
2025-03-12 15:38:43.204,728, 461, 522, -3, -3, 1, -3, 5, 3, 928, 817, 75,9
2025-03-12 15:38:43.252,726, 464, 521, 0, -4, 1, -6, 5, 0, 930, 816, 53,9
2025-03-12 15:38:43.306,750, 479, 479, -2, -1, 1, -7, 5, 1, 929, 823, 63,9
2025-03-12 15:38:43.358,737, 481, 491, -2, -1, 1, -5, 4, 3, 932, 832, 39,9
2025-03-12 15:38:43.408,744, 464, 495, -2, -3, 2, -5, 7, 2, 935, 843, 67,9
2025-03-12 15:38:43.459,699, 457, 556, 7, -17, 12, -4, 5, 3, 942, 871, 80,9
2025-03-12 15:38:43.509,792, 518, 303, -31, -1, -6, -4, 5, 4, 953, 915, 42,9
2025-03-12 15:38:43.573,731, 121, 640, 14, -8, -26, -6, 4, 4, 959, 933, 57,9
2025-03-12 15:38:43.626,758, 1227, -275, -1, 40, 41, -5, 5, 5, 972, 933, 54,9
2025-03-12 15:38:43.678,517, 354, 968, -12, 4, 26, -2, 5, 4, 969, 941, 70,9
2025-03-12 15:38:43.732,835, 268, 617, 35, -15, -21, -4, 2, 5, 968, 940, 57,9
2025-03-12 15:38:43.785,786, 109, 792, 14, 23, 33, -5, 7, 1, 973, 930, 57,9
2025-03-12 15:38:43.842,862, 136, 426, -11, 10, -20, -4, 7, 3, 957, 884, 93,9
2025-03-12 15:38:44.148,730, 481, 496, -4, -1, -2, -4, 6, 0, 909, 821, 47,+
2025-03-12 15:38:44.208,725, 475, 504, -3, -1, -2, -2, 4, 2, 910, 816, 42,+
2025-03-12 15:38:44.256,725, 498, 492, 0, -2, 0, -2, 6, 0, 912, 811, 66,+
2025-03-12 15:38:44.310,744, 488, 483, -4, 0, -1, -5, 5, 2, 916, 815, 59,+
2025-03-12 15:38:44.359,725, 470, 526, 1, -3, 0, -5, 5, 2, 919, 820, 76,+
2025-03-12 15:38:44.409,781, 480, 443, 3, -3, -3, -4, 5, 3, 921, 818, 52,+
2025-03-12 15:38:44.459,714, 491, 528, -1, 0, -2, -3, 5, 0, 924, 825, 67,+
2025-03-12 15:38:44.518,740, 475, 485, -2, -1, 0, -3, 3, 3, 931, 837, 84,+
2025-03-12 15:38:44.572,717, 496, 489, -1, -4, -3, -4, 5, 1, 933, 845, 60,+
2025-03-12 15:38:44.625,719, 477, 469, -4, -17, -17, -5, 5, 3, 935, 870, 74,+
2025-03-12 15:38:44.679,803, 248, 609, -27, -5, -8, -4, 4, 4, 957, 922, 62,+
2025-03-12 15:38:44.728,1194, 750, 290, -22, 58, 68, -3, 2, 4, 975, 932, 78,+
2025-03-12 15:38:44.789,696, 397, 527, -37, 25, 21, -4, 6, 1, 971, 909, 37,+
2025-03-12 15:38:44.842,519, 483, 795, 60, -51, -29, -4, 5, 2, 959, 909, 60,+
2025-03-12 15:38:44.891,744, 976, 165, -1, -20, 26, -3, 4, 3, 976, 951, 52,+
2025-03-12 15:38:44.948,985, 19, 192, -11, 50, -25, -5, 4, 3, 962, 922, 68,+
2025-03-12 15:38:45.264,720, 494, 485, 4, -1, 4, -3, 5, 3, 947, 855, 84,-
2025-03-12 15:38:45.314,737, 504, 474, 4, 0, 4, -2, 4, 0, 947, 856, 73,-
2025-03-12 15:38:45.358,712, 466, 476, 2, 4, -3, -4, 2, 3, 948, 848, 35,-
2025-03-12 15:38:45.416,697, 481, 475, -11, 7, -12, -4, 5, 1, 945, 832, 62,-
2025-03-12 15:38:45.468,629, 496, 575, 4, -2, -15, -4, 4, 0, 928, 759, 54,-
2025-03-12 15:38:45.525,672, 438, 504, -14, -4, -26, -3, 4, 1, 945, 866, 54,-
2025-03-12 15:38:45.578,645, 1041, 43, -64, -48, 59, -2, 3, 4, 975, 952, 84,-
2025-03-12 15:38:45.627,556, 406, 417, 40, 6, 5, -5, 4, 4, 972, 944, 71,-
2025-03-12 15:38:45.681,821, 402, 125, -27, 77, -62, -5, 4, 0, 948, 873, 67,-
2025-03-12 15:38:45.958,706, 494, 536, -3, -7, 13, -5, 7, 1, 954, 888, 70,÷
2025-03-12 15:38:46.007,712, 477, 520, -3, -9, 13, -7, 7, 3, 957, 888, 56,÷
2025-03-12 15:38:46.062,687, 480, 511, -2, -19, 11, -6, 6, 2, 960, 902, 42,÷
2025-03-12 15:38:46.118,973, 564, 392, -32, -5, -7, -5, 4, 5, 966, 932, 66,÷
2025-03-12 15:38:46.168,796, 401, 489, 2, -8, -13, -3, 4, 5, 973, 949, 48,÷
2025-03-12 15:38:46.223,754, 562, 419, -8, 6, 6, -5, 5, 2, 976, 953, 94,÷
2025-03-12 15:38:46.272,789, 444, 530, 16, 4, 9, -4, 5, 4, 972, 950, 69,÷
2025-03-12 15:38:46.324,749, 395, 449, 12, 43, 2, -5, 5, 2, 966, 917, 37,÷
2025-03-12 15:38:46.378,678, 538, 488, 18, -3, 23, -4, 5, 2, 966, 902, 83,÷
2025-03-12 15:38:46.428,781, 548, 258, -25, 13, 6, -4, 6, 2, 970, 918, 54,÷
2025-03-12 15:38:46.478,821, 346, 600, 8, -4, -8, -4, 5, 3, 970, 931, 52,÷
2025-03-12 15:38:46.528,863, 455, 378, -10, 12, 14, -4, 5, 3, 970, 924, 62,÷
2025-03-12 15:38:46.591,796, 423, 517, -12, 21, -24, -5, 7, 0, 965, 917, 65,÷
2025-03-12 15:38:46.644,570, 487, 729, -2, 0, -6, -3, 7, -2, 965, 906, 61,÷
2025-03-12 15:38:46.698,713, 468, 466, 6, -26, -1, -5, 4, 1, 962, 908, 62,÷
2025-03-12 15:38:46.755,1415, -136, -28, -39, -6, -12, -4, 4, 3, 969, 929, 60,÷
2025-03-12 15:38:46.809,805, 645, 350, -10, -8, 28, -4, 7, 5, 980, 953, 148,÷
2025-03-12 15:38:46.862,777, 477, 475, 30, 3, 6, -4, 5, 3, 974, 943, 81,÷
2025-03-12 15:38:46.907,715, 462, 319, -28, 82, -50, -4, 5, 2, 958, 907, 55,÷
2025-03-12 15:38:46.967,532, 509, 723, 7, -11, 1, -4, 6, -2, 939, 806, 89,÷
2025-03-12 15:38:47.244,756, 485, 490, -1, -5, 0, -4, 4, 3, 919, 764, 59,=
2025-03-12 15:38:47.298,746, 482, 476, 0, -5, 0, -1, 6, 4, 921, 765, 56,=
2025-03-12 15:38:47.344,742, 502, 471, -1, -3, 0, -4, 2, 3, 924, 773, 69,=
2025-03-12 15:38:47.398,739, 498, 478, -3, -1, -1, -3, 5, 1, 927, 785, 86,=
2025-03-12 15:38:47.447,751, 465, 474, -3, -2, 0, -5, 4, 2, 931, 799, 38,=
2025-03-12 15:38:47.498,763, 473, 463, -4, 0, -2, -5, 5, 3, 931, 809, 79,=
2025-03-12 15:38:47.553,733, 480, 497, -4, 0, -1, -4, 4, 3, 930, 810, 82,=
2025-03-12 15:38:47.607,750, 489, 474, -2, -2, 1, -6, 4, 2, 933, 810, 40,=
2025-03-12 15:38:47.656,751, 484, 481, -3, 0, 1, -5, 4, 2, 933, 817, 48,=
2025-03-12 15:38:47.708,755, 470, 479, -2, -2, 1, -4, 5, 3, 935, 821, 60,=
2025-03-12 15:38:47.758,748, 482, 485, -2, 0, 1, -4, 8, 1, 938, 824, 71,=
2025-03-12 15:38:47.809,732, 479, 469, -4, 1, -2, -4, 5, 5, 939, 827, 36,=
2025-03-12 15:38:47.859,731, 434, 498, 3, -11, 0, -5, 4, 3, 941, 843, 72,=
2025-03-12 15:38:47.918,840, 354, 588, -32, -4, -11, -4, 3, 4, 958, 917, 85,=
2025-03-12 15:38:47.972,552, 694, 480, -15, 1, 60, -4, 4, 5, 976, 944, 57,=
2025-03-12 15:38:48.024,571, 477, 382, 36, 16, 2, -6, 6, 4, 966, 919, 84,=
2025-03-12 15:38:48.077,712, 216, 474, -52, 20, -30, -4, 4, 4, 957, 878, 66,=
2025-03-12 15:38:48.127,889, 862, 626, -42, -12, 44, -3, 3, 4, 974, 948, 78,=
2025-03-12 15:38:48.188,681, 236, 512, 34, -1, 18, -3, 5, 4, 970, 925, 57,=
2025-03-12 15:38:48.241,582, 450, 425, -18, 71, -53, -4, 6, 0, 944, 801, 71,=
2025-03-12 15:38:48.518,771, 503, 489, 4, 1, -4, -3, 3, 3, 932, 782, 56,≠
2025-03-12 15:38:48.577,765, 516, 491, 3, 0, -2, -5, 7, 0, 930, 783, 64,≠
2025-03-12 15:38:48.627,744, 464, 488, 5, -3, -3, -2, 3, 4, 929, 786, 51,≠
2025-03-12 15:38:48.678,748, 501, 466, 3, -1, -8, -4, 4, 1, 926, 790, 58,≠
2025-03-12 15:38:48.728,719, 522, 482, 2, -1, -1, -5, 4, 3, 928, 806, 60,≠
2025-03-12 15:38:48.780,744, 491, 463, 0, -2, -3, -5, 3, 4, 935, 826, 73,≠
2025-03-12 15:38:48.828,719, 516, 474, -4, -3, -4, -3, 4, 3, 936, 839, 58,≠
2025-03-12 15:38:48.889,720, 514, 494, -1, -5, 1, -3, 4, 2, 938, 846, 66,≠
2025-03-12 15:38:48.941,733, 543, 419, -5, 3, -3, -3, 4, 4, 946, 862, 79,≠
2025-03-12 15:38:48.992,756, 407, 529, -1, -4, -6, -2, 4, 3, 952, 906, 60,≠
2025-03-12 15:38:49.048,711, 554, 354, 9, -25, 11, -4, 5, 3, 965, 938, 55,≠
2025-03-12 15:38:49.097,748, 612, 461, -2, -3, -2, -5, 5, 3, 968, 937, 59,≠
2025-03-12 15:38:49.148,749, 545, 409, -1, -4, -6, -5, 3, 5, 972, 940, 86,≠
2025-03-12 15:38:49.205,747, 523, 404, -7, 2, 0, -4, 3, 6, 974, 943, 43,≠
2025-03-12 15:38:49.248,742, 546, 454, -5, 2, 1, -4, 4, 2, 971, 944, 66,≠
2025-03-12 15:38:49.307,748, 517, 450, -11, 0, 1, -5, 4, 5, 972, 945, 60,≠
2025-03-12 15:38:49.356,750, 505, 437, -5, 1, 0, -6, 4, 4, 972, 947, 79,≠
2025-03-12 15:38:49.407,747, 525, 474, -1, 0, -1, -5, 1, 5, 973, 947, 49,≠
2025-03-12 15:38:49.458,742, 542, 427, -2, -1, 1, -6, 4, 4, 972, 946, 87,≠
2025-03-12 15:38:49.507,745, 445, 439, 1, 0, -6, -5, 2, 4, 972, 947, 86,≠
2025-03-12 15:38:49.567,599, 890, 395, -33, -10, 55, -5, 5, 3, 977, 949, 248,≠
2025-03-12 15:38:49.622,760, 340, 395, 35, 2, 5, -5, 7, 4, 976, 934, 295,≠
2025-03-12 15:38:49.675,705, 349, 230, -15, 72, -34, -5, 4, 6, 965, 916, 63,≠
2025-03-12 15:38:49.729,887, 585, 975, 31, -44, 26, -2, 3, 4, 958, 820, 83,≠
2025-03-12 15:38:49.778,1038, 888, 350, -29, -28, 54, -2, 3, 4, 976, 950, 68,≠
2025-03-12 15:38:49.828,673, 575, 497, 1, 2, 29, -5, 5, 4, 974, 930, 70,≠
2025-03-12 15:38:49.891,559, 408, 423, -19, 25, -65, -4, 5, 2, 964, 920, 45,≠
2025-03-12 15:38:49.941,434, 497, 701, 15, -82, 36, -4, 5, 2, 967, 928, 82,≠
2025-03-12 15:38:49.998,722, 717, 97, 25, 31, 15, -4, 5, 6, 978, 927, 98,≠
2025-03-12 15:38:50.048,765, 322, 324, -4, 40, 9, -4, 3, 5, 967, 874, 85,≠
2025-03-12 15:38:50.106,862, 299, 297, -58, 72, -46, -4, 5, 0, 948, 835, 64,≠
2025-03-12 15:38:50.159,354, 552, 899, -8, -3, -6, -3, 6, -3, 940, 825, 64,≠
2025-03-12 15:38:50.437,736, 484, 490, -2, -4, -2, -2, 4, 3, 910, 725, 35,≈
2025-03-12 15:38:50.490,733, 484, 485, -1, -4, -2, -2, 7, 1, 911, 728, 39,≈
2025-03-12 15:38:50.547,732, 489, 486, -1, -7, -5, -5, 5, 3, 916, 771, 46,≈
2025-03-12 15:38:50.597,745, 497, 480, -5, -2, -5, -6, 5, 2, 923, 795, 63,≈
2025-03-12 15:38:50.655,740, 486, 489, -4, -2, -2, -3, 3, 2, 929, 811, 67,≈
2025-03-12 15:38:50.697,724, 486, 496, 1, -4, 1, -4, 4, 3, 938, 832, 60,≈
2025-03-12 15:38:50.757,747, 498, 473, -1, -3, 0, -4, 6, 1, 939, 847, 60,≈
2025-03-12 15:38:50.807,744, 485, 479, -5, -1, -3, -4, 5, 4, 939, 856, 62,≈
2025-03-12 15:38:50.857,731, 495, 489, -4, -1, -1, -4, 4, 3, 943, 863, 79,≈
2025-03-12 15:38:50.908,727, 478, 507, 1, 0, 1, -4, 4, 3, 944, 865, 70,≈
2025-03-12 15:38:50.959,1070, 334, 384, -37, 0, -11, -4, 3, 4, 948, 863, 63,≈
2025-03-12 15:38:51.017,814, 366, 377, 10, 0, -8, -4, 5, 3, 958, 924, 61,≈
2025-03-12 15:38:51.072,632, 564, 454, 3, -23, 21, -4, 3, 5, 972, 947, 79,≈
2025-03-12 15:38:51.124,507, 618, 364, -1, 1, 21, -6, 3, 6, 979, 943, 31,≈
2025-03-12 15:38:51.174,787, 347, 474, 4, 18, 17, -5, 6, 2, 968, 935, 71,≈
2025-03-12 15:38:51.228,361, 516, 753, 2, 55, -20, -4, 5, 2, 960, 892, 84,≈
2025-03-12 15:38:51.277,801, 548, 181, 29, -2, -14, -1, 5, 3, 964, 914, 36,≈
2025-03-12 15:38:51.339,341, 500, 549, -33, -26, 4, -4, 4, 1, 975, 946, 59,≈
2025-03-12 15:38:51.388,651, 345, 467, 9, -10, 8, -5, 4, 4, 981, 945, 44,≈
2025-03-12 15:38:51.441,819, 544, 353, -8, 19, 23, -5, 7, 4, 978, 935, 67,≈
2025-03-12 15:38:51.497,676, 407, 359, -14, 56, -41, -5, 5, 3, 960, 894, 93,≈
2025-03-12 15:38:51.769,592, 432, 710, 17, -15, -41, -2, 2, 2, 918, 683, 61,<
2025-03-12 15:38:51.827,681, 505, 611, 26, -21, -36, -4, 1, 1, 920, 656, 36,<
2025-03-12 15:38:51.878,558, 573, 583, 6, -10, 11, -5, 3, 2, 932, 679, 62,<
2025-03-12 15:38:51.931,759, 516, 428, 5, -11, 33, -4, 4, 2, 943, 764, 54,<
2025-03-12 15:38:51.990,792, 451, 406, -12, 10, 11, -4, 4, 2, 948, 813, 56,<
2025-03-12 15:38:52.040,713, 496, 537, 0, -2, 9, -5, 5, 1, 952, 827, 35,<
2025-03-12 15:38:52.090,771, 496, 437, -4, 2, 5, -5, 6, 1, 952, 834, 43,<
2025-03-12 15:38:52.139,729, 491, 500, -3, 1, 1, -4, 3, 4, 953, 837, 71,<
2025-03-12 15:38:52.189,772, 502, 482, 2, -3, 4, -5, 6, 0, 956, 839, 84,<
2025-03-12 15:38:52.247,756, 477, 497, -3, 2, 3, -4, 4, 3, 956, 845, 85,<
2025-03-12 15:38:52.290,751, 501, 449, -3, -1, 3, -5, 6, 0, 957, 852, 58,<
2025-03-12 15:38:52.349,731, 458, 532, -8, -13, 1, -4, 6, 1, 958, 864, 82,<
2025-03-12 15:38:52.398,878, 218, 421, -27, -3, -3, -4, 6, 4, 965, 901, 67,<
2025-03-12 15:38:52.458,784, 391, 494, 16, -2, -16, -6, 7, 4, 973, 914, 55,<
2025-03-12 15:38:52.507,1045, 445, 460, 12, 5, 7, -3, 6, 4, 974, 917, 59,<
2025-03-12 15:38:52.557,628, 469, 574, -8, -2, 44, -4, 6, 2, 981, 943, 70,<
2025-03-12 15:38:52.615,862, 329, 354, 15, 23, -12, -4, 8, 2, 968, 894, 68,<
2025-03-12 15:38:52.673,610, 463, 725, -19, 43, -36, -4, 6, 1, 943, 761, 52,<
2025-03-12 15:38:52.932,763, 496, 482, 3, -6, -2, -4, 5, 3, 926, 800, 56,≤
2025-03-12 15:38:52.978,757, 495, 492, 3, -6, 0, -4, 5, 5, 927, 801, 56,≤
2025-03-12 15:38:53.027,771, 461, 446, 2, -5, 0, -4, 1, 5, 932, 809, 53,≤
2025-03-12 15:38:53.078,780, 482, 493, 1, -2, 0, -2, 5, 4, 936, 831, 38,≤
2025-03-12 15:38:53.128,723, 491, 472, 2, -9, 0, -4, 4, 3, 945, 857, 59,≤
2025-03-12 15:38:53.178,719, 509, 476, 0, -10, 4, -4, 3, 6, 950, 874, 61,≤
2025-03-12 15:38:53.239,742, 453, 481, -16, -2, -4, -5, 5, 4, 960, 898, 67,≤
2025-03-12 15:38:53.291,704, 413, 524, -7, -3, -4, -4, 4, 4, 967, 917, 64,≤
2025-03-12 15:38:53.341,817, 695, 351, 38, 25, -5, -4, 5, 4, 963, 885, 84,≤
2025-03-12 15:38:53.398,922, 442, 288, 22, 14, 6, -4, 4, 4, 972, 928, 62,≤
2025-03-12 15:38:53.451,561, 300, 695, -10, -5, 26, -5, 4, 4, 978, 948, 239,≤
2025-03-12 15:38:53.506,740, 363, 498, 44, -7, -6, -6, 6, 2, 971, 921, 42,≤
2025-03-12 15:38:53.558,626, 329, 773, -36, 39, -8, -4, 7, 2, 959, 751, 78,≤
2025-03-12 15:38:53.608,861, 736, 545, -22, -15, 26, -4, 7, 2, 977, 931, 64,≤
2025-03-12 15:38:53.663,738, 385, 376, 24, -4, 8, -4, 5, 3, 971, 921, 90,≤
2025-03-12 15:38:53.723,767, 457, 150, -10, 60, -55, -4, 6, 1, 939, 782, 47,≤
2025-03-12 15:38:54.018,766, 486, 474, 1, -13, 1, -4, 4, 2, 926, 786, 76,>
2025-03-12 15:38:54.072,779, 473, 451, 0, -11, 0, -3, 7, 3, 928, 786, 68,>
2025-03-12 15:38:54.127,720, 502, 487, -3, -5, -1, -3, 4, 4, 931, 793, 59,>
2025-03-12 15:38:54.177,741, 480, 469, -9, -3, -6, -5, 5, 2, 935, 813, 60,>
2025-03-12 15:38:54.235,642, 508, 585, -8, -24, 2, -5, 6, 4, 939, 836, 58,>
2025-03-12 15:38:54.287,874, 483, 270, -21, 1, -6, -4, 6, 5, 954, 889, 83,>
2025-03-12 15:38:54.339,641, 400, 523, -6, -7, 15, -6, 4, 6, 966, 928, 76,>
2025-03-12 15:38:54.389,801, 506, 508, 6, -8, 9, -6, 6, 4, 970, 931, 60,>
2025-03-12 15:38:54.439,746, 567, 266, 36, 17, 13, -7, 5, 5, 971, 919, 62,>
2025-03-12 15:38:54.489,933, 326, 498, -12, 29, 12, -3, 6, 4, 970, 906, 72,>
2025-03-12 15:38:54.553,992, 354, 488, -14, 17, -11, -5, 4, 4, 950, 855, 76,>
2025-03-12 15:38:54.608,636, 457, 706, -35, 36, -33, -2, 6, 3, 932, 846, 88,>
2025-03-12 15:38:54.657,590, 496, 634, 7, -15, 4, -4, 6, -1, 925, 821, 50,>
2025-03-12 15:38:55.308,737, 470, 500, -1, -5, 1, -4, 6, 3, 901, 714, 59,≥
2025-03-12 15:38:55.369,745, 469, 489, -1, -4, 1, -2, 7, 2, 903, 718, 85,≥
2025-03-12 15:38:55.418,726, 460, 521, 0, -4, 1, -4, 4, 2, 908, 732, 66,≥
2025-03-12 15:38:55.472,740, 475, 482, -5, -3, 1, -4, 6, 4, 916, 764, 56,≥
2025-03-12 15:38:55.525,697, 469, 527, -5, -8, -1, -6, 3, 4, 922, 790, 49,≥
2025-03-12 15:38:55.577,717, 476, 512, -8, -16, -3, -4, 6, 3, 925, 818, 57,≥
2025-03-12 15:38:55.628,842, 452, 455, -17, -9, -17, -4, 7, 4, 941, 843, 39,≥
2025-03-12 15:38:55.679,910, 615, 548, 40, -21, 3, -5, 4, 6, 964, 923, 65,≥
2025-03-12 15:38:55.738,604, 337, 712, 8, -14, 15, -5, 6, 5, 971, 933, 59,≥
2025-03-12 15:38:55.790,652, 362, 519, 52, 15, 7, -7, 6, 5, 975, 923, 238,≥
2025-03-12 15:38:55.840,868, 438, 334, -29, 43, 21, -7, 5, 5, 972, 910, 46,≥
2025-03-12 15:38:55.898,624, 335, 457, -36, 60, -26, -4, 7, 4, 957, 804, 60,≥
2025-03-12 15:38:55.957,5835, 138, -411, -16, -26, -16, -5, 6, 2, 966, 846, 37,≥
2025-03-12 15:38:56.017,632, 241, 493, -13, -18, 25, -5, 10, 4, 975, 936, 185,≥
2025-03-12 15:38:56.070,908, 402, 150, 18, 24, -30, -5, 4, 5, 954, 871, 84,≥
2025-03-12 15:38:56.124,603, 457, 829, -33, 58, -32, -3, 4, 0, 920, 681, 73,≥
2025-03-12 15:38:56.399,777, 466, 471, 2, -4, -2, -3, 5, 3, 892, 731, 38,±
2025-03-12 15:38:56.459,766, 478, 469, -1, -4, -3, -3, 5, 3, 893, 737, 60,±
2025-03-12 15:38:56.508,743, 482, 501, -1, -3, -5, -5, 4, 3, 894, 753, 60,±
2025-03-12 15:38:56.564,747, 482, 470, -5, -1, -4, -3, 4, 4, 898, 768, 70,±
2025-03-12 15:38:56.611,741, 479, 487, -6, -1, -4, -4, 5, 2, 903, 769, 56,±
2025-03-12 15:38:56.668,737, 493, 495, -5, 0, -1, -4, 7, 0, 903, 770, 48,±
2025-03-12 15:38:56.721,746, 487, 468, -6, 0, -1, -4, 5, 4, 907, 777, 81,±
2025-03-12 15:38:56.772,738, 486, 500, -4, -2, 1, -4, 4, 3, 911, 785, 57,±
2025-03-12 15:38:56.822,744, 477, 484, -1, 0, 2, -5, 6, 1, 917, 789, 42,±
2025-03-12 15:38:56.872,735, 480, 500, -2, -2, 3, -4, 6, 3, 921, 807, 51,±
2025-03-12 15:38:56.922,743, 468, 471, -2, -1, 1, -4, 3, 3, 928, 819, 79,±
2025-03-12 15:38:56.977,748, 478, 495, -2, -1, -2, -5, 6, 2, 929, 828, 85,±
2025-03-12 15:38:57.028,695, 458, 535, -11, 3, -5, -6, 6, 3, 931, 829, 57,±
2025-03-12 15:38:57.078,732, 447, 435, -7, -3, -4, -4, 6, 5, 932, 828, 82,±
2025-03-12 15:38:57.139,774, 397, 531, -10, -6, -10, -4, 7, 5, 952, 902, 55,±
2025-03-12 15:38:57.189,667, 416, 311, 12, -12, 30, -4, 6, 4, 970, 944, 83,±
2025-03-12 15:38:57.239,740, 564, 466, 24, 2, 6, -6, 6, 3, 960, 928, 80,±
2025-03-12 15:38:57.297,527, 563, 593, -2, 3, -33, -5, 3, 4, 950, 917, 78,±
2025-03-12 15:38:57.347,795, 598, 241, 3, -3, 2, -6, 4, 5, 972, 933, 57,±
2025-03-12 15:38:57.405,778, 553, 337, -7, 53, 52, -7, 4, 6, 974, 915, 41,±
2025-03-12 15:38:57.454,686, 376, 395, 1, 49, -25, -3, 6, 1, 959, 805, 84,±
2025-03-12 15:38:57.508,776, 148, 289, 17, -13, -13, -4, 4, 3, 961, 886, 59,±
2025-03-12 15:38:57.564,971, 151, 249, -10, -11, 45, -3, 6, 2, 974, 938, 73,±
2025-03-12 15:38:57.618,803, 304, 68, -7, 56, -51, -2, 4, 2, 959, 861, 64,±
2025-03-12 15:38:57.930,780, 493, 432, 2, -5, 4, -5, 3, 4, 942, 840, 43,∓
2025-03-12 15:38:57.978,780, 486, 426, -2, -5, 3, -5, 3, 4, 941, 847, 60,∓
2025-03-12 15:38:58.027,739, 453, 497, -12, -6, -2, -7, 6, 4, 946, 868, 60,∓
2025-03-12 15:38:58.089,677, 471, 501, -13, 1, -10, -5, 8, 2, 950, 877, 53,∓
2025-03-12 15:38:58.138,937, 487, 483, -47, -6, -21, -4, 5, 5, 958, 895, 60,∓
2025-03-12 15:38:58.203,1162, 1204, 186, -28, -49, 44, -4, 5, 6, 975, 952, 226,∓
2025-03-12 15:38:58.256,565, 89, 474, 61, -4, 2, -7, 5, 6, 969, 928, 327,∓
2025-03-12 15:38:58.307,676, 407, 287, -7, 72, -35, -6, 6, 6, 957, 903, 62,∓
2025-03-12 15:38:58.363,811, 643, 1145, 38, -43, 45, -4, 6, 3, 957, 850, 58,∓
2025-03-12 15:38:58.420,634, 579, 214, -25, -12, 26, -6, 5, 3, 973, 945, 137,∓
2025-03-12 15:38:58.472,713, 388, 500, 22, -3, 0, -5, 8, 4, 965, 928, 85,∓
2025-03-12 15:38:58.521,531, 525, 505, -9, 15, -41, -4, 5, 5, 955, 901, 67,∓
2025-03-12 15:38:58.578,770, 960, 46, 5, -5, 16, -5, 4, 5, 973, 924, 64,∓
2025-03-12 15:38:58.632,874, 486, 537, -14, 30, 37, -5, 7, 4, 971, 853, 91,∓
2025-03-12 15:38:58.686,697, 425, 447, -6, 68, -60, -5, 8, 0, 944, 735, 66,∓
2025-03-12 15:38:59.158,640, 838, 167, -50, -4, 8, -4, -11, 16, 265, 596, 61,∞
2025-03-12 15:38:59.208,582, 736, 158, -52, 0, 9, -4, -7, 14, 336, 609, 49,∞
2025-03-12 15:38:59.268,533, 821, 127, 0, 5, -40, -6, -9, 12, 246, 648, 54,∞
2025-03-12 15:38:59.322,556, 1044, 11, -40, 14, 9, -4, -10, 15, 401, 659, 59,∞
2025-03-12 15:38:59.373,650, 833, 506, -17, 6, 4, -6, -7, 13, 488, 704, 78,∞
2025-03-12 15:38:59.427,628, 817, 197, -52, -14, -9, -3, -8, 15, 458, 693, 54,∞
2025-03-12 15:38:59.489,479, 794, 408, 6, 15, 13, -4, -10, 14, 445, 603, 74,∞
2025-03-12 15:38:59.540,621, 753, 231, -24, 4, -9, -4, -7, 14, 371, 527, 76,∞
2025-03-12 15:38:59.597,537, 712, 455, -23, 5, -12, -5, -10, 13, 414, 522, 40,∞
2025-03-12 15:38:59.654,678, 825, 419, 9, 17, -4, -6, -7, 9, 415, 447, 52,∞
2025-03-12 15:38:59.708,601, 871, 373, 30, -4, -21, -3, -9, 10, 294, 310, 73,∞
2025-03-12 15:38:59.768,506, 884, 225, 20, -15, -14, -4, -11, 11, 21, 85, 30,∞
2025-03-12 15:38:59.821,431, 816, 221, 5, 12, 39, -6, -11, 13, 424, 336, 73,∞
2025-03-12 15:38:59.878,202, 679, 291, -43, 44, 169, -6, -8, 8, 694, 365, 52,∞
2025-03-12 15:38:59.927,894, 221, 383, 14, 2, 51, -5, -4, 6, 817, 615, 333,∞
2025-03-12 15:38:59.988,749, 567, 518, -67, 74, 45, -6, -2, 2, 899, 704, 411,∞
2025-03-12 15:39:00.038,567, 312, 556, -36, 25, 29, -4, 2, 0, 928, 806, 215,∞
2025-03-12 15:39:00.098,1179, 765, 770, 21, -33, 7, -3, 4, -3, 944, 834, 323,∞
2025-03-12 15:39:00.147,611, 400, 606, 4, 8, 29, -5, 5, -2, 952, 840, 60,∞
2025-03-12 15:39:00.202,753, 503, 339, -5, 0, 21, -6, 5, 1, 957, 847, 49,∞
2025-03-12 15:39:00.255,692, 482, 593, 2, -7, 18, -4, 5, 0, 959, 843, 85,∞
2025-03-12 15:39:00.305,818, 420, 442, 4, -34, 1, -4, 3, 1, 961, 873, 80,∞
2025-03-12 15:39:00.357,639, 472, 511, -3, 4, -4, -6, 5, 2, 970, 903, 47,∞
2025-03-12 15:39:00.408,866, 548, 594, -45, 28, 23, -4, 6, 2, 971, 891, 63,∞
2025-03-12 15:39:00.468,757, -19, 842, 10, -3, -37, -4, 5, 3, 960, 909, 60,∞
2025-03-12 15:39:00.521,814, 629, 339, -29, -22, 42, -5, 4, 3, 975, 939, 57,∞
2025-03-12 15:39:00.572,680, 617, 330, -29, 2, 10, -6, 8, 2, 975, 940, 67,∞
2025-03-12 15:39:00.628,682, 535, 453, 13, -2, -30, -5, 8, 4, 969, 938, 57,∞
2025-03-12 15:39:00.677,759, 692, 322, 17, 26, 19, -5, 5, 5, 977, 930, 63,∞
2025-03-12 15:39:00.728,847, 668, -15, -4, 23, 14, -1, 8, 3, 970, 859, 77,∞
2025-03-12 15:39:00.787,971, 296, 208, 27, 46, -65, -4, 6, 1, 930, 774, 62,∞
2025-03-12 15:39:01.068,576, 573, 386, 15, 13, 25, -5, 0, 3, 809, 604, 62,∑
2025-03-12 15:39:01.121,574, 548, 379, 15, 18, 33, -5, 3, 2, 807, 589, 39,∑
2025-03-12 15:39:01.174,704, 336, 473, 26, 5, 17, -5, 0, 4, 804, 598, 56,∑
2025-03-12 15:39:01.225,771, 500, 395, -8, 16, -9, -6, 2, 0, 815, 580, 78,∑
2025-03-12 15:39:01.278,862, 529, 552, -1, 2, -20, -4, 2, 1, 855, 580, 61,∑
2025-03-12 15:39:01.331,576, 535, 484, -19, 5, 2, -3, 2, 1, 888, 659, 59,∑
2025-03-12 15:39:01.387,743, 597, 582, 19, -25, 10, -3, 1, 0, 912, 708, 56,∑
2025-03-12 15:39:01.439,740, 479, 402, -10, -6, 2, -4, 2, 4, 931, 774, 42,∑
2025-03-12 15:39:01.492,750, 512, 452, -12, -4, -1, -4, 4, 2, 942, 836, 85,∑
2025-03-12 15:39:01.541,710, 547, 496, -4, -5, 3, -6, 5, 1, 947, 854, 59,∑
2025-03-12 15:39:01.589,721, 527, 437, -2, -6, 2, -3, 4, 3, 951, 869, 64,∑
2025-03-12 15:39:01.648,728, 494, 473, -9, -6, -3, -5, 5, 2, 951, 878, 58,∑
2025-03-12 15:39:01.704,682, 480, 466, -19, 0, -17, -5, 3, 4, 952, 879, 58,∑
2025-03-12 15:39:01.758,757, 525, 376, -20, -3, -14, -2, 3, 5, 958, 908, 90,∑
2025-03-12 15:39:01.808,983, 791, -80, -8, -30, 51, -4, 1, 8, 975, 945, 63,∑
2025-03-12 15:39:01.865,632, 477, 505, -11, 4, 12, -7, 5, 5, 976, 944, 68,∑
2025-03-12 15:39:01.918,811, 370, 463, 18, 2, -8, -6, 3, 6, 974, 944, 56,∑
2025-03-12 15:39:01.971,763, 517, 447, -4, 0, -1, -5, 5, 5, 973, 942, 84,∑
2025-03-12 15:39:02.024,757, 505, 483, 16, -7, -5, -4, 4, 6, 968, 937, 67,∑
2025-03-12 15:39:02.078,706, 568, 270, 14, 24, -38, -4, 5, 5, 956, 885, 50,∑
2025-03-12 15:39:02.128,803, 563, 370, -18, -16, 4, -5, 4, 4, 960, 897, 79,∑
2025-03-12 15:39:02.178,734, 831, 548, 16, -12, 21, -4, 4, 5, 975, 940, 57,∑
2025-03-12 15:39:02.238,818, 592, 433, 2, -5, 29, -5, 3, 4, 978, 938, 86,∑
2025-03-12 15:39:02.288,458, 404, 303, 12, 21, -4, -5, 4, 6, 971, 929, 54,∑
2025-03-12 15:39:02.345,850, 552, 323, -4, 12, -16, -3, 2, 3, 966, 884, 55,∑
2025-03-12 15:39:02.397,817, 571, 531, -55, -13, 44, -5, 5, 4, 979, 945, 70,∑
2025-03-12 15:39:02.448,713, 488, 469, 4, 13, 13, -5, 7, 3, 975, 937, 70,∑
2025-03-12 15:39:02.505,846, 459, 119, -11, 79, -56, -4, 4, 3, 947, 850, 86,∑
2025-03-12 15:39:02.798,674, 509, 563, 2, -15, -32, -5, 2, 3, 916, 729, 59,∏
2025-03-12 15:39:02.854,645, 533, 538, 5, -18, -27, -5, 4, 1, 921, 733, 69,∏
2025-03-12 15:39:02.905,629, 603, 467, -1, -9, 10, -5, 3, 4, 934, 761, 52,∏
2025-03-12 15:39:02.958,747, 523, 409, 0, 1, 22, -3, 1, 2, 943, 810, 55,∏
2025-03-12 15:39:03.008,776, 507, 380, 0, 3, 8, -5, 4, 2, 946, 833, 63,∏
2025-03-12 15:39:03.054,728, 514, 486, -6, 5, 3, -5, 3, 4, 948, 843, 79,∏
2025-03-12 15:39:03.110,728, 522, 457, 1, 1, 5, -5, 4, 1, 950, 847, 50,∏
2025-03-12 15:39:03.158,761, 487, 472, -1, -1, 5, -5, 4, 2, 951, 849, 38,∏
2025-03-12 15:39:03.212,753, 502, 455, -10, 2, 1, -4, 5, 4, 953, 855, 51,∏
2025-03-12 15:39:03.258,733, 500, 469, -7, 0, 3, -6, 4, 4, 953, 854, 70,∏
2025-03-12 15:39:03.319,743, 497, 445, -10, -3, -2, -6, 6, 3, 953, 864, 66,∏
2025-03-12 15:39:03.370,728, 514, 417, -24, 20, -12, -5, 5, 3, 953, 853, 61,∏
2025-03-12 15:39:03.420,586, 485, 667, 5, -15, -2, -4, 4, 3, 949, 849, 57,∏
2025-03-12 15:39:03.478,940, 261, 231, 2, -11, -12, -4, 2, 6, 963, 925, 62,∏
2025-03-12 15:39:03.537,410, 181, 620, -20, -20, 45, -5, 6, 4, 976, 944, 156,∏
2025-03-12 15:39:03.588,650, 439, 442, 40, -8, -2, -6, 5, 4, 966, 916, 85,∏
2025-03-12 15:39:03.638,723, 373, 380, -7, 32, -56, -5, 5, 3, 952, 876, 39,∏
2025-03-12 15:39:03.697,834, 447, 620, -11, -11, -4, -2, 4, 4, 968, 916, 56,∏
2025-03-12 15:39:03.748,754, 377, 190, 5, 26, 37, -6, 4, 6, 977, 927, 64,∏
2025-03-12 15:39:03.802,842, 76, 701, 9, -15, -22, -5, 5, 3, 966, 895, 87,∏
2025-03-12 15:39:03.856,454, 618, 920, -1, -56, 18, -5, 4, 3, 968, 915, 49,∏
2025-03-12 15:39:03.913,913, 1245, -300, -11, 30, 42, -7, 5, 4, 978, 922, 69,∏
2025-03-12 15:39:03.960,840, 407, 441, 3, 24, 9, -4, 6, 4, 971, 885, 66,∏
2025-03-12 15:39:04.020,819, 521, 413, -32, 50, -42, -3, 4, 1, 950, 849, 83,∏
2025-03-12 15:39:04.278,761, 444, 464, -1, 2, -5, -4, 5, 3, 921, 730, 78,√
2025-03-12 15:39:04.321,757, 458, 472, 1, 2, -5, -4, 4, 3, 918, 716, 83,√
2025-03-12 15:39:04.378,738, 492, 489, -4, 0, -3, -5, 4, 3, 915, 715, 58,√
2025-03-12 15:39:04.428,756, 481, 479, -4, -4, -1, -4, 5, 3, 916, 732, 68,√
2025-03-12 15:39:04.485,751, 488, 458, -8, -1, -3, -4, 6, 2, 919, 737, 42,√
2025-03-12 15:39:04.536,735, 479, 512, -9, 2, -3, -4, 4, 4, 926, 746, 77,√
2025-03-12 15:39:04.587,753, 481, 481, 1, -3, 1, -4, 6, 2, 930, 748, 81,√
2025-03-12 15:39:04.637,748, 492, 470, -6, -1, 1, -3, 4, 2, 929, 763, 59,√
2025-03-12 15:39:04.688,767, 461, 502, 1, -7, 3, -4, 6, 5, 932, 791, 73,√
2025-03-12 15:39:04.737,804, 465, 463, 2, -3, -1, -4, 5, 3, 933, 817, 83,√
2025-03-12 15:39:04.787,722, 448, 473, 5, 4, 4, -6, 7, 4, 939, 843, 64,√
2025-03-12 15:39:04.842,647, 458, 594, -3, 11, -3, -5, 5, 4, 940, 834, 57,√
2025-03-12 15:39:04.897,782, 459, 448, -16, -2, -6, -1, 5, 5, 944, 839, 56,√
2025-03-12 15:39:04.953,730, 437, 636, -44, 8, -15, -5, 5, 2, 955, 868, 52,√
2025-03-12 15:39:05.004,851, 767, 434, 6, -8, 13, -5, 5, 2, 969, 930, 65,√
2025-03-12 15:39:05.054,607, 214, 635, 30, -1, 2, -4, 6, 4, 974, 936, 64,√
2025-03-12 15:39:05.107,961, 620, 296, -8, 14, 33, -5, 7, 3, 979, 919, 51,√
2025-03-12 15:39:05.162,777, 558, 421, -93, 12, 27, -6, 8, 1, 976, 941, 63,√
2025-03-12 15:39:05.219,956, 737, 233, -37, -42, -36, -7, 6, 4, 974, 954, 48,√
2025-03-12 15:39:05.270,847, 463, 86, 41, -19, 27, -6, 7, 6, 978, 947, 248,√
2025-03-12 15:39:05.327,878, 186, 319, 12, 25, -22, -6, 5, 6, 970, 939, 71,√
2025-03-12 15:39:05.381,570, 512, 686, -35, 49, -49, -6, 4, 4, 957, 924, 82,√
2025-03-12 15:39:06.138,746, 495, 472, -3, 0, 1, -4, 5, 2, 923, 762, 62,∛
2025-03-12 15:39:06.187,746, 488, 478, -2, 0, 2, -3, 5, 4, 924, 768, 78,∛
2025-03-12 15:39:06.240,732, 485, 495, 1, -1, 4, -4, 4, 2, 932, 785, 84,∛
2025-03-12 15:39:06.288,750, 501, 471, 0, -2, 4, -6, 4, 3, 937, 803, 81,∛
2025-03-12 15:39:06.340,746, 484, 475, 0, 0, 7, -4, 4, 3, 942, 819, 77,∛
2025-03-12 15:39:06.388,749, 479, 450, -4, 4, 3, -4, 6, 3, 945, 830, 47,∛
2025-03-12 15:39:06.438,759, 476, 485, 0, -2, 1, -4, 5, 3, 946, 846, 38,∛
2025-03-12 15:39:06.488,713, 498, 514, -1, 4, -1, -3, 4, 4, 947, 858, 87,∛
2025-03-12 15:39:06.547,662, 482, 452, -14, 5, -14, -4, 7, 2, 948, 865, 60,∛
2025-03-12 15:39:06.597,962, 460, 616, 19, -4, 3, -3, 4, 2, 963, 928, 59,∛
2025-03-12 15:39:06.653,720, 365, 526, 69, -3, 17, -4, 4, 4, 973, 921, 63,∛
2025-03-12 15:39:06.705,623, 578, 156, -12, 14, 33, -4, 5, 4, 975, 899, 65,∛
2025-03-12 15:39:06.758,836, 73, 541, -70, -19, -10, -4, 7, 2, 968, 929, 83,∛
2025-03-12 15:39:06.817,701, 667, 276, -24, -35, -3, -5, 6, 4, 973, 944, 46,∛
2025-03-12 15:39:06.870,788, 733, 280, 39, -2, 4, -7, 7, 5, 971, 909, 192,∛
2025-03-12 15:39:06.923,701, 330, 176, 2, 37, -48, -7, 5, 4, 959, 917, 56,∛
2025-03-12 15:39:06.972,719, 576, 916, 9, -21, -25, -5, 2, 5, 958, 927, 81,∛
2025-03-12 15:39:07.027,777, 445, 281, -11, 3, -13, -4, 4, 5, 972, 950, 47,∛
2025-03-12 15:39:07.078,724, 703, 515, 6, 0, 15, -5, 5, 4, 975, 952, 196,∛
2025-03-12 15:39:07.128,729, 456, 397, 2, 12, 7, -4, 4, 6, 975, 952, 82,∛
2025-03-12 15:39:07.186,834, 159, 599, -2, 8, 1, -4, 3, 7, 978, 952, 50,∛
2025-03-12 15:39:07.238,715, 505, 327, -2, 20, 14, -6, 5, 3, 976, 948, 65,∛
2025-03-12 15:39:07.290,1141, 360, 8, -12, 47, -45, -6, 4, 1, 960, 929, 61,∛
2025-03-12 15:39:07.338,413, 559, 958, -14, 9, -10, -6, 5, -1, 957, 908, 58,∛
2025-03-12 15:39:07.622,747, 520, 446, 6, -7, 8, -5, 4, 3, 943, 821, 54,∜
2025-03-12 15:39:07.670,754, 529, 425, 5, -5, 8, -2, 6, 3, 944, 823, 68,∜
2025-03-12 15:39:07.720,759, 473, 452, 1, 0, 4, -5, 6, 4, 944, 822, 61,∜
2025-03-12 15:39:07.774,757, 518, 445, 0, 0, 4, -6, 3, 3, 946, 828, 76,∜
2025-03-12 15:39:07.820,751, 489, 452, 3, 4, 2, -6, 4, 4, 946, 818, 55,∜
2025-03-12 15:39:07.870,736, 514, 450, 3, 6, 3, -4, 4, 5, 948, 795, 80,∜
2025-03-12 15:39:07.920,701, 504, 494, -1, 4, 4, -4, 4, 3, 945, 755, 56,∜
2025-03-12 15:39:07.978,773, 446, 528, -16, -8, 2, -3, 5, 3, 938, 726, 54,∜
2025-03-12 15:39:08.027,876, 772, 520, 6, -13, 15, -3, 5, 4, 957, 866, 77,∜
2025-03-12 15:39:08.078,553, 386, 640, 34, -5, 9, -4, 7, 4, 963, 872, 55,∜
2025-03-12 15:39:08.136,676, 603, 195, 33, 20, 48, -4, 4, 4, 971, 805, 54,∜
2025-03-12 15:39:08.188,791, 547, 402, -90, 15, 28, -4, 6, 1, 968, 885, 60,∜
2025-03-12 15:39:08.238,975, 382, 541, -10, -61, -37, -7, 5, 4, 967, 936, 53,∜
2025-03-12 15:39:08.297,807, 597, 340, 35, -21, 1, -5, 4, 5, 970, 925, 262,∜
2025-03-12 15:39:08.353,897, 325, 128, 7, 25, -20, -4, 4, 4, 963, 908, 57,∜
2025-03-12 15:39:08.408,445, 511, 770, -24, 42, -58, -7, 4, 2, 957, 906, 60,∜
2025-03-12 15:39:08.460,714, 484, 526, 26, -72, 21, -6, 3, 3, 966, 927, 106,∜
2025-03-12 15:39:08.517,753, 485, 449, -15, 4, -7, -5, 3, 6, 974, 946, 88,∜
2025-03-12 15:39:08.570,705, 597, 334, 17, 11, 0, -7, 1, 7, 976, 940, 51,∜
2025-03-12 15:39:08.620,815, 530, 121, -11, 4, 1, -7, 4, 6, 977, 942, 75,∜
2025-03-12 15:39:08.672,656, 478, 380, -7, 2, 29, -5, 3, 6, 977, 952, 84,∜
2025-03-12 15:39:08.722,833, 210, 323, 18, -4, -42, -5, 5, 4, 973, 946, 38,∜
2025-03-12 15:39:08.784,800, -214, 350, -17, -9, -13, -6, 4, 3, 977, 950, 74,∜
2025-03-12 15:39:08.837,948, 1269, 202, -35, 42, 44, -5, 3, 6, 982, 943, 80,∜
2025-03-12 15:39:08.888,750, 487, 235, -19, 51, -61, -5, 6, 4, 970, 920, 67,∜
2025-03-12 15:39:09.148,728, 508, 460, 9, -8, 4, -5, 6, 3, 938, 776, 79,∫
2025-03-12 15:39:09.208,742, 507, 468, 8, -7, 4, -4, 4, 1, 938, 773, 46,∫
2025-03-12 15:39:09.258,726, 500, 471, 5, -3, 1, -5, 5, 4, 935, 765, 76,∫
2025-03-12 15:39:09.308,738, 519, 469, 3, -4, 2, -4, 5, 2, 934, 755, 45,∫
2025-03-12 15:39:09.358,749, 498, 459, -5, 0, 3, -4, 5, 3, 936, 767, 32,∫
2025-03-12 15:39:09.411,741, 494, 481, -1, -1, 4, -3, 4, 5, 941, 783, 54,∫
2025-03-12 15:39:09.463,739, 479, 492, -1, -3, 3, -4, 6, 3, 945, 795, 68,∫
2025-03-12 15:39:09.511,775, 491, 449, 10, -5, 3, -4, 3, 3, 949, 822, 58,∫
2025-03-12 15:39:09.563,716, 499, 480, 4, 2, 0, -4, 4, 4, 949, 816, 78,∫
2025-03-12 15:39:09.618,729, 536, 468, -3, 2, 0, -6, 5, 4, 951, 818, 73,∫
2025-03-12 15:39:09.667,761, 483, 404, 1, -3, 7, -5, 5, 4, 952, 838, 75,∫
2025-03-12 15:39:09.720,761, 507, 520, 7, -16, 11, -4, 4, 3, 956, 849, 63,∫
2025-03-12 15:39:09.772,729, 458, 382, -6, -15, 12, -4, 4, 4, 962, 861, 55,∫
2025-03-12 15:39:09.827,755, 454, 442, -31, -9, -7, -6, 6, 5, 966, 904, 85,∫
2025-03-12 15:39:09.878,724, 320, 617, 9, -4, -17, -6, 5, 3, 969, 924, 72,∫
2025-03-12 15:39:09.934,834, 614, 167, 48, 16, -4, -4, 3, 7, 976, 924, 78,∫
2025-03-12 15:39:09.988,808, 375, 681, -17, 33, 30, -6, 4, 6, 979, 921, 62,∫
2025-03-12 15:39:10.038,902, 488, 329, 19, 23, 5, -5, 7, 3, 962, 850, 93,∫
2025-03-12 15:39:10.098,720, 431, 395, -50, 50, -39, -4, 5, 1, 936, 840, 64,∫
2025-03-12 15:39:10.358,719, 483, 463, 13, -9, -1, -5, 4, 4, 948, 833, 52,∮
2025-03-12 15:39:10.408,723, 480, 463, 15, -9, -1, -5, 4, 4, 948, 830, 55,∮
2025-03-12 15:39:10.467,753, 535, 425, 10, -6, 5, -6, 5, 6, 949, 817, 33,∮
2025-03-12 15:39:10.520,796, 462, 385, 2, -3, 2, -7, 5, 2, 951, 831, 67,∮
2025-03-12 15:39:10.569,742, 524, 450, -11, -5, 2, -4, 4, 5, 953, 851, 61,∮
2025-03-12 15:39:10.624,686, 414, 478, -39, -5, -8, -4, 5, 4, 956, 886, 65,∮
2025-03-12 15:39:10.679,696, 188, 621, 32, -7, -23, -5, 4, 5, 963, 900, 84,∮
2025-03-12 15:39:10.727,1094, 556, 29, -34, 46, 72, -5, 4, 5, 975, 902, 88,∮
2025-03-12 15:39:10.786,718, 628, 688, -19, 14, 19, -6, 7, 3, 970, 915, 79,∮
2025-03-12 15:39:10.837,762, 547, 219, -7, -38, -39, -5, 3, 5, 957, 927, 56,∮
2025-03-12 15:39:10.888,900, 530, 377, 1, -17, 4, -5, 2, 6, 972, 939, 89,∮
2025-03-12 15:39:10.948,701, 656, 126, -3, 27, 40, -5, 5, 3, 980, 928, 139,∮
2025-03-12 15:39:11.002,840, 391, 239, -34, 29, 18, -5, 6, 4, 970, 900, 66,∮
2025-03-12 15:39:11.053,556, 515, 638, -24, -19, -46, -5, 5, 4, 949, 917, 47,∮
2025-03-12 15:39:11.111,736, 613, 514, 48, -11, -13, -5, 5, 4, 962, 933, 81,∮
2025-03-12 15:39:11.167,822, 925, 143, 23, 37, 46, -6, 7, 4, 977, 932, 88,∮
2025-03-12 15:39:11.220,739, 331, 441, -15, 34, 31, -4, 6, 3, 977, 925, 68,∮
2025-03-12 15:39:11.272,948, 225, 414, 5, 33, -48, -3, 6, 2, 946, 873, 70,∮
2025-03-12 15:39:11.327,712, 473, 685, -36, 46, -38, -5, 7, -1, 907, 864, 66,∮
2025-03-12 15:39:11.579,710, 540, 488, 24, -25, -34, -4, 1, 1, 720, 547, 79,∂
2025-03-12 15:39:11.637,708, 543, 476, 27, -26, -36, -4, 1, 2, 701, 549, 80,∂
2025-03-12 15:39:11.688,683, 578, 447, 25, -23, -50, -6, 0, 1, 669, 524, 67,∂
2025-03-12 15:39:11.748,693, 638, 383, 11, -37, -39, -5, -2, 4, 788, 556, 76,∂
2025-03-12 15:39:11.802,539, 760, 417, -16, -3, 11, -7, -2, 5, 870, 595, 28,∂
2025-03-12 15:39:11.858,615, 676, 320, -30, 15, 58, -4, -2, 9, 917, 726, 78,∂
2025-03-12 15:39:11.907,729, 545, 462, -5, 6, 59, -5, 0, 4, 931, 778, 85,∂
2025-03-12 15:39:11.958,861, 466, 367, -8, 11, 22, -5, 4, 4, 935, 804, 58,∂
2025-03-12 15:39:12.013,686, 500, 509, -14, 10, 12, -5, 5, 1, 940, 815, 62,∂
2025-03-12 15:39:12.068,729, 520, 487, 0, -3, 13, -4, 2, 4, 943, 831, 80,∂
2025-03-12 15:39:12.121,785, 498, 342, -14, -3, 6, -4, 5, 3, 945, 841, 81,∂
2025-03-12 15:39:12.168,651, 504, 498, -13, 4, -11, -2, 3, 4, 947, 856, 68,∂
2025-03-12 15:39:12.227,567, 491, 617, 8, -40, 0, -5, 5, 4, 949, 874, 61,∂
2025-03-12 15:39:12.274,843, 227, 384, 2, 1, -8, -6, 4, 4, 961, 929, 53,∂
2025-03-12 15:39:12.328,541, 608, 591, 32, 2, 25, -4, 2, 6, 972, 924, 73,∂
2025-03-12 15:39:12.383,612, 767, 360, 4, 27, 24, -6, 3, 5, 974, 913, 85,∂
2025-03-12 15:39:12.435,588, 444, 214, -70, 28, -4, -4, 4, 5, 962, 904, 55,∂
2025-03-12 15:39:12.488,554, 911, 357, -22, -34, 3, -4, 5, 5, 975, 950, 86,∂
2025-03-12 15:39:12.538,957, 446, 334, 26, 1, -10, -5, 6, 3, 969, 941, 74,∂
2025-03-12 15:39:12.848,541, 703, 523, -17, -21, -80, -4, -2, 0, 777, 587, 37,∇
2025-03-12 15:39:12.911,516, 709, 543, -18, -26, -77, -4, -2, 0, 784, 595, 37,∇
2025-03-12 15:39:12.961,568, 819, 378, -39, -5, -64, -7, -4, 4, 841, 715, 60,∇
2025-03-12 15:39:13.019,316, 917, 483, 36, 14, 60, -5, -6, 3, 857, 724, 281,∇
2025-03-12 15:39:13.069,510, 597, 430, 14, 21, 158, -6, -4, 2, 848, 711, 156,∇
2025-03-12 15:39:13.133,759, 298, 474, 46, -11, 70, -6, -1, 3, 835, 685, 72,∇
2025-03-12 15:39:13.185,694, 641, 273, 4, 21, 27, -5, -2, 4, 836, 620, 84,∇
2025-03-12 15:39:13.238,692, 514, 480, -3, -1, 12, -5, 1, 3, 848, 627, 49,∇
2025-03-12 15:39:13.289,936, 700, 581, 0, -13, -2, -6, 1, 3, 865, 637, 63,∇
2025-03-12 15:39:13.341,677, 386, 394, -26, 5, -8, -3, 4, 3, 878, 706, 83,∇
2025-03-12 15:39:13.399,774, 662, 404, -22, -1, -6, -5, 2, 2, 894, 760, 36,∇
2025-03-12 15:39:13.452,630, 593, 543, -16, -4, -6, -3, 2, 4, 914, 801, 62,∇
2025-03-12 15:39:13.502,574, 536, 530, 4, -31, 4, -4, 2, 3, 924, 817, 52,∇
2025-03-12 15:39:13.557,918, 612, 323, -11, -2, -9, -5, 2, 3, 951, 904, 58,∇
2025-03-12 15:39:13.611,621, 603, 344, -24, -9, 38, -4, 3, 6, 974, 941, 70,∇
2025-03-12 15:39:13.661,564, 369, 589, 66, 0, 7, -7, 3, 5, 977, 923, 61,∇
2025-03-12 15:39:13.718,1249, 816, -1, -19, 51, 32, -5, 3, 3, 972, 907, 63,∇
2025-03-12 15:39:13.768,760, 79, 519, -22, 20, -76, -5, 5, 0, 949, 881, 58,∇
2025-03-12 15:39:13.828,1059, 615, 562, -12, -28, -42, -5, 3, 2, 960, 916, 78,∇
2025-03-12 15:39:13.882,482, 986, 78, -69, 21, 80, -5, 5, 4, 978, 946, 83,∇
2025-03-12 15:39:13.935,796, 296, 545, 5, 21, 14, -4, 5, 3, 973, 913, 47,∇
2025-03-12 15:39:13.985,711, 449, 464, 4, 54, -55, -4, 4, 0, 943, 843, 90,∇
2025-03-12 15:39:14.290,753, 516, 415, -6, 1, -2, -6, 4, 3, 916, 772, 47,∆
2025-03-12 15:39:14.349,744, 507, 437, -6, 2, -2, -4, 5, 2, 917, 776, 80,∆
2025-03-12 15:39:14.400,697, 518, 517, -4, -6, 3, -5, 4, 2, 923, 784, 81,∆
2025-03-12 15:39:14.451,806, 504, 406, -5, -9, -3, -6, 6, 0, 924, 789, 60,∆
2025-03-12 15:39:14.501,712, 508, 526, -10, 4, -4, -4, 4, 4, 929, 784, 61,∆
2025-03-12 15:39:14.558,762, 524, 423, 2, -4, 2, -5, 4, 2, 932, 789, 68,∆
2025-03-12 15:39:14.610,738, 504, 488, -1, -5, 2, -5, 5, 1, 939, 811, 59,∆
2025-03-12 15:39:14.660,971, 408, 441, -19, -15, -12, -5, 6, 3, 956, 873, 58,∆
2025-03-12 15:39:14.718,568, 474, 466, 24, 1, -14, -4, 5, 5, 966, 883, 53,∆
2025-03-12 15:39:14.768,1061, 759, 163, -15, 32, 21, -4, 5, 4, 966, 871, 61,∆
2025-03-12 15:39:14.827,781, 647, 738, -21, -16, 53, -4, 4, 3, 977, 941, 75,∆
2025-03-12 15:39:14.877,679, 567, 414, 17, 3, 6, -5, 7, 2, 966, 925, 81,∆
2025-03-12 15:39:14.934,551, 533, 307, 8, 14, -75, -5, 5, 4, 944, 865, 107,∆
2025-03-12 15:39:14.988,976, 264, 638, 36, -16, -9, -4, 4, 5, 968, 924, 155,∆
2025-03-12 15:39:15.038,747, 341, 336, 9, 33, 48, -4, 4, 6, 979, 928, 53,∆
2025-03-12 15:39:15.087,931, 215, 261, -7, 39, -43, -4, 6, 1, 962, 839, 68,∆
2025-03-12 15:39:15.398,742, 508, 453, 1, -5, 3, -4, 4, 3, 902, 724, 55,π
2025-03-12 15:39:15.447,750, 500, 454, 1, -4, 2, -5, 5, 0, 904, 729, 81,π
2025-03-12 15:39:15.500,739, 503, 444, -4, -1, 0, -5, 4, 1, 912, 748, 67,π
2025-03-12 15:39:15.551,728, 528, 473, -3, -2, -2, -5, 4, 1, 916, 763, 39,π
2025-03-12 15:39:15.601,735, 517, 475, -4, -2, 2, -4, 6, 4, 931, 798, 85,π
2025-03-12 15:39:15.651,741, 507, 465, -5, 1, 0, -5, 4, 3, 934, 807, 61,π
2025-03-12 15:39:15.701,730, 512, 451, -4, -1, 0, -4, 5, 2, 940, 818, 55,π
2025-03-12 15:39:15.757,762, 482, 469, -1, -2, 0, -5, 5, 2, 944, 834, 59,π
2025-03-12 15:39:15.810,729, 516, 475, 1, 2, -1, -5, 4, 2, 943, 824, 71,π
2025-03-12 15:39:15.860,763, 509, 446, -1, -1, -1, -5, 5, 2, 943, 811, 53,π
2025-03-12 15:39:15.913,716, 499, 469, -3, 6, -4, -4, 6, 2, 945, 815, 84,π
2025-03-12 15:39:15.967,718, 509, 515, 8, -9, 5, -4, 4, 4, 946, 779, 57,π
2025-03-12 15:39:16.017,678, 491, 455, -17, -6, -9, -4, 6, 2, 946, 821, 65,π
2025-03-12 15:39:16.068,1197, 335, 615, 61, -17, 3, -5, 5, 4, 964, 924, 67,π
2025-03-12 15:39:16.124,714, 409, 563, 4, -19, 40, -4, 4, 4, 974, 931, 240,π
2025-03-12 15:39:16.178,707, 449, 476, 47, -6, -4, -8, 6, 4, 967, 893, 83,π
2025-03-12 15:39:16.238,533, 450, 442, -40, 51, -53, -5, 2, 3, 955, 885, 68,π
2025-03-12 15:39:16.287,789, 683, 378, 20, -5, -9, -3, 3, 3, 964, 919, 88,π
2025-03-12 15:39:16.338,586, 622, 496, -39, 19, 39, -5, 5, 4, 978, 933, 61,π
2025-03-12 15:39:16.390,786, 338, 414, -24, 24, 13, -4, 7, 1, 971, 896, 62,π
2025-03-12 15:39:16.450,715, 633, 454, -31, 0, -24, -4, 6, 3, 964, 917, 57,π
2025-03-12 15:39:16.507,2392, 77, -16, -22, -23, -18, -4, 5, 5, 973, 937, 63,π
2025-03-12 15:39:16.561,962, 849, 217, 52, 20, 32, -6, 6, 6, 981, 927, 89,π
2025-03-12 15:39:16.610,811, 439, 328, -22, 12, 24, -5, 6, 3, 979, 935, 56,π
2025-03-12 15:39:16.668,936, 467, 79, 8, 34, -39, -4, 5, 4, 960, 910, 38,π
2025-03-12 15:39:16.719,498, 547, 919, -18, 52, -27, -6, 6, 0, 938, 825, 81,π
2025-03-12 15:39:16.994,718, 567, 477, 39, 3, -5, -3, 1, 1, 821, 73, 347,θ
2025-03-12 15:39:17.048,722, 581, 462, 37, 1, -3, -4, 5, 2, 814, 69, 352,θ
2025-03-12 15:39:17.103,620, 676, 372, -36, -3, -13, -4, 1, 2, 829, 59, 389,θ
2025-03-12 15:39:17.155,729, 551, 418, -6, 2, -5, -5, 1, 0, 837, 57, 428,θ
2025-03-12 15:39:17.208,692, 594, 447, -1, 1, -1, -4, 3, -2, 841, 74, 445,θ
2025-03-12 15:39:17.258,695, 588, 420, -23, -3, 4, -5, 2, 0, 870, 396, 534,θ
2025-03-12 15:39:17.315,729, 553, 442, -30, -1, 1, -5, 4, 1, 900, 636, 496,θ
2025-03-12 15:39:17.369,702, 554, 456, -23, 1, 4, -4, 3, 0, 919, 709, 408,θ
2025-03-12 15:39:17.421,735, 539, 430, -24, -1, 5, -3, 3, 3, 929, 778, 278,θ
2025-03-12 15:39:17.478,803, 492, 516, -20, 1, 12, -4, 6, -1, 941, 840, 264,θ
2025-03-12 15:39:17.532,662, 503, 523, -20, 2, 6, -3, 4, 1, 945, 860, 73,θ
2025-03-12 15:39:17.585,762, 526, 488, -15, -7, 5, -5, 3, 2, 948, 882, 160,θ
2025-03-12 15:39:17.638,699, 494, 485, -14, -21, -3, -3, 5, 1, 952, 895, 151,θ
2025-03-12 15:39:17.691,1311, 298, 353, -45, -9, -12, -6, 6, 1, 958, 925, 87,θ
2025-03-12 15:39:17.749,614, 261, 542, 35, -2, -21, -4, 4, 3, 962, 924, 61,θ
2025-03-12 15:39:17.803,1065, 798, 186, 24, 29, 49, -2, 2, 3, 975, 933, 42,θ
2025-03-12 15:39:17.858,769, 479, 650, -18, 5, 20, -3, 7, 1, 973, 940, 55,θ
2025-03-12 15:39:17.912,369, 627, 839, -8, -24, -37, -4, 3, 2, 965, 946, 115,θ
2025-03-12 15:39:17.966,883, 750, 328, 3, -12, 4, -4, 4, 5, 978, 957, 72,θ
2025-03-12 15:39:18.018,634, 575, 471, 20, 16, 37, -6, 5, 3, 983, 950, 54,θ
2025-03-12 15:39:18.067,728, 355, 294, -41, 29, 16, -4, 6, 3, 973, 919, 54,θ
2025-03-12 15:39:18.128,614, 470, 836, 36, -25, -24, -4, 6, 0, 963, 903, 45,θ
2025-03-12 15:39:18.183,465, 697, 216, -6, -14, 30, -5, 4, 3, 979, 954, 69,θ
2025-03-12 15:39:18.233,903, 219, 291, 1, 23, -14, -5, 6, 3, 972, 936, 44,θ
2025-03-12 15:39:18.288,652, 537, 633, -41, 65, -37, -4, 5, -1, 938, 743, 82,θ
2025-03-12 15:39:18.587,719, 520, 517, -7, 1, -1, -3, 2, 3, 887, 666, 55,λ
2025-03-12 15:39:18.638,710, 520, 513, -8, 0, 0, -2, 6, 2, 886, 655, 40,λ
2025-03-12 15:39:18.690,709, 504, 502, -4, -3, 1, -5, 4, 1, 889, 663, 64,λ
2025-03-12 15:39:18.738,722, 504, 492, 2, -4, 1, -4, 4, 1, 888, 690, 55,λ
2025-03-12 15:39:18.797,732, 502, 480, -3, -1, -1, -3, 5, 3, 887, 699, 70,λ
2025-03-12 15:39:18.839,718, 501, 501, 0, 0, 0, -5, 3, 2, 888, 702, 59,λ
2025-03-12 15:39:18.899,740, 499, 468, -4, -2, -3, -5, 4, 0, 883, 709, 81,λ
2025-03-12 15:39:18.950,715, 511, 508, -2, -3, -1, -5, 5, 1, 881, 714, 64,λ
2025-03-12 15:39:19.000,734, 519, 500, -1, -4, 5, -4, 4, 2, 895, 755, 85,λ
2025-03-12 15:39:19.050,700, 496, 508, 1, -4, 5, -5, 4, 2, 904, 782, 40,λ
2025-03-12 15:39:19.100,751, 507, 436, 0, -3, 5, -4, 6, 1, 908, 815, 56,λ
2025-03-12 15:39:19.157,730, 518, 473, -6, -2, 3, -4, 3, 3, 924, 838, 87,λ
2025-03-12 15:39:19.210,780, 542, 419, -33, 2, -11, -5, 5, 2, 946, 913, 67,λ
2025-03-12 15:39:19.264,857, 153, 675, 28, -18, -5, -4, 5, 3, 965, 947, 63,λ
2025-03-12 15:39:19.317,953, 826, 509, 31, -8, 37, -5, 5, 4, 977, 947, 72,λ
2025-03-12 15:39:19.367,763, 814, 299, 15, 17, 33, -6, 6, 3, 976, 942, 58,λ
2025-03-12 15:39:19.428,635, 234, 394, -21, 26, -38, -5, 6, 2, 965, 931, 62,λ
2025-03-12 15:39:19.481,835, 485, 622, -2, -49, 17, -5, 3, 4, 970, 943, 44,λ
2025-03-12 15:39:19.534,821, 829, -104, 18, 19, 13, -3, 5, 4, 978, 937, 71,λ
2025-03-12 15:39:19.588,839, 332, 382, 6, 26, 15, -4, 8, 1, 968, 869, 53,λ
2025-03-12 15:39:19.638,640, 478, 509, -18, 48, -40, -5, 4, 1, 940, 821, 77,λ
2025-03-12 15:39:19.699,560, 495, 665, -5, -15, -8, -4, 7, -3, 933, 820, 63,λ
2025-03-12 15:39:19.747,764, 523, 489, 4, -22, 5, -6, 5, 0, 923, 815, 53,λ
2025-03-12 15:39:19.800,772, 473, 484, 0, -7, 1, -5, 4, 1, 923, 812, 44,λ
2025-03-12 15:39:19.850,738, 468, 500, -4, 0, 0, -5, 6, 0, 926, 816, 52,λ
2025-03-12 15:39:19.900,735, 471, 528, -2, -2, -3, -5, 4, 2, 926, 806, 70,λ
2025-03-12 15:39:19.950,712, 500, 506, -1, -5, 2, -5, 6, 0, 927, 808, 90,λ
2025-03-12 15:39:20.655,730, 472, 493, 1, -2, -2, -2, 6, 1, 913, 793, 58,μ
2025-03-12 15:39:20.710,743, 479, 488, 1, -1, -2, -4, 5, 1, 912, 792, 63,μ
2025-03-12 15:39:20.758,723, 491, 497, -1, 0, 0, -4, 7, 0, 913, 792, 65,μ
2025-03-12 15:39:20.810,741, 488, 502, 0, -2, 0, -3, 5, 3, 913, 796, 78,μ
2025-03-12 15:39:20.860,728, 486, 506, 3, -4, 0, -2, 4, 3, 915, 797, 82,μ
2025-03-12 15:39:20.910,750, 484, 479, 0, -1, 2, -5, 6, 3, 913, 798, 68,μ
2025-03-12 15:39:20.964,738, 486, 513, -2, -1, 1, -4, 5, 4, 916, 805, 69,μ
2025-03-12 15:39:21.018,746, 470, 479, -3, -2, 1, -4, 7, 3, 923, 813, 53,μ
2025-03-12 15:39:21.065,741, 486, 494, -3, -2, 1, -5, 7, 0, 932, 828, 85,μ
2025-03-12 15:39:21.119,746, 493, 506, -3, -3, 2, -4, 5, 3, 937, 834, 59,μ
2025-03-12 15:39:21.168,763, 470, 465, -1, -3, -1, -3, 5, 3, 941, 849, 39,μ
2025-03-12 15:39:21.218,732, 478, 488, -1, 2, -1, -5, 4, 4, 942, 866, 84,μ
2025-03-12 15:39:21.278,723, 474, 517, -7, -2, -1, -4, 7, 3, 945, 874, 61,μ
2025-03-12 15:39:21.328,780, 405, 483, 14, 13, 3, -8, 7, 1, 946, 851, 66,μ
2025-03-12 15:39:21.382,719, 526, 559, 21, 15, 31, -3, 6, 1, 947, 764, 63,μ
2025-03-12 15:39:21.433,736, 497, 505, 13, 19, 25, -4, 7, 0, 947, 729, 59,μ
2025-03-12 15:39:21.488,775, 404, 461, -32, 9, 3, -5, 8, 0, 955, 850, 64,μ
2025-03-12 15:39:21.537,725, 514, 637, -48, -25, -27, -4, 6, 1, 963, 939, 76,μ
2025-03-12 15:39:21.599,448, 477, 452, -47, -20, -13, -4, 6, 3, 969, 955, 65,μ
2025-03-12 15:39:21.649,744, 262, 564, 41, -18, -23, -4, 6, 2, 973, 953, 58,μ
2025-03-12 15:39:21.707,759, 449, 574, 28, 11, 29, -5, 5, 4, 977, 942, 87,μ
2025-03-12 15:39:21.760,802, 447, 423, -44, 12, 23, -5, 5, 4, 979, 943, 49,μ
2025-03-12 15:39:21.817,636, 337, 611, -18, -22, -18, -4, 7, 4, 972, 949, 76,μ
2025-03-12 15:39:21.868,802, 663, 293, 41, 13, 15, -5, 6, 5, 977, 942, 67,μ
2025-03-12 15:39:21.917,746, 543, 306, -24, 9, 14, -4, 6, 4, 977, 944, 84,μ
2025-03-12 15:39:21.973,862, 452, 155, 2, 24, -22, -5, 5, 4, 964, 932, 48,μ
2025-03-12 15:39:22.027,612, 550, 731, 1, 20, -12, -5, 6, 0, 943, 898, 86,μ
2025-03-12 15:39:22.271,753, 494, 476, -5, -2, -2, -4, 4, 1, 863, 513, 54,ω
2025-03-12 15:39:22.328,751, 488, 477, -5, -2, -3, -4, 7, 2, 865, 512, 60,ω
2025-03-12 15:39:22.381,733, 466, 509, -1, -3, -5, -4, 4, 1, 871, 586, 65,ω
2025-03-12 15:39:22.432,737, 489, 490, 3, -4, 0, -5, 6, 2, 878, 653, 52,ω
2025-03-12 15:39:22.483,747, 487, 471, 1, -2, 1, -4, 5, 1, 875, 661, 43,ω
2025-03-12 15:39:22.533,734, 489, 488, -3, 0, 0, -4, 4, 3, 873, 672, 87,ω
2025-03-12 15:39:22.584,733, 469, 514, -5, -5, -2, -6, 6, 1, 884, 699, 84,ω
2025-03-12 15:39:22.638,739, 503, 471, -9, -1, -4, -5, 4, 3, 891, 705, 41,ω
2025-03-12 15:39:22.690,726, 494, 488, -4, -6, -4, -5, 4, 4, 896, 718, 79,ω
2025-03-12 15:39:22.737,771, 506, 479, -2, -3, -1, -5, 5, 2, 903, 745, 76,ω
2025-03-12 15:39:22.799,737, 491, 491, -3, 0, 3, -7, 6, 3, 915, 764, 46,ω
2025-03-12 15:39:22.849,786, 475, 480, 4, 2, 1, -6, 5, 3, 915, 796, 62,ω
2025-03-12 15:39:22.902,754, 507, 416, -22, 6, -4, -4, 5, 3, 918, 824, 77,ω
2025-03-12 15:39:22.954,664, 492, 615, -23, 1, -6, -5, 5, 3, 926, 839, 61,ω
2025-03-12 15:39:23.007,815, 386, 460, -19, -12, 4, -4, 7, 2, 942, 887, 78,ω
2025-03-12 15:39:23.061,650, 379, 614, 18, 10, 11, -7, 4, 5, 965, 904, 85,ω
2025-03-12 15:39:23.115,773, 697, 252, 6, 15, 47, -5, 6, 5, 974, 912, 43,ω
2025-03-12 15:39:23.169,676, 198, 576, -12, -8, 9, -4, 8, 1, 969, 932, 71,ω
2025-03-12 15:39:23.218,718, 333, 640, 8, -13, -21, -6, 5, 4, 970, 931, 56,ω
2025-03-12 15:39:23.274,871, 741, 287, -19, 11, 42, -5, 7, 4, 976, 930, 66,ω
2025-03-12 15:39:23.324,811, 291, 508, -20, -22, -8, -4, 7, 3, 976, 936, 66,ω
2025-03-12 15:39:23.381,917, 504, 219, 8, 27, -26, -4, 6, 5, 954, 920, 64,ω
2025-03-12 15:39:23.432,561, 509, 786, -3, 22, -6, -5, 7, 1, 951, 873, 72,ω
2025-03-12 15:39:23.697,748, 477, 468, -4, -1, -1, -5, 5, 3, 888, 669, 52,!
2025-03-12 15:39:23.750,745, 470, 476, -3, -1, -2, -3, 7, 2, 887, 686, 64,!
2025-03-12 15:39:23.800,753, 489, 468, -3, -2, -4, -5, 5, 3, 895, 711, 69,!
2025-03-12 15:39:23.851,751, 516, 498, -1, -3, -5, -2, 4, 4, 905, 747, 43,!
2025-03-12 15:39:23.908,747, 498, 469, -9, -2, -5, -5, 5, 2, 914, 783, 84,!
2025-03-12 15:39:23.960,720, 493, 494, -1, -4, 0, -5, 4, 4, 921, 792, 34,!
2025-03-12 15:39:24.015,766, 475, 450, -3, -4, 1, -6, 6, 3, 932, 810, 68,!
2025-03-12 15:39:24.065,733, 500, 496, 2, -2, -1, -4, 6, 3, 937, 831, 83,!
2025-03-12 15:39:24.118,762, 494, 496, -1, -4, -1, -4, 3, 4, 937, 829, 72,!
2025-03-12 15:39:24.167,749, 480, 494, -7, 2, -2, -5, 6, 3, 940, 838, 72,!
2025-03-12 15:39:24.218,766, 493, 462, -1, -2, 0, -6, 4, 4, 940, 846, 83,!
2025-03-12 15:39:24.267,737, 488, 508, -3, 2, -3, -5, 5, 4, 940, 842, 49,!
2025-03-12 15:39:24.327,733, 486, 485, -6, -2, -3, -4, 5, 4, 938, 843, 52,!
2025-03-12 15:39:24.380,740, 489, 490, -3, -3, -2, -5, 5, 3, 938, 850, 88,!
2025-03-12 15:39:24.433,765, 492, 491, -7, -6, 1, -6, 4, 3, 940, 860, 47,!
2025-03-12 15:39:24.484,738, 521, 457, -6, -13, -3, -7, 7, 2, 944, 882, 84,!
2025-03-12 15:39:24.538,715, 408, 550, -13, -25, -1, -5, 4, 5, 950, 917, 79,!
2025-03-12 15:39:24.598,767, 384, 596, 1, -11, -8, -4, 4, 4, 966, 946, 90,!
2025-03-12 15:39:24.651,1147, 516, 264, 52, 23, 31, -6, 6, 6, 978, 942, 68,!
2025-03-12 15:39:24.700,758, 407, 207, 3, 27, 31, -5, 4, 4, 981, 935, 72,!
2025-03-12 15:39:24.750,797, 189, 766, -3, 1, -1, -5, 7, 5, 970, 929, 87,!
2025-03-12 15:39:24.808,740, 453, 375, -26, 44, -27, -5, 7, 2, 958, 915, 60,!
2025-03-12 15:39:24.863,624, 523, 617, 1, -11, -2, -5, 5, 1, 951, 902, 62,!
2025-03-12 15:39:24.913,788, 480, 457, 4, -19, 9, -4, 5, 2, 953, 904, 63,!
2025-03-12 15:39:24.966,793, 462, 448, -3, -2, -1, -5, 7, 2, 955, 900, 69,!
2025-03-12 15:39:25.015,726, 479, 529, 1, 4, 3, -4, 5, 3, 956, 897, 83,!
2025-03-12 15:39:25.068,771, 469, 476, 2, 0, 5, -4, 7, 2, 957, 894, 54,!
2025-03-12 15:39:25.117,830, 488, 376, -3, 20, 4, -4, 7, 4, 959, 872, 60,!
2025-03-12 15:39:25.168,173, 497, 924, 4, -2, 42, -4, 6, 1, 963, 861, 84,!
2025-03-12 15:39:25.217,1057, 231, -77, -16, -4, 5, -5, 7, 4, 971, 930, 59,!
2025-03-12 15:39:25.278,901, 436, 861, 37, -1, 7, -3, 7, 2, 966, 904, 46,!
2025-03-12 15:39:25.334,648, 386, 193, -51, 91, -38, -5, 10, -1, 946, 823, 58,!
2025-03-12 15:39:25.387,431, 516, 737, 4, -22, 3, -3, 7, -1, 944, 810, 61,!
2025-03-12 15:39:25.678,718, 463, 507, -5, -7, -10, -4, 6, 2, 910, 787, 60,@
2025-03-12 15:39:25.733,712, 461, 521, -2, -8, -10, -6, 7, 1, 910, 786, 57,@
2025-03-12 15:39:25.788,717, 506, 496, -6, -16, -5, -5, 5, 3, 915, 816, 80,@
2025-03-12 15:39:25.838,749, 489, 499, -2, -4, -1, -4, 4, 2, 924, 834, 84,@
2025-03-12 15:39:25.896,744, 479, 500, -2, -2, 0, -4, 4, 2, 930, 842, 46,@
2025-03-12 15:39:25.943,739, 483, 487, 2, 0, -4, -6, 5, 2, 931, 855, 79,@
2025-03-12 15:39:25.998,729, 495, 491, 1, -1, -3, -5, 4, 3, 933, 858, 73,@
2025-03-12 15:39:26.047,752, 473, 502, -6, 0, 1, -5, 6, 2, 937, 864, 59,@
2025-03-12 15:39:26.101,753, 495, 488, 1, -4, 2, -6, 6, 3, 940, 880, 66,@
2025-03-12 15:39:26.150,719, 490, 470, 14, -4, 9, -3, 4, 4, 947, 887, 72,@
2025-03-12 15:39:26.208,735, 512, 457, 2, -2, -3, -6, 4, 4, 946, 883, 84,@
2025-03-12 15:39:26.249,754, 475, 491, -2, 4, -3, -6, 6, 4, 947, 890, 57,@
2025-03-12 15:39:26.308,782, 498, 464, 6, -9, 15, -3, 5, 4, 952, 894, 62,@
2025-03-12 15:39:26.357,772, 474, 432, -5, 9, -7, -5, 5, 3, 951, 894, 69,@
2025-03-12 15:39:26.408,705, 507, 571, -2, -3, 9, -5, 5, 4, 954, 896, 60,@
2025-03-12 15:39:26.460,739, 461, 420, 5, -7, 6, -5, 6, 3, 955, 895, 84,@
2025-03-12 15:39:26.514,653, 509, 551, -5, -14, 4, -6, 4, 4, 958, 906, 84,@
2025-03-12 15:39:26.567,763, 329, 488, -6, -9, -26, -7, 6, 3, 965, 924, 65,@
2025-03-12 15:39:26.618,1250, 680, 362, 11, 17, 10, -6, 6, 4, 975, 927, 60,@
2025-03-12 15:39:26.678,754, 584, 537, -50, 17, 35, -5, 6, 4, 977, 945, 57,@
2025-03-12 15:39:26.731,688, 460, 681, -7, -15, -17, -6, 5, 4, 972, 947, 63,@
2025-03-12 15:39:26.782,874, 737, 394, 7, 11, 14, -4, 4, 3, 978, 943, 50,@
2025-03-12 15:39:26.838,833, 634, 347, -9, 9, 25, -5, 7, 4, 977, 936, 80,@
2025-03-12 15:39:26.888,713, 396, 461, -34, -13, 1, -6, 7, 5, 974, 941, 86,@
2025-03-12 15:39:26.948,731, 415, 513, -34, -17, -36, -5, 6, 5, 963, 950, 60,@
2025-03-12 15:39:26.999,959, 374, 577, 89, 28, -33, -5, 5, 7, 967, 928, 68,@
2025-03-12 15:39:27.048,934, 669, 210, -20, 38, 69, -3, 4, 7, 975, 934, 70,@
2025-03-12 15:39:27.107,794, 18, 704, 18, -27, -9, -6, 8, 1, 967, 925, 48,@
2025-03-12 15:39:27.165,508, 457, 764, -17, 71, -48, -5, 7, -2, 935, 850, 104,@
2025-03-12 15:39:27.428,716, 478, 528, 10, -12, -2, -4, 5, 2, 853, 541, 73,#
2025-03-12 15:39:27.481,728, 478, 517, 12, -12, -2, -4, 8, 1, 855, 552, 64,#
2025-03-12 15:39:27.538,764, 509, 444, 0, -4, 1, -5, 4, 5, 871, 623, 58,#
2025-03-12 15:39:27.587,729, 493, 480, -5, 2, 0, -4, 4, 5, 900, 712, 41,#
2025-03-12 15:39:27.637,750, 507, 521, -7, -6, 5, -4, 5, 4, 919, 762, 63,#
2025-03-12 15:39:27.687,754, 475, 443, -7, 2, 0, -5, 4, 4, 930, 812, 78,#
2025-03-12 15:39:27.738,729, 472, 525, -2, -6, 4, -4, 6, 2, 938, 826, 68,#
2025-03-12 15:39:27.796,786, 468, 460, -1, -1, -2, -4, 8, 2, 941, 837, 57,#
2025-03-12 15:39:27.840,739, 491, 499, 1, -1, 1, -4, 7, 4, 942, 840, 66,#
2025-03-12 15:39:27.899,740, 469, 467, -1, -1, 1, -5, 5, 3, 945, 846, 74,#
2025-03-12 15:39:27.948,739, 455, 489, -4, 2, -2, -5, 4, 4, 947, 844, 48,#
2025-03-12 15:39:28.000,759, 486, 495, -3, -5, -2, -5, 6, 3, 947, 853, 82,#
2025-03-12 15:39:28.058,738, 451, 482, -14, 2, -10, -5, 4, 5, 948, 865, 66,#
2025-03-12 15:39:28.108,604, 432, 776, -1, -42, 17, -4, 3, 7, 956, 888, 72,#
2025-03-12 15:39:28.164,1188, 887, 330, 13, 46, 43, -4, 6, 4, 965, 869, 80,#
2025-03-12 15:39:28.218,922, 374, 400, -13, 30, 27, -4, 7, 3, 953, 791, 94,#
2025-03-12 15:39:28.268,579, 648, 892, 15, -46, -21, -4, 6, 3, 944, 868, 99,#
2025-03-12 15:39:28.328,758, 276, 743, 3, -26, -15, -6, 6, 3, 964, 919, 69,#
2025-03-12 15:39:28.382,1307, 304, 734, -30, 41, 41, -6, 6, 6, 973, 895, 50,#
2025-03-12 15:39:28.438,770, 423, 316, -39, 25, 15, -4, 8, 4, 963, 876, 74,#
2025-03-12 15:39:28.489,508, 519, 777, -5, -38, -54, -1, 6, 2, 949, 888, 43,#
2025-03-12 15:39:28.546,1238, 842, 384, 30, -31, 11, -6, 6, 3, 971, 947, 84,#
2025-03-12 15:39:28.598,696, 303, 554, 43, 0, 17, -6, 7, 6, 968, 922, 92,#
2025-03-12 15:39:28.649,440, 417, 464, 18, 48, -19, -5, 6, 4, 946, 808, 73,#
2025-03-12 15:39:28.699,893, 443, 20, -23, 0, 2, -4, 4, 5, 967, 935, 69,#
2025-03-12 15:39:28.750,728, 220, 505, 6, 1, 38, -7, 6, 3, 967, 921, 95,#
2025-03-12 15:39:28.808,608, 556, 314, -3, 91, -58, -5, 7, 0, 933, 787, 99,#
2025-03-12 15:39:29.115,745, 490, 511, 0, -7, 5, -5, 6, 1, 859, 677, 86,%
2025-03-12 15:39:29.164,751, 486, 494, 1, -8, 4, -2, 7, 3, 861, 674, 72,%
2025-03-12 15:39:29.217,743, 493, 456, -1, -1, 3, -5, 5, 3, 866, 679, 79,%
2025-03-12 15:39:29.268,745, 490, 467, -2, -5, 3, -5, 6, 4, 883, 708, 90,%
2025-03-12 15:39:29.318,752, 498, 452, -5, -1, -1, -4, 5, 2, 893, 723, 44,%
2025-03-12 15:39:29.373,744, 487, 470, -10, 2, -3, -3, 5, 3, 898, 744, 85,%
2025-03-12 15:39:29.430,757, 486, 469, -10, -2, -1, -4, 5, 2, 907, 758, 64,%
2025-03-12 15:39:29.480,763, 483, 473, -9, 1, 0, -6, 7, 3, 911, 779, 63,%
2025-03-12 15:39:29.531,710, 482, 519, 0, -1, -2, -4, 6, 3, 916, 800, 70,%
2025-03-12 15:39:29.582,835, 490, 457, 19, -11, 13, -5, 7, 3, 922, 830, 64,%
2025-03-12 15:39:29.631,694, 419, 444, 4, 1, 2, -5, 7, 2, 930, 847, 66,%
2025-03-12 15:39:29.688,729, 498, 519, -6, 0, -1, -4, 5, 4, 930, 843, 87,%
2025-03-12 15:39:29.738,761, 454, 403, -10, -17, 20, -5, 7, 2, 944, 866, 77,%
2025-03-12 15:39:29.799,631, 465, 485, -51, -5, -14, -6, 7, 3, 954, 919, 61,%
2025-03-12 15:39:29.849,765, 332, 391, -2, 1, -35, -5, 6, 6, 966, 940, 50,%
2025-03-12 15:39:29.899,915, 872, 483, -5, 12, 40, -6, 6, 6, 977, 952, 64,%
2025-03-12 15:39:29.949,609, 332, 710, -8, -3, 15, -5, 7, 4, 976, 955, 88,%
2025-03-12 15:39:30.012,882, 442, 333, 10, -1, -18, -6, 6, 6, 967, 952, 52,%
2025-03-12 15:39:30.065,690, 390, 694, 10, -30, 3, -5, 7, 5, 972, 952, 67,%
2025-03-12 15:39:30.114,744, 559, 328, 32, -2, 7, -7, 6, 6, 977, 946, 65,%
2025-03-12 15:39:30.167,965, 494, 164, 3, 35, 24, -6, 6, 6, 976, 912, 69,%
2025-03-12 15:39:30.218,868, 218, 658, -24, -2, 5, -6, 6, 4, 970, 912, 65,%
2025-03-12 15:39:30.277,705, 363, 579, -19, -23, -20, -4, 7, 4, 972, 934, 61,%
2025-03-12 15:39:30.330,883, 457, 106, 46, 2, -8, -6, 5, 6, 975, 929, 141,%
2025-03-12 15:39:30.381,704, 264, 767, -57, 7, 30, -7, 7, 5, 976, 944, 142,%
2025-03-12 15:39:30.438,947, 503, 83, 25, 19, -32, -5, 6, 5, 966, 930, 77,%
2025-03-12 15:39:30.740,740, 458, 502, 4, -6, -1, -5, 7, 2, 879, 624, 51,^
2025-03-12 15:39:30.788,750, 460, 496, 3, -7, 0, -5, 7, 4, 882, 637, 68,^
