Timestamp,Acc_X,Acc_Y,Acc_Z,Gyro_X,Gyro_Y,Gyro_Z,Mag_X,Mag_Y,Mag_Z,Force1,Force2,Force3,Letter
2025-03-12 12:24:37.717,597, 519, 599, -50, 2, -1, -13, 28, -19, 44, 206, 37,noise
2025-03-12 12:24:37.719,532, 657, 543, -3, 3, 13, -12, 25, -19, 44, 451, 42,noise
2025-03-12 12:24:37.721,597, 519, 599, -50, 2, -1, -13, 28, -19, 44, 206, 37,noise
2025-03-12 12:24:37.723,532, 657, 543, -3, 3, 13, -12, 25, -19, 44, 451, 42,noise
2025-03-12 12:24:37.724,597, 519, 599, -50, 2, -1, -13, 28, -19, 44, 206, 37,noise
2025-03-12 12:24:44.620,603, 516, 615, -3, 0, 1, -1, 4, -1, 946, 782, 530,A
2025-03-12 12:24:44.677,608, 506, 619, -1, -1, -1, -1, 5, -1, 945, 778, 519,A
2025-03-12 12:24:44.727,625, 554, 602, -2, 0, -2, 0, 4, 1, 941, 771, 506,A
2025-03-12 12:24:44.785,623, 545, 599, -5, 1, 1, 1, 4, 0, 938, 762, 491,A
2025-03-12 12:24:44.834,616, 513, 609, 2, 1, -1, 0, 3, 0, 936, 735, 456,A
2025-03-12 12:24:44.887,625, 533, 604, -1, -1, 0, 2, 5, 1, 937, 723, 453,A
2025-03-12 12:24:44.936,624, 541, 596, -1, 0, 0, -1, 5, 0, 939, 715, 466,A
2025-03-12 12:24:44.987,625, 525, 588, 0, 0, -2, -1, 4, 0, 937, 712, 464,A
2025-03-12 12:24:45.037,621, 549, 604, -3, 1, -1, 3, 3, 1, 933, 700, 439,A
2025-03-12 12:24:45.087,614, 532, 603, 1, -1, 0, -1, 5, -2, 938, 708, 449,A
2025-03-12 12:24:45.142,621, 536, 589, 0, 0, 0, -2, 6, 0, 939, 716, 465,A
2025-03-12 12:24:45.198,621, 541, 593, -1, 1, -2, -1, 6, -1, 935, 709, 462,A
2025-03-12 12:24:45.251,619, 514, 605, 1, -1, -4, -1, 3, -1, 935, 727, 485,A
2025-03-12 12:24:45.303,623, 557, 594, 0, -1, 0, -1, 4, 0, 931, 720, 470,A
2025-03-12 12:24:45.358,622, 541, 593, -1, 1, 0, -1, 4, -1, 935, 733, 481,A
2025-03-12 12:24:45.412,617, 535, 605, -3, -1, -2, 0, 4, 0, 935, 727, 475,A
2025-03-12 12:24:45.462,635, 537, 594, -1, -2, -2, 1, 5, 1, 933, 725, 469,A
2025-03-12 12:24:45.518,613, 529, 612, 0, -4, -11, 0, 3, 0, 938, 739, 493,A
2025-03-12 12:24:45.570,610, 561, 607, 9, -14, -3, 0, 3, 2, 936, 735, 486,A
2025-03-12 12:24:45.619,649, 601, 517, 18, -6, -8, 0, 4, 1, 941, 750, 518,A
2025-03-12 12:24:45.677,604, 642, 734, 26, -34, 4, -1, 3, 0, 945, 816, 561,A
2025-03-12 12:24:45.727,623, 644, 524, 62, -64, 14, -2, 1, 6, 953, 859, 668,A
2025-03-12 12:24:45.787,656, 573, 315, -17, 15, -1, -4, 2, 2, 959, 880, 722,A
2025-03-12 12:24:45.837,520, 512, 372, -48, 46, 17, -2, 3, 3, 968, 907, 739,A
2025-03-12 12:24:45.897,666, 435, 674, -47, 16, 20, -2, 5, 2, 973, 918, 720,A
2025-03-12 12:24:45.951,790, 439, 550, 26, -2, 17, -2, 5, 0, 978, 927, 764,A
2025-03-12 12:24:46.003,709, 596, 548, 38, -21, -4, -2, 6, 2, 979, 935, 794,A
2025-03-12 12:24:46.061,539, 570, 599, 41, -25, 18, -2, 5, 1, 980, 947, 818,A
2025-03-12 12:24:46.112,758, 537, 343, 7, -17, 0, -3, 4, 3, 984, 956, 824,A
2025-03-12 12:24:46.169,695, 551, 531, -3, -26, -3, -2, 5, 4, 982, 956, 812,A
2025-03-12 12:24:46.220,739, 585, 402, 3, -25, 3, -4, 5, 5, 983, 962, 834,A
2025-03-12 12:24:46.277,621, 523, 720, 19, -46, 12, -4, 5, 5, 985, 966, 840,A
2025-03-12 12:24:46.328,1026, 934, 8, 64, 17, 3, -4, 4, 8, 987, 960, 718,A
2025-03-12 12:24:46.385,823, 569, 312, -19, 41, 28, -5, 3, 7, 984, 945, 734,A
2025-03-12 12:24:46.437,438, 698, 850, -32, -39, -25, -5, 3, 5, 982, 957, 797,A
2025-03-12 12:24:46.487,817, 722, 107, 39, -5, 10, -4, 3, 8, 989, 967, 786,A
2025-03-12 12:24:46.547,761, 595, 321, 3, 44, 33, -4, 4, 5, 985, 963, 758,A
2025-03-12 12:24:46.603,381, 678, 736, -5, 13, -41, -4, 5, 6, 978, 950, 767,A
2025-03-12 12:24:46.661,1034, 553, 311, -7, -37, -1, -3, 4, 8, 986, 970, 710,A
2025-03-12 12:24:46.713,493, 407, 255, 4, 30, 35, -4, 5, 8, 986, 970, 818,A
2025-03-12 12:24:46.769,743, 519, 249, -61, 126, -61, -3, 3, 3, 976, 953, 776,A
2025-03-12 12:24:46.827,351, 553, 883, -38, 27, -31, -1, 3, 1, 963, 925, 745,A
2025-03-12 12:24:46.877,595, 600, 604, -2, -17, 7, 0, 2, 2, 963, 920, 735,A
2025-03-12 12:24:47.197,641, 561, 546, 14, -3, -15, -2, 5, 3, 961, 894, 717,B
2025-03-12 12:24:47.257,636, 601, 546, 14, -5, -14, -2, 2, 2, 959, 894, 716,B
2025-03-12 12:24:47.307,702, 619, 562, 16, -21, -12, -2, 3, 3, 954, 878, 720,B
2025-03-12 12:24:47.369,689, 651, 413, 12, -39, 3, -3, 2, 4, 955, 871, 684,B
2025-03-12 12:24:47.421,575, 584, 267, 9, -7, 27, -5, 2, 5, 953, 841, 623,B
2025-03-12 12:24:47.472,608, 486, 262, -11, 3, 18, -3, 0, 7, 955, 840, 600,B
2025-03-12 12:24:47.528,562, 485, 566, -33, 42, -1, -5, 5, 3, 957, 874, 604,B
2025-03-12 12:24:47.586,1188, 762, 904, 40, -24, -6, -3, 3, 4, 961, 894, 665,B
2025-03-12 12:24:47.638,429, 408, 551, 8, -9, 9, -2, 3, 5, 964, 911, 654,B
2025-03-12 12:24:47.688,732, 585, 348, -1, -26, 5, -2, 5, 5, 966, 926, 711,B
2025-03-12 12:24:47.747,930, -15, 64, -43, -16, -20, -4, 5, 4, 972, 941, 665,B
2025-03-12 12:24:47.803,973, 952, 415, 45, 21, 15, -4, 4, 7, 984, 942, 582,B
2025-03-12 12:24:47.855,752, 526, 209, 2, 27, 15, -3, 3, 7, 980, 928, 653,B
2025-03-12 12:24:47.907,694, 583, 547, -30, -40, -31, -4, 4, 5, 976, 937, 776,B
2025-03-12 12:24:47.967,678, 829, 298, 13, -12, 5, -3, 3, 6, 983, 964, 771,B
2025-03-12 12:24:48.020,635, 597, 409, -1, 3, 14, -3, 4, 8, 983, 965, 741,B
2025-03-12 12:24:48.074,817, 486, 232, -7, 8, -7, -4, 4, 7, 983, 963, 699,B
2025-03-12 12:24:48.127,477, 674, 423, 6, 10, 11, -3, 6, 5, 986, 959, 498,B
2025-03-12 12:24:48.174,835, 544, 101, 4, 22, 3, -4, 4, 7, 977, 925, 448,B
2025-03-12 12:24:48.233,860, 547, 142, -36, 67, -57, -2, 5, 4, 964, 915, 663,B
2025-03-12 12:24:48.288,389, 693, 715, -10, -6, -13, -1, 2, 2, 961, 920, 691,B
2025-03-12 12:24:48.338,639, 623, 475, 10, -34, 15, -1, 4, 3, 961, 912, 701,B
2025-03-12 12:24:48.600,614, 645, 451, 6, -12, -27, -3, 3, 4, 959, 883, 609,C
2025-03-12 12:24:48.662,629, 659, 447, 4, -14, -24, -2, 2, 6, 960, 880, 611,C
2025-03-12 12:24:48.716,575, 681, 400, -7, -8, -3, -2, -1, 8, 962, 889, 584,C
2025-03-12 12:24:48.768,623, 628, 410, 3, -9, 35, -3, 2, 6, 967, 912, 550,C
2025-03-12 12:24:48.822,792, 531, 397, 8, 0, 27, -4, 1, 7, 971, 925, 619,C
2025-03-12 12:24:48.869,736, 551, 399, 2, 1, 13, -5, 5, 7, 974, 939, 686,C
2025-03-12 12:24:48.927,739, 458, 375, -10, -3, -7, -4, 5, 5, 977, 950, 664,C
2025-03-12 12:24:48.987,882, 471, 460, -2, -12, -20, -4, 3, 6, 980, 957, 462,C
2025-03-12 12:24:49.037,867, 360, 404, 48, 37, 8, -3, 0, 9, 984, 941, 369,C
2025-03-12 12:24:49.087,868, 602, 473, -16, 27, 50, -5, 5, 5, 984, 959, 500,C
2025-03-12 12:24:49.150,638, 560, 286, -45, 89, -69, -3, 5, 3, 972, 950, 718,C
2025-03-12 12:24:49.203,385, 619, 770, -24, 3, -21, 0, 3, 2, 968, 934, 717,C
2025-03-12 12:24:49.257,603, 620, 547, 12, -32, 19, -3, 4, 2, 965, 918, 699,C
2025-03-12 12:24:49.497,714, 565, 427, 1, -3, 0, -4, 4, 4, 966, 913, 604,D
2025-03-12 12:24:49.557,715, 561, 436, 0, -3, -1, -3, 3, 6, 966, 911, 593,D
2025-03-12 12:24:49.607,712, 553, 455, -9, -6, -2, -1, 4, 4, 965, 913, 580,D
2025-03-12 12:24:49.662,706, 560, 465, -7, -11, -3, -3, 3, 5, 966, 917, 565,D
2025-03-12 12:24:49.716,670, 554, 471, 1, -8, 0, -3, 4, 6, 966, 919, 569,D
2025-03-12 12:24:49.769,643, 524, 556, 7, -22, 12, -3, 4, 4, 969, 931, 549,D
2025-03-12 12:24:49.820,894, 533, 361, 44, 20, 4, -6, 3, 4, 980, 934, 253,D
2025-03-12 12:24:49.870,652, 520, 179, -1, 29, 30, -3, 5, 6, 979, 914, 73,D
2025-03-12 12:24:49.934,1054, 207, 343, 10, -57, -60, -3, 5, 5, 961, 916, 652,D
2025-03-12 12:24:49.985,680, 500, 671, 3, -41, -14, -5, 3, 8, 980, 964, 699,D
2025-03-12 12:24:50.037,708, 781, 138, 17, 30, 37, -3, 4, 7, 987, 963, 610,D
2025-03-12 12:24:50.087,1167, 504, 329, 7, 36, 15, -3, 5, 5, 973, 903, 564,D
2025-03-12 12:24:50.151,679, 409, 491, -31, 63, -45, -4, 2, 3, 949, 849, 595,D
2025-03-12 12:24:50.207,436, 602, 611, -12, -19, -2, -3, 4, 4, 944, 901, 670,D
2025-03-12 12:24:50.260,742, 612, 410, 1, -28, 12, -3, 4, 3, 947, 903, 664,D
2025-03-12 12:24:50.318,767, 540, 390, -13, 3, -1, -3, 4, 4, 952, 894, 608,D
2025-03-12 12:24:51.229,705, 553, 466, 0, -4, 0, -3, 3, 6, 958, 901, 467,E
2025-03-12 12:24:51.284,691, 561, 469, 0, -5, 0, -3, 3, 6, 958, 902, 464,E
2025-03-12 12:24:51.337,732, 551, 439, 0, -5, 0, -3, 5, 5, 959, 906, 453,E
2025-03-12 12:24:51.388,720, 575, 436, -9, -4, -3, -3, 5, 8, 957, 904, 409,E
2025-03-12 12:24:51.438,688, 579, 452, -8, -10, -1, -3, 5, 7, 958, 913, 421,E
2025-03-12 12:24:51.537,1660, 244, 326, -2, -14, -11, -3, 6, 8, 965, 927, 342,E
2025-03-12 12:24:51.556,927, 690, 511, 46, 21, 16, -5, 2, 7, 981, 927, 64,E
2025-03-12 12:24:51.608,833, 433, 175, 5, 28, 21, -5, 5, 7, 980, 908, 79,E
2025-03-12 12:24:51.666,759, 355, 344, -31, -21, -66, -5, 5, 6, 963, 876, 522,E
2025-03-12 12:24:51.719,763, 708, 632, 45, -39, -18, -3, 4, 6, 978, 954, 523,E
2025-03-12 12:24:51.769,894, 698, 99, 1, 25, 37, -3, 4, 5, 982, 963, 720,E
2025-03-12 12:24:51.828,564, 382, 421, 13, 54, -24, -3, 3, 7, 968, 917, 706,E
2025-03-12 12:24:51.883,881, 499, 57, 33, -14, -23, -2, 5, 7, 974, 925, 537,E
2025-03-12 12:24:51.938,340, 382, 291, -10, 15, 43, -4, 3, 6, 984, 961, 682,E
2025-03-12 12:24:51.987,605, 369, 321, 19, 54, -39, -4, 6, 6, 969, 899, 692,E
2025-03-12 12:24:52.047,960, 623, 397, 7, -25, 21, -1, 2, 6, 963, 792, 557,E
2025-03-12 12:24:52.100,777, 532, 436, -1, 3, 26, -3, 6, 4, 982, 956, 608,E
2025-03-12 12:24:52.153,798, 418, 355, 3, 10, -7, -4, 6, 5, 970, 926, 657,E
2025-03-12 12:24:52.210,757, 521, 381, -31, 47, -45, -3, 5, 3, 957, 887, 613,E
2025-03-12 12:24:52.263,483, 641, 602, -2, -3, 7, -1, 3, 5, 958, 912, 664,E
2025-03-12 12:24:52.317,770, 544, 429, 8, -19, 9, -3, 3, 4, 952, 884, 659,E
2025-03-12 12:24:52.370,775, 559, 383, -14, 6, -11, -4, 4, 4, 950, 839, 569,E
2025-03-12 12:24:52.427,702, 583, 469, -27, 7, -13, -3, 5, 1, 944, 777, 458,E
2025-03-12 12:24:52.477,670, 553, 502, -5, 1, -5, -1, 3, 4, 942, 804, 467,E
2025-03-12 12:24:52.533,680, 571, 493, -1, -1, -2, -2, 4, 5, 943, 827, 510,E
2025-03-12 12:24:52.584,715, 546, 462, -4, 0, -2, -2, 4, 6, 943, 845, 499,E
2025-03-12 12:24:52.947,698, 570, 467, -4, -5, -7, -1, 4, 3, 942, 840, 446,F
2025-03-12 12:24:53.000,696, 544, 469, -3, -6, -9, -3, 3, 3, 944, 839, 478,F
2025-03-12 12:24:53.057,715, 541, 578, -1, -18, -23, -3, 5, 4, 946, 840, 519,F
2025-03-12 12:24:53.107,605, 658, 353, 4, -22, -33, -2, 3, 5, 955, 870, 525,F
2025-03-12 12:24:53.165,526, 723, 451, 6, -7, 6, -4, 1, 5, 961, 899, 530,F
2025-03-12 12:24:53.218,645, 627, 461, 16, -8, 44, -4, 2, 5, 964, 910, 539,F
2025-03-12 12:24:53.269,747, 583, 394, 12, -4, 25, -3, 3, 8, 967, 914, 539,F
2025-03-12 12:24:53.319,778, 534, 350, -9, -9, 1, -4, 3, 5, 967, 924, 568,F
2025-03-12 12:24:53.382,734, 550, 467, -23, -20, 7, -3, 2, 8, 972, 945, 573,F
2025-03-12 12:24:53.428,508, 586, 410, 24, 18, 4, -3, 4, 8, 982, 947, 443,F
2025-03-12 12:24:53.484,1564, 471, -15, 2, 37, 37, -2, 6, 5, 981, 934, 46,F
2025-03-12 12:24:53.537,820, 139, 270, -31, -20, -86, -4, 5, 5, 968, 919, 509,F
2025-03-12 12:24:53.599,829, -344, 61, 77, -35, -33, -3, 4, 5, 979, 952, 531,F
2025-03-12 12:24:53.651,716, 378, 395, -8, 19, 36, -3, 5, 7, 986, 965, 692,F
2025-03-12 12:24:53.704,643, 309, 401, 10, 45, -8, -5, 6, 4, 973, 929, 703,F
2025-03-12 12:24:53.761,977, 334, 77, 27, -14, -26, -4, 4, 8, 976, 928, 522,F
2025-03-12 12:24:53.816,539, 400, 298, -24, 14, 26, -4, 3, 7, 986, 965, 640,F
2025-03-12 12:24:53.867,1009, 379, -76, -35, 90, -59, -3, 5, 8, 963, 929, 727,F
2025-03-12 12:24:53.927,266, 701, 925, -57, 38, -49, -3, 3, -1, 949, 855, 631,F
2025-03-12 12:24:53.987,459, 608, 708, 25, -46, 17, -3, 3, 1, 944, 849, 618,F
2025-03-12 12:24:54.037,783, 550, 327, 7, -33, 14, -3, 3, 4, 946, 872, 661,F
2025-03-12 12:24:54.087,715, 552, 436, -4, 1, -1, -3, 2, 5, 948, 883, 654,F
2025-03-12 12:24:54.367,734, 563, 398, 2, -7, 4, -3, 3, 5, 956, 894, 609,G
2025-03-12 12:24:54.418,733, 564, 398, 1, -6, 2, -3, 5, 7, 956, 893, 607,G
2025-03-12 12:24:54.467,708, 577, 440, 0, -1, 2, -4, 3, 5, 957, 894, 604,G
2025-03-12 12:24:54.527,728, 551, 435, 2, -4, 2, -4, 5, 6, 959, 899, 631,G
2025-03-12 12:24:54.578,720, 583, 458, -1, -1, 3, -3, 3, 7, 960, 906, 655,G
2025-03-12 12:24:54.635,656, 569, 500, 9, -17, 10, -2, 2, 7, 962, 916, 660,G
2025-03-12 12:24:54.687,709, 664, 275, -27, -11, -11, -6, 5, 8, 967, 940, 489,G
2025-03-12 12:24:54.744,912, 464, 520, 41, -2, -17, -5, 3, 7, 978, 931, 246,G
2025-03-12 12:24:54.800,1077, 736, 78, -13, 39, 33, -3, 5, 6, 984, 937, 219,G
2025-03-12 12:24:54.850,538, 251, 793, 3, -27, -20, -4, 4, 7, 979, 947, 598,G
2025-03-12 12:24:54.909,843, 609, 306, 41, 1, 0, -4, 5, 6, 986, 950, 550,G
2025-03-12 12:24:54.960,717, 507, 395, -10, 19, 17, -3, 5, 6, 979, 924, 537,G
2025-03-12 12:24:55.018,467, 650, 793, -9, -20, -25, -2, 5, 6, 966, 908, 511,G
2025-03-12 12:24:55.067,710, 823, 128, 29, -18, 6, -3, 4, 7, 986, 962, 519,G
2025-03-12 12:24:55.117,736, 614, 387, 11, 21, 26, -4, 5, 5, 982, 954, 716,G
2025-03-12 12:24:55.183,727, 501, 358, -55, 87, -61, -2, 4, 5, 963, 921, 664,G
2025-03-12 12:24:55.238,424, 574, 793, -32, 19, -28, -3, 3, 2, 952, 867, 566,G
2025-03-12 12:24:55.287,615, 575, 592, 23, -38, 17, -1, 3, 3, 948, 850, 544,G
2025-03-12 12:24:55.838,676, 563, 490, 1, -4, 0, -2, 5, 3, 949, 870, 451,H
2025-03-12 12:24:55.887,678, 562, 488, 1, -4, 1, -4, 5, 6, 948, 870, 454,H
2025-03-12 12:24:55.941,693, 553, 489, 3, -7, 4, -2, 3, 5, 953, 880, 472,H
2025-03-12 12:24:55.987,697, 553, 476, 2, -4, 4, -4, 3, 5, 952, 886, 478,H
2025-03-12 12:24:56.048,678, 554, 485, 4, -6, 3, -4, 5, 5, 952, 889, 472,H
2025-03-12 12:24:56.101,719, 550, 451, 1, -8, 3, -3, 4, 5, 952, 895, 444,H
2025-03-12 12:24:56.151,707, 566, 436, 2, -10, 0, -4, 3, 4, 955, 898, 449,H
2025-03-12 12:24:56.207,657, 550, 548, -2, -31, 5, -3, 3, 5, 956, 912, 432,H
2025-03-12 12:24:56.257,722, 431, 354, 59, 18, -1, -4, 3, 9, 977, 925, 235,H
2025-03-12 12:24:56.315,567, 608, 135, -6, 38, 46, -3, 5, 5, 980, 892, 30,H
2025-03-12 12:24:56.368,532, 409, 414, 3, 2, -60, -2, 2, 5, 961, 862, 531,H
2025-03-12 12:24:56.424,748, 1225, 414, 46, -47, -16, -5, 3, 8, 976, 951, 620,H
2025-03-12 12:24:56.477,673, 277, 577, -14, 11, 33, -3, 5, 6, 974, 943, 753,H
2025-03-12 12:24:56.534,124, 646, 1120, 15, -28, 19, -4, 5, 7, 971, 932, 757,H
2025-03-12 12:24:56.587,854, 532, -24, 46, 45, 40, -4, 3, 7, 984, 926, 603,H
2025-03-12 12:24:56.642,885, 360, 474, -10, 14, -11, -5, 5, 6, 971, 872, 701,H
2025-03-12 12:24:56.700,603, 467, 645, -62, 38, -65, -3, 0, 5, 922, 871, 638,H
2025-03-12 12:24:56.757,422, 684, 698, 2, -37, 9, -3, 4, 3, 939, 888, 601,H
2025-03-12 12:24:56.987,697, 580, 448, -5, -2, 2, -4, 5, 6, 952, 888, 649,I
2025-03-12 12:24:57.043,720, 551, 468, -4, -3, 2, -2, 3, 6, 953, 892, 656,I
2025-03-12 12:24:57.097,713, 559, 416, -7, 3, -1, -4, 4, 6, 953, 891, 639,I
2025-03-12 12:24:57.150,707, 554, 471, 0, -2, 2, -5, 4, 4, 955, 900, 656,I
2025-03-12 12:24:57.200,739, 571, 426, 2, -3, 0, -3, 4, 6, 957, 903, 655,I
2025-03-12 12:24:57.250,726, 561, 395, -3, 0, 1, -4, 4, 6, 957, 900, 634,I
2025-03-12 12:24:57.301,734, 538, 413, -1, 1, 1, -4, 6, 6, 960, 907, 641,I
2025-03-12 12:24:57.357,719, 528, 459, -7, 2, -4, -5, 5, 7, 961, 909, 643,I
2025-03-12 12:24:57.410,641, 560, 518, -6, -2, -4, -3, 4, 6, 959, 884, 422,I
2025-03-12 12:24:57.465,934, 648, 334, 5, -24, -8, -3, 3, 7, 977, 941, 155,I
2025-03-12 12:24:57.517,923, 369, 142, -8, 17, 41, -3, 4, 7, 987, 963, 566,I
2025-03-12 12:24:57.567,642, 221, 444, 2, 11, -27, -4, 5, 7, 976, 949, 713,I
2025-03-12 12:24:57.627,892, 227, 541, 8, -18, -31, -4, 3, 8, 977, 939, 586,I
2025-03-12 12:24:57.683,711, 288, 516, 6, 43, 53, -4, 4, 7, 986, 938, 362,I
2025-03-12 12:24:57.734,548, 287, 501, 17, 3, -33, -3, 5, 5, 969, 886, 520,I
2025-03-12 12:24:57.787,824, 354, 394, 1, -15, -12, -4, 3, 5, 980, 951, 408,I
2025-03-12 12:24:57.846,689, 569, 390, -4, 17, 43, -3, 3, 5, 983, 952, 639,I
2025-03-12 12:24:57.904,546, 475, 329, -48, 83, -77, -4, 3, 3, 963, 921, 646,I
2025-03-12 12:24:58.170,667, 553, 478, -9, 0, -8, -3, 3, 7, 958, 863, 514,J
2025-03-12 12:24:58.217,647, 559, 493, -7, -4, -6, -3, 3, 4, 955, 855, 494,J
2025-03-12 12:24:58.281,688, 571, 525, 12, -39, 14, -3, 3, 7, 961, 894, 445,J
2025-03-12 12:24:58.333,907, 970, 344, -1, -36, 42, -3, 4, 8, 982, 959, 601,J
2025-03-12 12:24:58.387,591, 434, 507, 6, 7, 10, -4, 4, 7, 984, 960, 703,J
2025-03-12 12:24:58.437,611, 463, 415, 11, 15, -42, -4, 5, 6, 969, 935, 663,J
2025-03-12 12:24:58.487,916, 604, 422, 17, -4, -3, -5, 5, 6, 978, 944, 515,J
2025-03-12 12:24:58.537,526, 921, -45, -6, 43, 54, -4, 5, 5, 988, 952, 48,J
2025-03-12 12:24:58.599,395, 287, 425, -39, 22, -18, -3, 6, 5, 974, 918, 56,J
2025-03-12 12:24:58.660,1034, 604, -55, -24, 70, -38, -3, 4, 6, 914, 808, 401,J
2025-03-12 12:24:58.714,402, 770, 683, -6, 5, -1, -2, 5, 2, 924, 824, 497,J
2025-03-12 12:24:58.767,667, 587, 459, 3, -32, 8, -2, 3, 4, 931, 804, 495,J
2025-03-12 12:24:59.041,684, 537, 501, -10, -24, -6, -2, 2, 5, 943, 861, 404,K
2025-03-12 12:24:59.099,718, 555, 484, -7, -25, -1, -4, 6, 8, 946, 877, 431,K
2025-03-12 12:24:59.157,679, 277, 349, 5, -8, -12, -3, 3, 8, 961, 923, 427,K
2025-03-12 12:24:59.210,737, 597, 421, 39, 18, 6, -3, 4, 6, 974, 913, 224,K
2025-03-12 12:24:59.264,776, 521, 203, -14, 20, 20, -4, 4, 6, 978, 882, 46,K
2025-03-12 12:24:59.316,444, 335, 345, -22, -28, 7, -4, 6, 4, 980, 956, 61,K
2025-03-12 12:24:59.367,660, 558, 485, 30, -6, -9, -3, 4, 7, 979, 960, 542,K
2025-03-12 12:24:59.427,721, 475, 218, -17, 66, -37, -2, 4, 7, 965, 878, 456,K
2025-03-12 12:24:59.480,817, 36, -55, 7, -11, -13, -7, 5, 5, 977, 923, 408,K
2025-03-12 12:24:59.532,772, 293, 274, 6, 27, 49, -4, 3, 5, 987, 955, 489,K
2025-03-12 12:24:59.587,997, 369, 25, -29, 75, -60, -3, 5, 3, 972, 913, 646,K
2025-03-12 12:24:59.649,379, 745, 1061, -42, 26, -47, -2, 4, 2, 949, 827, 528,K
2025-03-12 12:24:59.701,583, 534, 603, 25, -52, 13, -1, 4, 1, 943, 823, 533,K
2025-03-12 12:24:59.967,680, 546, 493, -1, -15, -4, -4, 5, 5, 956, 879, 577,L
2025-03-12 12:25:00.018,696, 561, 467, -2, -17, -5, -2, 5, 5, 959, 881, 574,L
2025-03-12 12:25:00.067,690, 547, 475, -5, -22, -1, -3, 4, 6, 961, 913, 621,L
2025-03-12 12:25:00.132,719, 655, 457, 16, -8, -8, -3, 4, 8, 971, 932, 542,L
2025-03-12 12:25:00.183,514, 558, 444, 30, 19, 11, -4, 4, 7, 979, 925, 240,L
2025-03-12 12:25:00.238,918, 727, 243, 15, 13, 5, -3, 4, 5, 980, 885, 80,L
2025-03-12 12:25:00.287,491, 322, 336, -18, -1, 25, -4, 5, 7, 985, 954, 186,L
2025-03-12 12:25:00.340,750, 535, 503, 19, 7, 9, -4, 6, 4, 982, 949, 644,L
2025-03-12 12:25:00.398,790, 512, 276, -43, 73, -61, -2, 3, 4, 958, 876, 626,L
2025-03-12 12:25:00.449,492, 610, 644, -20, -2, -10, -1, 2, 3, 945, 819, 522,L
2025-03-12 12:25:00.737,699, 550, 454, 1, -17, 2, -3, 4, 5, 954, 867, 479,M
2025-03-12 12:25:00.787,745, 522, 430, 3, -14, 2, -2, 5, 4, 954, 870, 472,M
2025-03-12 12:25:00.841,688, 563, 438, 0, -5, -3, -4, 6, 6, 952, 870, 439,M
2025-03-12 12:25:00.899,687, 575, 483, 1, -18, 2, -3, 4, 6, 958, 900, 471,M
2025-03-12 12:25:00.951,718, 521, 379, 26, -4, -7, -4, 4, 7, 974, 927, 297,M
2025-03-12 12:25:00.998,500, 698, 174, 9, 40, 35, -4, 5, 6, 980, 902, 64,M
2025-03-12 12:25:01.062,773, 197, 637, -21, -28, -36, -4, 5, 6, 963, 881, 478,M
2025-03-12 12:25:01.115,520, 573, 774, 1, -42, 13, -4, 3, 5, 971, 945, 540,M
2025-03-12 12:25:01.168,947, 957, 248, 9, 17, 35, -4, 3, 8, 983, 953, 473,M
2025-03-12 12:25:01.217,721, 478, 508, -13, -4, 14, -3, 4, 8, 982, 951, 479,M
2025-03-12 12:25:01.277,863, 436, 697, -2, -12, -13, -4, 5, 7, 980, 953, 627,M
2025-03-12 12:25:01.332,981, 411, 230, 27, 31, 26, -6, 5, 7, 987, 940, 505,M
2025-03-12 12:25:01.387,903, 321, 428, -20, 15, -19, -4, 5, 7, 978, 924, 659,M
2025-03-12 12:25:01.447,605, 556, 695, -38, 33, -33, -4, 4, 5, 968, 921, 612,M
2025-03-12 12:25:01.720,724, 582, 485, -5, -9, -5, -3, 4, 5, 958, 886, 460,N
2025-03-12 12:25:01.767,714, 568, 466, -5, -11, -2, -2, 4, 6, 959, 892, 469,N
2025-03-12 12:25:01.827,726, 527, 451, -6, -13, 4, -5, 4, 6, 962, 918, 453,N
2025-03-12 12:25:01.883,695, 507, 536, 16, -10, -11, -4, 3, 7, 974, 934, 224,N
2025-03-12 12:25:01.937,707, 1150, 35, 15, 42, 37, -3, 4, 8, 979, 904, 31,N
2025-03-12 12:25:01.987,746, 474, 677, -10, 1, -10, -4, 5, 6, 967, 879, 345,N
2025-03-12 12:25:02.048,567, 639, 801, -2, -45, -1, -3, 3, 5, 959, 942, 607,N
2025-03-12 12:25:02.098,860, 1095, 131, 36, 15, 19, -3, 3, 8, 982, 945, 477,N
2025-03-12 12:25:02.157,778, 643, 311, -20, 30, 42, -3, 4, 6, 984, 925, 210,N
2025-03-12 12:25:02.207,556, 165, 562, 13, -49, -45, -4, 5, 5, 981, 960, 551,N
2025-03-12 12:25:02.270,1039, 614, 130, -5, 50, 4, -4, 6, 5, 970, 940, 724,N
2025-03-12 12:25:02.323,558, 681, 668, -28, 57, -8, -4, 4, 5, 964, 848, 530,N
2025-03-12 12:25:02.377,634, 577, 573, 5, -27, 8, -2, 5, 4, 963, 844, 460,N
2025-03-12 12:25:02.642,723, 528, 432, 3, -12, 8, -5, 5, 5, 963, 900, 521,O
2025-03-12 12:25:02.687,721, 524, 439, 5, -10, 7, -2, 4, 5, 963, 903, 524,O
2025-03-12 12:25:02.748,708, 533, 467, 4, -17, 6, -3, 5, 5, 964, 922, 464,O
2025-03-12 12:25:02.798,543, 518, 508, -23, -5, -12, -3, 4, 6, 962, 936, 159,O
2025-03-12 12:25:02.857,853, 336, 398, 67, -12, -16, -3, 6, 7, 975, 915, 72,O
2025-03-12 12:25:02.913,735, 445, 307, -29, 28, 52, -4, 6, 6, 985, 944, 41,O
2025-03-12 12:25:02.967,822, 248, 653, -7, -44, -41, -4, 6, 6, 980, 957, 394,O
2025-03-12 12:25:03.017,1033, 509, 179, 16, 3, -38, -4, 3, 8, 942, 920, 625,O
2025-03-12 12:25:03.081,589, 631, 559, -36, 82, -20, -4, 3, 4, 942, 827, 341,O
2025-03-12 12:25:03.131,481, 582, 717, -7, -1, 9, -3, 3, 1, 941, 786, 203,O
2025-03-12 12:25:03.420,712, 569, 458, 1, -10, 1, -5, 6, 5, 937, 833, 140,P
2025-03-12 12:25:03.474,704, 576, 451, -1, -10, 2, -4, 6, 7, 936, 836, 143,P
2025-03-12 12:25:03.532,709, 533, 460, -4, -13, 1, -3, 6, 5, 943, 876, 256,P
2025-03-12 12:25:03.580,706, 473, 547, 24, -12, -13, -3, 4, 7, 957, 907, 266,P
2025-03-12 12:25:03.641,1108, 461, 320, 10, 30, 31, -4, 5, 7, 976, 903, 65,P
2025-03-12 12:25:03.695,732, 618, 276, -15, 22, 14, -3, 5, 4, 972, 900, 31,P
2025-03-12 12:25:03.748,662, 507, 598, 24, -43, -53, -3, 6, 5, 956, 927, 264,P
2025-03-12 12:25:03.798,481, 503, 567, 7, -34, -9, -4, 3, 8, 981, 958, 496,P
2025-03-12 12:25:03.859,641, 501, 592, 17, -13, 2, -5, 4, 7, 987, 958, 402,P
2025-03-12 12:25:03.912,873, 466, 311, -6, 36, 11, -4, 5, 5, 971, 927, 376,P
2025-03-12 12:25:03.967,677, 475, 354, -43, 77, -45, -3, 4, 4, 947, 895, 399,P
2025-03-12 12:25:04.022,318, 625, 845, 6, -16, 5, -3, 3, 4, 947, 901, 492,P
2025-03-12 12:25:04.297,713, 520, 452, 11, -18, 11, -4, 5, 4, 954, 882, 597,Q
2025-03-12 12:25:04.357,722, 530, 429, 10, -17, 10, -3, 4, 5, 958, 885, 597,Q
2025-03-12 12:25:04.415,1133, 349, 258, -29, -16, -24, -5, 5, 6, 960, 925, 512,Q
2025-03-12 12:25:04.467,557, 348, 516, 32, -8, -29, -4, 3, 4, 972, 927, 42,Q
2025-03-12 12:25:04.523,459, 760, 96, -21, 65, 115, -3, 5, 6, 986, 937, 26,Q
2025-03-12 12:25:04.580,507, 347, 677, -54, -16, 6, -4, 7, 4, 985, 957, 203,Q
2025-03-12 12:25:04.633,882, 492, 245, 37, 0, -35, -4, 7, 5, 965, 923, 495,Q
2025-03-12 12:25:04.687,403, 494, 724, -16, 23, -12, -3, 4, 4, 968, 888, 48,Q
2025-03-12 12:25:04.747,1177, 404, -75, -39, -17, -15, -2, 4, 6, 978, 940, 300,Q
2025-03-12 12:25:04.798,830, 517, 255, -18, 32, 73, -4, 7, 6, 989, 957, 172,Q
2025-03-12 12:25:04.857,887, 404, 51, -37, 66, -63, -4, 8, 3, 981, 934, 202,Q
2025-03-12 12:25:04.907,504, 587, 995, -11, 41, -51, -2, 6, 1, 949, 874, 385,Q
2025-03-12 12:25:05.199,647, 550, 542, 4, -24, 1, -3, 5, 4, 945, 890, 480,R
2025-03-12 12:25:05.252,675, 550, 509, 0, -28, -1, -4, 4, 4, 946, 893, 481,R
2025-03-12 12:25:05.307,742, 480, 547, 7, -11, -19, -5, 5, 6, 958, 924, 435,R
2025-03-12 12:25:05.363,612, 979, 315, 36, 34, 34, -5, 5, 6, 980, 917, 210,R
2025-03-12 12:25:05.415,721, 519, 215, 2, 11, 13, -1, 7, 4, 976, 909, 27,R
2025-03-12 12:25:05.467,993, 458, 548, 17, -51, -65, -3, 5, 6, 954, 933, 623,R
2025-03-12 12:25:05.525,730, 682, 376, 13, -25, 6, -3, 3, 7, 982, 958, 587,R
2025-03-12 12:25:05.579,520, 864, 176, -8, 34, 33, -5, 5, 6, 985, 952, 275,R
2025-03-12 12:25:05.632,814, 680, 337, -15, 33, 49, -5, 6, 4, 986, 951, 45,R
2025-03-12 12:25:05.687,1053, 310, 30, -11, 58, -51, -3, 8, 5, 981, 944, 436,R
2025-03-12 12:25:05.747,373, 612, 1004, -40, 45, -46, -3, 6, 1, 956, 885, 373,R
2025-03-12 12:25:06.023,648, 535, 531, 1, -19, 10, -3, 6, 3, 964, 919, 580,S
2025-03-12 12:25:06.079,659, 537, 531, 4, -22, 10, -3, 6, 3, 967, 922, 586,S
2025-03-12 12:25:06.131,741, 496, 448, -3, -22, 3, -5, 8, 4, 973, 938, 499,S
2025-03-12 12:25:06.181,667, 422, 503, 6, -7, -24, -3, 6, 7, 973, 947, 297,S
2025-03-12 12:25:06.237,908, 765, 152, 32, 20, 19, -4, 5, 6, 981, 944, 80,S
2025-03-12 12:25:06.287,582, 413, 480, 8, 21, 19, -3, 4, 5, 987, 953, 47,S
2025-03-12 12:25:06.345,442, 636, 135, 1, 20, 2, -4, 6, 5, 976, 927, 47,S
2025-03-12 12:25:06.398,1254, 425, 295, -21, 38, -41, -4, 6, 4, 902, 824, 277,S
2025-03-12 12:25:06.448,453, 595, 928, -30, 26, -32, 0, 4, 1, 909, 847, 143,S
2025-03-12 12:25:06.507,496, 543, 652, 8, -31, 11, -1, 4, 3, 929, 862, 201,S
2025-03-12 12:25:06.797,679, 525, 524, 14, -19, 5, -3, 5, 5, 937, 874, 131,T
2025-03-12 12:25:06.857,667, 524, 510, 15, -22, 6, -4, 4, 6, 938, 876, 123,T
2025-03-12 12:25:06.915,743, 637, 378, -5, -5, -13, -3, 4, 7, 959, 916, 60,T
2025-03-12 12:25:06.967,835, 596, 297, -1, -20, 45, -4, 4, 6, 983, 957, 454,T
2025-03-12 12:25:07.017,707, 571, 343, 32, 5, 17, -4, 4, 6, 982, 944, 611,T
2025-03-12 12:25:07.078,476, 588, 382, -28, 41, -60, -5, 4, 8, 964, 905, 468,T
2025-03-12 12:25:07.130,4948, 253, -47, -107, -28, -23, -4, 2, 9, 978, 940, 423,T
2025-03-12 12:25:07.187,1052, 432, 331, 5, 41, 40, -4, 4, 7, 986, 937, 37,T
2025-03-12 12:25:07.238,805, 710, 256, -3, 23, 8, -4, 5, 4, 970, 883, 342,T
2025-03-12 12:25:07.298,542, 451, 611, -39, 52, -38, -3, 5, 5, 941, 877, 494,T
2025-03-12 12:25:07.348,554, 574, 532, 5, -22, 15, -1, 4, 5, 942, 873, 522,T
2025-03-12 12:25:07.636,715, 557, 439, -14, -13, -6, -3, 3, 7, 956, 899, 432,U
2025-03-12 12:25:07.688,707, 573, 436, -14, -12, -5, -4, 5, 5, 954, 897, 410,U
2025-03-12 12:25:07.747,753, 511, 445, -4, -13, -2, -5, 5, 5, 959, 905, 333,U
2025-03-12 12:25:07.801,726, 489, 514, -31, -4, -12, -6, 5, 5, 967, 923, 244,U
2025-03-12 12:25:07.857,643, 587, 355, 34, 11, 9, -3, 4, 8, 979, 923, 46,U
2025-03-12 12:25:07.907,742, 578, 119, 8, 25, 36, -6, 5, 5, 984, 939, 153,U
2025-03-12 12:25:07.963,531, 437, 716, -10, -17, -2, -5, 7, 6, 978, 941, 420,U
2025-03-12 12:25:08.017,727, 395, 671, 29, -26, -26, -4, 5, 7, 979, 945, 473,U
2025-03-12 12:25:08.073,730, 294, 295, 0, 34, 35, -3, 5, 6, 985, 931, 343,U
2025-03-12 12:25:08.130,811, 464, 229, -36, 50, -43, -4, 6, 5, 973, 918, 503,U
2025-03-12 12:25:08.182,503, 553, 839, -17, -3, -15, -3, 6, 2, 952, 905, 553,U
2025-03-12 12:25:08.442,676, 565, 477, -4, -5, -9, -3, 6, 5, 944, 830, 214,V
2025-03-12 12:25:08.497,683, 579, 477, -7, -7, -7, -2, 3, 6, 941, 827, 112,V
2025-03-12 12:25:08.549,714, 552, 459, -6, -20, 0, -3, 4, 5, 950, 880, 142,V
2025-03-12 12:25:08.599,751, 326, 507, 1, -4, -8, -4, 4, 5, 972, 932, 72,V
2025-03-12 12:25:08.654,885, 873, 300, 8, 30, 51, -4, 4, 6, 984, 930, 49,V
2025-03-12 12:25:08.699,893, 855, 97, -49, 9, 27, -3, 8, 3, 983, 943, 21,V
2025-03-12 12:25:08.761,573, 249, 663, 11, -27, -14, -3, 5, 6, 979, 960, 191,V
2025-03-12 12:25:08.813,900, 337, 6, -37, 92, -30, -3, 6, 5, 968, 918, 387,V
2025-03-12 12:25:08.872,400, 600, 899, -32, 33, -12, -3, 6, 2, 961, 801, 58,V
2025-03-12 12:25:08.922,590, 526, 628, 22, -37, 7, -3, 7, 2, 957, 810, 43,V
2025-03-12 12:25:09.190,684, 551, 483, 15, -7, -9, -3, 6, 6, 921, 730, 53,W
2025-03-12 12:25:09.248,701, 567, 477, 16, -8, -7, -3, 4, 3, 919, 732, 40,W
2025-03-12 12:25:09.300,690, 539, 473, 10, -20, 0, -3, 3, 5, 922, 813, 191,W
2025-03-12 12:25:09.360,758, 525, 518, -1, -17, -13, -2, 4, 5, 968, 909, 112,W
2025-03-12 12:25:09.413,866, 383, 501, -25, 28, 43, -2, 5, 7, 981, 932, 35,W
2025-03-12 12:25:09.468,750, 279, 655, -18, -25, 4, -3, 6, 5, 980, 943, 311,W
2025-03-12 12:25:09.524,704, 259, 708, 45, -19, -20, -4, 4, 7, 977, 940, 459,W
2025-03-12 12:25:09.581,509, 410, 255, -16, 11, 30, -4, 5, 5, 985, 937, 184,W
2025-03-12 12:25:09.632,830, 161, 978, 30, -29, -6, -3, 6, 6, 980, 950, 269,W
2025-03-12 12:25:09.687,678, 374, 375, -37, 115, -47, -3, 6, 3, 971, 918, 486,W
2025-03-12 12:25:09.745,369, 584, 777, -16, 23, 1, -2, 5, 2, 965, 820, 281,W
2025-03-12 12:25:10.007,708, 530, 506, -2, -3, -1, -2, 6, 6, 957, 859, 518,X
2025-03-12 12:25:10.061,714, 528, 505, -2, -5, -1, -3, 4, 5, 957, 862, 515,X
2025-03-12 12:25:10.113,721, 532, 458, -1, -8, 1, -3, 6, 4, 961, 874, 533,X
2025-03-12 12:25:10.167,675, 537, 486, 1, -16, 8, -4, 5, 6, 966, 891, 540,X
2025-03-12 12:25:10.222,674, 643, 410, -16, -8, -13, -3, 4, 7, 973, 927, 349,X
2025-03-12 12:25:10.282,122, 1007, -131, 44, 31, -16, -4, 4, 7, 974, 907, 38,X
2025-03-12 12:25:10.332,802, 524, 275, -45, 41, 15, -4, 5, 5, 963, 832, 37,X
2025-03-12 12:25:10.392,510, 676, 580, 40, -38, -19, -3, 5, 6, 949, 896, 292,X
2025-03-12 12:25:10.447,609, 1548, -119, -53, -6, 51, -2, 3, 7, 985, 947, 160,X
2025-03-12 12:25:10.497,690, 673, 425, 2, 19, 26, -4, 6, 5, 981, 932, 274,X
2025-03-12 12:25:10.547,664, 461, 400, -8, 55, -61, -3, 6, 2, 954, 889, 370,X
2025-03-12 12:25:10.847,687, 535, 458, -2, -8, -3, -4, 5, 5, 951, 898, 536,Y
2025-03-12 12:25:10.901,685, 547, 472, -1, -8, -4, -3, 5, 6, 952, 901, 542,Y
2025-03-12 12:25:10.962,677, 576, 466, -9, -17, -10, -5, 3, 4, 945, 890, 371,Y
2025-03-12 12:25:11.015,659, 474, 600, 16, -37, 8, -3, 4, 6, 958, 894, 258,Y
2025-03-12 12:25:11.068,896, 890, 369, 3, 3, 36, -5, 4, 7, 981, 943, 309,Y
2025-03-12 12:25:11.118,815, 248, 503, -3, 29, 39, -2, 4, 8, 980, 942, 497,Y
2025-03-12 12:25:11.167,401, 561, 980, 5, 0, -21, -3, 6, 5, 972, 930, 555,Y
2025-03-12 12:25:11.231,1059, 833, 484, 9, -13, -14, -3, 5, 8, 983, 937, 324,Y
2025-03-12 12:25:11.281,809, 657, -173, 4, 44, 24, -4, 4, 6, 982, 875, 36,Y
2025-03-12 12:25:11.337,999, 272, 392, -25, 27, -27, -3, 5, 5, 943, 709, 362,Y
2025-03-12 12:25:11.395,572, 630, 796, -21, -8, -21, -2, 4, 4, 935, 806, 260,Y
2025-03-12 12:25:11.448,613, 559, 533, -1, -7, 3, -3, 5, 3, 945, 833, 339,Y
2025-03-12 12:25:11.723,751, 539, 499, -5, -24, 4, -4, 5, 6, 935, 819, 26,Z
2025-03-12 12:25:11.772,758, 530, 487, -2, -26, 7, -4, 4, 6, 943, 847, 42,Z
2025-03-12 12:25:11.830,831, 565, 544, 23, -16, -1, -2, 4, 8, 975, 931, 144,Z
2025-03-12 12:25:11.887,525, 339, 541, 16, -6, 16, -3, 6, 7, 984, 938, 477,Z
2025-03-12 12:25:11.938,438, 518, 387, 43, 29, 14, -5, 7, 7, 981, 910, 253,Z
2025-03-12 12:25:11.997,1091, 435, 294, -8, 13, -19, -4, 5, 5, 975, 861, 65,Z
2025-03-12 12:25:12.050,910, 569, 186, -17, -6, 40, -5, 6, 5, 986, 949, 40,Z
2025-03-12 12:25:12.097,494, 571, 373, -5, 7, 17, -3, 7, 6, 988, 947, 71,Z
2025-03-12 12:25:12.157,618, 533, 80, -18, 47, -99, -4, 6, 5, 965, 863, 455,Z
2025-03-12 12:25:12.213,719, 692, 358, -15, -91, 53, -4, 4, 3, 973, 925, 345,Z
2025-03-12 12:25:12.267,624, 563, 103, -26, 9, 34, -4, 3, 8, 988, 951, 332,Z
2025-03-12 12:25:12.320,1002, 253, 198, -6, 60, -44, -4, 5, 5, 974, 855, 597,Z
2025-03-12 12:25:12.377,524, 722, 966, -16, 28, -27, -2, 5, 3, 950, 681, 389,Z
2025-03-12 12:25:12.436,596, 574, 582, 26, -31, 11, -3, 3, 2, 941, 711, 518,Z
2025-03-12 12:25:12.679,735, 524, 425, 0, 4, 0, -3, 4, 7, 948, 751, 505,a
2025-03-12 12:25:12.729,725, 526, 427, -1, 4, -3, -6, 4, 3, 947, 749, 513,a
2025-03-12 12:25:12.779,678, 572, 479, -3, -5, 0, -3, 4, 4, 948, 738, 503,a
2025-03-12 12:25:12.837,710, 578, 482, 2, -10, 7, -4, 5, 4, 952, 757, 481,a
2025-03-12 12:25:12.888,732, 559, 444, 2, -6, 8, -5, 5, 5, 955, 772, 477,a
2025-03-12 12:25:12.944,674, 559, 484, 4, -23, 11, -3, 4, 6, 964, 818, 460,a
2025-03-12 12:25:12.997,501, 629, 503, -25, 1, -16, -4, 6, 6, 969, 880, 40,a
2025-03-12 12:25:13.047,939, 782, 289, 16, 13, 4, -4, 3, 6, 980, 893, 72,a
2025-03-12 12:25:13.098,742, 455, 320, -25, 22, 27, -3, 6, 4, 984, 929, 56,a
2025-03-12 12:25:13.160,742, 504, 518, 10, -18, -24, -4, 6, 6, 977, 935, 377,a
2025-03-12 12:25:13.212,572, 642, 326, -32, 26, 28, -4, 7, 4, 985, 932, 41,a
2025-03-12 12:25:13.272,838, 374, 336, -11, 18, -12, -4, 6, 7, 979, 910, 305,a
2025-03-12 12:25:13.567,699, 565, 511, -10, -16, -8, -3, 3, 5, 958, 897, 396,b
2025-03-12 12:25:13.617,730, 561, 477, -9, -18, -3, -4, 5, 4, 956, 900, 390,b
2025-03-12 12:25:13.677,846, 325, 179, -47, -5, -9, -5, 4, 7, 965, 922, 328,b
2025-03-12 12:25:13.729,961, 814, 491, 46, 20, 15, -4, 3, 6, 979, 916, 233,b
2025-03-12 12:25:13.781,669, 278, 266, 27, 31, 23, -3, 6, 6, 981, 892, 58,b
2025-03-12 12:25:13.837,680, 240, 893, 16, -22, -22, -4, 6, 6, 963, 883, 309,b
2025-03-12 12:25:13.893,666, 561, 651, -1, -25, 6, -3, 5, 6, 977, 937, 487,b
2025-03-12 12:25:13.948,503, 781, 324, -8, 31, 35, -3, 5, 6, 987, 943, 29,b
2025-03-12 12:25:13.997,774, 424, 365, -5, 29, -2, -4, 5, 5, 974, 853, 65,b
2025-03-12 12:25:14.057,670, 462, 379, -48, 74, -51, -3, 4, 5, 937, 816, 258,b
2025-03-12 12:25:14.111,338, 655, 811, 4, -18, 6, -1, 3, 2, 941, 842, 426,b
2025-03-12 12:25:14.162,760, 571, 388, 21, -42, 20, -3, 3, 4, 943, 833, 476,b
2025-03-12 12:25:14.217,755, 517, 407, -5, 5, 0, -3, 6, 3, 950, 843, 444,b
2025-03-12 12:25:14.267,702, 546, 520, 9, -10, 8, -3, 3, 4, 950, 827, 438,b
2025-03-12 12:25:15.104,733, 567, 442, -2, -4, 3, -4, 3, 5, 944, 814, 447,c
2025-03-12 12:25:15.160,720, 554, 456, 0, -4, 3, -4, 3, 5, 947, 818, 453,c
2025-03-12 12:25:15.208,728, 534, 458, 3, -3, 2, -4, 4, 5, 949, 822, 479,c
2025-03-12 12:25:15.263,733, 521, 437, 2, -3, 1, -3, 5, 5, 950, 819, 493,c
2025-03-12 12:25:15.314,723, 542, 447, -3, -1, 1, -4, 5, 6, 955, 835, 503,c
2025-03-12 12:25:15.367,697, 542, 484, 1, -12, 5, -3, 5, 5, 962, 851, 478,c
2025-03-12 12:25:15.417,716, 551, 512, -27, 3, -8, -4, 5, 5, 971, 909, 66,c
2025-03-12 12:25:15.474,928, 461, 539, 48, -13, -27, -4, 3, 7, 976, 906, 43,c
2025-03-12 12:25:15.531,1069, 963, 159, -20, 35, 62, -3, 5, 6, 985, 940, 58,c
2025-03-12 12:25:15.579,933, 170, 344, 22, -3, -37, -3, 4, 4, 976, 927, 616,c
2025-03-12 12:25:15.643,534, 556, 752, -28, 47, -51, -3, 4, 4, 952, 861, 546,c
2025-03-12 12:25:15.947,709, 535, 435, 6, -9, 6, -3, 3, 6, 956, 853, 461,d
2025-03-12 12:25:15.997,739, 515, 426, 7, -9, 5, -3, 3, 6, 955, 850, 478,d
2025-03-12 12:25:16.052,752, 550, 409, 0, -2, 0, -4, 5, 4, 958, 859, 501,d
2025-03-12 12:25:16.100,703, 563, 462, -1, -2, 2, -4, 7, 4, 960, 864, 469,d
2025-03-12 12:25:16.147,712, 515, 444, 1, -4, 4, -3, 5, 6, 965, 876, 473,d
2025-03-12 12:25:16.213,714, 621, 436, -20, -2, -5, -4, 6, 5, 968, 901, 268,d
2025-03-12 12:25:16.264,605, 498, 541, -9, -2, -12, -5, 4, 5, 971, 926, 65,d
2025-03-12 12:25:16.317,826, 541, 485, 44, 2, -11, -3, 3, 6, 978, 906, 42,d
2025-03-12 12:25:16.367,620, 583, 352, -34, 16, 34, -4, 5, 5, 984, 942, 42,d
2025-03-12 12:25:16.430,1136, 619, 296, -13, -31, -40, -3, 5, 7, 977, 951, 479,d
2025-03-12 12:25:16.481,722, 832, 28, 37, 11, 2, -3, 3, 8, 983, 938, 422,d
2025-03-12 12:25:16.531,773, 374, 230, -1, 28, 26, -4, 5, 5, 985, 929, 143,d
2025-03-12 12:25:16.593,854, 520, 199, -13, 20, -51, -3, 6, 5, 972, 907, 582,d
2025-03-12 12:25:16.647,529, 641, 683, -14, 6, -18, -3, 4, 3, 952, 880, 536,d
2025-03-12 12:25:16.697,688, 562, 468, 11, -16, 8, -3, 3, 4, 949, 871, 522,d
2025-03-12 12:25:16.747,738, 526, 450, -3, 2, -1, -3, 5, 5, 951, 878, 425,d
2025-03-12 12:25:16.807,696, 535, 438, -3, 0, 2, -3, 5, 5, 953, 879, 421,d
2025-03-12 12:25:16.860,677, 549, 479, 0, -4, 3, -2, 5, 5, 954, 878, 414,d
2025-03-12 12:25:17.357,700, 553, 498, -1, 0, 0, -4, 4, 5, 956, 870, 431,e
2025-03-12 12:25:17.407,697, 548, 498, 0, -1, 1, -4, 4, 5, 956, 869, 432,e
2025-03-12 12:25:17.462,736, 552, 452, 1, -4, 1, -3, 4, 5, 957, 870, 429,e
2025-03-12 12:25:17.514,704, 539, 466, 2, 2, 0, -3, 4, 7, 957, 861, 389,e
2025-03-12 12:25:17.564,708, 549, 464, 6, -3, 2, -5, 3, 6, 957, 858, 357,e
2025-03-12 12:25:17.617,745, 554, 431, 1, -4, 0, -4, 4, 6, 958, 867, 270,e
2025-03-12 12:25:17.671,754, 401, 369, -7, 3, -11, -3, 3, 7, 966, 891, 108,e
2025-03-12 12:25:17.724,828, 431, 294, -22, 9, 22, -4, 5, 5, 982, 934, 334,e
2025-03-12 12:25:17.777,645, 540, 577, -9, -6, 1, -4, 8, 5, 977, 945, 466,e
2025-03-12 12:25:17.831,619, 397, 589, -2, -7, -12, -4, 5, 6, 972, 944, 475,e
2025-03-12 12:25:17.881,919, 674, 355, 28, 7, -6, -4, 4, 7, 982, 933, 44,e
2025-03-12 12:25:17.937,623, 421, 265, -21, 27, 40, -2, 5, 7, 986, 949, 56,e
2025-03-12 12:25:17.994,1024, 197, 271, -4, 25, -38, -4, 6, 5, 977, 930, 570,e
2025-03-12 12:25:18.050,568, 642, 788, -33, 46, -46, -1, 4, 1, 941, 860, 484,e
2025-03-12 12:25:18.322,713, 541, 474, 3, -4, 1, -2, 4, 4, 934, 835, 352,f
2025-03-12 12:25:18.376,720, 539, 481, 2, -3, 0, -3, 5, 4, 935, 836, 364,f
2025-03-12 12:25:18.428,708, 536, 483, -1, -4, -1, -4, 5, 4, 935, 831, 352,f
2025-03-12 12:25:18.481,688, 556, 495, -3, -5, 0, -3, 4, 3, 938, 825, 271,f
2025-03-12 12:25:18.531,685, 545, 493, 2, -8, 4, -3, 5, 3, 937, 823, 252,f
2025-03-12 12:25:18.587,705, 561, 455, 6, -9, 8, -3, 4, 6, 943, 838, 283,f
2025-03-12 12:25:18.637,709, 524, 457, 9, -2, 6, -4, 5, 5, 952, 850, 348,f
2025-03-12 12:25:18.687,742, 542, 416, -1, 3, 1, -5, 6, 5, 949, 847, 348,f
2025-03-12 12:25:18.738,715, 521, 486, 5, 2, 5, -3, 5, 3, 953, 853, 345,f
2025-03-12 12:25:18.792,621, 514, 588, 7, -9, 23, -3, 5, 4, 965, 874, 356,f
2025-03-12 12:25:18.847,787, 604, 319, -32, 16, 12, -6, 6, 3, 974, 918, 39,f
2025-03-12 12:25:18.897,1082, 590, 453, 12, -58, -58, -3, 6, 6, 977, 956, 319,f
2025-03-12 12:25:18.960,753, 629, 353, 38, -29, -6, -5, 5, 6, 981, 948, 613,f
2025-03-12 12:25:19.018,766, 281, 291, -20, 46, -23, -1, 5, 5, 974, 929, 549,f
2025-03-12 12:25:19.071,654, 634, 889, 38, -67, 30, -4, 4, 7, 971, 913, 475,f
2025-03-12 12:25:19.128,798, 1019, 271, -19, -1, 45, -3, 3, 7, 986, 957, 584,f
2025-03-12 12:25:19.179,973, 190, 114, -28, 64, -48, -3, 5, 6, 976, 917, 665,f
2025-03-12 12:25:19.238,458, 715, 847, -29, 25, -15, -3, 3, 4, 963, 859, 539,f
2025-03-12 12:25:19.497,660, 552, 481, 11, -15, 10, -3, 3, 4, 969, 885, 588,g
2025-03-12 12:25:19.547,696, 559, 459, 10, -17, 10, -3, 6, 8, 971, 892, 601,g
2025-03-12 12:25:19.597,733, 602, 438, -19, 4, 0, -1, 4, 7, 973, 921, 472,g
2025-03-12 12:25:19.661,483, 534, 557, -10, -13, -15, -3, 5, 5, 973, 932, 180,g
2025-03-12 12:25:19.712,796, 1325, -97, -46, 29, 26, -4, 5, 7, 986, 928, 44,g
2025-03-12 12:25:19.770,605, 680, 643, -18, 17, 24, -3, 6, 4, 983, 940, 277,g
2025-03-12 12:25:19.826,772, 634, 603, 22, -8, -13, -2, 6, 5, 975, 938, 604,g
2025-03-12 12:25:19.878,264, 946, 41, -8, 47, 54, -3, 5, 4, 985, 942, 48,g
2025-03-12 12:25:19.929,991, 264, 427, -18, 27, 10, -3, 5, 5, 978, 896, 41,g
2025-03-12 12:25:19.987,1116, 492, 163, -15, 48, -62, -2, 6, 4, 912, 697, 94,g
2025-03-12 12:25:20.042,380, 666, 941, -12, -8, -27, 0, 3, 2, 870, 790, 340,g
2025-03-12 12:25:20.288,724, 540, 449, 1, -1, 3, -5, 6, 5, 933, 825, 524,h
2025-03-12 12:25:20.338,714, 524, 473, 1, -2, 2, -3, 4, 5, 933, 824, 515,h
2025-03-12 12:25:20.394,701, 538, 448, -4, -7, -8, -5, 5, 5, 931, 828, 509,h
2025-03-12 12:25:20.447,651, 559, 529, -8, -20, 6, -4, 5, 7, 941, 865, 472,h
2025-03-12 12:25:20.500,758, 569, 418, 30, 4, 1, -3, 3, 7, 970, 889, 351,h
2025-03-12 12:25:20.547,998, 426, 239, 14, 23, 35, -4, 3, 6, 981, 882, 42,h
2025-03-12 12:25:20.607,807, 461, 527, -11, 5, 4, -4, 5, 5, 974, 892, 70,h
2025-03-12 12:25:20.661,530, 382, 697, 5, -14, -12, -3, 4, 7, 979, 911, 175,h
2025-03-12 12:25:20.713,852, 509, 440, -3, 27, 31, -3, 6, 7, 981, 883, 56,h
2025-03-12 12:25:20.767,775, 441, 263, -41, 60, -48, -3, 5, 5, 967, 827, 156,h
2025-03-12 12:25:20.827,423, 564, 932, -16, 11, -21, -4, 6, 3, 935, 795, 144,h
2025-03-12 12:25:21.077,713, 526, 489, 1, -4, 4, -3, 7, 5, 943, 793, 270,i
2025-03-12 12:25:21.131,704, 522, 500, 2, -6, 4, -3, 7, 5, 945, 797, 293,i
2025-03-12 12:25:21.177,724, 531, 457, 1, -4, 0, -4, 7, 5, 946, 810, 378,i
2025-03-12 12:25:21.238,686, 500, 525, 5, -16, 3, -3, 4, 7, 950, 826, 389,i
2025-03-12 12:25:21.287,773, 441, 453, -2, 3, -1, -4, 6, 6, 974, 881, 47,i
2025-03-12 12:25:21.344,584, 372, 568, -24, 22, 28, -4, 6, 6, 985, 894, 54,i
2025-03-12 12:25:21.403,1060, -72, 418, 15, -31, -90, -3, 6, 5, 972, 900, 308,i
2025-03-12 12:25:21.450,415, 570, 907, -11, -98, 27, -3, 4, 7, 976, 944, 373,i
2025-03-12 12:25:21.508,814, 568, 196, 9, 26, 12, -3, 4, 8, 983, 945, 403,i
2025-03-12 12:25:21.561,805, 335, 253, -29, 62, -30, -4, 5, 5, 971, 895, 467,i
2025-03-12 12:25:21.622,561, 580, 691, -41, 38, -18, -4, 5, 3, 960, 856, 240,i
2025-03-12 12:25:21.676,524, 626, 713, 9, -17, 15, -2, 6, 2, 959, 857, 221,i
2025-03-12 12:25:21.922,685, 520, 501, 8, -2, 8, -3, 3, 4, 951, 822, 353,j
2025-03-12 12:25:21.977,697, 513, 524, 10, -3, 9, -3, 6, 7, 951, 818, 337,j
2025-03-12 12:25:22.028,708, 519, 489, 13, -9, 15, -3, 3, 5, 951, 798, 349,j
2025-03-12 12:25:22.078,758, 507, 420, 2, 1, -1, -5, 7, 5, 951, 807, 374,j
2025-03-12 12:25:22.137,686, 540, 497, 0, -12, 3, -4, 5, 7, 953, 836, 438,j
2025-03-12 12:25:22.188,767, 707, 506, 2, 1, 4, -3, 6, 6, 975, 880, 342,j
2025-03-12 12:25:22.242,864, 287, 594, -35, 31, 43, -4, 7, 3, 984, 901, 43,j
2025-03-12 12:25:22.297,768, -91, 602, -1, -23, -62, -3, 8, 4, 973, 866, 35,j
2025-03-12 12:25:22.347,349, 704, 1283, 8, -53, -11, -2, 5, 4, 961, 932, 388,j
2025-03-12 12:25:22.405,782, 723, -9, 31, 1, 2, -3, 6, 7, 977, 937, 486,j
2025-03-12 12:25:22.461,858, 248, 186, -26, 47, -32, -3, 5, 7, 965, 859, 510,j
2025-03-12 12:25:22.511,551, 596, 791, -28, 27, -19, -2, 4, 4, 954, 831, 282,j
2025-03-12 12:25:22.772,732, 559, 474, 15, -11, 7, -2, 4, 5, 931, 709, 213,k
2025-03-12 12:25:22.827,718, 545, 456, 15, -10, 8, -2, 6, 5, 931, 709, 227,k
2025-03-12 12:25:22.879,716, 536, 465, 9, -1, 3, -4, 5, 3, 928, 715, 297,k
2025-03-12 12:25:22.928,717, 519, 411, -2, -5, 0, -5, 6, 4, 935, 746, 314,k
2025-03-12 12:25:22.977,611, 559, 530, -2, -27, 2, -4, 5, 3, 947, 829, 330,k
2025-03-12 12:25:23.037,715, 384, 485, 9, -6, -13, -5, 6, 4, 971, 889, 36,k
2025-03-12 12:25:23.093,1116, 670, 517, -20, 31, 30, -3, 4, 6, 977, 856, 57,k
2025-03-12 12:25:23.144,871, 500, 376, 3, 15, 9, -3, 5, 6, 979, 909, 56,k
2025-03-12 12:25:23.197,519, 134, 505, 9, -32, -3, -3, 6, 5, 984, 952, 71,k
2025-03-12 12:25:23.247,704, 646, 461, 35, -7, -1, -4, 6, 5, 970, 890, 530,k
2025-03-12 12:25:23.300,567, 702, 932, 14, -15, 7, -4, 5, 4, 967, 762, 181,k
2025-03-12 12:25:23.359,854, 574, 325, -35, 15, 49, -3, 5, 4, 987, 941, 48,k
2025-03-12 12:25:23.417,982, 206, 481, 10, 20, -17, -5, 5, 5, 981, 877, 248,k
2025-03-12 12:25:23.475,615, 417, 569, -18, 65, -76, -3, 7, 2, 921, 662, 362,k
2025-03-12 12:25:23.721,756, 541, 369, -6, -6, -4, -3, 6, 5, 952, 843, 592,l
2025-03-12 12:25:23.774,731, 532, 409, -7, -6, -6, -3, 6, 4, 952, 846, 596,l
2025-03-12 12:25:23.825,679, 550, 471, -9, -1, -3, -2, 5, 6, 953, 856, 592,l
2025-03-12 12:25:23.877,698, 545, 476, -4, -17, 2, -5, 6, 7, 955, 867, 573,l
2025-03-12 12:25:23.937,734, 591, 462, -8, -4, -6, -4, 5, 6, 967, 907, 469,l
2025-03-12 12:25:23.988,614, 532, 444, 51, 15, 4, -4, 6, 6, 978, 905, 257,l
2025-03-12 12:25:24.043,708, 266, 603, 10, 13, 18, -3, 4, 4, 983, 889, 52,l
2025-03-12 12:25:24.097,740, 577, 527, -8, 14, 23, -3, 6, 7, 975, 864, 48,l
2025-03-12 12:25:24.147,923, 411, 145, -25, 35, -38, -4, 6, 4, 963, 849, 513,l
2025-03-12 12:25:24.208,463, 645, 797, -19, 9, -16, -1, 5, 4, 952, 812, 404,l
2025-03-12 12:25:24.260,686, 565, 454, 5, -17, 1, -3, 4, 3, 946, 775, 333,l
2025-03-12 12:25:24.311,729, 528, 419, -6, 0, -10, -2, 5, 4, 927, 741, 218,l
2025-03-12 12:25:24.367,691, 544, 484, -4, -2, 3, -3, 5, 3, 935, 775, 280,l
2025-03-12 12:25:24.639,708, 528, 474, 1, -1, 0, -2, 4, 7, 944, 816, 469,m
2025-03-12 12:25:24.698,693, 536, 489, 2, -2, 0, -4, 5, 5, 943, 809, 463,m
2025-03-12 12:25:24.751,697, 554, 474, 6, -9, 4, -3, 5, 5, 944, 811, 476,m
2025-03-12 12:25:24.797,694, 529, 448, 6, -5, -2, -4, 5, 6, 945, 820, 484,m
2025-03-12 12:25:24.859,647, 520, 460, 1, -11, -7, -3, 4, 2, 950, 841, 470,m
2025-03-12 12:25:24.911,796, 362, 395, -14, -8, -13, -4, 4, 5, 968, 897, 185,m
2025-03-12 12:25:24.967,966, 569, 323, 16, 34, 31, -4, 3, 8, 981, 904, 39,m
2025-03-12 12:25:25.020,775, 638, 273, -14, 13, 10, -4, 4, 6, 978, 909, 46,m
2025-03-12 12:25:25.078,763, 649, 279, -24, -23, -19, -5, 6, 7, 980, 933, 422,m
2025-03-12 12:25:25.128,796, 466, 473, -5, 18, 20, -4, 5, 7, 987, 933, 155,m
2025-03-12 12:25:25.178,759, 586, 388, -10, 17, 13, -5, 6, 3, 984, 930, 60,m
2025-03-12 12:25:25.243,839, 463, 760, 20, -28, -11, -2, 6, 6, 987, 947, 434,m
2025-03-12 12:25:25.297,475, 476, 229, -6, 35, 38, -4, 5, 7, 988, 938, 262,m
2025-03-12 12:25:25.347,896, 355, 228, -29, 29, -39, -4, 6, 5, 980, 888, 533,m
2025-03-12 12:25:25.407,610, 573, 698, -44, 25, -40, -3, 4, 4, 962, 863, 444,m
2025-03-12 12:25:25.713,724, 566, 441, 2, 1, -2, -3, 4, 5, 957, 837, 459,n
2025-03-12 12:25:25.767,722, 570, 447, 0, 0, -1, -5, 6, 4, 957, 836, 456,n
2025-03-12 12:25:25.817,720, 533, 439, 2, -3, 1, -3, 6, 4, 957, 837, 460,n
2025-03-12 12:25:25.871,737, 535, 429, 3, -2, -2, -3, 5, 6, 954, 836, 462,n
2025-03-12 12:25:25.927,697, 532, 451, -4, -1, -5, -4, 4, 6, 956, 840, 454,n
2025-03-12 12:25:25.981,698, 568, 484, -1, -13, 3, -3, 4, 7, 959, 863, 382,n
2025-03-12 12:25:26.031,727, 530, 540, 0, -11, -9, -3, 5, 5, 975, 908, 72,n
2025-03-12 12:25:26.087,649, 521, 345, 14, 36, 28, -4, 4, 5, 984, 902, 29,n
2025-03-12 12:25:26.141,772, 592, 383, -15, 16, 11, -3, 6, 5, 977, 907, 54,n
2025-03-12 12:25:26.194,738, 428, 523, -2, -26, -17, -3, 6, 8, 979, 932, 317,n
2025-03-12 12:25:26.247,458, 553, 379, -6, 30, 34, -3, 4, 7, 990, 937, 65,n
2025-03-12 12:25:26.297,827, 497, 634, 6, 10, 15, -2, 5, 6, 982, 894, 334,n
2025-03-12 12:25:26.357,747, 440, 525, -45, 62, -52, -4, 5, 4, 953, 863, 468,n
2025-03-12 12:25:26.668,711, 537, 467, 3, -8, 1, -5, 6, 4, 952, 841, 387,o
2025-03-12 12:25:26.721,723, 536, 458, 4, -7, 0, -1, 5, 5, 951, 845, 405,o
2025-03-12 12:25:26.772,730, 515, 471, 2, -3, 1, -5, 6, 4, 952, 844, 401,o
2025-03-12 12:25:26.825,732, 540, 453, 0, -4, 0, -3, 4, 6, 953, 854, 427,o
2025-03-12 12:25:26.874,743, 548, 409, 1, 0, 1, -4, 5, 5, 954, 851, 427,o
2025-03-12 12:25:26.927,715, 540, 468, 0, 2, 2, -4, 7, 5, 956, 849, 425,o
2025-03-12 12:25:26.976,747, 533, 418, 0, 2, 1, -5, 6, 5, 956, 853, 455,o
2025-03-12 12:25:27.027,714, 522, 479, -1, 3, -2, -4, 5, 6, 956, 851, 465,o
2025-03-12 12:25:27.077,715, 534, 464, 2, -4, 3, -6, 5, 5, 957, 858, 448,o
2025-03-12 12:25:27.127,726, 544, 425, -1, -4, 5, -3, 4, 6, 960, 868, 507,o
2025-03-12 12:25:27.187,705, 616, 405, -32, -6, -10, -3, 5, 7, 965, 910, 172,o
2025-03-12 12:25:27.243,765, 348, 560, 33, -12, -21, -3, 5, 6, 975, 927, 67,o
2025-03-12 12:25:27.297,1040, 642, 446, -27, 33, 39, -5, 5, 6, 985, 934, 33,o
2025-03-12 12:25:27.357,729, 344, 909, -26, -24, 0, -3, 6, 5, 981, 951, 44,o
2025-03-12 12:25:27.409,1086, 541, 115, 9, 12, -28, -4, 5, 4, 946, 890, 560,o
2025-03-12 12:25:27.467,467, 648, 800, -32, 58, -26, -3, 4, 4, 944, 828, 270,o
2025-03-12 12:25:27.758,634, 548, 528, -2, -5, 2, -5, 6, 5, 938, 807, 341,p
2025-03-12 12:25:27.810,666, 532, 521, 3, -9, 2, -5, 6, 5, 937, 803, 340,p
2025-03-12 12:25:27.868,775, 541, 393, 1, -5, -1, -4, 4, 5, 939, 809, 362,p
2025-03-12 12:25:27.919,698, 538, 496, -2, -6, -2, -4, 5, 5, 943, 822, 371,p
2025-03-12 12:25:27.975,697, 531, 490, -5, -17, -1, -2, 5, 7, 948, 841, 329,p
2025-03-12 12:25:28.028,756, 483, 590, -4, -4, -8, -4, 5, 7, 966, 886, 60,p
2025-03-12 12:25:28.077,195, 663, 432, 31, 38, 31, -5, 5, 5, 979, 878, 33,p
2025-03-12 12:25:28.127,713, 559, 288, -25, 38, 43, -3, 6, 4, 979, 866, 71,p
2025-03-12 12:25:28.191,741, 251, 586, 66, -73, -84, -3, 7, 4, 962, 898, 237,p
2025-03-12 12:25:28.247,628, 611, 673, -17, -37, -6, -3, 4, 5, 981, 949, 343,p
2025-03-12 12:25:28.298,782, 735, 92, -10, 37, 41, -5, 6, 5, 986, 950, 74,p
2025-03-12 12:25:28.349,788, 410, 447, 5, 27, 10, -3, 7, 6, 972, 850, 135,p
2025-03-12 12:25:28.409,677, 467, 432, -46, 60, -54, -3, 5, 5, 944, 812, 155,p
2025-03-12 12:25:28.688,695, 546, 488, -3, -3, 3, -4, 5, 6, 946, 820, 385,q
2025-03-12 12:25:28.741,704, 534, 483, -2, -4, 2, -4, 4, 5, 946, 818, 381,q
2025-03-12 12:25:28.792,726, 530, 447, 1, -2, 3, -3, 3, 5, 946, 819, 379,q
2025-03-12 12:25:28.847,732, 563, 452, -1, -8, 4, -4, 5, 5, 948, 824, 428,q
2025-03-12 12:25:28.897,722, 541, 446, -1, -12, 3, -3, 4, 7, 955, 854, 416,q
2025-03-12 12:25:28.948,728, 541, 458, -10, 2, -1, -3, 5, 7, 959, 873, 301,q
2025-03-12 12:25:29.007,754, 559, 456, -5, -4, -4, -3, 4, 6, 965, 903, 66,q
2025-03-12 12:25:29.060,690, 510, 570, -10, -4, -7, -4, 6, 6, 967, 917, 53,q
2025-03-12 12:25:29.110,569, 645, 366, 16, 7, -13, -3, 3, 8, 976, 892, 35,q
2025-03-12 12:25:29.160,736, 471, 483, 4, 5, 28, -3, 5, 5, 980, 918, 65,q
2025-03-12 12:25:29.221,620, 274, 724, 2, -26, -14, -3, 6, 6, 979, 942, 289,q
2025-03-12 12:25:29.277,715, 326, 616, 33, -16, -20, -3, 4, 8, 975, 918, 289,q
2025-03-12 12:25:29.327,762, 391, 262, -15, 24, 31, -3, 6, 7, 983, 881, 36,q
2025-03-12 12:25:29.377,726, 375, 606, -19, 7, 17, -3, 6, 4, 983, 945, 67,q
2025-03-12 12:25:29.442,1053, 396, -61, -18, 54, -39, -4, 8, 2, 963, 890, 173,q
2025-03-12 12:25:29.727,753, 589, 455, 28, 3, -6, -1, 2, 5, 918, 63, 676,r
2025-03-12 12:25:29.777,724, 583, 439, 27, 3, -5, -1, 2, 5, 919, 45, 683,r
2025-03-12 12:25:29.827,729, 613, 498, 22, -15, -20, -3, 3, 6, 919, 42, 680,r
2025-03-12 12:25:29.893,606, 598, 594, 22, -29, 0, -3, 1, 6, 941, 222, 702,r
2025-03-12 12:25:29.943,685, 629, 265, -1, -5, 29, -2, 2, 7, 955, 568, 725,r
2025-03-12 12:25:29.998,622, 611, 478, -14, -15, 16, -3, 3, 6, 963, 808, 740,r
2025-03-12 12:25:30.057,1873, 315, 112, -23, 2, -8, -3, 3, 7, 972, 913, 727,r
2025-03-12 12:25:30.109,788, 644, 471, 17, 12, 2, -6, 6, 6, 980, 923, 725,r
2025-03-12 12:25:30.159,765, 434, 451, -22, 11, 14, -3, 5, 5, 984, 920, 354,r
2025-03-12 12:25:30.220,565, 150, 380, -2, -44, -23, -3, 6, 5, 981, 952, 577,r
2025-03-12 12:25:30.273,910, 712, 114, -17, 37, 24, -3, 5, 7, 982, 934, 744,r
2025-03-12 12:25:30.329,490, 572, 731, -22, 45, -18, -2, 6, 4, 976, 894, 613,r
2025-03-12 12:25:30.637,695, 548, 444, 17, -20, 23, -4, 3, 7, 974, 897, 723,s
2025-03-12 12:25:30.691,744, 538, 407, 17, -18, 22, -4, 6, 5, 974, 898, 725,s
2025-03-12 12:25:30.742,816, 532, 333, -1, -1, 5, -5, 7, 5, 977, 908, 732,s
2025-03-12 12:25:30.797,686, 512, 528, 2, -12, 7, -4, 4, 7, 975, 923, 729,s
2025-03-12 12:25:30.847,743, 566, 373, -8, 6, -2, -5, 6, 6, 978, 935, 673,s
2025-03-12 12:25:30.908,666, 357, 612, 14, -9, -17, -4, 5, 5, 978, 932, 563,s
2025-03-12 12:25:30.959,764, 357, 426, 10, 7, -3, -3, 4, 7, 984, 941, 529,s
2025-03-12 12:25:31.009,656, 665, 537, -9, 12, 21, -3, 6, 5, 986, 944, 166,s
2025-03-12 12:25:31.067,754, 422, 323, 13, 23, -1, -4, 7, 5, 972, 863, 42,s
2025-03-12 12:25:31.118,808, 412, 186, -57, 90, -60, -3, 6, 6, 960, 809, 388,s
2025-03-12 12:25:31.177,280, 715, 735, -6, 2, -11, -2, 3, 0, 955, 837, 469,s
2025-03-12 12:25:31.477,750, 521, 488, -2, -6, -28, -3, 4, 3, 920, 659, 459,t
2025-03-12 12:25:31.537,780, 510, 501, -2, -6, -35, -3, 4, 3, 920, 652, 457,t
2025-03-12 12:25:31.591,666, 511, 500, 1, -20, -74, -1, 4, 2, 913, 492, 377,t
2025-03-12 12:25:31.647,427, 812, 458, -3, -10, -16, -2, -1, 4, 930, 481, 406,t
2025-03-12 12:25:31.707,504, 714, 512, 19, -32, 64, -3, 0, 4, 949, 703, 390,t
2025-03-12 12:25:31.761,834, 507, 274, -8, -27, 25, -3, 2, 5, 955, 799, 483,t
2025-03-12 12:25:31.817,588, 601, 635, -13, -47, 22, -5, 3, 7, 964, 910, 629,t
2025-03-12 12:25:31.869,748, 552, 224, 20, 2, -15, -5, 4, 8, 976, 921, 345,t
2025-03-12 12:25:31.924,950, 540, 336, -7, 53, 54, -3, 3, 6, 984, 932, 31,t
2025-03-12 12:25:31.977,710, 454, 615, -19, 7, 5, -3, 5, 5, 980, 937, 497,t
2025-03-12 12:25:32.027,286, 642, 822, -9, -18, -40, -4, 3, 5, 966, 877, 481,t
2025-03-12 12:25:32.077,991, 339, 7, 37, -6, -8, -5, 3, 8, 983, 948, 374,t
2025-03-12 12:25:32.137,731, 447, 534, 7, 14, 41, -4, 6, 5, 984, 953, 598,t
2025-03-12 12:25:32.192,615, 516, 295, -19, 69, -52, -4, 6, 6, 971, 897, 596,t
2025-03-12 12:25:32.247,455, 522, 831, -7, -8, -2, -3, 3, 3, 959, 806, 371,t
2025-03-12 12:25:32.829,711, 558, 441, 0, -6, 3, -4, 4, 5, 939, 810, 316,u
2025-03-12 12:25:32.878,707, 547, 431, 1, -5, 2, -5, 3, 3, 940, 808, 317,u
2025-03-12 12:25:32.930,718, 567, 450, 1, -2, 1, -4, 4, 5, 939, 804, 298,u
2025-03-12 12:25:32.989,725, 561, 464, 7, -4, 4, -3, 3, 8, 942, 806, 346,u
2025-03-12 12:25:33.037,721, 544, 421, 8, 2, 2, -4, 3, 5, 942, 802, 373,u
2025-03-12 12:25:33.091,708, 550, 440, 7, 3, -1, -4, 6, 6, 940, 797, 378,u
2025-03-12 12:25:33.141,709, 544, 419, 0, -5, -4, -4, 4, 7, 938, 799, 385,u
2025-03-12 12:25:33.197,682, 429, 401, -47, -10, -16, -4, 3, 6, 951, 818, 48,u
2025-03-12 12:25:33.247,900, 456, 481, 41, 15, 15, -3, 2, 5, 977, 873, 43,u
2025-03-12 12:25:33.297,789, 730, 177, -18, 21, 29, -4, 4, 5, 980, 928, 37,u
2025-03-12 12:25:33.358,696, 502, 545, -6, -21, -22, -4, 4, 5, 972, 932, 423,u
2025-03-12 12:25:33.418,935, 1058, 102, 14, 10, 21, -5, 5, 6, 981, 927, 237,u
2025-03-12 12:25:33.472,839, 443, 328, -17, 19, 6, -2, 5, 5, 978, 877, 285,u
2025-03-12 12:25:33.525,600, 501, 637, -22, 28, -42, -2, 4, 5, 955, 839, 396,u
2025-03-12 12:25:34.248,696, 551, 488, 1, -2, 0, -3, 5, 3, 927, 706, 54,v
2025-03-12 12:25:34.297,696, 552, 480, 1, -2, 0, -3, 4, 5, 926, 706, 41,v
2025-03-12 12:25:34.347,708, 532, 467, 1, 0, -1, -4, 6, 4, 925, 711, 134,v
2025-03-12 12:25:34.405,671, 554, 490, 1, -1, 1, -3, 6, 6, 928, 723, 183,v
2025-03-12 12:25:34.458,661, 545, 530, 14, -8, 5, -4, 6, 4, 933, 734, 160,v
2025-03-12 12:25:34.508,743, 554, 408, 7, 1, 4, -2, 4, 6, 934, 733, 216,v
2025-03-12 12:25:34.558,722, 546, 465, 0, 4, 0, -1, 6, 5, 935, 739, 215,v
2025-03-12 12:25:34.607,671, 557, 475, 4, -4, -3, -3, 4, 4, 939, 756, 228,v
2025-03-12 12:25:34.667,649, 542, 485, 19, -22, -6, -2, 3, 5, 938, 805, 389,v
2025-03-12 12:25:34.724,728, 569, 333, -23, -3, -12, -4, 5, 5, 957, 904, 239,v
2025-03-12 12:25:34.777,933, 753, 482, 31, -1, 21, -4, 3, 5, 980, 918, 325,v
2025-03-12 12:25:34.827,686, 732, -52, -18, 6, 22, -4, 5, 5, 984, 941, 44,v
2025-03-12 12:25:34.889,493, 481, 605, 31, -17, -21, -5, 6, 5, 976, 948, 391,v
2025-03-12 12:25:34.943,711, 411, 203, -42, 91, -27, -5, 5, 3, 956, 878, 543,v
2025-03-12 12:25:34.997,443, 608, 750, -17, 22, 1, -3, 5, 2, 945, 751, 318,v
2025-03-12 12:25:35.304,724, 556, 441, 6, -5, -1, -3, 4, 5, 914, 723, 244,w
2025-03-12 12:25:35.347,722, 560, 441, 4, -3, -1, -1, 5, 4, 917, 732, 258,w
2025-03-12 12:25:35.405,725, 511, 478, 9, -1, -2, -4, 5, 5, 915, 710, 224,w
2025-03-12 12:25:35.462,702, 549, 440, -1, -1, -2, -3, 4, 5, 921, 725, 226,w
2025-03-12 12:25:35.509,718, 558, 474, 0, -1, -1, -4, 4, 5, 923, 746, 264,w
2025-03-12 12:25:35.565,737, 546, 424, -2, 0, -4, -3, 2, 4, 918, 732, 235,w
2025-03-12 12:25:35.619,701, 603, 489, 1, -3, 1, -5, 5, 5, 924, 754, 257,w
2025-03-12 12:25:35.672,644, 534, 474, 5, -5, -2, -4, 3, 5, 924, 774, 260,w
2025-03-12 12:25:35.727,651, 558, 530, 15, -22, -3, -4, 4, 5, 929, 797, 155,w
2025-03-12 12:25:35.778,817, 490, 369, 0, -3, -14, -3, 3, 6, 957, 881, 45,w
2025-03-12 12:25:35.828,760, 840, 166, -51, 35, 69, -5, 2, 6, 981, 905, 40,w
2025-03-12 12:25:35.888,793, 604, 431, -47, 6, 22, -2, 5, 5, 982, 940, 65,w
2025-03-12 12:25:35.942,661, 498, 720, 18, -11, -13, -4, 5, 5, 977, 944, 142,w
2025-03-12 12:25:35.992,792, 576, 234, -1, 11, 29, -3, 6, 7, 986, 948, 73,w
2025-03-12 12:25:36.048,779, 362, 570, -1, -15, 5, -2, 8, 5, 981, 949, 47,w
2025-03-12 12:25:36.106,664, 441, 369, -41, 95, -49, -3, 5, 4, 970, 927, 446,w
2025-03-12 12:25:36.425,767, 524, 402, -2, -1, -2, -2, 4, 7, 958, 842, 517,x
2025-03-12 12:25:36.477,755, 520, 403, -4, 1, -4, -3, 4, 4, 956, 841, 505,x
2025-03-12 12:25:36.527,700, 531, 498, -2, -5, 0, -3, 6, 6, 961, 851, 516,x
2025-03-12 12:25:36.578,734, 520, 440, 3, -8, 0, -4, 4, 5, 958, 860, 539,x
2025-03-12 12:25:36.628,752, 541, 411, -2, 2, -3, -4, 6, 5, 960, 862, 553,x
2025-03-12 12:25:36.688,717, 536, 467, 0, -1, 0, -3, 6, 6, 960, 872, 578,x
2025-03-12 12:25:36.741,733, 535, 436, 0, -1, 0, -3, 4, 6, 961, 882, 598,x
2025-03-12 12:25:36.790,728, 540, 460, 2, -3, 1, -3, 5, 5, 964, 891, 588,x
2025-03-12 12:25:36.843,734, 524, 437, -2, -1, 1, -3, 6, 4, 962, 899, 595,x
2025-03-12 12:25:36.899,1627, 415, 434, -15, -10, -10, -2, 5, 6, 969, 924, 452,x
2025-03-12 12:25:36.952,255, 404, 514, 32, 21, -4, -5, 5, 8, 977, 930, 61,x
2025-03-12 12:25:37.007,896, 625, 282, -32, 26, 10, -3, 5, 5, 969, 804, 32,x
2025-03-12 12:25:37.058,609, 356, 607, 11, -20, -59, -3, 3, 6, 920, 801, 261,x
2025-03-12 12:25:37.121,956, 880, 207, -8, -20, -1, -3, 3, 7, 976, 933, 235,x
2025-03-12 12:25:37.174,667, 608, 504, -16, 23, 52, -5, 6, 4, 979, 924, 222,x
2025-03-12 12:25:37.228,685, 460, 293, -7, 41, -53, -4, 6, 4, 950, 849, 515,x
2025-03-12 12:25:37.478,740, 558, 447, 1, -5, 0, -4, 6, 3, 908, 706, 256,y
2025-03-12 12:25:37.533,737, 569, 431, -3, -3, -1, -3, 4, 6, 908, 702, 244,y
2025-03-12 12:25:37.588,698, 557, 494, 0, -1, -1, -4, 5, 5, 912, 728, 269,y
2025-03-12 12:25:37.640,705, 522, 475, 4, -6, -2, -3, 3, 5, 915, 737, 268,y
2025-03-12 12:25:37.691,710, 543, 423, -3, 2, -1, -4, 5, 5, 913, 738, 268,y
2025-03-12 12:25:37.741,688, 571, 473, -2, -2, 1, -3, 3, 4, 913, 732, 262,y
2025-03-12 12:25:37.797,709, 546, 443, -5, 2, -1, -3, 5, 4, 919, 739, 271,y
2025-03-12 12:25:37.847,700, 543, 474, 0, 2, -1, -3, 5, 4, 911, 709, 247,y
2025-03-12 12:25:40.730,640, 646, 473, -2, -1, -13, -2, 1, 4, 852, 513, 168,z
2025-03-12 12:25:40.787,647, 653, 472, -5, 1, -13, -3, 1, 3, 850, 504, 166,z
2025-03-12 12:25:40.841,601, 626, 542, -1, -14, -9, -2, 2, 2, 845, 516, 144,z
2025-03-12 12:25:40.898,620, 670, 505, -4, -17, 15, -4, 1, 3, 840, 496, 153,z
2025-03-12 12:25:40.951,597, 563, 423, 3, -7, 35, -3, 0, 4, 840, 535, 148,z
2025-03-12 12:25:41.005,605, 580, 347, 4, 11, 6, -3, 0, 6, 831, 498, 169,z
2025-03-12 12:25:41.057,626, 568, 488, 2, 3, 13, -4, 2, 3, 842, 525, 266,z
2025-03-12 12:25:41.106,805, 706, 502, 6, -7, 0, -1, 3, 6, 838, 523, 298,z
2025-03-12 12:25:41.159,660, 532, 473, 7, -8, 4, -3, 3, 4, 844, 529, 279,z
2025-03-12 12:25:41.207,676, 590, 411, -6, 5, 1, -3, 2, 4, 849, 546, 336,z
2025-03-12 12:25:41.267,695, 613, 452, -7, -3, 5, -3, 2, 5, 865, 577, 384,z
2025-03-12 12:25:41.316,699, 578, 441, -7, 1, 6, -2, 4, 5, 888, 631, 416,z
2025-03-12 12:25:41.367,701, 554, 481, -5, 1, 7, -2, 2, 4, 918, 720, 515,z
2025-03-12 12:25:41.422,653, 589, 481, 5, -1, 13, -3, 4, 5, 937, 775, 577,z
2025-03-12 12:25:41.471,718, 587, 426, 1, 2, 6, -1, 1, 5, 941, 796, 590,z
2025-03-12 12:25:41.525,718, 559, 434, -1, 6, 3, -3, 3, 6, 947, 825, 581,z
2025-03-12 12:25:41.577,733, 591, 471, 0, -1, 3, -3, 4, 4, 950, 813, 497,z
2025-03-12 12:25:41.628,416, 538, 712, 16, -25, 20, -2, 4, 3, 958, 819, 303,z
2025-03-12 12:25:41.688,929, 645, 25, -22, -15, -11, -3, 5, 5, 973, 921, 41,z
2025-03-12 12:25:41.740,393, 314, 741, 12, 12, 52, -2, 6, 4, 984, 952, 203,z
2025-03-12 12:25:41.791,162, 440, 395, 9, 29, -6, -3, 5, 5, 978, 920, 175,z
2025-03-12 12:25:41.841,875, 526, 386, 6, 9, -9, -2, 6, 4, 976, 890, 25,z
2025-03-12 12:25:41.897,620, 469, 368, -27, 17, 42, -3, 6, 4, 985, 947, 70,z
2025-03-12 12:25:41.954,888, 173, 406, -12, 20, -22, -4, 6, 7, 974, 909, 209,z
2025-03-12 12:25:42.007,556, 653, 1134, 59, -52, -7, -4, 6, 3, 964, 810, 300,z
2025-03-12 12:25:42.065,828, 746, 276, -7, -4, 25, -5, 7, 4, 985, 953, 195,z
2025-03-12 12:25:42.117,607, 597, 556, 11, 7, 26, -4, 6, 5, 980, 922, 351,z
2025-03-12 12:25:42.171,727, 437, 295, -67, 94, -60, -2, 5, 2, 947, 706, 49,z
2025-03-12 12:25:42.228,433, 548, 856, -24, 23, -28, -1, 5, 1, 924, 543, 72,z
2025-03-12 12:25:42.277,632, 567, 632, 21, -31, 5, 0, 5, -1, 904, 487, 185,z
2025-03-12 12:25:42.847,800, 673, 609, -1, 2, -9, -3, 4, 2, 829, 492, 460,0
2025-03-12 12:25:42.897,785, 690, 583, -6, 2, -9, -2, 3, 5, 831, 507, 470,0
2025-03-12 12:25:42.955,507, 525, 568, 2, -6, 11, -2, 5, 3, 851, 554, 374,0
2025-03-12 12:25:43.007,766, 613, 426, 12, -34, 17, -3, 4, 4, 873, 633, 500,0
2025-03-12 12:25:43.060,784, 560, 392, -4, -2, -4, -3, 2, 5, 900, 701, 541,0
2025-03-12 12:25:43.110,666, 568, 504, -3, 1, -2, -3, 3, 6, 918, 757, 557,0
2025-03-12 12:25:43.167,669, 573, 463, -1, -8, 7, -4, 4, 4, 927, 767, 538,0
2025-03-12 12:25:43.220,773, 562, 380, 1, -2, 4, -3, 4, 6, 931, 781, 531,0
2025-03-12 12:25:43.267,715, 571, 458, -2, 5, 1, -3, 5, 5, 934, 777, 484,0
2025-03-12 12:25:43.323,686, 571, 435, 1, 4, 2, -2, 4, 5, 937, 788, 513,0
2025-03-12 12:25:43.374,690, 573, 447, -1, 1, 4, -3, 3, 7, 937, 792, 514,0
2025-03-12 12:25:43.425,725, 559, 417, 6, 0, 9, -3, 5, 4, 944, 804, 549,0
2025-03-12 12:25:43.474,721, 555, 435, 1, 1, 3, -1, 5, 6, 946, 819, 571,0
2025-03-12 12:25:43.527,614, 558, 471, -10, -13, 3, -4, 5, 5, 948, 865, 508,0
2025-03-12 12:25:43.589,1083, 594, 545, -37, -12, -19, -3, 6, 5, 958, 929, 61,0
2025-03-12 12:25:43.641,506, 751, 182, 86, 6, -24, -4, 5, 4, 973, 897, 53,0
2025-03-12 12:25:43.691,292, 672, 45, -104, 74, 123, -3, 5, 5, 984, 942, 46,0
2025-03-12 12:25:43.753,31, -45, 1170, 22, -47, -54, -3, 8, 6, 981, 958, 345,0
2025-03-12 12:25:43.805,1083, 623, 75, 29, 11, -29, -3, 5, 4, 954, 926, 681,0
2025-03-12 12:25:43.858,655, 630, 471, -42, 67, -9, -3, 2, 5, 955, 892, 617,0
2025-03-12 12:25:43.917,498, 589, 649, -7, 2, 16, -3, 3, 3, 951, 810, 509,0
2025-03-12 12:25:43.970,679, 496, 571, 9, -32, 12, -2, 5, 2, 944, 793, 501,0
2025-03-12 12:25:44.023,797, 486, 342, -5, -2, -6, -2, 4, 5, 939, 797, 496,0
2025-03-12 12:25:44.074,676, 567, 518, -6, 9, -11, -2, 5, 3, 939, 807, 445,0
2025-03-12 12:25:44.127,655, 568, 508, -2, -4, -1, -3, 5, 5, 930, 800, 406,0
2025-03-12 12:25:44.180,734, 524, 458, 3, -6, 0, -1, 5, 4, 927, 792, 429,0
2025-03-12 12:25:44.236,690, 559, 493, -2, 2, -2, -3, 4, 4, 923, 773, 373,0
2025-03-12 12:25:44.697,474, 635, 515, 3, -12, 13, -2, 2, 3, 946, 780, 383,1
2025-03-12 12:25:44.756,495, 657, 495, 10, -15, 17, -1, 2, 6, 946, 781, 360,1
2025-03-12 12:25:44.810,697, 585, 442, 14, -16, 28, -4, 4, 4, 954, 817, 371,1
2025-03-12 12:25:44.867,827, 513, 353, 10, -17, 23, -4, 4, 6, 958, 839, 398,1
2025-03-12 12:25:44.920,723, 575, 454, -2, 7, 2, -4, 4, 6, 962, 859, 433,1
2025-03-12 12:25:44.969,602, 545, 577, 7, -10, 9, -4, 3, 7, 965, 866, 408,1
2025-03-12 12:25:45.023,907, 575, 224, -9, 0, -6, -3, 2, 7, 972, 910, 51,1
2025-03-12 12:25:45.074,625, 521, 456, -1, -2, 20, -5, 4, 6, 980, 947, 462,1
2025-03-12 12:25:45.127,772, 612, 333, 43, 2, 6, -6, 4, 6, 984, 940, 549,1
2025-03-12 12:25:45.177,961, 483, 499, -28, 44, 34, -4, 5, 7, 983, 904, 72,1
2025-03-12 12:25:45.236,422, 407, 648, 1, 39, -30, -4, 5, 4, 969, 695, 156,1
2025-03-12 12:25:45.290,869, 599, 133, -37, -17, 1, -4, 6, 3, 979, 930, 65,1
2025-03-12 12:25:45.341,310, 400, 620, 12, 7, 46, -1, 7, 4, 984, 943, 111,1
2025-03-12 12:25:45.397,754, 519, 100, -35, 88, -72, -4, 7, 4, 964, 848, 457,1
2025-03-12 12:25:45.902,721, 564, 443, 1, -10, 3, -4, 6, 4, 912, 707, 349,2
2025-03-12 12:25:45.957,723, 564, 434, 1, -9, 2, -4, 6, 4, 914, 715, 360,2
2025-03-12 12:25:46.008,723, 537, 457, 1, -3, -1, -4, 5, 5, 923, 752, 379,2
2025-03-12 12:25:46.060,713, 539, 470, 0, -5, 1, -4, 5, 4, 929, 781, 324,2
2025-03-12 12:25:46.111,723, 567, 428, -3, -2, -1, -3, 4, 5, 932, 799, 338,2
2025-03-12 12:25:46.169,720, 565, 455, -2, -6, -6, -3, 5, 4, 933, 802, 189,2
2025-03-12 12:25:46.222,740, 555, 382, -1, -3, -2, -2, 3, 4, 933, 797, 197,2
2025-03-12 12:25:46.273,645, 432, 508, -4, -4, -15, -3, 5, 6, 940, 817, 30,2
2025-03-12 12:25:46.333,784, 329, 351, 38, -11, -16, -4, 5, 7, 966, 922, 49,2
2025-03-12 12:25:46.378,721, 405, 567, 12, 2, 17, -4, 3, 7, 979, 936, 528,2
2025-03-12 12:25:46.436,605, 680, 391, -35, 32, 3, -4, 6, 6, 973, 845, 38,2
2025-03-12 12:25:46.488,939, 573, 162, 3, 2, 2, -5, 6, 4, 980, 923, 40,2
2025-03-12 12:25:46.538,686, 350, 458, 11, 15, 38, -4, 5, 7, 981, 939, 40,2
2025-03-12 12:25:46.588,732, 506, 201, -31, 77, -50, -3, 7, 4, 956, 842, 277,2
2025-03-12 12:25:46.652,415, 629, 865, -21, 9, -32, -2, 6, 3, 914, 598, 173,2
2025-03-12 12:25:46.968,694, 573, 460, 1, -12, -1, -3, 5, 5, 917, 770, 293,3
2025-03-12 12:25:47.022,698, 565, 457, 2, -13, 0, -3, 4, 5, 918, 778, 303,3
2025-03-12 12:25:47.073,726, 542, 438, 1, -10, 1, -3, 4, 4, 925, 793, 370,3
2025-03-12 12:25:47.127,735, 567, 421, -4, -4, -1, -4, 5, 5, 924, 802, 368,3
2025-03-12 12:25:47.177,704, 542, 437, -9, -2, -5, -3, 5, 4, 932, 816, 346,3
2025-03-12 12:25:47.228,570, 537, 581, 1, -25, 5, -3, 4, 6, 944, 833, 176,3
2025-03-12 12:25:47.289,829, 257, 218, 25, -7, -13, -3, 3, 7, 972, 921, 73,3
2025-03-12 12:25:47.340,646, 603, 523, 9, 6, 14, -3, 5, 6, 980, 934, 462,3
2025-03-12 12:25:47.390,915, 538, 345, -1, 14, 6, -3, 4, 7, 980, 909, 50,3
2025-03-12 12:25:47.447,779, 673, 334, -1, 20, 3, -3, 5, 6, 979, 901, 40,3
2025-03-12 12:25:47.495,626, 872, 64, 1, 39, 29, -3, 6, 6, 981, 896, 28,3
2025-03-12 12:25:47.548,737, 539, 332, 36, 24, 10, -2, 5, 5, 952, 677, 42,3
2025-03-12 12:25:47.607,700, 435, 237, -45, 87, -56, -2, 5, 1, 742, 556, 215,3
2025-03-12 12:25:47.658,405, 664, 828, -15, -2, -16, -1, 5, 0, 757, 707, 348,3
2025-03-12 12:25:47.717,613, 575, 585, 16, -41, 13, -1, 3, 1, 769, 693, 377,3
2025-03-12 12:25:47.771,808, 494, 371, 5, -17, 5, -1, 3, 3, 810, 690, 369,3
2025-03-12 12:25:47.823,686, 588, 507, -9, 5, -6, -2, 5, 4, 824, 680, 288,3
2025-03-12 12:25:48.127,672, 563, 473, -2, -2, 0, -3, 3, 5, 863, 636, 223,4
2025-03-12 12:25:48.178,685, 551, 489, -1, -2, -1, -3, 4, 1, 867, 641, 238,4
2025-03-12 12:25:48.227,686, 571, 495, -1, -5, -1, -3, 5, 4, 854, 642, 242,4
2025-03-12 12:25:48.287,685, 554, 499, -2, -5, -3, -2, 4, 4, 854, 649, 277,4
2025-03-12 12:25:48.340,684, 569, 475, -2, -8, -1, -2, 4, 3, 843, 645, 263,4
2025-03-12 12:25:48.389,678, 583, 490, 3, -10, 7, -2, 5, 4, 870, 690, 301,4
2025-03-12 12:25:48.447,722, 561, 452, 1, -13, 4, -1, 5, 5, 873, 709, 293,4
2025-03-12 12:25:48.498,723, 554, 465, -5, -16, 1, -3, 4, 4, 900, 770, 379,4
2025-03-12 12:25:48.553,674, 544, 516, 0, -28, 6, -3, 4, 5, 933, 824, 468,4
2025-03-12 12:25:48.610,695, 666, 356, -2, -20, -11, -4, 5, 7, 964, 892, 222,4
2025-03-12 12:25:48.657,686, 672, 370, 18, 20, 9, -5, 4, 4, 971, 842, 31,4
2025-03-12 12:25:48.711,865, 407, 276, 13, 6, 2, -4, 6, 5, 978, 906, 41,4
2025-03-12 12:25:48.764,314, 381, 321, -9, 14, 37, -4, 7, 7, 986, 956, 219,4
2025-03-12 12:25:48.821,755, 431, 412, 11, 4, -12, -3, 6, 6, 972, 920, 612,4
2025-03-12 12:25:48.872,691, 668, 811, 14, -29, -10, -3, 5, 5, 970, 901, 631,4
2025-03-12 12:25:48.927,897, 1328, -71, 10, 42, 53, -2, 3, 7, 988, 942, 341,4
2025-03-12 12:25:48.987,707, 544, 473, 23, 28, 22, -4, 6, 4, 980, 823, 187,4
2025-03-12 12:25:49.038,718, 468, 247, -40, 46, -64, -4, 5, 4, 926, 801, 533,4
2025-03-12 12:25:49.329,709, 537, 472, 2, -6, 1, -4, 7, 4, 948, 829, 519,5
2025-03-12 12:25:49.385,728, 539, 461, 1, -5, 0, -4, 7, 5, 948, 828, 516,5
2025-03-12 12:25:49.442,726, 533, 439, -5, -3, -4, -3, 5, 4, 945, 824, 487,5
2025-03-12 12:25:49.494,686, 564, 480, -5, -8, -4, -4, 6, 5, 948, 827, 382,5
2025-03-12 12:25:49.547,732, 524, 431, -6, -9, 1, -4, 6, 6, 950, 814, 131,5
2025-03-12 12:25:49.602,815, 391, 501, 8, -7, -10, -4, 5, 4, 970, 897, 72,5
2025-03-12 12:25:49.655,571, 597, 329, -13, 6, 23, -4, 3, 8, 980, 938, 413,5
2025-03-12 12:25:49.707,527, 277, 556, 22, -8, -27, -5, 5, 5, 972, 923, 542,5
2025-03-12 12:25:49.762,1004, 667, 371, 26, 16, -3, -6, 4, 6, 978, 910, 294,5
2025-03-12 12:25:49.818,586, 794, 155, -32, 28, 34, -4, 5, 6, 984, 938, 74,5
2025-03-12 12:25:49.872,1026, 372, 396, 21, 21, -7, -1, 5, 7, 962, 806, 65,5
2025-03-12 12:25:49.927,761, 447, 215, -49, 72, -51, -3, 4, 2, 841, 658, 205,5
2025-03-12 12:25:50.212,680, 553, 490, 1, -4, 6, -4, 6, 2, 940, 803, 494,6
2025-03-12 12:25:50.257,705, 552, 485, 2, -5, 7, -4, 6, 2, 942, 808, 514,6
2025-03-12 12:25:50.319,745, 518, 424, -3, -3, 0, -3, 4, 6, 946, 812, 530,6
2025-03-12 12:25:50.368,667, 546, 485, -3, -5, 6, -2, 5, 6, 953, 829, 565,6
2025-03-12 12:25:50.423,717, 569, 418, -11, -12, 7, -3, 6, 6, 961, 869, 502,6
2025-03-12 12:25:50.478,708, 524, 611, -23, -5, -11, -2, 4, 5, 967, 932, 58,6
2025-03-12 12:25:50.527,764, 375, 536, 126, 37, 2, -4, 5, 5, 979, 904, 45,6
2025-03-12 12:25:50.587,909, 608, 109, -28, 43, 52, -4, 6, 1, 985, 938, 64,6
2025-03-12 12:25:50.637,429, 139, 701, 14, -32, -32, -2, 6, 4, 968, 941, 72,6
2025-03-12 12:25:50.688,1147, 641, 203, 8, 14, -32, -3, 5, 5, 923, 800, 239,6
2025-03-12 12:25:50.752,637, 549, 593, -36, 66, -26, -3, 6, 2, 916, 671, 31,6
2025-03-12 12:25:51.011,699, 561, 500, 5, -12, 1, -2, 4, 5, 932, 800, 67,7
2025-03-12 12:25:51.057,702, 557, 493, 3, -12, 1, -5, 7, 4, 931, 797, 58,7
2025-03-12 12:25:51.117,640, 527, 514, -2, -19, -2, -4, 5, 5, 932, 781, 38,7
2025-03-12 12:25:51.170,1114, 435, 325, -54, -10, -16, -5, 6, 4, 949, 830, 41,7
2025-03-12 12:25:51.227,592, 674, 247, -8, -11, 37, -3, 6, 5, 972, 927, 159,7
2025-03-12 12:25:51.277,450, 625, 590, 34, 6, 15, -3, 5, 6, 980, 931, 41,7
2025-03-12 12:25:51.334,609, 296, 480, 13, 33, 39, -3, 7, 4, 982, 902, 69,7
2025-03-12 12:25:51.387,755, 309, 763, -15, -6, -23, -2, 7, 4, 963, 802, 29,7
2025-03-12 12:25:51.438,779, 452, 741, 7, -10, -25, -3, 4, 5, 972, 909, 63,7
2025-03-12 12:25:51.487,452, 628, 138, -25, 5, 55, -3, 6, 5, 986, 949, 31,7
2025-03-12 12:25:51.547,902, 295, 104, 1, 43, -40, -4, 7, 5, 974, 897, 398,7
2025-03-12 12:25:51.604,593, 551, 716, -38, 59, -52, -1, 5, 5, 937, 727, 166,7
2025-03-12 12:25:51.887,695, 528, 469, 16, -19, 18, -2, 6, 1, 952, 803, 307,8
2025-03-12 12:25:51.937,703, 530, 487, 15, -19, 19, -4, 6, 4, 953, 804, 320,8
2025-03-12 12:25:51.997,747, 555, 395, -2, -15, 7, -2, 7, 5, 958, 831, 253,8
2025-03-12 12:25:52.052,662, 712, 508, -35, 3, -8, -4, 7, 4, 961, 892, 53,8
2025-03-12 12:25:52.104,734, 413, 469, 8, -2, -27, -4, 7, 4, 970, 891, 25,8
2025-03-12 12:25:52.157,543, 798, 168, -89, 46, 88, -3, 9, 4, 986, 929, 66,8
2025-03-12 12:25:52.207,666, 591, 800, -17, -7, 6, -4, 8, 4, 983, 949, 34,8
2025-03-12 12:25:52.268,1035, 463, 333, -1, -43, -67, -3, 5, 6, 975, 958, 316,8
2025-03-12 12:25:52.321,621, 829, 382, -16, -1, 18, -4, 5, 5, 986, 958, 44,8
2025-03-12 12:25:52.373,764, 415, 300, -3, 23, 24, -3, 6, 4, 984, 920, 60,8
2025-03-12 12:25:52.428,927, 474, 189, 4, 65, -66, -2, 6, 2, 932, 828, 290,8
2025-03-12 12:25:52.687,720, 561, 454, -3, -4, 3, -3, 4, 5, 943, 813, 281,9
2025-03-12 12:25:52.747,722, 545, 443, -3, -4, 4, -6, 5, 4, 943, 810, 276,9
2025-03-12 12:25:52.801,696, 530, 503, 0, -10, 6, -3, 6, 4, 948, 819, 378,9
2025-03-12 12:25:52.854,714, 570, 431, -1, -23, 7, -2, 5, 4, 959, 868, 312,9
2025-03-12 12:25:52.907,700, 532, 633, -21, -4, -15, -4, 7, 5, 963, 921, 30,9
2025-03-12 12:25:52.957,1061, 933, 174, 30, 14, 7, -4, 5, 6, 982, 925, 68,9
2025-03-12 12:25:53.012,870, 151, 534, 9, 31, 27, -3, 6, 4, 980, 932, 33,9
2025-03-12 12:25:53.068,709, 314, 633, 47, -25, -32, -2, 6, 6, 965, 915, 484,9
2025-03-12 12:25:53.119,311, 1027, 115, -70, 45, 52, -2, 6, 6, 982, 916, 29,9
2025-03-12 12:25:53.177,857, 345, 259, -19, 38, 17, -3, 8, 1, 966, 847, 60,9
2025-03-12 12:25:53.234,1275, 435, 76, -22, 50, -89, -1, 5, 1, 792, 575, 55,9
2025-03-12 12:25:53.513,773, 538, 416, -7, -5, 1, -2, 6, 6, 946, 836, 503,+
2025-03-12 12:25:53.562,747, 491, 447, -7, -6, -3, -2, 6, 6, 948, 837, 503,+
2025-03-12 12:25:53.619,715, 525, 492, -3, 1, -4, -4, 6, 4, 950, 836, 501,+
2025-03-12 12:25:53.675,723, 543, 441, -5, -7, -4, -3, 6, 4, 951, 841, 486,+
2025-03-12 12:25:53.727,734, 525, 469, -5, -6, -2, -3, 5, 4, 949, 848, 444,+
2025-03-12 12:25:53.777,720, 535, 453, -3, -2, -3, -3, 5, 6, 948, 849, 450,+
2025-03-12 12:25:53.837,717, 559, 426, -3, -11, 0, -2, 6, 4, 950, 870, 383,+
2025-03-12 12:25:53.889,734, 489, 521, -10, -6, -7, -3, 6, 6, 963, 917, 45,+
2025-03-12 12:25:53.937,770, 614, 390, 73, 11, 17, -2, 5, 6, 980, 914, 21,+
2025-03-12 12:25:53.987,846, 475, 186, 0, 33, 36, -2, 7, 4, 981, 896, 68,+
2025-03-12 12:25:54.052,671, 256, 885, -19, -15, -19, -3, 7, 5, 961, 826, 50,+
2025-03-12 12:25:54.107,818, 475, 724, -1, -4, -28, -2, 7, 4, 966, 890, 60,+
2025-03-12 12:25:54.157,677, 735, 224, -38, -11, 47, -2, 6, 4, 987, 952, 36,+
2025-03-12 12:25:54.212,800, 330, 415, 26, 9, -20, -3, 8, 4, 978, 919, 484,+
2025-03-12 12:25:54.522,675, 528, 520, 3, 0, 2, -3, 5, 3, 909, 670, 224,-
2025-03-12 12:25:54.570,688, 532, 518, 5, 0, 2, -1, 6, 5, 905, 656, 223,-
2025-03-12 12:25:54.631,719, 534, 447, -2, -3, -2, -2, 6, 4, 898, 633, 195,-
2025-03-12 12:25:54.685,686, 544, 511, 4, -1, -1, -2, 6, 2, 899, 656, 217,-
2025-03-12 12:25:54.738,701, 554, 480, 6, -10, -2, -3, 6, 4, 893, 675, 250,-
2025-03-12 12:25:54.787,651, 506, 519, 4, -17, 0, -3, 4, 3, 906, 690, 66,-
2025-03-12 12:25:54.838,759, 427, 414, 42, -16, -17, -3, 5, 3, 970, 912, 60,-
2025-03-12 12:25:54.902,447, 505, 204, -18, -12, 48, -3, 6, 5, 988, 954, 140,-
2025-03-12 12:25:54.950,707, 492, 443, 12, 3, 9, -3, 7, 5, 985, 945, 225,-
2025-03-12 12:25:55.003,812, 361, 285, 8, 37, -27, -2, 5, 6, 957, 852, 538,-
2025-03-12 12:25:55.057,629, 633, 718, -16, 24, -20, -2, 6, 3, 929, 774, 288,-
2025-03-12 12:25:55.114,710, 559, 471, 7, -13, -3, -3, 4, 3, 919, 714, 406,-
2025-03-12 12:25:55.350,751, 540, 413, -3, -3, 0, -2, 5, 3, 936, 723, 396,÷
2025-03-12 12:25:55.405,754, 537, 416, -5, 0, -1, -2, 6, 4, 936, 723, 393,÷
2025-03-12 12:25:55.457,695, 551, 488, -1, 2, -2, -3, 5, 4, 935, 732, 387,÷
2025-03-12 12:25:55.511,741, 527, 451, -1, 0, 0, -3, 4, 3, 932, 725, 360,÷
2025-03-12 12:25:55.562,714, 557, 463, -3, 0, -2, -4, 6, 3, 934, 727, 329,÷
2025-03-12 12:25:55.618,708, 549, 480, -4, -1, -2, -3, 5, 4, 932, 694, 277,÷
2025-03-12 12:25:55.669,711, 539, 454, -1, -1, -3, -3, 5, 4, 928, 707, 287,÷
2025-03-12 12:25:55.719,696, 542, 474, -1, -1, -2, -3, 5, 3, 922, 706, 307,÷
2025-03-12 12:25:55.777,718, 529, 457, -5, -2, 0, -2, 5, 4, 928, 720, 308,÷
2025-03-12 12:25:55.827,709, 555, 461, -6, -1, 3, -3, 5, 4, 940, 756, 308,÷
2025-03-12 12:25:55.885,736, 542, 449, -2, -5, 3, -3, 6, 3, 948, 789, 370,÷
2025-03-12 12:25:55.937,679, 551, 509, 4, -5, 7, -3, 5, 3, 956, 812, 511,÷
2025-03-12 12:25:55.988,760, 535, 463, 5, -17, 7, -2, 6, 4, 962, 850, 511,÷
2025-03-12 12:25:56.043,695, 396, 519, -27, 0, -10, -4, 6, 5, 966, 915, 340,÷
2025-03-12 12:25:56.101,823, 427, 579, 12, -21, -19, -3, 4, 5, 975, 943, 144,÷
2025-03-12 12:25:56.153,672, 800, 208, -24, 33, 32, -3, 4, 7, 983, 944, 155,÷
2025-03-12 12:25:56.207,824, 386, 395, 8, 32, -4, -3, 5, 4, 974, 908, 513,÷
2025-03-12 12:25:56.257,501, 654, 724, 24, 24, 36, -2, 6, 3, 968, 817, 251,÷
2025-03-12 12:25:56.313,704, 914, 253, -6, 7, -6, -4, 7, 1, 970, 866, 37,÷
2025-03-12 12:25:56.367,742, 617, 545, -13, 2, 5, -2, 7, 1, 975, 914, 43,÷
2025-03-12 12:25:56.420,794, 260, 453, -27, -12, -11, -3, 8, 4, 962, 879, 63,÷
2025-03-12 12:25:56.469,464, 540, 840, 0, -4, -38, -2, 5, 4, 951, 849, 48,÷
2025-03-12 12:25:56.528,828, 762, 778, 30, -21, -17, -3, 6, 4, 979, 927, 41,÷
2025-03-12 12:25:56.585,171, 244, 536, -34, 1, 34, -4, 7, 4, 989, 958, 52,÷
2025-03-12 12:25:56.634,750, 478, 376, 36, 6, 5, -2, 6, 6, 978, 911, 499,÷
2025-03-12 12:25:56.687,613, 475, 561, -31, 67, -62, -3, 6, 6, 944, 798, 460,÷
2025-03-12 12:25:56.987,712, 545, 485, 4, -10, 3, -3, 6, 4, 927, 746, 270,=
2025-03-12 12:25:57.038,718, 528, 457, 2, -9, 2, 0, 4, 4, 926, 746, 269,=
2025-03-12 12:25:57.089,725, 538, 458, -3, -2, -2, -2, 6, 5, 923, 742, 266,=
2025-03-12 12:25:57.147,708, 548, 480, 1, -1, -2, -2, 5, 4, 918, 731, 244,=
2025-03-12 12:25:57.200,711, 524, 453, -1, 2, -1, -2, 5, 4, 920, 742, 297,=
2025-03-12 12:25:57.248,703, 533, 493, 1, 1, 1, -2, 6, 4, 918, 742, 298,=
2025-03-12 12:25:57.302,708, 535, 479, -3, -1, -1, -3, 6, 3, 922, 743, 286,=
2025-03-12 12:25:57.356,710, 540, 483, 1, -4, -1, -4, 5, 4, 925, 767, 306,=
2025-03-12 12:25:57.407,714, 537, 448, 1, -4, -2, -2, 7, 2, 935, 787, 412,=
2025-03-12 12:25:57.458,716, 532, 460, -4, -1, 1, -3, 7, 3, 938, 798, 401,=
2025-03-12 12:25:57.515,707, 549, 487, 3, -4, 1, -3, 6, 4, 941, 802, 415,=
2025-03-12 12:25:57.568,728, 527, 462, -2, -1, -2, -3, 5, 2, 941, 805, 392,=
2025-03-12 12:25:57.618,766, 554, 443, -5, 2, -1, -2, 4, 4, 945, 812, 315,=
2025-03-12 12:25:57.674,642, 559, 528, -1, 1, -2, -2, 7, 4, 948, 818, 315,=
2025-03-12 12:25:57.727,584, 487, 569, 14, -26, 6, -3, 5, 4, 952, 817, 158,=
2025-03-12 12:25:57.785,671, 1266, 125, -14, -16, 43, -3, 3, 5, 981, 937, 187,=
2025-03-12 12:25:57.837,591, 424, 440, 29, 6, 12, -3, 6, 6, 982, 939, 322,=
2025-03-12 12:25:57.887,658, 426, 374, 26, 40, -28, -3, 6, 4, 966, 829, 468,=
2025-03-12 12:25:57.937,858, 274, 283, 17, 4, -11, -3, 5, 4, 968, 823, 44,=
2025-03-12 12:25:57.997,531, 427, 237, -53, 8, 46, -3, 4, 5, 983, 941, 41,=
2025-03-12 12:25:58.052,685, 484, 496, 32, 5, 14, -2, 6, 4, 976, 894, 327,=
2025-03-12 12:25:58.107,750, 412, 269, -27, 78, -53, -2, 7, 3, 942, 725, 355,=
2025-03-12 12:25:58.160,460, 599, 723, -9, -2, -7, -1, 6, 2, 922, 558, 273,=
2025-03-12 12:25:58.445,692, 538, 497, -3, -3, -3, -2, 6, 2, 919, 597, 167,≠
2025-03-12 12:25:58.497,707, 545, 490, -3, -3, -2, -3, 4, 3, 921, 600, 165,≠
2025-03-12 12:25:58.551,697, 526, 505, 1, -5, -3, -3, 8, 2, 922, 665, 201,≠
2025-03-12 12:25:58.600,708, 541, 475, 0, -4, 0, -1, 5, 4, 927, 710, 303,≠
2025-03-12 12:25:58.651,700, 529, 501, -3, -3, 1, -3, 6, 1, 927, 712, 274,≠
2025-03-12 12:25:58.705,698, 528, 488, 2, -8, 2, -3, 4, 2, 938, 757, 347,≠
2025-03-12 12:25:58.760,734, 520, 466, 0, -8, 1, -3, 4, 5, 943, 786, 386,≠
2025-03-12 12:25:58.811,705, 545, 484, -4, 1, -3, -3, 5, 4, 947, 797, 382,≠
2025-03-12 12:25:58.866,734, 515, 455, -3, -3, -1, -2, 6, 2, 955, 820, 418,≠
2025-03-12 12:25:58.919,671, 531, 528, -1, -1, -3, -2, 5, 4, 955, 833, 416,≠
2025-03-12 12:25:58.969,746, 508, 468, -4, -9, -5, -4, 7, 4, 958, 847, 456,≠
2025-03-12 12:25:59.019,703, 538, 470, -1, -2, 0, -1, 4, 4, 957, 837, 307,≠
2025-03-12 12:25:59.077,730, 517, 445, 1, -3, -3, -3, 5, 5, 956, 827, 307,≠
2025-03-12 12:25:59.133,816, 576, 449, 7, -1, 15, -3, 6, 5, 961, 868, 492,≠
2025-03-12 12:25:59.186,630, 530, 488, -5, 0, -4, -3, 9, 3, 964, 873, 547,≠
2025-03-12 12:25:59.237,716, 487, 472, -23, -3, -17, -2, 5, 5, 965, 876, 418,≠
2025-03-12 12:25:59.290,547, 534, 597, -4, -3, -6, -1, 5, 5, 961, 806, 61,≠
2025-03-12 12:25:59.349,900, 680, 687, 39, -21, -17, -4, 4, 5, 976, 920, 43,≠
2025-03-12 12:25:59.401,686, 261, 594, -6, -4, 43, -3, 7, 7, 985, 951, 68,≠
2025-03-12 12:25:59.452,657, 432, 409, 50, 20, -2, -4, 7, 4, 975, 895, 427,≠
2025-03-12 12:25:59.512,341, 593, 826, 26, 29, -45, -3, 6, 4, 951, 660, 225,≠
2025-03-12 12:25:59.567,846, 476, 134, -12, -9, -6, -2, 4, 5, 976, 912, 33,≠
2025-03-12 12:25:59.618,505, 325, 300, -39, 1, 70, -2, 7, 6, 985, 945, 59,≠
2025-03-12 12:25:59.668,831, 205, 255, -8, 8, -46, -4, 7, 4, 978, 915, 366,≠
2025-03-12 12:25:59.727,677, 706, 920, 32, -24, -34, -4, 7, 3, 968, 893, 618,≠
2025-03-12 12:25:59.783,780, 477, 224, -18, -14, -7, -2, 5, 4, 985, 939, 252,≠
2025-03-12 12:25:59.837,619, 722, 187, 7, 44, 31, -3, 6, 4, 984, 914, 73,≠
2025-03-12 12:25:59.890,923, 553, 300, 41, 43, 11, -3, 5, 3, 937, 749, 28,≠
2025-03-12 12:25:59.937,533, 337, 446, -86, 81, -60, -2, 7, 4, 920, 804, 75,≠
2025-03-12 12:26:00.291,686, 526, 547, 17, -7, -27, -3, 5, 3, 879, 617, 113,≈
2025-03-12 12:26:00.337,670, 536, 538, 22, -8, -28, -3, 5, 5, 879, 609, 167,≈
2025-03-12 12:26:00.402,675, 523, 537, 35, -21, -38, -1, 3, 4, 887, 515, 327,≈
2025-03-12 12:26:00.457,616, 612, 420, 35, -24, -44, -2, 0, 4, 889, 464, 508,≈
2025-03-12 12:26:00.508,617, 715, 388, 9, -16, -16, -3, -1, 5, 904, 567, 546,≈
2025-03-12 12:26:00.570,571, 760, 379, -13, -1, 35, -5, 0, 5, 941, 748, 563,≈
2025-03-12 12:26:00.619,703, 582, 429, 12, -17, 18, -3, 1, 6, 952, 814, 506,≈
2025-03-12 12:26:00.677,741, 596, 369, 3, -1, 11, -4, 1, 6, 958, 823, 503,≈
2025-03-12 12:26:00.728,629, 672, 414, -4, 8, 14, -4, 2, 7, 961, 835, 507,≈
2025-03-12 12:26:00.784,677, 625, 386, -4, 4, 36, -4, 2, 5, 962, 843, 524,≈
2025-03-12 12:26:00.837,732, 546, 371, -15, -7, 6, -4, 3, 5, 963, 854, 529,≈
2025-03-12 12:26:00.887,766, 528, 414, -4, 0, -4, -4, 4, 4, 966, 872, 492,≈
2025-03-12 12:26:00.938,690, 594, 427, -4, -3, -2, -3, 3, 5, 966, 870, 533,≈
2025-03-12 12:26:00.992,710, 621, 353, 0, 0, 2, -3, 3, 8, 964, 864, 554,≈
2025-03-12 12:26:01.050,693, 579, 422, -9, 1, -4, -2, 3, 6, 966, 867, 536,≈
2025-03-12 12:26:01.107,644, 571, 443, -11, -12, -1, -5, 4, 7, 968, 873, 323,≈
2025-03-12 12:26:01.157,794, 589, 437, -2, -11, -3, -4, 4, 6, 976, 932, 143,≈
2025-03-12 12:26:01.212,557, 477, 218, -19, -2, 15, -6, 5, 6, 984, 943, 406,≈
2025-03-12 12:26:01.266,645, 461, 455, -4, 6, 12, -4, 3, 7, 986, 944, 309,≈
2025-03-12 12:26:01.319,713, 532, 312, 14, 35, 5, -3, 3, 7, 976, 889, 481,≈
2025-03-12 12:26:01.377,505, 579, 631, 23, 16, -10, -4, 4, 4, 964, 760, 335,≈
2025-03-12 12:26:01.428,816, 599, 369, -26, -2, -7, -3, 5, 5, 973, 903, 271,≈
2025-03-12 12:26:01.483,833, 532, 487, -3, -5, 14, -5, 5, 6, 983, 943, 367,≈
2025-03-12 12:26:01.538,761, 583, 428, -4, 12, 22, -4, 6, 5, 987, 941, 155,≈
2025-03-12 12:26:01.594,910, 298, 239, -15, 31, -30, -3, 5, 5, 975, 892, 424,≈
2025-03-12 12:26:01.652,621, 564, 638, -33, 46, -38, -4, 5, 4, 954, 834, 362,≈
2025-03-12 12:26:01.947,659, 504, 527, 5, -4, -35, -2, 3, 1, 885, 562, 234,<
2025-03-12 12:26:02.007,645, 534, 579, 8, -9, -39, -1, 1, 0, 884, 561, 267,<
2025-03-12 12:26:02.065,641, 619, 421, 8, -20, -62, -2, 2, 2, 877, 400, 450,<
2025-03-12 12:26:02.118,443, 765, 555, -1, -6, 1, -1, 0, 3, 912, 474, 483,<
2025-03-12 12:26:02.168,535, 671, 510, 10, -7, 45, 0, 0, 3, 932, 648, 479,<
2025-03-12 12:26:02.219,691, 596, 367, 11, -7, 29, -3, 2, 3, 943, 763, 517,<
2025-03-12 12:26:02.277,720, 622, 388, 6, -4, 24, -3, 2, 3, 946, 799, 540,<
2025-03-12 12:26:02.332,692, 578, 450, -4, -5, 5, -4, 2, 4, 950, 824, 568,<
2025-03-12 12:26:02.385,720, 585, 434, 2, -14, 11, -4, 3, 6, 953, 835, 574,<
2025-03-12 12:26:02.437,708, 592, 402, 2, -3, 4, -4, 3, 5, 956, 841, 579,<
2025-03-12 12:26:02.487,731, 586, 395, -5, -5, 1, -3, 3, 7, 957, 850, 593,<
2025-03-12 12:26:02.537,762, 597, 368, -16, -6, 3, -3, 3, 5, 961, 865, 584,<
2025-03-12 12:26:02.597,652, 553, 544, -1, 1, 3, -3, 4, 5, 964, 875, 598,<
2025-03-12 12:26:02.651,544, 557, 580, 7, -39, 24, -4, 3, 5, 971, 896, 607,<
2025-03-12 12:26:02.701,766, 632, 208, -32, -3, -6, -3, 5, 7, 978, 936, 402,<
2025-03-12 12:26:02.760,494, 451, 368, 47, -4, -25, -3, 2, 5, 980, 921, 141,<
2025-03-12 12:26:02.810,874, 1023, -179, -30, 38, 28, -3, 3, 7, 985, 909, 64,<
2025-03-12 12:26:02.868,593, 388, 434, -11, 24, 47, -3, 5, 5, 989, 949, 58,<
2025-03-12 12:26:02.918,737, 380, 475, 27, 6, -12, -3, 6, 4, 968, 871, 342,<
2025-03-12 12:26:02.977,719, 512, 562, -15, 59, -66, -3, 5, 1, 912, 736, 425,<
2025-03-12 12:26:03.458,689, 549, 476, 4, -4, 4, -3, 5, 6, 930, 778, 317,≤
2025-03-12 12:26:03.510,705, 561, 475, 3, -6, 4, -3, 3, 5, 933, 785, 333,≤
2025-03-12 12:26:03.565,730, 561, 398, -2, -4, 3, -3, 3, 4, 937, 798, 354,≤
2025-03-12 12:26:03.617,730, 542, 437, -4, -1, 0, -3, 4, 5, 944, 815, 391,≤
2025-03-12 12:26:03.667,720, 560, 435, -3, -1, 2, -3, 5, 6, 948, 819, 418,≤
2025-03-12 12:26:03.718,724, 554, 444, -4, -1, 0, -4, 5, 3, 951, 833, 454,≤
2025-03-12 12:26:03.772,701, 564, 446, 0, -5, 7, -2, 5, 4, 953, 842, 433,≤
2025-03-12 12:26:03.827,682, 525, 555, -1, -18, 7, -3, 5, 4, 960, 873, 322,≤
2025-03-12 12:26:03.884,730, 542, 497, -14, -2, -2, -3, 5, 6, 972, 927, 51,≤
2025-03-12 12:26:03.937,769, 500, 163, 57, 14, -8, -3, 6, 6, 975, 895, 32,≤
2025-03-12 12:26:03.987,875, 503, 313, -22, 15, 7, -4, 5, 4, 982, 907, 52,≤
2025-03-12 12:26:04.037,286, 256, 629, -26, -4, 40, -3, 6, 6, 987, 953, 45,≤
2025-03-12 12:26:04.097,539, 613, 175, 55, 15, 3, -4, 5, 5, 974, 896, 210,≤
2025-03-12 12:26:04.150,630, 529, 706, 20, 14, -13, -4, 6, 4, 959, 684, 45,≤
2025-03-12 12:26:04.201,942, 852, 505, -7, -11, 30, -3, 7, 4, 986, 948, 53,≤
2025-03-12 12:26:04.257,629, 365, 544, 1, 8, 16, -3, 7, 5, 983, 942, 45,≤
2025-03-12 12:26:04.307,832, 521, 56, -18, 84, -68, -3, 7, 4, 931, 748, 257,≤
2025-03-12 12:26:04.642,658, 566, 528, -3, -14, 0, -3, 6, 3, 916, 769, 326,>
2025-03-12 12:26:04.688,668, 547, 539, 0, -17, 1, -3, 3, 1, 921, 779, 355,>
2025-03-12 12:26:04.748,724, 548, 409, 4, -12, 4, -3, 4, 4, 925, 791, 391,>
2025-03-12 12:26:04.801,740, 558, 422, -4, -6, -4, -3, 5, 6, 931, 812, 411,>
2025-03-12 12:26:04.857,707, 569, 454, -11, -1, -1, -3, 5, 5, 939, 819, 391,>
2025-03-12 12:26:04.912,716, 546, 439, -3, -3, -1, -3, 5, 4, 948, 828, 379,>
2025-03-12 12:26:04.965,671, 559, 489, 2, -12, 2, -3, 5, 6, 950, 829, 371,>
2025-03-12 12:26:05.018,736, 550, 402, -3, -6, -2, -3, 5, 4, 952, 844, 382,>
2025-03-12 12:26:05.069,732, 549, 436, -3, -3, -2, -3, 4, 5, 954, 840, 347,>
2025-03-12 12:26:05.120,682, 527, 541, 6, -16, 3, -4, 4, 5, 958, 856, 277,>
2025-03-12 12:26:05.170,797, 457, 391, 4, 0, -6, -3, 5, 7, 970, 909, 46,>
2025-03-12 12:26:05.232,565, 611, 251, -18, -2, 24, -3, 5, 6, 980, 941, 382,>
2025-03-12 12:26:05.284,277, 557, 375, 20, 18, 7, -3, 4, 5, 983, 942, 199,>
2025-03-12 12:26:05.337,795, 678, 156, -27, 43, 8, -4, 4, 7, 976, 844, 28,>
2025-03-12 12:26:05.387,1004, 335, 400, -34, 38, -33, -3, 6, 4, 949, 790, 82,>
2025-03-12 12:26:05.448,459, 587, 825, -25, 29, -29, -1, 5, 1, 922, 786, 57,>
2025-03-12 12:26:05.727,729, 573, 446, -3, -2, -2, -3, 5, 5, 910, 771, 175,≥
2025-03-12 12:26:05.787,720, 567, 453, -5, -2, -3, -5, 3, 5, 910, 770, 168,≥
2025-03-12 12:26:05.844,707, 552, 457, -3, -3, -1, -3, 3, 7, 908, 767, 159,≥
2025-03-12 12:26:05.899,712, 577, 455, -1, -8, 2, -3, 4, 6, 915, 787, 189,≥
2025-03-12 12:26:05.948,737, 551, 414, 0, -5, 1, -4, 5, 4, 921, 796, 189,≥
2025-03-12 12:26:06.003,728, 547, 458, -6, -1, -3, -4, 6, 4, 923, 814, 179,≥
2025-03-12 12:26:06.058,713, 560, 444, -4, -2, -1, -3, 5, 7, 928, 819, 160,≥
2025-03-12 12:26:06.111,577, 526, 575, -1, -20, 1, -2, 4, 5, 938, 837, 34,≥
2025-03-12 12:26:06.166,935, 378, 264, 27, -12, -10, -2, 3, 6, 971, 921, 74,≥
2025-03-12 12:26:06.218,681, 520, 632, 6, 2, 11, -3, 5, 6, 978, 935, 348,≥
2025-03-12 12:26:06.269,883, 357, 306, 35, 26, 7, -4, 6, 7, 981, 935, 46,≥
2025-03-12 12:26:06.317,949, 501, 395, -2, 46, 14, -3, 6, 7, 972, 853, 64,≥
2025-03-12 12:26:06.377,518, 475, 452, -7, 63, -14, -2, 6, 4, 957, 756, 41,≥
2025-03-12 12:26:06.431,646, 561, 578, 20, -54, 32, -2, 5, 2, 961, 778, 107,≥
2025-03-12 12:26:06.484,1043, 679, 737, -4, -25, 6, -3, 6, 3, 983, 942, 56,≥
2025-03-12 12:26:06.538,465, 331, 469, 4, -1, 22, -3, 6, 4, 986, 946, 52,≥
2025-03-12 12:26:06.587,1010, 225, 175, 25, 19, -49, -3, 7, 4, 964, 856, 415,≥
2025-03-12 12:26:06.917,662, 561, 520, 0, -5, 0, -1, 4, 5, 910, 751, 371,±
2025-03-12 12:26:06.971,661, 549, 530, 2, -6, 0, -3, 5, 2, 909, 751, 378,±
2025-03-12 12:26:07.017,697, 543, 470, 1, -13, 2, -4, 5, 3, 909, 762, 388,±
2025-03-12 12:26:07.077,707, 564, 457, 2, -6, 2, -1, 6, 3, 916, 776, 393,±
2025-03-12 12:26:07.132,731, 551, 419, -3, -4, -2, -3, 4, 4, 919, 790, 394,±
2025-03-12 12:26:07.183,684, 558, 503, -2, -1, -1, -1, 5, 5, 932, 809, 397,±
2025-03-12 12:26:07.237,703, 543, 461, -3, -4, -3, -2, 4, 5, 932, 811, 393,±
2025-03-12 12:26:07.287,703, 559, 448, -4, -4, -2, -3, 4, 2, 936, 812, 369,±
2025-03-12 12:26:07.337,702, 548, 455, -1, -1, 1, -3, 4, 5, 942, 817, 350,±
2025-03-12 12:26:07.398,694, 577, 475, 5, -6, -2, -1, 5, 5, 943, 828, 432,±
2025-03-12 12:26:07.452,726, 543, 423, -6, -3, -5, -4, 4, 4, 943, 827, 394,±
2025-03-12 12:26:07.503,630, 572, 487, -6, 5, -2, -3, 3, 4, 948, 828, 302,±
2025-03-12 12:26:07.560,658, 539, 447, -5, -7, -9, -3, 4, 4, 947, 811, 286,±
2025-03-12 12:26:07.615,765, 247, 159, -95, -12, -23, -4, 5, 4, 963, 865, 65,±
2025-03-12 12:26:07.667,684, 820, -230, -31, -19, 66, -4, 3, 6, 986, 953, 36,±
2025-03-12 12:26:07.717,598, 735, 458, 38, 12, 14, -4, 4, 6, 978, 929, 451,±
2025-03-12 12:26:07.783,369, 551, 548, -13, 20, -46, -2, 4, 7, 963, 887, 606,±
2025-03-12 12:26:07.833,766, 668, 273, -15, -17, 5, -4, 3, 7, 983, 936, 476,±
2025-03-12 12:26:07.887,439, 614, 361, 22, 49, 32, -3, 4, 7, 981, 889, 266,±
2025-03-12 12:26:07.947,364, 528, 517, 9, 34, -38, -5, 5, 2, 950, 717, 386,±
2025-03-12 12:26:08.000,928, 836, 347, -29, -24, 4, -3, 6, 4, 982, 939, 197,±
2025-03-12 12:26:08.050,673, 683, 351, -5, 10, 48, -5, 6, 4, 986, 951, 168,±
2025-03-12 12:26:08.110,736, 485, 133, -25, 87, -66, -1, 6, 5, 960, 828, 411,±
2025-03-12 12:26:08.167,463, 708, 1025, -10, 10, -23, -1, 5, 1, 918, 714, 353,±
2025-03-12 12:26:08.426,702, 569, 451, 10, -15, 2, -3, 6, 5, 933, 834, 502,∓
2025-03-12 12:26:08.477,713, 575, 436, 10, -14, 3, -1, 4, 7, 934, 836, 522,∓
2025-03-12 12:26:08.537,741, 547, 425, -5, -4, -4, -4, 5, 4, 935, 837, 515,∓
2025-03-12 12:26:08.587,686, 566, 468, -3, -5, -3, -3, 4, 5, 937, 838, 467,∓
2025-03-12 12:26:08.637,729, 560, 408, -2, -1, -3, -3, 4, 5, 940, 844, 466,∓
2025-03-12 12:26:08.697,682, 566, 457, -9, -1, -5, -4, 4, 7, 937, 830, 310,∓
2025-03-12 12:26:08.754,650, 562, 441, -11, -5, -12, -3, 5, 7, 936, 801, 207,∓
2025-03-12 12:26:08.807,597, 500, 528, 1, -25, -2, -3, 3, 8, 950, 836, 53,∓
2025-03-12 12:26:08.864,1008, 1247, 587, 17, -51, 25, -6, 3, 6, 983, 943, 143,∓
2025-03-12 12:26:08.917,677, 674, 479, 38, 7, 33, -4, 5, 6, 984, 923, 301,∓
2025-03-12 12:26:08.967,707, 387, 249, 22, 49, -22, -3, 4, 6, 966, 843, 635,∓
2025-03-12 12:26:09.017,640, 782, 882, 32, 5, 6, -3, 4, 5, 943, 642, 289,∓
2025-03-12 12:26:09.077,932, 596, 235, -13, -17, 4, -4, 2, 5, 978, 914, 185,∓
2025-03-12 12:26:09.130,606, 424, 445, 1, 7, 33, -3, 3, 7, 981, 927, 182,∓
2025-03-12 12:26:09.187,732, 334, 186, -21, 30, -61, -3, 7, 6, 959, 855, 575,∓
2025-03-12 12:26:09.237,646, 624, 761, -19, -67, 45, -3, 4, 6, 974, 898, 353,∓
2025-03-12 12:26:09.288,310, 713, -87, 4, 50, 39, -3, 6, 4, 986, 881, 68,∓
2025-03-12 12:26:09.347,1000, 439, 503, 13, 34, -5, -3, 4, 5, 954, 663, 145,∓
2025-03-12 12:26:09.399,617, 476, 563, -64, 71, -65, -3, 5, 1, 840, 750, 310,∓
2025-03-12 12:26:09.687,721, 592, 427, 12, -5, -2, -3, 5, 3, 855, 615, 451,∞
2025-03-12 12:26:09.737,726, 597, 444, 7, -3, -1, -3, 5, 3, 850, 609, 460,∞
2025-03-12 12:26:09.787,709, 548, 499, 17, -9, 3, -3, 2, 5, 829, 546, 528,∞
2025-03-12 12:26:09.849,736, 566, 410, 25, -7, 5, -3, 4, 5, 816, 468, 629,∞
2025-03-12 12:26:09.901,701, 583, 438, 11, 5, 1, -3, 3, 4, 854, 400, 625,∞
2025-03-12 12:26:09.950,697, 600, 426, 4, -2, 4, -3, 4, 7, 900, 542, 673,∞
2025-03-12 12:26:10.001,698, 593, 436, 1, 2, 1, -3, 4, 4, 916, 640, 691,∞
2025-03-12 12:26:10.053,717, 588, 436, -4, 0, 2, -2, 3, 5, 924, 644, 685,∞
2025-03-12 12:26:10.101,712, 587, 414, -6, 2, -1, -2, 3, 5, 930, 651, 635,∞
2025-03-12 12:26:10.157,701, 585, 429, -7, 2, 0, -4, 3, 4, 936, 672, 649,∞
2025-03-12 12:26:10.210,703, 557, 459, -5, -2, 1, -2, 4, 5, 943, 727, 652,∞
2025-03-12 12:26:10.265,683, 572, 442, -9, 2, -3, -1, 3, 4, 943, 744, 641,∞
2025-03-12 12:26:10.319,732, 572, 406, -1, -2, 1, -4, 5, 6, 950, 777, 646,∞
2025-03-12 12:26:10.367,681, 590, 461, -3, -1, 2, -3, 3, 5, 951, 776, 624,∞
2025-03-12 12:26:10.419,774, 542, 412, -6, -1, 6, -3, 6, 4, 954, 789, 628,∞
2025-03-12 12:26:10.477,743, 566, 484, -7, -1, 7, -4, 4, 4, 958, 813, 620,∞
2025-03-12 12:26:10.531,563, 508, 470, -1, -10, 14, -3, 4, 4, 964, 839, 575,∞
2025-03-12 12:26:10.584,795, 878, 419, 8, -11, -7, -4, 5, 5, 977, 906, 205,∞
2025-03-12 12:26:10.637,965, 455, 262, -5, 34, 21, -3, 7, 3, 980, 904, 61,∞
2025-03-12 12:26:10.687,480, 190, 334, -39, 22, -8, -2, 6, 5, 966, 872, 45,∞
2025-03-12 12:26:10.738,848, 905, 636, 3, -52, 10, -3, 8, 4, 980, 941, 48,∞
2025-03-12 12:26:10.797,729, 709, 371, 2, -4, 18, -3, 7, 7, 987, 954, 95,∞
2025-03-12 12:26:10.851,679, 35, 659, 8, -32, -47, -4, 7, 5, 977, 941, 78,∞
2025-03-12 12:26:10.901,838, 564, 580, 4, -2, -11, -3, 6, 5, 978, 937, 187,∞
2025-03-12 12:26:10.957,795, 537, 606, -37, 38, 22, -4, 5, 6, 984, 902, 39,∞
2025-03-12 12:26:11.011,866, 519, 492, 61, 20, 2, -3, 6, 5, 950, 731, 53,∞
2025-03-12 12:26:11.064,759, 461, 296, -78, 84, -58, -2, 6, 2, 889, 727, 71,∞
2025-03-12 12:26:11.344,628, 577, 535, 2, -5, -4, -1, 3, 5, 866, 641, 161,∑
2025-03-12 12:26:11.397,642, 590, 526, 5, -6, -1, 0, 4, 3, 873, 663, 204,∑
2025-03-12 12:26:11.449,660, 565, 538, 4, -10, 8, -2, 4, 2, 883, 706, 243,∑
2025-03-12 12:26:11.502,703, 550, 451, 5, -10, 7, -3, 5, 4, 900, 727, 284,∑
2025-03-12 12:26:11.552,729, 538, 463, 1, -4, 2, -3, 6, 4, 901, 726, 279,∑
2025-03-12 12:26:11.607,717, 561, 464, -3, -1, -1, -3, 4, 5, 899, 723, 180,∑
2025-03-12 12:26:11.660,717, 552, 479, -4, -2, 3, -5, 5, 5, 910, 756, 194,∑
2025-03-12 12:26:11.710,671, 550, 494, 2, -3, 1, -3, 6, 5, 915, 765, 190,∑
2025-03-12 12:26:11.764,721, 536, 468, 2, -9, 3, -2, 4, 3, 919, 777, 211,∑
2025-03-12 12:26:11.817,731, 551, 425, 1, -1, -1, -4, 3, 4, 930, 792, 222,∑
2025-03-12 12:26:11.867,714, 539, 475, 0, -3, 3, -3, 2, 5, 932, 798, 206,∑
2025-03-12 12:26:11.917,696, 570, 450, 2, -5, -3, -3, 5, 4, 934, 812, 298,∑
2025-03-12 12:26:11.967,712, 533, 438, -1, 1, -7, -4, 5, 5, 937, 815, 297,∑
2025-03-12 12:26:12.031,720, 551, 433, -3, -8, -1, -2, 5, 4, 935, 794, 211,∑
2025-03-12 12:26:12.080,545, 548, 666, 8, -36, 8, -4, 3, 5, 949, 827, 47,∑
2025-03-12 12:26:12.137,1013, 1473, 364, -38, -33, 40, -3, 4, 6, 981, 939, 50,∑
2025-03-12 12:26:12.187,623, 598, 645, 33, 16, 26, -4, 8, 5, 982, 930, 205,∑
2025-03-12 12:26:12.247,710, 367, 295, 9, 34, -44, -3, 6, 6, 957, 862, 501,∑
2025-03-12 12:26:12.301,1041, 694, 768, 4, -27, 5, -3, 4, 8, 958, 847, 198,∑
2025-03-12 12:26:12.350,967, 1238, 147, -41, 13, 37, -2, 2, 6, 982, 934, 48,∑
2025-03-12 12:26:12.407,521, 509, 658, 17, 2, 12, -3, 4, 5, 983, 939, 122,∑
2025-03-12 12:26:12.460,324, 496, 466, 1, 31, -20, -4, 7, 4, 965, 816, 46,∑
2025-03-12 12:26:12.514,976, 580, 473, 7, -1, 14, -2, 5, 5, 982, 920, 72,∑
2025-03-12 12:26:12.567,672, 365, 445, -20, 1, 38, -3, 7, 7, 988, 952, 47,∑
2025-03-12 12:26:12.617,918, 232, 364, 22, 13, -33, -3, 7, 5, 966, 863, 73,∑
2025-03-12 12:26:12.667,728, 527, 639, -2, 77, -58, -1, 4, 5, 859, 492, 97,∑
2025-03-12 12:26:12.951,653, 603, 526, 9, -18, -55, -2, 1, 2, 787, 324, 189,∏
2025-03-12 12:26:13.010,645, 598, 501, 10, -20, -58, -1, 0, 3, 784, 322, 190,∏
2025-03-12 12:26:13.063,541, 666, 428, 9, -15, -70, -1, -2, 4, 703, 202, 378,∏
2025-03-12 12:26:13.118,615, 745, 421, -8, -14, -61, -1, -3, 4, 679, 277, 469,∏
2025-03-12 12:26:13.177,479, 815, 440, -16, -6, -40, -1, -5, 4, 786, 454, 542,∏
2025-03-12 12:26:13.230,357, 818, 527, 7, -3, 22, 0, -7, 5, 865, 590, 546,∏
2025-03-12 12:26:13.284,390, 760, 435, 9, 5, 91, -2, -2, 4, 887, 670, 435,∏
2025-03-12 12:26:13.337,585, 405, 524, 13, 2, 121, -4, -2, 3, 880, 686, 228,∏
2025-03-12 12:26:13.387,751, 564, 199, -12, 8, 24, -4, 0, 3, 876, 627, 397,∏
2025-03-12 12:26:13.447,698, 584, 414, -16, 2, 10, -3, 2, 4, 897, 679, 371,∏
2025-03-12 12:26:13.499,772, 729, 661, -16, 6, 5, -2, 3, 4, 920, 745, 395,∏
2025-03-12 12:26:13.548,643, 486, 514, 13, -27, 11, -3, 3, 4, 937, 795, 399,∏
2025-03-12 12:26:13.607,679, 517, 342, -11, -13, -16, -4, 3, 4, 942, 815, 353,∏
2025-03-12 12:26:13.667,780, 519, 472, 18, -69, 21, -3, 2, 5, 952, 853, 53,∏
2025-03-12 12:26:13.724,905, 1477, 236, -40, -29, 59, -3, 2, 9, 985, 948, 166,∏
2025-03-12 12:26:13.767,606, 296, 441, 5, 12, 26, -5, 5, 7, 986, 953, 361,∏
2025-03-12 12:26:13.832,746, 414, 183, 12, 38, -20, -5, 5, 6, 965, 893, 580,∏
2025-03-12 12:26:13.884,734, 851, 809, 16, -27, 10, -4, 3, 6, 958, 865, 662,∏
2025-03-12 12:26:13.937,750, 498, 297, -10, 1, -11, -4, 3, 6, 970, 926, 619,∏
2025-03-12 12:26:13.996,719, 574, 559, 4, -15, -11, -3, 2, 6, 980, 932, 474,∏
2025-03-12 12:26:14.047,883, 479, 302, -16, 33, 30, -5, 5, 6, 987, 929, 64,∏
2025-03-12 12:26:14.098,819, 577, 179, 15, 23, 4, -3, 4, 4, 956, 854, 34,∏
2025-03-12 12:26:14.157,685, 606, 395, -34, 10, -27, -3, 4, 7, 951, 900, 525,∏
2025-03-12 12:26:14.218,826, 464, -264, -103, -12, -22, -4, 3, 9, 974, 939, 558,∏
2025-03-12 12:26:14.268,755, 868, 157, 1, 20, 26, -4, 6, 7, 989, 950, 232,∏
2025-03-12 12:26:14.324,516, 791, -95, -7, 38, 20, -3, 5, 6, 984, 927, 69,∏
2025-03-12 12:26:14.381,1104, 505, -71, -57, 70, -78, -3, 4, 5, 926, 850, 585,∏
2025-03-12 12:26:14.438,217, 587, 1089, -45, 69, -30, -2, 5, 0, 907, 813, 456,∏
2025-03-12 12:26:14.496,466, 529, 778, 21, -33, 18, -1, 5, 0, 890, 699, 326,∏
2025-03-12 12:26:14.847,415, 688, 570, 17, -29, 12, 0, -1, 2, 826, 314, 40,√
2025-03-12 12:26:14.898,402, 689, 575, 20, -36, 28, -5, 2, 2, 843, 368, 34,√
2025-03-12 12:26:14.957,605, 593, 228, 26, -28, 86, -3, 2, 5, 877, 495, 65,√
2025-03-12 12:26:15.012,866, 600, 730, 36, -8, 4, -3, 3, 4, 875, 596, 202,√
2025-03-12 12:26:15.064,712, 411, 173, -24, 16, 2, -2, 3, 5, 888, 693, 202,√
2025-03-12 12:26:15.117,637, 706, 537, -3, 0, 2, -3, 5, 4, 908, 749, 395,√
2025-03-12 12:26:15.167,646, 616, 526, 15, -20, 10, -3, 3, 7, 916, 779, 401,√
2025-03-12 12:26:15.224,756, 536, 343, 3, -10, 3, -3, 2, 5, 927, 806, 425,√
2025-03-12 12:26:15.279,718, 590, 407, -4, 11, -1, -4, 3, 8, 924, 771, 386,√
2025-03-12 12:26:15.332,786, 591, 436, 7, -10, -2, -4, 4, 7, 926, 791, 480,√
2025-03-12 12:26:15.388,666, 549, 329, -8, 20, -4, -1, 4, 4, 939, 825, 556,√
2025-03-12 12:26:15.437,561, 599, 558, 4, 4, 8, -1, 4, 4, 943, 825, 496,√
2025-03-12 12:26:15.491,645, 555, 418, 4, -2, -8, -4, 3, 6, 942, 769, 399,√
2025-03-12 12:26:15.537,827, 653, 391, 25, -2, -22, -2, 3, 5, 960, 865, 56,√
2025-03-12 12:26:15.599,709, 536, 458, -26, -15, 22, -4, 3, 6, 978, 942, 369,√
2025-03-12 12:26:15.649,767, 467, 758, 33, 1, 13, -4, 5, 6, 981, 931, 496,√
2025-03-12 12:26:15.709,569, 685, -76, -39, 34, 38, -3, 4, 6, 983, 915, 55,√
2025-03-12 12:26:15.764,567, 263, 638, -29, -26, -23, -3, 7, 3, 979, 949, 71,√
2025-03-12 12:26:15.818,685, 825, 205, -14, -13, -7, -4, 6, 5, 983, 961, 392,√
2025-03-12 12:26:15.874,752, 764, 317, 17, 1, 24, -5, 4, 6, 987, 960, 448,√
2025-03-12 12:26:15.930,884, 356, 182, 11, 36, -35, -5, 3, 8, 974, 940, 678,√
2025-03-12 12:26:15.987,600, 689, 720, -26, 32, -27, -4, 5, 6, 945, 846, 518,√
2025-03-12 12:26:16.037,625, 563, 476, 25, -28, 14, -3, 4, 3, 936, 840, 531,√
2025-03-12 12:26:16.087,804, 546, 313, -1, -3, 2, -2, 3, 4, 940, 846, 582,√
2025-03-12 12:26:16.146,672, 559, 460, -5, 6, -2, -3, 4, 6, 939, 833, 513,√
2025-03-12 12:26:16.503,710, 577, 419, 0, -1, 2, -4, 5, 6, 906, 747, 341,∛
2025-03-12 12:26:16.557,715, 563, 443, 2, 0, 1, -3, 4, 7, 909, 746, 342,∛
2025-03-12 12:26:16.606,710, 573, 418, 1, 1, 4, -4, 3, 6, 922, 764, 395,∛
2025-03-12 12:26:16.657,700, 576, 430, 5, 4, 0, -3, 3, 3, 924, 779, 453,∛
2025-03-12 12:26:16.707,683, 573, 422, 1, 5, 0, -4, 4, 5, 925, 787, 505,∛
2025-03-12 12:26:16.761,721, 591, 403, -2, 5, -1, -4, 4, 5, 924, 785, 502,∛
2025-03-12 12:26:16.815,723, 593, 410, -4, 1, 1, -3, 2, 4, 928, 770, 440,∛
2025-03-12 12:26:16.868,648, 600, 452, 5, 2, 2, -2, 2, 10, 926, 757, 383,∛
2025-03-12 12:26:16.918,758, 334, 335, 6, 1, -18, -2, 4, 5, 944, 829, 103,∛
2025-03-12 12:26:16.967,757, 645, 331, -30, -16, 17, -4, 4, 7, 966, 920, 484,∛
2025-03-12 12:26:17.027,587, 722, 464, 23, 20, 31, -4, 4, 7, 977, 914, 449,∛
2025-03-12 12:26:17.084,638, 416, 344, -38, 34, 39, -2, 7, 2, 977, 889, 31,∛
2025-03-12 12:26:17.137,767, 120, 705, -20, -35, -29, -5, 7, 3, 967, 930, 45,∛
2025-03-12 12:26:17.187,713, 508, 796, 5, -38, 0, -3, 5, 6, 982, 954, 287,∛
2025-03-12 12:26:17.245,703, 878, 101, -4, 6, 34, -3, 5, 7, 989, 953, 342,∛
2025-03-12 12:26:17.298,805, 187, 398, 5, 19, -38, -2, 5, 6, 978, 939, 656,∛
2025-03-12 12:26:17.350,572, 641, 802, -7, 12, -77, -4, 3, 6, 958, 890, 648,∛
2025-03-12 12:26:17.412,1016, 420, 96, -62, -39, -23, -4, 2, 7, 973, 927, 653,∛
2025-03-12 12:26:17.465,873, 686, 426, -9, -1, 5, -3, 1, 9, 979, 944, 639,∛
2025-03-12 12:26:17.515,660, 621, 476, 8, 4, 11, -3, 3, 7, 980, 947, 679,∛
2025-03-12 12:26:17.567,702, 645, 268, -5, 14, 6, -4, 1, 6, 982, 947, 651,∛
2025-03-12 12:26:17.617,685, 615, 389, -3, 9, 4, -4, 4, 6, 981, 943, 578,∛
2025-03-12 12:26:17.674,899, 621, 260, -7, 25, 1, -2, 2, 6, 959, 876, 633,∛
2025-03-12 12:26:17.732,659, 572, 512, -32, 63, -41, -3, 3, 4, 881, 850, 610,∛
2025-03-12 12:26:17.781,424, 648, 685, -1, -12, 7, -3, 2, 2, 901, 826, 558,∛
2025-03-12 12:26:18.028,678, 575, 402, -1, 3, -1, -2, 2, 6, 883, 758, 302,∜
2025-03-12 12:26:18.081,669, 575, 440, -1, 5, -2, -3, 2, 4, 884, 749, 292,∜
2025-03-12 12:26:18.134,662, 605, 458, 7, 0, 6, -3, 3, 5, 881, 742, 298,∜
2025-03-12 12:26:18.187,732, 587, 415, 8, -1, 6, -2, 2, 5, 886, 741, 361,∜
2025-03-12 12:26:18.238,697, 593, 436, 8, 3, 2, -4, 3, 5, 894, 725, 429,∜
2025-03-12 12:26:18.285,685, 581, 439, 7, 0, 5, -3, 2, 5, 913, 751, 551,∜
2025-03-12 12:26:18.338,657, 620, 442, 9, 2, 4, -4, 3, 4, 916, 750, 560,∜
2025-03-12 12:26:18.391,663, 548, 479, 11, -5, 3, -3, 3, 6, 916, 733, 522,∜
2025-03-12 12:26:18.441,817, 535, 295, 5, 1, -15, -4, 2, 7, 924, 736, 23,∜
2025-03-12 12:26:18.498,845, 707, 482, -20, -12, 17, -4, 1, 7, 964, 902, 356,∜
2025-03-12 12:26:18.551,666, 695, 469, 26, 17, 24, -3, 3, 5, 978, 920, 398,∜
2025-03-12 12:26:18.608,891, 499, 484, -50, 30, 30, -3, 6, 4, 978, 902, 53,∜
2025-03-12 12:26:18.661,837, 510, 648, -54, -14, 12, -2, 6, 2, 971, 925, 38,∜
2025-03-12 12:26:18.714,853, 854, 919, 0, -86, -30, -1, 4, 5, 970, 951, 45,∜
2025-03-12 12:26:18.772,575, 819, 275, 12, -39, 18, -6, 5, 6, 987, 956, 222,∜
2025-03-12 12:26:18.822,640, 535, 430, 20, 9, 13, -3, 5, 6, 983, 950, 438,∜
2025-03-12 12:26:18.878,674, 562, 111, -1, 45, -83, -4, 4, 6, 966, 919, 680,∜
2025-03-12 12:26:18.931,635, 670, 750, -6, -12, -21, -3, 3, 7, 945, 869, 632,∜
2025-03-12 12:26:18.987,691, 647, 515, 24, -49, 9, -4, 2, 6, 960, 905, 703,∜
2025-03-12 12:26:19.046,729, 716, 398, 12, -15, -10, -2, 1, 6, 977, 944, 682,∜
2025-03-12 12:26:19.098,594, 602, 332, 15, 0, -3, -5, 2, 8, 983, 943, 591,∜
2025-03-12 12:26:19.147,835, 655, 372, -4, 6, 5, -3, 1, 7, 986, 924, 116,∜
2025-03-12 12:26:19.197,865, 541, 383, -19, 7, 25, -5, 1, 8, 988, 956, 386,∜
2025-03-12 12:26:19.247,624, 561, 484, 10, 7, 8, -4, 4, 7, 978, 941, 675,∜
2025-03-12 12:26:19.308,563, 736, 708, 6, -20, -1, -3, 3, 7, 975, 927, 715,∜
2025-03-12 12:26:19.363,707, 878, 151, -10, 30, 20, -4, 2, 7, 987, 944, 548,∜
2025-03-12 12:26:19.417,830, 437, 352, 4, 24, -7, -1, 3, 6, 978, 878, 651,∜
2025-03-12 12:26:19.472,763, 543, 372, -44, 62, -55, -4, 3, 3, 898, 847, 637,∜
2025-03-12 12:26:19.741,682, 589, 437, 21, 5, 1, -3, 3, 3, 903, 138, 651,∫
2025-03-12 12:26:19.788,675, 600, 445, 20, 3, 1, -2, 1, 5, 904, 153, 663,∫
2025-03-12 12:26:19.846,678, 600, 440, 1, -5, 2, -2, 4, 3, 909, 290, 684,∫
2025-03-12 12:26:19.897,677, 626, 393, -7, -1, -2, -2, 1, 5, 924, 437, 696,∫
2025-03-12 12:26:19.947,689, 600, 419, -2, 1, 2, -3, 2, 5, 930, 499, 695,∫
2025-03-12 12:26:19.997,680, 629, 407, 1, 0, 3, -3, 2, 4, 938, 527, 707,∫
2025-03-12 12:26:20.048,694, 604, 420, 4, -1, 0, -4, 2, 6, 942, 543, 720,∫
2025-03-12 12:26:20.097,680, 612, 420, 1, 0, 1, -4, 1, 4, 945, 571, 712,∫
2025-03-12 12:26:20.147,682, 596, 425, 5, 0, 1, -3, 4, 5, 947, 626, 719,∫
2025-03-12 12:26:20.208,680, 600, 426, 2, -1, 4, -3, 2, 5, 952, 653, 724,∫
2025-03-12 12:26:20.257,701, 589, 398, -4, 0, 2, -3, 2, 5, 955, 676, 719,∫
2025-03-12 12:26:20.312,697, 586, 375, -11, 0, 5, -5, 3, 4, 958, 735, 718,∫
2025-03-12 12:26:20.363,728, 538, 395, -20, 6, 12, -2, 2, 7, 965, 798, 724,∫
2025-03-12 12:26:20.422,728, 574, 404, -21, -5, 18, -1, 4, 5, 969, 836, 703,∫
2025-03-12 12:26:20.473,666, 507, 446, -12, -28, 25, -3, 5, 6, 976, 900, 662,∫
2025-03-12 12:26:20.532,683, 485, 528, -21, 2, -10, -5, 6, 4, 979, 936, 589,∫
2025-03-12 12:26:20.587,661, 329, 580, 39, -6, -33, -3, 4, 6, 980, 926, 408,∫
2025-03-12 12:26:20.644,434, 715, 336, -3, 49, 19, -3, 4, 5, 985, 927, 177,∫
2025-03-12 12:26:20.688,809, 532, 461, 1, 31, 10, -3, 5, 4, 980, 882, 23,∫
2025-03-12 12:26:20.746,914, 492, 492, 19, 23, -5, -2, 6, 3, 916, 702, 417,∫
2025-03-12 12:26:20.798,634, 412, 463, -76, 87, -49, -2, 5, 3, 878, 655, 308,∫
2025-03-12 12:26:21.091,735, 571, 402, -1, -8, 4, -3, 4, 3, 904, 748, 393,∮
2025-03-12 12:26:21.144,722, 562, 413, -1, -4, 3, -2, 5, 3, 900, 744, 373,∮
2025-03-12 12:26:21.196,678, 562, 492, -4, 0, 0, -1, 4, 4, 914, 776, 389,∮
2025-03-12 12:26:21.249,694, 565, 476, 0, -10, 2, -4, 5, 4, 921, 790, 358,∮
2025-03-12 12:26:21.297,721, 562, 417, -3, -2, 1, -3, 5, 6, 928, 793, 346,∮
2025-03-12 12:26:21.352,708, 576, 427, -3, -2, 1, -1, 3, 5, 939, 799, 388,∮
2025-03-12 12:26:21.407,689, 562, 462, -2, -2, 1, -3, 4, 5, 946, 811, 403,∮
2025-03-12 12:26:21.458,706, 563, 442, 0, 0, -3, -3, 4, 6, 944, 810, 427,∮
2025-03-12 12:26:21.512,715, 547, 435, -3, -1, -1, -2, 6, 5, 947, 820, 484,∮
2025-03-12 12:26:21.567,697, 572, 453, -1, -2, -3, -3, 3, 5, 947, 819, 478,∮
2025-03-12 12:26:21.617,696, 569, 453, 2, -2, 1, -2, 3, 5, 949, 826, 494,∮
2025-03-12 12:26:21.671,712, 558, 458, -1, 0, -1, -4, 3, 3, 950, 827, 501,∮
2025-03-12 12:26:21.722,706, 573, 434, 0, -1, 0, -3, 4, 3, 948, 825, 495,∮
2025-03-12 12:26:21.778,825, 585, 436, 2, -9, 16, -4, 2, 6, 959, 855, 602,∮
2025-03-12 12:26:21.830,672, 550, 402, -13, 3, 0, -4, 5, 5, 959, 852, 578,∮
2025-03-12 12:26:21.879,654, 500, 577, 2, -33, 19, -4, 5, 7, 968, 889, 569,∮
2025-03-12 12:26:21.937,708, 437, 251, -21, -1, -5, -4, 5, 4, 974, 926, 339,∮
2025-03-12 12:26:21.987,626, 400, 506, 37, 0, -27, -4, 4, 5, 975, 929, 48,∮
2025-03-12 12:26:22.047,904, 1041, -321, 34, 41, 29, -3, 2, 7, 984, 927, 65,∮
2025-03-12 12:26:22.098,634, 357, 627, 3, 13, 17, -3, 3, 6, 980, 927, 222,∮
2025-03-12 12:26:22.159,375, 696, 694, -6, -15, -36, -5, 4, 4, 963, 921, 677,∮
2025-03-12 12:26:22.213,780, 370, 436, 4, -21, -1, -4, 2, 6, 981, 951, 585,∮
2025-03-12 12:26:22.262,422, 851, 390, 6, 20, 20, -3, 4, 6, 986, 952, 35,∮
2025-03-12 12:26:22.313,551, 600, 35, -35, 30, 9, -3, 5, 3, 975, 893, 41,∮
2025-03-12 12:26:22.372,1071, 442, 52, -42, 9, -68, -3, 5, 5, 925, 882, 495,∮
2025-03-12 12:26:22.421,335, 727, 1048, 27, -87, 34, -5, 4, 5, 956, 929, 682,∮
2025-03-12 12:26:22.479,504, 865, 128, 0, 31, 37, -2, 5, 4, 982, 947, 133,∮
2025-03-12 12:26:22.530,817, 669, 328, -40, 48, 39, -6, 7, 2, 984, 914, 56,∮
2025-03-12 12:26:22.588,960, 237, 596, 55, 17, -31, -2, 7, 3, 915, 737, 110,∮
2025-03-12 12:26:22.646,587, 358, 572, -50, 74, -68, -1, 6, 1, 747, 762, 248,∮
2025-03-12 12:26:22.967,687, 558, 446, 0, -5, -1, -4, 5, 4, 892, 761, 426,∂
2025-03-12 12:26:23.017,685, 560, 450, 0, -4, -2, -3, 5, 6, 895, 765, 437,∂
2025-03-12 12:26:23.073,679, 568, 493, 1, -5, 0, -3, 4, 4, 908, 791, 510,∂
2025-03-12 12:26:23.122,688, 563, 457, 3, -6, 2, -2, 3, 4, 909, 797, 530,∂
2025-03-12 12:26:23.179,728, 557, 443, -4, -2, 1, -2, 5, 4, 921, 814, 533,∂
2025-03-12 12:26:23.228,696, 571, 472, -4, 1, -1, -4, 5, 4, 928, 820, 507,∂
2025-03-12 12:26:23.280,694, 555, 493, 0, -3, 2, -1, 5, 5, 930, 820, 487,∂
2025-03-12 12:26:23.330,708, 568, 438, 2, -1, 0, -2, 5, 3, 935, 826, 499,∂
2025-03-12 12:26:23.380,678, 558, 493, 4, 0, 2, -3, 3, 6, 940, 832, 523,∂
2025-03-12 12:26:23.437,755, 564, 408, 4, -6, 4, -3, 4, 4, 946, 831, 509,∂
2025-03-12 12:26:23.488,673, 555, 484, -7, 2, -4, -3, 3, 4, 951, 837, 505,∂
2025-03-12 12:26:23.544,684, 565, 466, 0, -1, -1, -3, 5, 5, 951, 833, 476,∂
2025-03-12 12:26:23.597,654, 550, 474, -13, 4, -10, -2, 3, 6, 952, 821, 265,∂
2025-03-12 12:26:23.649,509, 528, 723, 36, -59, 12, -3, 3, 6, 957, 851, 308,∂
2025-03-12 12:26:23.708,1156, 670, 628, 36, -8, 7, -3, 3, 6, 975, 937, 377,∂
2025-03-12 12:26:23.761,586, 592, 713, 34, 16, 17, -4, 5, 5, 983, 936, 376,∂
2025-03-12 12:26:23.815,924, 387, 339, -19, 37, 14, -4, 5, 4, 977, 930, 42,∂
2025-03-12 12:26:23.871,1077, 243, 414, 14, 12, -14, -1, 5, 5, 968, 904, 30,∂
2025-03-12 12:26:23.922,565, 724, 215, -42, -27, 13, -3, 4, 5, 986, 965, 61,∂
2025-03-12 12:26:23.978,668, 555, 372, 20, 8, 10, -4, 3, 7, 982, 951, 410,∂
2025-03-12 12:26:24.031,702, 517, 395, -40, 90, -59, -4, 4, 5, 950, 850, 349,∂
2025-03-12 12:26:24.572,689, 563, 472, -3, -1, -1, -3, 5, 3, 880, 710, 39,∇
2025-03-12 12:26:24.617,692, 563, 477, -3, -1, 0, -2, 2, 5, 882, 715, 51,∇
2025-03-12 12:26:24.672,692, 572, 460, -2, -2, -2, -2, 4, 4, 882, 711, 35,∇
2025-03-12 12:26:24.728,694, 576, 474, 0, -4, 0, -3, 5, 5, 883, 719, 71,∇
2025-03-12 12:26:24.777,704, 583, 437, 0, -2, 0, -2, 3, 4, 884, 716, 49,∇
2025-03-12 12:26:24.828,689, 571, 465, -2, 1, 0, -2, 5, 4, 876, 711, 57,∇
2025-03-12 12:26:24.879,697, 560, 463, -2, 0, 0, -4, 2, 4, 878, 712, 91,∇
2025-03-12 12:26:24.930,696, 575, 467, -3, 0, 1, -2, 3, 5, 877, 702, 47,∇
2025-03-12 12:26:24.980,700, 572, 458, 1, -3, 0, -2, 5, 3, 881, 701, 38,∇
2025-03-12 12:26:25.030,705, 561, 461, -3, 0, 0, -3, 4, 5, 882, 706, 81,∇
2025-03-12 12:26:25.087,686, 556, 479, -2, -3, -1, -3, 4, 5, 895, 739, 122,∇
2025-03-12 12:26:25.138,692, 573, 451, -6, -5, 0, -3, 5, 4, 913, 781, 189,∇
2025-03-12 12:26:25.194,664, 577, 468, -3, -4, -1, -3, 4, 5, 924, 796, 238,∇
2025-03-12 12:26:25.247,644, 551, 491, 7, -11, -1, -3, 3, 5, 928, 802, 198,∇
2025-03-12 12:26:25.297,664, 508, 483, 6, -24, -7, -5, 5, 6, 937, 797, 20,∇
2025-03-12 12:26:25.354,1182, 917, 576, 51, -39, 6, -3, 3, 6, 976, 933, 73,∇
2025-03-12 12:26:25.407,557, 387, 436, -8, 11, 31, -4, 5, 7, 984, 942, 327,∇
2025-03-12 12:26:25.461,662, 446, 466, 51, 8, 5, -5, 4, 8, 984, 938, 223,∇
2025-03-12 12:26:25.512,858, 528, 145, -21, 50, 14, -4, 4, 6, 981, 888, 59,∇
2025-03-12 12:26:25.571,802, 115, 845, -1, -12, -49, -3, 6, 5, 944, 810, 201,∇
2025-03-12 12:26:25.621,482, 824, 1015, 11, -48, -4, -3, 5, 4, 920, 830, 342,∇
2025-03-12 12:26:25.677,907, 689, 404, 15, -4, 11, -3, 3, 5, 977, 937, 46,∇
2025-03-12 12:26:25.728,653, 379, 477, 2, 41, 50, -5, 5, 7, 982, 916, 58,∇
2025-03-12 12:26:25.787,903, 273, 198, -17, 37, -68, -3, 6, 4, 951, 805, 163,∇
2025-03-12 12:26:25.845,557, 647, 869, -37, 39, -44, -1, 6, -1, 695, 747, 324,∇
2025-03-12 12:26:26.119,730, 560, 373, -3, -2, 1, -3, 3, 6, 920, 802, 451,∆
2025-03-12 12:26:26.171,707, 554, 379, -3, -1, -1, -3, 3, 6, 922, 805, 471,∆
2025-03-12 12:26:26.228,716, 576, 442, -10, -4, -3, -3, 4, 5, 927, 826, 577,∆
2025-03-12 12:26:26.278,716, 585, 396, -8, -3, 2, -3, 4, 7, 939, 828, 577,∆
2025-03-12 12:26:26.328,632, 553, 521, 7, -16, 8, -5, 3, 6, 954, 849, 588,∆
2025-03-12 12:26:26.390,777, 605, 326, -21, -5, -4, -3, 4, 7, 965, 900, 345,∆
2025-03-12 12:26:26.444,704, 586, 536, -6, -9, -3, -4, 5, 6, 972, 927, 198,∆
2025-03-12 12:26:26.497,420, 836, 462, 18, 25, -10, -3, 2, 7, 972, 853, 50,∆
2025-03-12 12:26:26.547,762, 656, 97, -1, 22, 4, -4, 4, 8, 970, 855, 43,∆
2025-03-12 12:26:26.597,558, 423, 499, -42, -11, 52, -4, 3, 7, 984, 945, 33,∆
2025-03-12 12:26:26.657,628, 527, 417, 13, 5, 10, -2, 6, 7, 983, 939, 86,∆
2025-03-12 12:26:26.716,921, 347, 107, -16, 4, -77, -4, 6, 5, 953, 876, 562,∆
2025-03-12 12:26:26.769,534, 815, 1093, 9, -53, 22, -4, 3, 6, 947, 874, 637,∆
2025-03-12 12:26:26.823,1145, 849, 6, 21, 28, 60, -5, 5, 6, 985, 945, 143,∆
2025-03-12 12:26:26.886,673, 563, 447, -2, 40, 41, -5, 6, 6, 987, 931, 77,∆
2025-03-12 12:26:26.936,1001, 227, 239, 7, 28, -56, -3, 5, 4, 948, 832, 300,∆
2025-03-12 12:26:26.997,520, 620, 883, -26, 33, -31, -2, 5, 2, 913, 821, 298,∆
2025-03-12 12:26:27.343,659, 562, 512, 3, -7, -3, -3, 4, 3, 736, 394, 180,π
2025-03-12 12:26:27.403,664, 564, 505, 6, -9, -2, -3, 2, 4, 743, 414, 188,π
2025-03-12 12:26:27.453,706, 554, 475, 8, -5, -1, -4, 3, 4, 765, 385, 297,π
2025-03-12 12:26:27.497,683, 580, 454, 17, -2, -1, -3, 3, 4, 820, 299, 442,π
2025-03-12 12:26:27.556,675, 563, 466, 12, 2, 3, -4, 3, 2, 847, 179, 531,π
2025-03-12 12:26:27.603,689, 605, 449, 12, -2, 3, -1, 3, 4, 860, 156, 564,π
2025-03-12 12:26:27.660,695, 576, 465, 3, 0, 2, -2, 4, 5, 873, 270, 590,π
2025-03-12 12:26:27.714,687, 588, 452, 0, -3, 2, -3, 4, 4, 890, 444, 608,π
2025-03-12 12:26:27.783,697, 573, 457, -6, -4, 3, -3, 3, 4, 913, 473, 607,π
2025-03-12 12:26:27.816,695, 591, 435, -6, -4, 6, -2, 2, 4, 925, 523, 567,π
2025-03-12 12:26:27.911,707, 552, 455, -4, -4, 6, -4, 4, 5, 941, 673, 560,π
2025-03-12 12:26:27.997,679, 569, 453, -4, -4, 2, -4, 4, 3, 947, 719, 534,π
2025-03-12 12:26:28.039,721, 568, 438, -2, -7, 3, -2, 5, 5, 950, 760, 551,π
2025-03-12 12:26:28.071,691, 565, 439, 2, -6, 0, -3, 4, 7, 952, 778, 567,π
2025-03-12 12:26:28.085,702, 555, 427, -9, -9, -7, -5, 2, 8, 950, 768, 468,π
2025-03-12 12:26:28.127,722, 551, 477, 0, -10, -3, -3, 4, 6, 954, 778, 237,π
2025-03-12 12:26:28.180,721, 606, 367, -20, -5, -15, -2, 2, 6, 961, 857, 38,π
2025-03-12 12:26:28.238,1127, 888, 561, -19, -32, 19, -3, 4, 7, 981, 946, 53,π
2025-03-12 12:26:28.293,641, 814, 199, -16, -6, 40, -4, 5, 7, 988, 958, 100,π
2025-03-12 12:26:28.347,658, 608, 408, 37, -6, -2, -5, 6, 7, 977, 926, 374,π
2025-03-12 12:26:28.399,680, 411, 402, 8, 22, -65, -4, 4, 7, 957, 852, 511,π
2025-03-12 12:26:28.454,871, 596, 429, -8, -11, -3, -3, 3, 6, 977, 925, 487,π
2025-03-12 12:26:28.507,751, 357, 566, 1, 31, 31, -6, 5, 6, 986, 938, 44,π
2025-03-12 12:26:28.558,738, 392, 209, 11, 21, 2, -4, 6, 7, 969, 861, 39,π
2025-03-12 12:26:28.617,895, 575, 257, -25, -13, -30, -3, 5, 6, 959, 893, 293,π
2025-03-12 12:26:28.669,515, 422, 396, 16, -49, 5, -5, 5, 7, 979, 938, 163,π
2025-03-12 12:26:28.722,753, 592, 372, 2, 16, 15, -4, 3, 7, 987, 941, 66,π
2025-03-12 12:26:28.777,709, 566, 158, 15, 11, 27, -5, 5, 5, 987, 942, 66,π
2025-03-12 12:26:28.827,887, 382, 385, 31, -4, -13, -3, 5, 5, 971, 899, 376,π
2025-03-12 12:26:28.887,628, 576, 608, -42, 79, -39, -2, 6, -1, 937, 761, 282,π
2025-03-12 12:26:29.213,659, 626, 532, 8, -20, -57, -2, 1, 2, 685, 73, 34,θ
2025-03-12 12:26:29.269,666, 656, 500, 16, -21, -57, 0, 0, 4, 684, 80, 157,θ
2025-03-12 12:26:29.321,627, 601, 479, 7, -14, -78, -2, -1, 4, 704, 214, 379,θ
2025-03-12 12:26:29.403,584, 791, 436, -15, -1, -75, -1, -3, 4, 740, 273, 486,θ
2025-03-12 12:26:29.436,350, 868, 491, 1, -2, -15, 0, -5, 2, 801, 458, 517,θ
2025-03-12 12:26:29.487,341, 905, 453, 6, 3, 83, -1, -6, 3, 866, 550, 453,θ
2025-03-12 12:26:29.552,557, 520, 442, 3, 8, 140, -2, -2, 4, 886, 584, 220,θ
2025-03-12 12:26:29.607,708, 512, 426, 25, -9, 30, -3, 0, 4, 896, 552, 232,θ
2025-03-12 12:26:29.655,665, 553, 332, -10, 6, 7, -3, 1, 5, 885, 564, 286,θ
2025-03-12 12:26:29.701,663, 621, 370, -6, 2, 10, -4, 1, 4, 886, 577, 337,θ
2025-03-12 12:26:29.754,876, 715, 752, 22, -18, 6, -3, 3, 5, 879, 564, 393,θ
2025-03-12 12:26:29.813,644, 458, 283, -6, 0, 5, -4, 3, 5, 891, 633, 417,θ
2025-03-12 12:26:29.869,682, 677, 478, -12, -5, 4, -3, 1, 5, 892, 661, 449,θ
2025-03-12 12:26:29.917,692, 637, 480, -2, -23, 0, -1, 2, 6, 900, 694, 470,θ
2025-03-12 12:26:29.962,712, 576, 333, -12, 1, -5, -4, 1, 10, 916, 735, 467,θ
2025-03-12 12:26:30.021,675, 565, 446, -7, 6, 3, -3, 3, 5, 932, 771, 498,θ
2025-03-12 12:26:30.073,734, 578, 385, -1, -5, 2, -2, 3, 7, 935, 794, 545,θ
2025-03-12 12:26:30.125,727, 615, 442, -3, 1, 1, -2, 2, 6, 942, 823, 593,θ
2025-03-12 12:26:30.180,596, 597, 520, -11, -13, 2, -3, 3, 6, 946, 837, 637,θ
2025-03-12 12:26:30.247,650, 319, 407, 9, -10, -19, -6, 4, 5, 957, 885, 556,θ
2025-03-12 12:26:30.305,1091, 875, 183, 38, 61, 50, -4, 2, 7, 978, 888, 197,θ
2025-03-12 12:26:30.346,760, 609, 365, -2, 29, 27, -4, 5, 4, 970, 863, 425,θ
2025-03-12 12:26:30.417,535, 684, 611, -1, -45, -28, -2, 5, 4, 946, 894, 738,θ
2025-03-12 12:26:30.453,690, 740, 194, -20, -6, 18, -3, 2, 7, 982, 940, 590,θ
2025-03-12 12:26:30.507,1193, 490, 396, -65, 49, 47, -3, 3, 8, 981, 916, 55,θ
2025-03-12 12:26:30.558,936, 86, 642, 4, -6, -39, -2, 5, 7, 928, 796, 18,θ
2025-03-12 12:26:30.613,309, 819, 1286, 61, -55, 21, -2, 3, 7, 946, 883, 272,θ
2025-03-12 12:26:30.669,712, 1056, 142, -27, 11, 23, -4, 4, 4, 981, 949, 92,θ
2025-03-12 12:26:30.723,741, 568, 468, 14, 12, 8, -4, 4, 7, 962, 915, 577,θ
2025-03-12 12:26:30.777,647, 530, 536, -52, 66, -41, -4, 3, 5, 899, 791, 270,θ
2025-03-12 12:26:31.047,685, 570, 497, 5, -6, 2, -1, 4, 2, 879, 723, 362,λ
2025-03-12 12:26:31.097,675, 572, 499, 5, -6, 2, -4, 1, 5, 885, 732, 392,λ
2025-03-12 12:26:31.153,678, 583, 470, 6, -9, 4, -3, 3, 5, 893, 741, 473,λ
2025-03-12 12:26:31.203,697, 581, 448, 8, -7, 1, -2, 4, 5, 896, 735, 568,λ
2025-03-12 12:26:31.247,694, 573, 441, 5, 0, 0, -3, 2, 5, 907, 742, 614,λ
2025-03-12 12:26:31.305,684, 581, 461, 2, 0, 3, -3, 3, 5, 909, 716, 649,λ
2025-03-12 12:26:31.358,701, 567, 456, 1, 0, 1, -4, 4, 5, 909, 708, 658,λ
2025-03-12 12:26:31.411,712, 560, 447, -1, -1, -2, -2, 3, 7, 899, 696, 644,λ
2025-03-12 12:26:31.462,697, 569, 443, -1, 0, -1, -2, 1, 4, 905, 710, 641,λ
2025-03-12 12:26:31.517,699, 567, 448, -4, -1, 0, -3, 4, 5, 910, 721, 633,λ
2025-03-12 12:26:31.572,704, 564, 446, -4, -1, -1, -3, 3, 6, 910, 727, 634,λ
2025-03-12 12:26:31.625,701, 563, 458, -3, -2, 0, -3, 5, 5, 912, 743, 640,λ
2025-03-12 12:26:31.678,703, 574, 452, 0, -1, -2, -3, 2, 5, 904, 724, 612,λ
2025-03-12 12:26:31.728,689, 575, 450, -2, 0, -2, -2, 3, 6, 903, 723, 598,λ
2025-03-12 12:26:31.778,695, 581, 458, -3, 0, -2, -3, 4, 5, 897, 697, 558,λ
2025-03-12 12:26:31.837,690, 568, 459, -2, -1, -2, -3, 4, 4, 910, 713, 586,λ
2025-03-12 12:26:31.892,687, 560, 473, -2, -2, 0, -3, 3, 6, 919, 734, 610,λ
2025-03-12 12:26:31.944,704, 567, 446, -5, -2, 0, -2, 3, 5, 921, 762, 616,λ
2025-03-12 12:26:31.997,677, 582, 453, -2, -5, 0, -3, 2, 6, 928, 787, 621,λ
2025-03-12 12:26:32.047,702, 559, 436, 2, 0, 0, -1, 2, 8, 933, 787, 597,λ
2025-03-12 12:26:32.100,657, 583, 436, 7, -3, 4, -3, 3, 6, 941, 797, 597,λ
2025-03-12 12:26:32.153,624, 534, 524, 14, -30, -2, -3, 3, 6, 951, 856, 349,λ
2025-03-12 12:26:32.209,875, 509, 603, 11, -19, -4, -3, 4, 7, 970, 930, 372,λ
2025-03-12 12:26:32.261,461, 419, 456, 31, -5, 17, -5, 5, 7, 985, 938, 598,λ
2025-03-12 12:26:32.317,696, 645, 179, 12, 34, 32, -5, 4, 5, 985, 929, 422,λ
2025-03-12 12:26:32.375,810, 309, 240, -34, 24, -56, -5, 6, 5, 959, 875, 631,λ
2025-03-12 12:26:32.428,540, 643, 713, 5, -65, 30, -3, 4, 6, 970, 922, 718,λ
2025-03-12 12:26:32.477,701, 708, 435, -9, 0, 9, -4, 4, 4, 985, 936, 219,λ
2025-03-12 12:26:32.527,804, 607, 311, 12, 26, 10, -3, 3, 7, 973, 855, 126,λ
2025-03-12 12:26:32.592,890, 424, 181, -60, 63, -59, -3, 5, 4, 928, 814, 456,λ
2025-03-12 12:26:32.642,338, 595, 899, -40, 18, -28, -2, 3, 0, 909, 842, 302,λ
2025-03-12 12:26:32.888,697, 553, 474, -5, 3, -2, -3, 3, 1, 848, 708, 386,μ
2025-03-12 12:26:32.947,674, 553, 474, -5, 3, -3, -1, 3, 6, 846, 700, 382,μ
2025-03-12 12:26:32.997,671, 563, 511, 6, -3, -1, -2, 4, 4, 865, 686, 429,μ
2025-03-12 12:26:33.047,711, 575, 457, 2, -7, -1, -3, 3, 5, 872, 656, 505,μ
2025-03-12 12:26:33.108,695, 559, 462, -3, 0, 1, -3, 3, 5, 884, 669, 524,μ
2025-03-12 12:26:33.157,647, 552, 503, -1, 2, 1, -3, 4, 4, 904, 731, 546,μ
2025-03-12 12:26:33.210,720, 550, 461, 2, -4, -1, -2, 4, 5, 909, 755, 528,μ
2025-03-12 12:26:33.263,667, 572, 505, -2, -1, -1, -3, 4, 5, 920, 779, 521,μ
2025-03-12 12:26:33.311,720, 558, 448, 3, -2, -2, -3, 3, 5, 929, 816, 571,μ
2025-03-12 12:26:33.370,656, 561, 491, 2, 3, -5, -2, 2, 5, 926, 812, 531,μ
2025-03-12 12:26:33.420,682, 585, 461, 1, -4, -7, -3, 3, 3, 921, 804, 523,μ
2025-03-12 12:26:33.476,717, 566, 384, -8, 2, -6, -3, 2, 6, 919, 807, 489,μ
2025-03-12 12:26:33.527,641, 598, 507, -2, -3, -1, -2, 2, 7, 917, 805, 498,μ
2025-03-12 12:26:33.577,715, 563, 457, -7, 1, -5, -3, 2, 4, 916, 797, 403,μ
2025-03-12 12:26:33.627,650, 566, 506, 15, 16, 5, -2, 3, 3, 912, 733, 253,μ
2025-03-12 12:26:33.687,680, 586, 460, 32, 13, 15, -2, 4, 4, 919, 722, 457,μ
2025-03-12 12:26:33.742,660, 561, 566, 24, 2, 29, -3, 5, 4, 922, 722, 383,μ
2025-03-12 12:26:33.794,757, 730, 318, 14, 4, -8, -4, 3, 5, 949, 821, 53,μ
2025-03-12 12:26:33.847,650, 555, 497, -32, -22, -7, -3, 5, 2, 965, 934, 186,μ
2025-03-12 12:26:33.909,377, 628, 916, -51, -47, -13, -3, 4, 4, 972, 953, 572,μ
2025-03-12 12:26:33.960,705, 532, 562, -3, -15, -4, -3, 4, 6, 977, 957, 593,μ
2025-03-12 12:26:34.010,382, 853, 533, 31, 30, 16, -3, 3, 7, 983, 952, 569,μ
2025-03-12 12:26:34.074,792, 814, 190, -33, 16, 27, -3, 3, 6, 985, 954, 365,μ
2025-03-12 12:26:34.127,593, 522, 412, -23, -5, -1, -3, 4, 4, 983, 956, 533,μ
2025-03-12 12:26:34.177,720, 558, 393, -5, 1, 0, -4, 5, 8, 982, 956, 566,μ
2025-03-12 12:26:34.227,721, 526, 503, 8, -8, -6, -1, 3, 6, 982, 954, 524,μ
2025-03-12 12:26:34.287,775, 500, 419, -8, 19, 18, -3, 4, 5, 984, 949, 362,μ
2025-03-12 12:26:34.341,651, 446, 454, -30, -3, 5, -3, 6, 7, 982, 954, 278,μ
2025-03-12 12:26:34.393,953, 646, 110, 3, 27, -5, -3, 5, 6, 975, 939, 642,μ
2025-03-12 12:26:34.447,480, 570, 734, -51, 73, -29, -3, 5, 1, 970, 884, 357,μ
2025-03-12 12:26:34.497,527, 490, 750, 10, -15, 7, -1, 5, 1, 959, 809, 344,μ
2025-03-12 12:26:34.558,794, 530, 377, 13, -20, 0, 0, 3, 4, 942, 777, 440,μ
2025-03-12 12:26:34.610,720, 568, 479, -3, 6, -9, -2, 4, 4, 926, 752, 407,μ
2025-03-12 12:26:34.957,704, 563, 496, -3, -4, -2, -3, 5, 6, 892, 681, 360,ω
2025-03-12 12:26:35.011,700, 554, 487, -3, -5, -1, -3, 4, 5, 895, 686, 364,ω
2025-03-12 12:26:35.059,690, 543, 493, 2, -5, 0, -3, 4, 2, 899, 702, 370,ω
2025-03-12 12:26:35.117,700, 558, 467, 5, -6, 1, -4, 4, 5, 906, 736, 417,ω
