Timestamp,Acc_X,Acc_Y,Acc_Z,Gyro_X,Gyro_Y,Gyro_Z,Mag_X,Mag_Y,Mag_Z,Force1,Force2,Force3,Letter
2025-03-19 18:56:20.072,493, 630, 667, -2, 2, 2, 4, -9, 17, 718, 534, 159,noise
2025-03-19 18:56:20.075,486, 623, 659, -3, 2, 4, 4, -9, 17, 718, 519, 149,noise
2025-03-19 18:56:20.089,496, 596, 653, -2, 2, 4, 5, -9, 17, 719, 523, 159,noise
2025-03-19 18:56:20.096,478, 593, 668, -2, 1, 4, 5, -8, 17, 721, 527, 162,noise
2025-03-19 18:56:20.106,482, 592, 681, -2, -1, 4, 4, -9, 15, 720, 531, 168,noise
2025-03-19 18:56:20.113,483, 595, 681, 0, -3, 4, 4, -8, 16, 722, 533, 177,noise
2025-03-19 18:56:20.125,485, 602, 679, 2, -4, 4, 6, -8, 17, 719, 533, 177,noise
2025-03-19 18:56:20.133,486, 606, 665, 4, -5, 5, 4, -9, 16, 716, 531, 176,noise
2025-03-19 18:56:20.142,499, 602, 651, 6, -5, 6, 5, -8, 18, 715, 529, 165,noise
2025-03-19 18:56:20.151,493, 603, 643, 6, -4, 7, 3, -10, 17, 716, 525, 163,noise
2025-03-19 18:56:20.158,490, 609, 643, 4, -4, 7, 4, -7, 16, 710, 521, 164,noise
2025-03-19 18:56:20.168,493, 603, 645, 4, -5, 8, 4, -7, 16, 709, 522, 164,noise
2025-03-19 18:56:20.175,500, 600, 654, 5, -6, 8, 4, -8, 17, 706, 524, 165,noise
2025-03-19 18:56:20.187,513, 588, 653, 8, -7, 7, 5, -6, 18, 705, 524, 173,noise
2025-03-19 18:56:20.192,530, 581, 652, 9, -6, 6, 4, -7, 17, 703, 525, 174,noise
2025-03-19 18:56:20.203,530, 592, 638, 7, -5, 5, 5, -8, 18, 704, 522, 169,noise
2025-03-19 18:56:20.212,521, 606, 624, 4, -4, 4, 5, -10, 18, 701, 525, 186,noise
2025-03-19 18:56:20.219,520, 604, 615, 2, -3, 4, 3, -9, 19, 698, 526, 180,noise
2025-03-19 18:56:20.227,518, 591, 621, 4, -3, 4, 4, -8, 18, 692, 527, 173,noise
2025-03-19 18:56:20.237,524, 585, 645, 5, -2, 3, 5, -8, 19, 689, 521, 168,noise
2025-03-19 18:56:20.243,528, 582, 656, 4, -2, 3, 5, -8, 19, 688, 521, 164,noise
2025-03-19 18:56:20.257,523, 590, 649, 4, -3, 2, 4, -9, 18, 687, 525, 167,noise
2025-03-19 18:56:20.265,518, 591, 633, 5, -4, 1, 5, -7, 17, 681, 521, 180,noise
2025-03-19 18:56:20.273,520, 594, 620, 5, -4, 1, 3, -8, 21, 676, 516, 170,noise
2025-03-19 18:56:20.282,523, 596, 621, 6, -3, 1, 5, -8, 19, 671, 520, 172,noise
2025-03-19 18:56:20.290,521, 597, 630, 4, -3, 1, 3, -9, 19, 673, 532, 178,noise
2025-03-19 18:56:20.298,522, 602, 631, 3, -3, 0, 3, -6, 18, 666, 530, 182,noise
2025-03-19 18:56:20.309,522, 598, 636, 4, -3, 0, 4, -10, 20, 666, 536, 187,noise
2025-03-19 18:56:20.318,519, 602, 636, 5, -3, 0, 4, -10, 20, 661, 536, 182,noise
2025-03-19 18:56:20.325,524, 604, 632, 4, -3, 0, 4, -10, 20, 660, 536, 182,noise
2025-03-19 18:56:20.334,513, 609, 624, 3, -3, 0, 4, -10, 20, 657, 535, 187,noise
2025-03-19 18:56:20.342,516, 608, 620, 3, -2, 1, 4, -8, 18, 654, 539, 197,noise
2025-03-19 18:56:20.352,518, 612, 625, 2, -2, 1, 2, -9, 20, 654, 539, 199,noise
2025-03-19 18:56:20.359,518, 612, 630, 2, -2, 1, 3, -8, 18, 652, 541, 191,noise
2025-03-19 18:56:20.371,522, 608, 628, 2, -3, 1, 4, -8, 20, 653, 540, 192,noise
2025-03-19 18:56:20.376,527, 606, 623, 3, -3, 1, 3, -8, 19, 647, 539, 195,noise
2025-03-19 18:56:20.387,534, 604, 613, 3, -2, 1, 3, -10, 20, 650, 540, 193,noise
2025-03-19 18:56:20.392,526, 607, 613, 1, -2, 1, 3, -7, 20, 650, 545, 196,noise
2025-03-19 18:56:20.404,518, 610, 613, 1, -2, 1, 4, -11, 20, 647, 542, 189,noise
2025-03-19 18:56:20.412,524, 605, 614, 0, -1, 1, 4, -8, 18, 646, 547, 194,noise
2025-03-19 18:56:20.421,527, 605, 624, 2, -1, 1, 4, -8, 18, 646, 544, 194,noise
2025-03-19 18:56:20.432,530, 607, 632, 2, -1, 1, 4, -9, 21, 647, 551, 214,noise
2025-03-19 18:56:20.440,531, 616, 637, 0, -1, 1, 1, -7, 18, 647, 549, 215,noise
2025-03-19 18:56:20.450,525, 612, 623, 0, -1, 0, 5, -10, 20, 643, 547, 205,noise
2025-03-19 18:56:20.458,516, 606, 614, 0, -1, 1, 2, -7, 19, 640, 548, 206,noise
2025-03-19 18:56:20.466,517, 607, 625, 0, -1, 1, 4, -10, 21, 641, 548, 203,noise
2025-03-19 18:56:20.474,517, 606, 626, 0, -1, 1, 4, -7, 18, 642, 549, 194,noise
2025-03-19 18:56:20.483,522, 607, 627, -1, -1, 1, 4, -11, 22, 638, 545, 191,noise
2025-03-19 18:56:20.494,523, 606, 620, -1, -1, 1, 4, -8, 19, 638, 540, 181,noise
2025-03-19 18:56:20.502,520, 603, 621, 1, -1, 1, 3, -11, 20, 638, 544, 192,noise
2025-03-19 18:56:20.510,527, 603, 618, 2, -1, 1, 3, -11, 20, 639, 544, 194,noise
2025-03-19 18:56:20.519,541, 610, 621, 1, -1, 0, 3, -8, 20, 642, 548, 201,noise
2025-03-19 18:56:20.525,539, 608, 612, -2, -1, 0, 3, -8, 20, 638, 553, 210,noise
2025-03-19 18:56:20.536,537, 605, 604, -2, -1, -1, 2, -8, 20, 639, 553, 209,noise
2025-03-19 18:56:20.542,530, 603, 606, -2, 0, 0, 5, -8, 21, 640, 553, 211,noise
2025-03-19 18:56:20.555,531, 605, 611, -3, 0, -1, 4, -8, 20, 640, 553, 208,noise
2025-03-19 18:56:20.562,534, 598, 621, -3, 0, -1, 3, -10, 20, 640, 553, 202,noise
2025-03-19 18:56:20.572,537, 606, 626, -3, 0, -2, 2, -8, 19, 638, 553, 199,noise
2025-03-19 18:56:20.580,537, 607, 623, -5, 0, -2, 4, -10, 21, 640, 548, 193,noise
2025-03-19 18:56:20.587,525, 607, 620, -6, 1, -1, 4, -10, 21, 639, 555, 187,noise
2025-03-19 18:56:20.596,522, 606, 616, -6, 1, -2, 2, -9, 18, 645, 557, 187,noise
2025-03-19 18:56:20.608,520, 600, 621, -6, 1, -1, 3, -11, 20, 651, 559, 191,noise
2025-03-19 18:56:20.617,530, 595, 631, -5, 1, -2, 2, -8, 20, 650, 559, 196,noise
2025-03-19 18:56:20.625,538, 593, 630, -5, 1, -3, 2, -9, 20, 654, 564, 196,noise
2025-03-19 18:56:20.634,543, 602, 630, -5, 1, -3, 3, -7, 19, 655, 568, 206,noise
2025-03-19 18:56:20.642,546, 611, 619, -6, 2, -4, 3, -9, 20, 657, 566, 213,noise
2025-03-19 18:56:20.650,549, 612, 604, -8, 3, -4, 4, -8, 20, 659, 567, 212,noise
2025-03-19 18:56:20.658,540, 605, 604, -11, 4, -5, 4, -8, 20, 657, 565, 199,noise
2025-03-19 18:56:20.670,538, 603, 608, -12, 5, -5, 4, -8, 20, 658, 567, 201,noise
2025-03-19 18:56:20.675,540, 587, 608, -11, 5, -7, 4, -8, 20, 661, 572, 196,noise
2025-03-19 18:56:20.687,549, 596, 611, -10, 6, -8, 3, -9, 19, 663, 579, 217,noise
2025-03-19 18:56:20.692,557, 600, 607, -11, 7, -9, 4, -10, 19, 669, 579, 213,noise
2025-03-19 18:56:20.703,557, 611, 599, -14, 9, -10, 3, -8, 18, 673, 583, 218,noise
2025-03-19 18:56:20.711,541, 625, 597, -18, 10, -10, 3, -9, 19, 681, 587, 207,noise
2025-03-19 18:56:20.723,542, 616, 592, -21, 11, -9, 5, -8, 19, 685, 593, 210,noise
2025-03-19 18:56:20.732,533, 613, 608, -23, 11, -9, 3, -9, 19, 692, 603, 210,noise
2025-03-19 18:56:20.740,535, 603, 621, -23, 11, -9, 3, -8, 20, 698, 610, 246,noise
2025-03-19 18:56:20.748,544, 587, 637, -24, 12, -11, 5, -8, 18, 701, 611, 270,noise
2025-03-19 18:56:20.757,533, 575, 649, -24, 13, -13, 5, -8, 17, 706, 622, 293,noise
2025-03-19 18:56:20.766,524, 564, 645, -22, 14, -15, 5, -9, 18, 709, 634, 308,noise
2025-03-19 18:56:20.775,510, 570, 662, -22, 16, -16, 5, -9, 18, 710, 641, 312,noise
2025-03-19 18:56:20.785,500, 580, 677, -21, 17, -17, 5, -9, 15, 712, 645, 325,noise
2025-03-19 18:56:20.793,500, 580, 685, -21, 17, -17, 5, -9, 18, 716, 646, 334,noise
2025-03-19 18:56:20.802,500, 569, 681, -19, 18, -17, 5, -7, 16, 717, 652, 338,noise
2025-03-19 18:56:20.810,500, 578, 684, -19, 19, -17, 6, -9, 17, 717, 659, 361,noise
2025-03-19 18:56:20.821,494, 576, 697, -18, 18, -17, 5, -9, 16, 721, 662, 379,noise
2025-03-19 18:56:20.825,501, 602, 692, -19, 17, -17, 5, -9, 14, 720, 672, 386,noise
2025-03-19 18:56:20.839,517, 597, 679, -20, 16, -17, 7, -8, 13, 722, 675, 391,noise
2025-03-19 18:56:20.847,517, 580, 641, -20, 16, -20, 5, -8, 14, 722, 682, 399,noise
2025-03-19 18:56:20.856,521, 561, 644, -19, 16, -22, 6, -9, 12, 721, 679, 398,noise
2025-03-19 18:56:20.864,520, 565, 651, -18, 17, -25, 7, -10, 14, 723, 684, 408,noise
2025-03-19 18:56:20.875,505, 566, 624, -18, 20, -28, 7, -10, 14, 723, 687, 414,noise
2025-03-19 18:56:20.882,487, 563, 643, -13, 21, -29, 6, -6, 12, 723, 684, 418,noise
2025-03-19 18:56:20.891,465, 568, 683, -2, 21, -33, 7, -11, 13, 718, 677, 425,noise
2025-03-19 18:56:20.900,486, 578, 696, -6, 20, -35, 7, -7, 10, 720, 675, 428,noise
2025-03-19 18:56:20.908,474, 586, 693, -7, 20, -37, 7, -10, 12, 723, 670, 430,noise
2025-03-19 18:56:20.918,453, 596, 686, -2, 20, -37, 6, -8, 10, 723, 662, 437,noise
2025-03-19 18:56:20.926,453, 602, 693, -5, 20, -38, 9, -9, 10, 726, 663, 444,noise
2025-03-19 18:56:20.936,446, 597, 686, -8, 22, -38, 7, -10, 7, 722, 661, 444,noise
2025-03-19 18:56:20.945,431, 605, 668, -11, 25, -39, 8, -10, 9, 724, 662, 464,noise
2025-03-19 18:56:20.953,416, 609, 677, -13, 27, -38, 9, -8, 6, 722, 662, 475,noise
2025-03-19 18:56:20.958,414, 630, 691, -16, 29, -37, 10, -11, 7, 724, 665, 479,noise
2025-03-19 18:56:20.972,395, 626, 701, -21, 29, -36, 10, -11, 7, 723, 666, 479,noise
2025-03-19 18:56:20.982,370, 628, 726, -24, 28, -35, 10, -9, 3, 726, 669, 491,noise
2025-03-19 18:56:20.990,355, 599, 749, -22, 25, -34, 11, -11, 4, 732, 667, 493,noise
2025-03-19 18:56:20.999,347, 581, 760, -18, 23, -33, 11, -10, 2, 729, 669, 499,noise
2025-03-19 18:56:21.007,337, 576, 757, -14, 20, -33, 11, -11, 3, 731, 669, 500,noise
2025-03-19 18:56:21.016,341, 588, 751, -11, 20, -33, 11, -9, 0, 731, 667, 505,noise
2025-03-19 18:56:21.026,338, 605, 757, -10, 19, -32, 11, -12, 2, 731, 664, 511,noise
2025-03-19 18:56:21.035,335, 632, 741, -13, 19, -30, 12, -9, -1, 734, 664, 515,noise
2025-03-19 18:56:21.044,337, 628, 726, -16, 21, -28, 12, -13, -1, 738, 668, 511,noise
2025-03-19 18:56:21.053,323, 624, 734, -15, 22, -26, 11, -10, -1, 736, 661, 507,noise
2025-03-19 18:56:21.057,318, 619, 744, -15, 23, -24, 13, -10, -2, 735, 665, 506,noise
2025-03-19 18:56:21.071,308, 618, 769, -16, 22, -22, 13, -10, -4, 735, 666, 504,noise
2025-03-19 18:56:21.075,295, 614, 791, -14, 19, -20, 13, -10, -4, 736, 663, 508,noise
2025-03-19 18:56:21.087,298, 601, 764, -14, 17, -20, 14, -12, -3, 734, 661, 513,noise
2025-03-19 18:56:21.095,281, 604, 776, -10, 16, -17, 14, -9, -6, 733, 658, 514,noise
2025-03-19 18:56:21.105,277, 594, 754, -6, 14, -17, 13, -10, -5, 729, 655, 514,noise
2025-03-19 18:56:21.116,282, 619, 747, -3, 14, -15, 14, -11, -6, 723, 653, 509,noise
2025-03-19 18:56:21.124,292, 629, 790, -3, 12, -13, 14, -12, -5, 727, 653, 509,noise
2025-03-19 18:56:21.134,299, 626, 791, -5, 8, -10, 13, -11, -6, 725, 652, 505,noise
2025-03-19 18:57:23.952,609, 597, 402, 7, -25, 13, -9, 2, 44, 955, 892, 640,A
2025-03-19 18:57:23.969,561, 478, 387, 10, -21, 14, -13, 5, 43, 958, 894, 638,A
2025-03-19 18:57:23.977,581, 402, 442, 14, -20, 13, -11, 3, 44, 960, 898, 638,A
2025-03-19 18:57:23.989,604, 434, 525, 17, -23, 10, -11, 4, 43, 962, 899, 645,A
2025-03-19 18:57:23.992,656, 462, 610, 20, -29, 6, -11, 4, 43, 961, 901, 648,A
2025-03-19 18:57:24.004,685, 481, 669, 19, -39, 3, -11, 2, 44, 958, 899, 651,A
2025-03-19 18:57:24.012,709, 505, 658, 19, -50, 2, -12, 5, 45, 955, 902, 655,A
2025-03-19 18:57:24.022,707, 526, 601, 19, -57, 2, -10, 3, 45, 956, 903, 655,A
2025-03-19 18:57:24.034,687, 532, 511, 20, -57, 2, -12, 5, 46, 956, 905, 660,A
2025-03-19 18:57:24.041,716, 524, 407, 16, -53, 2, -13, 3, 46, 956, 906, 665,A
2025-03-19 18:57:24.050,712, 548, 430, 16, -51, 3, -11, 4, 47, 958, 907, 670,A
2025-03-19 18:57:24.058,768, 516, 413, 11, -47, 3, -13, 2, 47, 959, 908, 675,A
2025-03-19 18:57:24.068,745, 542, 429, 10, -42, 3, -14, 4, 47, 959, 912, 675,A
2025-03-19 18:57:24.074,715, 527, 494, 9, -41, 4, -11, 2, 48, 962, 914, 682,A
2025-03-19 18:57:24.086,709, 558, 533, 7, -45, 7, -13, 2, 47, 965, 915, 687,A
2025-03-19 18:57:24.092,688, 501, 466, 3, -46, 9, -13, 2, 47, 965, 918, 692,A
2025-03-19 18:57:24.104,683, 537, 525, 8, -47, 10, -13, 2, 50, 963, 916, 692,A
2025-03-19 18:57:24.109,674, 493, 533, 9, -48, 11, -13, 4, 48, 963, 918, 695,A
2025-03-19 18:57:24.120,733, 445, 481, 10, -46, 9, -13, 3, 50, 965, 919, 687,A
2025-03-19 18:57:24.126,1253, 114, 394, 5, -21, -16, -13, 3, 48, 966, 920, 675,A
2025-03-19 18:57:24.139,728, 690, 650, -10, -26, -12, -13, 1, 50, 968, 922, 656,A
2025-03-19 18:57:24.145,654, 516, 491, -18, -28, -9, -14, 3, 48, 967, 923, 612,A
2025-03-19 18:57:24.157,729, 180, 622, 8, -26, -19, -13, 4, 50, 969, 924, 581,A
2025-03-19 18:57:24.162,625, 338, 655, 20, -26, -27, -13, 4, 50, 971, 923, 566,A
2025-03-19 18:57:24.173,758, 444, 445, 42, -8, -19, -14, 3, 50, 977, 924, 519,A
2025-03-19 18:57:24.184,471, 657, 320, 42, 0, -14, -15, 4, 51, 977, 922, 497,A
2025-03-19 18:57:24.192,722, 623, 165, 55, 20, -8, -15, 4, 51, 974, 921, 494,A
2025-03-19 18:57:24.201,513, 1076, -220, 23, 39, 13, -14, 1, 51, 972, 919, 485,A
2025-03-19 18:57:24.210,921, 860, 120, -1, 44, 20, -13, 3, 52, 971, 913, 482,A
2025-03-19 18:57:24.218,674, 689, -72, 1, 55, 23, -14, 2, 50, 970, 908, 448,A
2025-03-19 18:57:24.226,858, 777, -84, -6, 60, 37, -13, 2, 50, 968, 905, 406,A
2025-03-19 18:57:24.238,825, 656, 57, -26, 56, 33, -14, 2, 50, 967, 902, 389,A
2025-03-19 18:57:24.244,822, 611, 318, -30, 49, 30, -13, 2, 49, 965, 900, 392,A
2025-03-19 18:57:24.255,969, 531, 437, -29, 38, 29, -12, 3, 48, 962, 902, 412,A
2025-03-19 18:57:24.262,796, 547, 719, -44, 10, 16, -12, 3, 50, 961, 901, 411,A
2025-03-19 18:57:24.272,721, 158, 649, -52, -17, -15, -12, 4, 48, 962, 901, 442,A
2025-03-19 18:57:24.283,663, -82, 629, -40, -29, -52, -12, 4, 48, 965, 906, 489,A
2025-03-19 18:57:24.291,722, 76, 753, -13, -42, -62, -13, 4, 48, 964, 910, 547,A
2025-03-19 18:57:24.300,605, 610, 700, -10, -50, -41, -13, 4, 48, 964, 913, 583,A
2025-03-19 18:57:24.307,537, 749, 706, -16, -50, -12, -13, 3, 48, 963, 914, 606,A
2025-03-19 18:57:24.317,593, 552, 555, -31, -40, -5, -14, 4, 49, 965, 915, 580,A
2025-03-19 18:57:24.325,776, 151, 784, -6, -17, -14, -12, 2, 50, 966, 919, 583,A
2025-03-19 18:57:24.336,671, 446, 785, 19, -31, -11, -14, 3, 49, 969, 920, 577,A
2025-03-19 18:57:24.344,788, 758, 468, 29, -27, 1, -13, 2, 50, 969, 922, 561,A
2025-03-19 18:57:24.353,739, 573, 180, 38, -19, 0, -15, 4, 50, 969, 921, 567,A
2025-03-19 18:57:24.360,726, 733, 183, 35, 1, 13, -13, 2, 50, 969, 921, 575,A
2025-03-19 18:57:24.370,773, 1019, 121, 14, 23, 35, -14, 4, 49, 970, 922, 541,A
2025-03-19 18:57:24.375,688, 624, 158, 18, 35, 38, -13, 2, 51, 976, 925, 523,A
2025-03-19 18:57:24.387,677, 700, 194, 2, 43, 46, -14, 4, 48, 975, 921, 492,A
2025-03-19 18:57:24.396,616, 584, 338, -6, 49, 42, -14, 4, 48, 976, 920, 468,A
2025-03-19 18:57:24.405,622, 483, 529, 1, 40, 33, -13, 2, 50, 972, 920, 385,A
2025-03-19 18:57:24.413,653, 610, 523, -8, 34, 26, -13, 3, 48, 969, 912, 371,A
2025-03-19 18:57:24.423,721, 378, 516, 2, 29, 13, -12, 3, 49, 970, 909, 377,A
2025-03-19 18:57:24.435,655, 386, 414, -6, 30, -11, -13, 5, 48, 966, 904, 402,A
2025-03-19 18:57:24.442,639, 281, 452, -10, 25, -36, -12, 3, 48, 966, 898, 411,A
2025-03-19 18:57:24.451,504, 362, 654, -10, 4, -50, -13, 5, 47, 965, 894, 417,A
2025-03-19 18:57:24.458,415, 438, 736, -15, -19, -48, -13, 3, 47, 962, 889, 446,A
2025-03-19 18:57:24.468,550, 515, 724, -11, -39, -37, -14, 3, 47, 961, 887, 441,A
2025-03-19 18:57:24.476,744, 584, 697, -8, -50, -18, -12, 2, 50, 965, 896, 407,A
2025-03-19 18:57:24.488,1429, 299, 228, -4, -14, -15, -13, 3, 46, 969, 909, 415,A
2025-03-19 18:57:24.492,710, 956, 709, -27, -20, 6, -13, 2, 50, 971, 914, 373,A
2025-03-19 18:57:24.503,824, 97, 355, -22, -20, -3, -13, 2, 50, 969, 922, 395,A
2025-03-19 18:57:24.512,904, 324, 368, 38, -13, -6, -13, 4, 48, 966, 921, 445,A
2025-03-19 18:57:24.524,947, 1012, 447, 22, -14, 15, -13, 3, 49, 967, 921, 463,A
2025-03-19 18:57:24.532,949, 609, 157, 1, -4, 27, -14, 4, 50, 966, 922, 463,A
2025-03-19 18:57:24.541,852, 599, 104, 4, 9, 40, -13, 3, 51, 967, 922, 467,A
2025-03-19 18:57:24.550,760, 587, 262, -17, 16, 45, -12, 3, 49, 967, 923, 480,A
2025-03-19 18:57:24.558,914, 419, 342, -23, 21, 35, -11, 3, 50, 966, 923, 455,A
2025-03-19 18:57:24.567,760, 267, 530, -2, 22, 18, -14, 5, 48, 966, 923, 467,A
2025-03-19 18:57:24.575,877, 100, 422, -5, 32, -17, -12, 5, 49, 967, 921, 483,A
2025-03-19 18:57:24.586,872, 351, 367, -7, 47, -35, -13, 5, 48, 969, 923, 482,A
2025-03-19 18:57:24.593,697, 576, 331, -20, 57, -37, -12, 3, 49, 965, 920, 464,A
2025-03-19 18:57:24.603,678, 498, 306, -22, 63, -38, -12, 3, 49, 965, 916, 454,A
2025-03-19 18:57:24.610,655, 494, 396, -22, 64, -41, -14, 4, 46, 960, 912, 455,A
2025-03-19 18:57:24.622,592, 514, 575, -21, 56, -41, -14, 3, 47, 959, 909, 466,A
2025-03-19 18:57:24.624,562, 495, 704, -20, 42, -39, -14, 5, 45, 959, 905, 476,A
2025-03-19 18:57:24.640,531, 513, 747, -19, 27, -37, -13, 2, 46, 957, 901, 496,A
2025-03-19 18:57:24.646,520, 534, 766, -14, 13, -31, -12, 3, 44, 957, 899, 510,A
2025-03-19 18:57:24.922,643, 466, 579, -5, -29, 3, -13, 4, 47, 950, 896, 455,B
2025-03-19 18:57:24.936,659, 495, 554, -1, -32, 4, -13, 2, 48, 953, 899, 456,B
2025-03-19 18:57:24.946,629, 513, 596, 8, -39, 7, -13, 4, 47, 954, 900, 487,B
2025-03-19 18:57:24.953,674, 492, 574, 11, -43, 10, -13, 4, 47, 954, 904, 502,B
2025-03-19 18:57:24.964,704, 505, 572, 13, -45, 14, -13, 1, 50, 952, 903, 548,B
2025-03-19 18:57:24.975,777, 517, 523, 11, -43, 18, -13, 3, 49, 955, 907, 521,B
2025-03-19 18:57:24.983,1458, 37, 256, 1, -16, -11, -13, 1, 50, 957, 909, 516,B
2025-03-19 18:57:24.991,844, 479, 631, 11, -16, -13, -13, 5, 48, 962, 910, 494,B
2025-03-19 18:57:25.001,728, 515, 338, 8, -16, -8, -13, 2, 50, 963, 912, 472,B
2025-03-19 18:57:25.008,734, 231, 389, 40, -1, -9, -15, 5, 50, 965, 913, 473,B
2025-03-19 18:57:25.018,790, 619, 545, 51, 13, 12, -13, 1, 50, 966, 914, 454,B
2025-03-19 18:57:25.026,834, 672, 580, 24, 20, 28, -14, 4, 47, 970, 915, 424,B
2025-03-19 18:57:25.037,611, 588, 259, 11, 39, 38, -13, 2, 50, 971, 916, 316,B
2025-03-19 18:57:25.044,560, 875, 294, 1, 51, 50, -16, 4, 48, 972, 917, 181,B
2025-03-19 18:57:25.053,711, 790, 431, -12, 47, 51, -16, 4, 48, 973, 913, 34,B
2025-03-19 18:57:25.060,843, 654, 386, -6, 48, 64, -13, 3, 48, 967, 909, 29,B
2025-03-19 18:57:25.073,1075, 272, 552, -38, 34, 47, -15, 5, 47, 969, 908, 35,B
2025-03-19 18:57:25.076,672, 612, 186, -16, 29, 38, -13, 3, 49, 968, 908, 33,B
2025-03-19 18:57:25.090,788, 487, 205, -13, 27, 28, -13, 6, 46, 967, 906, 37,B
2025-03-19 18:57:25.098,754, 461, 311, -15, 25, 20, -12, 4, 49, 963, 906, 41,B
2025-03-19 18:57:25.106,788, 641, 330, -24, 20, 14, -13, 5, 47, 965, 906, 51,B
2025-03-19 18:57:25.115,703, 159, 698, -30, -9, -19, -12, 3, 48, 962, 905, 87,B
2025-03-19 18:57:25.127,755, -55, 713, -13, -33, -60, -12, 6, 45, 962, 908, 234,B
2025-03-19 18:57:25.135,608, 57, 765, 7, -50, -87, -11, 4, 49, 964, 911, 390,B
2025-03-19 18:57:25.143,739, 334, 701, 21, -61, -81, -14, 4, 49, 965, 915, 452,B
2025-03-19 18:57:25.152,804, 741, 584, 7, -55, -51, -14, 4, 49, 966, 918, 494,B
2025-03-19 18:57:25.160,947, 824, 488, -21, -34, -25, -12, 4, 48, 965, 919, 498,B
2025-03-19 18:57:25.171,769, 460, 626, -17, -18, -9, -14, 3, 47, 966, 920, 503,B
2025-03-19 18:57:25.175,703, 270, 780, -6, -16, -9, -12, 4, 50, 967, 922, 504,B
2025-03-19 18:57:25.188,789, 302, 692, 12, -25, -11, -13, 3, 48, 968, 926, 504,B
2025-03-19 18:57:25.192,801, 520, 438, 23, -23, -3, -13, 3, 50, 970, 927, 494,B
2025-03-19 18:57:25.206,790, 556, 300, 26, -17, -2, -13, 3, 48, 969, 927, 506,B
2025-03-19 18:57:25.213,704, 936, 239, 3, -4, 10, -13, 2, 48, 971, 927, 498,B
2025-03-19 18:57:25.224,771, 667, 345, 3, 2, 16, -13, 5, 49, 973, 929, 486,B
2025-03-19 18:57:25.233,680, 798, 288, -7, 9, 25, -13, 3, 49, 976, 930, 439,B
2025-03-19 18:57:25.240,625, 682, 347, -4, 15, 31, -14, 3, 48, 978, 930, 384,B
2025-03-19 18:57:25.250,578, 515, 578, 0, 14, 27, -14, 3, 48, 975, 931, 345,B
2025-03-19 18:57:25.258,689, 583, 511, -4, 16, 29, -13, 5, 48, 974, 929, 329,B
2025-03-19 18:57:25.267,656, 449, 495, 1, 16, 28, -14, 4, 47, 971, 928, 285,B
2025-03-19 18:57:25.274,788, 400, 575, 1, 13, 27, -14, 4, 49, 972, 924, 213,B
2025-03-19 18:57:25.287,766, 340, 388, -1, 13, 23, -13, 4, 48, 972, 925, 202,B
2025-03-19 18:57:25.292,796, 208, 336, 4, 13, 15, -13, 5, 51, 969, 926, 179,B
2025-03-19 18:57:25.303,891, 448, 315, 2, 15, 18, -13, 5, 48, 968, 925, 160,B
2025-03-19 18:57:25.311,783, 523, 240, -7, 20, 21, -13, 4, 48, 969, 924, 134,B
2025-03-19 18:57:25.320,830, 304, 512, -20, 15, 13, -13, 4, 49, 969, 922, 47,B
2025-03-19 18:57:25.325,675, 404, 478, -20, 17, 7, -13, 5, 47, 971, 924, 38,B
2025-03-19 18:57:25.339,729, 514, 699, -16, 11, 7, -13, 5, 47, 971, 924, 27,B
2025-03-19 18:57:25.347,593, 376, 687, -13, 4, -1, -13, 5, 47, 971, 922, 30,B
2025-03-19 18:57:25.355,620, 593, 638, 0, 2, 1, -12, 6, 47, 970, 919, 36,B
2025-03-19 18:57:25.363,645, 624, 519, -4, 6, 5, -13, 4, 50, 969, 919, 41,B
2025-03-19 18:57:25.372,532, 572, 592, -5, 7, 7, -13, 5, 48, 969, 917, 32,B
2025-03-19 18:57:25.379,640, 439, 312, 2, 9, -1, -13, 5, 49, 968, 917, 33,B
2025-03-19 18:57:25.392,790, 585, 308, -3, 12, 4, -14, 6, 46, 971, 913, 36,B
2025-03-19 18:57:25.400,841, 371, 272, 15, 15, 0, -13, 4, 49, 969, 910, 29,B
2025-03-19 18:57:25.409,850, 411, 304, 20, 17, -4, -14, 6, 47, 966, 908, 31,B
2025-03-19 18:57:25.417,904, 480, 326, 25, 18, -5, -13, 4, 48, 968, 907, 27,B
2025-03-19 18:57:25.425,990, 442, 308, 17, 24, -16, -13, 6, 49, 963, 901, 109,B
2025-03-19 18:57:25.438,1099, 204, 344, 14, 30, -38, -13, 6, 49, 958, 897, 220,B
2025-03-19 18:57:25.442,977, 365, 365, 3, 37, -51, -12, 3, 48, 954, 895, 281,B
2025-03-19 18:57:25.455,852, 495, 328, -12, 43, -51, -14, 7, 46, 948, 894, 329,B
2025-03-19 18:57:25.462,778, 543, 361, -25, 46, -45, -11, 4, 48, 948, 893, 336,B
2025-03-19 18:57:25.469,641, 557, 520, -33, 41, -37, -12, 6, 45, 948, 894, 339,B
2025-03-19 18:57:25.483,581, 520, 667, -36, 30, -31, -11, 4, 49, 948, 895, 316,B
2025-03-19 18:57:25.491,547, 469, 803, -34, 16, -27, -12, 5, 44, 947, 895, 317,B
2025-03-19 18:57:25.499,511, 478, 853, -29, 7, -25, -11, 3, 45, 946, 896, 312,B
2025-03-19 18:57:25.508,477, 505, 831, -20, -5, -20, -13, 5, 45, 945, 898, 314,B
2025-03-19 18:57:25.517,421, 552, 805, -11, -14, -11, -11, 4, 47, 950, 899, 303,B
2025-03-19 18:57:25.807,925, 591, 382, -9, -10, -10, -13, 3, 48, 953, 912, 48,C
2025-03-19 18:57:25.815,635, 650, 412, -31, -10, -5, -15, 4, 50, 956, 911, 41,C
2025-03-19 18:57:25.822,827, 504, 411, -43, -5, -3, -14, 3, 49, 959, 911, 39,C
2025-03-19 18:57:25.830,701, 208, 529, -10, -3, -13, -15, 3, 49, 957, 910, 33,C
2025-03-19 18:57:25.840,615, 459, 594, -15, -3, -12, -12, 3, 50, 960, 909, 45,C
2025-03-19 18:57:25.851,823, 373, 591, -11, -8, -13, -15, 4, 50, 961, 907, 30,C
2025-03-19 18:57:25.858,566, 203, 487, 22, -7, -17, -13, 4, 50, 968, 909, 22,C
2025-03-19 18:57:25.868,496, 235, 641, 47, -5, -25, -14, 5, 50, 968, 907, 20,C
2025-03-19 18:57:25.876,590, 585, 335, 50, 5, -12, -14, 5, 50, 966, 904, 14,C
2025-03-19 18:57:25.885,827, 486, 563, 48, 13, -9, -12, 3, 50, 962, 897, 26,C
2025-03-19 18:57:25.892,726, 455, 221, 71, 27, -6, -15, 5, 49, 964, 895, 31,C
2025-03-19 18:57:25.905,1034, 569, 585, 49, 14, -6, -13, 2, 52, 961, 897, 36,C
2025-03-19 18:57:25.913,800, 550, 293, 54, 17, 3, -14, 4, 50, 961, 898, 30,C
2025-03-19 18:57:25.922,953, 660, 186, 53, 19, 18, -13, 1, 50, 963, 904, 73,C
2025-03-19 18:57:25.929,708, 1121, -170, 37, 45, 60, -14, 5, 51, 962, 911, 78,C
2025-03-19 18:57:25.938,1043, 1030, 313, 4, 51, 66, -12, 3, 51, 963, 913, 86,C
2025-03-19 18:57:25.944,815, 447, 347, -11, 44, 75, -14, 5, 47, 966, 916, 81,C
2025-03-19 18:57:25.955,630, 527, 624, -34, 28, 66, -12, 5, 48, 968, 921, 73,C
2025-03-19 18:57:25.966,752, 96, 250, -45, 26, 49, -14, 4, 48, 968, 921, 81,C
2025-03-19 18:57:25.974,676, 536, 704, -3, 11, 35, -14, 4, 48, 969, 923, 89,C
2025-03-19 18:57:25.984,705, 328, 584, -20, 4, 29, -13, 4, 48, 963, 920, 62,C
2025-03-19 18:57:25.991,816, 329, 781, -2, -8, 22, -13, 6, 45, 963, 922, 42,C
2025-03-19 18:57:26.000,736, 172, 471, 16, -5, -2, -12, 6, 49, 961, 920, 37,C
2025-03-19 18:57:26.011,828, 233, 337, 17, 12, -26, -13, 5, 47, 959, 920, 116,C
2025-03-19 18:57:26.019,858, 366, 218, 11, 33, -45, -13, 4, 49, 954, 918, 211,C
2025-03-19 18:57:26.024,841, 499, 226, -6, 48, -54, -13, 5, 46, 951, 915, 272,C
2025-03-19 18:57:26.037,736, 462, 273, -22, 58, -58, -13, 3, 48, 947, 909, 294,C
2025-03-19 18:57:26.043,686, 467, 316, -27, 63, -59, -12, 5, 47, 946, 908, 323,C
2025-03-19 18:57:26.057,661, 514, 469, -34, 60, -57, -11, 2, 46, 951, 906, 345,C
2025-03-19 18:57:26.062,568, 502, 647, -33, 50, -53, -13, 4, 45, 951, 905, 358,C
2025-03-19 18:57:26.073,542, 492, 770, -31, 36, -47, -13, 4, 45, 948, 902, 370,C
2025-03-19 18:57:26.081,510, 531, 857, -25, 19, -38, -12, 4, 45, 942, 898, 382,C
2025-03-19 18:57:26.090,486, 554, 895, -17, 2, -27, -13, 4, 44, 941, 895, 390,C
2025-03-19 18:57:26.100,484, 578, 840, -10, -12, -13, -11, 4, 45, 944, 896, 399,C
2025-03-19 18:57:26.109,519, 561, 748, -3, -19, -4, -11, 5, 43, 943, 898, 397,C
2025-03-19 18:57:26.383,759, 627, 540, 9, -12, -5, -13, 4, 48, 957, 913, 321,D
2025-03-19 18:57:26.392,735, 427, 277, 5, -4, 1, -13, 4, 48, 961, 913, 181,D
2025-03-19 18:57:26.405,771, 241, 501, 28, 7, 0, -15, 3, 49, 960, 913, 28,D
2025-03-19 18:57:26.414,718, 653, 489, 24, 19, 15, -14, 5, 49, 961, 910, 38,D
2025-03-19 18:57:26.420,624, 640, 491, 22, 30, 33, -13, 4, 49, 965, 911, 36,D
2025-03-19 18:57:26.433,950, 769, 416, -3, 47, 50, -14, 5, 48, 966, 909, 32,D
2025-03-19 18:57:26.440,610, 982, 243, -16, 64, 76, -13, 3, 49, 967, 910, 32,D
2025-03-19 18:57:26.450,489, 531, 508, -49, 49, 59, -14, 4, 48, 967, 906, 31,D
2025-03-19 18:57:26.458,1392, 522, 543, -27, 34, 52, -13, 4, 49, 967, 903, 33,D
2025-03-19 18:57:26.467,903, 670, 394, -42, 22, 42, -14, 5, 48, 966, 904, 31,D
2025-03-19 18:57:26.475,798, 381, 114, -19, 22, 31, -12, 4, 47, 971, 903, 18,D
2025-03-19 18:57:26.486,770, 428, 282, -16, 19, 19, -14, 7, 45, 970, 903, 23,D
2025-03-19 18:57:26.493,826, 592, 195, -16, 25, 20, -14, 7, 45, 967, 903, 23,D
2025-03-19 18:57:26.503,793, 575, 406, -31, 22, 16, -12, 7, 49, 961, 898, 22,D
2025-03-19 18:57:26.511,812, 174, 711, -27, -3, -13, -13, 7, 46, 957, 897, 39,D
2025-03-19 18:57:26.520,725, -134, 664, -7, -28, -50, -11, 5, 48, 956, 898, 49,D
2025-03-19 18:57:26.525,656, -194, 742, 34, -46, -84, -12, 6, 46, 954, 902, 52,D
2025-03-19 18:57:26.539,727, 80, 791, 60, -55, -88, -13, 5, 48, 955, 907, 48,D
2025-03-19 18:57:26.547,706, 671, 578, 43, -60, -73, -13, 6, 48, 956, 911, 146,D
2025-03-19 18:57:26.556,793, 902, 513, 12, -51, -38, -12, 3, 49, 957, 913, 155,D
2025-03-19 18:57:26.562,839, 759, 626, -30, -40, -14, -13, 5, 46, 960, 918, 69,D
2025-03-19 18:57:26.573,774, 307, 673, -24, -31, -8, -14, 3, 48, 965, 923, 42,D
2025-03-19 18:57:26.585,792, 429, 926, 4, -33, -1, -15, 5, 47, 969, 925, 33,D
2025-03-19 18:57:26.593,651, 410, 732, 6, -34, 1, -15, 5, 47, 970, 926, 27,D
2025-03-19 18:57:26.602,659, 403, 478, 17, -25, -3, -11, 3, 49, 968, 926, 60,D
2025-03-19 18:57:26.609,726, 905, 393, 16, -11, 19, -13, 5, 48, 968, 923, 63,D
2025-03-19 18:57:26.616,896, 759, 296, 4, 2, 26, -13, 4, 49, 971, 924, 72,D
2025-03-19 18:57:26.626,705, 814, 210, -9, 18, 40, -13, 5, 47, 970, 923, 74,D
2025-03-19 18:57:26.638,729, 539, 206, -1, 32, 44, -13, 2, 48, 971, 923, 71,D
2025-03-19 18:57:26.642,615, 795, 313, -21, 39, 42, -14, 5, 48, 969, 922, 70,D
2025-03-19 18:57:26.655,783, 639, 287, -28, 42, 46, -13, 5, 50, 970, 916, 43,D
2025-03-19 18:57:26.663,848, 552, 370, -30, 31, 41, -14, 7, 47, 968, 913, 39,D
2025-03-19 18:57:26.672,764, 345, 242, -25, 30, 31, -13, 4, 49, 971, 907, 24,D
2025-03-19 18:57:26.678,841, 277, 308, -21, 28, 19, -13, 6, 48, 968, 900, 25,D
2025-03-19 18:57:26.691,904, 246, 382, -2, 27, 8, -13, 6, 48, 965, 893, 21,D
2025-03-19 18:57:26.700,1001, 231, 301, -6, 35, -12, -12, 6, 50, 960, 888, 41,D
2025-03-19 18:57:26.708,1104, 7, 367, -7, 42, -43, -12, 5, 47, 957, 884, 45,D
2025-03-19 18:57:26.717,1044, 105, 369, -4, 46, -63, -12, 5, 47, 954, 884, 52,D
2025-03-19 18:57:26.725,926, 356, 398, -13, 49, -66, -11, 6, 48, 953, 885, 49,D
2025-03-19 18:57:26.734,740, 503, 438, -18, 48, -59, -12, 5, 46, 953, 885, 50,D
2025-03-19 18:57:26.743,643, 545, 608, -19, 42, -48, -13, 5, 45, 953, 888, 51,D
2025-03-19 18:57:26.752,616, 522, 743, -25, 34, -41, -13, 5, 45, 954, 892, 55,D
2025-03-19 18:57:26.760,596, 455, 847, -21, 22, -37, -11, 4, 45, 953, 891, 51,D
2025-03-19 18:57:26.770,505, 481, 929, -12, 8, -34, -13, 5, 45, 954, 897, 26,D
2025-03-19 18:57:27.056,757, 504, 638, 7, -17, -11, -13, 4, 48, 964, 911, 36,E
2025-03-19 18:57:27.062,717, 500, 349, 1, -19, -8, -14, 5, 49, 967, 911, 40,E
2025-03-19 18:57:27.072,778, 284, 379, 21, -9, -12, -11, 2, 50, 968, 913, 15,E
2025-03-19 18:57:27.079,718, 634, 407, 19, 3, -1, -15, 4, 48, 971, 913, 19,E
2025-03-19 18:57:27.092,645, 655, 529, 19, 14, 19, -15, 4, 48, 971, 911, 17,E
2025-03-19 18:57:27.101,662, 424, 648, 18, 16, 21, -14, 4, 50, 969, 910, 29,E
2025-03-19 18:57:27.109,1112, 461, 627, 25, 22, 28, -13, 3, 49, 970, 909, 44,E
2025-03-19 18:57:27.118,766, 620, 614, 29, 31, 39, -13, 3, 49, 971, 906, 48,E
2025-03-19 18:57:27.124,509, 478, 343, 31, 32, 31, -14, 4, 47, 970, 904, 57,E
2025-03-19 18:57:27.137,524, 1093, 161, 21, 29, 40, -12, 4, 50, 969, 902, 64,E
2025-03-19 18:57:27.142,934, 636, 144, 1, 25, 43, -14, 4, 47, 968, 897, 62,E
2025-03-19 18:57:27.154,904, 460, 44, -19, 28, 38, -12, 5, 50, 968, 896, 62,E
2025-03-19 18:57:27.162,918, 506, 65, -16, 30, 29, -14, 6, 47, 969, 897, 43,E
2025-03-19 18:57:27.169,784, 366, 203, -25, 29, 15, -13, 5, 48, 969, 898, 30,E
2025-03-19 18:57:27.177,801, 581, 218, -22, 36, 15, -14, 7, 48, 967, 900, 31,E
2025-03-19 18:57:27.191,887, 593, 581, -38, 26, 10, -14, 7, 48, 965, 900, 32,E
2025-03-19 18:57:27.199,842, 95, 970, -38, -11, -18, -13, 6, 48, 964, 899, 48,E
2025-03-19 18:57:27.208,749, -327, 745, -8, -35, -47, -12, 5, 45, 962, 901, 50,E
2025-03-19 18:57:27.216,663, -173, 829, 26, -50, -81, -12, 7, 47, 961, 904, 40,E
2025-03-19 18:57:27.224,588, 261, 743, 32, -61, -83, -14, 5, 47, 962, 909, 41,E
2025-03-19 18:57:27.233,636, 865, 612, 13, -51, -59, -13, 5, 49, 963, 912, 36,E
2025-03-19 18:57:27.242,670, 791, 458, -16, -33, -31, -12, 4, 48, 966, 916, 42,E
2025-03-19 18:57:27.253,770, 558, 540, -15, -28, -17, -13, 6, 49, 967, 921, 35,E
2025-03-19 18:57:27.258,784, 361, 621, -8, -27, -15, -14, 4, 49, 971, 927, 24,E
2025-03-19 18:57:27.269,832, 333, 600, 7, -32, -16, -13, 4, 51, 975, 930, 24,E
2025-03-19 18:57:27.275,883, 370, 512, 27, -36, -16, -13, 4, 51, 976, 932, 44,E
2025-03-19 18:57:27.286,871, 666, 375, 27, -32, -5, -13, 4, 51, 976, 933, 49,E
2025-03-19 18:57:27.292,782, 707, 324, 20, -26, 7, -15, 4, 51, 973, 933, 71,E
2025-03-19 18:57:27.305,747, 617, 92, 11, -7, 12, -14, 3, 50, 973, 933, 87,E
2025-03-19 18:57:27.314,551, 822, 165, -1, 3, 22, -14, 4, 49, 973, 933, 91,E
2025-03-19 18:57:27.322,752, 899, 447, -6, 0, 35, -14, 3, 50, 972, 929, 91,E
2025-03-19 18:57:27.330,751, 274, 273, 1, 11, 27, -14, 4, 51, 971, 930, 105,E
2025-03-19 18:57:27.339,485, 474, 468, -2, 13, 24, -14, 3, 52, 971, 929, 85,E
2025-03-19 18:57:27.351,647, 353, 618, 21, 14, 19, -15, 5, 50, 969, 929, 50,E
2025-03-19 18:57:27.359,587, 470, 668, 18, 13, 14, -13, 2, 50, 971, 927, 39,E
2025-03-19 18:57:27.367,655, 349, 557, 21, 13, 4, -14, 6, 50, 968, 923, 32,E
2025-03-19 18:57:27.376,645, 341, 342, 14, 28, -8, -14, 6, 50, 967, 918, 33,E
2025-03-19 18:57:27.384,612, 313, 456, 25, 34, -17, -13, 5, 49, 964, 914, 35,E
2025-03-19 18:57:27.393,618, 329, 559, 30, 28, -26, -16, 5, 50, 964, 907, 43,E
2025-03-19 18:57:27.404,665, 524, 589, 11, 13, -23, -14, 4, 49, 964, 901, 43,E
2025-03-19 18:57:27.412,593, 506, 586, -5, -4, -19, -15, 4, 49, 963, 899, 33,E
2025-03-19 18:57:27.421,1259, 244, 255, -9, -3, -24, -12, 4, 50, 966, 901, 39,E
2025-03-19 18:57:27.429,1183, 689, 485, -5, -4, -11, -15, 4, 49, 968, 907, 31,E
2025-03-19 18:57:27.439,871, 636, 356, -14, -7, 3, -13, 2, 50, 972, 915, 30,E
2025-03-19 18:57:27.446,845, 322, 179, 14, 2, -1, -13, 5, 48, 973, 921, 27,E
2025-03-19 18:57:27.457,916, 769, 402, 10, 3, 15, -13, 3, 50, 976, 927, 63,E
2025-03-19 18:57:27.466,678, 707, 359, -25, 6, 29, -15, 5, 49, 976, 929, 72,E
2025-03-19 18:57:27.475,872, 611, 443, -15, 7, 37, -15, 5, 49, 975, 929, 64,E
2025-03-19 18:57:27.482,886, 310, 379, -7, 12, 33, -14, 3, 51, 971, 927, 92,E
2025-03-19 18:57:27.491,697, 601, 606, -20, 11, 33, -14, 5, 49, 972, 926, 79,E
2025-03-19 18:57:27.499,899, 126, 530, 14, 12, 19, -11, 5, 51, 972, 925, 85,E
2025-03-19 18:57:27.510,711, 560, 686, 17, 10, 24, -14, 6, 48, 971, 923, 73,E
2025-03-19 18:57:27.519,565, 346, 601, 16, 12, 17, -13, 5, 51, 970, 919, 49,E
2025-03-19 18:57:27.525,611, 438, 532, 28, 19, 14, -14, 5, 48, 966, 913, 46,E
2025-03-19 18:57:27.536,589, 420, 464, 20, 30, 5, -12, 5, 49, 965, 905, 44,E
2025-03-19 18:57:27.543,674, 243, 462, 23, 33, -10, -15, 5, 47, 965, 893, 50,E
2025-03-19 18:57:27.555,584, 279, 587, 33, 26, -19, -12, 4, 48, 964, 880, 26,E
2025-03-19 18:57:27.562,632, 447, 643, 27, 8, -20, -13, 6, 49, 964, 863, 29,E
2025-03-19 18:57:27.572,622, 491, 568, 27, -7, -17, -13, 6, 49, 962, 858, 17,E
2025-03-19 18:57:27.578,1255, 250, 254, 20, -2, -28, -14, 4, 50, 962, 866, 43,E
2025-03-19 18:57:27.587,973, 861, 433, -2, -6, -12, -12, 4, 48, 965, 880, 39,E
2025-03-19 18:57:27.597,895, 636, 115, -10, -5, 0, -13, 3, 49, 966, 894, 28,E
2025-03-19 18:57:27.605,862, 411, 108, 14, 7, 0, -13, 5, 49, 968, 907, 33,E
2025-03-19 18:57:27.617,836, 630, 441, 10, 7, 6, -12, 3, 50, 969, 913, 34,E
2025-03-19 18:57:27.626,898, 663, 568, -3, -2, 17, -14, 4, 50, 970, 916, 27,E
2025-03-19 18:57:27.633,825, 700, 408, -12, -2, 25, -13, 3, 48, 967, 916, 36,E
2025-03-19 18:57:27.640,833, 601, 360, -4, 6, 26, -14, 4, 48, 968, 918, 27,E
2025-03-19 18:57:27.651,777, 575, 518, -5, 2, 26, -14, 4, 49, 967, 917, 33,E
2025-03-19 18:57:27.659,856, 260, 487, -9, 7, 8, -14, 4, 49, 967, 916, 33,E
2025-03-19 18:57:27.670,943, 170, 378, -8, 14, -20, -14, 5, 46, 962, 915, 51,E
2025-03-19 18:57:27.676,895, 279, 256, -11, 31, -41, -11, 5, 49, 961, 911, 53,E
2025-03-19 18:57:27.687,799, 436, 240, -14, 46, -50, -13, 5, 45, 956, 907, 53,E
2025-03-19 18:57:27.692,729, 513, 283, -16, 54, -52, -12, 3, 48, 955, 903, 51,E
2025-03-19 18:57:27.703,663, 519, 392, -14, 56, -52, -14, 4, 47, 953, 895, 40,E
2025-03-19 18:57:27.712,555, 518, 562, -14, 50, -48, -13, 4, 47, 951, 892, 46,E
2025-03-19 18:57:27.723,504, 534, 763, -17, 37, -42, -12, 3, 45, 950, 888, 47,E
2025-03-19 18:57:27.997,629, 509, 672, 0, -30, 17, -12, 3, 48, 953, 891, 175,F
2025-03-19 18:57:28.007,633, 458, 683, 10, -36, 20, -14, 4, 47, 953, 895, 181,F
2025-03-19 18:57:28.018,693, 372, 676, 19, -41, 19, -12, 4, 48, 956, 897, 181,F
2025-03-19 18:57:28.023,635, 458, 669, 27, -47, 22, -14, 3, 48, 956, 895, 176,F
2025-03-19 18:57:28.035,1407, 290, 429, -13, -30, -6, -14, 3, 50, 960, 899, 132,F
2025-03-19 18:57:28.042,813, 258, 308, 46, -8, -12, -14, 3, 49, 965, 901, 20,F
2025-03-19 18:57:28.052,798, 822, 470, 15, -3, 10, -12, 4, 50, 963, 897, 17,F
2025-03-19 18:57:28.060,729, 489, 249, 18, 15, 11, -12, 4, 50, 969, 897, 31,F
2025-03-19 18:57:28.071,814, 532, 331, 30, 26, 24, -15, 3, 49, 964, 890, 32,F
2025-03-19 18:57:28.075,840, 679, 431, 1, 33, 25, -13, 2, 51, 965, 889, 33,F
2025-03-19 18:57:28.087,1092, 563, 498, -11, 38, 37, -13, 4, 50, 964, 885, 33,F
2025-03-19 18:57:28.095,961, 579, 432, -18, 39, 38, -13, 4, 53, 966, 881, 43,F
2025-03-19 18:57:28.104,982, 705, 334, -9, 36, 45, -14, 5, 49, 964, 875, 43,F
2025-03-19 18:57:28.117,768, 711, 272, -28, 34, 50, -13, 3, 50, 963, 872, 50,F
2025-03-19 18:57:28.124,921, 633, 83, -49, 42, 43, -12, 4, 47, 964, 868, 53,F
2025-03-19 18:57:28.133,725, 203, 421, -32, 33, 30, -14, 3, 49, 961, 863, 44,F
2025-03-19 18:57:28.140,776, 427, 463, -16, 27, 18, -13, 5, 47, 965, 865, 30,F
2025-03-19 18:57:28.150,783, 489, 540, -17, 16, 10, -11, 6, 50, 961, 866, 35,F
2025-03-19 18:57:28.157,809, 301, 652, -36, 0, -14, -11, 6, 50, 959, 864, 28,F
2025-03-19 18:57:28.169,686, 17, 571, -17, -14, -37, -13, 5, 46, 956, 863, 38,F
2025-03-19 18:57:28.175,622, -35, 637, 10, -25, -70, -14, 4, 48, 953, 869, 44,F
2025-03-19 18:57:28.186,599, 210, 647, 18, -36, -82, -14, 6, 46, 952, 879, 42,F
2025-03-19 18:57:28.192,595, 584, 682, -4, -50, -74, -14, 5, 48, 955, 885, 42,F
2025-03-19 18:57:28.203,489, 716, 631, -4, -61, -51, -13, 5, 48, 956, 895, 32,F
2025-03-19 18:57:28.211,609, 565, 680, 4, -69, -28, -13, 4, 49, 960, 905, 30,F
2025-03-19 18:57:28.222,1203, 272, 238, 3, -28, -28, -14, 4, 49, 962, 913, 28,F
2025-03-19 18:57:28.229,728, 696, 817, -4, -31, -11, -14, 4, 49, 965, 920, 34,F
2025-03-19 18:57:28.240,765, 351, 585, 2, -37, -8, -13, 2, 48, 972, 926, 21,F
2025-03-19 18:57:28.247,972, 136, 441, 39, -34, -15, -14, 4, 50, 970, 928, 34,F
2025-03-19 18:57:28.257,725, 727, 427, 38, -33, -4, -14, 4, 50, 970, 930, 54,F
2025-03-19 18:57:28.264,762, 897, 256, 35, -26, 9, -13, 4, 50, 969, 930, 66,F
2025-03-19 18:57:28.274,616, 770, 2, 11, -10, 28, -13, 4, 49, 969, 927, 96,F
2025-03-19 18:57:28.284,707, 542, 192, 0, 5, 28, -13, 2, 51, 969, 927, 100,F
2025-03-19 18:57:28.292,866, 730, 401, 9, 8, 38, -15, 3, 51, 968, 928, 101,F
2025-03-19 18:57:28.301,642, 490, 292, -8, 17, 32, -14, 5, 50, 969, 926, 74,F
2025-03-19 18:57:28.309,719, 524, 536, 11, 22, 33, -14, 4, 49, 969, 925, 46,F
2025-03-19 18:57:28.318,651, 407, 643, 4, 20, 22, -14, 2, 50, 968, 924, 43,F
2025-03-19 18:57:28.324,660, 278, 441, 17, 26, 12, -14, 4, 50, 969, 920, 34,F
2025-03-19 18:57:28.336,635, 237, 392, 18, 42, -10, -14, 4, 49, 968, 919, 32,F
2025-03-19 18:57:28.345,656, 244, 450, 30, 51, -31, -14, 4, 49, 965, 914, 24,F
2025-03-19 18:57:28.353,543, 430, 570, 33, 42, -36, -15, 4, 49, 963, 906, 125,F
2025-03-19 18:57:28.362,450, 595, 652, 19, 23, -28, -13, 2, 50, 959, 899, 124,F
2025-03-19 18:57:28.370,479, 611, 702, -1, 3, -17, -13, 5, 47, 963, 896, 53,F
2025-03-19 18:57:28.383,591, 607, 716, -3, -19, -4, -14, 2, 50, 962, 896, 28,F
2025-03-19 18:57:28.391,774, 567, 715, 8, -45, 19, -15, 4, 47, 965, 903, 34,F
2025-03-19 18:57:28.400,1270, -131, 29, 27, -12, -20, -14, 2, 49, 967, 912, 28,F
2025-03-19 18:57:28.407,786, 1132, 481, -4, -19, 2, -16, 2, 49, 969, 920, 31,F
2025-03-19 18:57:28.417,855, 528, -83, -8, -2, 7, -14, 2, 50, 971, 924, 35,F
2025-03-19 18:57:28.422,1007, 705, 194, 15, 7, 17, -14, 5, 50, 973, 926, 55,F
2025-03-19 18:57:28.436,930, 928, 364, -20, 8, 37, -14, 1, 50, 972, 928, 65,F
2025-03-19 18:57:28.442,836, 491, 90, -23, 18, 44, -14, 1, 50, 971, 929, 74,F
2025-03-19 18:57:28.452,757, 317, 374, -21, 25, 42, -13, 4, 49, 970, 926, 70,F
2025-03-19 18:57:28.458,744, 519, 674, -18, 19, 31, -14, 3, 50, 969, 926, 47,F
2025-03-19 18:57:28.470,869, 320, 596, 5, 13, 19, -14, 5, 47, 969, 924, 47,F
2025-03-19 18:57:28.475,894, 222, 450, 3, 19, -10, -11, 4, 49, 964, 919, 44,F
2025-03-19 18:57:28.489,1028, 215, 190, 0, 44, -38, -14, 3, 47, 962, 917, 50,F
2025-03-19 18:57:28.493,836, 446, 154, -12, 65, -48, -13, 3, 49, 959, 915, 51,F
2025-03-19 18:57:28.506,705, 523, 208, -15, 76, -50, -14, 5, 48, 957, 910, 46,F
2025-03-19 18:57:28.514,603, 511, 376, -11, 76, -48, -13, 3, 48, 953, 900, 56,F
2025-03-19 18:57:28.523,509, 516, 559, -13, 69, -43, -13, 4, 46, 952, 893, 124,F
2025-03-19 18:57:28.534,502, 500, 763, -14, 57, -39, -11, 2, 47, 949, 884, 167,F
2025-03-19 18:57:28.542,465, 518, 947, -16, 38, -34, -11, 2, 47, 947, 881, 201,F
2025-03-19 18:57:28.551,425, 539, 980, -11, 15, -27, -13, 3, 47, 945, 875, 233,F
2025-03-19 18:57:28.558,383, 571, 909, -5, -8, -16, -12, 3, 47, 942, 866, 246,F
2025-03-19 18:57:28.568,437, 540, 808, 3, -24, -8, -12, 4, 44, 942, 861, 245,F
2025-03-19 18:57:28.849,1304, 243, 405, -11, -20, -9, -13, 3, 48, 959, 906, 30,G
2025-03-19 18:57:28.858,688, 397, 459, 4, -13, -16, -13, 3, 50, 961, 906, 24,G
2025-03-19 18:57:28.866,657, 520, 418, -3, -13, -11, -14, 4, 50, 964, 909, 29,G
2025-03-19 18:57:28.875,1033, 370, 409, 4, -3, -13, -14, 4, 50, 964, 906, 19,G
2025-03-19 18:57:28.883,795, 392, 459, 18, 6, -9, -13, 4, 48, 963, 907, 25,G
2025-03-19 18:57:28.890,647, 496, 454, 6, 10, -2, -14, 4, 48, 964, 904, 44,G
2025-03-19 18:57:28.903,828, 482, 533, 15, 11, 6, -15, 3, 49, 965, 906, 47,G
2025-03-19 18:57:28.911,911, 715, 302, 17, 19, 23, -14, 3, 50, 967, 903, 52,G
2025-03-19 18:57:28.919,1273, 563, 178, -6, 30, 31, -14, 4, 50, 969, 905, 58,G
2025-03-19 18:57:28.925,1009, 541, 319, 10, 29, 40, -15, 4, 50, 968, 908, 72,G
2025-03-19 18:57:28.937,913, 690, 389, -27, 24, 45, -14, 3, 50, 969, 911, 78,G
2025-03-19 18:57:28.942,943, 889, 129, -33, 28, 65, -13, 6, 50, 971, 913, 77,G
2025-03-19 18:57:28.955,494, 277, 261, -39, 30, 51, -13, 4, 50, 974, 913, 42,G
2025-03-19 18:57:28.962,774, 397, 448, -30, 28, 43, -13, 6, 49, 975, 916, 38,G
2025-03-19 18:57:28.973,766, 298, 429, -14, 24, 30, -13, 6, 49, 974, 919, 38,G
2025-03-19 18:57:28.980,662, 580, 669, -26, 11, 27, -13, 5, 51, 972, 920, 30,G
2025-03-19 18:57:28.990,797, 323, 631, -14, 3, 16, -14, 6, 49, 971, 921, 38,G
2025-03-19 18:57:28.997,756, 246, 798, -5, -9, -3, -12, 5, 48, 969, 921, 35,G
2025-03-19 18:57:29.009,675, 281, 731, -2, -21, -19, -12, 6, 50, 968, 919, 31,G
2025-03-19 18:57:29.018,637, 108, 683, 11, -27, -41, -13, 5, 48, 966, 918, 32,G
2025-03-19 18:57:29.025,604, 166, 553, 24, -24, -55, -13, 6, 47, 962, 916, 37,G
2025-03-19 18:57:29.035,629, 428, 582, 22, -21, -51, -12, 3, 49, 963, 914, 31,G
2025-03-19 18:57:29.042,656, 621, 661, 14, -19, -32, -13, 6, 47, 962, 915, 30,G
2025-03-19 18:57:29.054,788, 519, 539, -3, -13, -20, -13, 5, 49, 966, 916, 21,G
2025-03-19 18:57:29.062,643, 376, 545, -3, -10, -21, -15, 4, 48, 965, 915, 19,G
2025-03-19 18:57:29.071,913, 521, 541, 6, -10, -11, -15, 4, 48, 968, 916, 29,G
2025-03-19 18:57:29.076,910, 469, 570, -5, -11, -7, -13, 5, 51, 968, 915, 43,G
2025-03-19 18:57:29.088,804, 738, 187, 8, -4, 11, -12, 5, 49, 968, 914, 50,G
2025-03-19 18:57:29.093,790, 769, 171, -22, 11, 26, -14, 4, 51, 970, 915, 55,G
2025-03-19 18:57:29.107,835, 708, 167, -14, 24, 36, -14, 4, 48, 971, 916, 50,G
2025-03-19 18:57:29.116,908, 596, 344, -21, 26, 42, -14, 4, 50, 970, 914, 46,G
2025-03-19 18:57:29.124,831, 454, 376, -33, 24, 41, -14, 5, 50, 970, 915, 55,G
2025-03-19 18:57:29.133,820, 425, 378, -22, 25, 35, -14, 5, 50, 970, 912, 53,G
2025-03-19 18:57:29.141,756, 487, 471, -27, 23, 28, -14, 6, 47, 971, 910, 40,G
2025-03-19 18:57:29.151,833, 326, 509, -28, 22, 13, -13, 5, 50, 972, 909, 17,G
2025-03-19 18:57:29.159,790, 173, 531, -33, 22, -14, -14, 8, 46, 972, 906, 23,G
2025-03-19 18:57:29.169,653, 42, 606, -23, 17, -42, -14, 8, 46, 971, 904, 25,G
2025-03-19 18:57:29.174,541, 169, 702, 1, 5, -53, -12, 5, 48, 967, 902, 36,G
2025-03-19 18:57:29.187,380, 416, 765, 10, -11, -49, -14, 6, 47, 966, 903, 28,G
2025-03-19 18:57:29.192,369, 464, 817, 18, -33, -38, -14, 4, 49, 966, 902, 29,G
2025-03-19 18:57:29.202,553, 510, 822, 24, -52, -18, -13, 5, 48, 964, 905, 28,G
2025-03-19 18:57:29.214,601, 627, 866, 19, -69, 2, -13, 4, 49, 968, 910, 33,G
2025-03-19 18:57:29.222,1436, -60, -150, 22, -20, -23, -14, 4, 49, 969, 918, 31,G
2025-03-19 18:57:29.229,643, 1054, 599, 1, -25, -4, -13, 5, 50, 971, 923, 37,G
2025-03-19 18:57:29.239,884, 416, -16, -13, -9, 0, -14, 3, 49, 973, 926, 52,G
2025-03-19 18:57:29.246,900, 538, 272, 19, 0, 4, -15, 4, 49, 974, 930, 55,G
2025-03-19 18:57:29.255,934, 1044, 384, -4, 1, 31, -14, 4, 49, 972, 928, 59,G
2025-03-19 18:57:29.267,855, 316, 124, -22, 9, 26, -14, 4, 49, 974, 927, 57,G
2025-03-19 18:57:29.274,846, 508, 455, 4, 12, 25, -14, 5, 50, 968, 926, 58,G
2025-03-19 18:57:29.284,869, 500, 518, 11, 12, 26, -13, 6, 49, 971, 923, 62,G
2025-03-19 18:57:29.292,845, 535, 643, 7, 9, 22, -14, 4, 48, 968, 920, 53,G
2025-03-19 18:57:29.301,879, 164, 418, 7, 21, 7, -13, 4, 50, 966, 917, 48,G
2025-03-19 18:57:29.309,943, 57, 292, 3, 44, -25, -13, 6, 50, 964, 916, 43,G
2025-03-19 18:57:29.320,773, 313, 238, -5, 60, -43, -13, 4, 48, 965, 908, 42,G
2025-03-19 18:57:29.324,720, 473, 271, -5, 66, -46, -14, 5, 48, 962, 901, 34,G
2025-03-19 18:57:29.335,718, 508, 308, -7, 67, -46, -13, 4, 48, 961, 895, 19,G
2025-03-19 18:57:29.344,650, 528, 408, -15, 64, -43, -13, 4, 47, 960, 885, 26,G
2025-03-19 18:57:29.353,570, 536, 624, -26, 54, -38, -13, 4, 47, 958, 873, 29,G
2025-03-19 18:57:29.362,516, 490, 811, -21, 36, -33, -12, 5, 48, 952, 869, 26,G
2025-03-19 18:57:29.632,813, 487, 433, 0, -5, -11, -13, 3, 50, 960, 911, 26,H
2025-03-19 18:57:29.632,801, 617, 484, -15, -9, -5, -14, 5, 48, 963, 910, 25,H
2025-03-19 18:57:29.649,716, 321, 362, -20, -2, -11, -13, 1, 51, 963, 910, 25,H
2025-03-19 18:57:29.657,699, 464, 471, -8, 4, -10, -13, 1, 51, 965, 908, 33,H
2025-03-19 18:57:29.666,769, 396, 631, -5, 1, -9, -14, 6, 49, 965, 902, 49,H
2025-03-19 18:57:29.675,664, 302, 560, 17, 3, -7, -14, 4, 50, 966, 900, 55,H
2025-03-19 18:57:29.685,761, 415, 506, 18, 8, -7, -14, 4, 49, 967, 896, 46,H
2025-03-19 18:57:29.692,562, 381, 381, 37, 13, -2, -13, 3, 51, 968, 895, 39,H
2025-03-19 18:57:29.702,570, 414, 547, 50, 23, -3, -13, 4, 50, 969, 893, 32,H
2025-03-19 18:57:29.710,699, 646, 612, 41, 21, 11, -13, 4, 50, 969, 894, 32,H
2025-03-19 18:57:29.720,866, 735, 163, 23, 28, 25, -14, 3, 50, 970, 895, 31,H
2025-03-19 18:57:29.723,943, 808, 131, 10, 38, 46, -14, 4, 49, 972, 898, 17,H
2025-03-19 18:57:29.737,1018, 739, 297, -13, 35, 44, -13, 4, 49, 974, 902, 27,H
2025-03-19 18:57:29.745,1035, 828, 237, -42, 39, 57, -13, 4, 49, 976, 902, 38,H
2025-03-19 18:57:29.754,765, 489, 422, -45, 36, 48, -13, 4, 48, 972, 904, 25,H
2025-03-19 18:57:29.762,646, 231, 462, -7, 28, 32, -12, 5, 48, 971, 907, 31,H
2025-03-19 18:57:29.772,770, 474, 688, -1, 14, 30, -13, 4, 49, 971, 911, 31,H
2025-03-19 18:57:29.784,719, 495, 697, -18, 2, 24, -14, 6, 47, 972, 913, 36,H
2025-03-19 18:57:29.792,675, 490, 617, -11, -8, 21, -14, 7, 49, 971, 914, 36,H
2025-03-19 18:57:29.800,687, 257, 620, -15, -14, 7, -13, 6, 48, 968, 915, 37,H
2025-03-19 18:57:29.808,762, 206, 541, 3, -13, -4, -13, 7, 49, 969, 920, 46,H
2025-03-19 18:57:29.817,673, 530, 536, -4, -11, -3, -12, 4, 47, 967, 919, 48,H
2025-03-19 18:57:29.825,725, 359, 533, -7, -9, -5, -13, 5, 48, 970, 918, 27,H
2025-03-19 18:57:29.837,705, 337, 470, -5, -10, -10, -12, 5, 49, 967, 919, 24,H
2025-03-19 18:57:29.842,747, 442, 490, -4, -9, -11, -12, 5, 49, 967, 917, 28,H
2025-03-19 18:57:29.854,756, 477, 447, -4, -7, -10, -13, 7, 48, 966, 917, 45,H
2025-03-19 18:57:29.862,729, 431, 511, -1, -6, -9, -12, 5, 49, 964, 914, 36,H
2025-03-19 18:57:29.870,748, 464, 477, -3, -1, -6, -15, 7, 49, 967, 914, 36,H
2025-03-19 18:57:29.877,742, 507, 528, -4, 1, -3, -13, 5, 48, 968, 914, 31,H
2025-03-19 18:57:29.886,757, 458, 535, -4, -1, -1, -13, 6, 48, 967, 912, 34,H
2025-03-19 18:57:29.898,748, 415, 517, 0, -1, -2, -13, 5, 49, 967, 912, 28,H
2025-03-19 18:57:29.906,754, 493, 479, 1, -1, -1, -15, 8, 48, 967, 911, 31,H
2025-03-19 18:57:29.915,771, 507, 463, 1, 1, 1, -13, 4, 49, 967, 909, 30,H
2025-03-19 18:57:29.922,767, 455, 461, -1, 2, 2, -14, 5, 47, 966, 905, 24,H
2025-03-19 18:57:29.932,772, 405, 461, 2, 3, 1, -14, 5, 47, 966, 905, 40,H
2025-03-19 18:57:29.939,794, 433, 456, 3, 5, -1, -14, 4, 49, 964, 903, 47,H
2025-03-19 18:57:29.948,794, 467, 442, 0, 7, -1, -14, 6, 47, 963, 901, 49,H
2025-03-19 18:57:29.959,785, 479, 456, -3, 9, -1, -13, 4, 49, 963, 901, 41,H
2025-03-19 18:57:29.968,798, 452, 472, -7, 10, -1, -14, 7, 46, 963, 900, 36,H
2025-03-19 18:57:29.974,771, 449, 494, -10, 9, -3, -12, 4, 48, 963, 901, 24,H
2025-03-19 18:57:29.985,739, 443, 506, -11, 7, -4, -15, 6, 47, 961, 899, 25,H
2025-03-19 18:57:29.992,724, 403, 533, -7, 4, -6, -13, 4, 50, 966, 902, 30,H
2025-03-19 18:57:30.001,710, 424, 537, -6, 2, -6, -12, 6, 48, 965, 902, 23,H
2025-03-19 18:57:30.009,720, 457, 554, -6, 0, -6, -12, 6, 48, 964, 902, 16,H
2025-03-19 18:57:30.021,750, 479, 527, -5, 0, -5, -12, 5, 49, 962, 900, 37,H
2025-03-19 18:57:30.025,755, 463, 526, -4, 0, -3, -13, 7, 45, 961, 900, 49,H
2025-03-19 18:57:30.036,739, 463, 519, -6, 0, -1, -12, 5, 49, 961, 901, 47,H
2025-03-19 18:57:30.042,735, 459, 508, -4, -1, -2, -14, 6, 47, 960, 901, 44,H
2025-03-19 18:57:30.052,750, 451, 501, -4, -1, -2, -12, 4, 49, 961, 902, 44,H
2025-03-19 18:57:30.062,740, 442, 509, -3, -2, -3, -15, 7, 48, 962, 902, 43,H
2025-03-19 18:57:30.072,722, 444, 525, -1, -3, -3, -13, 5, 49, 964, 903, 39,H
2025-03-19 18:57:30.083,729, 457, 521, -1, -4, -2, -14, 6, 47, 964, 904, 15,H
2025-03-19 18:57:30.090,742, 450, 516, -1, -4, -2, -14, 5, 49, 966, 905, 22,H
2025-03-19 18:57:30.099,739, 439, 515, 1, -5, -3, -14, 5, 49, 965, 905, 12,H
2025-03-19 18:57:30.107,750, 444, 505, 2, -6, -3, -14, 7, 46, 963, 905, 28,H
2025-03-19 18:57:30.116,763, 458, 492, 3, -5, -2, -12, 6, 48, 962, 904, 37,H
2025-03-19 18:57:30.124,780, 481, 478, 1, -3, 0, -14, 7, 48, 960, 902, 42,H
2025-03-19 18:57:30.136,771, 454, 460, -1, -2, -1, -12, 4, 49, 962, 902, 49,H
2025-03-19 18:57:30.142,755, 453, 475, -1, 0, 0, -12, 6, 47, 961, 904, 52,H
2025-03-19 18:57:30.152,740, 459, 499, 0, 0, 0, -13, 5, 50, 960, 902, 47,H
2025-03-19 18:57:30.159,739, 453, 509, -1, 0, 0, -13, 6, 47, 962, 904, 39,H
2025-03-19 18:57:30.169,741, 459, 526, -2, -2, 0, -13, 5, 49, 964, 904, 26,H
2025-03-19 18:57:30.174,735, 448, 536, -1, -3, 0, -13, 7, 48, 965, 905, 28,H
2025-03-19 18:57:30.186,748, 428, 519, 0, -5, 0, -13, 7, 48, 964, 904, 24,H
2025-03-19 18:57:30.197,768, 433, 498, 1, -5, -1, -12, 5, 49, 962, 904, 26,H
2025-03-19 18:57:30.205,791, 424, 488, 3, -4, -2, -14, 5, 48, 962, 902, 34,H
2025-03-19 18:57:30.213,791, 440, 458, 1, -2, -3, -12, 3, 48, 962, 903, 35,H
2025-03-19 18:57:30.222,770, 458, 455, 0, -1, -3, -13, 4, 49, 961, 902, 38,H
2025-03-19 18:57:30.229,768, 461, 465, -2, 1, -3, -14, 5, 47, 961, 903, 46,H
2025-03-19 18:57:30.237,770, 453, 480, -4, 1, -3, -13, 6, 47, 961, 903, 55,H
2025-03-19 18:57:30.245,763, 458, 500, -5, 1, -3, -13, 6, 49, 963, 903, 37,H
2025-03-19 18:57:30.255,736, 459, 506, -4, 1, -2, -14, 4, 48, 963, 904, 27,H
2025-03-19 18:57:30.266,733, 457, 515, -3, 0, -2, -14, 4, 48, 964, 905, 24,H
2025-03-19 18:57:30.275,750, 458, 518, -3, -1, -2, -13, 6, 49, 962, 902, 39,H
2025-03-19 18:57:30.284,752, 448, 509, -3, -1, -1, -13, 5, 49, 964, 904, 31,H
2025-03-19 18:57:30.292,753, 443, 500, -2, -2, -2, -13, 5, 48, 962, 903, 34,H
2025-03-19 18:57:30.300,751, 452, 482, -2, -1, -2, -13, 4, 48, 964, 904, 33,H
2025-03-19 18:57:30.308,750, 451, 486, -1, -1, -2, -12, 5, 48, 963, 903, 32,H
2025-03-19 18:57:30.320,756, 461, 486, -2, -1, -1, -13, 6, 48, 962, 903, 36,H
2025-03-19 18:57:30.324,760, 467, 488, -3, 0, 0, -12, 7, 49, 961, 904, 45,H
2025-03-19 18:57:30.335,758, 465, 489, -3, 0, 0, -12, 5, 50, 962, 905, 28,H
2025-03-19 18:57:30.344,756, 469, 495, -4, 0, 0, -14, 5, 49, 962, 903, 34,H
2025-03-19 18:57:30.352,760, 470, 493, -4, 1, 1, -14, 5, 49, 962, 906, 32,H
2025-03-19 18:57:30.360,757, 450, 490, -4, 1, 1, -13, 6, 48, 962, 903, 45,H
2025-03-19 18:57:30.368,751, 449, 494, -4, 1, 0, -13, 6, 49, 961, 905, 41,H
2025-03-19 18:57:30.377,758, 448, 498, -3, 0, 0, -12, 4, 50, 963, 904, 42,H
2025-03-19 18:57:30.388,758, 441, 493, -2, 0, 0, -14, 7, 46, 963, 905, 28,H
2025-03-19 18:57:30.399,758, 432, 493, -2, 1, -1, -13, 4, 48, 963, 903, 32,H
2025-03-19 18:57:30.407,755, 437, 500, -1, 0, -1, -13, 6, 48, 961, 903, 29,H
2025-03-19 18:57:30.415,749, 437, 498, -2, 0, -1, -13, 4, 49, 962, 906, 33,H
2025-03-19 18:57:30.422,750, 445, 503, -3, 0, -2, -13, 5, 48, 964, 904, 18,H
2025-03-19 18:57:30.432,746, 462, 503, -4, -1, -1, -13, 5, 48, 963, 903, 30,H
2025-03-19 18:57:30.442,748, 454, 498, -3, -1, -1, -13, 4, 50, 961, 905, 33,H
2025-03-19 18:57:30.450,752, 439, 501, -1, -1, -1, -15, 6, 48, 961, 904, 43,H
2025-03-19 18:57:30.459,754, 430, 502, 0, -1, -1, -13, 5, 51, 962, 904, 42,H
2025-03-19 18:57:30.469,757, 459, 477, -1, -1, -1, -13, 6, 47, 961, 904, 44,H
2025-03-19 18:57:30.472,762, 480, 470, -3, 1, -1, -13, 6, 50, 962, 905, 39,H
2025-03-19 18:57:30.485,763, 467, 486, -4, 1, 0, -14, 7, 48, 964, 905, 28,H
2025-03-19 18:57:30.492,753, 446, 499, -3, 1, 0, -11, 4, 49, 964, 907, 32,H
2025-03-19 18:57:30.501,747, 456, 502, -3, 1, 0, -14, 7, 48, 963, 907, 17,H
2025-03-19 18:57:30.512,745, 437, 510, -2, 0, 0, -14, 3, 49, 964, 908, 21,H
2025-03-19 18:57:30.520,755, 441, 507, -1, -1, -1, -14, 3, 49, 963, 905, 18,H
2025-03-19 18:57:30.522,758, 437, 501, -1, -1, -2, -13, 5, 48, 961, 903, 52,H
2025-03-19 18:57:30.536,757, 439, 489, 1, -1, -3, -13, 5, 51, 962, 905, 50,H
2025-03-19 18:57:30.544,761, 441, 493, -2, -1, -3, -14, 5, 47, 961, 906, 47,H
2025-03-19 18:57:30.552,761, 457, 495, -2, -1, -2, -14, 6, 50, 961, 904, 54,H
2025-03-19 18:57:30.566,754, 461, 496, -2, 0, -2, -14, 7, 46, 962, 905, 43,H
2025-03-19 18:57:30.573,758, 457, 498, -3, 0, -2, -14, 5, 49, 962, 907, 34,H
2025-03-19 18:57:30.583,748, 453, 506, -3, -1, -1, -13, 6, 47, 963, 905, 39,H
2025-03-19 18:57:30.591,745, 459, 507, -4, -1, -2, -12, 5, 48, 965, 908, 20,H
2025-03-19 18:57:30.599,752, 458, 498, -3, -1, -1, -15, 6, 47, 965, 905, 18,H
2025-03-19 18:57:30.607,754, 443, 499, -3, -2, -2, -15, 6, 47, 965, 906, 26,H
2025-03-19 18:57:30.616,753, 445, 492, -2, -1, -2, -13, 4, 49, 962, 906, 37,H
2025-03-19 18:57:30.624,760, 452, 490, -2, -1, -2, -14, 7, 47, 960, 906, 45,H
2025-03-19 18:57:30.636,764, 440, 490, -2, -1, -2, -14, 4, 49, 960, 906, 47,H
2025-03-19 18:57:30.643,755, 446, 494, -2, -1, -2, -14, 5, 48, 962, 905, 42,H
2025-03-19 18:57:30.652,745, 452, 502, -2, -1, -1, -13, 5, 48, 960, 904, 46,H
2025-03-19 18:57:30.660,750, 447, 501, 0, -1, -2, -14, 6, 47, 961, 905, 36,H
2025-03-19 18:57:30.669,767, 440, 505, 0, -1, -2, -13, 5, 49, 963, 906, 32,H
2025-03-19 18:57:30.673,766, 446, 495, 0, -1, -2, -13, 6, 48, 967, 904, 27,H
2025-03-19 18:57:30.689,753, 462, 477, 0, -1, -2, -13, 6, 48, 965, 904, 19,H
2025-03-19 18:57:30.692,759, 473, 460, -2, 0, -1, -13, 5, 50, 962, 903, 24,H
2025-03-19 18:57:30.706,758, 466, 472, -3, 1, -1, -15, 5, 46, 963, 905, 30,H
2025-03-19 18:57:30.713,752, 451, 496, -4, 1, -1, -14, 5, 49, 963, 904, 39,H
2025-03-19 18:57:30.722,759, 439, 502, -4, 1, -1, -13, 7, 47, 960, 904, 30,H
2025-03-19 18:57:30.728,764, 440, 500, -2, 1, -2, -15, 5, 48, 960, 903, 47,H
2025-03-19 18:57:30.737,763, 451, 488, -2, 1, -2, -13, 5, 49, 960, 902, 49,H
2025-03-19 18:57:30.750,754, 459, 484, -2, 1, -2, -14, 5, 48, 961, 904, 46,H
2025-03-19 18:57:30.756,748, 465, 487, -2, 1, -2, -13, 4, 49, 963, 905, 30,H
2025-03-19 18:57:30.767,759, 463, 492, -2, 2, -2, -12, 6, 49, 964, 905, 27,H
2025-03-19 18:57:30.775,755, 454, 492, -3, 2, -2, -12, 6, 49, 963, 903, 27,H
2025-03-19 18:57:30.784,759, 456, 497, -2, 2, -2, -13, 4, 48, 962, 904, 27,H
2025-03-19 18:57:30.791,778, 450, 485, -3, 3, -3, -13, 5, 48, 962, 904, 30,H
2025-03-19 18:57:30.800,771, 442, 478, -5, 4, -5, -14, 6, 48, 961, 903, 36,H
2025-03-19 18:57:30.808,764, 455, 471, -6, 4, -5, -14, 5, 49, 962, 902, 33,H
2025-03-19 18:57:30.820,750, 466, 470, -7, 6, -4, -12, 5, 48, 961, 902, 35,H
2025-03-19 18:57:30.824,733, 445, 508, -7, 6, -3, -13, 7, 50, 959, 902, 48,H
2025-03-19 18:57:30.837,725, 437, 542, -5, 6, -2, -13, 5, 47, 961, 903, 42,H
2025-03-19 18:57:30.842,726, 450, 558, -3, 3, -2, -14, 7, 47, 963, 903, 31,H
2025-03-19 18:57:30.854,733, 449, 549, -3, 0, -3, -14, 7, 47, 963, 903, 31,H
2025-03-19 18:57:30.860,738, 452, 510, 0, -2, -4, -12, 4, 48, 961, 903, 36,H
2025-03-19 18:57:30.868,752, 444, 482, 0, -2, -6, -14, 7, 49, 960, 902, 36,H
2025-03-19 18:57:30.881,753, 446, 476, 0, -3, -9, -12, 3, 48, 960, 901, 34,H
2025-03-19 18:57:30.889,750, 429, 456, 2, -2, -14, -14, 7, 49, 961, 902, 36,H
2025-03-19 18:57:30.896,742, 450, 453, 2, -2, -19, -14, 4, 49, 960, 900, 34,H
2025-03-19 18:57:30.906,733, 445, 473, 2, -3, -23, -13, 4, 48, 959, 900, 34,H
2025-03-19 18:57:30.915,731, 466, 489, 2, -4, -25, -11, 3, 48, 956, 900, 32,H
2025-03-19 18:57:30.923,716, 473, 502, -2, -6, -26, -12, 5, 48, 957, 899, 24,H
2025-03-19 18:57:30.935,695, 464, 526, -7, -11, -30, -12, 3, 48, 956, 899, 28,H
2025-03-19 18:57:30.942,667, 445, 554, -10, -17, -32, -12, 3, 48, 956, 898, 37,H
2025-03-19 18:57:30.952,671, 432, 605, -11, -25, -26, -14, 5, 47, 956, 900, 41,H
2025-03-19 18:57:30.957,585, 523, 629, -8, -29, -19, -14, 3, 48, 956, 902, 43,H
2025-03-19 18:57:30.968,611, 570, 641, 5, -38, -7, -14, 6, 49, 957, 905, 47,H
2025-03-19 18:57:30.972,622, 483, 721, 2, -45, 1, -13, 5, 49, 959, 907, 44,H
2025-03-19 18:57:30.988,708, 401, 629, 15, -47, -5, -16, 4, 49, 961, 911, 49,H
2025-03-19 18:57:30.992,1223, 31, 504, 17, -23, -20, -13, 5, 50, 964, 911, 43,H
2025-03-19 18:57:31.004,694, 429, 581, 27, -25, -19, -14, 5, 50, 967, 913, 41,H
2025-03-19 18:57:31.013,798, 375, 239, 34, -17, -12, -13, 3, 49, 968, 914, 44,H
2025-03-19 18:57:31.021,975, 633, 312, 37, 14, 3, -15, 4, 50, 973, 915, 24,H
2025-03-19 18:57:31.026,927, 1016, 217, 44, 34, 44, -13, 3, 52, 975, 914, 39,H
2025-03-19 18:57:31.037,1006, 604, 256, 30, 49, 60, -13, 3, 52, 975, 913, 32,H
2025-03-19 18:57:31.050,875, 1107, 546, -14, 51, 63, -16, 5, 48, 976, 912, 33,H
2025-03-19 18:57:31.056,707, 443, 510, 28, 39, 61, -14, 3, 51, 973, 910, 53,H
2025-03-19 18:57:31.066,1187, 521, 523, -7, 39, 50, -16, 5, 49, 974, 907, 43,H
2025-03-19 18:57:31.074,881, 467, 232, 6, 30, 39, -12, 4, 50, 974, 904, 37,H
2025-03-19 18:57:31.086,888, 674, 260, -9, 28, 36, -14, 5, 49, 971, 903, 30,H
2025-03-19 18:57:31.092,787, 553, 180, -11, 31, 35, -14, 5, 50, 969, 898, 33,H
2025-03-19 18:57:31.102,711, 451, 327, -17, 31, 25, -16, 6, 48, 969, 893, 37,H
2025-03-19 18:57:31.111,775, 337, 401, -9, 30, 12, -13, 5, 48, 965, 888, 37,H
2025-03-19 18:57:31.120,745, 395, 546, -18, 21, -3, -15, 6, 47, 963, 880, 27,H
2025-03-19 18:57:31.124,575, 30, 794, -14, -3, -32, -12, 4, 48, 960, 874, 32,H
2025-03-19 18:57:31.134,587, -11, 853, 9, -18, -53, -12, 4, 48, 959, 876, 33,H
2025-03-19 18:57:31.146,588, 172, 823, 21, -35, -55, -13, 6, 47, 958, 886, 44,H
2025-03-19 18:57:31.156,921, 514, 551, 8, -35, -41, -13, 5, 49, 960, 898, 49,H
2025-03-19 18:57:31.162,754, 725, 589, -3, -24, -20, -13, 5, 47, 961, 908, 48,H
2025-03-19 18:57:31.173,877, 647, 492, -18, -21, -7, -13, 5, 49, 964, 915, 49,H
2025-03-19 18:57:31.181,865, 386, 508, 7, -23, -4, -13, 4, 47, 968, 922, 45,H
2025-03-19 18:57:31.192,840, 321, 558, 28, -26, -7, -13, 5, 50, 969, 925, 70,H
2025-03-19 18:57:31.201,925, 791, 337, 16, -32, 8, -14, 4, 49, 972, 924, 75,H
2025-03-19 18:57:31.209,854, 627, 128, 20, -21, 22, -13, 5, 48, 972, 927, 90,H
2025-03-19 18:57:31.217,828, 692, 36, 0, 0, 31, -14, 4, 49, 975, 928, 69,H
2025-03-19 18:57:31.223,819, 650, 164, -7, 12, 37, -13, 5, 48, 974, 928, 45,H
2025-03-19 18:57:31.235,771, 699, 427, -12, 9, 48, -13, 5, 48, 973, 927, 23,H
2025-03-19 18:57:31.242,782, 331, 483, -9, 7, 32, -13, 4, 49, 968, 925, 30,H
2025-03-19 18:57:31.254,822, 213, 488, -8, 11, 7, -13, 5, 50, 968, 921, 37,H
2025-03-19 18:57:31.262,837, 209, 475, -13, 18, -20, -14, 5, 47, 963, 921, 34,H
2025-03-19 18:57:31.271,742, 223, 444, -23, 18, -42, -13, 4, 48, 962, 919, 39,H
2025-03-19 18:57:31.276,592, 361, 503, -30, 9, -52, -13, 5, 48, 960, 916, 46,H
2025-03-19 18:57:31.287,546, 409, 608, -25, -3, -52, -14, 4, 49, 958, 915, 50,H
2025-03-19 18:57:31.299,516, 387, 680, -8, -9, -43, -13, 4, 47, 958, 914, 48,H
2025-03-19 18:57:31.307,483, 504, 822, 4, -21, -28, -13, 4, 47, 960, 915, 28,H
2025-03-19 18:57:31.316,424, 617, 910, 8, -34, -5, -14, 4, 48, 961, 917, 34,H
2025-03-19 18:57:31.324,446, 666, 924, 10, -50, 18, -14, 4, 48, 964, 917, 29,H
2025-03-19 18:57:31.332,444, 495, 977, 26, -64, 28, -15, 4, 51, 966, 917, 30,H
2025-03-19 18:57:31.341,623, 422, 463, -24, -56, 16, -14, 4, 49, 969, 920, 40,H
2025-03-19 18:57:31.352,654, -323, 544, 57, -27, -23, -14, 3, 51, 969, 920, 40,H
2025-03-19 18:57:31.360,559, 1099, 103, 35, -19, 5, -13, 4, 50, 970, 917, 124,H
2025-03-19 18:57:31.369,922, 422, -212, 38, 4, 6, -14, 5, 50, 972, 916, 179,H
2025-03-19 18:57:31.374,1183, 799, -125, 38, 30, 13, -14, 3, 50, 972, 916, 186,H
2025-03-19 18:57:31.386,760, 943, 47, 13, 44, 44, -13, 3, 49, 972, 914, 171,H
2025-03-19 18:57:31.392,867, 516, -31, -1, 58, 45, -13, 5, 49, 972, 915, 35,H
2025-03-19 18:57:31.405,733, 492, 122, 0, 56, 36, -13, 7, 48, 972, 912, 26,H
2025-03-19 18:57:31.414,854, 467, 474, 3, 45, 28, -13, 4, 50, 969, 907, 21,H
2025-03-19 18:57:31.422,835, 429, 499, 4, 38, 17, -13, 4, 50, 965, 902, 28,H
2025-03-19 18:57:31.429,932, 288, 505, 4, 39, -1, -14, 5, 48, 959, 896, 26,H
2025-03-19 18:57:31.439,952, 309, 475, -11, 42, -24, -12, 5, 49, 955, 894, 37,H
2025-03-19 18:57:31.446,920, 189, 373, -15, 46, -49, -15, 5, 48, 952, 890, 41,H
2025-03-19 18:57:31.456,854, 259, 285, -15, 50, -65, -11, 5, 50, 946, 885, 48,H
2025-03-19 18:57:31.467,725, 443, 309, -22, 51, -67, -13, 5, 45, 939, 882, 52,H
2025-03-19 18:57:31.474,660, 473, 348, -35, 51, -61, -11, 3, 48, 935, 882, 53,H
2025-03-19 18:57:31.754,752, 473, 474, -11, 1, 0, -14, 5, 48, 951, 890, 35,I
2025-03-19 18:57:31.763,749, 449, 485, -11, 2, -3, -14, 4, 48, 949, 888, 34,I
2025-03-19 18:57:31.774,757, 448, 510, -11, 1, -4, -14, 5, 47, 949, 889, 45,I
2025-03-19 18:57:31.783,734, 453, 518, -10, -1, -5, -13, 5, 48, 949, 890, 40,I
2025-03-19 18:57:31.792,737, 491, 503, -9, -1, -4, -14, 5, 48, 949, 889, 46,I
2025-03-19 18:57:31.799,732, 485, 500, -9, -2, -3, -13, 3, 48, 952, 890, 36,I
2025-03-19 18:57:31.808,733, 464, 519, -10, -2, -3, -13, 5, 48, 952, 891, 36,I
2025-03-19 18:57:31.816,735, 448, 520, -9, -3, -4, -13, 4, 49, 953, 892, 33,I
2025-03-19 18:57:31.824,730, 479, 503, -9, -4, -5, -14, 4, 49, 955, 891, 30,I
2025-03-19 18:57:31.836,710, 465, 498, -9, -4, -6, -13, 3, 49, 954, 892, 21,I
2025-03-19 18:57:31.842,721, 482, 499, -7, -5, -6, -13, 3, 49, 954, 891, 29,I
2025-03-19 18:57:31.852,720, 466, 505, -6, -5, -8, -14, 6, 48, 951, 892, 37,I
2025-03-19 18:57:31.860,723, 472, 492, -7, -5, -8, -13, 4, 49, 950, 892, 43,I
2025-03-19 18:57:31.869,708, 477, 488, -7, -4, -9, -13, 6, 48, 951, 890, 48,I
2025-03-19 18:57:31.874,679, 478, 527, -7, -6, -8, -13, 3, 50, 951, 890, 42,I
2025-03-19 18:57:31.888,671, 524, 539, -14, -9, -7, -13, 6, 49, 953, 890, 35,I
2025-03-19 18:57:31.896,642, 484, 572, -15, -14, -7, -13, 3, 49, 953, 889, 36,I
2025-03-19 18:57:31.905,610, 429, 638, -12, -21, -8, -12, 5, 48, 954, 890, 33,I
2025-03-19 18:57:31.914,611, 409, 696, 1, -31, -6, -14, 3, 49, 959, 890, 26,I
2025-03-19 18:57:31.922,662, 478, 683, -2, -44, 0, -15, 5, 49, 961, 896, 22,I
2025-03-19 18:57:31.931,1008, 194, 234, -22, -19, -25, -15, 5, 49, 960, 898, 21,I
2025-03-19 18:57:31.942,747, 561, 532, -2, -22, -20, -13, 4, 51, 962, 902, 24,I
2025-03-19 18:57:31.951,889, 464, 229, -1, -17, -13, -13, 5, 49, 962, 905, 31,I
2025-03-19 18:57:31.956,819, 290, 201, 23, -6, -16, -13, 3, 50, 965, 912, 33,I
2025-03-19 18:57:31.968,1020, 484, 521, 59, -14, -7, -14, 5, 49, 966, 918, 31,I
2025-03-19 18:57:31.974,1374, 1340, 555, 46, -22, 26, -13, 3, 50, 967, 923, 63,I
2025-03-19 18:57:31.985,1258, 994, 288, -4, -16, 61, -15, 5, 48, 969, 925, 95,I
2025-03-19 18:57:31.992,731, 494, 233, -30, -7, 59, -14, 5, 51, 969, 926, 191,I
2025-03-19 18:57:32.003,634, 395, 282, -12, 2, 53, -14, 6, 49, 969, 926, 219,I
2025-03-19 18:57:32.012,625, 458, 539, -5, 6, 53, -14, 5, 52, 974, 929, 205,I
2025-03-19 18:57:32.020,495, 339, 524, -2, 2, 37, -14, 5, 49, 971, 928, 190,I
2025-03-19 18:57:32.026,592, 346, 498, 6, 8, 29, -14, 5, 49, 971, 929, 157,I
2025-03-19 18:57:32.037,510, 304, 458, 8, 9, 17, -15, 5, 50, 970, 925, 100,I
2025-03-19 18:57:32.048,685, 463, 529, 5, 9, 11, -15, 7, 50, 967, 924, 46,I
2025-03-19 18:57:32.057,682, 343, 500, 12, 8, -2, -12, 7, 50, 965, 925, 43,I
2025-03-19 18:57:32.066,713, 433, 466, -2, 8, -15, -14, 6, 50, 964, 922, 37,I
2025-03-19 18:57:32.073,672, 104, 446, 10, 9, -37, -13, 6, 50, 961, 921, 35,I
2025-03-19 18:57:32.082,599, 240, 503, 17, 8, -50, -14, 5, 49, 962, 919, 33,I
2025-03-19 18:57:32.090,555, 426, 650, 15, 0, -46, -13, 3, 53, 960, 916, 35,I
2025-03-19 18:57:32.102,547, 525, 689, 19, -8, -32, -15, 4, 48, 962, 917, 23,I
2025-03-19 18:57:32.110,742, 509, 718, 16, -11, -16, -12, 5, 50, 967, 918, 19,I
2025-03-19 18:57:32.118,833, 66, 536, 29, -6, -22, -13, 6, 48, 969, 919, 16,I
2025-03-19 18:57:32.124,743, 687, 722, 28, -12, -8, -13, 6, 48, 968, 919, 23,I
2025-03-19 18:57:32.135,793, 511, 269, 34, 2, 8, -13, 3, 51, 966, 917, 38,I
2025-03-19 18:57:32.142,829, 601, 217, 57, 29, 27, -13, 4, 49, 966, 916, 61,I
2025-03-19 18:57:32.154,593, 858, 204, 38, 30, 39, -13, 4, 50, 966, 915, 60,I
2025-03-19 18:57:32.162,638, 686, 207, 21, 41, 46, -16, 5, 48, 967, 910, 53,I
2025-03-19 18:57:32.172,973, 304, 256, 36, 42, 34, -13, 2, 51, 966, 908, 57,I
2025-03-19 18:57:32.178,1003, 773, 395, 19, 39, 37, -14, 5, 47, 965, 904, 41,I
2025-03-19 18:57:32.188,726, 328, 422, -3, 32, 24, -13, 4, 49, 963, 897, 50,I
2025-03-19 18:57:32.196,833, 318, 388, 16, 31, 7, -14, 4, 47, 963, 891, 38,I
2025-03-19 18:57:32.208,747, 467, 428, 11, 33, 1, -13, 5, 49, 963, 884, 30,I
2025-03-19 18:57:32.217,657, 478, 474, -4, 32, -10, -13, 5, 49, 959, 875, 24,I
2025-03-19 18:57:32.223,665, 262, 603, 5, 22, -22, -15, 4, 48, 955, 865, 26,I
2025-03-19 18:57:32.234,459, 311, 720, 7, 10, -31, -13, 4, 49, 952, 859, 39,I
2025-03-19 18:57:32.242,462, 409, 863, 9, -13, -29, -13, 5, 47, 952, 860, 30,I
2025-03-19 18:57:32.250,727, 458, 854, 35, -37, -10, -13, 5, 48, 956, 882, 34,I
2025-03-19 18:57:32.261,1342, 282, 232, 4, -16, -19, -14, 3, 47, 960, 893, 32,I
2025-03-19 18:57:32.269,775, 810, 498, 1, -17, -6, -13, 3, 49, 960, 906, 36,I
2025-03-19 18:57:32.276,856, 487, 161, 1, -12, 0, -13, 4, 48, 964, 912, 34,I
2025-03-19 18:57:32.285,952, 411, 271, 26, -7, 1, -14, 5, 49, 964, 919, 31,I
2025-03-19 18:57:32.293,979, 854, 505, 16, -12, 21, -14, 3, 48, 965, 917, 41,I
2025-03-19 18:57:32.303,723, 670, 247, -13, -6, 39, -12, 3, 48, 965, 918, 46,I
2025-03-19 18:57:32.311,930, 518, 301, 3, 5, 41, -12, 3, 48, 965, 918, 52,I
2025-03-19 18:57:32.322,717, 594, 367, -12, 10, 32, -13, 4, 48, 961, 914, 45,I
2025-03-19 18:57:32.331,883, 345, 499, 2, 14, 21, -15, 4, 48, 962, 913, 49,I
2025-03-19 18:57:32.339,791, 199, 550, 0, 16, -6, -13, 5, 50, 959, 911, 45,I
2025-03-19 18:57:32.348,903, 190, 365, -10, 27, -34, -13, 6, 48, 959, 908, 49,I
2025-03-19 18:57:32.356,816, 362, 268, -17, 40, -47, -13, 4, 47, 957, 904, 43,I
2025-03-19 18:57:32.368,768, 432, 242, -19, 50, -56, -13, 5, 47, 955, 898, 45,I
2025-03-19 18:57:32.652,724, 496, 473, -12, 0, 1, -13, 3, 49, 948, 888, 43,J
2025-03-19 18:57:32.656,722, 498, 480, -10, -1, 1, -14, 4, 47, 948, 888, 32,J
2025-03-19 18:57:32.671,734, 513, 484, -11, -1, 0, -14, 4, 49, 948, 889, 34,J
2025-03-19 18:57:32.675,727, 501, 487, -14, -2, -2, -13, 4, 48, 950, 890, 31,J
2025-03-19 18:57:32.687,719, 498, 494, -14, -3, -2, -12, 4, 49, 953, 891, 28,J
2025-03-19 18:57:32.695,713, 515, 509, -13, -4, -2, -13, 4, 47, 952, 891, 23,J
2025-03-19 18:57:32.704,683, 495, 522, -15, -5, -2, -13, 4, 47, 949, 890, 18,J
2025-03-19 18:57:32.713,671, 479, 528, -14, -7, -2, -13, 4, 48, 949, 890, 34,J
2025-03-19 18:57:32.722,653, 466, 541, -13, -10, -4, -13, 4, 47, 950, 889, 54,J
2025-03-19 18:57:32.733,635, 466, 585, -12, -12, -4, -12, 3, 49, 948, 888, 49,J
2025-03-19 18:57:32.741,621, 484, 585, -17, -17, -4, -13, 4, 48, 952, 890, 49,J
2025-03-19 18:57:32.748,647, 514, 605, -19, -24, -4, -14, 3, 49, 952, 886, 50,J
2025-03-19 18:57:32.757,648, 533, 556, -18, -30, -1, -13, 4, 47, 952, 889, 43,J
2025-03-19 18:57:32.766,662, 490, 549, -21, -34, 1, -14, 3, 48, 953, 887, 44,J
2025-03-19 18:57:32.777,661, 446, 557, -14, -40, 2, -13, 4, 49, 955, 888, 48,J
2025-03-19 18:57:32.786,1111, 333, 104, -49, -30, -15, -13, 3, 50, 961, 897, 25,J
2025-03-19 18:57:32.793,963, 239, 404, 5, -13, -21, -13, 2, 51, 961, 900, 31,J
2025-03-19 18:57:32.802,763, 817, 342, -22, -15, -5, -13, 2, 51, 965, 905, 26,J
2025-03-19 18:57:32.811,853, 289, 168, 11, -7, -6, -14, 4, 50, 965, 910, 32,J
2025-03-19 18:57:32.818,900, 158, 399, 67, -5, -12, -12, 4, 50, 966, 918, 31,J
2025-03-19 18:57:32.831,916, 904, 670, 39, -19, 9, -16, 2, 50, 969, 921, 41,J
2025-03-19 18:57:32.839,846, 1074, 404, -5, -25, 39, -14, 1, 50, 972, 924, 50,J
2025-03-19 18:57:32.848,882, 519, 260, 1, -15, 38, -14, 4, 49, 970, 928, 87,J
2025-03-19 18:57:32.853,583, 567, 196, -21, 0, 33, -13, 2, 51, 971, 928, 144,J
2025-03-19 18:57:32.864,726, 556, 355, 0, 0, 39, -14, 5, 51, 969, 928, 183,J
2025-03-19 18:57:32.873,735, 541, 432, -6, 4, 39, -12, 4, 50, 970, 925, 167,J
2025-03-19 18:57:32.885,736, 297, 467, 5, 6, 28, -13, 4, 49, 971, 928, 164,J
2025-03-19 18:57:32.892,685, 437, 491, 1, 8, 21, -13, 4, 49, 972, 927, 108,J
2025-03-19 18:57:32.901,649, 257, 559, 19, 10, 9, -14, 4, 50, 968, 924, 37,J
2025-03-19 18:57:32.909,639, 476, 581, 19, 6, 2, -14, 5, 50, 963, 922, 47,J
2025-03-19 18:57:32.918,729, 512, 499, 13, 6, -2, -14, 3, 51, 962, 922, 43,J
2025-03-19 18:57:32.922,591, 385, 425, 8, 8, -15, -15, 5, 49, 960, 919, 45,J
2025-03-19 18:57:32.937,692, 139, 411, 19, 12, -37, -14, 3, 51, 957, 918, 38,J
2025-03-19 18:57:32.945,648, 316, 505, 23, 13, -50, -15, 6, 50, 957, 914, 109,J
2025-03-19 18:57:32.952,635, 473, 568, 25, 4, -40, -12, 3, 49, 956, 915, 146,J
2025-03-19 18:57:32.962,732, 615, 648, 28, -6, -13, -14, 5, 48, 957, 915, 146,J
2025-03-19 18:57:32.971,791, 641, 520, 6, -9, 3, -14, 4, 51, 964, 920, 104,J
2025-03-19 18:57:32.982,1034, -25, 628, 37, -2, -11, -14, 4, 50, 969, 920, 113,J
2025-03-19 18:57:32.991,970, 893, 583, 33, 9, 26, -14, 4, 50, 971, 921, 39,J
2025-03-19 18:57:32.999,747, 851, 420, -4, 17, 44, -13, 3, 50, 971, 922, 43,J
2025-03-19 18:57:33.007,344, 652, 65, 10, 37, 49, -15, 6, 50, 971, 923, 48,J
2025-03-19 18:57:33.015,573, 599, 648, -5, 32, 51, -14, 4, 51, 971, 922, 80,J
2025-03-19 18:57:33.023,911, 416, 421, 1, 27, 55, -13, 7, 48, 970, 923, 168,J
2025-03-19 18:57:33.032,630, 403, 245, -15, 26, 39, -15, 3, 50, 969, 921, 200,J
2025-03-19 18:57:33.042,834, 986, 112, 1, 32, 46, -15, 5, 49, 970, 920, 150,J
2025-03-19 18:57:33.052,803, 267, 315, -22, 29, 34, -13, 5, 49, 969, 919, 77,J
2025-03-19 18:57:33.061,810, 440, 488, -23, 23, 25, -14, 6, 48, 968, 917, 45,J
2025-03-19 18:57:33.065,752, 427, 354, -33, 21, 19, -11, 4, 48, 970, 916, 35,J
2025-03-19 18:57:33.076,710, 295, 364, -35, 28, 6, -12, 5, 47, 967, 910, 31,J
2025-03-19 18:57:33.089,612, -35, 626, -13, 24, -24, -12, 5, 47, 963, 900, 26,J
2025-03-19 18:57:33.098,488, -207, 720, 27, 13, -60, -14, 5, 50, 954, 886, 57,J
2025-03-19 18:57:33.105,893, -74, 661, 37, 8, -81, -13, 6, 47, 939, 871, 50,J
2025-03-19 18:57:33.114,1134, 120, 415, 49, 11, -94, -13, 4, 48, 929, 862, 43,J
2025-03-19 18:57:33.122,1016, 544, 216, 48, 19, -83, -14, 4, 47, 917, 862, 78,J
2025-03-19 18:57:33.131,926, 810, 199, 25, 27, -55, -12, 4, 48, 911, 865, 152,J
2025-03-19 18:57:33.142,718, 887, 432, -2, 31, -26, -12, 4, 47, 911, 871, 158,J
2025-03-19 18:57:33.148,752, 736, 556, -18, 30, -9, -12, 4, 47, 910, 874, 123,J
2025-03-19 18:57:33.156,659, 536, 739, -16, 19, -4, -11, 4, 45, 910, 876, 33,J
2025-03-19 18:57:33.168,570, 441, 829, -7, 3, -6, -13, 2, 47, 916, 881, 19,J
2025-03-19 18:57:33.422,728, 523, 475, -12, -11, -1, -11, 1, 49, 934, 866, 28,K
2025-03-19 18:57:33.432,716, 525, 479, -12, -11, 1, -11, 1, 49, 935, 871, 29,K
2025-03-19 18:57:33.449,689, 536, 528, -13, -15, 2, -13, 4, 48, 935, 874, 50,K
2025-03-19 18:57:33.457,679, 531, 560, -11, -21, 4, -12, 2, 49, 937, 881, 55,K
2025-03-19 18:57:33.466,657, 527, 571, -9, -26, 6, -14, 5, 48, 938, 886, 47,K
2025-03-19 18:57:33.474,666, 513, 560, -10, -32, 8, -11, 3, 50, 941, 890, 36,K
2025-03-19 18:57:33.483,685, 481, 557, -1, -35, 11, -15, 3, 48, 944, 892, 39,K
2025-03-19 18:57:33.492,770, 484, 557, 4, -37, 13, -12, 3, 50, 947, 897, 38,K
2025-03-19 18:57:33.502,1237, 81, 264, -5, -19, -11, -15, 4, 49, 950, 899, 35,K
2025-03-19 18:57:33.511,743, 511, 541, 5, -18, -11, -15, 2, 50, 954, 899, 24,K
2025-03-19 18:57:33.519,740, 514, 401, -13, -19, -8, -14, 3, 49, 959, 902, 18,K
2025-03-19 18:57:33.524,778, 358, 255, 12, -3, -9, -14, 2, 50, 961, 899, 18,K
2025-03-19 18:57:33.536,857, 637, 411, 21, 12, 8, -14, 2, 50, 962, 898, 22,K
2025-03-19 18:57:33.548,711, 705, 476, -6, 23, 23, -15, 4, 49, 958, 894, 34,K
2025-03-19 18:57:33.555,611, 510, 410, 3, 28, 32, -14, 3, 52, 959, 891, 39,K
2025-03-19 18:57:33.563,414, 605, 365, 1, 31, 35, -13, 4, 49, 960, 886, 50,K
2025-03-19 18:57:33.572,556, 266, 501, -13, 19, 25, -14, 4, 51, 961, 885, 43,K
2025-03-19 18:57:33.581,571, 700, 242, -10, 28, 19, -15, 4, 48, 962, 881, 44,K
2025-03-19 18:57:33.588,847, 608, 371, -4, 12, 18, -13, 3, 50, 962, 884, 43,K
2025-03-19 18:57:33.600,961, 714, 83, -13, 17, 28, -14, 4, 50, 964, 894, 56,K
2025-03-19 18:57:33.609,849, 494, 154, -10, 22, 22, -14, 5, 50, 966, 903, 47,K
2025-03-19 18:57:33.618,766, 493, 263, 0, 23, 20, -15, 4, 48, 967, 912, 38,K
2025-03-19 18:57:33.622,1101, 696, 602, -5, 9, 35, -15, 4, 48, 967, 918, 55,K
2025-03-19 18:57:33.635,868, 676, 311, -45, 1, 33, -14, 4, 50, 966, 923, 65,K
2025-03-19 18:57:33.642,1015, 437, 923, -35, -24, 31, -13, 5, 48, 968, 922, 79,K
2025-03-19 18:57:33.653,1018, 115, 289, -24, -19, 18, -14, 5, 50, 967, 925, 166,K
2025-03-19 18:57:33.662,568, 643, 588, -54, -30, 9, -14, 5, 48, 968, 926, 158,K
2025-03-19 18:57:33.670,927, 44, 594, -9, -24, 2, -15, 5, 50, 967, 926, 199,K
2025-03-19 18:57:33.677,576, 255, 869, 11, -29, -3, -13, 7, 49, 967, 926, 189,K
2025-03-19 18:57:33.686,638, 280, 572, 15, -17, -10, -14, 4, 50, 964, 924, 149,K
2025-03-19 18:57:33.699,700, 356, 560, 23, -11, -12, -15, 5, 48, 963, 922, 48,K
2025-03-19 18:57:33.707,706, 477, 520, 22, -7, -10, -14, 4, 49, 962, 921, 22,K
2025-03-19 18:57:33.716,702, 415, 506, 22, -6, -15, -14, 5, 49, 962, 915, 26,K
2025-03-19 18:57:33.722,671, 343, 429, 23, 0, -28, -14, 5, 49, 957, 911, 23,K
2025-03-19 18:57:33.732,697, 188, 294, 40, 12, -49, -13, 5, 51, 951, 904, 21,K
2025-03-19 18:57:33.740,772, 449, 315, 43, 25, -60, -13, 4, 48, 946, 894, 37,K
2025-03-19 18:57:33.752,603, 657, 446, 15, 26, -57, -14, 3, 51, 944, 886, 35,K
2025-03-19 18:57:33.757,585, 704, 564, -9, 17, -40, -14, 4, 49, 946, 879, 44,K
2025-03-19 18:57:33.768,725, 668, 580, -2, 2, -12, -13, 4, 50, 947, 878, 43,K
2025-03-19 18:57:33.776,686, 693, 666, 0, -7, 15, -14, 3, 49, 951, 883, 46,K
2025-03-19 18:57:33.785,826, 371, 628, -49, -16, 2, -13, 4, 50, 958, 894, 53,K
2025-03-19 18:57:33.792,1073, 436, 375, 22, -4, 6, -15, 3, 49, 961, 902, 42,K
2025-03-19 18:57:33.805,888, 983, 459, -8, -13, 31, -13, 4, 49, 967, 912, 42,K
2025-03-19 18:57:33.814,888, 726, 115, -17, 0, 40, -13, 4, 50, 971, 919, 57,K
2025-03-19 18:57:33.823,864, 879, 227, -31, 16, 56, -13, 4, 50, 972, 921, 81,K
2025-03-19 18:57:33.831,1004, 753, 223, -44, 18, 70, -14, 4, 50, 970, 920, 57,K
2025-03-19 18:57:33.839,823, 301, 331, -17, 18, 57, -14, 4, 50, 971, 919, 100,K
2025-03-19 18:57:33.847,794, 333, 392, -5, 20, 47, -14, 6, 48, 971, 920, 55,K
2025-03-19 18:57:33.857,737, 364, 504, 1, 16, 38, -13, 5, 49, 968, 917, 33,K
2025-03-19 18:57:33.868,872, 323, 428, -1, 22, 23, -16, 6, 49, 969, 915, 39,K
2025-03-19 18:57:33.876,873, 307, 464, -10, 29, 2, -14, 5, 47, 960, 907, 35,K
2025-03-19 18:57:33.884,916, 115, 308, -11, 43, -29, -16, 6, 48, 958, 903, 38,K
2025-03-19 18:57:33.892,824, 179, 305, -10, 53, -53, -13, 6, 50, 955, 897, 34,K
2025-03-19 18:57:33.901,702, 348, 302, -5, 58, -66, -13, 5, 46, 953, 891, 25,K
2025-03-19 18:57:33.912,571, 419, 348, 6, 57, -69, -12, 5, 47, 940, 881, 22,K
2025-03-19 18:57:33.919,509, 460, 522, 14, 51, -70, -12, 5, 47, 923, 863, 23,K
2025-03-19 18:57:33.928,571, 445, 646, 10, 43, -67, -13, 4, 46, 910, 844, 43,K
2025-03-19 18:57:34.222,797, 331, 319, -9, -26, -4, -15, 4, 49, 946, 900, 36,L
2025-03-19 18:57:34.232,849, 319, 513, 15, -20, -17, -14, 2, 51, 951, 900, 44,L
2025-03-19 18:57:34.236,691, 686, 315, -1, -22, -10, -14, 3, 50, 952, 902, 31,L
2025-03-19 18:57:34.248,762, 441, 165, 1, -9, -9, -14, 2, 51, 955, 904, 28,L
2025-03-19 18:57:34.256,772, 466, 321, 22, 2, -7, -13, 3, 50, 958, 903, 33,L
2025-03-19 18:57:34.268,682, 640, 459, 20, 8, 5, -14, 3, 50, 958, 903, 35,L
2025-03-19 18:57:34.273,785, 555, 497, 4, 18, 16, -16, 1, 49, 959, 900, 33,L
2025-03-19 18:57:34.285,430, 455, 511, 2, 24, 21, -15, 4, 51, 963, 902, 29,L
2025-03-19 18:57:34.293,645, 529, 475, 32, 29, 16, -14, 2, 50, 962, 898, 23,L
2025-03-19 18:57:34.302,798, 471, 489, 31, 25, 18, -14, 2, 50, 963, 896, 29,L
2025-03-19 18:57:34.310,595, 521, 429, 10, 30, 18, -13, 4, 51, 964, 893, 37,L
2025-03-19 18:57:34.321,1102, 856, 359, 16, 41, 32, -14, 5, 50, 959, 890, 44,L
2025-03-19 18:57:34.323,998, 658, 438, -18, 41, 38, -13, 3, 50, 960, 883, 45,L
2025-03-19 18:57:34.338,919, 623, 319, -31, 36, 27, -14, 4, 50, 959, 879, 49,L
2025-03-19 18:57:34.345,729, 672, 204, -21, 26, 25, -15, 4, 51, 960, 875, 45,L
2025-03-19 18:57:34.355,764, 395, 342, -21, 15, 28, -13, 4, 51, 959, 877, 54,L
2025-03-19 18:57:34.362,811, 640, 210, -30, 24, 28, -13, 5, 48, 959, 887, 47,L
2025-03-19 18:57:34.372,787, 416, 482, -25, 22, 25, -13, 4, 49, 961, 897, 45,L
2025-03-19 18:57:34.383,910, 484, 624, -15, 9, 31, -13, 4, 49, 967, 906, 53,L
2025-03-19 18:57:34.388,774, 639, 582, -39, 2, 35, -13, 4, 49, 970, 915, 42,L
2025-03-19 18:57:34.400,659, 452, 485, -36, -1, 32, -13, 5, 49, 971, 918, 39,L
2025-03-19 18:57:34.408,997, 319, 622, -17, -8, 26, -13, 5, 49, 971, 919, 51,L
2025-03-19 18:57:34.420,637, 338, 551, -13, -10, 14, -12, 5, 49, 968, 920, 55,L
2025-03-19 18:57:34.423,744, 101, 403, 22, -2, -1, -13, 7, 50, 968, 918, 43,L
2025-03-19 18:57:34.435,782, 613, 550, 14, -3, 5, -13, 5, 50, 966, 914, 34,L
2025-03-19 18:57:34.444,767, 473, 417, 12, 1, 3, -14, 7, 48, 961, 911, 36,L
2025-03-19 18:57:34.454,858, 329, 370, 15, 10, -9, -14, 4, 50, 956, 904, 39,L
2025-03-19 18:57:34.462,892, 283, 384, 18, 20, -30, -14, 5, 48, 950, 897, 36,L
2025-03-19 18:57:34.470,915, 204, 260, 23, 34, -53, -13, 6, 50, 943, 889, 41,L
2025-03-19 18:57:34.481,866, 330, 243, 11, 46, -64, -16, 6, 47, 941, 885, 31,L
2025-03-19 18:57:34.490,738, 519, 292, 2, 52, -61, -13, 5, 47, 937, 874, 33,L
2025-03-19 18:57:34.498,674, 606, 405, -14, 55, -51, -13, 5, 47, 934, 866, 33,L
2025-03-19 18:57:34.507,597, 647, 587, -27, 49, -38, -13, 5, 47, 931, 858, 48,L
2025-03-19 18:57:34.515,584, 568, 770, -28, 35, -29, -13, 3, 48, 931, 855, 50,L
2025-03-19 18:57:34.782,705, 446, 575, 10, -42, 11, -13, 3, 50, 943, 888, 43,M
2025-03-19 18:57:34.797,737, 433, 356, -7, -33, 5, -14, 4, 48, 949, 895, 50,M
2025-03-19 18:57:34.805,735, 40, 528, 16, -14, -14, -15, 4, 49, 952, 898, 28,M
2025-03-19 18:57:34.813,699, 541, 555, 14, -21, -12, -13, 2, 49, 959, 901, 28,M
2025-03-19 18:57:34.822,753, 443, 350, 12, -16, -11, -14, 3, 49, 962, 904, 15,M
2025-03-19 18:57:34.830,791, 405, 428, 40, -6, -6, -14, 3, 49, 962, 902, 20,M
2025-03-19 18:57:34.838,771, 806, 449, 33, 8, 23, -13, 4, 50, 960, 899, 37,M
2025-03-19 18:57:34.850,652, 475, 541, 43, 19, 29, -14, 4, 49, 963, 895, 29,M
2025-03-19 18:57:34.857,771, 579, 366, 34, 34, 34, -14, 2, 51, 962, 892, 31,M
2025-03-19 18:57:34.867,631, 881, 430, 6, 41, 40, -14, 4, 50, 961, 888, 34,M
2025-03-19 18:57:34.872,628, 708, 369, 36, 43, 45, -13, 3, 50, 963, 881, 29,M
2025-03-19 18:57:34.885,997, 646, 507, 8, 33, 45, -15, 6, 48, 961, 879, 40,M
2025-03-19 18:57:34.892,646, 770, 148, -20, 33, 40, -13, 3, 50, 958, 870, 42,M
2025-03-19 18:57:34.902,786, 252, 252, 15, 24, 20, -13, 3, 49, 959, 868, 44,M
2025-03-19 18:57:34.911,788, 601, 267, 12, 20, 15, -12, 4, 49, 958, 870, 37,M
2025-03-19 18:57:34.918,837, 643, 221, -3, 21, 16, -14, 5, 48, 955, 876, 36,M
2025-03-19 18:57:34.927,832, 568, 407, -9, 20, 14, -14, 5, 48, 952, 879, 34,M
2025-03-19 18:57:34.934,739, 303, 723, -15, -2, -6, -15, 4, 50, 945, 879, 48,M
2025-03-19 18:57:34.942,667, 59, 633, -1, -21, -36, -12, 3, 48, 938, 880, 44,M
2025-03-19 18:57:34.952,663, -77, 807, 26, -37, -56, -14, 4, 51, 935, 883, 47,M
2025-03-19 18:57:34.965,764, 233, 671, 17, -44, -65, -14, 5, 48, 934, 888, 45,M
2025-03-19 18:57:34.972,614, 594, 527, -1, -42, -53, -13, 2, 51, 936, 895, 96,M
2025-03-19 18:57:34.982,763, 764, 480, -19, -40, -38, -14, 6, 48, 939, 902, 34,M
2025-03-19 18:57:34.990,753, 737, 418, -42, -25, -20, -13, 2, 50, 946, 908, 36,M
2025-03-19 18:57:35.002,822, 628, 471, -49, -21, -6, -14, 4, 50, 952, 914, 29,M
2025-03-19 18:57:35.009,788, 328, 593, -25, -21, -3, -13, 3, 50, 959, 917, 20,M
2025-03-19 18:57:35.018,685, 139, 603, 7, -19, -12, -14, 4, 49, 963, 919, 25,M
2025-03-19 18:57:35.023,750, 198, 651, 36, -22, -18, -14, 4, 49, 965, 917, 30,M
2025-03-19 18:57:35.034,833, 769, 492, 40, -15, 5, -13, 2, 50, 963, 913, 43,M
2025-03-19 18:57:35.043,760, 790, 416, 21, -3, 23, -15, 4, 50, 963, 911, 44,M
2025-03-19 18:57:35.055,742, 915, 161, 10, 16, 46, -13, 2, 51, 965, 910, 51,M
2025-03-19 18:57:35.063,804, 585, 315, -3, 20, 51, -13, 4, 49, 963, 911, 46,M
2025-03-19 18:57:35.071,753, 710, 122, -7, 31, 51, -13, 5, 51, 962, 911, 49,M
2025-03-19 18:57:35.078,926, 229, 325, 3, 27, 35, -15, 4, 50, 964, 912, 55,M
2025-03-19 18:57:35.088,740, 728, 398, -17, 23, 38, -12, 4, 50, 964, 912, 43,M
2025-03-19 18:57:35.095,805, 548, 355, -34, 18, 32, -14, 4, 50, 966, 916, 28,M
2025-03-19 18:57:35.108,864, 624, 511, -29, 8, 32, -14, 4, 50, 968, 915, 29,M
2025-03-19 18:57:35.117,804, 362, 488, -41, -1, 13, -14, 4, 50, 967, 917, 35,M
2025-03-19 18:57:35.123,744, 156, 663, -28, -13, -8, -15, 6, 48, 962, 916, 28,M
2025-03-19 18:57:35.134,710, 139, 659, -12, -28, -20, -13, 5, 50, 959, 916, 46,M
2025-03-19 18:57:35.139,739, 178, 564, -5, -32, -29, -14, 6, 48, 960, 917, 42,M
2025-03-19 18:57:35.151,739, 339, 501, -8, -24, -28, -14, 6, 51, 959, 919, 41,M
2025-03-19 18:57:35.158,744, 525, 619, -8, -15, -14, -16, 6, 48, 961, 919, 31,M
2025-03-19 18:57:35.168,722, 288, 770, 8, -12, -8, -14, 4, 50, 962, 920, 37,M
2025-03-19 18:57:35.176,747, 269, 759, 22, -15, -8, -14, 6, 49, 965, 918, 25,M
2025-03-19 18:57:35.186,746, 572, 537, 31, -7, 5, -14, 4, 52, 966, 918, 27,M
2025-03-19 18:57:35.193,747, 345, 439, 48, 2, 7, -14, 4, 50, 970, 921, 21,M
2025-03-19 18:57:35.203,839, 791, 339, 25, 17, 27, -15, 4, 51, 972, 920, 31,M
2025-03-19 18:57:35.214,686, 903, 15, 15, 26, 37, -15, 4, 51, 970, 920, 28,M
2025-03-19 18:57:35.222,825, 468, 57, 14, 34, 35, -14, 5, 50, 967, 917, 37,M
2025-03-19 18:57:35.230,890, 498, 268, 11, 29, 26, -13, 4, 51, 963, 914, 37,M
2025-03-19 18:57:35.239,890, 560, 272, 5, 27, 24, -14, 7, 49, 962, 909, 52,M
2025-03-19 18:57:35.248,934, 504, 270, -6, 31, 16, -14, 5, 51, 961, 908, 52,M
2025-03-19 18:57:35.255,946, 444, 306, -18, 35, 1, -13, 5, 48, 960, 906, 53,M
2025-03-19 18:57:35.268,930, 207, 316, -31, 42, -24, -13, 5, 50, 959, 907, 50,M
2025-03-19 18:57:35.273,847, 160, 383, -30, 45, -47, -14, 6, 48, 958, 904, 53,M
2025-03-19 18:57:35.284,731, 317, 477, -27, 48, -56, -13, 5, 48, 957, 903, 44,M
2025-03-19 18:57:35.292,654, 436, 534, -20, 45, -59, -13, 7, 48, 955, 902, 33,M
2025-03-19 18:57:35.300,604, 508, 567, -19, 43, -56, -14, 4, 48, 950, 901, 31,M
2025-03-19 18:57:35.310,619, 523, 717, -17, 35, -47, -14, 4, 48, 946, 899, 32,M
2025-03-19 18:57:36.132,722, 525, 458, -3, -1, 0, -15, 4, 47, 936, 857, 26,N
2025-03-19 18:57:36.142,723, 515, 465, -3, 0, 0, -15, 4, 47, 934, 857, 35,N
2025-03-19 18:57:36.152,705, 475, 480, -2, -1, -3, -14, 4, 50, 933, 855, 46,N
2025-03-19 18:57:36.160,734, 481, 495, 0, -2, -4, -14, 4, 48, 933, 854, 42,N
2025-03-19 18:57:36.168,727, 492, 493, -1, -3, -5, -14, 2, 50, 936, 857, 44,N
2025-03-19 18:57:36.176,729, 503, 468, -1, -4, -6, -14, 3, 48, 934, 856, 36,N
2025-03-19 18:57:36.185,749, 529, 455, -5, -3, -4, -14, 2, 49, 935, 859, 34,N
2025-03-19 18:57:36.198,739, 522, 458, -6, -3, -2, -13, 3, 49, 937, 860, 24,N
2025-03-19 18:57:36.206,711, 504, 482, -6, -4, -1, -12, 4, 50, 941, 864, 32,N
2025-03-19 18:57:36.215,688, 494, 544, -6, -8, -1, -13, 2, 48, 940, 867, 17,N
2025-03-19 18:57:36.224,684, 484, 555, -3, -12, 0, -13, 2, 48, 939, 871, 14,N
2025-03-19 18:57:36.232,681, 478, 576, -2, -17, 0, -13, 3, 49, 937, 874, 31,N
2025-03-19 18:57:36.239,695, 494, 568, 1, -21, 1, -14, 3, 49, 938, 876, 48,N
2025-03-19 18:57:36.249,702, 489, 542, 0, -23, 2, -14, 2, 50, 939, 879, 47,N
2025-03-19 18:57:36.259,719, 468, 516, 0, -26, 1, -14, 3, 48, 941, 882, 47,N
2025-03-19 18:57:36.265,776, 479, 469, 3, -26, 1, -13, 4, 50, 943, 887, 51,N
2025-03-19 18:57:36.276,846, 354, 325, -17, -16, -6, -14, 5, 50, 947, 892, 36,N
2025-03-19 18:57:36.285,789, 385, 533, -3, -11, -10, -13, 2, 50, 951, 894, 39,N
2025-03-19 18:57:36.292,764, 541, 505, -3, -11, -1, -14, 3, 49, 956, 896, 34,N
2025-03-19 18:57:36.302,740, 586, 460, -4, -2, 10, -14, 3, 51, 963, 901, 26,N
2025-03-19 18:57:36.312,643, 312, 576, 25, 4, 10, -14, 3, 51, 965, 901, 17,N
2025-03-19 18:57:36.320,601, 698, 512, 6, 9, 13, -14, 4, 50, 965, 901, 20,N
2025-03-19 18:57:36.328,1087, 508, 623, 25, 17, 21, -13, 4, 51, 966, 899, 33,N
2025-03-19 18:57:36.336,675, 478, 454, 33, 21, 14, -13, 4, 49, 967, 896, 33,N
2025-03-19 18:57:36.344,737, 847, 204, 27, 28, 26, -14, 4, 51, 965, 894, 29,N
2025-03-19 18:57:36.354,694, 917, 220, 18, 28, 40, -14, 3, 49, 964, 892, 36,N
2025-03-19 18:57:36.364,607, 608, 140, -21, 33, 39, -13, 3, 49, 965, 892, 40,N
2025-03-19 18:57:36.373,862, 467, 213, -18, 28, 34, -13, 4, 49, 963, 887, 34,N
2025-03-19 18:57:36.382,792, 485, 315, -10, 21, 21, -14, 4, 48, 960, 889, 41,N
2025-03-19 18:57:36.390,727, 545, 160, -13, 27, 18, -12, 4, 50, 959, 890, 36,N
2025-03-19 18:57:36.399,781, 639, 318, -14, 27, 17, -13, 4, 48, 955, 889, 30,N
2025-03-19 18:57:36.407,778, 545, 543, -23, 20, 6, -13, 4, 48, 952, 886, 35,N
2025-03-19 18:57:36.419,663, 168, 745, -16, -2, -21, -12, 4, 49, 947, 884, 38,N
2025-03-19 18:57:36.422,665, -186, 835, 4, -24, -50, -14, 5, 48, 943, 885, 48,N
2025-03-19 18:57:36.434,845, -37, 760, 24, -40, -65, -15, 4, 50, 941, 887, 41,N
2025-03-19 18:57:36.442,772, 424, 659, 17, -43, -59, -14, 3, 47, 942, 893, 45,N
2025-03-19 18:57:36.452,665, 788, 554, 7, -42, -46, -14, 3, 50, 946, 898, 46,N
2025-03-19 18:57:36.464,849, 835, 332, -20, -24, -18, -15, 5, 48, 950, 906, 42,N
2025-03-19 18:57:36.472,772, 566, 617, -19, -12, -3, -13, 2, 50, 956, 906, 36,N
2025-03-19 18:57:36.481,792, 272, 666, -1, -10, 3, -14, 4, 50, 961, 908, 34,N
2025-03-19 18:57:36.489,838, 338, 530, 22, -7, 10, -13, 2, 51, 967, 912, 19,N
2025-03-19 18:57:36.496,819, 688, 508, 26, 6, 32, -16, 4, 49, 969, 911, 20,N
2025-03-19 18:57:36.505,824, 530, 436, 42, 17, 51, -16, 4, 49, 973, 911, 23,N
2025-03-19 18:57:36.515,810, 926, 68, -2, 33, 68, -14, 3, 50, 967, 909, 23,N
2025-03-19 18:57:36.523,823, 479, 395, 5, 34, 69, -14, 4, 50, 968, 908, 30,N
2025-03-19 18:57:36.532,484, 444, 251, -11, 24, 43, -13, 3, 51, 967, 907, 37,N
2025-03-19 18:57:36.542,895, 727, 306, 16, 19, 35, -13, 6, 50, 967, 907, 37,N
2025-03-19 18:57:36.551,751, 652, 224, -17, 18, 33, -13, 4, 50, 965, 908, 35,N
2025-03-19 18:57:36.558,667, 642, 168, -29, 23, 30, -13, 6, 50, 965, 909, 40,N
2025-03-19 18:57:36.565,821, 614, 486, -32, 13, 28, -14, 4, 50, 965, 912, 52,N
2025-03-19 18:57:36.577,783, 401, 782, -35, -10, 15, -14, 5, 48, 963, 912, 44,N
2025-03-19 18:57:36.587,730, -17, 637, -19, -16, -11, -14, 5, 50, 964, 913, 28,N
2025-03-19 18:57:36.594,896, 55, 675, 11, -23, -29, -13, 7, 48, 960, 910, 27,N
2025-03-19 18:57:36.603,735, 121, 600, 37, -23, -43, -13, 7, 48, 953, 905, 31,N
2025-03-19 18:57:36.612,971, 284, 337, 39, -7, -49, -13, 4, 50, 939, 896, 44,N
2025-03-19 18:57:36.622,1004, 518, 209, 25, 17, -46, -14, 4, 49, 929, 891, 53,N
2025-03-19 18:57:36.632,896, 589, 187, 3, 39, -41, -13, 5, 50, 923, 890, 48,N
2025-03-19 18:57:36.640,802, 558, 262, -14, 54, -34, -12, 4, 48, 923, 886, 50,N
2025-03-19 18:57:36.648,727, 479, 350, -23, 62, -34, -13, 4, 48, 924, 884, 44,N
2025-03-19 18:57:36.656,710, 467, 501, -18, 63, -34, -15, 4, 47, 926, 879, 32,N
2025-03-19 18:57:36.948,714, 462, 462, 10, -13, 11, -14, 3, 48, 941, 889, 28,O
2025-03-19 18:57:36.952,744, 467, 481, 6, -13, 10, -14, 3, 48, 940, 890, 31,O
2025-03-19 18:57:36.964,712, 489, 486, 5, -16, 10, -14, 4, 48, 939, 891, 44,O
2025-03-19 18:57:36.972,759, 472, 457, -3, -16, 8, -14, 4, 51, 938, 895, 41,O
2025-03-19 18:57:36.983,769, 478, 449, -8, -14, 6, -15, 5, 48, 937, 896, 37,O
2025-03-19 18:57:36.992,762, 443, 458, -16, -13, 4, -13, 4, 48, 939, 901, 39,O
2025-03-19 18:57:37.001,896, 377, 370, -20, -6, -3, -13, 6, 48, 938, 904, 33,O
2025-03-19 18:57:37.009,740, 464, 464, -22, -7, -5, -13, 4, 50, 939, 908, 28,O
2025-03-19 18:57:37.016,717, 403, 455, -23, -9, -10, -14, 5, 48, 942, 910, 29,O
2025-03-19 18:57:37.022,744, 373, 405, -15, -6, -16, -13, 4, 50, 945, 913, 22,O
2025-03-19 18:57:37.037,791, 441, 442, -8, -4, -17, -14, 5, 47, 947, 914, 20,O
2025-03-19 18:57:37.045,739, 573, 615, -18, -9, -14, -14, 5, 47, 946, 916, 19,O
2025-03-19 18:57:37.054,713, 430, 453, -19, -8, -20, -14, 2, 50, 946, 915, 38,O
2025-03-19 18:57:37.062,776, 339, 592, -11, -13, -25, -14, 5, 50, 945, 916, 51,O
2025-03-19 18:57:37.071,627, 354, 563, -7, -11, -29, -14, 2, 50, 946, 917, 47,O
2025-03-19 18:57:37.082,920, 409, 580, -13, -10, -30, -15, 5, 49, 947, 918, 49,O
2025-03-19 18:57:37.088,692, 338, 609, 2, -11, -36, -13, 3, 50, 949, 915, 47,O
2025-03-19 18:57:37.099,1012, 358, 488, 16, -7, -32, -16, 5, 49, 950, 915, 47,O
2025-03-19 18:57:37.107,790, 352, 536, 26, -3, -28, -14, 4, 50, 953, 913, 38,O
2025-03-19 18:57:37.116,587, 406, 531, 53, 5, -20, -14, 4, 49, 957, 911, 42,O
2025-03-19 18:57:37.123,671, 482, 359, 71, 20, -8, -14, 3, 51, 963, 911, 30,O
2025-03-19 18:57:37.135,1114, 855, 45, 57, 40, 23, -15, 5, 50, 964, 912, 27,O
2025-03-19 18:57:37.142,873, 1208, 146, 5, 47, 64, -15, 5, 50, 965, 916, 27,O
2025-03-19 18:57:37.152,924, 778, 230, -36, 40, 72, -13, 2, 51, 970, 920, 50,O
2025-03-19 18:57:37.156,1033, 746, 294, -32, 34, 92, -14, 4, 47, 970, 920, 43,O
2025-03-19 18:57:37.169,746, 526, 222, -43, 33, 87, -13, 3, 50, 970, 922, 34,O
2025-03-19 18:57:37.175,730, 110, 444, -27, 22, 53, -15, 7, 48, 970, 923, 30,O
2025-03-19 18:57:37.189,711, 472, 383, -37, 14, 40, -14, 3, 50, 973, 925, 39,O
2025-03-19 18:57:37.198,765, 574, 599, -57, 3, 31, -14, 8, 47, 973, 926, 33,O
2025-03-19 18:57:37.205,617, 386, 849, -60, -17, 17, -13, 7, 49, 971, 929, 34,O
2025-03-19 18:57:37.214,528, 71, 786, -34, -24, -3, -13, 7, 47, 972, 928, 32,O
2025-03-19 18:57:37.222,490, -110, 1023, -10, -41, -33, -14, 7, 48, 969, 929, 23,O
2025-03-19 18:57:37.231,759, 33, 632, 22, -44, -49, -12, 6, 48, 968, 930, 20,O
2025-03-19 18:57:37.242,675, 296, 463, 52, -30, -49, -12, 6, 48, 959, 926, 24,O
2025-03-19 18:57:37.251,523, 152, 434, 68, -24, -50, -13, 6, 50, 945, 921, 47,O
2025-03-19 18:57:37.256,702, 462, 173, 66, -5, -45, -13, 5, 49, 935, 916, 46,O
2025-03-19 18:57:37.267,1020, 391, 244, 60, 6, -48, -13, 5, 52, 930, 910, 51,O
2025-03-19 18:57:37.272,1132, 485, 156, 42, 25, -49, -16, 4, 50, 930, 907, 53,O
2025-03-19 18:57:37.287,1027, 593, 135, 19, 43, -45, -14, 4, 49, 930, 904, 52,O
2025-03-19 18:57:37.295,901, 645, 188, -1, 57, -37, -14, 3, 48, 930, 899, 51,O
2025-03-19 18:57:37.304,775, 629, 330, -15, 65, -29, -12, 3, 50, 930, 896, 50,O
2025-03-19 18:57:37.312,666, 592, 492, -19, 67, -22, -13, 4, 48, 930, 896, 46,O
2025-03-19 18:57:37.319,636, 553, 598, -21, 61, -19, -12, 2, 47, 932, 893, 30,O
2025-03-19 18:57:37.328,561, 555, 750, -19, 50, -12, -13, 2, 46, 933, 891, 30,O
2025-03-19 18:57:37.603,717, 484, 543, 3, -38, 3, -14, 4, 47, 942, 903, 30,P
2025-03-19 18:57:37.611,754, 498, 528, 4, -38, 9, -13, 3, 50, 941, 904, 28,P
2025-03-19 18:57:37.622,764, 483, 598, 4, -38, 11, -14, 5, 48, 945, 907, 33,P
2025-03-19 18:57:37.630,1101, 11, 217, 4, -12, -14, -13, 4, 51, 949, 908, 33,P
2025-03-19 18:57:37.640,699, 435, 425, 28, -4, -9, -14, 4, 49, 952, 907, 32,P
2025-03-19 18:57:37.647,804, 418, 495, 18, 2, 0, -13, 3, 51, 956, 907, 31,P
2025-03-19 18:57:37.656,1207, 404, 453, 36, 21, 12, -13, 5, 49, 957, 906, 39,P
2025-03-19 18:57:37.664,875, 813, 380, 46, 45, 39, -13, 3, 50, 960, 904, 34,P
2025-03-19 18:57:37.673,740, 981, 477, 10, 56, 76, -14, 4, 48, 965, 907, 45,P
2025-03-19 18:57:37.685,472, 479, 421, 4, 60, 89, -13, 4, 50, 966, 908, 33,P
2025-03-19 18:57:37.692,723, 152, 631, 10, 52, 77, -13, 5, 48, 968, 907, 35,P
2025-03-19 18:57:37.701,856, 311, 718, 12, 31, 52, -13, 5, 48, 968, 908, 34,P
2025-03-19 18:57:37.709,815, 583, 282, 5, 18, 43, -14, 4, 49, 965, 907, 46,P
2025-03-19 18:57:37.717,899, 505, 106, -3, 20, 36, -14, 4, 48, 964, 909, 46,P
2025-03-19 18:57:37.725,783, 524, 142, -8, 24, 28, -13, 6, 49, 966, 910, 49,P
2025-03-19 18:57:37.738,775, 581, 167, -20, 30, 28, -13, 6, 48, 965, 912, 49,P
2025-03-19 18:57:37.746,811, 521, 522, -26, 24, 22, -13, 5, 48, 963, 915, 46,P
2025-03-19 18:57:37.752,755, 89, 785, -13, 0, -19, -14, 7, 47, 960, 915, 35,P
2025-03-19 18:57:37.763,682, -302, 851, 24, -40, -69, -13, 6, 47, 958, 916, 37,P
2025-03-19 18:57:37.772,690, -417, 769, 50, -66, -103, -14, 6, 48, 958, 917, 24,P
2025-03-19 18:57:37.783,660, 145, 667, 53, -76, -105, -14, 5, 48, 958, 921, 22,P
2025-03-19 18:57:37.791,850, 914, 597, -1, -69, -76, -14, 4, 49, 959, 925, 23,P
2025-03-19 18:57:37.800,953, 975, 314, -20, -42, -31, -14, 4, 49, 962, 926, 18,P
2025-03-19 18:57:37.808,681, 797, 583, -43, -31, -7, -13, 3, 50, 963, 926, 31,P
2025-03-19 18:57:37.814,747, 301, 730, -22, -28, -3, -14, 3, 50, 967, 927, 35,P
2025-03-19 18:57:37.824,555, 257, 764, 3, -30, -10, -13, 4, 50, 968, 929, 34,P
2025-03-19 18:57:37.834,683, 354, 638, 17, -31, -15, -14, 5, 49, 969, 928, 35,P
2025-03-19 18:57:37.843,630, 859, 372, 15, -20, 0, -14, 3, 50, 968, 926, 93,P
2025-03-19 18:57:37.852,666, 697, 252, 13, -6, 8, -12, 3, 50, 967, 926, 103,P
2025-03-19 18:57:37.859,630, 952, -56, 4, 21, 30, -14, 1, 50, 966, 924, 57,P
2025-03-19 18:57:37.868,673, 775, 96, -17, 31, 43, -15, 5, 51, 970, 924, 35,P
2025-03-19 18:57:37.880,630, 672, 138, -30, 48, 53, -14, 3, 49, 969, 924, 30,P
2025-03-19 18:57:37.889,736, 320, 287, -31, 53, 44, -14, 5, 50, 967, 920, 31,P
2025-03-19 18:57:37.898,811, 336, 425, -26, 46, 28, -14, 5, 50, 966, 918, 33,P
2025-03-19 18:57:37.906,912, 168, 396, -23, 41, 3, -13, 6, 51, 963, 914, 55,P
2025-03-19 18:57:37.914,1045, 43, 321, -17, 44, -18, -13, 3, 49, 963, 910, 51,P
2025-03-19 18:57:37.922,1016, 217, 301, -13, 47, -42, -13, 4, 49, 958, 907, 49,P
2025-03-19 18:57:37.934,934, 364, 332, -18, 49, -48, -13, 4, 48, 958, 906, 47,P
2025-03-19 18:57:37.942,789, 495, 390, -33, 49, -45, -14, 5, 46, 956, 908, 46,P
2025-03-19 18:57:37.947,683, 479, 509, -30, 47, -37, -12, 4, 47, 956, 907, 40,P
2025-03-19 18:57:37.958,584, 508, 744, -28, 36, -26, -13, 5, 47, 956, 906, 40,P
2025-03-19 18:57:38.242,706, 107, 712, 9, -14, -28, -14, 3, 52, 968, 927, 19,Q
2025-03-19 18:57:38.248,658, 202, 529, 23, -11, -33, -13, 4, 50, 969, 924, 17,Q
2025-03-19 18:57:38.262,733, 197, 483, 58, 0, -32, -13, 4, 50, 968, 921, 14,Q
2025-03-19 18:57:38.270,711, 417, 380, 78, 12, -20, -13, 4, 51, 968, 915, 22,Q
2025-03-19 18:57:38.277,746, 915, 402, 50, 22, 2, -15, 3, 50, 970, 916, 40,Q
2025-03-19 18:57:38.287,919, 1111, -118, 43, 42, 39, -13, 3, 51, 970, 917, 48,Q
2025-03-19 18:57:38.294,941, 926, 40, 4, 51, 59, -13, 2, 49, 971, 920, 46,Q
2025-03-19 18:57:38.304,1068, 1051, 251, -11, 50, 79, -14, 3, 51, 972, 922, 59,Q
2025-03-19 18:57:38.315,948, 624, 290, -56, 40, 84, -14, 5, 49, 972, 923, 49,Q
2025-03-19 18:57:38.322,668, 159, 404, -40, 25, 57, -14, 6, 51, 973, 925, 57,Q
2025-03-19 18:57:38.332,642, 525, 307, -44, 25, 44, -12, 5, 49, 973, 926, 109,Q
2025-03-19 18:57:38.339,771, 653, 498, -47, 19, 41, -12, 5, 49, 975, 928, 104,Q
2025-03-19 18:57:38.349,584, 441, 701, -56, 7, 36, -13, 6, 48, 976, 929, 79,Q
2025-03-19 18:57:38.354,674, 104, 867, -58, -8, 14, -13, 6, 48, 975, 931, 30,Q
2025-03-19 18:57:38.369,636, 16, 722, -33, -20, -11, -14, 5, 48, 973, 929, 37,Q
2025-03-19 18:57:38.373,536, -119, 945, -2, -37, -29, -13, 7, 48, 972, 929, 43,Q
2025-03-19 18:57:38.386,808, -16, 521, 30, -37, -45, -13, 5, 48, 969, 928, 47,Q
2025-03-19 18:57:38.392,800, 176, 338, 39, -22, -59, -14, 6, 48, 966, 924, 47,Q
2025-03-19 18:57:38.402,851, 398, 216, 30, -4, -60, -14, 5, 50, 963, 922, 33,Q
2025-03-19 18:57:38.410,845, 514, 154, 18, 19, -57, -15, 5, 50, 964, 920, 37,Q
2025-03-19 18:57:38.422,682, 552, 229, 2, 36, -55, -13, 5, 50, 962, 916, 38,Q
2025-03-19 18:57:38.425,626, 492, 351, -5, 41, -49, -13, 4, 50, 963, 915, 28,Q
2025-03-19 18:57:38.438,610, 566, 526, -2, 31, -35, -12, 5, 47, 966, 916, 24,Q
2025-03-19 18:57:38.447,607, 699, 760, 1, 10, -14, -13, 4, 47, 965, 916, 10,Q
2025-03-19 18:57:38.455,654, 727, 864, -10, -15, 13, -13, 4, 47, 969, 918, 22,Q
2025-03-19 18:57:38.467,630, 850, 958, -14, -40, 48, -14, 4, 48, 969, 920, 28,Q
2025-03-19 18:57:38.475,577, 741, 787, -23, -58, 77, -13, 4, 49, 971, 924, 32,Q
2025-03-19 18:57:38.484,2047, -710, 4, -87, -19, 17, -13, 6, 48, 975, 927, 39,Q
2025-03-19 18:57:38.492,774, 1081, 497, 11, -16, 46, -14, 5, 50, 975, 928, 43,Q
2025-03-19 18:57:38.501,624, 760, 262, -69, -16, 52, -14, 6, 49, 976, 929, 150,Q
2025-03-19 18:57:38.508,864, 273, -67, -10, 8, 41, -14, 5, 50, 976, 930, 145,Q
2025-03-19 18:57:38.519,764, 734, 247, -21, 14, 49, -14, 7, 48, 978, 931, 145,Q
2025-03-19 18:57:38.527,956, 474, 313, -2, 14, 51, -14, 6, 50, 977, 928, 120,Q
2025-03-19 18:57:38.535,774, 446, 379, -15, 22, 50, -15, 7, 48, 979, 929, 75,Q
2025-03-19 18:57:38.544,827, 136, 477, -7, 25, 26, -13, 7, 50, 977, 927, 78,Q
2025-03-19 18:57:38.554,909, 216, 473, -6, 33, 4, -13, 7, 50, 976, 926, 32,Q
2025-03-19 18:57:38.562,890, 83, 434, -11, 39, -26, -14, 8, 48, 973, 922, 44,Q
2025-03-19 18:57:38.572,830, 69, 368, -8, 48, -47, -12, 6, 50, 970, 919, 50,Q
2025-03-19 18:57:38.582,757, 152, 259, 2, 59, -67, -13, 9, 47, 968, 914, 41,Q
2025-03-19 18:57:38.588,731, 401, 215, 2, 69, -76, -12, 5, 47, 964, 908, 37,Q
2025-03-19 18:57:38.599,630, 484, 397, 2, 73, -78, -13, 6, 48, 958, 900, 46,Q
2025-03-19 18:57:38.606,561, 460, 478, -5, 71, -79, -12, 5, 47, 949, 895, 29,Q
2025-03-19 18:57:38.615,536, 437, 639, -4, 61, -73, -12, 7, 45, 944, 891, 32,Q
2025-03-19 18:57:38.897,750, 406, 612, 8, -39, 17, -13, 4, 47, 950, 908, 33,R
2025-03-19 18:57:38.902,842, 227, 657, 11, -38, 10, -13, 3, 49, 957, 911, 44,R
2025-03-19 18:57:38.914,1086, -85, 316, 9, -13, -14, -14, 4, 50, 959, 911, 30,R
2025-03-19 18:57:38.922,833, 714, 495, 31, -8, -2, -13, 5, 50, 963, 913, 43,R
2025-03-19 18:57:38.931,942, 763, 363, 17, 8, 34, -14, 4, 48, 964, 914, 52,R
2025-03-19 18:57:38.942,742, 767, 211, -7, 26, 62, -14, 5, 50, 966, 913, 50,R
2025-03-19 18:57:38.950,482, 709, 377, -1, 45, 72, -15, 5, 50, 968, 912, 43,R
2025-03-19 18:57:38.955,567, 572, 360, 2, 54, 76, -14, 5, 48, 969, 912, 39,R
2025-03-19 18:57:38.967,971, 48, 611, -17, 44, 60, -14, 5, 48, 971, 911, 25,R
2025-03-19 18:57:38.972,1224, 538, 518, -11, 31, 54, -13, 7, 48, 973, 910, 29,R
2025-03-19 18:57:38.984,841, 513, 378, -10, 14, 40, -13, 7, 48, 972, 911, 23,R
2025-03-19 18:57:38.995,792, 506, 207, -15, 14, 32, -12, 5, 48, 970, 910, 43,R
2025-03-19 18:57:39.003,770, 413, 306, -11, 13, 21, -13, 6, 46, 969, 910, 34,R
2025-03-19 18:57:39.012,747, 585, 306, -29, 16, 19, -12, 5, 49, 967, 912, 38,R
2025-03-19 18:57:39.020,714, 375, 517, -34, 12, 4, -13, 6, 48, 965, 912, 34,R
2025-03-19 18:57:39.028,604, -92, 686, -3, -5, -37, -12, 5, 48, 962, 909, 33,R
2025-03-19 18:57:39.037,986, -308, 564, 27, -21, -77, -13, 6, 48, 960, 911, 28,R
2025-03-19 18:57:39.048,623, -71, 849, 45, -42, -98, -12, 6, 49, 959, 916, 27,R
2025-03-19 18:57:39.056,852, 480, 628, 21, -49, -91, -13, 6, 46, 963, 919, 20,R
2025-03-19 18:57:39.065,908, 846, 433, -17, -47, -61, -14, 5, 51, 966, 923, 25,R
2025-03-19 18:57:39.072,868, 901, 589, -31, -42, -21, -14, 5, 51, 969, 926, 28,R
2025-03-19 18:57:39.082,763, 667, 495, -64, -31, -1, -13, 5, 48, 971, 931, 24,R
2025-03-19 18:57:39.090,635, 183, 671, -33, -25, 1, -13, 3, 49, 971, 929, 35,R
2025-03-19 18:57:39.100,632, 375, 815, -10, -31, 4, -12, 5, 48, 972, 929, 47,R
2025-03-19 18:57:39.104,641, 665, 602, 8, -24, 10, -13, 3, 49, 974, 930, 46,R
2025-03-19 18:57:39.118,756, 499, 392, 13, -17, 13, -15, 6, 48, 975, 929, 45,R
2025-03-19 18:57:39.122,721, 728, 296, 22, -4, 26, -15, 4, 51, 975, 929, 49,R
2025-03-19 18:57:39.135,760, 706, 218, 10, 15, 35, -14, 6, 47, 975, 928, 50,R
2025-03-19 18:57:39.142,680, 639, 328, 2, 25, 42, -14, 5, 51, 977, 929, 42,R
2025-03-19 18:57:39.155,640, 482, 295, -12, 32, 44, -15, 7, 48, 977, 927, 29,R
2025-03-19 18:57:39.164,913, 419, 415, -1, 31, 43, -14, 5, 51, 977, 927, 26,R
2025-03-19 18:57:39.170,936, 452, 355, -1, 28, 45, -14, 5, 51, 978, 926, 26,R
2025-03-19 18:57:39.179,882, 462, 357, -4, 25, 48, -13, 7, 49, 976, 926, 28,R
2025-03-19 18:57:39.188,946, 336, 332, -2, 25, 43, -13, 6, 49, 977, 925, 42,R
2025-03-19 18:57:39.197,899, 376, 528, 0, 20, 42, -12, 7, 48, 975, 923, 31,R
2025-03-19 18:57:39.208,984, 433, 468, -17, 20, 34, -14, 6, 50, 973, 924, 41,R
2025-03-19 18:57:39.217,1026, 216, 403, -9, 24, 18, -13, 8, 47, 971, 921, 37,R
2025-03-19 18:57:39.224,958, 112, 312, -15, 36, -9, -12, 6, 48, 970, 922, 29,R
2025-03-19 18:57:39.234,869, 77, 229, -16, 49, -36, -14, 6, 47, 968, 920, 33,R
2025-03-19 18:57:39.242,673, 250, 343, -20, 53, -52, -13, 6, 47, 966, 918, 27,R
2025-03-19 18:57:39.254,599, 363, 496, -18, 52, -56, -14, 7, 46, 966, 916, 21,R
2025-03-19 18:57:39.258,595, 441, 594, -19, 51, -54, -13, 4, 45, 962, 914, 20,R
2025-03-19 18:57:39.269,510, 515, 766, -21, 39, -48, -13, 4, 45, 960, 913, 31,R
2025-03-19 18:57:39.277,474, 537, 896, -21, 22, -39, -12, 7, 45, 958, 912, 37,R
2025-03-19 18:57:39.287,444, 512, 963, -16, 4, -32, -12, 6, 45, 959, 911, 45,R
2025-03-19 18:57:39.542,731, 409, 592, 1, -27, 1, -15, 6, 47, 964, 921, 41,S
2025-03-19 18:57:39.552,660, 407, 602, 3, -29, 0, -12, 4, 49, 965, 920, 42,S
2025-03-19 18:57:39.560,739, 337, 529, 5, -27, -4, -14, 5, 49, 966, 922, 46,S
2025-03-19 18:57:39.567,930, 293, 390, 0, -9, -15, -13, 4, 50, 966, 922, 38,S
2025-03-19 18:57:39.576,936, 543, 510, -7, -8, -11, -14, 6, 49, 966, 923, 39,S
2025-03-19 18:57:39.585,647, 232, 432, 16, -4, -14, -13, 5, 50, 968, 922, 34,S
2025-03-19 18:57:39.597,979, 241, 491, 22, -6, -15, -14, 5, 49, 970, 922, 27,S
2025-03-19 18:57:39.602,667, 400, 403, 25, -5, -15, -14, 5, 50, 972, 923, 36,S
2025-03-19 18:57:39.614,892, 245, 347, 33, -3, -18, -14, 5, 49, 972, 924, 31,S
2025-03-19 18:57:39.622,948, 441, 258, 40, 8, -10, -14, 5, 49, 973, 924, 24,S
2025-03-19 18:57:39.630,1023, 758, 209, 35, 21, 12, -14, 5, 48, 973, 924, 17,S
2025-03-19 18:57:39.637,760, 1006, 226, 8, 32, 41, -14, 5, 48, 974, 925, 30,S
2025-03-19 18:57:39.650,566, 815, 266, -37, 35, 61, -13, 5, 50, 974, 928, 38,S
2025-03-19 18:57:39.655,901, 483, 526, -19, 40, 57, -16, 5, 48, 974, 927, 62,S
2025-03-19 18:57:39.667,494, 538, 691, -26, 25, 43, -12, 3, 50, 976, 927, 71,S
2025-03-19 18:57:39.672,689, 401, 559, 7, 16, 27, -15, 5, 48, 976, 929, 89,S
2025-03-19 18:57:39.684,714, 580, 528, 2, 10, 29, -13, 5, 48, 975, 928, 87,S
2025-03-19 18:57:39.692,643, 621, 491, -18, 13, 30, -16, 6, 47, 975, 928, 52,S
2025-03-19 18:57:39.704,708, 578, 498, -20, 14, 29, -13, 6, 50, 978, 925, 53,S
2025-03-19 18:57:39.712,687, 581, 416, -29, 15, 28, -14, 7, 47, 976, 924, 36,S
2025-03-19 18:57:39.721,843, 341, 395, -23, 15, 23, -14, 7, 47, 974, 922, 35,S
2025-03-19 18:57:39.728,705, 204, 315, -5, 22, 9, -13, 6, 49, 971, 918, 41,S
2025-03-19 18:57:39.737,866, 125, 401, 9, 22, -12, -14, 8, 48, 968, 906, 41,S
2025-03-19 18:57:39.744,788, -68, 373, 35, 25, -39, -13, 7, 50, 964, 898, 38,S
2025-03-19 18:57:39.755,1119, 19, 444, 52, 23, -57, -14, 7, 47, 958, 890, 40,S
2025-03-19 18:57:39.765,1259, 219, 282, 30, 30, -65, -13, 7, 47, 953, 890, 27,S
2025-03-19 18:57:39.772,1255, 463, 204, 8, 46, -63, -14, 6, 46, 949, 891, 31,S
2025-03-19 18:57:39.782,1032, 618, 138, -21, 62, -55, -13, 5, 48, 950, 893, 29,S
2025-03-19 18:57:39.790,803, 559, 255, -34, 70, -45, -14, 6, 45, 948, 896, 31,S
2025-03-19 18:57:39.802,618, 528, 538, -38, 62, -37, -12, 5, 47, 953, 898, 32,S
2025-03-19 18:57:39.804,521, 395, 772, -26, 46, -34, -14, 5, 46, 952, 897, 21,S
2025-03-19 18:57:39.819,483, 344, 982, -13, 25, -35, -14, 5, 46, 953, 898, 22,S
2025-03-19 18:57:39.824,428, 412, 995, -5, 4, -34, -13, 7, 46, 953, 899, 28,S
2025-03-19 18:57:39.834,390, 546, 952, 5, -15, -28, -13, 6, 44, 951, 898, 41,S
2025-03-19 18:57:39.842,374, 613, 892, 10, -30, -19, -12, 5, 46, 950, 897, 39,S
2025-03-19 18:57:39.852,429, 616, 750, 12, -38, -11, -12, 4, 44, 950, 899, 43,S
2025-03-19 18:57:39.864,466, 629, 657, 16, -42, -3, -13, 4, 46, 949, 897, 44,S
2025-03-19 18:57:40.122,918, 362, 613, 39, -9, -7, -13, 3, 50, 967, 921, 22,T
2025-03-19 18:57:40.134,978, 1000, 614, 7, -30, 28, -14, 3, 49, 970, 923, 20,T
2025-03-19 18:57:40.142,1082, 889, 445, -37, -28, 45, -14, 3, 49, 971, 926, 33,T
2025-03-19 18:57:40.149,842, 362, 155, -16, -15, 41, -13, 3, 50, 971, 926, 28,T
2025-03-19 18:57:40.158,551, 862, 447, -28, -12, 66, -13, 5, 49, 973, 926, 84,T
2025-03-19 18:57:40.168,661, 207, 193, -5, 6, 52, -13, 3, 50, 973, 928, 112,T
2025-03-19 18:57:40.173,444, 434, 455, -10, 6, 45, -14, 6, 50, 973, 928, 133,T
2025-03-19 18:57:40.186,686, 246, 564, 2, 1, 35, -13, 5, 51, 972, 927, 137,T
2025-03-19 18:57:40.195,656, 417, 488, 9, 4, 29, -14, 5, 50, 970, 926, 137,T
2025-03-19 18:57:40.203,665, 454, 536, 16, 5, 24, -15, 5, 50, 969, 925, 105,T
2025-03-19 18:57:40.212,655, 390, 468, 23, 6, 13, -15, 7, 48, 970, 921, 97,T
2025-03-19 18:57:40.220,741, 299, 479, 24, 8, -3, -13, 6, 51, 967, 919, 30,T
2025-03-19 18:57:40.227,761, 387, 431, 14, 8, -20, -15, 6, 50, 963, 917, 34,T
2025-03-19 18:57:40.237,677, 187, 355, 12, 11, -42, -15, 6, 50, 960, 914, 35,T
2025-03-19 18:57:40.249,655, 300, 370, 12, 15, -52, -14, 5, 50, 959, 909, 49,T
2025-03-19 18:57:40.254,625, 423, 453, 9, 15, -55, -14, 5, 50, 955, 906, 43,T
2025-03-19 18:57:40.265,602, 539, 566, -9, 12, -46, -14, 5, 50, 956, 905, 46,T
2025-03-19 18:57:40.272,651, 610, 642, -9, 5, -27, -14, 5, 48, 956, 907, 38,T
2025-03-19 18:57:40.282,736, 646, 777, -5, -7, 0, -14, 4, 51, 962, 909, 42,T
2025-03-19 18:57:40.293,699, 567, 856, 3, -21, 22, -12, 4, 49, 967, 911, 29,T
2025-03-19 18:57:40.302,1604, 64, 620, -25, -10, 5, -14, 4, 51, 970, 916, 23,T
2025-03-19 18:57:40.307,852, 301, 508, 27, -1, -1, -14, 5, 50, 973, 918, 18,T
2025-03-19 18:57:40.317,675, 906, 386, 14, 6, 29, -14, 4, 50, 974, 919, 21,T
2025-03-19 18:57:40.325,1011, 699, 310, 2, 21, 39, -14, 4, 50, 975, 918, 23,T
2025-03-19 18:57:40.333,935, 809, 276, 6, 40, 68, -14, 4, 50, 975, 916, 28,T
2025-03-19 18:57:40.347,853, 484, 237, -26, 44, 59, -13, 4, 50, 974, 916, 34,T
2025-03-19 18:57:40.355,888, 448, 353, -2, 39, 46, -13, 5, 49, 972, 913, 46,T
2025-03-19 18:57:40.364,1134, 421, 493, -4, 32, 36, -13, 5, 49, 972, 905, 53,T
2025-03-19 18:57:40.372,855, 359, 332, -3, 26, 22, -15, 6, 49, 970, 902, 53,T
2025-03-19 18:57:40.380,822, 314, 372, -4, 25, 7, -14, 5, 48, 968, 897, 51,T
2025-03-19 18:57:40.389,942, 473, 357, -10, 28, -2, -15, 6, 49, 966, 892, 46,T
2025-03-19 18:57:40.400,933, 247, 469, -22, 27, -25, -14, 6, 49, 964, 884, 47,T
2025-03-19 18:57:40.404,1025, 20, 353, -13, 31, -45, -13, 6, 48, 958, 882, 34,T
2025-03-19 18:57:40.417,879, 59, 325, 0, 38, -69, -14, 5, 47, 951, 880, 33,T
2025-03-19 18:57:40.423,733, 318, 345, 10, 44, -76, -14, 5, 47, 941, 881, 22,T
2025-03-19 18:57:40.432,665, 557, 442, -11, 48, -68, -12, 6, 48, 937, 882, 39,T
2025-03-19 18:57:40.442,636, 691, 667, -30, 39, -48, -13, 5, 48, 934, 886, 45,T
2025-03-19 18:57:40.453,574, 662, 828, -44, 27, -31, -12, 4, 46, 934, 890, 40,T
2025-03-19 18:57:40.455,508, 498, 933, -35, 12, -20, -13, 5, 47, 936, 892, 34,T
2025-03-19 18:57:40.470,478, 405, 936, -14, -5, -14, -13, 4, 44, 935, 895, 26,T
2025-03-19 18:57:40.752,631, 743, 344, -6, 31, 71, -15, 5, 48, 970, 904, 42,U
2025-03-19 18:57:40.759,666, 204, 393, -18, 23, 65, -13, 5, 50, 972, 905, 35,U
2025-03-19 18:57:40.770,786, 508, 378, -8, 12, 54, -13, 6, 48, 971, 909, 33,U
2025-03-19 18:57:40.778,629, 388, 310, -5, 12, 42, -13, 6, 48, 971, 911, 28,U
2025-03-19 18:57:40.786,830, 659, 305, -9, 9, 41, -14, 5, 50, 972, 914, 29,U
2025-03-19 18:57:40.798,726, 399, 469, -22, 7, 27, -14, 7, 48, 971, 916, 42,U
2025-03-19 18:57:40.806,770, 502, 492, -37, 1, 19, -13, 5, 51, 970, 917, 37,U
2025-03-19 18:57:40.814,717, 215, 789, -22, -22, 1, -13, 6, 48, 969, 921, 40,U
2025-03-19 18:57:40.822,944, 184, 729, -12, -34, -22, -13, 6, 49, 969, 920, 25,U
2025-03-19 18:57:40.830,481, -2, 741, 11, -36, -42, -14, 7, 49, 968, 921, 38,U
2025-03-19 18:57:40.838,646, 230, 564, 18, -38, -52, -14, 6, 49, 964, 921, 29,U
2025-03-19 18:57:40.850,712, 421, 612, 6, -30, -47, -14, 5, 48, 962, 921, 24,U
2025-03-19 18:57:40.854,743, 479, 702, 0, -26, -35, -14, 5, 49, 965, 921, 29,U
2025-03-19 18:57:40.868,809, 440, 653, 5, -19, -19, -13, 7, 49, 964, 922, 21,U
2025-03-19 18:57:40.876,726, 203, 759, 9, -20, -20, -13, 7, 49, 965, 921, 19,U
2025-03-19 18:57:40.884,707, 197, 625, 28, -19, -25, -15, 4, 50, 965, 918, 42,U
2025-03-19 18:57:40.893,797, 588, 429, 44, -11, -11, -14, 5, 50, 966, 916, 52,U
2025-03-19 18:57:40.903,839, 873, 250, 52, 6, 12, -15, 4, 51, 967, 917, 48,U
2025-03-19 18:57:40.912,857, 904, 170, 27, 18, 39, -14, 5, 50, 968, 915, 51,U
2025-03-19 18:57:40.920,609, 961, 93, 6, 37, 52, -13, 5, 50, 968, 915, 41,U
2025-03-19 18:57:40.929,770, 801, -38, 0, 56, 57, -14, 5, 48, 970, 913, 42,U
2025-03-19 18:57:40.937,919, 358, 374, 1, 44, 45, -15, 6, 50, 969, 911, 42,U
2025-03-19 18:57:40.946,877, 393, 349, 5, 32, 33, -14, 7, 50, 972, 908, 29,U
2025-03-19 18:57:40.956,958, 447, 337, -7, 31, 22, -14, 6, 48, 969, 907, 27,U
2025-03-19 18:57:40.964,918, 297, 397, -7, 34, 4, -14, 6, 48, 969, 905, 38,U
2025-03-19 18:57:40.973,932, 299, 389, -25, 37, -20, -14, 6, 48, 966, 903, 21,U
2025-03-19 18:57:40.983,920, 140, 360, -27, 41, -45, -14, 6, 47, 962, 903, 36,U
2025-03-19 18:57:40.990,748, 197, 433, -23, 42, -58, -13, 6, 48, 960, 902, 37,U
2025-03-19 18:57:40.999,627, 365, 497, -15, 39, -61, -13, 6, 47, 955, 900, 36,U
2025-03-19 18:57:41.006,635, 457, 497, -16, 37, -57, -13, 7, 47, 950, 901, 38,U
2025-03-19 18:57:41.017,590, 564, 720, -22, 28, -46, -12, 5, 47, 943, 899, 37,U
2025-03-19 18:57:41.025,587, 502, 833, -19, 15, -32, -13, 5, 48, 934, 897, 39,U
2025-03-19 18:57:41.036,516, 435, 897, -13, 2, -21, -14, 6, 46, 934, 899, 36,U
2025-03-19 18:57:41.305,1378, 239, 386, -22, -17, -8, -13, 4, 48, 955, 898, 33,V
2025-03-19 18:57:41.314,787, 329, 465, 9, -11, -14, -14, 4, 47, 957, 901, 35,V
2025-03-19 18:57:41.322,725, 587, 493, 2, -13, -8, -13, 4, 48, 961, 904, 35,V
2025-03-19 18:57:41.331,826, 478, 292, 5, -2, -2, -13, 5, 48, 961, 904, 27,V
2025-03-19 18:57:41.338,885, 520, 502, 16, 1, 5, -13, 4, 50, 963, 907, 41,V
2025-03-19 18:57:41.347,914, 697, 466, 18, 7, 34, -14, 5, 48, 968, 908, 38,V
2025-03-19 18:57:41.355,932, 701, 510, 6, 16, 54, -13, 4, 50, 968, 906, 33,V
2025-03-19 18:57:41.367,1034, 580, 398, 4, 28, 65, -13, 4, 50, 972, 907, 35,V
2025-03-19 18:57:41.372,661, 757, 503, -27, 28, 74, -15, 6, 50, 972, 904, 34,V
2025-03-19 18:57:41.384,1054, 435, 445, -5, 27, 79, -14, 5, 50, 972, 902, 48,V
2025-03-19 18:57:41.392,788, 341, 484, -20, 20, 66, -15, 6, 47, 970, 902, 43,V
2025-03-19 18:57:41.403,901, 501, 378, -19, 12, 52, -13, 5, 49, 971, 905, 44,V
2025-03-19 18:57:41.412,405, 160, 261, 13, 5, 28, -14, 7, 49, 971, 907, 45,V
2025-03-19 18:57:41.420,782, 589, 309, -11, 3, 20, -14, 7, 49, 971, 912, 31,V
2025-03-19 18:57:41.427,869, 669, 283, -30, 4, 22, -12, 6, 49, 972, 917, 36,V
2025-03-19 18:57:41.437,841, 689, 479, -53, -6, 28, -13, 7, 47, 972, 920, 34,V
2025-03-19 18:57:41.446,804, 313, 501, -59, -11, 15, -13, 6, 49, 975, 922, 26,V
2025-03-19 18:57:41.455,550, -58, 822, -28, -49, -16, -13, 6, 48, 974, 926, 24,V
2025-03-19 18:57:41.465,854, 12, 191, -11, -39, -40, -13, 6, 48, 972, 927, 20,V
2025-03-19 18:57:41.472,648, 297, 678, -7, -44, -41, -14, 8, 48, 969, 928, 29,V
2025-03-19 18:57:41.482,720, 351, 535, 8, -26, -30, -13, 9, 47, 966, 925, 29,V
2025-03-19 18:57:41.490,652, 271, 635, 24, -18, -22, -14, 6, 48, 960, 923, 35,V
2025-03-19 18:57:41.499,769, 305, 560, 48, -7, -19, -13, 8, 48, 957, 918, 32,V
2025-03-19 18:57:41.504,889, 343, 478, 58, 4, -23, -14, 6, 49, 951, 914, 44,V
2025-03-19 18:57:41.518,979, 546, 320, 52, 21, -20, -14, 6, 50, 948, 909, 49,V
2025-03-19 18:57:41.523,981, 674, 118, 27, 37, -13, -13, 4, 49, 947, 905, 46,V
2025-03-19 18:57:41.532,902, 600, 115, 6, 57, -8, -15, 5, 48, 947, 900, 43,V
2025-03-19 18:57:41.543,765, 522, 262, -6, 66, -8, -12, 4, 49, 945, 894, 35,V
2025-03-19 18:57:41.552,706, 417, 352, -13, 70, -11, -14, 6, 47, 943, 890, 28,V
2025-03-19 18:57:41.563,735, 334, 469, -16, 69, -20, -14, 6, 47, 943, 881, 34,V
2025-03-19 18:57:41.572,639, 428, 568, -8, 66, -21, -12, 6, 50, 940, 864, 54,V
2025-03-19 18:57:41.580,553, 522, 760, -10, 55, -17, -14, 5, 46, 936, 852, 43,V
2025-03-19 18:57:41.588,522, 559, 887, -15, 35, -9, -13, 5, 47, 933, 839, 42,V
2025-03-19 18:57:41.596,505, 522, 956, -14, 10, -3, -12, 7, 45, 934, 833, 40,V
2025-03-19 18:57:41.605,522, 440, 890, -4, -14, 0, -11, 5, 46, 936, 831, 38,V
2025-03-19 18:57:41.887,816, 360, 345, 14, 1, -2, -13, 5, 50, 959, 891, 35,W
2025-03-19 18:57:41.899,923, 520, 552, 28, 7, 14, -13, 4, 50, 963, 892, 26,W
2025-03-19 18:57:41.902,923, 863, 523, 13, 13, 41, -16, 5, 49, 966, 894, 22,W
2025-03-19 18:57:41.916,1099, 650, 578, -12, 25, 66, -13, 4, 50, 966, 897, 22,W
2025-03-19 18:57:41.924,977, 430, 500, -39, 26, 71, -13, 4, 50, 968, 900, 21,W
2025-03-19 18:57:41.933,658, 461, 501, -35, 20, 74, -13, 6, 48, 969, 900, 31,W
2025-03-19 18:57:41.941,614, 537, 528, -25, 12, 54, -13, 5, 51, 968, 899, 47,W
2025-03-19 18:57:41.952,902, 497, 389, -13, 7, 49, -13, 4, 49, 970, 901, 48,W
2025-03-19 18:57:41.960,638, 553, 263, -24, 7, 41, -13, 5, 48, 971, 904, 44,W
2025-03-19 18:57:41.969,611, 286, 292, -20, 9, 24, -13, 7, 48, 970, 908, 53,W
2025-03-19 18:57:41.976,733, 548, 402, -28, 9, 19, -15, 6, 49, 969, 910, 45,W
2025-03-19 18:57:41.986,938, 536, 673, -32, -5, 19, -13, 7, 48, 970, 912, 43,W
2025-03-19 18:57:41.994,584, 59, 630, -40, -22, 4, -14, 8, 47, 968, 916, 38,W
2025-03-19 18:57:42.006,810, -193, 620, -3, -31, -26, -14, 6, 48, 969, 916, 18,W
2025-03-19 18:57:42.014,806, 43, 659, 18, -38, -46, -13, 7, 48, 968, 917, 26,W
2025-03-19 18:57:42.022,667, 305, 527, 11, -33, -46, -13, 7, 48, 965, 918, 20,W
2025-03-19 18:57:42.031,833, 557, 581, 3, -29, -32, -13, 7, 49, 965, 917, 31,W
2025-03-19 18:57:42.038,744, 373, 612, 7, -21, -23, -14, 7, 48, 965, 917, 32,W
2025-03-19 18:57:42.050,717, 270, 565, 20, -10, -19, -14, 6, 49, 968, 917, 29,W
2025-03-19 18:57:42.055,746, 252, 737, 31, -12, -19, -14, 6, 49, 967, 916, 26,W
2025-03-19 18:57:42.065,786, 515, 649, 34, -10, -4, -14, 6, 50, 967, 915, 36,W
2025-03-19 18:57:42.074,748, 710, 473, 25, -2, 17, -15, 6, 48, 970, 914, 26,W
2025-03-19 18:57:42.084,753, 1005, 354, 12, 11, 50, -13, 6, 50, 970, 911, 36,W
2025-03-19 18:57:42.092,605, 708, 79, 0, 18, 52, -14, 8, 48, 971, 912, 27,W
2025-03-19 18:57:42.100,717, 351, 208, 5, 18, 39, -13, 5, 50, 971, 912, 24,W
2025-03-19 18:57:42.112,901, 564, 404, 0, 6, 33, -13, 7, 50, 972, 910, 28,W
2025-03-19 18:57:42.120,755, 574, 325, -19, 5, 29, -13, 7, 50, 971, 914, 38,W
2025-03-19 18:57:42.129,834, 646, 299, -29, 4, 32, -14, 7, 49, 973, 916, 54,W
2025-03-19 18:57:42.137,699, 488, 388, -37, 3, 28, -14, 8, 49, 971, 917, 43,W
2025-03-19 18:57:42.146,851, 247, 672, -22, -7, 15, -14, 7, 51, 970, 918, 53,W
2025-03-19 18:57:42.154,856, 151, 688, -12, -19, 5, -13, 8, 50, 970, 918, 47,W
2025-03-19 18:57:42.166,843, -68, 557, 16, -16, -15, -13, 7, 50, 967, 915, 47,W
2025-03-19 18:57:42.172,844, 75, 430, 23, -4, -31, -14, 9, 48, 961, 911, 41,W
2025-03-19 18:57:42.183,935, 270, 268, 14, 16, -39, -12, 4, 49, 957, 907, 32,W
2025-03-19 18:57:42.191,890, 384, 227, 8, 37, -39, -14, 8, 50, 953, 904, 24,W
2025-03-19 18:57:42.199,780, 419, 253, 0, 54, -35, -13, 4, 49, 948, 901, 21,W
2025-03-19 18:57:42.205,695, 438, 333, -9, 63, -31, -13, 4, 49, 946, 898, 27,W
2025-03-19 18:57:42.218,643, 399, 422, -15, 68, -31, -13, 7, 46, 943, 893, 34,W
2025-03-19 18:57:42.224,595, 426, 583, -8, 64, -30, -13, 5, 49, 943, 889, 36,W
2025-03-19 18:57:42.236,520, 560, 806, -7, 48, -21, -14, 7, 47, 943, 886, 34,W
2025-03-19 18:57:42.243,508, 558, 895, -6, 28, -13, -14, 5, 47, 944, 880, 36,W
2025-03-19 18:57:42.507,1029, 258, 189, -19, -32, -6, -14, 6, 50, 964, 914, 41,X
2025-03-19 18:57:42.513,828, 300, 430, 14, -15, -13, -15, 7, 50, 965, 914, 38,X
2025-03-19 18:57:42.525,669, 554, 329, 14, -13, -5, -14, 5, 50, 966, 916, 34,X
2025-03-19 18:57:42.532,618, 395, 260, 22, 4, -3, -14, 4, 51, 968, 915, 34,X
2025-03-19 18:57:42.542,838, 458, 429, 29, 18, 0, -13, 5, 50, 970, 912, 27,X
2025-03-19 18:57:42.549,690, 477, 447, 37, 26, 8, -15, 5, 51, 968, 911, 21,X
2025-03-19 18:57:42.562,677, 694, 351, 27, 32, 19, -15, 5, 51, 967, 912, 18,X
2025-03-19 18:57:42.570,178, 563, 194, 15, 38, 19, -15, 4, 49, 967, 910, 33,X
2025-03-19 18:57:42.579,1181, 431, 483, 31, 31, 25, -14, 7, 50, 965, 908, 30,X
2025-03-19 18:57:42.587,786, 716, 398, -3, 37, 29, -13, 4, 49, 964, 906, 37,X
2025-03-19 18:57:42.595,837, 241, 316, -2, 35, 13, -14, 7, 51, 963, 904, 36,X
2025-03-19 18:57:42.604,1083, 560, 30, 23, 38, 14, -14, 6, 50, 961, 902, 45,X
2025-03-19 18:57:42.616,971, 604, 333, -5, 32, 14, -16, 6, 50, 959, 898, 50,X
2025-03-19 18:57:42.622,763, 588, 212, -26, 33, 7, -13, 5, 49, 954, 895, 51,X
2025-03-19 18:57:42.632,701, 100, 489, -21, 24, -27, -12, 7, 47, 950, 890, 43,X
2025-03-19 18:57:42.636,776, -85, 721, -1, 5, -65, -14, 7, 49, 945, 885, 32,X
2025-03-19 18:57:42.648,794, -36, 789, 12, -14, -91, -13, 5, 49, 939, 884, 28,X
2025-03-19 18:57:42.652,852, 202, 762, 20, -29, -89, -13, 5, 49, 937, 889, 35,X
2025-03-19 18:57:42.668,681, 482, 716, 8, -37, -74, -14, 4, 49, 943, 898, 43,X
2025-03-19 18:57:42.672,529, 890, 689, -5, -43, -36, -13, 5, 48, 948, 908, 44,X
2025-03-19 18:57:42.685,515, 917, 825, -13, -51, 7, -12, 3, 50, 960, 914, 40,X
2025-03-19 18:57:42.694,1278, 117, 456, -31, -19, -2, -14, 5, 49, 966, 918, 40,X
2025-03-19 18:57:42.703,907, 277, 1117, -4, -29, -2, -16, 4, 51, 969, 922, 31,X
2025-03-19 18:57:42.709,1034, 559, 743, -1, -40, 12, -13, 5, 48, 974, 923, 32,X
2025-03-19 18:57:42.722,987, 1027, 134, -14, -20, 36, -13, 2, 50, 975, 922, 35,X
2025-03-19 18:57:42.731,667, 863, 153, -6, -4, 54, -15, 5, 51, 978, 922, 32,X
2025-03-19 18:57:42.738,888, 755, 59, 2, 18, 78, -14, 2, 51, 977, 922, 21,X
2025-03-19 18:57:42.747,658, 592, 23, -20, 35, 83, -14, 2, 51, 977, 919, 19,X
2025-03-19 18:57:42.755,708, 436, 187, -26, 46, 74, -15, 7, 51, 973, 916, 24,X
2025-03-19 18:57:42.764,717, 314, 448, 11, 38, 60, -13, 5, 50, 972, 914, 38,X
2025-03-19 18:57:42.772,778, 380, 557, 0, 30, 37, -13, 8, 49, 971, 909, 42,X
2025-03-19 18:57:42.784,915, 121, 556, 9, 28, 10, -13, 5, 49, 970, 905, 53,X
2025-03-19 18:57:42.792,865, 286, 458, -3, 31, -14, -15, 9, 48, 968, 904, 51,X
2025-03-19 18:57:42.800,825, 183, 353, -11, 36, -44, -13, 6, 50, 964, 898, 53,X
2025-03-19 18:57:42.805,742, 209, 330, -13, 38, -63, -13, 7, 46, 960, 897, 50,X
2025-03-19 18:57:42.817,659, 275, 303, -11, 42, -74, -13, 5, 48, 954, 892, 47,X
2025-03-19 18:57:42.829,586, 379, 385, -9, 42, -80, -14, 7, 46, 946, 885, 33,X
2025-03-19 18:57:42.837,539, 438, 502, -10, 42, -80, -14, 4, 50, 937, 877, 37,X
2025-03-19 18:57:42.846,606, 482, 659, -12, 35, -69, -14, 4, 50, 929, 877, 30,X
2025-03-19 18:57:43.128,1154, 1184, 539, 6, 1, 44, -13, 3, 50, 972, 920, 32,Y
2025-03-19 18:57:43.132,704, 664, 248, -26, 9, 58, -14, 5, 50, 973, 922, 39,Y
2025-03-19 18:57:43.144,861, 567, 415, 8, 6, 73, -12, 4, 49, 972, 920, 33,Y
2025-03-19 18:57:43.152,462, 416, 394, -11, 9, 66, -15, 5, 48, 975, 922, 45,Y
2025-03-19 18:57:43.159,612, 342, 406, -3, 10, 59, -15, 4, 50, 974, 920, 48,Y
2025-03-19 18:57:43.172,583, 462, 249, 6, 23, 53, -14, 7, 50, 975, 920, 45,Y
2025-03-19 18:57:43.181,635, 547, 423, 7, 22, 45, -14, 6, 51, 975, 920, 35,Y
2025-03-19 18:57:43.189,764, 274, 492, 1, 17, 36, -15, 7, 49, 974, 917, 36,Y
2025-03-19 18:57:43.198,670, 247, 475, 9, 11, 22, -15, 7, 49, 972, 918, 26,Y
2025-03-19 18:57:43.203,909, 268, 453, 1, 9, 3, -12, 5, 50, 970, 914, 44,Y
2025-03-19 18:57:43.216,846, 273, 479, -4, 5, -21, -14, 7, 49, 969, 914, 36,Y
2025-03-19 18:57:43.222,794, 138, 371, -2, 5, -46, -14, 7, 51, 965, 913, 38,Y
2025-03-19 18:57:43.233,726, 226, 384, 15, 6, -57, -15, 7, 49, 960, 910, 29,Y
2025-03-19 18:57:43.242,561, 414, 507, 24, 3, -55, -14, 7, 50, 953, 907, 29,Y
2025-03-19 18:57:43.249,575, 565, 631, 18, -1, -39, -14, 7, 49, 949, 905, 31,Y
2025-03-19 18:57:43.257,575, 646, 771, -2, -7, -16, -14, 4, 50, 950, 906, 27,Y
2025-03-19 18:57:43.267,486, 631, 929, -2, -19, 6, -15, 5, 48, 955, 906, 33,Y
2025-03-19 18:57:43.280,488, 434, 1040, 16, -36, 23, -13, 4, 50, 958, 907, 25,Y
2025-03-19 18:57:43.288,501, 514, 923, 26, -47, 36, -13, 4, 50, 962, 906, 23,Y
2025-03-19 18:57:43.295,1019, 227, 698, 25, -34, 2, -14, 5, 47, 966, 907, 29,Y
2025-03-19 18:57:43.305,740, 9, 315, 56, -15, -20, -13, 5, 51, 967, 907, 57,Y
2025-03-19 18:57:43.313,731, 994, 325, 62, -3, 1, -13, 7, 50, 969, 903, 47,Y
2025-03-19 18:57:43.319,1048, 1003, -89, 46, 20, 29, -14, 4, 53, 971, 900, 47,Y
2025-03-19 18:57:43.332,1050, 785, -21, 43, 30, 39, -15, 6, 50, 969, 903, 48,Y
2025-03-19 18:57:43.336,1145, 538, 236, 17, 46, 40, -13, 4, 51, 969, 898, 50,Y
