Timestamp,Acc_X,Acc_Y,Acc_Z,Gyro_X,Gyro_Y,Gyro_Z,Mag_X,Mag_Y,Mag_Z,Force1,Force2,Force3,Letter
2025-03-19 17:57:32.392,554, 640, 538, -4, 3, -2, 6, -4, 13, 17, 15, 279,noise
2025-03-19 17:57:32.395,563, 636, 532, 0, 3, -2, 5, -4, 12, 11, 19, 279,noise
2025-03-19 17:57:32.397,554, 640, 538, -4, 3, -2, 6, -4, 13, 17, 15, 279,noise
2025-03-19 17:57:32.398,563, 636, 532, 0, 3, -2, 5, -4, 12, 11, 19, 279,noise
2025-03-19 17:57:39.234,542, 569, 552, 10, -1, -5, -1, 3, 6, 11, 458, 269,A
2025-03-19 17:57:39.240,566, 564, 553, 18, -3, -8, -3, 1, 4, 24, 443, 262,A
2025-03-19 17:57:39.255,585, 573, 576, 20, -6, -11, -1, 0, 5, 24, 440, 251,A
2025-03-19 17:57:39.261,583, 577, 555, 20, -8, -14, -1, 2, 5, 26, 438, 246,A
2025-03-19 17:57:39.272,577, 581, 523, 22, -7, -16, -1, 2, 5, 32, 410, 246,A
2025-03-19 17:57:39.280,582, 600, 511, 27, -5, -17, -1, 2, 3, 45, 393, 247,A
2025-03-19 17:57:39.288,547, 635, 497, 32, -3, -16, -1, 1, 6, 48, 400, 226,A
2025-03-19 17:57:39.295,570, 644, 506, 40, 0, -17, -2, 0, 4, 49, 368, 172,A
2025-03-19 17:57:39.305,674, 638, 505, 36, 0, -18, -1, 0, 6, 35, 372, 15,A
2025-03-19 17:57:39.317,626, 612, 511, 37, -2, -19, -1, 0, 6, 30, 370, 10,A
2025-03-19 17:57:39.325,595, 583, 517, 43, -4, -22, -2, 0, 5, 25, 367, 34,A
2025-03-19 17:57:39.333,588, 570, 503, 55, -5, -26, -2, 0, 5, 18, 335, 25,A
2025-03-19 17:57:39.341,590, 580, 508, 62, -5, -30, -3, 0, 4, 21, 340, 20,A
2025-03-19 17:57:39.350,588, 617, 501, 60, -6, -32, 0, -1, 5, 25, 322, 17,A
2025-03-19 17:57:39.358,634, 692, 492, 48, -6, -33, 0, 0, 4, 39, 317, 25,A
2025-03-19 17:57:39.367,630, 744, 487, 26, -6, -29, -2, -1, 6, 45, 327, 42,A
2025-03-19 17:57:39.374,593, 758, 471, 17, -5, -22, -1, -1, 5, 31, 295, 28,A
2025-03-19 17:57:39.387,568, 770, 455, 14, -3, -15, -2, -3, 4, 28, 296, 13,A
2025-03-19 17:57:39.394,598, 785, 462, 3, -1, -9, -2, -3, 4, 27, 299, 9,A
2025-03-19 17:57:39.402,605, 813, 477, -18, 0, 0, -1, -1, 3, 22, 303, 27,A
2025-03-19 17:57:39.411,580, 796, 479, -37, 2, 5, -2, -3, 5, 21, 266, 15,A
2025-03-19 17:57:39.419,585, 791, 468, -65, 5, 10, -1, -2, 5, 28, 324, 16,A
2025-03-19 17:57:39.428,621, 798, 458, -84, 8, 14, -2, -2, 5, 33, 401, 28,A
2025-03-19 17:57:39.437,602, 751, 449, -100, 11, 16, 0, -1, 5, 43, 423, 36,A
2025-03-19 17:57:39.443,605, 674, 457, -106, 12, 16, -1, 0, 4, 86, 420, 38,A
2025-03-19 17:57:39.456,620, 579, 499, -102, 11, 14, -1, -2, 3, 120, 342, 27,A
2025-03-19 17:57:39.460,608, 520, 539, -84, 9, 10, -2, 1, 3, 46, 308, 23,A
2025-03-19 17:57:39.472,579, 491, 549, -62, 7, 7, -2, 1, 3, 26, 280, 9,A
2025-03-19 17:57:39.480,577, 483, 556, -37, 4, 3, -1, 1, 4, 19, 257, 37,A
2025-03-19 17:57:39.489,566, 516, 575, -16, 2, 0, -1, 2, 3, 14, 212, 26,A
2025-03-19 17:57:39.494,582, 568, 580, -7, 1, -3, -1, 2, 5, 29, 176, 20,A
2025-03-19 17:57:39.505,609, 616, 566, -6, -1, -3, 0, 3, 4, 37, 120, 23,A
2025-03-19 17:57:39.513,584, 626, 554, -5, -1, -1, -1, 1, 4, 39, 34, 37,A
2025-03-19 17:57:39.523,567, 645, 543, -10, 0, -1, -2, 0, 5, 41, 26, 29,A
2025-03-19 17:57:39.531,571, 654, 541, -15, 0, 1, -1, 0, 5, 21, 7, 11,A
2025-03-19 17:57:39.542,580, 655, 545, -17, 1, 2, -1, 2, 5, 10, 18, 14,A
2025-03-19 17:57:39.551,571, 619, 546, -14, 1, 3, -1, 2, 5, 26, 22, 7,A
2025-03-19 17:57:39.558,543, 546, 548, 1, -2, -5, -1, -1, 6, 201, 27, 21,A
2025-03-19 17:57:39.568,555, 309, 583, 88, -4, -26, -1, 2, 5, 233, 37, 32,A
2025-03-19 17:57:39.575,705, 419, 591, 82, -4, -29, 1, 0, 6, 310, 24, 36,A
2025-03-19 17:57:39.584,626, 610, 559, 83, -5, -26, -4, 0, 4, 331, 30, 33,A
2025-03-19 17:57:39.592,540, 744, 481, 75, -7, -23, -1, -2, 6, 344, 36, 30,A
2025-03-19 17:57:39.600,578, 786, 436, 66, -7, -16, -2, 0, 2, 358, 33, 16,A
2025-03-19 17:57:39.608,586, 811, 456, 45, -5, -5, 0, -1, 6, 341, 12, 7,A
2025-03-19 17:57:39.619,586, 813, 484, 21, -3, 5, 0, -1, 6, 308, 7, 12,A
2025-03-19 17:57:39.628,618, 780, 492, 8, -3, 13, -2, -2, 5, 321, 22, 13,A
2025-03-19 17:57:39.637,610, 717, 500, -6, -1, 16, -1, -1, 5, 330, 27, 28,A
2025-03-19 17:57:39.644,601, 641, 500, -9, 0, 15, -2, -1, 5, 323, 32, 36,A
2025-03-19 17:57:39.653,591, 595, 500, -5, 1, 12, -1, -3, 7, 270, 33, 31,A
2025-03-19 17:57:39.660,571, 572, 504, 6, -1, 9, -1, -1, 6, 202, 35, 40,A
2025-03-19 17:57:39.670,556, 549, 510, 22, -4, 5, -1, -3, 6, 190, 27, 17,A
2025-03-19 17:57:39.675,549, 546, 516, 47, -8, 1, -3, 0, 4, 151, 2, 13,A
2025-03-19 17:57:39.687,582, 571, 511, 53, -11, -3, -1, -2, 7, 91, 2, 18,A
2025-03-19 17:57:39.694,587, 616, 498, 57, -13, -6, -1, -2, 7, 34, 11, 10,A
2025-03-19 17:57:39.706,589, 666, 490, 54, -14, -8, -2, -1, 4, 36, 34, 33,A
2025-03-19 17:57:39.710,583, 675, 483, 53, -16, -10, -1, -2, 5, 31, 34, 35,A
2025-03-19 17:57:39.722,577, 690, 464, 49, -18, -10, -2, -1, 6, 29, 29, 30,A
2025-03-19 17:57:39.731,587, 688, 461, 43, -19, -9, -1, -4, 7, 23, 32, 33,A
2025-03-19 17:57:39.738,601, 740, 453, 29, -19, -6, -2, -2, 4, 33, 86, 20,A
2025-03-19 17:57:39.744,628, 799, 426, 4, -16, 1, -1, -3, 5, 25, 145, 13,A
2025-03-19 17:57:39.754,633, 826, 403, -13, -10, 8, -1, -2, 6, 19, 181, 3,A
2025-03-19 17:57:39.768,635, 833, 405, -24, -4, 16, -1, -2, 6, 16, 180, 5,A
2025-03-19 17:57:39.775,646, 821, 437, -47, -2, 23, -2, -4, 6, 43, 223, 35,A
2025-03-19 17:57:39.784,733, 873, 508, -128, -6, 33, -2, -2, 6, 37, 275, 33,A
2025-03-19 17:57:39.793,562, 694, 475, -108, -5, 30, -2, -2, 8, 43, 343, 29,A
2025-03-19 17:57:39.801,572, 464, 431, -83, -4, 25, -2, 0, 6, 34, 367, 40,A
2025-03-19 17:57:39.808,560, 417, 454, -51, -2, 13, -1, 0, 7, 42, 378, 13,A
2025-03-19 17:57:39.818,565, 434, 526, -29, -3, 1, -2, -1, 5, 27, 373, 34,A
2025-03-19 17:57:39.825,574, 496, 529, -20, -6, -7, -3, -1, 7, 12, 388, 12,A
2025-03-19 17:57:39.836,581, 567, 503, -10, -6, -11, -2, 0, 6, 3, 384, 24,A
2025-03-19 17:57:39.842,610, 664, 506, -6, -6, -12, -2, 0, 6, 21, 377, 6,A
2025-03-19 17:57:39.854,639, 715, 499, -8, -5, -7, -1, -2, 5, 37, 393, 40,A
2025-03-19 17:57:39.862,628, 692, 496, 11, -1, 5, -1, -1, 5, 119, 399, 35,A
2025-03-19 17:57:39.869,579, 763, 465, 12, 1, 12, -1, 0, 6, 390, 377, 36,A
2025-03-19 17:57:39.876,613, 755, 443, 13, 3, 17, -1, 0, 5, 579, 373, 40,A
2025-03-19 17:57:39.886,631, 689, 460, 10, 6, 21, -2, -2, 6, 682, 368, 32,A
2025-03-19 17:57:39.894,631, 626, 462, 12, 8, 20, -3, -1, 4, 742, 339, 20,A
2025-03-19 17:57:39.906,641, 598, 469, 16, 9, 18, -2, 0, 7, 776, 320, 26,A
2025-03-19 17:57:39.910,641, 595, 479, 20, 9, 14, -3, 0, 5, 806, 237, 10,A
2025-03-19 17:57:39.923,636, 607, 477, 22, 9, 13, -3, 0, 5, 819, 144, 15,A
2025-03-19 17:57:39.931,639, 639, 468, 29, 10, 14, -2, 0, 6, 829, 42, 30,A
2025-03-19 17:57:39.939,642, 590, 461, 51, 12, 12, -3, -1, 6, 835, 36, 32,A
2025-03-19 17:57:39.949,605, 599, 423, 60, 14, 10, -2, 0, 6, 835, 32, 39,A
2025-03-19 17:57:39.956,610, 628, 465, 65, 15, 9, -1, -2, 5, 836, 35, 36,A
2025-03-19 17:57:39.964,599, 662, 475, 49, 12, 8, -2, 0, 5, 836, 23, 27,A
2025-03-19 17:57:39.972,605, 734, 480, 8, 7, 7, -2, 0, 8, 844, 26, 29,A
2025-03-19 17:57:39.984,627, 783, 473, -41, 1, 6, -2, -1, 6, 852, 7, 25,A
2025-03-19 17:57:39.992,582, 793, 458, -68, -6, 7, 1, -1, 5, 858, 10, 71,A
2025-03-19 17:57:40.002,530, 735, 490, -101, -7, 14, 1, -1, 5, 863, 23, 125,A
2025-03-19 17:57:40.008,561, 568, 528, -66, -5, 21, -2, -1, 5, 871, 35, 200,A
2025-03-19 17:57:40.018,625, 502, 525, -32, -1, 21, -2, 0, 5, 873, 41, 241,A
2025-03-19 17:57:40.026,723, 524, 521, -15, 5, 18, -2, 1, 6, 879, 33, 253,A
2025-03-19 17:57:40.035,693, 554, 527, -1, 7, 18, -3, 0, 6, 886, 38, 288,A
2025-03-19 17:57:40.044,633, 574, 491, 7, 9, 18, -2, 0, 4, 893, 38, 315,A
2025-03-19 17:57:40.053,637, 622, 464, 8, 10, 19, -1, 0, 5, 899, 23, 333,A
2025-03-19 17:57:40.060,644, 645, 470, 12, 12, 21, -1, 2, 4, 906, 25, 345,A
2025-03-19 17:57:40.070,656, 643, 492, 15, 13, 25, -3, 1, 5, 912, 20, 370,A
2025-03-19 17:57:40.075,650, 619, 491, 16, 14, 27, -3, 1, 5, 916, 14, 419,A
2025-03-19 17:57:40.087,639, 596, 475, 19, 14, 25, -2, 2, 5, 919, 32, 448,A
2025-03-19 17:57:40.093,603, 576, 479, 20, 15, 21, -1, 0, 5, 921, 41, 487,A
2025-03-19 17:57:40.107,627, 599, 494, 22, 16, 21, -2, 0, 4, 924, 42, 497,A
2025-03-19 17:57:40.115,652, 639, 467, 13, 12, 21, -1, 0, 6, 928, 202, 508,A
2025-03-19 17:57:40.124,521, 656, 536, -11, 3, 20, -2, 1, 4, 932, 298, 511,A
2025-03-19 17:57:40.132,625, 610, 557, -11, -1, 22, -1, -1, 6, 937, 359, 522,A
2025-03-19 17:57:40.140,655, 610, 524, -7, -1, 24, -2, 0, 4, 940, 492, 552,A
2025-03-19 17:57:40.143,658, 590, 518, -1, 0, 24, -3, -1, 4, 944, 523, 567,A
2025-03-19 17:57:40.157,667, 575, 507, 1, 0, 21, -2, 2, 4, 949, 563, 584,A
2025-03-19 17:57:40.169,673, 562, 486, 3, 2, 18, -2, 2, 4, 948, 576, 588,A
2025-03-19 17:57:40.176,646, 573, 474, 6, 4, 17, -2, -1, 6, 949, 595, 600,A
2025-03-19 17:57:40.185,649, 608, 478, 7, 6, 19, -2, 3, 5, 951, 614, 604,A
2025-03-19 17:57:40.194,661, 624, 500, 4, 6, 21, -1, -1, 5, 953, 633, 609,A
2025-03-19 17:57:40.202,668, 624, 520, 2, 5, 24, -3, 3, 4, 954, 641, 614,A
2025-03-19 17:57:40.210,665, 603, 524, -1, 4, 23, -1, 1, 6, 956, 661, 614,A
2025-03-19 17:57:40.219,646, 556, 510, -6, 2, 21, -2, 4, 5, 958, 687, 596,A
2025-03-19 17:57:40.227,645, 528, 497, -2, 2, 17, -2, 2, 5, 959, 699, 586,A
2025-03-19 17:57:40.238,626, 529, 490, -1, 3, 13, -1, 3, 4, 960, 718, 572,A
2025-03-19 17:57:40.243,633, 560, 482, 0, 4, 11, -1, 3, 4, 963, 748, 555,A
2025-03-19 17:57:40.255,645, 604, 488, -1, 4, 12, -1, 1, 6, 964, 768, 537,A
2025-03-19 17:57:40.261,665, 629, 490, -4, 4, 15, -3, 2, 4, 965, 786, 490,A
2025-03-19 17:57:40.271,659, 616, 500, -5, 1, 17, -1, 2, 5, 965, 799, 480,A
2025-03-19 17:57:40.276,626, 593, 510, -7, -2, 16, -2, 2, 5, 965, 822, 476,A
2025-03-19 17:57:40.288,619, 582, 526, -8, -5, 16, -1, 2, 6, 967, 835, 473,A
2025-03-19 17:57:40.292,618, 561, 539, -4, -8, 17, -1, 2, 4, 966, 846, 463,A
2025-03-19 17:57:40.308,614, 550, 538, 2, -9, 18, -3, 1, 7, 968, 853, 466,A
2025-03-19 17:57:40.317,625, 557, 534, 6, -7, 19, -1, 3, 5, 969, 854, 415,A
2025-03-19 17:57:40.324,644, 581, 529, 6, -5, 20, -1, 2, 7, 969, 858, 367,A
2025-03-19 17:57:40.333,672, 565, 519, 4, -4, 21, -1, 2, 7, 970, 861, 357,A
2025-03-19 17:57:40.341,690, 554, 513, 1, -4, 20, -2, 4, 5, 970, 866, 330,A
2025-03-19 17:57:40.350,698, 559, 487, -1, -5, 20, -2, 1, 8, 971, 866, 237,A
2025-03-19 17:57:40.361,719, 569, 471, -3, -6, 19, -1, 2, 6, 972, 870, 181,A
2025-03-19 17:57:40.369,739, 561, 448, -7, -7, 18, -2, 2, 7, 970, 876, 138,A
2025-03-19 17:57:40.376,746, 551, 416, -13, -7, 16, -2, 4, 6, 970, 874, 43,A
2025-03-19 17:57:40.386,759, 535, 390, -18, -6, 12, -2, 3, 7, 971, 875, 51,A
2025-03-19 17:57:40.394,757, 506, 379, -23, -4, 7, -3, 3, 7, 970, 876, 19,A
2025-03-19 17:57:40.403,749, 523, 395, -26, -3, 5, -3, 3, 7, 970, 874, 17,A
2025-03-19 17:57:40.410,724, 542, 425, -28, -2, 3, -3, 3, 7, 971, 877, 27,A
2025-03-19 17:57:40.419,743, 531, 453, -28, -2, 3, -3, 3, 7, 971, 879, 28,A
2025-03-19 17:57:40.431,714, 526, 468, -26, -2, 3, -3, 5, 7, 972, 880, 25,A
2025-03-19 17:57:40.439,691, 522, 495, -23, -6, 1, -2, 5, 7, 971, 880, 26,A
2025-03-19 17:57:40.443,684, 507, 524, -24, -11, -2, -3, 5, 8, 972, 884, 34,A
2025-03-19 17:57:40.454,673, 515, 552, -26, -18, -3, -1, 4, 7, 969, 885, 37,A
2025-03-19 17:57:40.464,644, 546, 579, -26, -24, 0, -1, 4, 8, 971, 890, 50,A
2025-03-19 17:57:40.473,624, 551, 608, -25, -33, 3, -4, 3, 7, 972, 894, 47,A
2025-03-19 17:57:40.480,617, 548, 631, -24, -42, 8, -2, 4, 8, 974, 897, 26,A
2025-03-19 17:57:40.490,599, 562, 643, -23, -51, 10, -2, 4, 8, 973, 901, 33,A
2025-03-19 17:57:40.501,588, 575, 626, -26, -60, 15, -2, 5, 8, 974, 904, 36,A
2025-03-19 17:57:40.508,585, 549, 616, -25, -64, 20, -4, 6, 10, 973, 911, 39,A
2025-03-19 17:57:40.518,652, 518, 550, -29, -61, 21, -2, 2, 9, 976, 918, 23,A
2025-03-19 17:57:40.525,1111, 145, 191, -47, -23, -4, -4, 2, 11, 976, 921, 22,A
2025-03-19 17:57:40.536,744, 571, 670, -41, -25, -6, -3, 5, 9, 977, 921, 20,A
2025-03-19 17:57:40.544,660, 533, 425, -57, -24, -3, -4, 5, 11, 977, 925, 26,A
2025-03-19 17:57:40.554,682, 354, 409, -44, -12, -5, -6, 6, 10, 980, 926, 27,A
2025-03-19 17:57:40.562,619, 509, 545, -25, -4, 1, -4, 4, 13, 980, 926, 11,A
2025-03-19 17:57:40.571,606, 439, 619, -19, -4, 0, -4, 4, 11, 979, 928, 30,A
2025-03-19 17:57:40.578,596, 628, 411, -10, 8, 10, -4, 4, 11, 980, 926, 32,A
2025-03-19 17:57:40.588,450, 441, 444, 5, 16, 15, -4, 6, 11, 979, 924, 40,A
2025-03-19 17:57:40.593,995, 713, 410, 17, 23, 17, -4, 5, 12, 979, 925, 41,A
2025-03-19 17:57:40.606,1074, 840, 283, 6, 30, 32, -4, 7, 12, 979, 923, 39,A
2025-03-19 17:57:40.614,519, 575, 288, -8, 31, 27, -3, 5, 12, 978, 920, 39,A
2025-03-19 17:57:40.624,890, 518, 229, 13, 25, 18, -4, 6, 11, 980, 918, 34,A
2025-03-19 17:57:40.632,1102, 569, 105, 13, 29, 25, -3, 5, 12, 979, 916, 20,A
2025-03-19 17:57:40.640,826, 697, 77, -17, 33, 25, -4, 6, 11, 978, 911, 37,A
2025-03-19 17:57:40.647,983, 465, 186, -11, 35, 27, -2, 5, 13, 978, 911, 25,A
2025-03-19 17:57:40.657,915, 701, 318, -44, 32, 29, -2, 8, 10, 975, 907, 10,A
2025-03-19 17:57:40.669,901, 385, 461, -37, 21, 19, -2, 8, 10, 972, 907, 19,A
2025-03-19 17:57:40.677,818, 229, 649, -9, -10, -6, -3, 5, 11, 969, 902, 19,A
2025-03-19 17:57:40.685,683, 39, 695, -2, -30, -42, -4, 8, 10, 968, 906, 41,A
2025-03-19 17:57:40.693,690, 92, 599, 8, -36, -65, -2, 5, 10, 967, 908, 43,A
2025-03-19 17:57:40.702,636, 492, 654, 5, -40, -62, -3, 7, 9, 968, 913, 45,A
2025-03-19 17:57:40.709,549, 850, 687, -23, -42, -36, -3, 5, 10, 971, 919, 44,A
2025-03-19 17:57:40.721,507, 741, 703, -53, -42, -17, -5, 7, 10, 971, 928, 38,A
2025-03-19 17:57:40.729,766, 481, 551, -64, -15, -7, -5, 6, 11, 973, 933, 35,A
2025-03-19 17:57:40.738,622, 383, 958, -50, -8, -1, -3, 7, 10, 977, 937, 29,A
2025-03-19 17:57:40.745,654, 227, 825, -37, -21, -5, -2, 6, 12, 977, 938, 18,A
2025-03-19 17:57:40.756,779, 254, 657, -14, -22, -11, -2, 6, 12, 980, 941, 18,A
2025-03-19 17:57:40.760,687, 592, 517, -10, -17, -3, -4, 8, 11, 980, 942, 29,A
2025-03-19 17:57:40.771,660, 698, 308, -4, -5, 12, -2, 6, 13, 983, 942, 25,A
2025-03-19 17:57:40.783,751, 748, 289, -8, 10, 31, -4, 7, 13, 982, 939, 28,A
2025-03-19 17:57:40.791,876, 690, 320, 3, 21, 41, -3, 6, 12, 982, 939, 23,A
2025-03-19 17:57:40.801,1173, 498, 431, -20, 27, 46, -5, 8, 12, 982, 933, 53,A
2025-03-19 17:57:40.809,671, 357, 434, -10, 32, 43, -4, 6, 13, 982, 933, 45,A
2025-03-19 17:57:40.818,690, 593, 454, 11, 30, 39, -3, 6, 10, 982, 932, 47,A
2025-03-19 17:57:40.826,717, 454, 466, 4, 27, 31, -4, 6, 12, 983, 923, 28,A
2025-03-19 17:57:40.834,761, 298, 535, 11, 21, 22, -3, 6, 10, 981, 913, 18,A
2025-03-19 17:57:40.843,711, 443, 485, 19, 19, 14, -3, 6, 10, 979, 900, 36,A
2025-03-19 17:57:40.853,691, 478, 507, 18, 17, 7, -4, 7, 11, 977, 888, 33,A
2025-03-19 17:57:40.861,622, 204, 515, 27, 11, -19, -4, 7, 11, 976, 871, 31,A
2025-03-19 17:57:40.870,667, 87, 551, 44, 5, -45, -2, 7, 13, 974, 860, 21,A
2025-03-19 17:57:40.878,589, 341, 679, 41, -11, -57, -3, 8, 10, 971, 851, 23,A
2025-03-19 17:57:40.887,563, 563, 700, 18, -29, -48, -2, 6, 12, 973, 851, 29,A
2025-03-19 17:57:40.898,1181, 575, 316, -22, -14, -35, -2, 7, 11, 972, 871, 14,A
2025-03-19 17:57:40.907,1081, 694, 536, -24, -3, -6, -4, 7, 12, 975, 896, 20,A
2025-03-19 17:57:40.911,766, 583, 666, -72, -8, 7, -2, 6, 9, 976, 911, 8,A
2025-03-19 17:57:40.923,863, -2, 518, -47, -10, -6, -2, 6, 12, 979, 927, 29,A
2025-03-19 17:57:40.931,832, 287, 620, 2, -14, -8, -2, 6, 12, 980, 936, 25,A
2025-03-19 17:57:40.940,869, 842, 567, -9, -20, 14, -3, 6, 10, 980, 943, 41,A
2025-03-19 17:57:40.946,767, 658, 238, -34, -11, 23, -3, 6, 11, 981, 948, 38,A
2025-03-19 17:57:40.959,875, 651, 371, -28, -2, 36, -5, 6, 10, 983, 948, 36,A
2025-03-19 17:57:40.968,779, 244, 400, 1, 2, 33, -2, 7, 12, 982, 947, 28,A
2025-03-19 17:57:40.976,812, 500, 476, -6, 4, 32, -4, 7, 10, 983, 945, 32,A
2025-03-19 17:57:40.985,759, 299, 496, 26, 5, 24, -3, 8, 11, 981, 938, 23,A
2025-03-19 17:57:40.993,749, 480, 533, 28, 4, 23, -4, 7, 10, 982, 930, 33,A
2025-03-19 17:57:41.002,748, 429, 529, 24, 8, 14, -4, 6, 11, 982, 922, 22,A
2025-03-19 17:57:41.009,977, 99, 292, 24, 31, -17, -3, 7, 10, 978, 919, 11,A
2025-03-19 17:57:41.021,1003, 183, 190, 27, 58, -44, -3, 7, 10, 975, 910, 23,A
2025-03-19 17:57:41.029,888, 436, 192, 24, 77, -53, -2, 8, 11, 970, 894, 50,A
2025-03-19 17:57:41.038,747, 516, 243, 20, 82, -52, -3, 6, 10, 967, 875, 50,A
2025-03-19 17:57:41.043,679, 471, 300, 3, 86, -54, -3, 7, 9, 965, 851, 46,A
2025-03-19 17:57:41.054,592, 414, 491, -4, 83, -58, -3, 6, 7, 965, 831, 48,A
2025-03-19 17:57:41.061,538, 455, 748, -7, 70, -58, -2, 5, 8, 962, 809, 34,A
2025-03-19 17:57:41.071,492, 498, 873, 2, 50, -54, -2, 6, 6, 959, 789, 32,A
2025-03-19 17:57:41.080,458, 523, 906, 12, 30, -47, -3, 7, 5, 958, 757, 40,A
2025-03-19 17:57:41.090,424, 550, 877, 18, 16, -37, -3, 5, 5, 958, 740, 18,A
2025-03-19 17:57:41.092,433, 588, 811, 16, 5, -24, -2, 5, 4, 955, 733, 18,A
2025-03-19 17:57:41.104,420, 648, 756, 17, -3, -11, -2, 5, 4, 955, 729, 6,A
2025-03-19 17:57:41.405,678, 528, 520, -3, -7, -2, -2, 3, 10, 946, 748, 172,B
2025-03-19 17:57:41.410,692, 532, 514, -4, -8, -1, -2, 4, 8, 947, 752, 160,B
2025-03-19 17:57:41.422,682, 546, 527, -5, -9, 0, -2, 4, 8, 948, 766, 162,B
2025-03-19 17:57:41.430,681, 536, 525, -5, -11, 0, -2, 3, 11, 949, 774, 166,B
2025-03-19 17:57:41.437,684, 505, 501, -1, -11, 0, -5, 5, 10, 949, 785, 166,B
2025-03-19 17:57:41.445,688, 522, 504, 1, -11, 0, -3, 5, 10, 951, 791, 179,B
2025-03-19 17:57:41.451,694, 544, 512, 1, -12, 0, -4, 5, 9, 951, 799, 169,B
2025-03-19 17:57:41.467,690, 537, 482, 2, -13, 0, -5, 4, 10, 952, 805, 179,B
2025-03-19 17:57:41.475,678, 542, 493, 1, -14, 0, -4, 4, 8, 951, 815, 202,B
2025-03-19 17:57:41.484,682, 532, 491, 2, -15, -1, -3, 5, 10, 953, 817, 215,B
2025-03-19 17:57:41.492,692, 520, 478, 3, -16, -2, -4, 5, 11, 952, 821, 209,B
2025-03-19 17:57:41.501,696, 531, 497, 2, -19, -2, -3, 4, 10, 952, 824, 218,B
2025-03-19 17:57:41.508,670, 551, 526, 0, -22, 0, -3, 4, 10, 955, 830, 261,B
2025-03-19 17:57:41.517,661, 554, 543, -4, -27, 1, -3, 5, 11, 953, 843, 274,B
2025-03-19 17:57:41.528,654, 545, 552, -4, -33, 4, -3, 3, 10, 955, 851, 278,B
2025-03-19 17:57:41.538,637, 560, 569, -5, -39, 8, -3, 3, 10, 954, 866, 288,B
2025-03-19 17:57:41.543,655, 512, 562, -3, -44, 10, -4, 5, 10, 957, 878, 295,B
2025-03-19 17:57:41.554,1462, 485, 219, -49, -22, -5, -5, 4, 11, 959, 891, 252,B
2025-03-19 17:57:41.561,834, 391, 398, -10, -11, -9, -4, 5, 12, 960, 899, 250,B
2025-03-19 17:57:41.571,738, 589, 586, -26, -15, -3, -4, 5, 11, 963, 903, 133,B
2025-03-19 17:57:41.580,742, 364, 386, -27, -12, -7, -4, 3, 12, 966, 910, 78,B
2025-03-19 17:57:41.590,753, 332, 437, 0, -8, -12, -3, 4, 11, 968, 910, 65,B
2025-03-19 17:57:41.599,723, 485, 523, 12, -5, -9, -3, 4, 11, 969, 911, 54,B
2025-03-19 17:57:41.606,710, 600, 441, 14, 2, 2, -5, 4, 12, 973, 912, 46,B
2025-03-19 17:57:41.614,759, 681, 458, 19, 9, 22, -4, 3, 13, 972, 915, 36,B
2025-03-19 17:57:41.623,729, 624, 475, 9, 24, 26, -4, 5, 11, 975, 913, 37,B
2025-03-19 17:57:41.632,708, 768, 441, 25, 33, 47, -2, 2, 12, 977, 910, 35,B
2025-03-19 17:57:41.640,724, 434, 458, 19, 36, 45, -5, 4, 12, 977, 912, 41,B
2025-03-19 17:57:41.650,633, 774, 614, -30, 36, 42, -2, 3, 13, 977, 908, 27,B
2025-03-19 17:57:41.660,768, 441, 546, -8, 24, 36, -3, 6, 10, 978, 907, 26,B
2025-03-19 17:57:41.668,782, 632, 291, 4, 21, 27, -3, 3, 11, 979, 905, 12,B
2025-03-19 17:57:41.676,878, 526, 390, 2, 18, 23, -4, 6, 11, 978, 904, 6,B
2025-03-19 17:57:41.686,855, 579, 227, 2, 18, 18, -4, 6, 11, 976, 903, 12,B
2025-03-19 17:57:41.693,797, 489, 375, 6, 12, 12, -4, 4, 12, 974, 901, 20,B
2025-03-19 17:57:41.700,753, 633, 288, -5, 15, 13, -3, 7, 10, 972, 903, 43,B
2025-03-19 17:57:41.712,765, 500, 443, -10, 13, 0, -2, 4, 13, 971, 905, 42,B
2025-03-19 17:57:41.721,625, -55, 688, 12, -14, -42, -4, 7, 9, 967, 905, 45,B
2025-03-19 17:57:41.730,733, -72, 639, 49, -37, -76, -2, 5, 11, 966, 906, 46,B
2025-03-19 17:57:41.740,1162, 132, 578, 37, -42, -83, -4, 5, 9, 963, 914, 192,B
2025-03-19 17:57:41.746,696, 592, 568, 30, -55, -69, -5, 4, 11, 965, 919, 269,B
2025-03-19 17:57:41.757,895, 898, 374, -24, -46, -41, -3, 4, 11, 970, 928, 252,B
2025-03-19 17:57:41.766,734, 748, 395, -52, -26, -19, -4, 2, 12, 971, 937, 248,B
2025-03-19 17:57:41.774,769, 524, 585, -54, -20, -6, -4, 2, 12, 973, 943, 223,B
2025-03-19 17:57:41.783,785, 311, 687, -34, -23, -3, -5, 5, 11, 974, 948, 171,B
2025-03-19 17:57:41.792,772, 205, 714, -16, -23, -9, -3, 5, 11, 977, 950, 163,B
2025-03-19 17:57:41.800,768, 410, 564, 6, -21, -5, -5, 4, 10, 978, 950, 189,B
2025-03-19 17:57:41.810,788, 774, 514, 7, -14, 6, -5, 3, 11, 977, 949, 127,B
2025-03-19 17:57:41.819,590, 556, 392, -18, -7, 9, -5, 6, 10, 978, 950, 79,B
2025-03-19 17:57:41.828,738, 670, 457, -1, -1, 10, -5, 3, 13, 978, 949, 53,B
2025-03-19 17:57:41.837,604, 724, 453, -6, 2, 16, -4, 5, 12, 980, 947, 46,B
2025-03-19 17:57:41.844,683, 764, 428, -12, 6, 25, -5, 3, 13, 980, 948, 19,B
2025-03-19 17:57:41.853,651, 764, 377, -11, 16, 23, -4, 4, 12, 980, 947, 28,B
2025-03-19 17:57:41.862,561, 484, 460, -8, 14, 22, -4, 4, 12, 980, 948, 33,B
2025-03-19 17:57:41.870,738, 560, 477, -2, 15, 23, -4, 4, 14, 980, 946, 38,B
2025-03-19 17:57:41.881,875, 491, 583, -3, 14, 26, -6, 6, 12, 980, 944, 37,B
2025-03-19 17:57:41.889,581, 455, 435, -2, 12, 20, -4, 5, 14, 981, 944, 27,B
2025-03-19 17:57:41.896,770, 297, 417, 9, 13, 15, -3, 6, 12, 979, 943, 23,B
2025-03-19 17:57:41.900,987, 318, 459, 12, 13, 12, -4, 4, 14, 979, 941, 31,B
2025-03-19 17:57:41.914,858, 340, 454, 5, 10, 10, -5, 6, 11, 978, 940, 23,B
2025-03-19 17:57:41.923,906, 312, 368, 2, 11, 9, -3, 4, 11, 979, 942, 27,B
2025-03-19 17:57:41.934,877, 395, 458, -4, 9, 6, -5, 5, 11, 980, 944, 26,B
2025-03-19 17:57:41.941,774, 417, 420, 3, 8, 6, -4, 5, 12, 979, 944, 20,B
2025-03-19 17:57:41.950,755, 571, 564, -11, 4, 8, -4, 5, 12, 981, 943, 33,B
2025-03-19 17:57:41.959,693, 479, 506, -23, 8, 7, -5, 6, 11, 980, 942, 40,B
2025-03-19 17:57:41.967,582, 567, 699, -9, 8, 9, -5, 5, 11, 980, 943, 31,B
2025-03-19 17:57:41.975,498, 711, 725, -11, 6, 11, -4, 7, 12, 982, 941, 29,B
2025-03-19 17:57:41.984,530, 553, 661, -1, 9, 13, -4, 5, 13, 982, 942, 27,B
2025-03-19 17:57:41.992,802, 741, 520, -8, 12, 20, -3, 6, 10, 981, 939, 27,B
2025-03-19 17:57:42.003,513, 422, 469, 2, 7, 8, -3, 8, 12, 979, 937, 20,B
2025-03-19 17:57:42.011,811, 556, 354, 5, 10, 8, -4, 5, 11, 979, 935, 5,B
2025-03-19 17:57:42.020,793, 512, 313, -4, 11, 7, -3, 6, 12, 979, 928, 27,B
2025-03-19 17:57:42.029,823, 374, 238, 15, 16, 7, -3, 6, 12, 978, 912, 28,B
2025-03-19 17:57:42.037,749, 284, 271, 29, 21, 0, -2, 5, 10, 974, 899, 36,B
2025-03-19 17:57:42.044,897, 323, 365, 50, 22, -4, -4, 5, 11, 970, 882, 36,B
2025-03-19 17:57:42.053,836, 413, 407, 54, 22, -8, -3, 5, 12, 968, 859, 40,B
2025-03-19 17:57:42.060,1084, 282, 458, 41, 17, -26, -2, 6, 11, 967, 847, 30,B
2025-03-19 17:57:42.072,1176, 227, 276, 30, 31, -49, -4, 5, 12, 966, 840, 43,B
2025-03-19 17:57:42.080,1069, 404, 245, 5, 50, -61, -2, 4, 10, 963, 838, 19,B
2025-03-19 17:57:42.090,828, 612, 251, -16, 60, -58, -2, 4, 9, 963, 837, 23,B
2025-03-19 17:57:42.096,664, 611, 375, -37, 59, -51, -3, 4, 9, 961, 832, 11,B
2025-03-19 17:57:42.106,580, 500, 530, -35, 53, -49, -2, 5, 7, 960, 831, 19,B
2025-03-19 17:57:42.119,527, 490, 688, -34, 42, -47, -2, 5, 7, 959, 833, 16,B
2025-03-19 17:57:42.127,454, 588, 865, -32, 24, -41, -2, 3, 8, 959, 839, 24,B
2025-03-19 17:57:42.134,389, 654, 907, -27, 5, -30, -1, 5, 7, 956, 843, 48,B
2025-03-19 17:57:42.142,361, 664, 843, -23, -6, -19, -4, 4, 6, 958, 851, 40,B
2025-03-19 17:57:42.150,354, 624, 779, -13, -19, -11, -2, 4, 7, 956, 851, 50,B
2025-03-19 17:57:42.158,401, 589, 692, -1, -25, -4, -1, 4, 7, 955, 852, 52,B
2025-03-19 17:57:42.167,471, 604, 633, 9, -27, 1, -2, 2, 8, 956, 852, 44,B
2025-03-19 17:57:42.451,737, 523, 466, -10, -8, 6, -5, 5, 10, 956, 855, 23,C
2025-03-19 17:57:42.467,739, 517, 478, -11, -8, 6, -4, 3, 11, 957, 858, 23,C
2025-03-19 17:57:42.473,725, 493, 503, -9, -9, 7, -4, 4, 12, 958, 863, 18,C
2025-03-19 17:57:42.484,725, 484, 523, -7, -10, 7, -4, 3, 12, 959, 867, 31,C
2025-03-19 17:57:42.492,718, 485, 510, -2, -12, 7, -3, 5, 8, 958, 871, 42,C
2025-03-19 17:57:42.503,714, 497, 504, 2, -13, 7, -3, 5, 12, 960, 873, 44,C
2025-03-19 17:57:42.510,707, 517, 516, 3, -17, 9, -5, 6, 11, 960, 875, 20,C
2025-03-19 17:57:42.520,689, 531, 521, 3, -22, 9, -3, 4, 12, 961, 878, 16,C
2025-03-19 17:57:42.526,690, 508, 510, 2, -25, 8, -3, 4, 12, 961, 881, 29,C
2025-03-19 17:57:42.537,691, 509, 500, 0, -26, 8, -4, 5, 10, 962, 886, 30,C
2025-03-19 17:57:42.542,662, 523, 481, -7, -26, 6, -4, 3, 13, 963, 891, 25,C
2025-03-19 17:57:42.554,847, 417, 332, -22, -11, -4, -5, 5, 13, 964, 897, 27,C
2025-03-19 17:57:42.561,720, 532, 475, -24, -10, -6, -5, 4, 12, 966, 905, 20,C
2025-03-19 17:57:42.573,750, 536, 406, -36, -10, -6, -5, 4, 12, 966, 910, 19,C
2025-03-19 17:57:42.580,739, 474, 362, -33, -5, -8, -4, 5, 13, 967, 913, 29,C
2025-03-19 17:57:42.590,717, 521, 458, -26, -5, -10, -4, 4, 11, 967, 920, 37,C
2025-03-19 17:57:42.596,665, 457, 563, -32, -7, -12, -5, 5, 13, 966, 924, 23,C
2025-03-19 17:57:42.604,784, 520, 483, -36, -6, -12, -5, 5, 13, 968, 928, 28,C
2025-03-19 17:57:42.610,801, 487, 592, -29, -8, -12, -4, 5, 14, 969, 931, 22,C
2025-03-19 17:57:42.626,702, 461, 511, -23, -6, -11, -6, 6, 13, 969, 933, 46,C
2025-03-19 17:57:42.635,680, 394, 576, -17, -5, -15, -4, 5, 14, 972, 933, 42,C
2025-03-19 17:57:42.642,721, 309, 484, 5, -2, -19, -5, 6, 14, 972, 934, 35,C
2025-03-19 17:57:42.651,793, 377, 514, 19, 1, -17, -5, 6, 14, 975, 931, 39,C
2025-03-19 17:57:42.659,759, 462, 603, 24, -2, -20, -6, 3, 15, 976, 931, 24,C
2025-03-19 17:57:42.669,729, 304, 479, 54, 9, -17, -4, 5, 13, 976, 930, 19,C
2025-03-19 17:57:42.675,669, 561, 453, 54, 9, -18, -5, 4, 14, 979, 926, 28,C
2025-03-19 17:57:42.688,805, 705, 322, 55, 16, -5, -6, 3, 14, 979, 925, 17,C
2025-03-19 17:57:42.692,911, 473, 343, 47, 17, 1, -6, 3, 14, 980, 923, 10,C
2025-03-19 17:57:42.705,938, 661, 133, 46, 40, 31, -3, 4, 15, 980, 926, 36,C
2025-03-19 17:57:42.710,848, 567, 319, 22, 46, 51, -6, 3, 14, 981, 931, 32,C
2025-03-19 17:57:42.721,1396, 1030, 302, 8, 42, 51, -4, 5, 14, 981, 936, 43,C
2025-03-19 17:57:42.721,793, 130, 407, -6, 33, 38, -4, 3, 13, 981, 941, 46,C
2025-03-19 17:57:42.740,896, 635, 258, 10, 28, 39, -3, 5, 12, 981, 944, 43,C
2025-03-19 17:57:42.740,729, 644, 282, -24, 26, 40, -4, 4, 12, 980, 948, 39,C
2025-03-19 17:57:42.758,958, 430, 479, -2, 15, 42, -6, 6, 13, 981, 951, 39,C
2025-03-19 17:57:42.766,851, 718, 414, -50, 14, 34, -3, 5, 13, 980, 954, 52,C
2025-03-19 17:57:42.774,801, 9, 740, 17, -3, 12, -4, 6, 10, 982, 952, 17,C
2025-03-19 17:57:42.783,617, 471, 569, 21, -8, 4, -4, 6, 10, 979, 948, 17,C
2025-03-19 17:57:42.790,705, 441, 598, 36, -11, 0, -3, 5, 12, 974, 940, 22,C
2025-03-19 17:57:42.802,758, 329, 561, 55, -4, -17, -4, 3, 11, 971, 936, 25,C
2025-03-19 17:57:42.810,961, 202, 186, 57, 26, -44, -3, 5, 11, 966, 931, 16,C
2025-03-19 17:57:42.819,921, 372, 83, 39, 56, -60, -6, 5, 10, 965, 926, 133,C
2025-03-19 17:57:42.825,808, 570, 206, 10, 70, -58, -3, 3, 12, 961, 917, 153,C
2025-03-19 17:57:42.836,743, 624, 310, -17, 78, -51, -3, 6, 9, 961, 912, 153,C
2025-03-19 17:57:42.842,642, 597, 413, -30, 76, -45, -3, 2, 10, 960, 902, 137,C
2025-03-19 17:57:42.855,625, 532, 542, -35, 72, -42, -4, 6, 9, 958, 892, 45,C
2025-03-19 17:57:42.860,581, 545, 731, -32, 62, -39, -4, 4, 10, 957, 882, 24,C
2025-03-19 17:57:42.871,521, 577, 879, -27, 45, -32, -4, 4, 10, 956, 872, 26,C
2025-03-19 17:57:42.880,477, 613, 848, -23, 27, -23, -3, 5, 6, 956, 863, 22,C
2025-03-19 17:57:42.887,461, 612, 767, -22, 13, -14, -2, 3, 8, 956, 851, 42,C
2025-03-19 17:57:42.895,463, 573, 695, -18, 5, -7, -3, 5, 5, 955, 837, 31,C
2025-03-19 17:57:42.905,486, 567, 642, -11, 0, -3, -2, 5, 7, 956, 821, 28,C
2025-03-19 17:57:42.917,545, 556, 655, -8, -4, 3, -4, 6, 6, 954, 800, 15,C
2025-03-19 17:57:43.229,664, 526, 586, -2, -48, 9, -5, 4, 13, 953, 896, 33,D
2025-03-19 17:57:43.237,700, 476, 538, 1, -37, 1, -5, 4, 11, 956, 903, 43,D
2025-03-19 17:57:43.245,1197, 288, 189, -24, -16, -8, -3, 4, 12, 958, 911, 33,D
2025-03-19 17:57:43.254,808, 599, 529, -11, -9, -5, -5, 5, 13, 960, 913, 24,D
2025-03-19 17:57:43.265,739, 470, 354, -27, -11, -3, -5, 5, 13, 963, 918, 20,D
2025-03-19 17:57:43.274,786, 334, 367, -9, -4, -7, -4, 4, 11, 965, 919, 30,D
2025-03-19 17:57:43.280,766, 387, 540, 7, -2, -10, -3, 5, 11, 967, 919, 40,D
2025-03-19 17:57:43.290,745, 521, 531, 6, -3, -7, -5, 5, 11, 969, 922, 30,D
2025-03-19 17:57:43.298,733, 451, 556, 11, -3, -6, -5, 6, 11, 972, 920, 23,D
2025-03-19 17:57:43.306,742, 443, 563, 26, 5, 1, -5, 3, 14, 973, 920, 25,D
2025-03-19 17:57:43.313,650, 670, 416, 27, 17, 20, -3, 5, 11, 975, 921, 31,D
2025-03-19 17:57:43.324,655, 430, 627, -18, 27, 33, -4, 3, 13, 974, 923, 29,D
2025-03-19 17:57:43.334,915, 541, 606, -6, 38, 35, -4, 5, 10, 977, 922, 21,D
2025-03-19 17:57:43.342,688, 625, 545, 21, 31, 37, -3, 3, 13, 977, 921, 28,D
2025-03-19 17:57:43.351,309, 761, 307, 20, 42, 49, -3, 3, 13, 978, 919, 22,D
2025-03-19 17:57:43.357,764, 457, 435, 13, 36, 34, -3, 7, 11, 978, 914, 33,D
2025-03-19 17:57:43.368,873, 529, 429, 9, 27, 32, -4, 5, 13, 977, 907, 40,D
2025-03-19 17:57:43.375,679, 588, 341, -5, 24, 34, -5, 6, 11, 977, 904, 45,D
2025-03-19 17:57:43.388,717, 364, 102, 19, 17, 18, -2, 5, 14, 977, 904, 37,D
2025-03-19 17:57:43.392,788, 610, 340, 5, 21, 19, -4, 8, 11, 975, 906, 30,D
2025-03-19 17:57:43.403,728, 520, 385, 7, 20, 14, -4, 3, 12, 972, 908, 39,D
2025-03-19 17:57:43.412,769, 607, 389, 12, 17, 12, -3, 7, 11, 968, 906, 19,D
2025-03-19 17:57:43.421,634, 243, 776, 41, -19, -11, -3, 5, 11, 964, 902, 13,D
2025-03-19 17:57:43.426,717, -4, 642, 56, -41, -53, -5, 5, 12, 961, 897, 20,D
2025-03-19 17:57:43.440,624, -110, 801, 86, -57, -87, -5, 5, 12, 955, 894, 18,D
2025-03-19 17:57:43.450,921, 273, 686, 97, -60, -91, -3, 4, 13, 952, 900, 292,D
2025-03-19 17:57:43.457,552, 797, 618, 78, -61, -70, -4, 2, 13, 954, 905, 382,D
2025-03-19 17:57:43.466,819, 926, 250, 12, -45, -43, -3, 1, 13, 957, 915, 417,D
2025-03-19 17:57:43.475,801, 809, 378, -2, -32, -20, -5, 3, 12, 960, 922, 428,D
2025-03-19 17:57:43.483,873, 559, 514, -20, -20, -10, -5, 1, 14, 966, 932, 413,D
2025-03-19 17:57:43.491,799, 366, 540, -14, -21, -9, -5, 4, 12, 968, 939, 394,D
2025-03-19 17:57:43.503,805, 328, 644, 0, -27, -12, -4, 1, 14, 972, 944, 385,D
2025-03-19 17:57:43.511,751, 476, 516, 4, -26, -8, -5, 2, 13, 973, 943, 388,D
2025-03-19 17:57:43.520,789, 637, 418, 7, -23, 3, -4, 2, 14, 978, 944, 355,D
2025-03-19 17:57:43.525,760, 736, 276, -3, -10, 16, -4, 2, 14, 979, 946, 262,D
2025-03-19 17:57:43.536,723, 837, 383, -21, 5, 31, -5, 3, 13, 982, 946, 135,D
2025-03-19 17:57:43.542,707, 708, 460, -17, 9, 33, -4, 3, 15, 981, 946, 27,D
2025-03-19 17:57:43.555,339, 895, 216, -40, 22, 38, -4, 4, 13, 982, 946, 22,D
2025-03-19 17:57:43.560,306, 658, 415, -20, 18, 34, -4, 3, 15, 983, 948, 22,D
2025-03-19 17:57:43.572,698, 666, 417, -19, 24, 41, -5, 3, 14, 983, 946, 28,D
2025-03-19 17:57:43.580,829, 711, 389, -28, 36, 47, -4, 3, 15, 982, 948, 31,D
2025-03-19 17:57:43.587,984, 634, 266, -25, 38, 44, -5, 4, 12, 982, 945, 44,D
2025-03-19 17:57:43.590,845, 373, 346, -11, 36, 36, -5, 3, 14, 982, 941, 42,D
2025-03-19 17:57:43.605,950, 529, 302, -8, 37, 34, -4, 6, 13, 981, 933, 28,D
2025-03-19 17:57:43.617,715, 361, 295, -7, 31, 30, -4, 5, 13, 979, 925, 30,D
2025-03-19 17:57:43.625,839, 260, 340, 3, 30, 13, -4, 5, 13, 976, 914, 26,D
2025-03-19 17:57:43.637,843, 287, 299, 29, 27, 7, -4, 5, 12, 974, 900, 35,D
2025-03-19 17:57:43.642,790, 424, 345, 35, 30, 2, -3, 4, 13, 969, 885, 31,D
2025-03-19 17:57:43.652,772, 237, 568, 49, 23, -16, -4, 5, 12, 964, 862, 36,D
2025-03-19 17:57:43.662,1023, 107, 590, 51, 15, -41, -4, 5, 11, 961, 851, 38,D
2025-03-19 17:57:43.671,1070, 280, 443, 28, 21, -58, -4, 5, 12, 958, 850, 137,D
2025-03-19 17:57:43.671,960, 513, 377, 9, 29, -61, -3, 3, 12, 957, 848, 174,D
2025-03-19 17:57:43.687,782, 668, 267, -9, 38, -52, -4, 4, 11, 956, 847, 185,D
2025-03-19 17:57:43.693,672, 636, 330, -22, 42, -41, -5, 2, 11, 955, 846, 184,D
2025-03-19 17:57:43.705,627, 548, 489, -24, 39, -37, -3, 3, 10, 955, 847, 194,D
2025-03-19 17:57:43.716,619, 525, 639, -21, 31, -38, -3, 3, 10, 953, 846, 217,D
2025-03-19 17:57:43.724,581, 555, 707, -19, 18, -36, -4, 3, 9, 952, 850, 248,D
2025-03-19 17:57:43.732,502, 607, 736, -13, 7, -31, -2, 2, 7, 951, 850, 271,D
2025-03-19 17:57:43.990,731, 555, 433, -12, -7, 0, -4, 4, 10, 949, 825, 30,E
2025-03-19 17:57:44.000,709, 541, 435, -12, -7, -2, -3, 1, 11, 949, 827, 16,E
2025-03-19 17:57:44.010,697, 531, 457, -10, -8, -3, -4, 4, 10, 948, 833, 20,E
2025-03-19 17:57:44.023,693, 547, 484, -12, -11, -3, -3, 2, 12, 948, 836, 23,E
2025-03-19 17:57:44.030,692, 554, 504, -15, -14, -2, -4, 4, 9, 949, 847, 24,E
2025-03-19 17:57:44.039,685, 562, 517, -20, -18, 0, -3, 2, 12, 950, 855, 15,E
2025-03-19 17:57:44.047,669, 554, 537, -21, -21, 2, -5, 3, 10, 952, 866, 34,E
2025-03-19 17:57:44.056,640, 544, 564, -21, -28, 4, -5, 3, 10, 951, 872, 37,E
2025-03-19 17:57:44.064,628, 522, 591, -16, -36, 7, -4, 3, 12, 952, 887, 44,E
2025-03-19 17:57:44.073,629, 520, 572, -11, -42, 9, -5, 5, 10, 954, 892, 35,E
2025-03-19 17:57:44.084,650, 505, 535, -7, -45, 11, -5, 2, 14, 955, 902, 41,E
2025-03-19 17:57:44.093,1098, 263, 268, -27, -15, -5, -5, 4, 11, 960, 909, 27,E
2025-03-19 17:57:44.102,754, 516, 553, -13, -10, -6, -4, 3, 13, 962, 912, 35,E
2025-03-19 17:57:44.109,727, 484, 465, -25, -14, -5, -5, 5, 11, 967, 918, 24,E
2025-03-19 17:57:44.118,770, 300, 358, -3, -9, -12, -3, 5, 13, 969, 920, 29,E
2025-03-19 17:57:44.125,751, 414, 467, 19, -4, -12, -4, 3, 13, 972, 922, 23,E
2025-03-19 17:57:44.135,780, 701, 472, 17, 6, 5, -5, 3, 14, 973, 922, 11,E
2025-03-19 17:57:44.142,914, 594, 480, -12, 18, 18, -5, 3, 14, 976, 924, 18,E
2025-03-19 17:57:44.154,706, 632, 508, 4, 28, 31, -5, 4, 12, 978, 925, 41,E
2025-03-19 17:57:44.160,323, 574, 541, 13, 28, 32, -4, 4, 14, 980, 925, 41,E
2025-03-19 17:57:44.171,679, 707, 402, 20, 32, 40, -5, 4, 11, 979, 923, 51,E
2025-03-19 17:57:44.178,661, 541, 648, -33, 33, 49, -4, 4, 13, 981, 921, 45,E
2025-03-19 17:57:44.188,1237, 386, 278, 14, 28, 34, -4, 5, 10, 980, 921, 38,E
2025-03-19 17:57:44.199,684, 659, 341, -3, 26, 31, -5, 5, 14, 981, 916, 36,E
2025-03-19 17:57:44.207,670, 708, 206, -20, 23, 28, -4, 4, 14, 981, 915, 27,E
2025-03-19 17:57:44.216,737, 469, 20, 3, 26, 28, -3, 5, 13, 982, 912, 12,E
2025-03-19 17:57:44.224,693, 510, 315, -11, 24, 24, -2, 4, 13, 979, 910, 19,E
2025-03-19 17:57:44.232,710, 396, 319, -1, 22, 12, -2, 4, 13, 977, 905, 12,E
2025-03-19 17:57:44.240,806, 576, 383, -8, 17, 7, -3, 5, 11, 973, 902, 18,E
2025-03-19 17:57:44.252,684, 279, 740, -8, -16, -18, -4, 5, 12, 971, 892, 28,E
2025-03-19 17:57:44.261,637, -92, 740, 36, -40, -58, -2, 6, 11, 967, 888, 17,E
2025-03-19 17:57:44.269,709, -83, 612, 50, -52, -88, -3, 5, 12, 964, 893, 48,E
2025-03-19 17:57:44.274,742, 401, 626, 47, -54, -88, -4, 5, 13, 962, 896, 46,E
2025-03-19 17:57:44.285,635, 928, 525, 23, -52, -59, -4, 2, 10, 963, 906, 44,E
2025-03-19 17:57:44.292,591, 966, 500, -18, -47, -27, -4, 2, 12, 966, 920, 43,E
2025-03-19 17:57:44.305,884, 576, 308, -57, -24, -13, -5, 3, 12, 968, 933, 23,E
2025-03-19 17:57:44.310,732, 514, 701, -44, -13, -7, -5, 4, 14, 972, 941, 25,E
2025-03-19 17:57:44.322,717, 415, 688, -47, -22, -7, -5, 4, 14, 975, 949, 31,E
2025-03-19 17:57:44.330,827, 242, 501, -17, -24, -15, -5, 4, 13, 978, 952, 31,E
2025-03-19 17:57:44.338,895, 537, 500, 7, -27, -9, -5, 5, 12, 978, 953, 42,E
2025-03-19 17:57:44.344,941, 788, 450, -3, -27, 4, -5, 2, 15, 982, 957, 26,E
2025-03-19 17:57:44.354,775, 666, 157, 8, -16, 15, -4, 4, 14, 981, 958, 14,E
2025-03-19 17:57:44.367,685, 628, 223, 8, -6, 18, -6, 3, 15, 983, 958, 24,E
2025-03-19 17:57:44.375,770, 602, 311, 1, 1, 21, -5, 4, 12, 984, 955, 27,E
2025-03-19 17:57:44.383,826, 640, 364, 8, 5, 27, -3, 3, 14, 982, 956, 29,E
2025-03-19 17:57:44.392,610, 656, 409, -7, 8, 26, -6, 4, 14, 981, 954, 30,E
2025-03-19 17:57:44.400,782, 515, 361, 10, 11, 25, -4, 3, 14, 980, 951, 18,E
2025-03-19 17:57:44.408,622, 513, 528, 20, 12, 20, -4, 3, 14, 982, 944, 31,E
2025-03-19 17:57:44.417,664, 395, 636, 33, 5, 11, -6, 4, 13, 980, 939, 119,E
2025-03-19 17:57:44.424,652, 438, 534, 42, 4, 8, -4, 3, 15, 977, 935, 184,E
2025-03-19 17:57:44.437,651, 546, 489, 37, 8, 6, -4, 4, 13, 975, 929, 219,E
2025-03-19 17:57:44.442,595, 527, 390, 37, 18, 5, -5, 3, 15, 974, 922, 241,E
2025-03-19 17:57:44.453,661, 383, 412, 32, 26, -3, -5, 5, 14, 972, 917, 213,E
2025-03-19 17:57:44.460,710, 329, 454, 29, 27, -14, -5, 2, 14, 970, 910, 159,E
2025-03-19 17:57:44.470,654, 456, 514, 17, 22, -19, -4, 3, 13, 971, 898, 146,E
2025-03-19 17:57:44.474,557, 539, 487, 7, 14, -20, -4, 2, 13, 971, 891, 82,E
2025-03-19 17:57:44.485,601, 572, 471, 2, 5, -13, -6, 4, 12, 972, 885, 8,E
2025-03-19 17:57:44.495,846, 581, 502, 0, 1, -12, -6, 4, 12, 973, 890, 18,E
2025-03-19 17:57:44.506,888, 500, 395, -15, 2, -12, -4, 3, 13, 973, 900, 49,E
2025-03-19 17:57:44.513,945, 689, 514, -19, -2, -1, -4, 4, 14, 976, 911, 40,E
2025-03-19 17:57:44.523,836, 514, 332, -27, -4, 2, -3, 1, 13, 977, 925, 36,E
2025-03-19 17:57:44.531,788, 564, 302, -14, 3, 3, -5, 4, 12, 979, 938, 46,E
2025-03-19 17:57:44.539,819, 667, 495, -15, -1, 10, -3, 2, 15, 980, 945, 29,E
2025-03-19 17:57:44.551,800, 839, 353, -36, 2, 22, -6, 5, 12, 981, 950, 26,E
2025-03-19 17:57:44.558,714, 585, 453, -29, 1, 24, -5, 2, 13, 985, 953, 36,E
2025-03-19 17:57:44.568,675, 478, 415, -13, -1, 19, -4, 4, 13, 984, 956, 10,E
2025-03-19 17:57:44.574,781, 611, 411, -9, -1, 24, -4, 4, 13, 984, 953, 5,E
2025-03-19 17:57:44.584,587, 492, 332, -10, 3, 19, -4, 3, 15, 984, 953, 23,E
2025-03-19 17:57:44.590,750, 345, 414, 17, 7, 13, -5, 6, 12, 982, 951, 21,E
2025-03-19 17:57:44.602,675, 557, 505, 21, 5, 13, -4, 4, 15, 983, 946, 32,E
2025-03-19 17:57:44.610,746, 500, 452, 32, 5, 13, -5, 4, 12, 979, 943, 41,E
2025-03-19 17:57:44.621,686, 549, 464, 36, 9, 13, -4, 4, 14, 977, 933, 48,E
2025-03-19 17:57:44.627,667, 432, 480, 43, 11, 7, -4, 5, 12, 976, 923, 57,E
2025-03-19 17:57:44.636,714, 466, 393, 52, 19, 3, -4, 3, 13, 974, 907, 37,E
2025-03-19 17:57:44.644,779, 353, 338, 41, 33, -16, -4, 5, 12, 970, 890, 12,E
2025-03-19 17:57:44.654,746, 283, 338, 40, 42, -36, -5, 3, 12, 970, 876, 28,E
2025-03-19 17:57:44.666,583, 448, 448, 22, 41, -41, -5, 3, 12, 969, 859, 21,E
2025-03-19 17:57:44.674,403, 650, 536, 8, 30, -32, -4, 4, 11, 966, 829, 24,E
2025-03-19 17:57:44.682,445, 681, 607, 9, 14, -18, -4, 3, 12, 966, 785, 18,E
2025-03-19 17:57:44.690,553, 706, 728, 13, -5, 2, -5, 3, 11, 968, 775, 18,E
2025-03-19 17:57:44.699,688, 724, 814, 11, -29, 28, -3, 3, 11, 968, 813, 34,E
2025-03-19 17:57:44.707,799, 641, 724, -1, -26, 4, -4, 4, 11, 973, 865, 19,E
2025-03-19 17:57:44.716,1017, 76, 178, -5, -12, -11, -4, 3, 13, 976, 897, 44,E
2025-03-19 17:57:44.723,798, 1046, 483, -13, -17, 5, -4, 3, 11, 977, 922, 45,E
2025-03-19 17:57:44.736,913, 500, 2, -50, -8, 14, -3, 3, 13, 976, 932, 25,E
2025-03-19 17:57:44.740,979, 645, 261, -16, 2, 19, -5, 3, 13, 980, 939, 22,E
2025-03-19 17:57:44.752,835, 580, 365, -17, 6, 24, -5, 3, 13, 981, 944, 29,E
2025-03-19 17:57:44.760,897, 738, 290, -33, 10, 35, -5, 3, 12, 983, 948, 29,E
2025-03-19 17:57:44.769,568, 296, 505, -14, 9, 23, -7, 5, 12, 983, 946, 39,E
2025-03-19 17:57:44.774,866, 521, 405, 10, 11, 27, -2, 3, 11, 982, 945, 30,E
2025-03-19 17:57:44.788,794, 699, 526, -10, 10, 38, -2, 5, 12, 982, 943, 17,E
2025-03-19 17:57:44.791,725, 353, 459, 5, 10, 30, -4, 5, 11, 980, 936, 23,E
2025-03-19 17:57:44.804,666, 434, 501, 16, 10, 21, -3, 4, 10, 978, 931, 30,E
2025-03-19 17:57:44.812,684, 439, 525, 20, 9, 10, -5, 5, 11, 976, 921, 33,E
2025-03-19 17:57:44.823,858, 235, 382, 25, 18, -16, -4, 4, 11, 973, 912, 25,E
2025-03-19 17:57:44.830,896, 261, 232, 31, 35, -43, -4, 5, 10, 967, 901, 24,E
2025-03-19 17:57:44.840,826, 382, 205, 27, 45, -58, -4, 5, 10, 967, 888, 18,E
2025-03-19 17:57:44.850,769, 500, 266, 10, 53, -59, -3, 5, 11, 964, 876, 140,E
2025-03-19 17:57:44.857,639, 584, 335, -11, 55, -56, -4, 3, 11, 962, 860, 153,E
2025-03-19 17:57:44.867,625, 552, 424, -20, 56, -53, -2, 3, 10, 961, 839, 134,E
2025-03-19 17:57:44.875,646, 556, 551, -16, 54, -49, -4, 5, 11, 959, 820, 133,E
2025-03-19 17:57:44.884,590, 625, 696, -15, 46, -45, -2, 2, 9, 957, 805, 108,E
2025-03-19 17:57:44.890,523, 649, 819, -9, 28, -36, -4, 4, 8, 954, 777, 116,E
2025-03-19 17:57:44.904,534, 641, 815, -5, 9, -24, -2, 3, 8, 952, 760, 127,E
2025-03-19 17:57:44.910,518, 619, 733, -1, -6, -16, -3, 4, 7, 951, 742, 121,E
2025-03-19 17:57:44.920,543, 606, 693, 1, -16, -11, -2, 2, 9, 951, 738, 131,E
2025-03-19 17:57:44.926,595, 592, 569, -2, -20, -8, -2, 2, 9, 949, 732, 134,E
2025-03-19 17:57:44.937,633, 585, 498, 1, -22, -4, -3, 4, 8, 948, 730, 144,E
2025-03-19 17:57:44.944,670, 570, 476, 7, -22, -2, -2, 2, 10, 949, 727, 149,E
2025-03-19 17:57:44.952,729, 558, 472, 9, -20, -2, -3, 4, 9, 946, 721, 171,E
2025-03-19 17:57:44.964,782, 556, 439, 7, -19, -3, -2, 1, 10, 945, 721, 174,E
2025-03-19 17:57:44.973,793, 548, 404, 4, -17, -6, -3, 5, 8, 943, 717, 182,E
2025-03-19 17:57:44.980,804, 531, 381, 3, -14, -8, -3, 1, 9, 943, 707, 183,E
2025-03-19 17:57:44.989,786, 517, 386, 5, -8, -8, -2, 1, 10, 943, 701, 187,E
2025-03-19 17:57:44.997,756, 530, 397, -4, -1, -8, -3, 1, 9, 943, 698, 172,E
2025-03-19 17:57:45.310,639, 520, 550, -9, -41, 2, -5, 4, 13, 958, 896, 143,F
2025-03-19 17:57:45.321,1249, 413, 283, -40, -19, -9, -5, 4, 13, 959, 905, 113,F
2025-03-19 17:57:45.330,797, 465, 475, -12, -10, -9, -4, 3, 13, 961, 909, 10,F
2025-03-19 17:57:45.337,765, 546, 555, -24, -15, -4, -5, 2, 11, 964, 913, 25,F
2025-03-19 17:57:45.345,767, 340, 419, -18, -12, -10, -5, 2, 12, 968, 916, 25,F
2025-03-19 17:57:45.354,729, 323, 451, 6, -9, -16, -4, 3, 14, 969, 914, 18,F
2025-03-19 17:57:45.366,687, 467, 528, 18, -6, -14, -4, 3, 14, 971, 915, 51,F
2025-03-19 17:57:45.374,788, 494, 503, 29, -3, -7, -4, 2, 14, 974, 913, 44,F
2025-03-19 17:57:45.383,672, 748, 384, 41, 12, 14, -5, 3, 14, 976, 910, 34,F
2025-03-19 17:57:45.390,726, 679, 418, 12, 26, 22, -5, 5, 13, 977, 910, 39,F
2025-03-19 17:57:45.400,746, 779, 468, 12, 31, 33, -4, 3, 13, 979, 904, 19,F
2025-03-19 17:57:45.407,434, 773, 466, 15, 36, 47, -4, 3, 13, 980, 900, 30,F
2025-03-19 17:57:45.420,470, 937, 429, -24, 33, 50, -4, 3, 13, 978, 900, 10,F
2025-03-19 17:57:45.424,1105, 334, 415, -13, 22, 31, -2, 3, 13, 979, 898, 40,F
2025-03-19 17:57:45.436,497, 573, 166, -2, 28, 26, -4, 5, 13, 980, 895, 27,F
2025-03-19 17:57:45.441,629, 673, 217, -5, 20, 23, -4, 2, 13, 979, 897, 28,F
2025-03-19 17:57:45.454,743, 577, 179, -14, 24, 22, -4, 6, 11, 977, 895, 20,F
2025-03-19 17:57:45.461,756, 512, 266, -10, 22, 17, -3, 3, 14, 975, 893, 22,F
2025-03-19 17:57:45.473,752, 527, 303, -8, 22, 12, -3, 4, 11, 973, 894, 22,F
2025-03-19 17:57:45.481,790, 645, 413, -16, 15, 10, -3, 4, 14, 970, 892, 18,F
2025-03-19 17:57:45.490,700, 363, 659, -12, -14, -15, -3, 5, 11, 965, 886, 23,F
2025-03-19 17:57:45.497,585, -38, 674, 11, -31, -53, -4, 3, 11, 960, 879, 29,F
2025-03-19 17:57:45.506,812, -58, 591, 31, -51, -87, -4, 3, 11, 956, 876, 31,F
2025-03-19 17:57:45.513,723, 326, 626, 44, -58, -95, -4, 5, 12, 956, 878, 35,F
2025-03-19 17:57:45.522,680, 791, 487, 25, -58, -70, -4, 2, 14, 956, 888, 48,F
2025-03-19 17:57:45.534,613, 967, 486, -2, -51, -44, -5, 3, 14, 956, 901, 37,F
2025-03-19 17:57:45.542,619, 877, 282, -54, -33, -19, -3, 0, 14, 961, 921, 24,F
2025-03-19 17:57:45.550,781, 574, 565, -43, -13, -6, -5, 3, 13, 967, 930, 38,F
2025-03-19 17:57:45.559,732, 441, 821, -42, -21, -4, -2, 1, 14, 972, 937, 24,F
2025-03-19 17:57:45.568,829, 191, 646, -14, -31, -14, -4, 3, 12, 975, 947, 22,F
2025-03-19 17:57:45.574,933, 420, 503, 28, -35, -10, -4, 2, 15, 978, 949, 14,F
2025-03-19 17:57:45.587,774, 936, 361, 11, -32, 7, -6, 2, 12, 980, 953, 12,F
2025-03-19 17:57:45.592,812, 886, 110, 1, -21, 28, -6, 2, 12, 982, 953, 18,F
2025-03-19 17:57:45.602,800, 625, -26, 2, -4, 29, -6, 3, 15, 982, 955, 28,F
2025-03-19 17:57:45.610,754, 721, 192, 6, 12, 38, -6, 4, 14, 982, 953, 42,F
2025-03-19 17:57:45.620,695, 659, 168, -2, 19, 36, -6, 3, 16, 982, 950, 39,F
2025-03-19 17:57:45.629,772, 650, 361, 4, 23, 40, -7, 4, 14, 981, 948, 42,F
2025-03-19 17:57:45.635,593, 614, 419, 5, 28, 36, -4, 2, 15, 980, 945, 46,F
2025-03-19 17:57:45.649,699, 474, 649, 14, 22, 31, -5, 4, 13, 980, 938, 31,F
2025-03-19 17:57:45.657,561, 277, 658, 44, 12, 13, -4, 3, 15, 976, 928, 18,F
2025-03-19 17:57:45.665,612, 449, 600, 53, 12, 6, -6, 4, 14, 976, 917, 23,F
2025-03-19 17:57:45.674,561, 572, 464, 45, 19, 3, -6, 4, 14, 972, 907, 107,F
2025-03-19 17:57:45.682,625, 399, 420, 45, 28, -9, -4, 2, 14, 972, 890, 139,F
2025-03-19 17:57:45.690,618, 342, 403, 49, 32, -23, -6, 4, 13, 970, 880, 132,F
2025-03-19 17:57:45.702,610, 428, 472, 40, 27, -25, -5, 2, 14, 970, 868, 31,F
2025-03-19 17:57:45.710,530, 587, 514, 32, 15, -18, -5, 3, 14, 968, 846, 17,F
2025-03-19 17:57:45.718,589, 684, 517, 24, 1, -6, -5, 1, 14, 969, 845, 34,F
2025-03-19 17:57:45.728,1074, 342, 269, -20, 5, -14, -5, 3, 13, 971, 871, 44,F
2025-03-19 17:57:45.736,924, 613, 423, -6, 0, -10, -4, 2, 14, 974, 891, 27,F
2025-03-19 17:57:45.743,869, 732, 415, -31, -5, 1, -4, 2, 13, 977, 910, 45,F
2025-03-19 17:57:45.752,854, 396, 230, -41, -2, -2, -5, 2, 14, 979, 928, 22,F
2025-03-19 17:57:45.760,893, 635, 379, -20, 1, 7, -5, 2, 14, 981, 939, 13,F
2025-03-19 17:57:45.772,655, 1141, 293, -74, 3, 30, -5, 2, 13, 982, 947, 18,F
2025-03-19 17:57:45.780,627, 410, 358, -45, 2, 26, -4, 4, 14, 983, 951, 44,F
2025-03-19 17:57:45.787,698, 656, 305, -33, 8, 30, -4, 4, 12, 984, 954, 25,F
2025-03-19 17:57:45.795,858, 504, 495, -23, 4, 29, -4, 3, 14, 984, 954, 21,F
2025-03-19 17:57:45.804,718, 331, 374, 13, 0, 20, -4, 3, 14, 982, 953, 23,F
2025-03-19 17:57:45.812,755, 525, 382, 12, 3, 14, -5, 4, 14, 981, 946, 28,F
2025-03-19 17:57:45.825,770, 463, 427, 28, 3, 10, -5, 4, 13, 978, 938, 26,F
2025-03-19 17:57:45.833,765, 558, 485, 31, 1, 2, -6, 4, 13, 977, 931, 44,F
2025-03-19 17:57:45.841,939, 198, 175, 25, 15, -28, -5, 4, 14, 972, 923, 20,F
2025-03-19 17:57:45.850,1027, 231, 41, 23, 46, -55, -5, 4, 14, 971, 913, 207,F
2025-03-19 17:57:45.858,902, 512, 75, 4, 71, -61, -5, 3, 12, 967, 904, 243,F
2025-03-19 17:57:45.866,719, 645, 247, -21, 80, -56, -5, 4, 12, 965, 894, 260,F
2025-03-19 17:57:45.877,556, 613, 444, -35, 76, -46, -5, 4, 11, 966, 880, 224,F
2025-03-19 17:57:45.887,497, 555, 594, -32, 68, -42, -4, 3, 10, 965, 867, 136,F
2025-03-19 17:57:46.185,644, 541, 504, -10, -29, 12, -6, 5, 12, 965, 894, 76,G
2025-03-19 17:57:46.190,678, 519, 519, -10, -23, 0, -5, 1, 14, 967, 898, 16,G
2025-03-19 17:57:46.205,834, 381, 300, -22, -8, -7, -5, 3, 12, 968, 905, 32,G
2025-03-19 17:57:46.213,686, 653, 508, -24, -9, -5, -4, 4, 13, 967, 912, 41,G
2025-03-19 17:57:46.222,757, 576, 331, -38, -10, -3, -5, 3, 13, 970, 917, 21,G
2025-03-19 17:57:46.230,789, 504, 286, -34, -1, -3, -4, 2, 14, 970, 921, 27,G
2025-03-19 17:57:46.240,692, 508, 468, -23, 3, -4, -4, 2, 14, 972, 924, 18,G
2025-03-19 17:57:46.252,754, 505, 514, -26, 0, -6, -5, 3, 12, 971, 928, 30,G
2025-03-19 17:57:46.258,651, 414, 581, -14, -5, -11, -5, 1, 13, 974, 928, 30,G
2025-03-19 17:57:46.268,740, 504, 575, -13, -7, -11, -6, 3, 13, 973, 926, 20,G
2025-03-19 17:57:46.270,721, 444, 554, -4, -5, -11, -4, 3, 13, 974, 925, 18,G
2025-03-19 17:57:46.285,732, 326, 583, 16, 2, -15, -4, 4, 14, 977, 923, 20,G
2025-03-19 17:57:46.293,680, 436, 481, 25, 6, -15, -6, 2, 14, 978, 916, 31,G
2025-03-19 17:57:46.304,673, 424, 453, 48, 12, -8, -3, 3, 15, 977, 915, 12,G
2025-03-19 17:57:46.312,794, 669, 374, 47, 25, 0, -4, 4, 16, 979, 912, 29,G
2025-03-19 17:57:46.321,1162, 459, 543, 29, 23, 8, -4, 4, 16, 980, 907, 30,G
2025-03-19 17:57:46.329,1122, 656, 211, 41, 24, 16, -5, 2, 12, 979, 913, 23,G
2025-03-19 17:57:46.337,1020, 1027, 11, -2, 43, 32, -4, 1, 14, 979, 917, 35,G
2025-03-19 17:57:46.343,768, 692, 87, -1, 44, 40, -7, 3, 15, 979, 925, 37,G
2025-03-19 17:57:46.353,821, 780, 299, -25, 39, 49, -4, 5, 14, 980, 932, 35,G
2025-03-19 17:57:46.366,867, 400, 503, -15, 23, 31, -4, 3, 13, 981, 934, 28,G
2025-03-19 17:57:46.373,808, 560, 367, 8, 16, 38, -4, 5, 13, 982, 938, 40,G
2025-03-19 17:57:46.383,780, 885, 260, -44, 17, 44, -4, 3, 13, 982, 940, 29,G
2025-03-19 17:57:46.390,695, 419, 270, -26, 22, 39, -4, 4, 13, 982, 942, 23,G
2025-03-19 17:57:46.398,559, 481, 561, -31, 13, 29, -5, 4, 12, 980, 946, 11,G
2025-03-19 17:57:46.407,717, 374, 676, -20, -1, 18, -5, 4, 12, 981, 944, 13,G
2025-03-19 17:57:46.419,527, 415, 718, -30, -19, 2, -3, 5, 11, 977, 945, 9,G
2025-03-19 17:57:46.426,509, 315, 588, -4, -28, -16, -4, 5, 10, 976, 945, 36,G
2025-03-19 17:57:46.436,509, 372, 628, -4, -36, -28, -4, 6, 12, 972, 943, 38,G
2025-03-19 17:57:46.442,501, 280, 512, 2, -33, -37, -3, 3, 12, 971, 942, 29,G
2025-03-19 17:57:46.452,686, 432, 632, 9, -27, -33, -4, 5, 12, 973, 941, 40,G
2025-03-19 17:57:46.460,687, 499, 591, 4, -21, -26, -5, 5, 13, 971, 944, 41,G
2025-03-19 17:57:46.469,753, 497, 510, 3, -15, -21, -5, 6, 12, 974, 944, 31,G
2025-03-19 17:57:46.480,685, 499, 609, 4, -14, -18, -5, 4, 14, 979, 942, 32,G
2025-03-19 17:57:46.487,726, 386, 536, 16, -13, -19, -4, 6, 13, 979, 943, 23,G
2025-03-19 17:57:46.496,780, 604, 437, 23, -5, -8, -4, 6, 13, 979, 942, 10,G
2025-03-19 17:57:46.503,768, 886, 348, 3, 10, 14, -5, 4, 14, 980, 940, 19,G
2025-03-19 17:57:46.512,961, 701, 268, -10, 21, 23, -6, 3, 14, 980, 940, 25,G
2025-03-19 17:57:46.521,790, 538, 321, 3, 25, 25, -4, 3, 13, 981, 940, 15,G
2025-03-19 17:57:46.533,850, 638, 361, -14, 24, 30, -4, 4, 13, 983, 939, 20,G
2025-03-19 17:57:46.540,726, 673, 210, -22, 26, 32, -4, 3, 13, 981, 934, 34,G
2025-03-19 17:57:46.550,765, 459, 333, -25, 23, 22, -5, 4, 12, 980, 928, 33,G
2025-03-19 17:57:46.558,770, 336, 413, 9, 16, 8, -4, 5, 12, 978, 922, 32,G
2025-03-19 17:57:46.567,786, 640, 431, 1, 15, 9, -5, 7, 12, 978, 913, 30,G
2025-03-19 17:57:46.574,784, 403, 645, -9, 3, -5, -3, 5, 15, 976, 906, 15,G
2025-03-19 17:57:46.583,669, 240, 530, 7, -9, -23, -3, 5, 15, 975, 899, 18,G
2025-03-19 17:57:46.592,629, 122, 549, 35, -12, -46, -6, 5, 12, 970, 895, 32,G
2025-03-19 17:57:46.604,513, 281, 623, 48, -16, -57, -3, 3, 14, 968, 889, 18,G
2025-03-19 17:57:46.610,491, 563, 616, 36, -19, -48, -5, 4, 12, 967, 890, 22,G
2025-03-19 17:57:46.620,488, 776, 640, 5, -26, -25, -3, 4, 14, 969, 901, 29,G
2025-03-19 17:57:46.628,1167, 584, 322, -36, -8, -19, -5, 5, 12, 972, 916, 17,G
2025-03-19 17:57:46.635,1078, 536, 603, -20, -10, -8, -2, 3, 13, 973, 926, 24,G
2025-03-19 17:57:46.644,886, 590, 563, -50, -18, -4, -4, 5, 12, 975, 937, 22,G
2025-03-19 17:57:46.651,850, 265, 260, -26, -12, -8, -4, 3, 14, 979, 946, 26,G
2025-03-19 17:57:46.665,803, 520, 395, 7, -9, -5, -3, 5, 11, 980, 949, 28,G
2025-03-19 17:57:46.672,900, 833, 322, 9, -6, 18, -3, 5, 11, 981, 950, 28,G
2025-03-19 17:57:46.682,739, 922, 250, -28, -1, 40, -3, 1, 16, 981, 954, 32,G
2025-03-19 17:57:46.689,731, 657, 212, -16, 10, 49, -5, 6, 12, 983, 953, 33,G
2025-03-19 17:57:46.698,766, 399, 256, 0, 14, 46, -3, 2, 13, 982, 951, 40,G
2025-03-19 17:57:46.706,520, 436, 450, -1, 16, 36, -5, 5, 12, 981, 946, 38,G
2025-03-19 17:57:46.718,805, 367, 499, 7, 10, 18, -5, 4, 12, 980, 942, 25,G
2025-03-19 17:57:46.726,708, 528, 573, 20, 2, 15, -5, 7, 13, 977, 933, 28,G
2025-03-19 17:57:46.735,835, 338, 417, 14, 12, -6, -4, 4, 13, 976, 927, 29,G
2025-03-19 17:57:46.740,920, 155, 201, 15, 36, -39, -5, 5, 12, 975, 920, 15,G
2025-03-19 17:57:46.752,825, 356, 272, 16, 54, -56, -4, 6, 12, 971, 904, 16,G
2025-03-19 17:57:46.757,678, 552, 297, 19, 59, -58, -4, 6, 12, 962, 879, 16,G
2025-03-19 17:57:46.770,620, 561, 357, 12, 56, -52, -3, 5, 9, 955, 855, 114,G
2025-03-19 17:57:46.774,585, 518, 456, -12, 54, -47, -4, 3, 12, 955, 841, 41,G
2025-03-19 17:57:47.070,640, 560, 502, -19, -22, -7, -5, 4, 10, 947, 820, 17,H
2025-03-19 17:57:47.075,692, 556, 526, -12, -27, -1, -2, 1, 13, 948, 830, 26,H
2025-03-19 17:57:47.085,655, 568, 558, -7, -32, 5, -5, 5, 11, 951, 846, 37,H
2025-03-19 17:57:47.094,634, 579, 584, -6, -39, 11, -5, 2, 13, 952, 862, 13,H
2025-03-19 17:57:47.102,677, 530, 560, -7, -41, 15, -6, 5, 12, 953, 881, 15,H
2025-03-19 17:57:47.115,965, 199, 221, -39, -13, -5, -6, 5, 12, 956, 891, 17,H
2025-03-19 17:57:47.123,760, 536, 521, 1, -12, -6, -4, 2, 13, 960, 896, 38,H
2025-03-19 17:57:47.132,717, 542, 427, -15, -14, -3, -4, 4, 13, 964, 901, 42,H
2025-03-19 17:57:47.140,728, 443, 254, -6, -3, -1, -4, 3, 14, 967, 904, 44,H
2025-03-19 17:57:47.148,856, 438, 633, 3, -2, -5, -4, 3, 13, 970, 903, 36,H
2025-03-19 17:57:47.156,750, 504, 473, 13, 0, -1, -5, 3, 14, 973, 904, 34,H
2025-03-19 17:57:47.166,746, 563, 504, 19, 11, 9, -5, 5, 14, 974, 899, 35,H
2025-03-19 17:57:47.170,982, 700, 478, 4, 33, 28, -5, 4, 16, 978, 900, 46,H
2025-03-19 17:57:47.186,885, 588, 487, 11, 34, 37, -7, 2, 13, 978, 897, 12,H
2025-03-19 17:57:47.192,886, 729, 450, -10, 38, 39, -7, 2, 13, 979, 891, 6,H
2025-03-19 17:57:47.201,605, 638, 292, -11, 37, 46, -4, 2, 14, 978, 890, 7,H
2025-03-19 17:57:47.210,668, 612, 312, -6, 31, 36, -4, 4, 13, 978, 884, 21,H
2025-03-19 17:57:47.218,1079, 479, 347, -7, 27, 30, -4, 3, 14, 978, 882, 34,H
2025-03-19 17:57:47.227,863, 488, 383, -18, 21, 20, -5, 6, 13, 977, 875, 34,H
2025-03-19 17:57:47.238,822, 581, 273, -2, 16, 14, -4, 3, 14, 977, 872, 32,H
2025-03-19 17:57:47.241,772, 520, 287, -3, 13, 9, -3, 5, 13, 974, 864, 30,H
2025-03-19 17:57:47.253,781, 607, 293, -6, 19, 11, -5, 4, 13, 972, 865, 28,H
2025-03-19 17:57:47.262,751, 612, 460, -11, 19, 12, -3, 4, 12, 969, 856, 49,H
2025-03-19 17:57:47.270,701, 481, 606, -13, 7, 2, -3, 5, 15, 963, 845, 20,H
2025-03-19 17:57:47.278,725, 231, 611, 1, -8, -20, -3, 5, 15, 961, 837, 17,H
2025-03-19 17:57:47.287,556, 58, 710, 37, -26, -46, -4, 5, 12, 957, 840, 24,H
2025-03-19 17:57:47.299,1001, 286, 645, 38, -27, -56, -4, 5, 13, 958, 852, 21,H
2025-03-19 17:57:47.306,625, 589, 670, 23, -29, -49, -4, 5, 12, 959, 873, 32,H
2025-03-19 17:57:47.316,958, 827, 418, -5, -23, -25, -2, 3, 14, 960, 891, 13,H
2025-03-19 17:57:47.322,745, 823, 375, -28, -12, -6, -5, 3, 11, 966, 908, 25,H
2025-03-19 17:57:47.332,809, 391, 427, -23, -9, -3, -2, 3, 14, 967, 921, 28,H
2025-03-19 17:57:47.341,869, 292, 537, 4, -15, -7, -5, 3, 13, 971, 931, 24,H
2025-03-19 17:57:47.351,773, 471, 476, 9, -17, -10, -4, 2, 14, 975, 939, 28,H
2025-03-19 17:57:47.360,925, 684, 387, 21, -18, 4, -5, 4, 13, 978, 942, 16,H
2025-03-19 17:57:47.368,1038, 1195, 214, -4, -15, 28, -5, 4, 13, 980, 945, 19,H
2025-03-19 17:57:47.374,573, 646, 190, -3, -2, 43, -4, 2, 14, 979, 946, 24,H
2025-03-19 17:57:47.382,584, 625, 392, -12, 12, 43, -5, 5, 13, 981, 943, 33,H
2025-03-19 17:57:47.393,703, 481, 430, 1, 11, 41, -4, 4, 14, 980, 944, 29,H
2025-03-19 17:57:47.403,739, 644, 433, -19, 8, 38, -4, 4, 13, 980, 941, 24,H
2025-03-19 17:57:47.410,710, 246, 430, 11, 5, 21, -5, 4, 13, 979, 940, 25,H
2025-03-19 17:57:47.422,670, 521, 489, 12, 0, 13, -4, 4, 12, 977, 936, 25,H
2025-03-19 17:57:47.430,695, 476, 507, 12, -8, 1, -4, 4, 13, 976, 929, 23,H
2025-03-19 17:57:47.439,748, 291, 459, 11, -13, -23, -4, 5, 13, 973, 922, 11,H
2025-03-19 17:57:47.442,702, 260, 380, 14, -11, -46, -5, 3, 14, 970, 917, 21,H
2025-03-19 17:57:47.456,621, 375, 453, 16, -11, -56, -5, 3, 14, 967, 913, 98,H
2025-03-19 17:57:47.466,593, 521, 521, 15, -11, -49, -5, 3, 12, 965, 912, 218,H
2025-03-19 17:57:47.473,505, 670, 562, -1, -12, -34, -5, 5, 13, 964, 912, 239,H
2025-03-19 17:57:47.482,492, 667, 644, -5, -19, -14, -5, 2, 12, 966, 915, 225,H
2025-03-19 17:57:47.490,533, 662, 764, 0, -30, 9, -4, 3, 14, 969, 918, 219,H
2025-03-19 17:57:47.500,647, 617, 532, -42, -27, 4, -5, 3, 14, 974, 922, 123,H
2025-03-19 17:57:47.507,966, 68, 604, 8, -15, -11, -5, 3, 13, 976, 925, 32,H
2025-03-19 17:57:47.515,817, 734, 585, -5, -16, -2, -5, 2, 14, 977, 925, 24,H
2025-03-19 17:57:47.525,763, 604, 276, 3, -3, 6, -7, 3, 15, 981, 924, 38,H
2025-03-19 17:57:47.537,936, 792, 164, 16, 18, 25, -5, 3, 15, 981, 926, 9,H
2025-03-19 17:57:47.542,373, 741, 133, -2, 31, 33, -5, 3, 15, 983, 923, 4,H
2025-03-19 17:57:47.552,672, 410, 262, 15, 36, 30, -3, 4, 14, 983, 922, 21,H
2025-03-19 17:57:47.562,845, 938, 121, 14, 47, 51, -5, 4, 14, 979, 920, 39,H
2025-03-19 17:57:47.570,428, 711, 204, 4, 42, 42, -5, 6, 14, 980, 917, 39,H
2025-03-19 17:57:47.577,712, 398, 283, 14, 38, 29, -3, 4, 14, 980, 907, 34,H
2025-03-19 17:57:47.590,812, 561, 371, 18, 30, 28, -4, 5, 13, 978, 896, 35,H
2025-03-19 17:57:47.599,771, 429, 403, 12, 26, 20, -4, 4, 13, 975, 881, 39,H
2025-03-19 17:57:47.607,726, 449, 435, 21, 21, 13, -5, 7, 10, 974, 864, 44,H
2025-03-19 17:57:47.615,778, 473, 402, 27, 18, 6, -3, 4, 13, 968, 841, 11,H
2025-03-19 17:57:47.623,694, 467, 613, 29, 7, -7, -4, 5, 11, 965, 817, 25,H
2025-03-19 17:57:47.633,784, 173, 610, 49, -6, -36, -4, 5, 11, 955, 774, 15,H
2025-03-19 17:57:47.640,914, 197, 416, 46, -6, -59, -3, 4, 12, 940, 746, 199,H
2025-03-19 17:57:47.650,973, 444, 330, 19, 1, -62, -6, 4, 12, 938, 744, 296,H
2025-03-19 17:57:47.660,859, 754, 262, -10, 10, -50, -4, 3, 13, 937, 765, 299,H
2025-03-19 17:57:47.669,743, 752, 281, -40, 18, -37, -5, 4, 12, 936, 778, 260,H
2025-03-19 17:57:47.951,710, 490, 394, -31, -13, -12, -5, 2, 14, 941, 797, 31,I
2025-03-19 17:57:47.965,891, 481, 395, -22, -7, -12, -5, 3, 14, 944, 810, 40,I
2025-03-19 17:57:47.976,778, 613, 533, -28, -9, -9, -5, 2, 14, 948, 838, 23,I
2025-03-19 17:57:47.983,756, 561, 411, -40, -9, -5, -6, 1, 14, 953, 863, 18,I
2025-03-19 17:57:47.991,827, 462, 457, -33, -11, -7, -4, 1, 15, 958, 887, 29,I
2025-03-19 17:57:48.000,818, 441, 467, -20, -10, -7, -4, 3, 14, 964, 903, 33,I
2025-03-19 17:57:48.008,797, 321, 466, -4, -12, -11, -6, 1, 13, 968, 915, 21,I
2025-03-19 17:57:48.017,933, 448, 513, 18, -17, -6, -5, 3, 13, 973, 928, 27,I
2025-03-19 17:57:48.024,1105, 825, 522, 21, -24, 20, -5, 2, 14, 976, 936, 21,I
2025-03-19 17:57:48.036,576, 906, 376, -10, -26, 28, -4, 3, 15, 978, 939, 25,I
2025-03-19 17:57:48.040,806, 669, 326, -2, -24, 38, -4, 3, 15, 978, 942, 27,I
2025-03-19 17:57:48.052,624, 492, 177, -3, -11, 32, -5, 2, 15, 980, 940, 41,I
2025-03-19 17:57:48.060,704, 534, 269, 8, -2, 33, -6, 1, 14, 980, 936, 34,I
2025-03-19 17:57:48.070,548, 481, 440, 2, -2, 25, -7, 4, 14, 979, 933, 28,I
2025-03-19 17:57:48.075,685, 567, 345, 3, 9, 26, -4, 3, 15, 979, 932, 25,I
2025-03-19 17:57:48.085,722, 607, 379, 7, 12, 28, -5, 4, 14, 977, 927, 23,I
2025-03-19 17:57:48.098,706, 358, 466, 22, 10, 16, -4, 2, 15, 977, 919, 29,I
2025-03-19 17:57:48.106,752, 480, 497, 43, 8, 13, -6, 3, 14, 972, 906, 29,I
2025-03-19 17:57:48.115,617, 632, 458, 29, 7, 9, -5, 4, 15, 969, 894, 15,I
2025-03-19 17:57:48.123,688, 439, 438, 38, 7, 0, -5, 4, 15, 962, 883, 136,I
2025-03-19 17:57:48.131,665, 496, 442, 37, 7, -11, -7, 5, 14, 956, 873, 211,I
2025-03-19 17:57:48.139,556, 295, 469, 26, 2, -32, -4, 2, 16, 949, 864, 304,I
2025-03-19 17:57:48.147,664, 300, 390, 23, 2, -50, -4, 1, 14, 946, 862, 321,I
2025-03-19 17:57:48.156,630, 528, 415, 8, 4, -54, -4, 3, 14, 944, 848, 279,I
2025-03-19 17:57:48.168,620, 713, 460, -4, 4, -40, -6, 2, 14, 946, 836, 223,I
2025-03-19 17:57:48.173,709, 813, 504, -14, 0, -22, -5, 1, 14, 950, 834, 161,I
2025-03-19 17:57:48.185,788, 804, 547, -30, -7, 5, -5, 3, 13, 958, 859, 28,I
2025-03-19 17:57:48.190,856, 458, 513, -43, 0, 3, -4, 2, 15, 963, 877, 40,I
2025-03-19 17:57:48.202,869, 417, 677, -32, -8, 1, -5, 3, 11, 971, 892, 13,I
2025-03-19 17:57:48.210,811, 466, 530, -20, -11, 4, -5, 3, 11, 973, 896, 12,I
2025-03-19 17:57:48.220,754, 478, 385, 3, 1, 7, -3, 1, 17, 975, 904, 13,I
2025-03-19 17:57:48.228,920, 1048, 294, 9, 15, 26, -5, 3, 12, 979, 906, 17,I
2025-03-19 17:57:48.238,699, 663, 355, -4, 22, 41, -4, 2, 15, 979, 912, 35,I
2025-03-19 17:57:48.242,553, 551, 268, -31, 35, 45, -6, 4, 14, 980, 912, 34,I
2025-03-19 17:57:48.255,734, 454, 314, 9, 38, 46, -5, 2, 15, 980, 910, 35,I
2025-03-19 17:57:48.260,849, 781, 215, 33, 42, 40, -7, 5, 11, 980, 904, 39,I
2025-03-19 17:57:48.274,791, 394, 431, -13, 34, 48, -4, 3, 15, 980, 894, 38,I
2025-03-19 17:57:48.283,817, 242, 313, 20, 35, 31, -5, 6, 12, 978, 877, 30,I
2025-03-19 17:57:48.290,686, 704, 435, 8, 35, 26, -3, 3, 12, 977, 846, 24,I
2025-03-19 17:57:48.299,716, 518, 339, 19, 32, 21, -3, 3, 12, 975, 817, 19,I
2025-03-19 17:57:48.307,717, 339, 498, 33, 19, 5, -5, 4, 13, 968, 769, 21,I
2025-03-19 17:57:48.316,624, 476, 402, 40, 21, -6, -3, 3, 14, 961, 686, 27,I
2025-03-19 17:57:48.324,578, 286, 490, 53, 15, -28, -4, 5, 12, 955, 614, 17,I
2025-03-19 17:57:48.336,650, 255, 519, 57, 10, -47, -3, 3, 12, 948, 534, 23,I
2025-03-19 17:57:48.340,634, 457, 605, 36, 1, -49, -5, 4, 11, 948, 425, 24,I
2025-03-19 17:57:48.353,657, 700, 655, 17, -11, -29, -4, 4, 14, 948, 417, 27,I
2025-03-19 17:57:48.360,773, 770, 526, 10, -7, -12, -4, 4, 12, 953, 624, 31,I
2025-03-19 17:57:48.369,858, 582, 368, -22, -4, -5, -2, 1, 13, 959, 756, 29,I
2025-03-19 17:57:48.374,838, 591, 579, -22, -9, -3, -4, 4, 12, 964, 844, 22,I
2025-03-19 17:57:48.388,834, 441, 401, -32, -13, -2, -4, 4, 12, 969, 891, 27,I
2025-03-19 17:57:48.395,929, 467, 389, -5, -10, 2, -3, 1, 14, 975, 915, 35,I
2025-03-19 17:57:48.405,1060, 940, 551, -29, -18, 23, -4, 4, 13, 976, 927, 23,I
2025-03-19 17:57:48.413,643, 761, 71, -37, -1, 36, -4, 4, 14, 979, 932, 36,I
2025-03-19 17:57:48.422,815, 712, 364, -40, 4, 39, -4, 3, 12, 977, 936, 38,I
2025-03-19 17:57:48.430,819, 537, 363, -18, 3, 44, -3, 2, 13, 979, 933, 29,I
2025-03-19 17:57:48.439,662, 188, 372, 17, 7, 27, -4, 2, 12, 979, 928, 17,I
2025-03-19 17:57:48.446,567, 535, 488, 1, 5, 18, -3, 5, 14, 977, 921, 26,I
2025-03-19 17:57:48.457,796, 587, 459, 35, 5, 18, -4, 4, 12, 974, 903, 10,I
2025-03-19 17:57:48.467,708, 441, 460, 27, 5, 9, -4, 4, 13, 971, 884, 33,I
2025-03-19 17:57:48.475,765, 311, 411, 29, 8, -15, -4, 4, 13, 966, 869, 24,I
2025-03-19 17:57:48.484,881, 244, 275, 29, 23, -45, -4, 3, 10, 958, 840, 56,I
2025-03-19 17:57:48.492,894, 362, 222, 29, 39, -65, -4, 3, 12, 948, 797, 171,I
2025-03-19 17:57:48.502,783, 522, 213, 15, 50, -71, -3, 3, 11, 931, 738, 182,I
2025-03-19 17:57:48.510,670, 570, 276, -16, 56, -70, -4, 3, 10, 922, 684, 105,I
2025-03-19 17:57:48.520,630, 592, 355, -42, 57, -66, -3, 2, 10, 919, 650, 36,I
2025-03-19 17:57:48.790,618, 550, 533, -19, -32, 5, -3, 2, 14, 923, 731, 21,J
2025-03-19 17:57:48.802,622, 545, 530, -14, -39, 7, -4, 3, 11, 927, 746, 28,J
2025-03-19 17:57:48.810,604, 554, 562, -5, -45, 12, -5, 3, 13, 931, 770, 27,J
2025-03-19 17:57:48.819,677, 519, 555, 5, -53, -2, -5, 3, 13, 938, 825, 29,J
2025-03-19 17:57:48.824,979, 213, 265, -27, -19, -16, -4, 4, 13, 944, 865, 37,J
2025-03-19 17:57:48.836,862, 626, 541, 9, -15, -12, -4, 1, 13, 949, 886, 38,J
2025-03-19 17:57:48.842,868, 644, 296, -27, -16, -6, -4, 2, 14, 957, 904, 44,J
2025-03-19 17:57:48.852,880, 276, 358, 18, -13, -10, -4, 2, 16, 963, 919, 26,J
2025-03-19 17:57:48.860,934, 393, 664, 53, -24, -6, -5, 4, 14, 967, 927, 33,J
2025-03-19 17:57:48.872,993, 967, 484, 24, -29, 17, -4, 1, 15, 970, 931, 29,J
2025-03-19 17:57:48.881,788, 962, 143, 3, -21, 39, -6, 3, 14, 973, 929, 17,J
2025-03-19 17:57:48.889,674, 627, 224, -12, -10, 39, -5, 2, 15, 973, 926, 13,J
2025-03-19 17:57:48.896,586, 382, 197, 7, 0, 26, -5, 5, 14, 974, 923, 27,J
2025-03-19 17:57:48.905,744, 561, 383, 28, 9, 26, -5, 5, 14, 974, 914, 10,J
2025-03-19 17:57:48.914,699, 568, 479, 20, 9, 23, -5, 2, 15, 971, 908, 36,J
2025-03-19 17:57:48.923,634, 475, 509, 25, 4, 15, -5, 3, 12, 970, 895, 45,J
2025-03-19 17:57:48.934,623, 474, 377, 44, 4, 7, -4, 2, 15, 965, 880, 177,J
2025-03-19 17:57:48.941,645, 477, 461, 55, 5, -1, -6, 4, 14, 957, 864, 304,J
2025-03-19 17:57:48.951,686, 598, 479, 55, 2, -4, -4, 2, 16, 950, 847, 368,J
2025-03-19 17:57:48.956,705, 609, 441, 32, -1, -9, -6, 2, 15, 944, 827, 405,J
2025-03-19 17:57:48.967,556, 395, 413, 28, -5, -25, -5, 2, 15, 935, 820, 446,J
2025-03-19 17:57:48.974,620, 323, 340, 26, -3, -39, -7, 1, 13, 933, 810, 432,J
2025-03-19 17:57:48.986,579, 542, 368, 12, 0, -43, -5, 2, 15, 932, 800, 410,J
2025-03-19 17:57:48.994,644, 718, 457, 1, -2, -28, -5, 2, 15, 935, 812, 355,J
2025-03-19 17:57:49.004,1055, 703, 422, -23, 3, -11, -5, 0, 13, 942, 832, 268,J
2025-03-19 17:57:49.010,817, 665, 501, -27, 4, 2, -5, 1, 15, 953, 855, 242,J
2025-03-19 17:57:49.020,810, 468, 601, -29, 1, 8, -5, 2, 14, 961, 864, 134,J
2025-03-19 17:57:49.028,859, 297, 554, -11, -2, 4, -5, 2, 15, 967, 881, 38,J
2025-03-19 17:57:49.040,876, 683, 250, 21, 20, 33, -4, 2, 14, 971, 888, 48,J
2025-03-19 17:57:49.049,832, 876, 404, -30, 26, 55, -5, 1, 15, 976, 898, 42,J
2025-03-19 17:57:49.057,686, 757, 300, -55, 39, 62, -4, 3, 14, 978, 903, 36,J
2025-03-19 17:57:49.066,755, 572, 225, -30, 39, 61, -4, 3, 14, 980, 903, 43,J
2025-03-19 17:57:49.074,845, 933, 417, -26, 49, 76, -4, 4, 13, 980, 906, 21,J
2025-03-19 17:57:49.082,608, 281, 458, -28, 32, 46, -4, 4, 13, 980, 905, 21,J
2025-03-19 17:57:49.091,807, 439, 145, -6, 35, 41, -4, 4, 14, 980, 904, 17,J
2025-03-19 17:57:49.102,716, 603, 354, -24, 31, 42, -4, 3, 14, 979, 900, 35,J
2025-03-19 17:57:49.110,775, 468, 445, -22, 20, 27, -3, 4, 15, 977, 890, 26,J
2025-03-19 17:57:49.117,711, 449, 404, -13, 12, 16, -4, 4, 13, 974, 874, 25,J
2025-03-19 17:57:49.125,702, 533, 323, -17, 15, 11, -4, 4, 11, 968, 860, 20,J
2025-03-19 17:57:49.135,489, 248, 443, 1, 9, -16, -4, 5, 13, 961, 825, 22,J
2025-03-19 17:57:49.140,692, -35, 518, 48, 1, -60, -5, 4, 13, 944, 776, 31,J
2025-03-19 17:57:49.155,879, 88, 637, 75, -11, -85, -3, 4, 13, 924, 679, 25,J
2025-03-19 17:57:49.160,1274, 210, 613, 98, -20, -90, -5, 3, 13, 899, 559, 23,J
2025-03-19 17:57:49.172,1185, 452, 388, 100, -20, -75, -5, 3, 13, 885, 522, 20,J
2025-03-19 17:57:49.179,1389, 802, 179, 80, 0, -54, -5, 2, 14, 878, 587, 20,J
2025-03-19 17:57:49.188,1166, 999, 55, 18, 25, -34, -5, 0, 13, 881, 624, 42,J
2025-03-19 17:57:49.195,961, 856, 110, -26, 45, -13, -4, 1, 13, 886, 661, 67,J
2025-03-19 17:57:49.206,702, 594, 300, -44, 52, -6, -4, 3, 11, 889, 666, 52,J
2025-03-19 17:57:49.216,520, 471, 472, -37, 48, -5, -4, 2, 11, 893, 671, 67,J
2025-03-19 17:57:49.224,502, 438, 616, -19, 37, -7, -5, 3, 11, 897, 684, 48,J
2025-03-19 17:57:49.234,521, 539, 745, -6, 22, -8, -4, -1, 12, 899, 694, 51,J
2025-03-19 17:57:49.241,553, 651, 759, -4, 7, -7, -4, 2, 10, 903, 709, 52,J
2025-03-19 17:57:49.250,529, 730, 683, -6, -5, 0, -4, 1, 11, 905, 714, 31,J
2025-03-19 17:57:49.257,501, 711, 637, -9, -14, 7, -4, 1, 11, 910, 722, 39,J
2025-03-19 17:57:49.270,506, 640, 561, -9, -18, 8, -3, 3, 10, 911, 728, 81,J
2025-03-19 17:57:49.274,570, 567, 466, -6, -18, 7, -3, 1, 11, 914, 732, 106,J
2025-03-19 17:57:49.570,730, 364, 480, 2, -6, -7, -7, 4, 14, 951, 878, 45,K
2025-03-19 17:57:49.582,728, 506, 566, 13, -9, -8, -4, 2, 14, 954, 877, 27,K
2025-03-19 17:57:49.593,750, 535, 538, 11, -14, -9, -5, 2, 14, 960, 870, 21,K
2025-03-19 17:57:49.601,743, 539, 345, 22, -8, -5, -5, 2, 14, 964, 866, 17,K
2025-03-19 17:57:49.613,720, 576, 360, 32, 10, 7, -6, 1, 13, 965, 860, 14,K
2025-03-19 17:57:49.622,488, 661, 390, 21, 22, 14, -6, 1, 13, 966, 847, 12,K
2025-03-19 17:57:49.630,973, 807, 383, -13, 38, 24, -5, 2, 15, 968, 838, 24,K
2025-03-19 17:57:49.639,883, 361, 581, 32, 30, 25, -5, 2, 14, 970, 814, 13,K
2025-03-19 17:57:49.646,646, 413, 428, 22, 27, 20, -6, 4, 14, 969, 810, 28,K
2025-03-19 17:57:49.656,648, 1094, 216, 23, 30, 25, -4, 1, 14, 970, 804, 29,K
2025-03-19 17:57:49.667,609, 769, 153, -10, 31, 33, -5, 4, 14, 969, 813, 37,K
2025-03-19 17:57:49.673,1078, 554, 283, -25, 28, 31, -3, 2, 14, 967, 816, 34,K
2025-03-19 17:57:49.684,920, 413, 445, -31, 16, 15, -5, 2, 13, 970, 828, 41,K
2025-03-19 17:57:49.690,711, 327, 248, -8, 4, 4, -4, 3, 14, 969, 861, 24,K
2025-03-19 17:57:49.701,849, 666, 252, -6, 10, 10, -5, 4, 13, 970, 892, 17,K
2025-03-19 17:57:49.705,810, 805, 424, -35, 4, 17, -5, 4, 13, 971, 921, 32,K
2025-03-19 17:57:49.720,919, 735, 754, -65, -19, 22, -5, 3, 14, 974, 933, 31,K
2025-03-19 17:57:49.728,586, 322, 482, -59, -28, 9, -4, 4, 13, 974, 945, 35,K
2025-03-19 17:57:49.735,450, 327, 380, -34, -26, 5, -4, 3, 14, 976, 950, 20,K
2025-03-19 17:57:49.745,329, 643, 392, -50, -38, -5, -4, 5, 13, 975, 952, 19,K
2025-03-19 17:57:49.752,692, 453, 666, -55, -34, -6, -4, 5, 13, 977, 953, 29,K
2025-03-19 17:57:49.760,602, 341, 468, -20, -29, -9, -6, 4, 13, 975, 952, 23,K
2025-03-19 17:57:49.773,577, 361, 523, -1, -23, -11, -5, 5, 15, 974, 951, 22,K
2025-03-19 17:57:49.782,579, 534, 468, 5, -14, -9, -5, 4, 14, 973, 948, 23,K
2025-03-19 17:57:49.789,680, 483, 430, 25, -5, -6, -3, 3, 14, 972, 941, 18,K
2025-03-19 17:57:49.799,666, 463, 491, 39, -3, -7, -3, 3, 14, 969, 933, 32,K
2025-03-19 17:57:49.807,730, 503, 518, 47, -2, -8, -6, 5, 13, 966, 922, 39,K
2025-03-19 17:57:49.815,707, 472, 452, 57, -1, -9, -5, 3, 14, 964, 906, 36,K
2025-03-19 17:57:49.823,638, 492, 301, 58, 9, -13, -5, 6, 13, 957, 883, 33,K
2025-03-19 17:57:49.835,564, 495, 256, 57, 23, -20, -5, 2, 16, 952, 854, 29,K
2025-03-19 17:57:49.841,707, 541, 276, 37, 35, -31, -5, 3, 12, 949, 825, 28,K
2025-03-19 17:57:49.852,602, 569, 361, 20, 38, -40, -4, 3, 15, 947, 772, 21,K
2025-03-19 17:57:49.856,667, 569, 482, 11, 28, -35, -6, 4, 11, 945, 734, 20,K
2025-03-19 17:57:49.868,650, 666, 601, 11, 12, -13, -3, 2, 15, 949, 727, 17,K
2025-03-19 17:57:49.872,652, 790, 684, 10, -11, 15, -4, 2, 13, 955, 775, 11,K
2025-03-19 17:57:49.888,1042, 287, 410, -45, -6, -2, -4, 2, 13, 962, 844, 14,K
2025-03-19 17:57:49.890,889, 485, 577, 3, -10, -2, -3, 2, 14, 968, 882, 39,K
2025-03-19 17:57:49.904,802, 722, 487, -27, -13, 7, -4, 3, 14, 972, 905, 42,K
2025-03-19 17:57:49.910,1014, 673, 287, -38, -6, 25, -3, 1, 14, 976, 923, 47,K
2025-03-19 17:57:49.920,998, 1232, 272, -45, 5, 70, -4, 4, 13, 980, 933, 38,K
2025-03-19 17:57:49.930,664, 495, 257, -118, 14, 74, -3, 3, 14, 980, 938, 36,K
2025-03-19 17:57:49.939,713, -103, 605, -69, 12, 49, -4, 5, 13, 981, 941, 40,K
2025-03-19 17:57:49.949,669, 262, 303, -6, 12, 40, -5, 3, 15, 981, 940, 40,K
2025-03-19 17:57:49.958,750, 708, 354, -26, 15, 40, -5, 6, 11, 982, 941, 32,K
2025-03-19 17:57:49.966,852, 650, 358, -27, 22, 46, -4, 4, 15, 982, 936, 25,K
2025-03-19 17:57:49.975,758, 398, 319, -12, 23, 34, -4, 4, 15, 981, 928, 17,K
2025-03-19 17:57:49.983,746, 355, 488, 6, 20, 24, -4, 5, 13, 977, 913, 33,K
2025-03-19 17:57:49.992,731, 335, 547, 38, 14, 12, -3, 3, 14, 974, 893, 24,K
2025-03-19 17:57:50.000,847, 337, 530, 32, 13, -16, -5, 6, 14, 968, 880, 25,K
2025-03-19 17:57:50.011,952, 88, 278, 42, 29, -53, -4, 3, 14, 962, 859, 31,K
2025-03-19 17:57:50.020,870, 246, 191, 47, 47, -81, -4, 4, 13, 947, 826, 37,K
2025-03-19 17:57:50.024,692, 460, 189, 46, 56, -90, -3, 4, 12, 925, 778, 41,K
2025-03-19 17:57:50.036,595, 552, 269, 21, 59, -90, -5, 4, 11, 914, 741, 38,K
2025-03-19 17:57:50.042,592, 566, 344, -16, 60, -82, -3, 2, 12, 909, 711, 29,K
2025-03-19 17:57:50.050,626, 627, 502, -24, 59, -71, -4, 3, 9, 906, 692, 25,K
2025-03-19 17:57:50.064,601, 702, 705, -19, 52, -62, -4, 3, 9, 899, 679, 21,K
2025-03-19 17:57:50.350,1135, 435, 252, -26, -15, -7, -4, 1, 13, 937, 886, 20,L
2025-03-19 17:57:50.360,830, 503, 375, -1, -6, -6, -4, 5, 12, 939, 890, 29,L
2025-03-19 17:57:50.373,723, 623, 458, -12, -7, -1, -6, 2, 14, 944, 892, 33,L
2025-03-19 17:57:50.381,726, 506, 411, -18, -7, -2, -5, 3, 13, 948, 894, 39,L
2025-03-19 17:57:50.390,745, 459, 461, -6, -6, -5, -5, 3, 14, 951, 899, 34,L
2025-03-19 17:57:50.398,727, 511, 497, -1, -9, -7, -5, 3, 13, 953, 899, 21,L
2025-03-19 17:57:50.405,724, 508, 463, 1, -11, -8, -5, 3, 13, 959, 901, 28,L
2025-03-19 17:57:50.416,726, 537, 454, 4, -11, -8, -4, 2, 14, 960, 902, 18,L
2025-03-19 17:57:50.422,711, 555, 440, 8, -9, -7, -6, 3, 13, 963, 900, 21,L
2025-03-19 17:57:50.433,717, 548, 424, 16, -4, -5, -4, 0, 16, 964, 902, 24,L
2025-03-19 17:57:50.440,667, 668, 344, 16, 5, 4, -5, 3, 14, 966, 896, 22,L
2025-03-19 17:57:50.449,625, 697, 377, 26, 15, 18, -5, 1, 16, 968, 895, 23,L
2025-03-19 17:57:50.457,840, 321, 653, -7, 17, 12, -5, 4, 13, 968, 889, 33,L
2025-03-19 17:57:50.466,827, 391, 503, 35, 26, 17, -4, 1, 15, 969, 880, 41,L
2025-03-19 17:57:50.473,854, 615, 474, 22, 29, 10, -5, 4, 12, 970, 868, 22,L
2025-03-19 17:57:50.487,278, 416, 469, 6, 27, 5, -3, 1, 14, 970, 850, 23,L
2025-03-19 17:57:50.491,835, 682, 253, 30, 30, 14, -3, 1, 14, 971, 836, 29,L
2025-03-19 17:57:50.500,750, 848, 212, 20, 36, 35, -5, 2, 13, 971, 835, 29,L
2025-03-19 17:57:50.510,788, 758, 415, -46, 27, 25, -3, 1, 16, 971, 836, 36,L
2025-03-19 17:57:50.520,945, 378, 278, -12, 27, 20, -5, 2, 12, 972, 839, 29,L
2025-03-19 17:57:50.524,737, 616, 391, -23, 21, 21, -2, 3, 14, 973, 855, 31,L
2025-03-19 17:57:50.534,837, 464, 434, -26, 10, 13, -2, 4, 12, 975, 875, 29,L
2025-03-19 17:57:50.547,904, 531, 340, -9, 10, 18, -5, 3, 14, 976, 897, 23,L
2025-03-19 17:57:50.556,965, 728, 467, -29, 8, 33, -4, 4, 12, 978, 921, 27,L
2025-03-19 17:57:50.564,609, 686, 428, -68, 5, 41, -4, 2, 14, 981, 933, 20,L
2025-03-19 17:57:50.572,895, 577, 514, -47, 5, 40, -4, 3, 12, 979, 940, 14,L
2025-03-19 17:57:50.581,767, 600, 454, -37, 4, 38, -4, 3, 12, 981, 944, 23,L
2025-03-19 17:57:50.590,683, 234, 484, -23, 1, 26, -4, 3, 14, 980, 948, 41,L
2025-03-19 17:57:50.601,729, 543, 478, -7, 2, 19, -4, 5, 14, 980, 946, 41,L
2025-03-19 17:57:50.606,712, 377, 455, 15, 3, 15, -3, 4, 13, 978, 944, 30,L
2025-03-19 17:57:50.618,622, 495, 427, 16, 3, 13, -4, 5, 12, 977, 935, 40,L
2025-03-19 17:57:50.622,723, 409, 437, 40, 6, 7, -5, 4, 14, 975, 922, 36,L
2025-03-19 17:57:50.635,690, 427, 480, 56, 5, -1, -5, 5, 11, 967, 908, 40,L
2025-03-19 17:57:50.640,872, 390, 407, 45, 13, -23, -4, 3, 13, 960, 890, 21,L
2025-03-19 17:57:50.654,974, 223, 229, 45, 33, -52, -4, 3, 11, 956, 872, 29,L
2025-03-19 17:57:50.661,916, 307, 121, 29, 54, -72, -3, 3, 13, 945, 852, 11,L
2025-03-19 17:57:50.670,777, 499, 186, 5, 65, -77, -3, 3, 13, 941, 832, 42,L
2025-03-19 17:57:50.678,659, 657, 291, -12, 67, -70, -4, 4, 11, 937, 798, 28,L
2025-03-19 17:57:50.686,584, 686, 436, -37, 62, -58, -3, 2, 11, 934, 778, 30,L
2025-03-19 17:57:50.694,589, 657, 643, -39, 51, -44, -3, 1, 9, 933, 767, 44,L
2025-03-19 17:57:50.703,520, 670, 838, -35, 39, -32, -3, 2, 9, 930, 768, 39,L
2025-03-19 17:57:50.716,502, 635, 973, -27, 15, -20, -2, 2, 9, 929, 773, 46,L
2025-03-19 17:57:51.002,706, 558, 503, -31, -5, 1, -5, 3, 14, 949, 892, 23,M
2025-03-19 17:57:51.018,729, 441, 462, -24, -5, -1, -4, 3, 12, 953, 898, 20,M
2025-03-19 17:57:51.022,743, 408, 560, -11, -8, -5, -3, 5, 15, 956, 899, 32,M
2025-03-19 17:57:51.035,719, 458, 594, -1, -11, -6, -4, 3, 13, 959, 903, 10,M
2025-03-19 17:57:51.040,712, 459, 500, 8, -10, -6, -5, 2, 16, 963, 899, 31,M
2025-03-19 17:57:51.052,749, 447, 586, 10, -11, -10, -5, 2, 16, 967, 893, 28,M
2025-03-19 17:57:51.060,742, 452, 425, 38, -9, 0, -4, 3, 13, 969, 889, 39,M
2025-03-19 17:57:51.068,893, 850, 387, 39, 13, 25, -5, 2, 16, 971, 884, 45,M
2025-03-19 17:57:51.080,409, 1026, 311, -2, 37, 32, -4, 3, 14, 972, 877, 32,M
2025-03-19 17:57:51.088,604, 562, 579, 18, 33, 29, -4, 2, 15, 971, 850, 38,M
2025-03-19 17:57:51.095,632, 803, 188, 16, 45, 37, -5, 3, 13, 973, 846, 38,M
2025-03-19 17:57:51.105,986, 660, 386, 5, 45, 47, -4, 2, 16, 973, 826, 32,M
2025-03-19 17:57:51.113,1144, 498, 484, 6, 25, 43, -5, 3, 11, 971, 815, 14,M
2025-03-19 17:57:51.122,930, 455, 323, -5, 18, 29, -3, 3, 13, 972, 805, 7,M
2025-03-19 17:57:51.130,638, 238, 291, 21, 7, 6, -3, 3, 13, 970, 791, 22,M
2025-03-19 17:57:51.141,802, 552, 150, 34, 10, 2, -4, 3, 13, 962, 789, 11,M
2025-03-19 17:57:51.150,761, 764, 297, 8, 9, 2, -2, 3, 13, 957, 797, 27,M
2025-03-19 17:57:51.158,685, 451, 530, -3, -3, -16, -5, 4, 12, 951, 796, 50,M
2025-03-19 17:57:51.167,735, 262, 622, 6, -26, -38, -4, 2, 13, 943, 802, 38,M
2025-03-19 17:57:51.174,396, 200, 622, 17, -37, -56, -4, 4, 13, 935, 825, 42,M
2025-03-19 17:57:51.185,568, 489, 671, 30, -47, -54, -4, 4, 12, 934, 860, 84,M
2025-03-19 17:57:51.191,595, 665, 449, -2, -37, -42, -4, 2, 13, 941, 887, 81,M
2025-03-19 17:57:51.203,651, 841, 473, -32, -29, -24, -4, 0, 15, 946, 905, 42,M
2025-03-19 17:57:51.211,738, 849, 366, -67, -21, -5, -5, 2, 14, 952, 921, 25,M
2025-03-19 17:57:51.220,626, 541, 426, -69, -16, -1, -5, 2, 14, 958, 931, 15,M
2025-03-19 17:57:51.225,777, 320, 529, -47, -16, -6, -5, 3, 14, 963, 939, 13,M
2025-03-19 17:57:51.234,708, 369, 541, -18, -16, -9, -5, 2, 14, 966, 941, 28,M
2025-03-19 17:57:51.243,754, 426, 527, -6, -16, -9, -5, 3, 14, 968, 940, 23,M
2025-03-19 17:57:51.256,742, 370, 538, 19, -17, -9, -4, 3, 13, 971, 939, 21,M
2025-03-19 17:57:51.264,854, 656, 468, 43, -12, 5, -5, 3, 14, 974, 933, 38,M
2025-03-19 17:57:51.272,826, 750, 310, 41, -5, 26, -6, 3, 14, 975, 931, 40,M
2025-03-19 17:57:51.281,965, 913, 333, 15, 15, 46, -5, 3, 14, 976, 932, 39,M
2025-03-19 17:57:51.289,658, 882, 166, 1, 28, 58, -4, 2, 14, 978, 931, 34,M
2025-03-19 17:57:51.298,582, 391, 363, -24, 34, 47, -5, 4, 15, 978, 930, 20,M
2025-03-19 17:57:51.306,799, 418, 354, 2, 30, 44, -5, 4, 15, 979, 929, 27,M
2025-03-19 17:57:51.318,964, 718, 281, -25, 26, 45, -6, 3, 16, 978, 928, 22,M
2025-03-19 17:57:51.324,741, 590, 307, -34, 19, 38, -6, 5, 14, 977, 929, 34,M
2025-03-19 17:57:51.335,717, 414, 338, -24, 11, 21, -4, 4, 13, 978, 931, 17,M
2025-03-19 17:57:51.340,760, 540, 273, -24, 12, 15, -6, 5, 14, 975, 932, 32,M
2025-03-19 17:57:51.351,811, 532, 630, -29, -6, 6, -6, 3, 13, 974, 932, 19,M
2025-03-19 17:57:51.358,693, 289, 510, -15, -19, -12, -4, 3, 14, 970, 929, 19,M
2025-03-19 17:57:51.370,696, 160, 615, 8, -28, -31, -5, 4, 14, 968, 928, 34,M
2025-03-19 17:57:51.378,740, 388, 549, 2, -32, -35, -4, 5, 11, 966, 928, 17,M
2025-03-19 17:57:51.385,710, 515, 647, -4, -29, -27, -4, 3, 14, 968, 933, 30,M
2025-03-19 17:57:51.394,672, 576, 515, -11, -16, -11, -4, 3, 14, 971, 934, 30,M
2025-03-19 17:57:51.404,672, 396, 784, -12, -8, -7, -4, 6, 13, 974, 936, 20,M
2025-03-19 17:57:51.412,666, 288, 742, 15, -15, -11, -5, 3, 14, 976, 937, 39,M
2025-03-19 17:57:51.420,629, 676, 388, 21, -3, -2, -5, 5, 14, 976, 934, 38,M
2025-03-19 17:57:51.432,621, 621, 396, 26, -2, 4, -5, 2, 15, 977, 935, 43,M
2025-03-19 17:57:51.441,721, 656, 223, 33, 18, 24, -7, 5, 13, 979, 934, 40,M
2025-03-19 17:57:51.448,616, 860, 226, -3, 28, 33, -5, 4, 14, 980, 936, 27,M
2025-03-19 17:57:51.455,798, 597, 186, -5, 32, 35, -6, 4, 14, 980, 933, 36,M
2025-03-19 17:57:51.466,671, 603, 175, -6, 32, 28, -4, 2, 15, 980, 932, 5,M
2025-03-19 17:57:51.473,1026, 557, 269, 5, 29, 27, -5, 6, 13, 979, 929, 25,M
2025-03-19 17:57:51.483,865, 503, 304, 2, 22, 21, -5, 6, 13, 976, 920, 20,M
2025-03-19 17:57:51.490,762, 485, 369, -1, 17, 12, -4, 3, 15, 973, 915, 36,M
2025-03-19 17:57:51.503,809, 444, 466, -2, 11, -1, -6, 6, 12, 972, 911, 44,M
2025-03-19 17:57:51.510,838, 225, 430, -6, 10, -27, -4, 4, 13, 969, 912, 45,M
2025-03-19 17:57:51.517,886, 243, 353, -2, 16, -51, -4, 6, 12, 964, 907, 39,M
2025-03-19 17:57:51.525,809, 417, 338, 6, 23, -57, -4, 3, 14, 960, 906, 46,M
2025-03-19 17:57:51.535,748, 564, 362, -4, 28, -51, -6, 5, 12, 956, 904, 41,M
2025-03-19 17:57:51.540,671, 659, 477, -25, 28, -37, -4, 2, 13, 954, 907, 35,M
2025-03-19 17:57:51.555,645, 589, 604, -32, 23, -28, -5, 4, 10, 954, 908, 26,M
2025-03-19 17:57:51.840,647, 568, 544, -3, -26, -2, -5, 3, 11, 949, 869, 14,N
2025-03-19 17:57:51.850,661, 600, 583, 0, -33, 7, -3, 2, 12, 950, 879, 25,N
2025-03-19 17:57:51.862,668, 580, 567, 0, -35, 15, -5, 3, 14, 954, 896, 25,N
2025-03-19 17:57:51.871,928, 243, 300, -33, -12, -6, -4, 2, 14, 960, 902, 15,N
2025-03-19 17:57:51.882,773, 510, 538, 10, -10, -6, -5, 3, 14, 961, 905, 36,N
2025-03-19 17:57:51.890,710, 516, 436, -10, -12, -3, -5, 2, 14, 965, 907, 28,N
2025-03-19 17:57:51.899,777, 509, 284, -7, 1, 3, -4, 3, 14, 968, 910, 49,N
2025-03-19 17:57:51.907,628, 715, 490, 7, 19, 26, -5, 2, 14, 971, 907, 33,N
2025-03-19 17:57:51.916,516, 976, 351, -14, 40, 40, -5, 3, 14, 976, 907, 21,N
2025-03-19 17:57:51.923,959, 551, 370, 3, 49, 60, -5, 2, 14, 975, 905, 18,N
2025-03-19 17:57:51.933,289, 534, 467, -13, 53, 53, -5, 2, 14, 975, 896, 28,N
2025-03-19 17:57:51.940,411, 650, 383, -3, 41, 55, -4, 5, 12, 976, 893, 24,N
2025-03-19 17:57:51.951,659, 312, 353, -10, 22, 27, -5, 4, 14, 976, 893, 25,N
2025-03-19 17:57:51.960,738, 515, 220, 13, 18, 22, -5, 5, 13, 975, 890, 25,N
2025-03-19 17:57:51.967,761, 554, 321, -1, 12, 14, -4, 3, 15, 974, 891, 18,N
2025-03-19 17:57:51.976,831, 584, 196, 6, 15, 12, -5, 5, 12, 972, 891, 23,N
2025-03-19 17:57:51.985,762, 640, 340, -14, 10, 4, -4, 5, 15, 968, 897, 18,N
2025-03-19 17:57:51.993,667, 158, 764, 3, -26, -27, -2, 5, 12, 964, 902, 41,N
2025-03-19 17:57:52.005,734, 67, 468, 8, -31, -52, -2, 2, 13, 958, 908, 31,N
2025-03-19 17:57:52.014,741, 158, 645, 52, -45, -68, -4, 5, 13, 957, 907, 20,N
2025-03-19 17:57:52.022,871, 625, 568, 40, -48, -56, -4, 5, 13, 956, 915, 30,N
2025-03-19 17:57:52.032,832, 868, 480, -4, -41, -43, -2, 4, 14, 958, 924, 40,N
2025-03-19 17:57:52.039,851, 821, 447, -39, -32, -23, -6, 3, 12, 961, 931, 44,N
2025-03-19 17:57:52.047,807, 593, 498, -38, -21, -8, -5, 2, 15, 964, 938, 34,N
2025-03-19 17:57:52.057,695, 344, 659, -20, -11, -5, -5, 3, 14, 968, 939, 38,N
2025-03-19 17:57:52.067,808, 234, 762, 15, -17, -6, -6, 2, 16, 973, 939, 29,N
2025-03-19 17:57:52.073,750, 757, 422, 10, -7, 12, -7, 3, 12, 975, 936, 12,N
2025-03-19 17:57:52.084,761, 592, 434, 11, 4, 20, -4, 1, 15, 976, 932, 24,N
2025-03-19 17:57:52.090,739, 852, 171, 27, 24, 53, -4, 3, 13, 977, 925, 26,N
2025-03-19 17:57:52.100,541, 931, 300, 16, 41, 67, -5, 3, 15, 979, 920, 11,N
2025-03-19 17:57:52.108,717, 697, 314, 28, 44, 76, -5, 3, 15, 976, 908, 17,N
2025-03-19 17:57:52.120,698, 482, 316, 18, 33, 52, -5, 6, 13, 978, 902, 39,N
2025-03-19 17:57:52.122,599, 530, 441, -5, 21, 35, -6, 1, 13, 977, 904, 37,N
2025-03-19 17:57:52.137,833, 602, 202, -21, 14, 29, -4, 5, 12, 977, 909, 45,N
2025-03-19 17:57:52.143,756, 647, 257, -29, 13, 21, -3, 4, 14, 976, 916, 43,N
2025-03-19 17:57:52.152,783, 687, 369, -46, 5, 19, -5, 5, 12, 976, 926, 31,N
2025-03-19 17:57:52.162,676, 564, 588, -65, -13, 5, -3, 2, 14, 975, 934, 43,N
2025-03-19 17:57:52.174,727, 189, 717, -44, -35, -21, -5, 6, 13, 974, 937, 34,N
2025-03-19 17:57:52.181,805, 58, 662, 0, -43, -42, -4, 4, 14, 971, 937, 12,N
2025-03-19 17:57:52.189,696, 235, 577, 30, -46, -49, -5, 6, 14, 969, 934, 19,N
2025-03-19 17:57:52.199,922, 544, 397, 43, -31, -31, -5, 6, 14, 961, 923, 13,N
2025-03-19 17:57:52.207,794, 613, 504, 43, -17, -15, -5, 4, 14, 952, 916, 25,N
2025-03-19 17:57:52.215,918, 491, 330, 30, 6, -9, -5, 4, 12, 949, 909, 23,N
2025-03-19 17:57:52.224,987, 387, 159, 24, 36, -15, -4, 4, 15, 950, 904, 36,N
2025-03-19 17:57:52.235,892, 440, 172, 14, 56, -21, -6, 3, 12, 950, 898, 41,N
2025-03-19 17:57:52.244,755, 556, 244, 5, 65, -20, -4, 2, 13, 950, 891, 45,N
2025-03-19 17:57:52.251,694, 574, 314, -3, 66, -16, -6, 4, 11, 951, 884, 53,N
2025-03-19 17:57:52.260,666, 546, 365, -10, 66, -15, -4, 2, 12, 950, 866, 44,N
2025-03-19 17:57:52.269,652, 559, 490, -11, 64, -12, -6, 5, 11, 951, 846, 35,N
2025-03-19 17:57:52.277,602, 634, 661, -7, 54, -9, -5, 5, 10, 950, 807, 29,N
2025-03-19 17:57:52.288,537, 674, 755, -10, 39, -2, -5, 5, 10, 951, 781, 16,N
2025-03-19 17:57:52.295,490, 631, 772, -9, 20, 4, -5, 3, 10, 949, 776, 36,N
2025-03-19 17:57:52.596,969, 342, 229, -42, 1, -24, -5, 5, 14, 968, 922, 26,O
2025-03-19 17:57:52.604,736, 479, 456, -31, 1, -24, -5, 5, 15, 968, 926, 26,O
2025-03-19 17:57:52.615,759, 373, 578, -23, -2, -30, -7, 5, 14, 967, 926, 21,O
2025-03-19 17:57:52.620,597, 269, 443, -13, 3, -36, -5, 4, 14, 969, 926, 22,O
2025-03-19 17:57:52.633,664, 448, 568, 7, 4, -34, -6, 5, 14, 967, 924, 19,O
2025-03-19 17:57:52.640,730, 386, 589, 33, 5, -26, -6, 3, 16, 970, 918, 32,O
2025-03-19 17:57:52.649,540, 303, 494, 68, 10, -16, -6, 3, 16, 971, 913, 23,O
2025-03-19 17:57:52.657,1047, 593, 532, 73, 14, -2, -6, 5, 13, 974, 911, 38,O
2025-03-19 17:57:52.666,1034, 983, 156, 42, 34, 25, -6, 3, 15, 976, 914, 34,O
2025-03-19 17:57:52.672,1166, 934, 222, 29, 35, 33, -6, 5, 14, 977, 915, 41,O
2025-03-19 17:57:52.684,1148, 1128, 68, -29, 54, 63, -5, 2, 15, 980, 922, 45,O
2025-03-19 17:57:52.693,860, 650, 398, -44, 43, 75, -5, 5, 14, 979, 924, 40,O
2025-03-19 17:57:52.702,744, 465, 186, -41, 36, 68, -5, 4, 16, 981, 929, 29,O
2025-03-19 17:57:52.710,704, 573, 158, -50, 27, 60, -6, 5, 13, 980, 936, 32,O
2025-03-19 17:57:52.717,649, 584, 274, -66, 15, 47, -4, 4, 13, 982, 939, 16,O
2025-03-19 17:57:52.730,734, 582, 340, -85, 9, 42, -4, 8, 11, 981, 945, 10,O
2025-03-19 17:57:52.739,717, 562, 573, -89, -11, 34, -4, 8, 11, 982, 948, 14,O
2025-03-19 17:57:52.747,534, 149, 592, -71, -21, 14, -4, 6, 14, 979, 950, 19,O
2025-03-19 17:57:52.755,684, 33, 855, -59, -41, -19, -5, 6, 13, 976, 951, 24,O
2025-03-19 17:57:52.765,681, 180, 651, -15, -38, -29, -4, 6, 14, 973, 951, 26,O
2025-03-19 17:57:52.771,686, 238, 731, 25, -39, -39, -6, 8, 13, 969, 946, 37,O
2025-03-19 17:57:52.784,704, 122, 581, 69, -35, -42, -4, 7, 15, 964, 937, 48,O
2025-03-19 17:57:52.790,770, 289, 366, 104, -23, -42, -6, 5, 13, 957, 920, 39,O
2025-03-19 17:57:52.800,854, 350, 428, 108, -12, -42, -5, 5, 13, 952, 909, 28,O
2025-03-19 17:57:52.808,1085, 516, 137, 91, 4, -46, -6, 5, 14, 948, 898, 42,O
2025-03-19 17:57:52.817,1196, 585, -62, 52, 33, -49, -5, 4, 15, 947, 890, 22,O
2025-03-19 17:57:52.824,1108, 562, -39, 23, 59, -54, -5, 4, 15, 947, 882, 28,O
2025-03-19 17:57:52.834,957, 513, 62, 4, 76, -59, -5, 5, 14, 943, 871, 20,O
2025-03-19 17:57:52.845,841, 462, 186, -7, 85, -67, -5, 5, 14, 944, 856, 34,O
2025-03-19 17:57:52.853,707, 467, 264, -20, 87, -74, -7, 3, 11, 943, 844, 30,O
2025-03-19 17:57:52.860,592, 486, 458, -13, 83, -79, -6, 4, 12, 941, 823, 29,O
2025-03-19 17:57:52.870,544, 557, 617, -13, 71, -81, -6, 2, 11, 938, 789, 34,O
2025-03-19 17:57:52.875,466, 582, 787, 6, 48, -81, -3, 3, 11, 938, 752, 33,O
2025-03-19 17:57:52.888,496, 578, 939, 7, 18, -81, -4, 3, 9, 936, 729, 26,O
2025-03-19 17:57:52.898,544, 564, 916, 14, -11, -78, -5, 3, 9, 937, 703, 40,O
2025-03-19 17:57:52.906,546, 594, 811, 16, -25, -71, -2, 2, 10, 939, 696, 23,O
2025-03-19 17:57:52.915,497, 675, 645, 18, -39, -56, -2, 2, 10, 940, 685, 27,O
2025-03-19 17:57:52.924,535, 727, 533, 27, -39, -38, -5, 2, 10, 940, 655, 26,O
2025-03-19 17:57:53.220,890, 375, 142, -43, -3, -4, -6, 2, 16, 963, 907, 16,P
2025-03-19 17:57:53.231,809, 584, 442, -37, -2, 0, -5, 4, 14, 966, 913, 21,P
2025-03-19 17:57:53.240,798, 416, 447, -45, -4, -1, -6, 4, 15, 969, 916, 33,P
2025-03-19 17:57:53.251,748, 207, 409, -18, 0, -10, -5, 5, 15, 971, 919, 35,P
2025-03-19 17:57:53.258,758, 459, 529, 9, 2, -8, -5, 2, 15, 971, 919, 15,P
2025-03-19 17:57:53.267,777, 677, 425, 3, 10, 0, -5, 2, 15, 973, 921, 25,P
2025-03-19 17:57:53.272,765, 565, 434, 14, 17, 20, -7, 3, 16, 975, 914, 37,P
2025-03-19 17:57:53.285,802, 732, 460, 18, 32, 34, -5, 3, 16, 976, 914, 37,P
2025-03-19 17:57:53.290,773, 816, 311, -1, 46, 50, -5, 5, 14, 978, 910, 34,P
2025-03-19 17:57:53.301,956, 777, 322, -2, 58, 69, -4, 4, 16, 976, 906, 26,P
2025-03-19 17:57:53.311,920, 548, 496, -7, 47, 62, -6, 4, 13, 977, 900, 29,P
2025-03-19 17:57:53.320,890, 433, 395, -13, 36, 42, -4, 4, 15, 977, 897, 36,P
2025-03-19 17:57:53.329,1017, 393, 555, -18, 22, 40, -4, 5, 12, 977, 899, 22,P
2025-03-19 17:57:53.335,908, 341, 309, -11, 19, 26, -4, 4, 14, 977, 902, 18,P
2025-03-19 17:57:53.344,814, 463, 302, -12, 13, 14, -6, 5, 13, 976, 906, 19,P
2025-03-19 17:57:53.353,790, 706, 258, -31, 14, 15, -6, 5, 13, 974, 912, 13,P
2025-03-19 17:57:53.365,753, 392, 565, -41, -1, -3, -5, 5, 13, 970, 916, 23,P
2025-03-19 17:57:53.372,424, -24, 784, -8, -27, -44, -5, 6, 12, 969, 919, 37,P
2025-03-19 17:57:53.382,389, -135, 754, 39, -50, -79, -4, 6, 14, 963, 924, 33,P
2025-03-19 17:57:53.390,663, 217, 456, 55, -55, -89, -6, 6, 13, 964, 929, 37,P
2025-03-19 17:57:53.399,989, 672, 498, 48, -60, -73, -5, 4, 14, 966, 933, 35,P
2025-03-19 17:57:53.407,1080, 937, 437, -3, -56, -52, -5, 3, 13, 967, 939, 42,P
2025-03-19 17:57:53.419,965, 776, 248, -44, -42, -25, -5, 4, 15, 971, 943, 28,P
2025-03-19 17:57:53.422,1090, 641, 408, -58, -30, -7, -5, 2, 15, 974, 950, 34,P
2025-03-19 17:57:53.433,765, 480, 535, -31, -28, 4, -6, 4, 15, 977, 950, 25,P
2025-03-19 17:57:53.442,707, 450, 624, -12, -25, 10, -6, 4, 15, 979, 951, 12,P
2025-03-19 17:57:53.450,638, 479, 625, 0, -21, 7, -5, 3, 16, 981, 947, 15,P
2025-03-19 17:57:53.460,571, 656, 436, -2, -12, 7, -6, 3, 16, 981, 946, 19,P
2025-03-19 17:57:53.467,577, 818, 455, -10, -3, 19, -6, 5, 15, 982, 944, 19,P
2025-03-19 17:57:53.480,571, 709, 363, -26, 10, 25, -5, 5, 16, 982, 945, 22,P
2025-03-19 17:57:53.489,692, 496, 454, -21, 20, 25, -5, 3, 16, 981, 947, 26,P
2025-03-19 17:57:53.497,984, 761, 316, -12, 27, 28, -6, 3, 16, 983, 946, 46,P
2025-03-19 17:57:53.505,652, 674, 264, -18, 31, 32, -6, 6, 16, 981, 945, 44,P
2025-03-19 17:57:53.513,854, 405, 290, -12, 32, 27, -6, 5, 16, 981, 938, 40,P
2025-03-19 17:57:53.522,748, 436, 320, -8, 33, 20, -5, 3, 15, 979, 927, 23,P
2025-03-19 17:57:53.533,895, 359, 354, 4, 26, 12, -5, 3, 15, 976, 911, 28,P
2025-03-19 17:57:53.540,881, 380, 306, 18, 23, 8, -5, 4, 14, 974, 904, 28,P
2025-03-19 17:57:53.550,888, 372, 318, 22, 24, 1, -5, 3, 15, 970, 899, 29,P
2025-03-19 17:57:53.557,1091, 178, 379, 21, 21, -21, -6, 5, 16, 968, 899, 33,P
2025-03-19 17:57:53.567,1163, 252, 296, 4, 33, -39, -5, 4, 14, 967, 902, 28,P
2025-03-19 17:57:53.573,1000, 427, 279, -21, 47, -48, -5, 6, 14, 966, 901, 31,P
2025-03-19 17:57:53.586,784, 544, 321, -35, 55, -44, -4, 3, 14, 967, 903, 26,P
2025-03-19 17:57:53.594,594, 584, 410, -42, 54, -33, -4, 4, 12, 968, 903, 29,P
2025-03-19 17:57:53.603,496, 560, 646, -41, 42, -21, -3, 3, 13, 967, 904, 31,P
2025-03-19 17:57:53.611,437, 543, 853, -33, 25, -12, -5, 6, 11, 967, 904, 8,P
2025-03-19 17:57:53.619,434, 560, 940, -19, 4, -3, -5, 4, 11, 967, 904, 24,P
2025-03-19 17:57:53.624,406, 597, 920, -8, -10, 5, -5, 4, 11, 967, 904, 29,P
2025-03-19 17:57:53.890,716, 505, 460, 4, -9, -3, -6, 5, 14, 957, 851, 25,Q
2025-03-19 17:57:53.902,742, 501, 408, -5, -7, -5, -6, 4, 15, 956, 860, 26,Q
2025-03-19 17:57:53.910,734, 523, 414, -7, -5, -7, -6, 4, 14, 959, 866, 40,Q
2025-03-19 17:57:53.918,734, 550, 438, -11, -4, -7, -4, 4, 15, 958, 871, 36,Q
2025-03-19 17:57:53.931,741, 543, 419, -19, -4, -6, -4, 5, 15, 959, 878, 25,Q
2025-03-19 17:57:53.939,676, 509, 455, -22, -3, -10, -6, 4, 16, 962, 888, 40,Q
2025-03-19 17:57:53.948,717, 542, 488, -30, -3, -11, -6, 4, 13, 963, 894, 23,Q
2025-03-19 17:57:53.956,715, 431, 520, -19, -5, -13, -6, 3, 13, 964, 900, 11,Q
2025-03-19 17:57:53.965,783, 458, 487, -18, -1, -16, -5, 4, 14, 964, 902, 11,Q
2025-03-19 17:57:53.972,551, 377, 455, -4, 1, -20, -6, 4, 15, 965, 902, 21,Q
2025-03-19 17:57:53.981,535, 385, 467, 0, 5, -24, -6, 4, 15, 967, 899, 9,Q
2025-03-19 17:57:53.990,280, 394, 366, 26, 14, -27, -6, 5, 14, 968, 895, 46,Q
2025-03-19 17:57:54.001,882, 270, 538, 54, 13, -24, -6, 5, 15, 968, 898, 37,Q
2025-03-19 17:57:54.009,806, 638, 331, 65, 31, 0, -4, 3, 15, 971, 893, 42,Q
2025-03-19 17:57:54.017,767, 853, 336, 39, 37, 16, -5, 4, 15, 972, 899, 33,Q
2025-03-19 17:57:54.025,1029, 857, 137, 8, 37, 39, -7, 3, 14, 973, 907, 45,Q
2025-03-19 17:57:54.034,1145, 974, 139, -33, 45, 53, -4, 3, 13, 975, 911, 50,Q
2025-03-19 17:57:54.040,1157, 907, 270, -52, 38, 71, -4, 3, 14, 977, 918, 38,Q
2025-03-19 17:57:54.053,751, 703, 95, -77, 36, 80, -4, 6, 12, 980, 924, 18,Q
2025-03-19 17:57:54.062,887, 443, 306, -73, 35, 69, -5, 5, 14, 979, 929, 14,Q
2025-03-19 17:57:54.070,715, 341, 548, -45, 13, 48, -5, 5, 14, 978, 933, 9,Q
2025-03-19 17:57:54.077,723, 361, 524, -49, 4, 29, -4, 6, 13, 979, 938, 19,Q
2025-03-19 17:57:54.087,639, 535, 665, -60, -10, 17, -4, 5, 14, 978, 942, 15,Q
2025-03-19 17:57:54.099,690, 554, 491, -70, -15, 9, -5, 8, 13, 977, 943, 22,Q
2025-03-19 17:57:54.106,487, 177, 909, -39, -37, -15, -5, 5, 13, 975, 947, 26,Q
2025-03-19 17:57:54.116,750, 118, 562, -15, -39, -40, -5, 8, 12, 972, 947, 29,Q
2025-03-19 17:57:54.123,662, 328, 515, 10, -36, -53, -5, 5, 13, 970, 946, 42,Q
2025-03-19 17:57:54.131,595, 269, 646, 28, -40, -58, -5, 8, 11, 967, 944, 42,Q
2025-03-19 17:57:54.141,1381, 393, 318, 48, -34, -49, -4, 5, 13, 963, 938, 23,Q
2025-03-19 17:57:54.149,746, 361, 526, 42, -20, -47, -5, 6, 13, 963, 933, 23,Q
2025-03-19 17:57:54.160,692, 381, 432, 51, -16, -43, -5, 6, 13, 960, 928, 28,Q
2025-03-19 17:57:54.168,863, 458, 327, 58, -7, -38, -4, 3, 15, 958, 917, 24,Q
2025-03-19 17:57:54.173,887, 516, 326, 65, 2, -30, -6, 6, 14, 955, 907, 46,Q
2025-03-19 17:57:54.183,912, 672, 229, 44, 18, -18, -5, 4, 14, 956, 897, 31,Q
2025-03-19 17:57:54.193,927, 699, 172, 13, 38, -9, -5, 5, 14, 956, 886, 35,Q
2025-03-19 17:57:54.202,844, 646, 211, -9, 52, -5, -4, 5, 15, 959, 874, 25,Q
2025-03-19 17:57:54.214,705, 598, 361, -17, 52, 0, -3, 4, 13, 962, 861, 28,Q
2025-03-19 17:57:54.221,591, 579, 516, -19, 41, 4, -5, 3, 13, 963, 845, 29,Q
2025-03-19 17:57:54.230,487, 605, 648, -18, 21, 8, -4, 4, 11, 965, 841, 11,Q
2025-03-19 17:57:54.238,479, 608, 763, -7, -5, 16, -5, 4, 14, 965, 848, 24,Q
2025-03-19 17:57:54.247,469, 643, 796, 2, -30, 26, -5, 4, 14, 968, 861, 24,Q
2025-03-19 17:57:54.255,484, 658, 758, 6, -46, 40, -6, 6, 12, 971, 886, 40,Q
2025-03-19 17:57:54.263,1916, -40, 78, -48, -16, 2, -4, 5, 15, 974, 907, 45,Q
2025-03-19 17:57:54.273,913, 735, 605, 5, -11, 9, -5, 5, 13, 978, 919, 41,Q
2025-03-19 17:57:54.283,908, 906, 362, -53, -15, 25, -5, 4, 14, 979, 929, 43,Q
2025-03-19 17:57:54.291,878, 738, 268, -55, -2, 41, -5, 6, 14, 981, 935, 22,Q
2025-03-19 17:57:54.300,884, 519, 297, -34, 7, 51, -4, 4, 14, 983, 936, 39,Q
2025-03-19 17:57:54.308,590, 441, 630, -44, 0, 52, -5, 6, 11, 983, 938, 35,Q
2025-03-19 17:57:54.317,769, 292, 360, -16, 6, 47, -5, 6, 15, 984, 936, 22,Q
2025-03-19 17:57:54.323,535, 533, 357, -19, 13, 52, -6, 6, 13, 984, 935, 10,Q
2025-03-19 17:57:54.336,743, 465, 360, -16, 16, 48, -6, 6, 13, 986, 929, 24,Q
2025-03-19 17:57:54.340,803, 308, 465, 2, 14, 36, -4, 6, 15, 980, 922, 27,Q
2025-03-19 17:57:54.353,746, 329, 580, 18, 11, 21, -6, 7, 13, 978, 911, 32,Q
2025-03-19 17:57:54.360,816, 289, 517, 21, 14, -1, -4, 6, 14, 977, 907, 44,Q
2025-03-19 17:57:54.370,911, 110, 280, 26, 24, -36, -5, 8, 11, 973, 899, 36,Q
2025-03-19 17:57:54.374,916, 251, 229, 35, 42, -59, -4, 7, 13, 969, 885, 44,Q
2025-03-19 17:57:54.385,827, 426, 228, 36, 54, -68, -4, 6, 11, 964, 860, 39,Q
2025-03-19 17:57:54.398,701, 455, 279, 31, 60, -70, -5, 7, 13, 956, 828, 46,Q
2025-03-19 17:57:54.406,653, 432, 322, 23, 66, -75, -5, 6, 10, 948, 774, 27,Q
2025-03-19 17:57:54.414,657, 409, 458, 6, 68, -78, -5, 5, 12, 940, 741, 8,Q
2025-03-19 17:57:54.422,619, 481, 642, -7, 65, -73, -5, 5, 12, 935, 699, 26,Q
2025-03-19 17:57:54.431,570, 571, 734, -5, 54, -61, -4, 5, 9, 929, 668, 26,Q
2025-03-19 17:57:54.440,528, 659, 851, -3, 37, -47, -4, 5, 9, 924, 656, 28,Q
2025-03-19 17:57:54.451,530, 650, 899, 4, 17, -30, -4, 5, 8, 921, 646, 17,Q
2025-03-19 17:57:54.460,512, 619, 905, 10, -3, -17, -3, 5, 8, 916, 643, 22,Q
2025-03-19 17:57:54.467,493, 581, 853, 12, -20, -8, -4, 5, 8, 914, 656, 40,Q
2025-03-19 17:57:54.477,525, 551, 705, 11, -28, -2, -2, 5, 8, 913, 663, 43,Q
2025-03-19 17:57:54.485,538, 534, 584, 17, -35, 1, -2, 3, 9, 912, 669, 47,Q
2025-03-19 17:57:54.492,583, 526, 535, 24, -39, 3, -5, 4, 10, 911, 664, 28,Q
2025-03-19 17:57:54.502,679, 531, 500, 30, -39, 6, -5, 4, 10, 910, 664, 35,Q
2025-03-19 17:57:54.512,775, 582, 474, 20, -35, 10, -4, 4, 10, 909, 675, 18,Q
2025-03-19 17:57:54.820,793, 562, 286, -55, -21, -10, -4, 4, 14, 931, 797, 21,R
2025-03-19 17:57:54.830,991, 529, 274, -35, -8, -5, -6, 5, 13, 938, 820, 29,R
2025-03-19 17:57:54.840,707, 540, 490, -34, -6, -2, -5, 3, 14, 944, 840, 26,R
2025-03-19 17:57:54.850,781, 383, 466, -33, -5, -2, -6, 4, 12, 951, 855, 20,R
2025-03-19 17:57:54.860,745, 254, 502, -13, -2, -6, -6, 5, 14, 955, 861, 18,R
2025-03-19 17:57:54.869,925, 359, 647, 19, -1, 0, -4, 6, 13, 962, 859, 38,R
2025-03-19 17:57:54.874,720, 517, 604, 23, 2, 12, -5, 4, 15, 966, 860, 37,R
2025-03-19 17:57:54.883,895, 897, 257, 27, 21, 48, -4, 3, 13, 969, 863, 21,R
2025-03-19 17:57:54.892,561, 815, 411, 27, 41, 53, -5, 5, 15, 973, 864, 19,R
2025-03-19 17:57:54.902,756, 665, 331, -6, 52, 63, -5, 5, 15, 975, 861, 27,R
2025-03-19 17:57:54.911,787, 594, 424, 1, 50, 74, -4, 7, 11, 973, 855, 47,R
2025-03-19 17:57:54.921,482, 328, 770, -34, 26, 42, -4, 5, 14, 975, 853, 26,R
2025-03-19 17:57:54.930,877, 469, 129, 3, 24, 38, -4, 5, 13, 974, 854, 25,R
2025-03-19 17:57:54.938,864, 466, 307, -6, 19, 29, -4, 4, 13, 972, 856, 24,R
2025-03-19 17:57:54.947,762, 371, 321, 9, 13, 11, -4, 6, 13, 969, 861, 20,R
2025-03-19 17:57:54.954,750, 658, 222, -12, 18, 10, -3, 4, 12, 967, 871, 24,R
2025-03-19 17:57:54.964,686, 415, 555, -24, 3, -7, -5, 7, 12, 963, 873, 35,R
2025-03-19 17:57:54.972,815, -63, 763, 12, -34, -42, -3, 6, 13, 960, 879, 12,R
2025-03-19 17:57:54.983,593, -88, 774, 36, -44, -73, -5, 7, 12, 956, 881, 27,R
2025-03-19 17:57:54.990,623, 152, 606, 63, -51, -87, -5, 7, 12, 953, 893, 27,R
2025-03-19 17:57:55.000,756, 608, 584, 70, -53, -73, -5, 4, 13, 953, 901, 34,R
2025-03-19 17:57:55.008,861, 947, 375, 17, -46, -39, -5, 4, 13, 958, 914, 37,R
2025-03-19 17:57:55.017,963, 945, 368, -43, -31, -15, -4, 3, 14, 963, 929, 44,R
2025-03-19 17:57:55.025,624, 612, 496, -64, -31, -3, -4, 5, 13, 969, 939, 40,R
2025-03-19 17:57:55.037,873, 375, 520, -39, -23, 6, -5, 3, 14, 971, 942, 27,R
2025-03-19 17:57:55.040,769, 377, 668, -12, -22, 9, -4, 5, 14, 973, 944, 28,R
2025-03-19 17:57:55.052,641, 637, 551, -21, -19, 15, -7, 5, 14, 976, 943, 39,R
2025-03-19 17:57:55.060,631, 678, 378, -1, -10, 27, -6, 4, 14, 979, 944, 23,R
2025-03-19 17:57:55.068,522, 773, 339, -11, 2, 37, -5, 4, 15, 980, 943, 11,R
2025-03-19 17:57:55.076,761, 793, 283, -38, 18, 31, -5, 4, 15, 981, 944, 16,R
2025-03-19 17:57:55.087,779, 349, 376, 9, 24, 31, -5, 4, 14, 979, 940, 30,R
2025-03-19 17:57:55.098,511, 780, 421, -7, 30, 46, -4, 4, 14, 980, 940, 27,R
2025-03-19 17:57:55.106,843, 613, 383, -25, 27, 40, -5, 4, 15, 980, 938, 36,R
2025-03-19 17:57:55.115,482, 339, 429, -24, 23, 32, -5, 6, 14, 979, 938, 34,R
2025-03-19 17:57:55.121,773, 603, 351, -20, 26, 30, -5, 6, 14, 979, 935, 40,R
2025-03-19 17:57:55.131,981, 242, 391, -3, 12, 19, -6, 6, 14, 979, 932, 52,R
2025-03-19 17:57:55.139,896, 465, 222, -6, 17, 21, -5, 8, 13, 979, 928, 36,R
2025-03-19 17:57:55.151,935, 474, 342, -7, 23, 26, -6, 6, 13, 979, 927, 17,R
2025-03-19 17:57:55.154,913, 697, 452, -24, 24, 39, -5, 4, 14, 979, 925, 26,R
2025-03-19 17:57:55.168,919, 465, 527, -12, 18, 53, -5, 4, 14, 979, 921, 18,R
2025-03-19 17:57:55.170,841, 133, 605, -10, 10, 31, -4, 8, 11, 976, 918, 24,R
2025-03-19 17:57:55.183,798, 126, 626, 1, 3, 8, -5, 6, 14, 975, 918, 28,R
2025-03-19 17:57:55.190,909, 65, 444, 13, 8, -23, -6, 7, 11, 973, 915, 31,R
2025-03-19 17:57:55.205,888, 205, 333, 15, 22, -44, -4, 8, 14, 973, 914, 35,R
2025-03-19 17:57:55.213,776, 451, 281, 13, 35, -49, -6, 8, 13, 968, 907, 25,R
2025-03-19 17:57:55.221,644, 522, 338, 2, 41, -44, -4, 5, 13, 966, 900, 41,R
2025-03-19 17:57:55.230,587, 490, 475, -4, 41, -38, -5, 7, 11, 963, 895, 37,R
2025-03-19 17:57:55.238,590, 502, 608, -8, 37, -35, -2, 4, 11, 962, 890, 29,R
2025-03-19 17:57:55.246,595, 537, 753, -8, 27, -33, -4, 8, 10, 960, 887, 24,R
2025-03-19 17:57:55.254,566, 549, 810, -6, 12, -31, -4, 8, 10, 959, 883, 31,R
2025-03-19 17:57:55.265,545, 562, 758, -6, -2, -26, -4, 5, 11, 958, 879, 39,R
2025-03-19 17:57:55.570,839, 394, 432, 8, 4, -12, -5, 7, 14, 968, 917, 47,S
2025-03-19 17:57:55.580,747, 289, 585, 10, 1, -20, -7, 6, 14, 969, 918, 24,S
2025-03-19 17:57:55.594,646, 391, 352, 21, 7, -20, -4, 6, 14, 971, 922, 21,S
2025-03-19 17:57:55.602,906, 414, 517, 32, 3, -19, -4, 5, 14, 972, 922, 29,S
2025-03-19 17:57:55.614,752, 537, 316, 40, 9, -11, -5, 7, 14, 975, 923, 24,S
2025-03-19 17:57:55.622,812, 503, 341, 38, 17, 1, -7, 4, 13, 975, 929, 24,S
2025-03-19 17:57:55.630,1031, 538, 587, -5, 20, 18, -3, 5, 14, 978, 932, 31,S
2025-03-19 17:57:55.639,831, 769, 274, 14, 27, 34, -5, 5, 14, 978, 934, 22,S
2025-03-19 17:57:55.647,779, 791, 409, -4, 25, 53, -5, 5, 14, 981, 936, 33,S
2025-03-19 17:57:55.655,507, 429, 437, -30, 36, 49, -5, 5, 13, 982, 939, 40,S
2025-03-19 17:57:55.668,445, 176, 633, -11, 24, 31, -3, 6, 13, 980, 936, 42,S
2025-03-19 17:57:55.672,676, 555, 486, -1, 17, 35, -4, 6, 14, 983, 938, 39,S
2025-03-19 17:57:55.684,637, 647, 320, -14, 21, 32, -4, 5, 12, 982, 940, 36,S
2025-03-19 17:57:55.690,626, 558, 512, -8, 16, 23, -5, 7, 11, 981, 939, 35,S
2025-03-19 17:57:55.700,650, 711, 492, -22, 18, 29, -4, 6, 11, 982, 939, 28,S
2025-03-19 17:57:55.708,608, 485, 534, -23, 15, 23, -5, 6, 13, 981, 937, 22,S
2025-03-19 17:57:55.718,777, 435, 567, -9, 8, 18, -4, 5, 11, 978, 931, 10,S
2025-03-19 17:57:55.723,606, 466, 409, -11, 12, 12, -6, 8, 13, 977, 923, 16,S
2025-03-19 17:57:55.737,827, 291, 382, 7, 20, 3, -6, 8, 13, 971, 908, 17,S
2025-03-19 17:57:55.744,1101, 305, 499, 32, 22, -7, -5, 7, 12, 966, 894, 40,S
2025-03-19 17:57:55.753,700, 223, 488, 30, 15, -22, -5, 9, 11, 960, 877, 46,S
2025-03-19 17:57:55.762,903, 122, 520, 54, 12, -34, -3, 6, 13, 953, 862, 37,S
2025-03-19 17:57:55.770,927, 177, 528, 62, 5, -45, -3, 7, 11, 949, 842, 46,S
2025-03-19 17:57:55.782,1153, 401, 343, 49, 11, -47, -3, 6, 12, 947, 837, 41,S
2025-03-19 17:57:55.790,1197, 604, 224, 18, 28, -45, -4, 7, 11, 946, 847, 34,S
2025-03-19 17:57:55.799,999, 643, 163, -19, 47, -38, -3, 5, 13, 948, 852, 32,S
2025-03-19 17:57:55.806,850, 546, 257, -39, 58, -33, -4, 6, 8, 947, 861, 19,S
2025-03-19 17:57:55.816,645, 438, 473, -39, 58, -31, -3, 5, 11, 948, 863, 22,S
2025-03-19 17:57:55.822,576, 428, 689, -33, 48, -30, -3, 5, 11, 948, 862, 15,S
2025-03-19 17:57:55.832,538, 505, 807, -26, 33, -28, -4, 7, 8, 948, 863, 23,S
2025-03-19 17:57:55.841,495, 571, 887, -21, 15, -22, -4, 5, 10, 950, 867, 26,S
2025-03-19 17:57:55.853,433, 615, 871, -17, -4, -14, -4, 5, 7, 951, 869, 36,S
2025-03-19 17:57:55.860,401, 609, 824, -14, -21, -8, -3, 4, 9, 951, 871, 29,S
2025-03-19 17:57:55.867,430, 569, 715, -10, -31, -6, -4, 6, 6, 951, 873, 37,S
2025-03-19 17:57:55.877,492, 559, 616, -2, -36, -3, -3, 6, 8, 952, 876, 44,S
2025-03-19 17:57:55.886,511, 577, 603, 5, -38, 2, -3, 5, 9, 951, 877, 54,S
2025-03-19 17:57:55.890,580, 577, 592, 5, -41, 7, -3, 5, 10, 953, 877, 40,S
2025-03-19 17:57:56.188,793, 459, 503, -21, -5, -7, -7, 4, 14, 960, 879, 22,T
2025-03-19 17:57:56.196,807, 503, 441, -18, -6, -5, -4, 5, 13, 961, 889, 33,T
2025-03-19 17:57:56.203,749, 365, 392, -1, -4, -8, -6, 4, 14, 965, 900, 34,T
2025-03-19 17:57:56.213,900, 226, 401, 41, -4, -10, -4, 6, 14, 969, 911, 21,T
2025-03-19 17:57:56.221,1251, 616, 572, 45, -16, 7, -4, 5, 13, 971, 921, 15,T
2025-03-19 17:57:56.230,928, 1084, 579, 20, -29, 36, -5, 5, 16, 974, 930, 28,T
2025-03-19 17:57:56.241,783, 1017, 365, -12, -17, 49, -5, 4, 15, 976, 934, 20,T
2025-03-19 17:57:56.249,854, 465, 346, -24, -12, 59, -5, 6, 13, 975, 935, 35,T
2025-03-19 17:57:56.256,456, 452, 309, -16, -9, 50, -6, 4, 14, 978, 936, 30,T
2025-03-19 17:57:56.265,671, 398, 394, -14, -6, 36, -5, 8, 14, 978, 934, 38,T
2025-03-19 17:57:56.273,670, 266, 404, 3, 2, 20, -5, 8, 14, 977, 931, 21,T
2025-03-19 17:57:56.284,669, 631, 564, 15, -3, 18, -6, 4, 15, 977, 928, 45,T
2025-03-19 17:57:56.292,687, 533, 428, 5, 0, 16, -7, 5, 13, 976, 925, 34,T
2025-03-19 17:57:56.302,683, 429, 520, 18, 2, 10, -5, 5, 16, 975, 917, 34,T
2025-03-19 17:57:56.309,661, 443, 496, 26, 0, 3, -6, 5, 14, 973, 911, 30,T
2025-03-19 17:57:56.318,733, 418, 480, 31, 1, -4, -5, 4, 14, 970, 906, 28,T
2025-03-19 17:57:56.326,593, 345, 465, 22, 2, -20, -7, 7, 14, 967, 901, 28,T
2025-03-19 17:57:56.336,725, 183, 345, 23, 7, -42, -6, 5, 15, 966, 900, 21,T
2025-03-19 17:57:56.345,686, 335, 317, 22, 14, -56, -7, 6, 14, 963, 893, 8,T
2025-03-19 17:57:56.353,632, 523, 405, 8, 17, -56, -7, 6, 14, 962, 887, 23,T
2025-03-19 17:57:56.364,625, 665, 492, -16, 15, -43, -6, 4, 16, 961, 887, 40,T
2025-03-19 17:57:56.372,685, 685, 536, -18, 9, -19, -6, 8, 13, 963, 890, 35,T
2025-03-19 17:57:56.381,766, 711, 675, -14, -2, 6, -5, 3, 15, 964, 896, 42,T
2025-03-19 17:57:56.389,716, 668, 796, -23, -16, 22, -5, 5, 13, 969, 909, 33,T
2025-03-19 17:57:56.398,1089, 77, 469, -28, -10, 4, -4, 3, 15, 974, 918, 43,T
2025-03-19 17:57:56.405,997, 411, 534, 4, 1, 10, -8, 6, 13, 977, 919, 30,T
2025-03-19 17:57:56.417,781, 641, 458, -12, 1, 19, -5, 4, 15, 978, 923, 25,T
2025-03-19 17:57:56.424,869, 685, 272, -5, 20, 32, -6, 6, 13, 982, 921, 26,T
2025-03-19 17:57:56.435,468, 594, 292, 13, 38, 53, -5, 4, 15, 982, 921, 12,T
2025-03-19 17:57:56.440,847, 892, 339, -29, 48, 66, -5, 4, 15, 983, 920, 24,T
2025-03-19 17:57:56.451,919, 84, 415, -29, 36, 47, -4, 7, 15, 982, 918, 23,T
2025-03-19 17:57:56.455,431, 865, 126, 26, 33, 42, -5, 5, 14, 981, 912, 27,T
2025-03-19 17:57:56.467,941, 597, 362, -16, 26, 35, -6, 6, 12, 981, 909, 37,T
2025-03-19 17:57:56.474,864, 353, 277, 9, 22, 21, -4, 5, 13, 979, 904, 42,T
2025-03-19 17:57:56.487,772, 489, 313, 5, 19, 13, -5, 6, 14, 978, 894, 54,T
2025-03-19 17:57:56.495,720, 475, 236, 8, 18, 7, -3, 6, 14, 974, 887, 49,T
2025-03-19 17:57:56.503,829, 482, 350, 5, 21, 4, -5, 6, 11, 971, 870, 40,T
2025-03-19 17:57:56.511,839, 172, 662, 25, 1, -22, -4, 7, 14, 966, 853, 22,T
2025-03-19 17:57:56.520,970, -15, 524, 46, -10, -57, -3, 7, 11, 961, 842, 16,T
2025-03-19 17:57:56.528,1032, 61, 404, 64, 2, -85, -3, 7, 11, 948, 821, 25,T
2025-03-19 17:57:56.537,978, 435, 250, 67, 22, -89, -4, 4, 13, 936, 814, 22,T
2025-03-19 17:57:56.548,869, 829, 176, 13, 40, -69, -6, 5, 12, 930, 805, 28,T
2025-03-19 17:57:56.556,650, 863, 293, -48, 50, -44, -4, 3, 13, 930, 814, 27,T
2025-03-19 17:57:56.564,538, 613, 486, -58, 51, -30, -5, 5, 11, 930, 818, 25,T
2025-03-19 17:57:56.572,508, 453, 625, -50, 46, -27, -4, 4, 10, 928, 819, 21,T
2025-03-19 17:57:56.582,475, 444, 847, -33, 31, -25, -4, 7, 10, 928, 822, 41,T
2025-03-19 17:57:56.593,443, 547, 991, -16, 15, -18, -4, 6, 9, 928, 821, 39,T
2025-03-19 17:57:56.602,431, 608, 941, -7, -10, -7, -3, 6, 9, 928, 819, 26,T
2025-03-19 17:57:56.607,481, 588, 761, 0, -26, 1, -4, 2, 10, 929, 815, 29,T
2025-03-19 17:57:56.619,529, 572, 588, 2, -31, 5, -4, 2, 10, 930, 814, 31,T
2025-03-19 17:57:56.904,731, 298, 442, 11, -2, -7, -6, 5, 13, 960, 853, 44,U
2025-03-19 17:57:56.914,760, 396, 570, 37, 2, -2, -5, 3, 14, 961, 846, 43,U
2025-03-19 17:57:56.929,741, 493, 499, 45, 8, 5, -5, 6, 14, 965, 838, 41,U
2025-03-19 17:57:56.937,680, 547, 460, 36, 13, 10, -6, 4, 14, 968, 840, 35,U
2025-03-19 17:57:56.946,668, 579, 250, 61, 34, 36, -6, 6, 13, 970, 835, 14,U
2025-03-19 17:57:56.953,645, 647, 438, 28, 33, 43, -5, 4, 14, 971, 840, 23,U
2025-03-19 17:57:56.963,601, 760, 254, 10, 39, 51, -6, 6, 12, 973, 845, 20,U
2025-03-19 17:57:56.972,1083, 500, 417, 17, 32, 57, -5, 4, 14, 973, 851, 16,U
2025-03-19 17:57:56.983,719, 588, 388, -4, 17, 48, -5, 6, 12, 973, 860, 11,U
2025-03-19 17:57:56.990,796, 476, 192, -4, 18, 42, -5, 6, 12, 974, 863, 13,U
2025-03-19 17:57:56.999,937, 197, 361, 19, 9, 26, -5, 5, 14, 973, 877, 20,U
2025-03-19 17:57:57.004,885, 859, 367, 5, 13, 28, -5, 7, 13, 972, 894, 39,U
2025-03-19 17:57:57.016,743, 540, 240, -44, 16, 27, -5, 4, 14, 972, 905, 36,U
2025-03-19 17:57:57.024,799, 493, 627, -35, 2, 22, -4, 8, 11, 970, 912, 45,U
2025-03-19 17:57:57.036,699, 394, 569, -48, -14, 3, -5, 3, 13, 969, 920, 51,U
2025-03-19 17:57:57.040,620, 38, 654, -15, -23, -10, -6, 7, 11, 967, 921, 42,U
2025-03-19 17:57:57.051,868, 286, 662, 10, -33, -24, -5, 6, 14, 964, 920, 34,U
2025-03-19 17:57:57.060,673, 399, 581, -3, -41, -41, -5, 7, 13, 960, 920, 15,U
2025-03-19 17:57:57.067,663, 309, 493, -9, -40, -47, -5, 5, 15, 958, 921, 19,U
2025-03-19 17:57:57.076,670, 463, 631, -23, -47, -51, -5, 5, 15, 961, 925, 16,U
2025-03-19 17:57:57.088,765, 595, 391, -15, -22, -25, -5, 6, 12, 960, 928, 22,U
2025-03-19 17:57:57.097,698, 507, 639, -11, -9, -8, -5, 5, 14, 965, 928, 27,U
2025-03-19 17:57:57.105,683, 194, 754, -3, -12, -11, -5, 8, 12, 969, 927, 23,U
2025-03-19 17:57:57.114,742, 343, 601, 26, -6, -8, -5, 5, 13, 971, 926, 27,U
2025-03-19 17:57:57.121,929, 602, 625, 25, 0, 4, -6, 6, 13, 975, 924, 50,U
2025-03-19 17:57:57.131,580, 586, 293, 21, 17, 16, -4, 4, 14, 975, 921, 46,U
2025-03-19 17:57:57.138,790, 771, 350, 28, 27, 40, -7, 6, 14, 977, 918, 34,U
2025-03-19 17:57:57.150,778, 1067, 350, -27, 34, 54, -6, 6, 13, 979, 919, 29,U
2025-03-19 17:57:57.154,786, 394, 74, -40, 36, 44, -6, 6, 13, 980, 921, 22,U
2025-03-19 17:57:57.167,406, 228, 321, 1, 33, 35, -5, 6, 14, 980, 916, 35,U
2025-03-19 17:57:57.176,863, 660, 301, -16, 28, 32, -6, 6, 14, 980, 915, 31,U
2025-03-19 17:57:57.184,849, 438, 245, 3, 20, 26, -5, 5, 13, 978, 909, 33,U
2025-03-19 17:57:57.191,802, 400, 300, 4, 18, 16, -4, 7, 14, 975, 903, 26,U
2025-03-19 17:57:57.200,787, 490, 395, -1, 15, 7, -5, 6, 11, 973, 894, 26,U
2025-03-19 17:57:57.204,842, 300, 653, 6, -3, -12, -4, 7, 12, 969, 880, 24,U
2025-03-19 17:57:57.219,855, 84, 622, 11, -13, -42, -4, 6, 11, 968, 881, 21,U
2025-03-19 17:57:57.227,842, 119, 420, 26, -5, -65, -6, 5, 13, 961, 875, 30,U
2025-03-19 17:57:57.236,800, 427, 353, 35, 6, -69, -5, 5, 11, 953, 866, 26,U
2025-03-19 17:57:57.244,795, 690, 372, 21, 13, -56, -5, 5, 11, 945, 858, 40,U
2025-03-19 17:57:57.253,739, 681, 420, -10, 20, -38, -3, 8, 12, 936, 855, 44,U
2025-03-19 17:57:57.264,673, 508, 500, -21, 24, -27, -3, 4, 10, 931, 852, 42,U
2025-03-19 17:57:57.554,754, 397, 464, -35, 2, 0, -5, 3, 14, 952, 892, 30,V
2025-03-19 17:57:57.564,742, 406, 605, -21, -3, -3, -6, 5, 13, 956, 900, 18,V
2025-03-19 17:57:57.576,735, 464, 573, -17, -7, -4, -5, 5, 14, 959, 904, 27,V
2025-03-19 17:57:57.585,734, 433, 488, -10, -7, -7, -4, 4, 13, 961, 909, 34,V
2025-03-19 17:57:57.593,730, 488, 483, 0, -6, -6, -4, 5, 13, 964, 911, 41,V
2025-03-19 17:57:57.601,741, 564, 450, 4, -6, -4, -5, 6, 12, 965, 910, 37,V
2025-03-19 17:57:57.606,753, 550, 428, -3, -5, 0, -5, 5, 14, 969, 912, 29,V
2025-03-19 17:57:57.616,801, 524, 486, -2, -2, 4, -4, 4, 11, 970, 914, 19,V
2025-03-19 17:57:57.626,735, 416, 532, 13, -5, 5, -4, 4, 11, 975, 915, 24,V
2025-03-19 17:57:57.634,711, 658, 327, 9, 8, 20, -5, 4, 13, 975, 915, 31,V
2025-03-19 17:57:57.645,964, 521, 582, 14, 16, 42, -5, 4, 12, 976, 915, 22,V
2025-03-19 17:57:57.651,736, 652, 394, 4, 25, 52, -5, 4, 16, 977, 911, 20,V
2025-03-19 17:57:57.662,475, 591, 360, -8, 30, 58, -5, 6, 14, 977, 910, 30,V
2025-03-19 17:57:57.671,883, 570, 477, -1, 30, 52, -3, 4, 14, 978, 907, 29,V
2025-03-19 17:57:57.679,729, 476, 489, -12, 18, 53, -5, 5, 12, 979, 904, 45,V
2025-03-19 17:57:57.687,751, 586, 352, -8, 16, 43, -3, 5, 14, 980, 902, 34,V
2025-03-19 17:57:57.699,564, 202, 281, -24, 19, 26, -5, 6, 12, 977, 902, 21,V
2025-03-19 17:57:57.707,898, 483, 432, 10, 18, 24, -5, 6, 12, 979, 900, 36,V
2025-03-19 17:57:57.717,763, 759, 441, -18, 16, 29, -2, 6, 13, 979, 903, 37,V
2025-03-19 17:57:57.723,641, 407, 451, -32, 10, 21, -5, 5, 14, 978, 910, 32,V
2025-03-19 17:57:57.732,792, 463, 508, -29, 8, 18, -3, 6, 14, 978, 916, 42,V
2025-03-19 17:57:57.738,666, 490, 484, -42, 4, 13, -5, 6, 13, 978, 922, 44,V
2025-03-19 17:57:57.750,820, 406, 578, -41, -6, 6, -5, 7, 12, 978, 929, 24,V
2025-03-19 17:57:57.756,809, 294, 592, -37, -21, -10, -4, 7, 10, 975, 934, 22,V
2025-03-19 17:57:57.767,733, 283, 457, -34, -28, -24, -5, 8, 11, 974, 940, 33,V
2025-03-19 17:57:57.777,888, 248, 538, -31, -22, -35, -4, 8, 14, 976, 945, 29,V
2025-03-19 17:57:57.787,1053, 521, 574, -29, -42, -35, -5, 8, 14, 976, 948, 12,V
2025-03-19 17:57:57.794,693, 591, 323, -49, -30, -30, -5, 8, 13, 975, 951, 12,V
2025-03-19 17:57:57.805,523, 213, 604, -34, -29, -32, -5, 8, 13, 975, 951, 20,V
2025-03-19 17:57:57.813,642, 259, 546, 1, -23, -29, -5, 6, 14, 975, 953, 42,V
2025-03-19 17:57:57.822,626, 504, 630, 5, -19, -17, -5, 7, 14, 976, 954, 47,V
2025-03-19 17:57:57.830,716, 565, 439, 3, -11, -7, -5, 7, 14, 975, 954, 38,V
2025-03-19 17:57:57.839,706, 477, 497, 2, -1, -3, -4, 6, 14, 976, 951, 46,V
2025-03-19 17:57:57.847,733, 435, 568, 3, -4, -4, -4, 8, 14, 975, 952, 31,V
2025-03-19 17:57:57.855,764, 462, 471, 1, -6, -4, -5, 6, 15, 975, 953, 26,V
2025-03-19 17:57:57.863,761, 462, 446, 3, -4, -4, -6, 7, 13, 979, 951, 36,V
2025-03-19 17:57:57.874,772, 506, 420, 3, -2, -2, -4, 5, 13, 978, 952, 15,V
2025-03-19 17:57:57.883,761, 516, 411, 2, 0, 0, -4, 5, 13, 978, 950, 15,V
2025-03-19 17:57:57.892,758, 485, 425, -1, 2, 0, -5, 7, 12, 977, 950, 32,V
2025-03-19 17:57:57.901,758, 506, 452, -2, 3, 2, -5, 5, 14, 976, 949, 42,V
2025-03-19 17:57:57.906,754, 471, 488, -3, 4, 2, -7, 9, 14, 977, 950, 46,V
2025-03-19 17:57:57.917,760, 435, 509, 0, 3, 2, -4, 7, 14, 976, 949, 46,V
2025-03-19 17:57:57.924,752, 438, 520, 3, 2, 1, -7, 8, 12, 976, 948, 25,V
2025-03-19 17:57:57.934,754, 417, 513, 5, 0, 0, -4, 6, 13, 976, 947, 28,V
2025-03-19 17:57:57.944,753, 433, 516, 8, -1, -1, -4, 7, 14, 977, 947, 10,V
2025-03-19 17:57:57.952,756, 468, 487, 7, -1, -1, -4, 5, 14, 977, 946, 10,V
2025-03-19 17:57:57.961,759, 476, 462, 6, 0, 0, -4, 5, 14, 977, 945, 15,V
2025-03-19 17:57:57.970,761, 480, 463, 6, 1, 0, -6, 8, 13, 975, 944, 31,V
2025-03-19 17:57:57.977,756, 433, 476, 1, 1, -1, -5, 7, 14, 974, 943, 42,V
2025-03-19 17:57:57.986,752, 431, 512, 3, 0, -2, -6, 6, 14, 976, 943, 35,V
2025-03-19 17:57:57.994,754, 474, 486, 3, -1, -2, -6, 5, 15, 977, 945, 36,V
2025-03-19 17:57:58.003,759, 485, 467, 2, -1, -1, -6, 8, 12, 977, 944, 26,V
2025-03-19 17:57:58.009,755, 488, 480, 0, 0, -1, -5, 6, 14, 976, 944, 31,V
2025-03-19 17:57:58.018,758, 472, 482, 0, -1, 0, -5, 7, 13, 978, 945, 16,V
2025-03-19 17:57:58.030,755, 454, 482, -3, -1, -1, -4, 5, 14, 976, 942, 15,V
2025-03-19 17:57:58.039,754, 430, 479, -2, 0, -2, -4, 5, 14, 977, 945, 18,V
2025-03-19 17:57:58.048,759, 474, 490, -1, -1, -2, -6, 5, 13, 976, 944, 39,V
2025-03-19 17:57:58.056,758, 467, 463, -2, -1, -2, -4, 5, 14, 976, 944, 38,V
2025-03-19 17:57:58.064,757, 468, 476, -2, -1, -2, -5, 5, 12, 976, 944, 39,V
2025-03-19 17:57:58.071,756, 469, 475, -3, -1, -2, -5, 4, 14, 976, 944, 42,V
2025-03-19 17:57:58.084,757, 442, 492, -4, -1, -3, -6, 7, 13, 976, 943, 32,V
2025-03-19 17:57:58.092,759, 461, 482, -2, -1, -3, -5, 5, 15, 978, 944, 36,V
2025-03-19 17:57:58.101,762, 497, 464, -4, -1, -2, -4, 8, 12, 978, 945, 27,V
2025-03-19 17:57:58.106,759, 493, 462, -5, 0, -1, -5, 6, 15, 977, 942, 10,V
2025-03-19 17:57:58.117,758, 487, 479, -5, 0, 0, -5, 6, 15, 977, 943, 13,V
2025-03-19 17:57:58.125,754, 456, 483, -7, 0, 0, -6, 7, 13, 974, 942, 30,V
2025-03-19 17:57:58.134,756, 433, 480, -5, 0, -1, -5, 6, 14, 975, 942, 37,V
2025-03-19 17:57:58.139,758, 473, 481, -3, -1, -1, -5, 6, 13, 976, 942, 35,V
2025-03-19 17:57:58.153,762, 477, 453, -4, 0, 0, -5, 6, 13, 976, 942, 37,V
2025-03-19 17:57:58.155,756, 470, 467, -4, 1, 0, -5, 7, 12, 976, 941, 35,V
2025-03-19 17:57:58.169,761, 465, 486, -4, 1, 0, -4, 5, 14, 975, 942, 31,V
2025-03-19 17:57:58.177,759, 435, 488, -3, 1, -1, -4, 6, 13, 977, 941, 13,V
2025-03-19 17:57:58.187,755, 420, 515, 1, 0, -2, -6, 7, 15, 975, 940, 11,V
2025-03-19 17:57:58.196,755, 472, 490, 1, -1, -2, -6, 7, 15, 976, 940, 13,V
2025-03-19 17:57:58.203,759, 482, 463, 1, 0, -1, -7, 8, 12, 975, 938, 37,V
2025-03-19 17:57:58.210,760, 479, 472, 1, 0, -1, -5, 6, 14, 974, 938, 34,V
2025-03-19 17:57:58.221,760, 453, 485, -3, 0, -1, -5, 6, 13, 973, 939, 41,V
2025-03-19 17:57:58.231,756, 428, 489, -2, 0, -2, -5, 6, 14, 974, 937, 33,V
2025-03-19 17:57:58.238,757, 472, 484, -1, 0, -2, -5, 8, 14, 975, 938, 35,V
2025-03-19 17:57:58.248,754, 488, 466, -3, 0, 0, -4, 6, 14, 975, 938, 23,V
2025-03-19 17:57:58.256,760, 471, 472, -2, 0, 0, -5, 6, 11, 974, 939, 20,V
2025-03-19 17:57:58.265,758, 454, 479, -4, 0, 0, -5, 5, 14, 975, 939, 14,V
2025-03-19 17:57:58.270,754, 438, 499, -2, -1, -1, -5, 5, 14, 976, 939, 19,V
2025-03-19 17:57:58.282,755, 479, 482, -2, -1, -1, -6, 5, 12, 974, 939, 43,V
2025-03-19 17:57:58.292,758, 471, 463, -3, 0, 0, -6, 8, 14, 974, 940, 43,V
2025-03-19 17:57:58.301,761, 467, 479, -2, 0, 0, -5, 7, 13, 975, 941, 41,V
2025-03-19 17:57:58.307,758, 458, 488, -3, 0, 0, -7, 6, 14, 974, 939, 36,V
2025-03-19 17:57:58.318,756, 453, 478, -3, 0, -1, -7, 6, 14, 976, 940, 37,V
2025-03-19 17:57:58.324,757, 465, 467, -4, 0, 0, -5, 6, 14, 975, 938, 21,V
2025-03-19 17:57:58.335,757, 461, 467, -4, 0, -1, -7, 7, 13, 976, 941, 13,V
2025-03-19 17:57:58.339,759, 463, 463, -3, 1, -1, -6, 8, 13, 976, 939, 21,V
2025-03-19 17:57:58.352,762, 466, 475, -3, 1, 0, -6, 8, 13, 976, 940, 14,V
2025-03-19 17:57:58.362,754, 443, 494, -3, 1, -1, -6, 7, 14, 974, 940, 43,V
2025-03-19 17:57:58.371,758, 455, 505, -2, 0, -1, -5, 7, 15, 974, 939, 36,V
2025-03-19 17:57:58.378,757, 466, 480, -1, 0, -1, -6, 5, 14, 974, 940, 40,V
2025-03-19 17:57:58.387,755, 470, 471, -1, 0, -1, -5, 7, 14, 975, 940, 36,V
2025-03-19 17:57:58.396,758, 449, 492, 1, 0, -1, -5, 5, 13, 975, 939, 27,V
2025-03-19 17:57:58.403,757, 443, 490, 2, 0, -1, -6, 7, 14, 975, 937, 22,V
2025-03-19 17:57:58.412,760, 471, 475, 1, 0, -2, -4, 6, 13, 976, 938, 15,V
2025-03-19 17:57:58.421,757, 481, 465, 1, 0, -1, -5, 7, 12, 975, 937, 21,V
2025-03-19 17:57:58.429,757, 473, 470, 0, 0, 0, -5, 7, 12, 975, 939, 14,V
2025-03-19 17:57:58.438,757, 475, 471, -1, 1, 0, -6, 6, 14, 973, 938, 40,V
2025-03-19 17:57:58.448,752, 473, 483, -3, 1, 0, -8, 7, 14, 974, 938, 45,V
2025-03-19 17:57:58.455,756, 467, 478, -4, 0, 1, -5, 6, 13, 973, 939, 41,V
2025-03-19 17:57:58.466,753, 468, 481, -4, 1, 1, -6, 6, 13, 972, 938, 43,V
2025-03-19 17:57:58.470,760, 456, 484, -4, 1, 1, -4, 5, 15, 973, 937, 36,V
2025-03-19 17:57:58.483,760, 455, 483, -4, 0, 0, -7, 7, 12, 975, 937, 25,V
2025-03-19 17:57:58.490,757, 443, 501, -3, 0, 0, -4, 6, 14, 974, 939, 14,V
2025-03-19 17:57:58.498,758, 436, 498, 0, -1, -1, -4, 6, 14, 973, 939, 14,V
2025-03-19 17:57:58.504,758, 445, 486, 2, -1, -2, -8, 7, 13, 973, 936, 19,V
2025-03-19 17:57:58.519,767, 447, 482, 4, -1, -2, -5, 6, 14, 972, 936, 39,V
2025-03-19 17:57:58.524,761, 434, 489, 8, -1, -3, -7, 10, 13, 971, 932, 42,V
2025-03-19 17:57:58.535,767, 432, 491, 13, -1, -4, -5, 5, 14, 970, 927, 44,V
2025-03-19 17:57:58.540,763, 418, 479, 22, -1, -5, -7, 8, 13, 969, 917, 38,V
2025-03-19 17:57:58.553,782, 440, 431, 28, -1, -7, -5, 7, 14, 967, 910, 35,V
2025-03-19 17:57:58.558,831, 597, 425, 18, 1, 0, -5, 8, 13, 964, 902, 31,V
2025-03-19 17:57:58.567,825, 607, 425, 9, 2, 6, -4, 6, 14, 960, 897, 20,V
2025-03-19 17:57:58.580,822, 472, 375, 3, 6, 2, -5, 6, 13, 955, 890, 19,V
2025-03-19 17:57:58.588,852, 332, 322, 5, 15, -10, -5, 6, 13, 952, 887, 14,V
2025-03-19 17:57:58.597,843, 334, 340, 6, 23, -21, -5, 6, 16, 946, 878, 29,V
2025-03-19 17:57:58.605,807, 436, 358, 6, 29, -25, -5, 6, 13, 941, 866, 40,V
2025-03-19 17:57:58.613,787, 521, 383, -2, 32, -23, -5, 6, 13, 938, 859, 44,V
2025-03-19 17:57:58.621,748, 536, 426, -13, 35, -20, -5, 7, 13, 936, 849, 41,V
2025-03-19 17:57:58.633,708, 512, 510, -16, 35, -17, -4, 5, 12, 933, 845, 36,V
2025-03-19 17:57:58.637,674, 500, 576, -18, 31, -16, -5, 6, 12, 933, 837, 42,V
2025-03-19 17:57:58.649,636, 493, 645, -14, 24, -13, -4, 5, 13, 933, 835, 18,V
2025-03-19 17:57:58.655,607, 492, 657, -9, 16, -9, -6, 6, 11, 932, 831, 18,V
2025-03-19 17:57:58.666,588, 496, 664, -2, 8, -5, -4, 4, 13, 933, 825, 12,V
2025-03-19 17:57:58.674,594, 512, 658, 3, 1, -1, -4, 4, 13, 932, 829, 17,V
2025-03-19 17:57:58.683,625, 512, 638, 7, -5, 3, -6, 7, 11, 932, 828, 26,V
2025-03-19 17:57:58.961,725, 511, 472, 8, -2, 1, -4, 4, 13, 917, 725, 47,W
2025-03-19 17:57:58.973,707, 496, 463, 10, -1, 0, -4, 4, 13, 916, 722, 28,W
2025-03-19 17:57:58.981,740, 490, 458, 12, 1, 0, -4, 4, 13, 916, 716, 30,W
2025-03-19 17:57:58.990,735, 504, 458, 11, 2, -1, -5, 6, 12, 917, 716, 13,W
2025-03-19 17:57:58.998,732, 512, 455, 11, 2, -1, -5, 4, 13, 915, 712, 20,W
2025-03-19 17:57:59.007,753, 514, 454, 9, 2, -1, -6, 6, 12, 914, 709, 32,W
2025-03-19 17:57:59.015,737, 507, 459, 8, 2, -1, -5, 5, 13, 914, 706, 34,W
2025-03-19 17:57:59.023,734, 503, 463, 7, 3, -2, -5, 5, 12, 913, 695, 40,W
2025-03-19 17:57:59.032,746, 508, 481, 7, 3, -1, -4, 4, 13, 914, 688, 46,W
2025-03-19 17:57:59.039,736, 513, 492, 6, 2, -1, -4, 7, 10, 914, 687, 37,W
2025-03-19 17:57:59.048,727, 500, 476, 7, 2, -2, -4, 4, 11, 914, 681, 15,W
2025-03-19 17:57:59.058,713, 496, 470, 9, 1, -3, -4, 4, 11, 913, 672, 14,W
2025-03-19 17:57:59.066,716, 503, 463, 10, 1, -4, -5, 5, 13, 911, 675, 14,W
2025-03-19 17:57:59.074,702, 508, 465, 10, 0, -6, -5, 3, 13, 911, 668, 27,W
2025-03-19 17:57:59.084,709, 506, 469, 11, -1, -6, -6, 6, 12, 911, 669, 25,W
2025-03-19 17:57:59.092,712, 523, 466, 10, -1, -6, -4, 4, 13, 910, 670, 33,W
