Timestamp,Acc_X,Acc_Y,Acc_Z,Gyro_X,Gyro_Y,Gyro_Z,Mag_X,Mag_Y,Mag_Z,Force1,Force2,Force3,Letter
2025-03-19 18:49:30.657,-467, 1272, -172, 350, 7, 51, 16, 12, 88, 101, 78, 54,noise
2025-03-19 18:49:30.661,-525, 1273, -160, 403, 1, 41, 14, 10, 87, 101, 79, 138,noise
2025-03-19 18:49:30.662,-467, 1272, -172, 350, 7, 51, 16, 12, 88, 101, 78, 54,noise
2025-03-19 18:49:37.497,563, 1469, 845, -70, 7, 10, -14, 12, -14, 666, 757, 531,A
2025-03-19 18:49:37.514,550, 789, 691, -80, -1, 21, -14, 12, -14, 679, 747, 535,A
2025-03-19 18:49:37.522,511, 383, 728, -51, -6, 6, -12, 11, -12, 687, 736, 527,A
2025-03-19 18:49:37.532,439, 283, 612, -30, -6, -15, -14, 13, -14, 695, 706, 500,A
2025-03-19 18:49:37.540,508, 544, 562, -1, -1, -22, -13, 13, -12, 692, 646, 446,A
2025-03-19 18:49:37.549,462, 759, 548, 1, 2, -20, -14, 13, -12, 695, 536, 385,A
2025-03-19 18:49:37.557,473, 859, 553, -9, 6, -13, -12, 12, -11, 695, 472, 376,A
2025-03-19 18:49:37.566,450, 872, 477, -9, 9, -4, -13, 13, -14, 694, 391, 330,A
2025-03-19 18:49:37.572,454, 787, 468, -7, 17, -1, -13, 11, -13, 674, 265, 300,A
2025-03-19 18:49:37.586,415, 662, 499, -4, 22, -4, -13, 14, -14, 635, 153, 269,A
2025-03-19 18:49:37.594,408, 625, 507, 2, 25, -11, -12, 13, -13, 583, 75, 251,A
2025-03-19 18:49:37.602,378, 655, 531, 11, 24, -17, -13, 13, -13, 561, 49, 219,A
2025-03-19 18:49:37.607,316, 753, 582, -16, 14, -21, -11, 12, -11, 558, 66, 202,A
2025-03-19 18:49:37.620,359, 800, 646, -35, 1, -21, -11, 12, -11, 569, 62, 207,A
2025-03-19 18:49:37.631,267, 996, 592, -104, -20, -22, -14, 13, -13, 622, 80, 230,A
2025-03-19 18:49:37.639,281, 746, 700, -56, -28, -14, -12, 11, -13, 599, 79, 230,A
2025-03-19 18:49:37.647,446, 690, 686, -23, -30, -9, -12, 13, -12, 582, 77, 217,A
2025-03-19 18:49:37.655,478, 664, 574, -8, -27, -6, -12, 12, -12, 564, 62, 216,A
2025-03-19 18:49:37.665,548, 708, 586, -17, -20, -8, -12, 13, -12, 540, 70, 198,A
2025-03-19 18:49:37.673,515, 690, 568, -11, -15, -7, -12, 13, -12, 524, 67, 202,A
2025-03-19 18:49:37.684,437, 719, 564, -2, -12, -3, -12, 13, -14, 529, 70, 168,A
2025-03-19 18:49:37.692,425, 749, 554, 5, -9, 0, -13, 12, -11, 526, 43, 165,A
2025-03-19 18:49:37.701,448, 739, 541, 14, -3, 3, -13, 14, -14, 511, 17, 136,A
2025-03-19 18:49:37.708,488, 710, 510, 25, 4, 5, -12, 12, -12, 518, 26, 108,A
2025-03-19 18:49:37.718,495, 645, 478, 39, 13, 5, -12, 12, -12, 507, 47, 128,A
2025-03-19 18:49:37.725,485, 612, 485, 52, 24, 1, -15, 12, -14, 501, 67, 130,A
2025-03-19 18:49:37.737,503, 628, 475, 58, 31, -3, -12, 11, -11, 495, 67, 143,A
2025-03-19 18:49:37.746,451, 674, 513, 50, 34, -1, -13, 13, -15, 540, 64, 130,A
2025-03-19 18:49:37.754,376, 747, 581, 59, 35, 7, -11, 11, -12, 575, 87, 153,A
2025-03-19 18:49:37.763,377, 864, 619, 56, 32, 15, -11, 12, -15, 583, 88, 163,A
2025-03-19 18:49:37.771,327, 941, 571, 30, 25, 25, -13, 12, -15, 610, 367, 174,A
2025-03-19 18:49:37.782,204, 1158, 523, -67, 8, 26, -13, 14, -16, 666, 459, 255,A
2025-03-19 18:49:37.790,434, 870, 678, -64, 6, 34, -13, 12, -16, 700, 519, 289,A
2025-03-19 18:49:37.799,424, 736, 543, -56, 8, 34, -13, 12, -15, 728, 590, 288,A
2025-03-19 18:49:37.808,412, 655, 471, -45, 16, 29, -12, 13, -14, 754, 641, 299,A
2025-03-19 18:49:37.816,434, 617, 548, -43, 21, 21, -12, 13, -14, 768, 691, 311,A
2025-03-19 18:49:37.827,425, 666, 570, -45, 21, 15, -13, 13, -14, 788, 735, 311,A
2025-03-19 18:49:37.835,110, 548, 525, -164, 22, -13, -13, 12, -17, 782, 717, 343,A
2025-03-19 18:49:37.844,472, 361, 721, -15, 10, -25, -11, 15, -19, 784, 729, 374,A
2025-03-19 18:49:37.852,752, 512, 561, -14, -2, -31, -10, 16, -17, 784, 746, 411,A
2025-03-19 18:49:37.858,628, 616, 604, 21, -3, -32, -11, 16, -17, 781, 770, 379,A
2025-03-19 18:49:37.872,479, 780, 703, 40, -6, -32, -12, 16, -17, 779, 784, 374,A
2025-03-19 18:49:37.880,392, 856, 676, 20, -8, -32, -11, 14, -18, 773, 787, 324,A
2025-03-19 18:49:37.889,438, 758, 574, 1, -7, -34, -11, 14, -18, 743, 788, 276,A
2025-03-19 18:49:37.897,562, 664, 514, 32, -6, -34, -10, 15, -17, 719, 794, 268,A
2025-03-19 18:49:37.905,613, 719, 512, 40, -4, -31, -10, 13, -18, 678, 800, 257,A
2025-03-19 18:49:37.917,549, 791, 560, 33, -5, -27, -11, 14, -19, 629, 810, 252,A
2025-03-19 18:49:37.923,473, 799, 644, 27, -11, -25, -11, 14, -19, 550, 819, 242,A
2025-03-19 18:49:37.934,459, 774, 700, 21, -18, -21, -12, 14, -18, 408, 830, 236,A
2025-03-19 18:49:37.941,436, 750, 714, 17, -27, -19, -11, 12, -15, 261, 836, 243,A
2025-03-19 18:49:37.951,456, 677, 721, 31, -33, -20, -11, 12, -18, 85, 835, 227,A
2025-03-19 18:49:37.962,466, 656, 681, 47, -34, -25, -10, 11, -16, 80, 831, 223,A
2025-03-19 18:49:37.971,472, 706, 607, 54, -33, -29, -11, 13, -18, 75, 822, 202,A
2025-03-19 18:49:37.979,470, 745, 608, 55, -31, -32, -12, 11, -15, 82, 820, 122,A
2025-03-19 18:49:37.987,483, 779, 605, 55, -30, -32, -13, 11, -17, 88, 814, 61,A
2025-03-19 18:49:37.996,472, 809, 569, 41, -29, -29, -13, 8, -16, 74, 804, 103,A
2025-03-19 18:49:38.004,759, 987, 635, -116, -41, -14, -13, 8, -14, 76, 795, 275,A
2025-03-19 18:49:38.015,318, 1000, 652, -57, -41, -3, -12, 7, -13, 31, 781, 264,A
2025-03-19 18:49:38.022,334, 661, 495, -8, -37, -3, -14, 8, -13, 26, 780, 258,A
2025-03-19 18:49:38.032,455, 657, 536, -5, -36, -10, -14, 8, -13, 20, 776, 252,A
2025-03-19 18:49:38.039,423, 685, 632, 11, -37, -8, -13, 7, -13, 69, 767, 230,A
2025-03-19 18:49:38.050,393, 739, 670, 19, -39, -8, -13, 8, -12, 60, 752, 228,A
2025-03-19 18:49:38.057,408, 727, 591, 20, -37, -6, -11, 6, -11, 73, 740, 228,A
2025-03-19 18:49:38.069,441, 741, 551, 26, -31, 1, -13, 8, -12, 72, 734, 216,A
2025-03-19 18:49:38.077,333, 755, 544, 52, -20, 16, -12, 5, -9, 451, 715, 257,A
2025-03-19 18:49:38.085,276, 828, 513, 52, -15, 26, -15, 5, -10, 593, 695, 278,A
2025-03-19 18:49:38.094,270, 853, 455, 45, -10, 39, -12, 3, -8, 694, 668, 306,A
2025-03-19 18:49:38.100,216, 790, 396, 44, -3, 49, -13, 5, -7, 724, 609, 329,A
2025-03-19 18:49:38.110,174, 718, 411, 57, 1, 57, -13, 3, -6, 757, 504, 313,A
2025-03-19 18:49:38.117,173, 688, 463, 61, 4, 64, -14, 3, -7, 780, 435, 289,A
2025-03-19 18:49:38.130,202, 724, 507, 66, 6, 75, -14, 3, -7, 788, 315, 272,A
2025-03-19 18:49:38.138,258, 735, 511, 66, 5, 81, -12, 6, -5, 797, 191, 325,A
2025-03-19 18:49:38.148,322, 682, 507, 65, 0, 83, -10, 5, -7, 798, 82, 373,A
2025-03-19 18:49:38.155,422, 657, 511, 72, -3, 86, -10, 5, -7, 795, 75, 429,A
2025-03-19 18:49:38.165,484, 664, 482, 66, -8, 84, -13, 4, -7, 791, 74, 432,A
2025-03-19 18:49:38.175,485, 642, 478, 69, -13, 78, -12, 4, -6, 768, 63, 443,A
2025-03-19 18:49:38.184,499, 584, 467, 78, -15, 69, -12, 7, -7, 765, 63, 439,A
2025-03-19 18:49:38.192,600, 555, 410, 87, -16, 60, -11, 5, -3, 757, 289, 480,A
2025-03-19 18:49:38.201,609, 645, 344, 80, -12, 54, -13, 5, -6, 760, 390, 457,A
2025-03-19 18:49:38.209,636, 705, 275, 78, -6, 55, -11, 4, -2, 778, 460, 547,A
2025-03-19 18:49:38.217,589, 778, 145, 69, 2, 56, -11, 4, -2, 800, 513, 567,A
2025-03-19 18:49:38.230,580, 757, 127, 57, 11, 55, -13, 5, -4, 812, 553, 580,A
2025-03-19 18:49:38.237,596, 700, 141, 63, 18, 51, -11, 6, -3, 824, 564, 604,A
2025-03-19 18:49:38.244,632, 663, 198, 70, 21, 43, -11, 4, -3, 832, 606, 616,A
2025-03-19 18:49:38.253,676, 702, 228, 62, 19, 34, -8, 6, -3, 842, 654, 626,A
2025-03-19 18:49:38.263,828, 682, 156, 62, 23, 32, -11, 4, -4, 844, 636, 663,A
2025-03-19 18:49:38.270,601, 828, -23, 98, 35, 25, -10, 5, -3, 852, 647, 654,A
2025-03-19 18:49:38.282,381, 864, 410, -41, 28, 17, -10, 5, -4, 858, 656, 692,A
2025-03-19 18:49:38.290,630, 712, 477, -48, 12, 11, -7, 5, -4, 862, 679, 671,A
2025-03-19 18:49:38.299,586, 571, 401, -71, 2, -2, -9, 6, -4, 863, 673, 656,A
2025-03-19 18:49:38.306,524, 492, 406, -55, -1, -17, -9, 4, -1, 870, 674, 642,A
2025-03-19 18:49:38.316,502, 574, 466, -44, -3, -26, -9, 4, -1, 871, 687, 635,A
2025-03-19 18:49:38.322,598, 704, 456, -55, -6, -36, -10, 8, -6, 874, 724, 635,A
2025-03-19 18:49:38.335,659, 803, 428, -63, -6, -44, -8, 7, -2, 876, 746, 631,A
2025-03-19 18:49:38.339,726, 821, 414, -70, -6, -55, -9, 9, -6, 880, 771, 601,A
2025-03-19 18:49:38.352,761, 910, 455, -86, -2, -61, -9, 6, -5, 888, 786, 616,A
2025-03-19 18:49:38.359,736, 1118, 505, -136, 2, -54, -10, 7, -2, 895, 784, 606,A
2025-03-19 18:49:38.369,646, 1198, 479, -196, 5, -36, -9, 8, -2, 894, 778, 581,A
2025-03-19 18:49:38.380,520, 1104, 415, -228, 9, -17, -8, 9, -1, 889, 768, 578,A
2025-03-19 18:49:38.388,418, 897, 344, -224, 12, -3, -10, 8, -3, 885, 747, 534,A
2025-03-19 18:49:38.397,339, 776, 423, -218, 7, 6, -8, 9, -3, 873, 728, 500,A
2025-03-19 18:49:38.405,405, 676, 578, -203, -5, 20, -10, 13, -6, 879, 720, 481,A
2025-03-19 18:49:38.414,350, 676, 676, -201, -21, 33, -10, 13, -6, 886, 700, 465,A
2025-03-19 18:49:38.422,297, 697, 685, -171, -40, 39, -10, 13, -4, 893, 721, 424,A
2025-03-19 18:49:38.433,354, 759, 723, -176, -58, 38, -10, 14, -4, 894, 740, 401,A
2025-03-19 18:49:38.440,495, 697, 722, -173, -67, 44, -9, 13, -4, 894, 768, 323,A
2025-03-19 18:49:38.450,574, 644, 755, -153, -73, 52, -10, 16, -2, 896, 794, 82,A
2025-03-19 18:49:38.457,513, 608, 819, -132, -82, 61, -10, 13, -1, 899, 832, 72,A
2025-03-19 18:49:38.467,571, 530, 734, -95, -92, 65, -11, 16, -1, 900, 856, 75,A
2025-03-19 18:49:38.477,611, 518, 587, -53, -97, 60, -10, 15, -1, 903, 873, 98,A
2025-03-19 18:49:38.487,609, 478, 532, -27, -101, 45, -10, 18, 0, 905, 885, 168,A
2025-03-19 18:49:38.495,695, 405, 510, -5, -106, 27, -10, 14, 1, 917, 891, 241,A
2025-03-19 18:49:38.503,800, 314, 439, 1, -105, 13, -15, 17, 0, 924, 898, 285,A
2025-03-19 18:49:38.508,867, 398, 362, 22, -98, 1, -10, 15, 3, 928, 901, 287,A
2025-03-19 18:49:38.523,866, 561, 311, 28, -86, -8, -10, 15, 3, 929, 906, 374,A
2025-03-19 18:49:38.532,908, 641, 278, 4, -72, -8, -12, 17, 2, 931, 912, 452,A
2025-03-19 18:49:38.540,949, 666, 204, -17, -48, 0, -9, 15, 3, 930, 914, 419,A
2025-03-19 18:49:38.549,880, 722, 221, -41, -18, 11, -15, 16, 5, 927, 914, 376,A
2025-03-19 18:49:38.557,811, 642, 147, -52, 13, 18, -13, 16, 5, 925, 914, 324,A
2025-03-19 18:49:38.566,682, 581, 187, -60, 44, 26, -13, 15, 5, 925, 916, 294,A
2025-03-19 18:49:38.573,583, 517, 294, -60, 68, 32, -13, 16, 6, 920, 913, 171,A
2025-03-19 18:49:38.585,448, 397, 451, -50, 77, 33, -13, 18, 3, 920, 911, 246,A
2025-03-19 18:49:38.593,391, 289, 552, -32, 75, 31, -12, 17, 3, 919, 907, 212,A
2025-03-19 18:49:38.600,391, 229, 702, -4, 56, 27, -12, 21, 1, 917, 910, 176,A
2025-03-19 18:49:38.609,416, 253, 806, 19, 18, 21, -12, 16, 2, 919, 912, 340,A
2025-03-19 18:49:38.617,453, 258, 728, 42, -18, 8, -12, 16, 2, 918, 917, 454,A
2025-03-19 18:49:38.631,673, 176, 604, 54, -42, -5, -12, 18, -1, 924, 918, 507,A
2025-03-19 18:49:38.638,739, 281, 513, 64, -51, -16, -13, 19, 5, 930, 922, 597,A
2025-03-19 18:49:38.648,816, 474, 439, 62, -51, -19, -12, 18, 1, 930, 923, 635,A
2025-03-19 18:49:38.655,890, 586, 440, 51, -41, -16, -11, 18, 3, 934, 923, 653,A
2025-03-19 18:49:38.664,949, 624, 448, 41, -24, -10, -12, 18, 3, 936, 924, 656,A
2025-03-19 18:49:38.672,969, 585, 442, 38, -3, -10, -13, 15, 5, 937, 922, 661,A
2025-03-19 18:49:38.683,944, 553, 485, 42, 16, -13, -13, 18, 3, 939, 922, 662,A
2025-03-19 18:49:38.692,880, 587, 599, 35, 30, -19, -13, 17, 5, 941, 921, 647,A
2025-03-19 18:49:38.701,776, 620, 692, 26, 35, -19, -13, 16, 3, 942, 923, 649,A
2025-03-19 18:49:38.707,674, 646, 727, 22, 32, -16, -13, 15, 4, 942, 921, 639,A
2025-03-19 18:49:38.720,588, 625, 715, 21, 24, -10, -14, 16, 3, 945, 922, 632,A
2025-03-19 18:49:38.727,510, 577, 698, 21, 12, -3, -14, 16, 3, 946, 927, 623,A
2025-03-19 18:49:38.736,402, 558, 681, 23, -1, 1, -12, 15, 3, 950, 933, 635,A
2025-03-19 18:49:38.739,366, 507, 632, 27, -13, 0, -14, 16, 3, 950, 936, 643,A
2025-03-19 18:49:38.754,336, 479, 585, 33, -19, -1, -13, 14, 4, 950, 936, 656,A
2025-03-19 18:49:38.757,264, 553, 562, 27, -22, 1, -12, 17, 4, 951, 939, 662,A
2025-03-19 18:49:38.773,247, 605, 579, 25, -25, 6, -12, 16, 6, 951, 941, 664,A
2025-03-19 18:49:38.782,286, 680, 631, 24, -30, 13, -13, 15, 6, 952, 940, 670,A
2025-03-19 18:49:38.790,450, 697, 676, 25, -35, 19, -13, 15, 6, 953, 944, 676,A
2025-03-19 18:49:38.800,636, 684, 664, 22, -39, 21, -14, 16, 3, 954, 944, 680,A
2025-03-19 18:49:38.806,766, 662, 642, 16, -43, 18, -11, 17, 4, 953, 944, 673,A
2025-03-19 18:49:38.818,831, 626, 555, 13, -44, 14, -12, 13, 6, 954, 945, 668,A
2025-03-19 18:49:38.823,825, 608, 419, 4, -41, 9, -12, 13, 6, 957, 946, 655,A
2025-03-19 18:49:38.835,764, 588, 250, -3, -34, 7, -10, 15, 6, 959, 946, 657,A
2025-03-19 18:49:38.839,746, 587, 240, -7, -24, 3, -10, 18, 4, 957, 943, 658,A
2025-03-19 18:49:38.851,786, 568, 246, -13, -13, -1, -12, 16, 8, 957, 943, 630,A
2025-03-19 18:49:38.857,806, 540, 265, -19, -1, -7, -13, 16, 5, 957, 941, 630,A
2025-03-19 18:49:38.871,813, 553, 304, -26, 10, -14, -13, 16, 5, 957, 940, 619,A
2025-03-19 18:49:38.880,807, 576, 356, -38, 18, -22, -13, 16, 6, 956, 938, 605,A
2025-03-19 18:49:38.888,768, 610, 429, -47, 23, -25, -13, 16, 9, 955, 938, 589,A
2025-03-19 18:49:38.898,758, 611, 480, -47, 24, -21, -12, 14, 6, 956, 934, 557,A
2025-03-19 18:49:38.905,702, 615, 509, -45, 27, -16, -12, 17, 5, 956, 933, 537,A
2025-03-19 18:49:38.917,636, 574, 532, -39, 30, -12, -11, 16, 3, 953, 930, 453,A
2025-03-19 18:49:38.923,601, 524, 585, -34, 30, -11, -14, 15, 7, 954, 930, 434,A
2025-03-19 18:49:38.933,583, 514, 641, -32, 28, -11, -14, 15, 7, 955, 931, 406,A
2025-03-19 18:49:38.939,578, 514, 658, -22, 25, -8, -14, 16, 7, 956, 931, 394,A
2025-03-19 18:49:38.951,565, 539, 671, -12, 22, -2, -13, 16, 5, 955, 932, 393,A
2025-03-19 18:49:38.957,533, 550, 720, -5, 15, 4, -11, 15, 5, 954, 932, 380,A
2025-03-19 18:49:38.969,545, 521, 702, 1, 6, 7, -14, 16, 3, 954, 933, 387,A
2025-03-19 18:49:38.977,578, 522, 672, 7, -3, 9, -12, 16, 3, 955, 935, 384,A
2025-03-19 18:49:38.987,627, 498, 604, 13, -11, 8, -13, 15, 5, 956, 936, 406,A
2025-03-19 18:49:38.995,683, 499, 536, 18, -16, 4, -12, 15, 3, 956, 935, 404,A
2025-03-19 18:49:39.004,744, 547, 438, 18, -18, 0, -12, 16, 4, 954, 930, 420,A
2025-03-19 18:49:39.012,774, 586, 366, 14, -18, -1, -10, 13, 7, 951, 931, 424,A
2025-03-19 18:49:39.022,820, 580, 331, 10, -15, -1, -10, 13, 7, 950, 930, 445,A
2025-03-19 18:49:39.032,857, 568, 338, 7, -11, 3, -14, 15, 4, 949, 932, 463,A
2025-03-19 18:49:39.039,840, 567, 369, 4, -7, 5, -8, 16, 5, 949, 935, 478,A
2025-03-19 18:49:39.049,826, 567, 368, 0, -6, 5, -12, 14, 4, 949, 933, 477,A
2025-03-19 18:49:39.057,834, 513, 387, -2, -4, 1, -13, 13, 7, 946, 931, 469,A
2025-03-19 18:49:39.065,850, 513, 404, -8, 1, -3, -12, 17, 4, 943, 931, 473,A
2025-03-19 18:49:39.073,846, 547, 390, -14, 10, -7, -14, 17, 7, 944, 931, 461,A
2025-03-19 18:49:39.084,820, 564, 385, -20, 20, -10, -11, 16, 3, 941, 928, 459,A
2025-03-19 18:49:39.093,769, 570, 409, -23, 29, -11, -11, 14, 6, 940, 928, 449,A
2025-03-19 18:49:39.101,708, 544, 458, -23, 34, -13, -12, 17, 3, 936, 923, 412,A
2025-03-19 18:49:39.110,697, 504, 494, -21, 36, -19, -12, 15, 5, 934, 923, 389,A
2025-03-19 18:49:39.121,660, 469, 535, -15, 36, -26, -12, 15, 5, 933, 921, 374,A
2025-03-19 18:49:39.130,640, 480, 593, -11, 32, -32, -14, 18, 4, 928, 918, 381,A
2025-03-19 18:49:39.138,614, 509, 595, -5, 27, -38, -12, 15, 4, 926, 919, 396,A
2025-03-19 18:49:39.147,602, 541, 568, -2, 23, -42, -12, 14, 3, 921, 914, 407,A
2025-03-19 18:49:39.155,594, 561, 559, -2, 20, -43, -9, 14, 5, 917, 909, 418,A
2025-03-19 18:49:39.164,582, 586, 593, -1, 15, -40, -10, 17, 3, 914, 903, 406,A
2025-03-19 18:49:39.173,544, 598, 601, 1, 11, -36, -11, 14, 3, 914, 899, 389,A
2025-03-19 18:49:39.183,523, 594, 588, 3, 6, -33, -12, 13, 3, 910, 896, 351,A
2025-03-19 18:49:39.191,486, 570, 585, 2, 1, -30, -10, 15, 5, 909, 894, 341,A
2025-03-19 18:49:39.200,440, 587, 627, 0, -5, -25, -12, 14, 2, 905, 888, 316,A
2025-03-19 18:49:39.208,427, 607, 638, -3, -12, -19, -12, 13, 4, 902, 884, 272,A
2025-03-19 18:49:39.217,420, 594, 623, 4, -19, -13, -12, 13, 4, 900, 880, 260,A
2025-03-19 18:49:39.227,416, 587, 602, 11, -23, -9, -11, 13, 4, 899, 875, 299,A
2025-03-19 18:49:39.236,442, 603, 608, 17, -25, -2, -11, 15, 4, 900, 875, 343,A
2025-03-19 18:49:39.239,495, 652, 625, 22, -27, 4, -13, 15, 3, 896, 869, 380,A
2025-03-19 18:49:39.253,548, 700, 611, 25, -29, 14, -13, 14, 6, 892, 865, 406,A
2025-03-19 18:49:39.257,623, 707, 600, 27, -30, 21, -11, 13, 3, 888, 854, 430,A
2025-03-19 18:49:39.273,711, 646, 547, 30, -29, 23, -12, 15, 6, 882, 844, 443,A
2025-03-19 18:49:39.281,768, 598, 477, 24, -25, 18, -13, 12, 3, 881, 839, 452,A
2025-03-19 18:49:39.289,783, 555, 398, 20, -19, 9, -12, 13, 5, 877, 832, 457,A
2025-03-19 18:49:39.299,784, 536, 344, 17, -12, -1, -12, 14, 3, 875, 827, 453,A
2025-03-19 18:49:39.305,773, 534, 318, 12, -4, -11, -13, 13, 5, 868, 809, 446,A
2025-03-19 18:49:39.315,750, 541, 329, 7, 1, -21, -13, 14, 2, 869, 801, 437,A
2025-03-19 18:49:39.322,735, 535, 353, 5, 4, -27, -13, 14, 2, 871, 793, 436,A
2025-03-19 18:49:39.333,718, 564, 395, -3, 8, -30, -13, 13, 7, 871, 790, 442,A
2025-03-19 18:49:39.343,690, 622, 439, -12, 9, -28, -14, 14, 3, 868, 789, 437,A
2025-03-19 18:49:39.351,639, 669, 479, -13, 10, -24, -13, 13, 5, 870, 785, 433,A
2025-03-19 18:49:39.357,626, 646, 509, -11, 8, -19, -12, 15, 5, 866, 777, 409,A
2025-03-19 18:49:39.367,615, 625, 540, -8, 5, -16, -13, 12, 5, 865, 778, 385,A
2025-03-19 18:49:39.380,604, 614, 549, -9, 1, -14, -12, 13, 4, 867, 772, 365,A
2025-03-19 18:49:39.388,583, 600, 544, -8, -2, -12, -13, 13, 3, 865, 768, 361,A
2025-03-19 18:49:39.396,562, 606, 545, 1, -3, -10, -13, 15, 3, 856, 749, 380,A
2025-03-19 18:49:39.405,558, 645, 526, 7, -3, -8, -12, 13, 6, 849, 731, 372,A
2025-03-19 18:49:39.413,563, 686, 497, 7, -1, -9, -11, 13, 5, 843, 713, 392,A
2025-03-19 18:49:39.421,568, 717, 471, 5, 1, -8, -11, 13, 5, 834, 703, 416,A
2025-03-19 18:49:39.433,566, 717, 459, 2, 3, -8, -15, 12, 5, 833, 703, 424,A
2025-03-19 18:49:39.438,557, 702, 479, -1, 2, -8, -12, 13, 4, 826, 697, 388,A
2025-03-19 18:49:39.450,544, 681, 498, -4, -1, -8, -14, 14, 4, 821, 689, 376,A
2025-03-19 18:49:39.457,551, 656, 500, -6, -4, -8, -12, 13, 3, 811, 687, 376,A
2025-03-19 18:49:39.466,567, 622, 529, -5, -8, -6, -13, 15, 4, 799, 680, 363,A
2025-03-19 18:49:39.472,582, 599, 558, -1, -11, -5, -13, 13, 3, 783, 675, 360,A
2025-03-19 18:49:39.486,621, 585, 597, 0, -16, -2, -15, 12, 2, 769, 675, 363,A
2025-03-19 18:49:39.489,665, 551, 625, 4, -21, 2, -15, 12, 3, 761, 670, 341,A
2025-03-19 18:49:39.502,664, 562, 597, 8, -24, 5, -13, 16, 0, 755, 672, 350,A
2025-03-19 18:49:39.510,678, 556, 556, 8, -25, 7, -13, 16, 0, 751, 674, 359,A
2025-03-19 18:49:39.519,699, 531, 515, 17, -21, 6, -14, 15, 1, 763, 667, 392,A
2025-03-19 18:49:39.527,741, 547, 461, 15, -13, 2, -13, 16, 2, 757, 662, 446,A
2025-03-19 18:49:39.538,776, 562, 419, 4, -3, -3, -14, 13, 3, 757, 663, 460,A
2025-03-19 18:49:39.547,750, 560, 395, -6, 4, -7, -16, 16, 4, 747, 661, 443,A
2025-03-19 18:49:39.556,714, 565, 416, -9, 11, -12, -15, 13, 3, 743, 664, 417,A
2025-03-19 18:49:39.565,659, 586, 441, -10, 14, -17, -16, 14, 1, 738, 660, 401,A
2025-03-19 18:49:39.572,625, 597, 475, -11, 14, -20, -13, 13, 3, 734, 659, 378,A
2025-03-19 18:49:39.581,602, 619, 505, -11, 13, -23, -14, 13, 1, 715, 652, 367,A
2025-03-19 18:49:39.588,580, 657, 519, -12, 10, -22, -13, 12, 2, 713, 643, 330,A
2025-03-19 18:49:39.601,573, 678, 559, -16, 6, -19, -13, 12, 0, 717, 650, 293,A
2025-03-19 18:49:39.607,565, 688, 597, -17, 3, -12, -13, 12, 0, 712, 655, 281,A
2025-03-19 18:49:39.617,565, 673, 664, -16, -1, -4, -15, 12, 3, 715, 677, 302,A
2025-03-19 18:49:39.622,591, 639, 673, -11, -3, 2, -15, 15, 1, 706, 684, 276,A
2025-03-19 18:49:39.632,607, 598, 659, -6, -6, 5, -13, 13, 2, 685, 677, 265,A
2025-03-19 18:49:39.646,627, 552, 626, -1, -8, 5, -17, 14, 1, 680, 676, 227,A
2025-03-19 18:49:39.654,631, 536, 599, 5, -10, 3, -13, 14, 3, 674, 675, 223,A
2025-03-19 18:49:39.663,652, 540, 557, 8, -11, 0, -15, 16, 2, 667, 679, 230,A
2025-03-19 18:49:39.671,663, 554, 508, 8, -11, -4, -13, 11, 3, 657, 679, 232,A
2025-03-19 18:49:39.679,663, 555, 462, 10, -10, -9, -14, 12, 1, 629, 663, 255,A
2025-03-19 18:49:39.687,654, 566, 444, 14, -9, -14, -15, 11, 3, 628, 659, 262,A
2025-03-19 18:49:39.699,674, 587, 438, 13, -8, -19, -15, 11, 3, 625, 658, 272,A
2025-03-19 18:49:39.707,676, 603, 439, 10, -6, -25, -16, 13, 1, 629, 657, 315,A
2025-03-19 18:49:39.716,670, 597, 460, 8, -6, -32, -14, 12, 5, 625, 665, 358,A
2025-03-19 18:49:39.723,653, 604, 483, 6, -7, -37, -16, 13, 1, 608, 660, 375,A
2025-03-19 18:49:39.733,635, 635, 512, 7, -7, -41, -15, 12, 3, 592, 628, 372,A
2025-03-19 18:49:39.744,620, 654, 540, 10, -9, -42, -13, 13, 3, 573, 630, 381,A
2025-03-19 18:49:39.752,603, 661, 578, 16, -13, -42, -14, 10, 3, 550, 621, 377,A
2025-03-19 18:49:39.759,631, 697, 593, 19, -17, -36, -15, 12, 3, 538, 610, 358,A
2025-03-19 18:49:39.769,690, 741, 586, 11, -20, -21, -14, 8, 5, 542, 599, 300,A
2025-03-19 18:49:39.778,691, 781, 575, 12, -20, -4, -14, 10, 3, 534, 592, 288,A
2025-03-19 18:49:39.786,680, 785, 525, 7, -22, 6, -13, 10, 5, 550, 602, 282,A
2025-03-19 18:49:39.798,617, 797, 489, 3, -21, 23, -13, 10, 5, 605, 610, 343,A
2025-03-19 18:49:39.806,536, 805, 465, -4, -19, 40, -15, 9, 6, 661, 634, 359,A
2025-03-19 18:49:39.814,508, 770, 444, -18, -15, 56, -13, 7, 6, 701, 672, 387,A
2025-03-19 18:49:39.823,478, 732, 447, -19, -14, 72, -15, 10, 8, 738, 687, 400,A
2025-03-19 18:49:39.832,428, 704, 406, -24, -12, 84, -15, 11, 8, 775, 708, 392,A
2025-03-19 18:49:39.839,414, 674, 407, -16, -11, 93, -15, 11, 4, 805, 726, 338,A
2025-03-19 18:49:39.849,436, 682, 425, -16, -12, 100, -13, 10, 6, 823, 761, 343,A
2025-03-19 18:49:39.857,461, 666, 481, -20, -17, 104, -15, 10, 6, 832, 788, 344,A
2025-03-19 18:49:39.868,478, 599, 488, -33, -25, 102, -12, 12, 9, 839, 809, 344,A
2025-03-19 18:49:39.873,496, 493, 471, -30, -32, 97, -15, 13, 6, 852, 817, 341,A
2025-03-19 18:49:39.887,517, 408, 389, -20, -35, 84, -12, 15, 6, 858, 836, 341,A
2025-03-19 18:49:39.896,606, 351, 293, -8, -32, 68, -12, 13, 5, 866, 851, 357,A
2025-03-19 18:49:39.904,702, 337, 245, -7, -24, 47, -12, 13, 5, 878, 858, 357,A
2025-03-19 18:49:39.912,770, 352, 201, -15, -10, 25, -14, 13, 7, 889, 869, 368,A
2025-03-19 18:49:39.921,831, 368, 145, -28, 8, 2, -15, 16, 6, 894, 876, 376,A
2025-03-19 18:49:39.929,858, 418, 100, -45, 28, -16, -13, 16, 8, 901, 883, 344,A
2025-03-19 18:49:39.939,791, 452, 114, -51, 48, -27, -12, 17, 8, 911, 884, 290,A
2025-03-19 18:49:39.950,738, 481, 208, -55, 61, -29, -13, 16, 6, 915, 892, 249,A
2025-03-19 18:49:39.957,730, 532, 418, -40, 63, -24, -12, 16, 5, 922, 899, 260,A
2025-03-19 18:49:39.967,829, 649, 733, -9, 54, -19, -14, 16, 6, 923, 902, 286,A
2025-03-19 18:49:39.973,984, 811, 1039, 7, 35, -13, -13, 16, 6, 927, 907, 308,A
2025-03-19 18:49:39.986,1060, 904, 1021, -23, 16, -7, -15, 17, 5, 929, 909, 273,A
2025-03-19 18:49:39.994,921, 763, 705, -56, 10, -5, -13, 16, 2, 932, 909, 202,A
2025-03-19 18:49:40.003,667, 566, 486, -60, 10, -7, -14, 16, 6, 935, 911, 164,A
2025-03-19 18:49:40.011,451, 448, 406, -51, 9, -9, -14, 16, 6, 936, 913, 107,A
2025-03-19 18:49:40.019,346, 440, 355, -38, 7, -8, -12, 14, 5, 939, 923, 108,A
2025-03-19 18:49:40.028,313, 483, 395, -25, 4, -3, -14, 19, 7, 942, 925, 112,A
2025-03-19 18:49:40.039,325, 526, 625, -13, -6, 4, -14, 14, 3, 944, 930, 126,A
2025-03-19 18:49:40.048,389, 576, 783, 1, -23, 12, -11, 17, 5, 946, 933, 240,A
2025-03-19 18:49:40.056,515, 592, 869, 12, -44, 15, -11, 18, 7, 949, 934, 310,A
2025-03-19 18:49:40.065,644, 577, 824, 17, -66, 18, -13, 19, 7, 949, 939, 335,A
2025-03-19 18:49:40.072,801, 520, 503, 7, -71, 10, -14, 15, 6, 950, 943, 350,A
2025-03-19 18:49:40.084,1107, 356, -228, -26, -26, -23, -13, 17, 6, 955, 948, 320,A
2025-03-19 18:49:40.092,836, 548, 409, 9, -7, -22, -13, 16, 5, 956, 951, 322,A
2025-03-19 18:49:40.101,679, 937, 467, -36, -11, -4, -13, 17, 4, 959, 955, 276,A
2025-03-19 18:49:40.107,745, 447, 203, -36, 1, -2, -13, 17, 4, 961, 959, 222,A
2025-03-19 18:49:40.117,740, 348, 620, -29, 6, -4, -12, 14, 7, 964, 962, 196,A
2025-03-19 18:49:40.122,702, 427, 850, -41, -4, -7, -14, 18, 7, 968, 966, 109,A
2025-03-19 18:49:40.137,633, 259, 809, -34, -14, -15, -13, 17, 8, 971, 966, 71,A
2025-03-19 18:49:40.145,665, 161, 909, -13, -27, -27, -14, 18, 6, 974, 965, 64,A
2025-03-19 18:49:40.154,609, 257, 923, 14, -37, -34, -12, 16, 9, 977, 964, 73,A
2025-03-19 18:49:40.162,632, 317, 797, 53, -37, -34, -12, 16, 9, 979, 964, 66,A
2025-03-19 18:49:40.171,423, 589, 482, 70, -18, -23, -12, 14, 9, 981, 962, 63,A
2025-03-19 18:49:40.179,563, 695, 373, 86, 5, 0, -12, 18, 7, 981, 957, 78,A
2025-03-19 18:49:40.191,681, 893, 415, 69, 26, 23, -13, 15, 8, 982, 957, 51,A
2025-03-19 18:49:40.199,157, 1014, 101, 49, 34, 25, -13, 16, 9, 982, 953, 57,A
2025-03-19 18:49:40.207,251, 1321, -350, 36, 54, 45, -13, 16, 9, 979, 954, 72,A
2025-03-19 18:49:40.215,579, 566, 52, -9, 49, 42, -11, 15, 9, 982, 950, 112,A
2025-03-19 18:49:40.221,936, 806, 102, -9, 49, 30, -13, 15, 10, 977, 947, 109,A
2025-03-19 18:49:40.233,860, 636, 103, -23, 36, 27, -11, 14, 7, 976, 945, 111,A
2025-03-19 18:49:40.238,802, 720, 114, -20, 39, 27, -13, 16, 6, 967, 946, 108,A
2025-03-19 18:49:40.252,869, 764, 526, -31, 29, 24, -8, 18, 7, 964, 943, 108,A
2025-03-19 18:49:40.260,771, 331, 619, -29, 3, -2, -13, 16, 4, 958, 942, 102,A
2025-03-19 18:49:40.268,547, 73, 658, -10, -17, -35, -13, 18, 6, 958, 946, 100,A
2025-03-19 18:49:40.277,573, -40, 794, 12, -29, -49, -12, 16, 5, 959, 947, 143,A
2025-03-19 18:49:40.288,619, 163, 826, 16, -39, -58, -14, 18, 5, 957, 950, 166,A
2025-03-19 18:49:40.297,583, 437, 691, -5, -36, -49, -12, 17, 4, 963, 957, 256,A
2025-03-19 18:49:40.299,607, 728, 606, -27, -20, -25, -12, 17, 4, 966, 961, 179,A
2025-03-19 18:49:40.315,588, 706, 921, -33, -13, -3, -11, 14, 6, 972, 966, 184,A
2025-03-19 18:49:40.321,591, 225, 952, -11, -20, -10, -12, 17, 7, 975, 965, 208,A
2025-03-19 18:49:40.331,704, 349, 820, 9, -27, -14, -12, 17, 8, 978, 968, 192,A
2025-03-19 18:49:40.339,690, 629, 440, 29, -19, -1, -11, 18, 6, 980, 965, 84,A
2025-03-19 18:49:40.350,675, 741, 404, 36, -15, 5, -12, 15, 9, 982, 964, 74,A
2025-03-19 18:49:40.357,867, 674, 291, 46, 3, 21, -12, 16, 9, 983, 963, 68,A
2025-03-19 18:49:40.367,1079, 971, 106, 10, 21, 31, -13, 14, 9, 979, 963, 68,A
2025-03-19 18:49:40.374,924, 922, -14, 20, 48, 58, -12, 14, 8, 979, 960, 66,A
2025-03-19 18:49:40.384,405, 964, 159, -22, 62, 56, -13, 16, 9, 975, 958, 46,A
2025-03-19 18:49:40.395,851, 945, 308, -9, 60, 74, -13, 17, 6, 975, 952, 52,A
2025-03-19 18:49:40.404,714, 536, 541, -32, 50, 60, -13, 17, 6, 972, 946, 41,A
2025-03-19 18:49:40.412,610, 460, 597, -15, 37, 42, -12, 18, 6, 968, 941, 68,A
2025-03-19 18:49:40.421,605, 470, 566, -4, 29, 22, -13, 18, 6, 964, 936, 92,A
2025-03-19 18:49:40.429,634, 284, 481, -5, 27, -6, -11, 19, 6, 961, 929, 117,A
2025-03-19 18:49:40.438,447, 211, 540, 2, 22, -33, -12, 18, 6, 955, 925, 105,A
2025-03-19 18:49:40.449,353, 318, 707, 13, 2, -47, -12, 18, 5, 949, 919, 113,A
2025-03-19 18:49:40.456,294, 429, 725, 13, -21, -48, -10, 18, 6, 948, 912, 103,A
2025-03-19 18:49:40.465,493, 459, 635, 20, -41, -46, -11, 18, 5, 948, 923, 102,A
2025-03-19 18:49:40.472,949, 344, 317, 32, -3, -37, -12, 16, 5, 952, 936, 109,A
2025-03-19 18:49:40.482,1071, 1134, 733, -24, 4, -11, -12, 17, 6, 955, 944, 90,A
2025-03-19 18:49:40.493,963, 536, 501, -76, -8, -3, -11, 16, 5, 965, 955, 72,A
2025-03-19 18:49:40.500,827, 208, 562, -25, -14, -8, -11, 16, 5, 968, 961, 72,A
2025-03-19 18:49:40.507,800, 360, 565, 5, -14, -9, -12, 16, 7, 971, 966, 54,A
2025-03-19 18:49:40.518,677, 611, 595, 5, -20, 0, -10, 16, 4, 973, 968, 82,A
2025-03-19 18:49:40.527,710, 596, 438, 11, -13, 8, -12, 19, 6, 973, 968, 80,A
2025-03-19 18:49:40.534,731, 644, 413, 15, -9, 16, -11, 20, 8, 973, 967, 83,A
2025-03-19 18:49:40.547,888, 725, 416, 8, -2, 34, -12, 19, 6, 973, 966, 143,A
2025-03-19 18:49:40.555,800, 607, 350, 5, 8, 33, -13, 18, 7, 971, 963, 176,A
2025-03-19 18:49:40.564,792, 610, 376, 0, 26, 31, -11, 16, 7, 970, 960, 167,A
2025-03-19 18:49:40.572,923, 317, 250, -2, 54, 4, -13, 17, 6, 967, 957, 67,A
2025-03-19 18:49:40.581,941, 220, 227, -16, 81, -32, -14, 19, 5, 964, 954, 39,A
2025-03-19 18:49:40.588,810, 350, 303, -19, 96, -54, -11, 17, 4, 960, 946, 44,A
2025-03-19 18:49:40.600,720, 564, 346, -17, 99, -59, -11, 17, 4, 958, 936, 55,A
2025-03-19 18:49:40.607,625, 638, 371, -18, 98, -55, -11, 17, 3, 951, 922, 161,A
2025-03-19 18:49:40.617,571, 611, 470, -22, 95, -50, -12, 16, 6, 945, 907, 184,A
2025-03-19 18:49:40.622,512, 541, 581, -24, 89, -49, -12, 17, 2, 931, 885, 186,A
2025-03-19 18:49:40.634,488, 448, 666, -23, 83, -52, -12, 18, 3, 923, 825, 179,A
2025-03-19 18:49:40.645,428, 448, 730, -23, 74, -54, -12, 18, 1, 914, 763, 200,A
2025-03-19 18:49:40.653,399, 492, 766, -19, 62, -52, -10, 16, 3, 903, 663, 212,A
2025-03-19 18:49:40.662,401, 545, 795, -9, 50, -47, -13, 16, 0, 894, 556, 205,A
2025-03-19 18:49:40.670,442, 564, 796, -4, 40, -37, -12, 15, 3, 886, 467, 212,A
2025-03-19 18:49:40.679,474, 628, 804, -4, 32, -28, -13, 16, -1, 881, 432, 188,A
2025-03-19 18:49:40.687,430, 636, 804, -7, 21, -19, -9, 13, 3, 880, 440, 171,A
2025-03-19 18:49:45.286,806, 573, 422, -24, -46, 10, -9, 14, -3, 959, 912, 625,B
2025-03-19 18:49:45.295,868, 583, 328, -21, -34, 7, -9, 16, -5, 961, 920, 623,B
2025-03-19 18:49:45.306,846, 596, 292, -24, -19, 4, -8, 14, 0, 964, 929, 624,B
2025-03-19 18:49:45.315,807, 577, 297, -24, -6, 4, -9, 17, -3, 967, 935, 627,B
2025-03-19 18:49:45.319,763, 543, 310, -21, 4, 3, -8, 16, 0, 967, 943, 618,B
2025-03-19 18:49:45.332,707, 528, 401, -21, 5, 2, -8, 16, 0, 970, 947, 621,B
2025-03-19 18:49:45.338,669, 509, 490, -17, -1, 0, -11, 16, -2, 969, 949, 622,B
2025-03-19 18:49:45.350,624, 507, 552, -16, -11, -3, -9, 15, -1, 970, 953, 631,B
2025-03-19 18:49:45.359,614, 467, 585, -8, -22, -7, -10, 18, -1, 972, 953, 633,B
2025-03-19 18:49:45.367,626, 484, 606, -1, -33, -11, -9, 16, -2, 972, 954, 643,B
2025-03-19 18:49:45.376,588, 521, 620, 2, -43, -11, -9, 17, -3, 974, 957, 655,B
2025-03-19 18:49:45.384,577, 516, 606, 5, -47, -11, -10, 16, -1, 972, 957, 664,B
2025-03-19 18:49:45.393,625, 533, 561, 10, -49, -6, -10, 18, -2, 974, 957, 673,B
2025-03-19 18:49:45.402,647, 614, 613, 12, -50, 9, -8, 15, -1, 975, 959, 680,B
2025-03-19 18:49:45.413,728, 474, 512, 11, -50, -9, -12, 17, -2, 977, 962, 667,B
2025-03-19 18:49:45.420,983, 332, 503, 19, -17, -17, -9, 16, 0, 978, 962, 666,B
2025-03-19 18:49:45.429,760, 573, 553, 11, -19, -8, -9, 16, 0, 979, 965, 658,B
2025-03-19 18:49:45.437,826, 330, 346, 20, -12, -8, -10, 16, 0, 980, 965, 655,B
2025-03-19 18:49:45.446,841, 462, 408, 40, 4, -2, -10, 13, 0, 983, 965, 646,B
2025-03-19 18:49:45.454,910, 720, 312, 50, 22, 24, -10, 16, 0, 984, 967, 641,B
2025-03-19 18:49:45.464,822, 704, 58, 45, 44, 49, -9, 14, 3, 984, 966, 627,B
2025-03-19 18:49:45.471,345, 550, 249, 9, 53, 37, -10, 15, 1, 986, 964, 620,B
2025-03-19 18:49:45.483,352, 644, 205, 21, 47, 37, -8, 12, 0, 984, 964, 607,B
2025-03-19 18:49:45.490,462, 853, 176, 7, 47, 37, -10, 15, 0, 982, 962, 592,B
2025-03-19 18:49:45.500,901, 730, 260, 0, 36, 39, -7, 15, 3, 985, 963, 585,B
2025-03-19 18:49:45.507,784, 439, 296, -14, 23, 22, -8, 16, 1, 985, 962, 581,B
2025-03-19 18:49:45.517,744, 436, 221, -1, 19, 6, -8, 16, 1, 982, 962, 587,B
2025-03-19 18:49:45.527,766, 674, 346, -11, 12, 0, -8, 15, 0, 982, 959, 596,B
2025-03-19 18:49:45.536,706, 322, 492, -30, -11, -27, -7, 16, -4, 980, 957, 624,B
2025-03-19 18:49:45.545,570, 80, 611, -11, -40, -59, -9, 15, -1, 979, 957, 645,B
2025-03-19 18:49:45.552,492, 276, 565, 3, -50, -73, -9, 17, -1, 979, 959, 668,B
2025-03-19 18:49:45.563,669, 591, 587, 12, -59, -61, -8, 15, 0, 979, 960, 691,B
2025-03-19 18:49:45.572,778, 857, 439, -10, -38, -31, -11, 16, -1, 978, 963, 705,B
2025-03-19 18:49:45.581,751, 709, 508, -45, -34, -12, -9, 14, 0, 980, 967, 704,B
2025-03-19 18:49:45.589,790, 296, 512, -29, -25, -11, -9, 15, -1, 979, 971, 700,B
2025-03-19 18:49:45.599,685, 328, 691, -14, -19, -13, -9, 14, 0, 982, 972, 705,B
2025-03-19 18:49:45.606,779, 404, 587, -6, -22, -14, -9, 14, 1, 983, 974, 704,B
2025-03-19 18:49:45.615,727, 539, 436, 1, -19, -10, -9, 14, 1, 984, 973, 704,B
2025-03-19 18:49:45.619,758, 644, 461, 8, -15, 1, -8, 16, 1, 984, 975, 702,B
2025-03-19 18:49:45.634,666, 622, 397, 10, -7, 4, -9, 14, 1, 986, 975, 702,B
2025-03-19 18:49:45.637,717, 685, 486, 10, -4, 11, -10, 14, 2, 985, 974, 697,B
2025-03-19 18:49:45.650,565, 733, 384, 14, 6, 21, -9, 13, 2, 986, 975, 692,B
2025-03-19 18:49:45.659,615, 713, 485, 10, 11, 26, -10, 15, 2, 984, 976, 684,B
2025-03-19 18:49:45.668,499, 703, 430, 14, 12, 25, -9, 15, 1, 986, 976, 683,B
2025-03-19 18:49:45.676,687, 628, 422, 23, 10, 19, -9, 15, 1, 986, 973, 681,B
2025-03-19 18:49:45.687,905, 402, 464, 18, 10, 17, -9, 15, 1, 985, 973, 676,B
2025-03-19 18:49:45.695,639, 556, 333, 23, 14, 20, -9, 14, 1, 985, 972, 674,B
2025-03-19 18:49:45.703,940, 447, 309, 19, 14, 16, -9, 13, 3, 984, 972, 678,B
2025-03-19 18:49:45.712,829, 296, 310, 16, 10, 7, -9, 13, 3, 983, 970, 676,B
2025-03-19 18:49:45.720,934, 493, 188, 13, 13, 7, -9, 16, 0, 982, 969, 680,B
2025-03-19 18:49:45.732,891, 505, 224, 10, 18, 10, -11, 15, 1, 982, 970, 684,B
2025-03-19 18:49:45.738,799, 563, 427, -5, 17, 12, -10, 15, 1, 983, 971, 678,B
2025-03-19 18:49:45.749,708, 469, 477, -12, 15, 8, -8, 14, 0, 986, 971, 669,B
2025-03-19 18:49:45.756,666, 587, 668, -9, 11, 12, -10, 17, 1, 982, 971, 653,B
2025-03-19 18:49:45.767,552, 659, 741, -11, 7, 15, -9, 15, 0, 983, 972, 644,B
2025-03-19 18:49:45.769,550, 559, 648, -2, 7, 12, -8, 16, -1, 985, 971, 618,B
2025-03-19 18:49:45.782,539, 649, 608, 3, 10, 14, -9, 15, 2, 986, 971, 584,B
2025-03-19 18:49:45.794,919, 574, 625, 7, 11, 14, -10, 15, 0, 985, 971, 569,B
2025-03-19 18:49:45.802,658, 524, 398, 7, 12, 13, -10, 15, 0, 984, 971, 558,B
2025-03-19 18:49:45.811,722, 485, 262, 1, 12, 8, -9, 16, 1, 982, 968, 547,B
2025-03-19 18:49:45.818,761, 423, 190, 7, 16, 4, -9, 17, 0, 982, 966, 539,B
2025-03-19 18:49:45.828,856, 519, 175, -3, 19, 3, -9, 15, 0, 980, 957, 550,B
2025-03-19 18:49:45.835,970, 396, 164, 4, 22, -1, -9, 17, -1, 979, 950, 573,B
2025-03-19 18:49:45.847,950, 417, 176, 6, 23, -11, -9, 14, 0, 976, 942, 591,B
2025-03-19 18:49:45.852,1155, 246, 438, 0, 17, -36, -9, 18, -2, 974, 940, 613,B
2025-03-19 18:49:45.864,1250, 279, 186, -12, 29, -60, -7, 14, 1, 972, 941, 631,B
2025-03-19 18:49:45.871,1134, 452, 156, -30, 54, -72, -9, 17, -3, 969, 941, 637,B
2025-03-19 18:49:45.880,882, 625, 254, -45, 71, -65, -9, 15, -1, 971, 944, 636,B
2025-03-19 18:49:45.892,595, 620, 493, -56, 69, -51, -8, 15, -3, 969, 946, 620,B
2025-03-19 18:49:45.900,399, 573, 738, -47, 54, -40, -8, 15, -3, 969, 946, 613,B
2025-03-19 18:49:45.909,317, 554, 915, -35, 33, -33, -7, 15, -2, 971, 946, 623,B
2025-03-19 18:49:45.917,309, 577, 999, -22, 11, -25, -8, 16, -5, 969, 945, 628,B
2025-03-19 18:49:45.925,304, 662, 950, -11, -10, -14, -9, 15, -2, 969, 944, 635,B
2025-03-19 18:49:45.930,294, 668, 857, -4, -26, -4, -9, 16, -5, 968, 945, 639,B
2025-03-19 18:49:45.941,364, 630, 681, 8, -35, 4, -9, 16, -3, 966, 943, 641,B
2025-03-19 18:49:45.954,456, 663, 627, 18, -38, 13, -9, 15, -4, 967, 941, 642,B
2025-03-19 18:49:46.216,731, 564, 427, 1, -4, 8, -10, 16, -1, 968, 941, 596,C
2025-03-19 18:49:46.224,707, 557, 447, 1, -4, 10, -9, 15, -1, 968, 941, 591,C
2025-03-19 18:49:46.236,667, 564, 504, 2, -8, 11, -10, 15, 0, 968, 943, 591,C
2025-03-19 18:49:46.245,635, 540, 510, 1, -12, 11, -9, 14, -1, 969, 942, 597,C
2025-03-19 18:49:46.253,639, 536, 509, 3, -14, 11, -9, 14, -1, 970, 946, 596,C
2025-03-19 18:49:46.262,625, 545, 540, 3, -19, 11, -10, 17, 0, 970, 948, 598,C
2025-03-19 18:49:46.270,615, 572, 575, 3, -26, 12, -8, 15, 1, 970, 947, 605,C
2025-03-19 18:49:46.279,616, 554, 579, 2, -33, 12, -9, 16, 1, 968, 948, 616,C
2025-03-19 18:49:46.287,655, 478, 488, -1, -38, 8, -9, 14, 1, 970, 952, 595,C
2025-03-19 18:49:46.298,1203, 263, 227, -7, -17, -13, -11, 16, 0, 970, 958, 588,C
2025-03-19 18:49:46.306,698, 659, 458, -12, -10, -14, -9, 14, 1, 971, 957, 569,C
2025-03-19 18:49:46.315,757, 521, 432, -14, -16, -10, -8, 15, 2, 972, 960, 540,C
2025-03-19 18:49:46.322,679, 451, 369, -11, -9, -14, -8, 15, 3, 973, 962, 510,C
2025-03-19 18:49:46.332,786, 390, 531, -4, -11, -21, -10, 16, 1, 973, 961, 478,C
2025-03-19 18:49:46.343,992, 433, 540, -2, -11, -22, -8, 13, 3, 976, 960, 398,C
2025-03-19 18:49:46.351,725, 408, 478, 7, -10, -24, -8, 13, 3, 975, 958, 363,C
2025-03-19 18:49:46.360,748, 379, 524, 23, -10, -25, -9, 16, 0, 975, 955, 356,C
2025-03-19 18:49:46.368,788, 473, 501, 28, -10, -22, -9, 13, 3, 977, 956, 313,C
2025-03-19 18:49:46.376,648, 475, 393, 38, 0, -19, -11, 15, 1, 979, 952, 316,C
2025-03-19 18:49:46.384,851, 328, 427, 58, 14, -17, -9, 12, 3, 979, 952, 294,C
2025-03-19 18:49:46.395,751, 697, 403, 72, 28, 4, -9, 14, 2, 982, 950, 299,C
2025-03-19 18:49:46.404,322, 874, 270, 47, 36, 19, -9, 13, 4, 981, 952, 315,C
2025-03-19 18:49:46.411,591, 751, 111, 54, 46, 33, -10, 14, 1, 982, 956, 320,C
2025-03-19 18:49:46.420,665, 919, 190, 17, 40, 45, -8, 13, 3, 984, 959, 299,C
2025-03-19 18:49:46.430,1009, 663, 180, 7, 46, 59, -8, 14, 0, 983, 962, 278,C
2025-03-19 18:49:46.438,826, 915, 446, -19, 44, 66, -9, 13, 1, 982, 964, 259,C
2025-03-19 18:49:46.449,927, 284, 244, -50, 35, 47, -9, 13, 1, 983, 965, 300,C
2025-03-19 18:49:46.457,808, 549, 246, -3, 29, 39, -10, 16, 0, 981, 968, 381,C
2025-03-19 18:49:46.466,597, 534, 330, -21, 27, 29, -7, 14, 0, 981, 970, 445,C
2025-03-19 18:49:46.474,705, 613, 484, -25, 18, 27, -9, 15, -1, 981, 969, 498,C
2025-03-19 18:49:46.482,735, 597, 668, -22, 4, 26, -8, 15, 0, 980, 968, 535,C
2025-03-19 18:49:46.490,768, 338, 535, -6, -2, 14, -9, 17, -1, 976, 968, 572,C
2025-03-19 18:49:46.498,769, 340, 603, 9, -7, 3, -9, 16, 0, 975, 963, 609,C
2025-03-19 18:49:46.511,700, 377, 588, 1, -1, -13, -8, 16, 0, 974, 959, 637,C
2025-03-19 18:49:46.519,801, 302, 325, -4, 18, -35, -8, 15, 0, 970, 953, 644,C
2025-03-19 18:49:46.528,833, 307, 185, -9, 42, -54, -9, 16, -2, 971, 950, 646,C
2025-03-19 18:49:46.536,765, 420, 242, -11, 57, -62, -9, 16, -2, 969, 944, 650,C
2025-03-19 18:49:46.545,674, 548, 378, -16, 56, -60, -7, 14, -2, 967, 940, 655,C
2025-03-19 18:49:46.556,626, 611, 506, -20, 47, -53, -9, 16, -2, 965, 933, 655,C
2025-03-19 18:49:46.563,585, 587, 617, -21, 40, -46, -8, 13, -2, 963, 928, 642,C
2025-03-19 18:49:46.571,564, 560, 755, -18, 25, -41, -10, 16, -4, 963, 922, 641,C
2025-03-19 18:49:46.582,562, 613, 810, -18, 9, -33, -7, 14, -3, 963, 917, 637,C
2025-03-19 18:49:46.590,510, 623, 740, -18, -6, -23, -8, 15, -5, 964, 917, 637,C
2025-03-19 18:49:46.598,496, 610, 638, -8, -15, -13, -6, 14, -4, 962, 917, 641,C
2025-03-19 18:49:46.609,524, 644, 587, 0, -17, -7, -9, 15, -4, 963, 915, 640,C
2025-03-19 18:49:46.616,571, 661, 598, 4, -21, 2, -9, 16, -2, 962, 917, 633,C
2025-03-19 18:49:46.626,609, 644, 564, 7, -25, 7, -9, 14, -3, 963, 916, 633,C
2025-03-19 18:49:46.634,642, 594, 502, 8, -28, 10, -9, 14, -3, 963, 915, 638,C
2025-03-19 18:49:46.641,681, 563, 487, 9, -28, 10, -8, 14, -3, 962, 915, 633,C
2025-03-19 18:49:46.651,734, 544, 447, 10, -27, 8, -10, 15, -2, 961, 913, 634,C
2025-03-19 18:49:46.660,779, 547, 390, 6, -23, 7, -10, 15, -2, 961, 911, 634,C
2025-03-19 18:49:46.670,792, 550, 341, 2, -17, 5, -8, 14, -1, 962, 911, 635,C
2025-03-19 18:49:46.678,795, 569, 328, -1, -12, 4, -9, 15, -1, 963, 910, 629,C
2025-03-19 18:49:46.687,817, 545, 315, -3, -5, 0, -9, 15, -2, 961, 907, 631,C
2025-03-19 18:49:46.696,806, 525, 336, -6, 2, -2, -9, 15, -1, 962, 906, 637,C
2025-03-19 18:49:46.704,799, 537, 366, -11, 5, -5, -8, 14, -3, 961, 907, 626,C
2025-03-19 18:49:46.711,744, 550, 426, -12, 7, -6, -10, 16, 0, 962, 907, 617,C
2025-03-19 18:49:46.723,703, 551, 463, -12, 7, -7, -10, 16, 0, 963, 908, 615,C
2025-03-19 18:49:46.732,685, 566, 486, -9, 7, -6, -9, 14, -1, 961, 905, 620,C
2025-03-19 18:49:46.740,660, 572, 513, -9, 7, -4, -9, 14, -2, 962, 906, 618,C
2025-03-19 18:49:46.750,660, 584, 511, -10, 5, -2, -8, 14, -2, 962, 906, 613,C
2025-03-19 18:49:46.757,643, 576, 510, -8, 2, 0, -9, 17, -1, 963, 908, 600,C
2025-03-19 18:49:46.765,632, 558, 530, -4, -1, 1, -9, 14, 0, 964, 906, 596,C
2025-03-19 18:49:46.774,652, 556, 534, 0, -4, 2, -10, 16, -2, 962, 907, 594,C
2025-03-19 18:49:46.785,681, 575, 506, -1, -5, 3, -9, 13, -2, 964, 906, 599,C
2025-03-19 18:49:46.793,708, 579, 471, -3, -4, 4, -7, 16, -3, 962, 905, 589,C
2025-03-19 18:49:46.801,727, 545, 444, -2, -3, 4, -7, 16, -3, 962, 902, 590,C
2025-03-19 18:49:47.096,656, 578, 545, -4, -28, 7, -8, 15, 0, 962, 914, 568,D
2025-03-19 18:49:47.113,655, 584, 553, 1, -31, 14, -9, 15, -1, 963, 920, 580,D
2025-03-19 18:49:47.117,660, 566, 558, 5, -33, 18, -9, 14, 1, 964, 927, 594,D
2025-03-19 18:49:47.130,720, 467, 531, 14, -31, 19, -11, 15, -1, 965, 930, 605,D
2025-03-19 18:49:47.137,734, 444, 554, 20, -31, 18, -9, 13, 0, 967, 936, 617,D
2025-03-19 18:49:47.149,743, 524, 486, 23, -27, 20, -11, 16, -1, 967, 937, 614,D
2025-03-19 18:49:47.156,1155, 77, 303, 5, -11, -7, -9, 14, 2, 971, 939, 611,D
2025-03-19 18:49:47.166,781, 553, 400, 41, 2, 1, -9, 14, 1, 971, 940, 617,D
2025-03-19 18:49:47.170,683, 884, 368, 28, 8, 18, -9, 15, 2, 973, 943, 582,D
2025-03-19 18:49:47.183,639, 517, 288, 25, 21, 38, -8, 14, -1, 976, 942, 559,D
2025-03-19 18:49:47.191,594, 511, 375, 34, 33, 37, -8, 14, -1, 976, 940, 522,D
2025-03-19 18:49:47.199,571, 574, 505, 30, 38, 33, -8, 15, 0, 976, 940, 453,D
2025-03-19 18:49:47.211,781, 694, 357, 17, 37, 37, -10, 15, 1, 976, 938, 367,D
2025-03-19 18:49:47.219,917, 939, 281, 4, 36, 54, -9, 15, 1, 976, 938, 246,D
2025-03-19 18:49:47.228,865, 407, 405, -12, 36, 43, -9, 16, -1, 974, 934, 176,D
2025-03-19 18:49:47.236,717, 331, 446, 5, 27, 34, -8, 16, 0, 976, 931, 156,D
2025-03-19 18:49:47.245,718, 532, 237, -2, 26, 27, -8, 16, 1, 976, 930, 122,D
2025-03-19 18:49:47.256,773, 530, 248, -8, 25, 25, -7, 16, -1, 974, 931, 121,D
2025-03-19 18:49:47.265,742, 610, 325, -21, 22, 23, -7, 15, -1, 973, 929, 117,D
2025-03-19 18:49:47.272,722, 527, 375, -24, 19, 17, -9, 16, -2, 970, 929, 134,D
2025-03-19 18:49:47.281,753, 542, 415, -27, 12, 8, -9, 16, -2, 968, 923, 141,D
2025-03-19 18:49:47.289,572, 188, 747, -10, -19, -21, -8, 16, -1, 968, 919, 279,D
2025-03-19 18:49:47.299,586, 125, 645, -8, -45, -55, -8, 18, -2, 964, 914, 355,D
2025-03-19 18:49:47.309,625, 83, 552, -4, -51, -81, -9, 15, -3, 963, 912, 446,D
2025-03-19 18:49:47.317,577, 297, 585, 3, -65, -85, -9, 15, -2, 963, 921, 484,D
2025-03-19 18:49:47.326,912, 679, 386, -5, -60, -68, -7, 13, 0, 963, 935, 507,D
2025-03-19 18:49:47.334,847, 959, 337, -27, -40, -40, -9, 16, -1, 966, 946, 519,D
2025-03-19 18:49:47.339,931, 758, 551, -40, -34, -17, -9, 14, 0, 970, 954, 539,D
2025-03-19 18:49:47.351,868, 479, 566, -35, -33, 0, -10, 16, -1, 970, 959, 561,D
2025-03-19 18:49:47.363,798, 309, 610, -20, -28, 1, -8, 16, 1, 974, 963, 562,D
2025-03-19 18:49:47.369,800, 410, 629, -4, -24, 1, -9, 15, 0, 976, 968, 556,D
2025-03-19 18:49:47.379,770, 706, 509, -1, -21, 12, -9, 15, 0, 977, 969, 537,D
2025-03-19 18:49:47.387,718, 798, 308, 2, -7, 27, -10, 14, 3, 979, 971, 503,D
2025-03-19 18:49:47.396,544, 855, 440, -7, 4, 38, -10, 16, 0, 980, 971, 418,D
2025-03-19 18:49:47.402,421, 331, 298, 11, 12, 27, -9, 14, 2, 981, 971, 385,D
2025-03-19 18:49:47.416,534, 555, 419, 18, 16, 30, -12, 16, 1, 981, 971, 361,D
2025-03-19 18:49:47.424,428, 733, 397, 1, 21, 34, -10, 14, 4, 982, 971, 323,D
2025-03-19 18:49:47.431,586, 642, 329, 11, 29, 43, -11, 16, 0, 983, 971, 259,D
2025-03-19 18:49:47.439,821, 691, 248, 0, 32, 40, -9, 15, 2, 983, 968, 236,D
2025-03-19 18:49:47.447,595, 631, 385, -9, 38, 46, -9, 18, 0, 982, 967, 143,D
2025-03-19 18:49:47.457,501, 410, 363, -3, 29, 29, -7, 16, 3, 982, 964, 144,D
2025-03-19 18:49:47.469,717, 488, 388, -4, 26, 22, -8, 15, -1, 980, 958, 96,D
2025-03-19 18:49:47.477,665, 390, 305, 0, 24, 12, -8, 15, -1, 978, 951, 11,D
2025-03-19 18:49:47.485,824, 463, 334, 4, 24, 6, -9, 15, 1, 974, 935, 74,D
2025-03-19 18:49:47.494,770, 385, 370, 6, 25, -3, -8, 16, -1, 971, 922, 162,D
2025-03-19 18:49:47.502,876, 325, 372, 14, 24, -14, -8, 17, 0, 967, 902, 248,D
2025-03-19 18:49:47.511,857, 194, 487, 15, 18, -33, -9, 17, -1, 966, 883, 328,D
2025-03-19 18:49:47.519,1044, 225, 401, 13, 19, -48, -7, 17, 0, 963, 876, 390,D
2025-03-19 18:49:47.530,1079, 401, 322, 4, 28, -55, -8, 17, -2, 963, 877, 416,D
2025-03-19 18:49:47.536,972, 535, 272, -8, 38, -55, -7, 15, 0, 961, 881, 440,D
2025-03-19 18:49:47.547,833, 631, 345, -27, 44, -47, -8, 16, -4, 964, 884, 442,D
2025-03-19 18:49:47.556,669, 586, 494, -32, 42, -40, -10, 17, 0, 963, 894, 441,D
2025-03-19 18:49:47.846,691, 542, 479, -18, -15, -11, -7, 14, -2, 958, 912, 437,E
2025-03-19 18:49:47.847,665, 558, 510, -19, -19, -10, -9, 16, -1, 957, 915, 430,E
2025-03-19 18:49:47.863,640, 561, 552, -18, -24, -8, -8, 14, -1, 958, 921, 435,E
2025-03-19 18:49:47.868,613, 557, 567, -15, -30, -5, -10, 16, -2, 958, 925, 433,E
2025-03-19 18:49:47.882,618, 529, 555, -9, -34, -2, -9, 16, 0, 959, 929, 439,E
2025-03-19 18:49:47.890,648, 510, 569, 1, -36, 3, -10, 16, -1, 960, 930, 454,E
2025-03-19 18:49:47.898,701, 524, 555, 8, -34, 9, -9, 14, -1, 962, 935, 456,E
2025-03-19 18:49:47.906,743, 502, 534, 14, -29, 13, -9, 14, -1, 962, 936, 473,E
2025-03-19 18:49:47.916,1030, 358, 484, -7, -18, -4, -9, 16, -1, 966, 939, 437,E
2025-03-19 18:49:47.928,833, 321, 416, 21, -10, -12, -8, 15, 1, 968, 943, 444,E
2025-03-19 18:49:47.936,744, 574, 532, 15, -11, -8, -10, 16, -1, 972, 942, 418,E
2025-03-19 18:49:47.944,748, 411, 405, 25, -3, -5, -8, 14, 3, 972, 944, 394,E
2025-03-19 18:49:47.952,784, 530, 361, 45, 13, 2, -11, 15, 1, 974, 945, 388,E
2025-03-19 18:49:47.961,766, 820, 383, 40, 25, 28, -11, 13, 3, 975, 946, 331,E
2025-03-19 18:49:47.969,782, 534, 532, 20, 29, 28, -9, 15, 0, 975, 944, 255,E
2025-03-19 18:49:47.981,340, 842, 206, 41, 35, 30, -8, 13, 2, 979, 945, 263,E
2025-03-19 18:49:47.988,727, 761, 391, 17, 39, 48, -10, 16, -1, 978, 944, 235,E
2025-03-19 18:49:47.999,893, 910, 327, 17, 42, 64, -8, 14, 1, 977, 942, 191,E
2025-03-19 18:49:48.006,558, 269, 545, -26, 38, 51, -8, 14, 1, 978, 941, 176,E
2025-03-19 18:49:48.015,1019, 524, 98, -11, 32, 35, -10, 16, 0, 976, 942, 146,E
2025-03-19 18:49:48.020,801, 454, 359, -10, 28, 29, -8, 14, 2, 976, 942, 143,E
2025-03-19 18:49:48.033,720, 612, 409, -17, 24, 27, -9, 16, -3, 975, 941, 161,E
2025-03-19 18:49:48.037,711, 528, 361, -21, 16, 16, -9, 16, -1, 973, 940, 160,E
2025-03-19 18:49:48.051,796, 637, 459, -37, 11, 12, -9, 17, -1, 971, 934, 165,E
2025-03-19 18:49:48.058,615, 287, 759, -37, -15, -20, -6, 16, 0, 969, 920, 294,E
2025-03-19 18:49:48.067,705, 30, 640, -9, -40, -55, -9, 18, -3, 969, 911, 386,E
2025-03-19 18:49:48.076,677, 83, 542, 5, -52, -85, -8, 17, -1, 966, 912, 458,E
2025-03-19 18:49:48.087,558, 348, 549, 3, -60, -92, -9, 15, -1, 966, 920, 504,E
2025-03-19 18:49:48.095,762, 651, 468, -2, -61, -75, -7, 14, 0, 965, 933, 508,E
2025-03-19 18:49:48.102,849, 806, 374, -11, -39, -47, -7, 14, 0, 967, 945, 511,E
2025-03-19 18:49:48.112,858, 797, 646, -19, -27, -22, -9, 14, -2, 970, 955, 511,E
2025-03-19 18:49:48.120,829, 550, 552, -30, -24, -8, -7, 16, 1, 972, 962, 510,E
2025-03-19 18:49:48.130,830, 142, 649, -10, -31, -18, -9, 15, -1, 974, 969, 531,E
2025-03-19 18:49:48.139,831, 372, 599, 24, -38, -16, -10, 16, 2, 976, 975, 558,E
2025-03-19 18:49:48.148,796, 732, 412, 24, -36, -2, -10, 14, 2, 978, 975, 570,E
2025-03-19 18:49:48.156,849, 598, 161, 34, -24, 4, -9, 14, 2, 979, 975, 580,E
2025-03-19 18:49:48.165,806, 723, 287, 30, -18, 13, -10, 15, 1, 980, 977, 587,E
2025-03-19 18:49:48.170,716, 728, 220, 25, -7, 24, -9, 15, 2, 981, 977, 591,E
2025-03-19 18:49:48.182,724, 701, 283, 13, 5, 36, -10, 13, 0, 982, 977, 587,E
2025-03-19 18:49:48.195,610, 611, 335, -10, 17, 43, -12, 14, 3, 983, 975, 586,E
2025-03-19 18:49:48.202,577, 486, 432, 4, 17, 37, -12, 14, 3, 983, 972, 588,E
2025-03-19 18:49:48.211,627, 491, 457, 17, 18, 30, -10, 15, 0, 981, 971, 597,E
2025-03-19 18:49:48.219,646, 526, 580, 23, 20, 26, -11, 15, 1, 980, 968, 599,E
2025-03-19 18:49:48.228,612, 561, 487, 21, 19, 22, -9, 15, 0, 979, 965, 588,E
2025-03-19 18:49:48.237,575, 554, 479, 14, 24, 16, -11, 16, 2, 976, 962, 576,E
2025-03-19 18:49:48.248,565, 370, 465, 17, 29, 1, -9, 16, 1, 976, 953, 584,E
2025-03-19 18:49:48.255,583, 276, 520, 22, 26, -17, -9, 16, 1, 975, 946, 580,E
2025-03-19 18:49:48.264,527, 412, 561, 20, 15, -24, -9, 14, 1, 974, 941, 578,E
2025-03-19 18:49:48.270,504, 556, 599, 9, -2, -20, -9, 16, 1, 973, 929, 551,E
2025-03-19 18:49:48.281,662, 581, 528, -18, -10, -22, -9, 15, 3, 976, 929, 470,E
2025-03-19 18:49:48.292,1170, 387, 266, 3, -6, -27, -9, 15, 2, 976, 935, 454,E
2025-03-19 18:49:48.300,937, 745, 338, -1, -9, -11, -9, 15, 2, 979, 946, 421,E
2025-03-19 18:49:48.306,905, 582, 174, -27, -3, -5, -8, 13, 2, 979, 954, 424,E
2025-03-19 18:49:48.317,903, 508, 180, 0, 5, 1, -10, 17, 1, 980, 961, 479,E
2025-03-19 18:49:48.324,682, 874, 351, -13, 7, 10, -10, 13, 2, 982, 967, 459,E
2025-03-19 18:49:48.333,956, 696, 320, -6, 7, 25, -9, 15, 1, 980, 970, 467,E
2025-03-19 18:49:48.339,773, 702, 436, -17, 9, 35, -7, 13, 2, 981, 973, 472,E
2025-03-19 18:49:48.351,663, 450, 416, -16, 9, 33, -10, 16, 3, 982, 971, 468,E
2025-03-19 18:49:48.362,717, 437, 515, -2, 7, 30, -10, 14, 1, 982, 970, 481,E
2025-03-19 18:49:48.370,672, 597, 492, 8, 12, 36, -9, 16, 0, 981, 970, 480,E
2025-03-19 18:49:48.378,740, 501, 444, 6, 16, 30, -10, 14, 3, 981, 966, 495,E
2025-03-19 18:49:48.387,674, 421, 459, 25, 24, 23, -10, 14, 3, 981, 962, 510,E
2025-03-19 18:49:48.395,659, 586, 463, 19, 33, 21, -10, 16, 1, 977, 953, 510,E
2025-03-19 18:49:48.406,671, 437, 416, 8, 44, 5, -9, 15, 0, 976, 935, 440,E
2025-03-19 18:49:48.414,641, 277, 421, 11, 53, -19, -10, 16, 0, 975, 902, 428,E
2025-03-19 18:49:48.420,466, 326, 545, 23, 45, -30, -7, 14, 0, 970, 841, 383,E
2025-03-19 18:49:48.430,366, 514, 708, 25, 19, -24, -9, 15, 0, 967, 782, 362,E
2025-03-19 18:49:48.439,389, 650, 741, 31, -12, -4, -6, 14, 1, 968, 715, 360,E
2025-03-19 18:49:48.449,658, 637, 667, 31, -36, 14, -8, 15, -2, 967, 735, 287,E
2025-03-19 18:49:48.461,1649, 113, -6, -13, -14, -9, -8, 15, 0, 970, 804, 301,E
2025-03-19 18:49:48.468,984, 671, 106, 40, -3, -7, -10, 15, -1, 972, 871, 323,E
2025-03-19 18:49:48.477,861, 833, 283, -10, -4, 6, -9, 14, 1, 975, 912, 303,E
2025-03-19 18:49:48.485,866, 405, 28, 6, 7, 5, -9, 14, 1, 976, 936, 335,E
2025-03-19 18:49:48.494,862, 736, 437, 10, 11, 17, -10, 16, -2, 977, 947, 386,E
2025-03-19 18:49:48.501,846, 717, 444, -26, 5, 22, -8, 14, 2, 978, 952, 437,E
2025-03-19 18:49:48.513,964, 602, 361, -3, 3, 27, -8, 15, -1, 979, 954, 498,E
2025-03-19 18:49:48.520,702, 668, 523, -9, 5, 30, -7, 14, 0, 978, 954, 516,E
2025-03-19 18:49:48.530,853, 362, 421, 7, 9, 20, -9, 15, -1, 976, 952, 542,E
2025-03-19 18:49:48.537,851, 732, 586, -16, 6, 20, -8, 15, -1, 975, 949, 552,E
2025-03-19 18:49:48.548,908, 397, 450, -18, 11, 6, -8, 17, -2, 972, 943, 560,E
2025-03-19 18:49:48.549,950, 132, 194, -18, 34, -30, -7, 15, 0, 974, 938, 553,E
2025-03-19 18:49:48.566,877, 193, 173, -15, 55, -57, -9, 16, -1, 972, 935, 548,E
2025-03-19 18:49:48.570,743, 485, 278, -18, 63, -64, -9, 16, -1, 969, 925, 528,E
2025-03-19 18:49:48.583,637, 575, 357, -25, 61, -61, -7, 14, -1, 968, 916, 536,E
2025-03-19 18:49:48.592,556, 568, 425, -29, 55, -55, -8, 15, -3, 968, 913, 524,E
2025-03-19 18:49:48.846,713, 529, 500, -7, -27, 3, -9, 15, 0, 958, 900, 564,F
2025-03-19 18:49:48.863,735, 520, 478, -1, -22, 3, -10, 15, 0, 958, 903, 573,F
2025-03-19 18:49:48.867,750, 530, 455, 2, -17, 5, -10, 15, -1, 959, 903, 575,F
2025-03-19 18:49:48.882,719, 544, 466, 2, -15, 7, -8, 13, 1, 960, 905, 581,F
2025-03-19 18:49:48.889,704, 540, 481, 4, -14, 9, -10, 16, -1, 958, 906, 580,F
2025-03-19 18:49:48.898,702, 507, 494, 7, -15, 9, -9, 13, 0, 959, 904, 583,F
2025-03-19 18:49:48.906,678, 532, 519, 9, -16, 10, -9, 13, 0, 961, 906, 580,F
2025-03-19 18:49:48.915,646, 528, 529, 11, -21, 11, -9, 15, 1, 961, 909, 585,F
2025-03-19 18:49:48.920,662, 502, 533, 16, -25, 11, -9, 13, 1, 961, 912, 592,F
2025-03-19 18:49:48.930,672, 515, 543, 20, -26, 11, -9, 16, 0, 963, 914, 572,F
2025-03-19 18:49:48.943,1096, 200, 367, 20, -15, -8, -8, 15, 2, 966, 916, 568,F
2025-03-19 18:49:48.952,786, 497, 489, 32, -9, -10, -10, 15, 2, 967, 917, 556,F
2025-03-19 18:49:48.961,838, 654, 434, 26, -5, 6, -9, 13, 2, 968, 916, 534,F
2025-03-19 18:49:48.969,711, 459, 345, 49, 11, 15, -9, 15, 2, 972, 918, 498,F
2025-03-19 18:49:48.978,777, 693, 402, 44, 24, 21, -7, 12, 3, 973, 914, 388,F
2025-03-19 18:49:48.989,871, 741, 344, 44, 35, 33, -10, 15, 2, 975, 909, 276,F
2025-03-19 18:49:48.997,1130, 859, 333, 9, 44, 43, -8, 15, 2, 975, 907, 155,F
2025-03-19 18:49:49.005,996, 974, 48, 10, 44, 54, -8, 15, 2, 977, 903, 27,F
2025-03-19 18:49:49.014,1036, 906, 202, -57, 38, 55, -9, 14, 1, 975, 888, 23,F
2025-03-19 18:49:49.022,653, 350, 344, -20, 22, 36, -10, 14, 2, 974, 882, 20,F
2025-03-19 18:49:49.031,580, 574, 126, -7, 30, 33, -8, 15, 0, 973, 870, 24,F
2025-03-19 18:49:49.038,722, 443, 252, -4, 26, 26, -6, 15, 1, 971, 870, 21,F
2025-03-19 18:49:49.049,773, 544, 382, -6, 19, 18, -8, 17, 1, 970, 867, 34,F
2025-03-19 18:49:49.057,793, 527, 366, -11, 16, 11, -9, 14, 1, 968, 868, 47,F
2025-03-19 18:49:49.066,806, 521, 492, -18, 9, 3, -9, 15, 0, 966, 865, 120,F
2025-03-19 18:49:49.073,765, 270, 618, -17, -7, -19, -9, 14, 2, 963, 855, 235,F
2025-03-19 18:49:49.083,843, 152, 430, -5, -16, -38, -9, 16, -1, 958, 849, 354,F
2025-03-19 18:49:49.095,850, 211, 343, -6, -11, -61, -9, 16, -1, 954, 849, 413,F
2025-03-19 18:49:49.101,809, 426, 331, -20, -4, -68, -8, 14, 1, 955, 864, 428,F
2025-03-19 18:49:49.112,764, 629, 379, -38, 2, -61, -10, 16, -1, 953, 879, 431,F
2025-03-19 18:49:49.118,659, 667, 479, -42, 8, -45, -9, 15, 0, 955, 888, 438,F
2025-03-19 18:49:49.128,641, 571, 590, -32, 11, -29, -8, 15, -1, 955, 899, 444,F
2025-03-19 18:49:49.136,594, 598, 644, -27, 9, -19, -9, 15, 0, 957, 904, 444,F
2025-03-19 18:49:49.147,556, 613, 694, -21, -1, -12, -10, 14, -3, 957, 913, 455,F
2025-03-19 18:49:49.156,541, 570, 701, -14, -11, -7, -10, 14, -1, 959, 913, 464,F
2025-03-19 18:49:49.165,572, 554, 619, -6, -17, -4, -7, 15, -1, 959, 916, 486,F
2025-03-19 18:49:49.170,603, 589, 544, -3, -19, 0, -9, 14, 0, 959, 918, 488,F
2025-03-19 18:49:49.182,657, 594, 500, 1, -19, 2, -10, 15, -2, 959, 920, 492,F
2025-03-19 18:49:49.186,709, 574, 463, 1, -16, 2, -10, 15, -2, 959, 921, 493,F
2025-03-19 18:49:49.199,730, 560, 439, 0, -15, 2, -9, 15, 0, 958, 919, 507,F
2025-03-19 18:49:49.210,738, 540, 421, 3, -13, 1, -9, 15, 1, 960, 918, 504,F
2025-03-19 18:49:49.218,745, 539, 405, 4, -11, -1, -9, 15, 1, 959, 917, 501,F
2025-03-19 18:49:49.226,733, 544, 397, 2, -10, -2, -9, 15, 1, 961, 916, 511,F
2025-03-19 18:49:49.235,725, 550, 404, -1, -8, -3, -9, 14, -1, 960, 914, 505,F
2025-03-19 18:49:49.243,722, 540, 416, -1, -5, -4, -9, 15, -1, 962, 910, 502,F
2025-03-19 18:49:49.251,723, 526, 451, 0, -3, -3, -10, 15, 3, 962, 907, 497,F
2025-03-19 18:49:49.263,735, 555, 462, -3, -1, -2, -8, 15, 1, 960, 907, 488,F
2025-03-19 18:49:49.271,729, 568, 466, -5, -2, -1, -10, 16, 1, 960, 903, 487,F
2025-03-19 18:49:49.279,695, 544, 469, -5, -5, -2, -10, 16, 1, 962, 901, 487,F
2025-03-19 18:49:49.287,675, 520, 489, -5, -8, -2, -9, 12, 2, 963, 903, 497,F
2025-03-19 18:49:49.296,668, 528, 495, -3, -11, -3, -11, 15, 1, 962, 903, 487,F
2025-03-19 18:49:49.301,667, 549, 502, -1, -14, 0, -9, 14, 2, 961, 903, 488,F
2025-03-19 18:49:49.313,664, 572, 519, 1, -16, 4, -9, 14, 0, 963, 907, 490,F
2025-03-19 18:49:49.318,656, 564, 520, 3, -20, 6, -11, 14, 1, 962, 909, 488,F
2025-03-19 18:49:49.330,687, 553, 507, 5, -22, 8, -10, 15, 2, 963, 913, 477,F
2025-03-19 18:49:49.341,703, 490, 394, -3, -20, 4, -9, 13, 3, 965, 920, 374,F
2025-03-19 18:49:49.348,845, 356, 373, 3, -7, -7, -8, 16, 0, 965, 922, 359,F
2025-03-19 18:49:49.356,764, 663, 418, -8, -8, -3, -8, 16, 0, 967, 926, 316,F
2025-03-19 18:49:49.366,758, 543, 309, -11, -5, -1, -8, 13, 4, 968, 930, 256,F
2025-03-19 18:49:49.366,780, 440, 356, 0, 0, -4, -10, 14, 1, 969, 932, 258,F
2025-03-19 18:49:49.386,732, 544, 469, -1, -1, -5, -10, 13, 3, 968, 937, 255,F
2025-03-19 18:49:49.394,726, 522, 437, 1, -1, -5, -9, 15, 1, 968, 938, 238,F
2025-03-19 18:49:49.402,724, 529, 472, 4, -2, -6, -9, 13, 2, 968, 939, 258,F
2025-03-19 18:49:49.411,718, 582, 475, 2, -4, -5, -9, 15, 0, 969, 942, 257,F
2025-03-19 18:49:49.419,728, 550, 463, 0, -4, -5, -10, 14, 2, 969, 943, 244,F
2025-03-19 18:49:49.427,722, 562, 449, 2, -5, -5, -9, 15, 3, 969, 942, 241,F
2025-03-19 18:49:49.436,725, 590, 414, 0, -5, -3, -9, 15, 2, 970, 944, 229,F
2025-03-19 18:49:49.447,724, 583, 407, -3, -3, -3, -9, 15, 2, 971, 945, 226,F
2025-03-19 18:49:49.451,724, 561, 415, -1, -2, -2, -10, 14, 0, 971, 946, 226,F
2025-03-19 18:49:49.462,729, 567, 394, -1, -1, -1, -8, 16, 3, 972, 946, 234,F
2025-03-19 18:49:49.466,728, 569, 402, -4, 0, -1, -10, 15, 2, 973, 949, 224,F
2025-03-19 18:49:49.480,726, 556, 425, -5, 1, -1, -8, 13, 3, 974, 949, 212,F
2025-03-19 18:49:49.489,723, 546, 443, -5, 1, -1, -10, 16, 0, 972, 948, 206,F
2025-03-19 18:49:49.497,718, 510, 458, -5, 0, -2, -9, 13, 2, 974, 952, 215,F
2025-03-19 18:49:49.506,714, 501, 475, -2, -1, -4, -11, 15, 1, 973, 953, 218,F
2025-03-19 18:49:49.517,717, 553, 465, -1, -3, -4, -10, 15, 2, 974, 953, 210,F
2025-03-19 18:49:49.524,724, 584, 465, -3, -3, -3, -9, 15, 1, 976, 956, 211,F
2025-03-19 18:49:49.533,736, 529, 457, -1, -4, -1, -9, 15, 1, 977, 958, 246,F
2025-03-19 18:49:49.540,772, 565, 443, 3, -6, 2, -9, 14, 3, 975, 961, 291,F
2025-03-19 18:49:49.549,802, 553, 418, 12, -5, 6, -10, 15, 0, 977, 966, 365,F
2025-03-19 18:49:49.557,870, 418, 480, 29, -11, 5, -8, 14, 2, 980, 967, 415,F
2025-03-19 18:49:49.569,779, 723, 442, 22, -14, 13, -10, 15, 1, 981, 970, 473,F
2025-03-19 18:49:49.578,908, 724, 352, 9, -12, 22, -9, 12, 4, 981, 974, 508,F
2025-03-19 18:49:49.586,966, 608, 408, 11, -12, 31, -10, 14, 0, 981, 974, 536,F
2025-03-19 18:49:49.594,666, 568, 252, 7, -6, 33, -9, 13, 2, 981, 975, 531,F
2025-03-19 18:49:49.603,515, 361, 335, 11, 1, 21, -10, 15, 2, 983, 973, 544,F
2025-03-19 18:49:49.612,698, 526, 511, 15, 0, 18, -8, 14, 3, 983, 973, 560,F
2025-03-19 18:49:49.618,615, 587, 481, 7, 1, 17, -8, 14, 3, 982, 973, 568,F
2025-03-19 18:49:49.631,625, 429, 410, 17, 6, 11, -11, 16, 1, 979, 969, 591,F
2025-03-19 18:49:49.636,660, 568, 497, 28, 8, 10, -8, 13, 2, 977, 966, 609,F
2025-03-19 18:49:49.647,747, 451, 516, 37, 6, 5, -10, 15, 0, 976, 961, 613,F
2025-03-19 18:49:49.656,654, 582, 275, 40, 24, 9, -9, 14, 2, 973, 955, 603,F
2025-03-19 18:49:49.663,664, 605, 303, 32, 43, 8, -9, 14, 2, 972, 950, 587,F
2025-03-19 18:49:49.676,730, 404, 358, 22, 56, -7, -10, 13, 2, 971, 941, 584,F
2025-03-19 18:49:49.684,710, 408, 395, 13, 61, -18, -9, 15, 1, 970, 935, 564,F
2025-03-19 18:49:49.693,550, 463, 509, 8, 54, -29, -9, 15, 2, 969, 919, 537,F
2025-03-19 18:49:49.698,397, 566, 653, 1, 35, -29, -9, 14, -1, 969, 897, 408,F
2025-03-19 18:49:49.711,379, 659, 689, -2, 10, -19, -9, 14, -1, 967, 859, 378,F
2025-03-19 18:49:49.718,568, 694, 659, 7, -15, 0, -8, 13, 1, 969, 837, 302,F
2025-03-19 18:49:49.730,793, 682, 633, 14, -33, 19, -11, 13, -1, 971, 871, 184,F
2025-03-19 18:49:49.736,1106, 111, 197, 33, -14, -13, -8, 14, 0, 974, 915, 313,F
2025-03-19 18:49:49.746,964, 771, 373, 26, -16, -5, -9, 13, 1, 975, 938, 388,F
2025-03-19 18:49:49.752,859, 651, 151, 4, -10, 2, -8, 13, 2, 978, 955, 384,F
2025-03-19 18:49:49.763,908, 609, 170, 17, -3, 10, -8, 13, 2, 979, 965, 415,F
2025-03-19 18:49:49.769,977, 1037, 394, -7, -4, 37, -9, 15, 2, 980, 969, 415,F
2025-03-19 18:49:49.783,1053, 635, 367, -27, 1, 52, -8, 13, 2, 982, 972, 460,F
2025-03-19 18:49:49.791,671, 557, 444, -28, 4, 43, -10, 14, 1, 981, 975, 440,F
2025-03-19 18:49:49.798,776, 167, 340, 4, 8, 25, -9, 13, 1, 983, 973, 493,F
2025-03-19 18:49:49.807,690, 645, 552, 13, 1, 32, -9, 13, 1, 982, 972, 503,F
2025-03-19 18:49:49.816,716, 418, 350, 2, 1, 26, -10, 15, 0, 978, 971, 516,F
2025-03-19 18:49:49.816,708, 380, 360, 20, 8, 18, -9, 14, 0, 978, 965, 562,F
2025-03-19 18:49:49.833,741, 673, 369, 3, 14, 15, -9, 15, 0, 978, 962, 566,F
2025-03-19 18:49:49.844,906, 356, 261, -8, 29, -9, -9, 14, 1, 976, 958, 574,F
2025-03-19 18:49:49.851,922, 155, 163, -11, 51, -45, -9, 16, -1, 972, 953, 584,F
2025-03-19 18:49:49.862,806, 319, 211, -10, 66, -68, -10, 15, 0, 969, 945, 581,F
2025-03-19 18:49:49.868,671, 533, 281, -23, 69, -71, -9, 15, -1, 965, 936, 578,F
2025-03-19 18:49:49.878,547, 636, 413, -36, 64, -65, -9, 14, -2, 965, 926, 529,F
2025-03-19 18:49:49.890,497, 619, 505, -44, 56, -61, -9, 16, -2, 963, 910, 511,F
2025-03-19 18:49:50.194,716, 561, 459, -8, -7, 6, -9, 15, 0, 958, 899, 547,G
2025-03-19 18:49:50.201,724, 569, 450, -9, -8, 8, -9, 14, -1, 960, 904, 546,G
2025-03-19 18:49:50.213,708, 581, 460, -10, -10, 10, -8, 16, -1, 960, 909, 555,G
2025-03-19 18:49:50.219,708, 570, 460, -12, -12, 11, -9, 15, 0, 961, 914, 550,G
2025-03-19 18:49:50.230,701, 568, 460, -14, -14, 12, -8, 15, 1, 962, 921, 549,G
2025-03-19 18:49:50.236,683, 582, 492, -14, -18, 14, -8, 15, 1, 962, 926, 552,G
2025-03-19 18:49:50.250,654, 573, 513, -13, -24, 16, -9, 14, 0, 962, 933, 559,G
2025-03-19 18:49:50.257,652, 540, 511, -10, -28, 16, -9, 14, 0, 964, 938, 553,G
2025-03-19 18:49:50.267,642, 541, 536, -6, -32, 16, -11, 14, 1, 965, 941, 544,G
2025-03-19 18:49:50.268,644, 516, 501, -5, -34, 15, -9, 15, 0, 966, 945, 526,G
2025-03-19 18:49:50.283,1288, 501, 238, -31, -20, -1, -8, 14, 1, 970, 951, 479,G
2025-03-19 18:49:50.292,782, 493, 475, -12, -12, -9, -9, 15, 2, 967, 952, 455,G
2025-03-19 18:49:50.299,675, 616, 395, -15, -13, -5, -9, 15, 2, 971, 954, 376,G
2025-03-19 18:49:50.312,664, 425, 336, -5, -8, -10, -9, 15, 1, 972, 953, 371,G
2025-03-19 18:49:50.320,798, 574, 423, -6, -4, -9, -9, 15, 1, 972, 955, 318,G
2025-03-19 18:49:50.328,698, 589, 483, -10, -5, -8, -9, 15, 1, 971, 956, 277,G
2025-03-19 18:49:50.336,627, 418, 487, -4, -3, -12, -10, 15, 1, 971, 954, 205,G
2025-03-19 18:49:50.345,782, 383, 597, 5, -3, -17, -9, 15, 2, 975, 951, 208,G
2025-03-19 18:49:50.353,629, 452, 549, 13, -3, -19, -9, 14, 2, 973, 950, 157,G
2025-03-19 18:49:50.365,850, 372, 544, 29, 3, -20, -9, 13, 2, 975, 947, 159,G
2025-03-19 18:49:50.370,665, 720, 394, 39, 8, -9, -9, 14, 1, 977, 945, 112,G
2025-03-19 18:49:50.379,750, 554, 295, 25, 16, 2, -9, 12, 2, 977, 943, 68,G
2025-03-19 18:49:50.389,996, 782, 251, 26, 24, 18, -9, 15, 0, 980, 943, 43,G
2025-03-19 18:49:50.397,581, 620, 87, 22, 31, 30, -8, 13, 3, 981, 949, 32,G
2025-03-19 18:49:50.406,815, 1272, 390, -42, 42, 43, -8, 15, 1, 982, 952, 26,G
2025-03-19 18:49:50.417,859, 557, 209, -22, 35, 51, -8, 15, 1, 982, 954, 15,G
2025-03-19 18:49:50.427,998, 476, 187, -23, 33, 48, -8, 13, 1, 983, 959, 29,G
2025-03-19 18:49:50.434,951, 474, 298, -21, 26, 49, -10, 17, 0, 982, 960, 17,G
2025-03-19 18:49:50.443,884, 422, 348, -29, 26, 34, -8, 15, 2, 983, 964, 21,G
2025-03-19 18:49:50.449,652, 619, 567, -47, 14, 32, -9, 16, 0, 981, 966, 19,G
2025-03-19 18:49:50.460,708, 386, 576, -34, 1, 24, -9, 15, 0, 981, 968, 21,G
2025-03-19 18:49:50.468,736, 464, 591, -34, -10, 8, -9, 17, -1, 980, 966, 18,G
2025-03-19 18:49:50.480,595, 259, 688, -15, -26, -11, -9, 16, 1, 980, 969, 124,G
2025-03-19 18:49:50.487,464, 241, 691, 0, -34, -25, -10, 18, 0, 979, 968, 143,G
2025-03-19 18:49:50.496,609, 340, 598, 16, -26, -27, -9, 15, 0, 977, 966, 194,G
2025-03-19 18:49:50.502,674, 451, 649, 19, -22, -22, -7, 15, 0, 978, 966, 197,G
2025-03-19 18:49:50.513,728, 500, 561, 20, -16, -15, -7, 15, 0, 977, 965, 194,G
2025-03-19 18:49:50.518,699, 440, 573, 20, -16, -14, -8, 15, 1, 978, 966, 201,G
2025-03-19 18:49:50.532,701, 491, 430, 24, -10, -13, -9, 16, 0, 981, 966, 184,G
2025-03-19 18:49:50.540,695, 690, 259, 29, -4, 5, -9, 15, 3, 980, 966, 175,G
2025-03-19 18:49:50.547,853, 845, 307, 19, 14, 11, -11, 16, 0, 981, 963, 166,G
2025-03-19 18:49:50.556,746, 746, 121, 17, 20, 19, -9, 14, 2, 981, 962, 148,G
2025-03-19 18:49:50.566,940, 833, 216, -14, 36, 36, -8, 16, 0, 980, 961, 80,G
2025-03-19 18:49:50.572,830, 638, 352, -14, 37, 37, -8, 15, 1, 982, 958, 37,G
2025-03-19 18:49:50.586,791, 647, 424, -25, 32, 32, -10, 16, -1, 982, 953, 38,G
2025-03-19 18:49:50.595,788, 337, 417, -12, 21, 14, -6, 14, 1, 979, 946, 11,G
2025-03-19 18:49:50.602,785, 472, 420, -21, 14, 0, -9, 17, -2, 979, 936, 19,G
2025-03-19 18:49:50.610,809, 225, 508, -24, 5, -29, -9, 17, -2, 976, 927, 12,G
2025-03-19 18:49:50.619,774, 208, 435, -14, 3, -55, -9, 15, 0, 975, 920, 25,G
2025-03-19 18:49:50.628,573, 347, 476, -9, 2, -67, -9, 17, -2, 973, 913, 22,G
2025-03-19 18:49:50.636,417, 526, 605, -9, -5, -60, -8, 15, -1, 972, 903, 20,G
2025-03-19 18:49:50.648,397, 644, 702, -9, -22, -36, -10, 17, -2, 973, 905, 67,G
2025-03-19 18:49:50.656,441, 677, 834, 12, -38, -7, -10, 15, 1, 970, 918, 150,G
2025-03-19 18:49:50.662,602, 633, 821, 25, -58, 14, -8, 15, 0, 975, 937, 131,G
2025-03-19 18:49:50.671,2020, 203, 48, -22, -26, -8, -9, 14, -1, 975, 951, 142,G
2025-03-19 18:49:50.678,812, 735, 649, 38, -17, 1, -9, 15, -1, 979, 959, 205,G
2025-03-19 18:49:50.691,879, 502, 344, 9, -25, 5, -10, 14, 2, 981, 964, 172,G
2025-03-19 18:49:50.700,772, 323, -4, 38, -6, 3, -10, 14, 2, 982, 966, 227,G
2025-03-19 18:49:50.708,985, 844, 280, 25, 4, 23, -10, 16, 0, 981, 967, 237,G
2025-03-19 18:49:50.717,866, 726, 111, -2, 13, 40, -8, 14, 1, 980, 965, 246,G
2025-03-19 18:49:50.725,913, 593, 320, -11, 17, 42, -9, 16, 2, 978, 963, 231,G
2025-03-19 18:49:50.734,847, 466, 388, -11, 20, 39, -10, 15, 0, 978, 959, 275,G
2025-03-19 18:49:50.746,840, 397, 553, -7, 18, 22, -9, 16, -1, 977, 956, 304,G
2025-03-19 18:49:50.753,890, 192, 397, -8, 30, -8, -9, 17, 0, 976, 950, 288,G
2025-03-19 18:49:50.763,875, 140, 279, -9, 48, -42, -9, 16, 1, 975, 942, 323,G
2025-03-19 18:49:51.046,641, 576, 516, -16, -18, -12, -9, 17, -2, 947, 855, 200,H
2025-03-19 18:49:51.056,638, 587, 537, -14, -23, -7, -9, 14, 1, 945, 862, 202,H
2025-03-19 18:49:51.064,636, 595, 537, -9, -28, 0, -10, 16, -1, 944, 874, 179,H
2025-03-19 18:49:51.072,656, 595, 562, -1, -36, 9, -9, 14, 1, 946, 892, 241,H
2025-03-19 18:49:51.081,646, 570, 523, -2, -41, 13, -11, 15, -1, 948, 903, 284,H
2025-03-19 18:49:51.089,678, 535, 477, 1, -40, 13, -11, 15, -1, 951, 912, 336,H
2025-03-19 18:49:51.097,729, 203, 210, -25, -23, -1, -9, 12, 3, 955, 922, 251,H
2025-03-19 18:49:51.110,890, 247, 383, 13, -8, -12, -9, 15, -1, 958, 926, 266,H
2025-03-19 18:49:51.119,742, 662, 542, -1, -13, -6, -7, 13, 2, 963, 930, 244,H
2025-03-19 18:49:51.127,753, 420, 347, 0, -11, -9, -10, 14, 2, 966, 934, 230,H
2025-03-19 18:49:51.134,754, 358, 454, 24, -6, -13, -8, 14, 3, 969, 936, 222,H
2025-03-19 18:49:51.143,742, 514, 579, 27, -7, -13, -9, 12, 0, 971, 936, 222,H
2025-03-19 18:49:51.155,811, 580, 479, 51, 5, 7, -10, 13, 3, 972, 936, 227,H
2025-03-19 18:49:51.163,825, 727, 439, 42, 18, 24, -9, 15, 2, 975, 937, 200,H
2025-03-19 18:49:51.172,734, 604, 401, 19, 32, 30, -9, 12, 3, 976, 935, 167,H
2025-03-19 18:49:51.177,749, 699, 407, 23, 32, 24, -9, 12, 3, 977, 935, 79,H
2025-03-19 18:49:51.189,1122, 897, 438, 21, 40, 41, -9, 14, 3, 980, 926, 30,H
2025-03-19 18:49:51.198,625, 678, 483, 23, 38, 51, -8, 13, 2, 976, 925, 25,H
2025-03-19 18:49:51.206,619, 874, 166, 6, 38, 39, -9, 14, 0, 975, 918, 39,H
2025-03-19 18:49:51.217,765, 678, 221, -13, 34, 39, -7, 14, 2, 974, 910, 36,H
2025-03-19 18:49:51.225,610, 496, 242, -18, 33, 31, -8, 14, -1, 974, 901, 35,H
2025-03-19 18:49:51.234,862, 496, 345, -25, 23, 20, -9, 15, 0, 973, 892, 39,H
2025-03-19 18:49:51.242,785, 571, 309, -24, 20, 14, -10, 15, -1, 970, 884, 35,H
2025-03-19 18:49:51.250,740, 585, 422, -33, 14, 8, -9, 14, 2, 967, 861, 42,H
2025-03-19 18:49:51.262,582, 402, 642, -36, -10, -12, -7, 15, -1, 963, 839, 20,H
2025-03-19 18:49:51.270,604, 157, 586, -13, -27, -39, -8, 15, 1, 962, 832, 19,H
2025-03-19 18:49:51.277,516, 100, 617, 14, -36, -60, -8, 15, 1, 961, 840, 135,H
2025-03-19 18:49:51.286,581, 358, 656, 24, -42, -55, -8, 16, 0, 963, 871, 169,H
2025-03-19 18:49:51.293,759, 625, 474, 16, -30, -39, -10, 13, 1, 964, 912, 126,H
2025-03-19 18:49:51.301,725, 930, 436, -10, -17, -15, -10, 14, 0, 967, 929, 168,H
2025-03-19 18:49:51.315,825, 632, 625, -15, -21, -3, -8, 13, 2, 972, 946, 153,H
2025-03-19 18:49:51.318,852, 243, 480, 16, -20, -9, -9, 14, 2, 974, 957, 186,H
2025-03-19 18:49:51.330,895, 459, 592, 41, -30, -5, -8, 14, 2, 977, 964, 218,H
2025-03-19 18:49:51.338,881, 1004, 293, 30, -26, 17, -9, 14, 2, 979, 966, 301,H
2025-03-19 18:49:51.347,957, 958, -121, 16, -7, 43, -9, 15, 1, 980, 968, 345,H
2025-03-19 18:49:51.356,676, 784, -88, -13, 11, 51, -10, 14, 3, 980, 968, 366,H
2025-03-19 18:49:51.366,828, 671, 206, -15, 17, 64, -10, 15, 2, 980, 968, 413,H
2025-03-19 18:49:51.377,578, 604, 357, -35, 19, 57, -10, 15, 2, 979, 968, 426,H
2025-03-19 18:49:51.382,664, 237, 353, -34, 19, 37, -10, 14, 1, 978, 968, 478,H
2025-03-19 18:49:51.393,731, 375, 557, -13, 14, 11, -10, 16, 2, 978, 965, 489,H
2025-03-19 18:49:51.401,767, 174, 397, -15, 19, -27, -9, 15, 1, 977, 962, 526,H
2025-03-19 18:49:51.410,745, 211, 384, -22, 27, -58, -12, 16, 1, 975, 962, 546,H
2025-03-19 18:49:51.421,528, 479, 564, -22, 23, -63, -11, 15, 1, 974, 961, 558,H
2025-03-19 18:49:51.427,328, 597, 749, -16, 5, -50, -10, 17, 0, 973, 959, 572,H
2025-03-19 18:49:51.438,245, 589, 802, -9, -11, -37, -8, 14, 0, 973, 957, 578,H
2025-03-19 18:49:51.446,291, 595, 851, -2, -27, -19, -10, 16, 0, 974, 955, 585,H
2025-03-19 18:49:51.454,429, 584, 882, 13, -42, 0, -10, 14, 2, 973, 954, 575,H
2025-03-19 18:49:51.466,633, 597, 829, 22, -54, 21, -8, 15, 2, 974, 956, 586,H
2025-03-19 18:49:51.468,811, 492, 383, 2, -45, 14, -8, 15, 2, 977, 959, 555,H
2025-03-19 18:49:51.483,1135, -141, 157, 51, -15, -25, -9, 13, 3, 979, 960, 566,H
2025-03-19 18:49:51.491,946, 1198, 310, 24, -2, 8, -10, 15, 2, 982, 960, 496,H
2025-03-19 18:49:51.498,980, 506, 44, 24, 14, 19, -10, 13, 1, 982, 960, 490,H
2025-03-19 18:49:51.507,626, 750, -124, 19, 29, 24, -9, 14, 2, 982, 958, 471,H
2025-03-19 18:49:51.518,605, 769, 22, 13, 43, 43, -10, 12, 4, 982, 958, 461,H
2025-03-19 18:49:51.527,995, 472, 274, 5, 45, 41, -9, 15, 1, 981, 955, 449,H
2025-03-19 18:49:51.536,817, 586, 390, 19, 32, 34, -10, 14, 4, 981, 950, 478,H
2025-03-19 18:49:51.544,794, 561, 380, 5, 23, 26, -9, 16, 1, 979, 944, 500,H
2025-03-19 18:49:51.549,800, 427, 393, 5, 18, 10, -9, 13, 2, 976, 937, 526,H
2025-03-19 18:49:51.560,876, 344, 405, -1, 19, -16, -9, 13, 2, 975, 929, 534,H
2025-03-19 18:49:51.827,750, 577, 416, 0, -3, -2, -10, 14, 2, 954, 813, 368,I
2025-03-19 18:49:51.832,759, 583, 395, -4, -1, -3, -10, 14, 2, 954, 811, 341,I
2025-03-19 18:49:51.844,756, 574, 383, -7, 2, -5, -8, 15, 2, 955, 808, 321,I
2025-03-19 18:49:51.850,730, 561, 407, -7, 4, -6, -9, 15, 1, 953, 803, 292,I
2025-03-19 18:49:51.864,686, 556, 428, -8, 4, -7, -8, 13, 1, 952, 801, 264,I
2025-03-19 18:49:51.869,668, 558, 445, -9, 3, -8, -9, 14, 0, 951, 799, 250,I
2025-03-19 18:49:51.881,671, 558, 470, -8, 1, -8, -10, 13, 1, 952, 793, 213,I
2025-03-19 18:49:51.886,682, 570, 493, -7, -1, -8, -9, 13, 1, 950, 790, 198,I
2025-03-19 18:49:51.897,680, 583, 496, -8, -3, -6, -9, 12, 0, 948, 788, 185,I
2025-03-19 18:49:51.903,684, 574, 485, -9, -4, -6, -10, 13, 1, 949, 785, 168,I
2025-03-19 18:49:51.912,680, 565, 470, -7, -6, -4, -10, 13, 1, 948, 787, 136,I
2025-03-19 18:49:51.921,661, 565, 467, -6, -8, -3, -8, 12, 1, 949, 789, 110,I
2025-03-19 18:49:51.933,639, 562, 487, -2, -12, 1, -9, 15, 0, 949, 794, 102,I
2025-03-19 18:49:51.941,637, 584, 511, 0, -18, 4, -9, 14, 1, 952, 801, 92,I
2025-03-19 18:49:51.950,597, 588, 536, 5, -24, 10, -10, 13, 1, 951, 813, 91,I
2025-03-19 18:49:51.957,628, 585, 544, 6, -30, 14, -10, 12, 2, 953, 831, 89,I
2025-03-19 18:49:51.967,663, 557, 540, -28, -21, -4, -8, 14, 2, 957, 855, 27,I
2025-03-19 18:49:51.974,875, 331, 308, 9, -11, -13, -10, 14, 1, 961, 882, 20,I
2025-03-19 18:49:51.986,791, 707, 473, 4, -14, -6, -9, 15, 0, 963, 905, 14,I
2025-03-19 18:49:51.995,776, 407, 257, 2, -9, -8, -9, 12, 3, 968, 922, 41,I
2025-03-19 18:49:52.003,941, 438, 309, 36, -8, -5, -9, 12, 3, 972, 939, 93,I
2025-03-19 18:49:52.012,911, 911, 536, 26, -15, 13, -10, 14, 2, 975, 952, 213,I
2025-03-19 18:49:52.018,986, 978, 374, -13, -18, 46, -8, 13, 2, 977, 960, 380,I
2025-03-19 18:49:52.029,496, 781, 291, -35, -17, 58, -10, 13, 1, 980, 964, 478,I
2025-03-19 18:49:52.036,837, 431, 166, -38, -12, 45, -8, 12, 3, 979, 969, 511,I
2025-03-19 18:49:52.047,763, 299, 392, -13, -1, 30, -9, 15, 1, 980, 970, 524,I
2025-03-19 18:49:52.056,614, 481, 429, -3, 1, 28, -9, 13, 1, 981, 969, 538,I
2025-03-19 18:49:52.066,649, 568, 489, 3, -2, 29, -10, 16, 2, 981, 970, 530,I
2025-03-19 18:49:52.071,588, 346, 334, 9, 1, 17, -9, 15, 3, 981, 968, 547,I
2025-03-19 18:49:52.082,647, 549, 481, 15, 7, 15, -12, 17, 2, 981, 965, 554,I
2025-03-19 18:49:52.092,642, 524, 503, 15, 6, 7, -12, 17, 2, 978, 960, 571,I
2025-03-19 18:49:52.101,659, 529, 467, 16, 5, 0, -9, 14, 3, 975, 956, 579,I
2025-03-19 18:49:52.110,588, 409, 396, 6, 8, -18, -10, 15, 1, 973, 950, 586,I
2025-03-19 18:49:52.117,613, 168, 338, 16, 13, -44, -9, 13, 3, 971, 945, 588,I
2025-03-19 18:49:52.127,576, 345, 423, 20, 11, -56, -10, 16, 1, 970, 939, 596,I
2025-03-19 18:49:52.135,520, 645, 587, 7, 0, -48, -7, 13, 3, 969, 933, 603,I
2025-03-19 18:49:52.146,591, 755, 608, 0, -13, -24, -9, 14, 1, 971, 931, 584,I
2025-03-19 18:49:52.152,739, 742, 647, 3, -24, 6, -9, 12, 3, 973, 936, 589,I
2025-03-19 18:49:52.163,1513, 273, 474, -26, -18, -1, -10, 15, 1, 974, 944, 556,I
2025-03-19 18:49:52.167,920, 456, 529, 22, -6, -1, -9, 12, 4, 977, 952, 564,I
2025-03-19 18:49:52.180,867, 815, 501, 5, -4, 17, -10, 15, 3, 979, 954, 503,I
2025-03-19 18:49:52.186,791, 592, 246, 15, 7, 21, -10, 15, 3, 981, 956, 479,I
2025-03-19 18:49:52.196,606, 966, 199, 21, 33, 41, -9, 12, 3, 981, 957, 445,I
2025-03-19 18:49:52.206,850, 713, 214, 12, 49, 51, -10, 14, 3, 982, 955, 386,I
2025-03-19 18:49:52.216,689, 931, 246, 17, 54, 56, -8, 14, 2, 981, 956, 360,I
2025-03-19 18:49:52.223,617, 702, 322, -26, 57, 61, -10, 15, 1, 981, 950, 291,I
2025-03-19 18:49:52.233,804, 345, 290, 25, 40, 39, -10, 15, 1, 981, 947, 303,I
2025-03-19 18:49:52.240,616, 709, 361, -1, 35, 35, -9, 16, 2, 979, 941, 311,I
2025-03-19 18:49:52.250,646, 527, 400, 2, 29, 25, -8, 13, 2, 977, 931, 326,I
2025-03-19 18:49:52.261,659, 412, 514, 6, 18, 10, -10, 15, 0, 974, 904, 358,I
2025-03-19 18:49:52.267,640, 453, 479, -3, 14, -7, -9, 15, 1, 971, 874, 361,I
2025-03-19 18:49:52.278,701, 181, 417, 2, 14, -34, -9, 15, 1, 969, 825, 372,I
2025-03-19 18:49:52.286,577, 259, 424, 10, 11, -56, -9, 15, 0, 964, 771, 361,I
2025-03-19 18:49:52.295,404, 459, 531, 11, 3, -60, -8, 14, 2, 964, 704, 277,I
2025-03-19 18:49:52.306,542, 578, 626, 13, -10, -42, -7, 15, 0, 964, 679, 211,I
2025-03-19 18:49:52.314,663, 743, 658, 36, -24, -8, -8, 14, 0, 962, 724, 254,I
2025-03-19 18:49:52.322,1701, 477, 529, -5, -18, -9, -9, 15, 0, 967, 841, 210,I
2025-03-19 18:49:52.331,1032, 536, 404, 14, -10, -10, -8, 14, 1, 973, 905, 251,I
2025-03-19 18:49:52.336,799, 706, 500, -2, -15, -4, -9, 13, 1, 974, 935, 232,I
2025-03-19 18:49:52.347,923, 483, 302, 9, -16, 2, -8, 14, 0, 979, 953, 249,I
2025-03-19 18:49:52.356,875, 897, 206, 18, -6, 14, -7, 13, 1, 978, 958, 367,I
2025-03-19 18:49:52.367,687, 1181, 208, -31, 0, 41, -7, 13, 0, 979, 963, 432,I
2025-03-19 18:49:52.376,833, 483, 304, -15, 4, 48, -7, 13, 0, 981, 963, 460,I
2025-03-19 18:49:52.384,760, 732, 215, -44, 9, 53, -7, 13, 0, 980, 964, 476,I
2025-03-19 18:49:52.392,788, 191, 337, -11, 13, 38, -8, 15, 0, 979, 962, 511,I
2025-03-19 18:49:52.401,756, 447, 452, 4, 13, 31, -9, 14, 0, 979, 958, 534,I
2025-03-19 18:49:52.410,834, 480, 464, -20, 22, 12, -9, 15, 0, 978, 954, 538,I
2025-03-19 18:49:52.417,940, 98, 200, -23, 48, -31, -9, 16, 0, 976, 949, 520,I
2025-03-19 18:49:52.429,806, 151, 165, -20, 71, -65, -10, 18, -1, 975, 941, 528,I
2025-03-19 18:49:52.437,650, 500, 351, -20, 75, -73, -8, 14, 1, 971, 928, 501,I
2025-03-19 18:49:52.446,546, 658, 426, -26, 68, -68, -9, 15, -1, 969, 903, 469,I
2025-03-19 18:49:52.450,470, 613, 457, -37, 60, -64, -9, 15, -2, 965, 867, 425,I
2025-03-19 18:49:52.732,650, 525, 563, 2, -34, 5, -9, 12, 2, 954, 859, 211,J
2025-03-19 18:49:52.741,675, 561, 516, 7, -40, 8, -9, 13, 0, 956, 876, 177,J
2025-03-19 18:49:52.748,1703, 262, 178, -24, -24, -15, -8, 13, 2, 958, 892, 90,J
2025-03-19 18:49:52.760,923, 390, 285, 24, -14, -18, -9, 13, -1, 962, 912, 107,J
2025-03-19 18:49:52.768,818, 765, 436, -6, -15, -8, -8, 12, 2, 966, 926, 75,J
2025-03-19 18:49:52.776,858, 368, 243, 21, -9, -10, -9, 14, 2, 970, 942, 67,J
2025-03-19 18:49:52.786,848, 513, 451, 31, -12, -8, -9, 14, 2, 973, 955, 117,J
2025-03-19 18:49:52.793,966, 991, 611, 2, -26, 28, -10, 13, 2, 977, 964, 227,J
2025-03-19 18:49:52.806,872, 1002, 410, -38, -27, 45, -9, 14, 2, 978, 968, 370,J
2025-03-19 18:49:52.815,989, 571, 228, -27, -23, 46, -10, 12, 4, 981, 970, 453,J
2025-03-19 18:49:52.819,377, 443, 146, -35, -17, 36, -8, 13, 2, 981, 971, 452,J
2025-03-19 18:49:52.832,806, 250, 192, 7, -1, 23, -8, 13, 2, 982, 973, 498,J
2025-03-19 18:49:52.839,603, 677, 431, 2, 1, 27, -12, 14, 2, 982, 972, 513,J
2025-03-19 18:49:52.848,610, 639, 480, -1, 0, 27, -9, 14, 4, 981, 969, 542,J
2025-03-19 18:49:52.859,543, 309, 365, 12, 3, 16, -10, 15, 2, 981, 969, 563,J
2025-03-19 18:49:52.867,559, 512, 536, 21, 8, 12, -10, 15, 2, 978, 962, 564,J
2025-03-19 18:49:52.876,609, 466, 562, 26, 7, 1, -9, 14, 2, 973, 956, 581,J
2025-03-19 18:49:52.884,614, 533, 441, 22, 7, -7, -9, 14, 2, 971, 949, 593,J
2025-03-19 18:49:52.892,558, 315, 350, 22, 14, -27, -10, 15, 3, 971, 945, 611,J
2025-03-19 18:49:52.901,583, 250, 419, 35, 17, -48, -9, 13, 2, 966, 935, 610,J
2025-03-19 18:49:52.912,566, 492, 512, 26, 10, -53, -11, 13, 2, 965, 924, 585,J
2025-03-19 18:49:52.917,655, 653, 544, 26, -3, -35, -10, 12, 0, 968, 919, 572,J
2025-03-19 18:49:52.926,750, 753, 527, 28, -12, -1, -10, 14, 2, 968, 924, 547,J
2025-03-19 18:49:52.936,1271, 372, 420, 6, -4, -5, -11, 13, 3, 973, 933, 532,J
2025-03-19 18:49:52.945,917, 505, 451, 24, 6, 3, -9, 14, 1, 976, 942, 524,J
2025-03-19 18:49:52.952,964, 851, 375, 4, 20, 26, -9, 12, 3, 978, 948, 441,J
2025-03-19 18:49:52.965,620, 700, 485, -29, 32, 44, -10, 14, 2, 980, 954, 341,J
2025-03-19 18:49:52.969,531, 932, 308, -10, 47, 69, -10, 14, 2, 981, 958, 166,J
2025-03-19 18:49:52.980,933, 993, 228, -45, 58, 85, -7, 12, 3, 982, 958, 16,J
2025-03-19 18:49:52.989,729, 138, 428, -27, 43, 53, -9, 15, 3, 985, 956, 47,J
2025-03-19 18:49:52.998,322, 799, 420, -15, 36, 51, -10, 15, 2, 983, 950, 46,J
2025-03-19 18:49:53.006,689, 461, 426, -31, 24, 33, -9, 13, 2, 981, 947, 49,J
2025-03-19 18:49:53.016,759, 738, 190, -9, 24, 33, -8, 15, 2, 979, 938, 43,J
2025-03-19 18:49:53.026,773, 730, 343, -48, 19, 30, -8, 16, 0, 976, 926, 41,J
2025-03-19 18:49:53.035,778, 452, 189, -54, 21, 22, -9, 16, 1, 971, 915, 38,J
2025-03-19 18:49:53.044,687, 378, 299, -50, 25, 9, -8, 18, 0, 968, 887, 31,J
2025-03-19 18:49:53.052,429, -29, 602, -17, 10, -29, -7, 16, 1, 962, 822, 8,J
2025-03-19 18:49:53.060,641, -10, 727, 7, -10, -66, -7, 16, 1, 956, 743, 17,J
2025-03-19 18:49:53.072,1062, -115, 692, 44, -20, -85, -8, 17, 0, 940, 674, 15,J
2025-03-19 18:49:53.076,1229, 299, 424, 54, -9, -86, -9, 16, 2, 928, 663, 22,J
2025-03-19 18:49:53.087,1147, 720, 146, 39, 16, -74, -8, 14, -2, 923, 683, 53,J
2025-03-19 18:49:53.096,947, 878, 146, -2, 36, -48, -7, 14, 1, 922, 736, 70,J
2025-03-19 18:49:53.103,632, 786, 300, -34, 43, -24, -9, 15, -1, 925, 773, 93,J
2025-03-19 18:49:53.113,511, 575, 491, -38, 37, -11, -7, 13, 0, 926, 794, 86,J
2025-03-19 18:49:53.121,470, 465, 658, -22, 30, -10, -9, 15, -3, 926, 804, 93,J
2025-03-19 18:49:53.133,514, 481, 786, -6, 15, -11, -7, 14, 0, 932, 824, 114,J
2025-03-19 18:49:53.142,524, 600, 832, 4, -1, -8, -9, 16, -3, 936, 843, 151,J
2025-03-19 18:49:53.148,526, 709, 753, 3, -16, -4, -7, 13, 0, 939, 856, 188,J
2025-03-19 18:49:53.426,656, 715, 512, 23, 33, 26, -9, 13, 2, 976, 910, 56,K
2025-03-19 18:49:53.441,721, 871, 340, 47, 46, 46, -8, 14, 2, 976, 896, 22,K
2025-03-19 18:49:53.449,714, 669, 404, -14, 43, 52, -9, 14, 2, 977, 884, 33,K
2025-03-19 18:49:53.458,840, 390, 345, -3, 45, 38, -8, 13, 1, 976, 876, 45,K
2025-03-19 18:49:53.466,550, 542, 372, -22, 35, 38, -8, 14, 0, 974, 870, 41,K
2025-03-19 18:49:53.478,613, 413, 268, -25, 23, 24, -8, 15, 2, 975, 885, 42,K
2025-03-19 18:49:53.486,749, 396, 203, -12, 16, 8, -9, 16, 1, 971, 916, 32,K
2025-03-19 18:49:53.493,789, 642, 149, -9, 18, 6, -8, 14, 1, 976, 941, 38,K
2025-03-19 18:49:53.501,831, 703, 480, -31, 10, 7, -8, 14, 1, 975, 956, 19,K
2025-03-19 18:49:53.510,913, 467, 491, -34, -12, -1, -9, 15, 0, 977, 967, 43,K
2025-03-19 18:49:53.519,722, 163, 604, -14, -37, -13, -9, 14, 2, 979, 971, 21,K
2025-03-19 18:49:53.526,722, 275, 604, -3, -65, -29, -8, 16, 0, 979, 975, 88,K
2025-03-19 18:49:53.536,870, 765, -17, 6, -42, -23, -9, 14, 0, 981, 977, 151,K
2025-03-19 18:49:53.547,698, 757, 609, -7, -32, -4, -10, 16, 1, 981, 979, 240,K
2025-03-19 18:49:53.552,616, 433, 881, 0, -46, -1, -8, 15, 2, 981, 979, 233,K
2025-03-19 18:49:53.564,608, 398, 212, 15, -19, -7, -10, 16, 0, 981, 978, 288,K
2025-03-19 18:49:53.571,565, 531, 712, 15, -18, -5, -9, 14, 1, 981, 978, 358,K
2025-03-19 18:49:53.579,635, 568, 571, 20, -17, -2, -9, 16, 1, 981, 976, 366,K
2025-03-19 18:49:53.592,622, 499, 352, 27, -10, -4, -9, 16, 1, 978, 973, 405,K
2025-03-19 18:49:53.600,636, 561, 470, 26, -4, -6, -11, 14, 1, 975, 970, 440,K
2025-03-19 18:49:53.609,731, 612, 504, 23, -6, -7, -11, 16, 1, 974, 967, 475,K
2025-03-19 18:49:53.616,728, 584, 326, 17, 0, -7, -9, 16, 3, 971, 962, 510,K
2025-03-19 18:49:53.626,648, 460, 229, 18, 17, -15, -10, 15, 1, 968, 957, 519,K
2025-03-19 18:49:53.633,681, 368, 356, 22, 31, -29, -8, 13, 3, 968, 945, 524,K
2025-03-19 18:49:53.646,611, 491, 488, 22, 32, -38, -9, 14, 0, 966, 937, 503,K
2025-03-19 18:49:53.654,492, 603, 541, 15, 22, -40, -9, 12, 2, 964, 927, 478,K
2025-03-19 18:49:53.662,444, 610, 600, 6, 4, -32, -11, 14, 0, 966, 918, 436,K
2025-03-19 18:49:53.669,658, 618, 622, 23, -18, -6, -9, 14, 3, 965, 910, 424,K
2025-03-19 18:49:53.676,819, 820, 635, -28, -28, 6, -9, 15, -1, 971, 921, 347,K
2025-03-19 18:49:53.686,1098, 258, 259, 3, -15, -8, -9, 15, -1, 973, 934, 371,K
2025-03-19 18:49:53.698,902, 715, 365, -13, -10, 4, -8, 11, 2, 976, 948, 363,K
2025-03-19 18:49:53.706,932, 551, 169, -20, 5, 16, -9, 13, 2, 981, 955, 284,K
2025-03-19 18:49:53.714,1098, 1198, 278, -7, 15, 59, -10, 12, 3, 984, 963, 213,K
2025-03-19 18:49:53.722,929, 1161, 248, -73, 28, 104, -10, 14, 1, 984, 966, 20,K
2025-03-19 18:49:53.731,357, -6, 466, -82, 25, 67, -8, 14, 2, 986, 967, 38,K
2025-03-19 18:49:53.739,929, 533, 405, 11, 24, 62, -9, 16, 0, 985, 967, 42,K
2025-03-19 18:49:53.750,520, 446, 449, -30, 23, 63, -8, 14, 2, 983, 965, 43,K
2025-03-19 18:49:53.760,705, 559, 419, -23, 23, 51, -9, 17, 0, 983, 962, 44,K
2025-03-19 18:49:53.768,633, 538, 405, -14, 18, 40, -9, 17, 2, 982, 957, 21,K
2025-03-19 18:49:53.776,745, 301, 401, -8, 18, 23, -9, 17, 2, 982, 952, 35,K
2025-03-19 18:49:53.785,866, 73, 332, -6, 26, -19, -9, 16, -1, 979, 948, 31,K
2025-03-19 18:49:53.792,833, 69, 197, -5, 39, -62, -9, 16, 2, 975, 944, 171,K
2025-03-19 18:49:53.801,750, 310, 209, 2, 50, -84, -10, 18, -1, 972, 940, 308,K
2025-03-19 18:49:53.813,625, 536, 284, 1, 53, -85, -9, 16, 0, 971, 933, 338,K
2025-03-19 18:49:53.817,513, 613, 419, -13, 50, -78, -9, 17, -2, 966, 921, 350,K
2025-03-19 18:49:53.829,537, 554, 547, -21, 44, -68, -7, 15, -1, 965, 912, 357,K
2025-03-19 18:49:54.096,656, 616, 532, -3, -30, 4, -9, 14, 0, 955, 929, 432,L
2025-03-19 18:49:54.103,666, 563, 502, 1, -32, 10, -9, 15, 0, 958, 933, 446,L
2025-03-19 18:49:54.114,690, 539, 519, 11, -29, 14, -9, 12, 3, 960, 937, 459,L
2025-03-19 18:49:54.121,720, 497, 508, 10, -26, 12, -10, 14, 0, 962, 940, 447,L
2025-03-19 18:49:54.132,849, 271, 342, 9, -10, -9, -7, 14, 2, 965, 945, 461,L
2025-03-19 18:49:54.141,708, 713, 442, 11, -10, -4, -10, 14, 3, 966, 946, 440,L
2025-03-19 18:49:54.150,698, 560, 314, -1, -6, -3, -10, 14, 3, 967, 946, 416,L
2025-03-19 18:49:54.158,741, 471, 333, 12, -1, -7, -9, 13, 3, 971, 947, 392,L
2025-03-19 18:49:54.167,722, 568, 472, 16, -1, -7, -10, 15, 0, 970, 945, 379,L
2025-03-19 18:49:54.173,677, 649, 352, 21, 6, 5, -8, 12, 4, 972, 945, 362,L
2025-03-19 18:49:54.184,784, 649, 516, 15, 10, 11, -10, 14, 1, 972, 943, 285,L
2025-03-19 18:49:54.193,672, 516, 449, 19, 18, 12, -8, 13, 3, 974, 938, 234,L
2025-03-19 18:49:54.203,761, 331, 298, 52, 19, 10, -9, 15, 2, 975, 935, 212,L
2025-03-19 18:49:54.212,599, 733, 619, 25, 24, 12, -8, 12, 3, 976, 927, 99,L
2025-03-19 18:49:54.219,812, 382, 181, 63, 31, 26, -9, 12, 0, 976, 918, 69,L
2025-03-19 18:49:54.229,873, 491, 397, 19, 24, 13, -8, 12, 2, 977, 913, 29,L
2025-03-19 18:49:54.236,679, 387, 300, 44, 36, 23, -8, 12, 2, 976, 903, 21,L
2025-03-19 18:49:54.246,446, 856, 178, 4, 37, 25, -8, 13, 0, 975, 900, 19,L
2025-03-19 18:49:54.256,597, 782, 112, -28, 29, 20, -7, 13, 2, 977, 902, 21,L
2025-03-19 18:49:54.262,852, 616, 164, -16, 25, 21, -8, 15, 1, 977, 911, 20,L
2025-03-19 18:49:54.271,812, 471, 324, -21, 24, 19, -9, 13, 2, 976, 926, 35,L
2025-03-19 18:49:54.280,821, 748, 348, -27, 19, 23, -10, 16, 1, 977, 940, 29,L
2025-03-19 18:49:54.288,998, 599, 402, -30, 13, 32, -9, 13, 2, 979, 951, 40,L
2025-03-19 18:49:54.296,688, 728, 558, -49, 6, 41, -10, 15, 1, 980, 960, 43,L
2025-03-19 18:49:54.309,781, 580, 514, -47, 3, 43, -6, 15, 2, 981, 965, 38,L
2025-03-19 18:49:54.318,643, 439, 634, -20, -7, 39, -9, 17, 0, 983, 967, 23,L
2025-03-19 18:49:54.326,432, 194, 430, -18, -6, 28, -9, 17, 0, 983, 967, 37,L
2025-03-19 18:49:54.334,704, 555, 541, -12, -8, 25, -8, 16, 1, 982, 969, 18,L
2025-03-19 18:49:54.343,772, 346, 401, 9, -2, 17, -9, 15, 0, 981, 968, 115,L
2025-03-19 18:49:54.351,687, 401, 427, 26, 3, 8, -9, 16, 1, 980, 962, 306,L
2025-03-19 18:49:54.360,713, 508, 463, 29, 3, 4, -9, 17, 0, 976, 956, 392,L
2025-03-19 18:49:54.370,776, 537, 439, 25, 3, -1, -8, 15, 0, 975, 950, 425,L
2025-03-19 18:49:54.378,852, 417, 415, 16, 6, -19, -8, 14, -1, 971, 942, 469,L
2025-03-19 18:49:54.387,920, 207, 238, 6, 23, -48, -9, 15, 2, 969, 931, 490,L
2025-03-19 18:49:54.396,908, 265, 158, 5, 44, -72, -8, 15, -1, 964, 919, 509,L
2025-03-19 18:49:54.403,778, 502, 197, -2, 58, -78, -9, 15, -1, 961, 899, 494,L
2025-03-19 18:49:54.416,638, 619, 332, -21, 59, -72, -9, 15, -1, 958, 875, 449,L
2025-03-19 18:49:54.421,516, 680, 453, -39, 52, -61, -8, 14, -1, 956, 838, 390,L
2025-03-19 18:49:54.430,522, 619, 622, -28, 44, -48, -9, 15, -2, 956, 801, 362,L
2025-03-19 18:49:54.439,507, 645, 799, -22, 28, -36, -9, 14, -1, 955, 794, 339,L
2025-03-19 18:49:54.447,510, 680, 896, -17, 7, -23, -8, 14, -2, 953, 795, 345,L
2025-03-19 18:49:54.744,724, 352, 476, 13, -7, -4, -9, 14, 1, 972, 937, 336,M
2025-03-19 18:49:54.751,636, 398, 604, 35, -2, -5, -9, 14, 3, 975, 935, 326,M
2025-03-19 18:49:54.763,668, 664, 444, 57, 15, 18, -9, 14, 1, 977, 929, 285,M
2025-03-19 18:49:54.766,735, 602, 478, 45, 28, 30, -10, 16, 1, 978, 929, 166,M
2025-03-19 18:49:54.780,604, 786, 266, 26, 39, 33, -6, 15, 3, 979, 918, 152,M
2025-03-19 18:49:54.786,1011, 574, 243, 24, 45, 45, -5, 13, 7, 981, 908, 120,M
2025-03-19 18:49:54.796,943, 947, 366, 9, 43, 41, -8, 14, 0, 978, 894, 108,M
2025-03-19 18:49:54.804,894, 841, 209, -11, 39, 47, -8, 11, 2, 979, 879, 80,M
2025-03-19 18:49:54.816,761, 645, 199, -17, 38, 48, -8, 11, 2, 979, 866, 72,M
2025-03-19 18:49:54.825,819, 382, 336, -11, 24, 28, -7, 13, -1, 978, 863, 85,M
2025-03-19 18:49:54.833,778, 454, 296, 0, 14, 16, -9, 11, 5, 976, 874, 100,M
2025-03-19 18:49:54.842,800, 587, 250, -4, 9, 10, -7, 16, -1, 973, 881, 110,M
2025-03-19 18:49:54.850,713, 468, 505, -18, -7, -8, -10, 15, 2, 972, 877, 142,M
2025-03-19 18:49:54.862,738, 269, 597, -12, -27, -29, -9, 17, 0, 970, 879, 322,M
2025-03-19 18:49:54.867,662, 224, 549, -9, -38, -54, -7, 15, 1, 966, 890, 447,M
2025-03-19 18:49:54.879,553, 302, 504, 10, -42, -63, -7, 15, 1, 962, 902, 512,M
2025-03-19 18:49:54.886,660, 605, 514, 7, -42, -54, -5, 13, 2, 965, 920, 512,M
2025-03-19 18:49:54.896,673, 883, 557, -15, -42, -29, -10, 16, -2, 966, 933, 521,M
2025-03-19 18:49:54.900,673, 694, 389, -51, -32, -18, -10, 16, 4, 970, 946, 474,M
2025-03-19 18:49:54.916,755, 568, 564, -40, -19, -12, -10, 16, 4, 971, 956, 476,M
2025-03-19 18:49:54.918,809, 557, 572, -42, -17, -3, -8, 13, 5, 975, 962, 450,M
2025-03-19 18:49:54.930,760, 316, 559, -25, -14, -6, -10, 18, 3, 981, 968, 461,M
2025-03-19 18:49:54.938,826, 348, 651, 2, -17, -7, -8, 13, -3, 981, 970, 474,M
2025-03-19 18:49:54.947,724, 501, 519, 17, -19, -5, -9, 13, 1, 985, 971, 491,M
2025-03-19 18:49:54.956,834, 745, 428, 21, -11, 12, -7, 13, 2, 986, 973, 510,M
2025-03-19 18:49:54.966,636, 768, 275, 14, 1, 24, -8, 15, 4, 987, 973, 527,M
2025-03-19 18:49:54.976,964, 950, -63, 5, 27, 49, -11, 15, 2, 988, 973, 510,M
2025-03-19 18:49:54.985,710, 380, 201, 13, 30, 45, -7, 16, 1, 987, 971, 516,M
2025-03-19 18:49:54.994,888, 549, 316, 7, 29, 49, -8, 18, 0, 986, 971, 513,M
2025-03-19 18:49:55.002,742, 743, 197, -26, 28, 50, -7, 15, 2, 986, 969, 449,M
2025-03-19 18:49:55.011,778, 220, 385, -3, 15, 24, -7, 15, 2, 987, 969, 489,M
2025-03-19 18:49:55.016,829, 548, 313, 0, 9, 19, -12, 16, 2, 987, 970, 515,M
2025-03-19 18:49:55.029,763, 745, 536, -37, -3, 16, -7, 17, 2, 986, 972, 527,M
2025-03-19 18:49:55.036,806, 416, 486, -28, -22, -3, -10, 17, 1, 986, 971, 555,M
2025-03-19 18:49:55.048,653, 68, 578, -13, -33, -28, -8, 18, 2, 984, 968, 593,M
2025-03-19 18:49:55.056,561, 325, 641, -2, -31, -34, -6, 17, 3, 982, 967, 607,M
2025-03-19 18:49:55.066,691, 522, 533, -3, -25, -26, -12, 13, -2, 981, 966, 593,M
2025-03-19 18:49:55.075,609, 610, 625, 0, -11, -7, -6, 15, 3, 985, 972, 632,M
2025-03-19 18:49:55.083,639, 343, 897, 13, -14, -4, -8, 17, 2, 981, 965, 558,M
2025-03-19 18:49:55.092,729, 379, 703, 27, -17, -3, -10, 13, 3, 982, 965, 536,M
2025-03-19 18:49:55.100,727, 883, 340, 50, 4, 17, -9, 15, 1, 982, 962, 498,M
2025-03-19 18:49:55.109,658, 774, 223, 24, 15, 32, -9, 15, 1, 983, 963, 433,M
2025-03-19 18:49:55.116,1077, 757, 69, 19, 26, 34, -10, 14, 4, 985, 964, 413,M
2025-03-19 18:49:55.128,864, 478, 119, 22, 34, 36, -10, 13, 3, 983, 962, 404,M
2025-03-19 18:49:55.136,1070, 497, -10, 19, 34, 31, -9, 13, 4, 984, 959, 413,M
2025-03-19 18:49:55.145,809, 711, -26, -7, 36, 36, -10, 16, 2, 983, 958, 407,M
2025-03-19 18:49:55.150,931, 508, 202, -7, 33, 32, -9, 14, 3, 981, 955, 421,M
2025-03-19 18:49:55.162,872, 485, 249, -12, 31, 20, -10, 16, 1, 979, 951, 425,M
2025-03-19 18:49:55.168,914, 373, 456, -28, 25, -3, -8, 14, 2, 979, 947, 428,M
2025-03-19 18:49:55.181,932, 140, 455, -35, 27, -39, -9, 17, -1, 978, 941, 428,M
2025-03-19 18:49:55.186,875, 205, 328, -33, 40, -65, -9, 16, 1, 974, 939, 426,M
2025-03-19 18:49:55.198,693, 492, 342, -32, 50, -69, -10, 17, -1, 972, 933, 423,M
2025-03-19 18:49:55.206,591, 655, 436, -35, 50, -61, -10, 17, -1, 968, 927, 423,M
2025-03-19 18:49:55.214,561, 594, 543, -33, 43, -49, -8, 13, 0, 964, 920, 427,M
2025-03-19 18:49:55.226,571, 527, 686, -31, 34, -39, -10, 17, -3, 963, 915, 361,M
2025-03-19 18:49:55.234,546, 513, 813, -24, 21, -34, -7, 14, 0, 961, 916, 340,M
2025-03-19 18:49:55.243,527, 540, 843, -18, 6, -29, -9, 16, -4, 961, 912, 341,M
2025-03-19 18:49:55.531,743, 288, 523, 10, -6, -7, -9, 14, 1, 967, 930, 150,N
2025-03-19 18:49:55.536,758, 460, 625, 21, -6, -6, -10, 13, 2, 970, 930, 186,N
2025-03-19 18:49:55.547,790, 655, 579, 14, -3, 1, -9, 15, 1, 973, 932, 177,N
2025-03-19 18:49:55.558,778, 782, 367, 20, 15, 21, -8, 13, 3, 975, 928, 155,N
2025-03-19 18:49:55.567,932, 493, 490, 33, 24, 32, -9, 15, 1, 977, 925, 42,N
2025-03-19 18:49:55.575,422, 842, 397, 32, 39, 43, -10, 14, 2, 979, 917, 24,N
2025-03-19 18:49:55.583,561, 884, 321, 52, 45, 51, -8, 15, 2, 977, 912, 23,N
2025-03-19 18:49:55.592,1045, 825, 365, 4, 42, 50, -9, 15, 1, 979, 901, 25,N
2025-03-19 18:49:55.599,727, 661, 207, 5, 41, 47, -9, 16, 0, 977, 898, 33,N
2025-03-19 18:49:55.612,823, 581, 220, -15, 24, 31, -8, 13, 2, 975, 890, 24,N
2025-03-19 18:49:55.617,750, 433, 277, 9, 19, 22, -8, 13, 2, 975, 890, 37,N
2025-03-19 18:49:55.628,740, 501, 257, 0, 12, 11, -8, 16, 0, 971, 894, 17,N
2025-03-19 18:49:55.636,815, 574, 270, -9, 11, 2, -8, 16, 0, 971, 892, 53,N
2025-03-19 18:49:55.646,700, 420, 623, -18, -13, -14, -9, 16, 1, 966, 890, 46,N
2025-03-19 18:49:55.649,761, 184, 528, -10, -31, -43, -9, 15, 1, 961, 889, 160,N
2025-03-19 18:49:55.664,716, 84, 476, 8, -38, -70, -9, 16, 0, 955, 893, 266,N
2025-03-19 18:49:55.673,649, 331, 475, 24, -37, -75, -9, 15, 0, 953, 903, 318,N
2025-03-19 18:49:55.682,674, 721, 518, 2, -35, -54, -9, 16, -1, 954, 916, 363,N
2025-03-19 18:49:55.690,561, 967, 656, -23, -39, -24, -8, 14, 1, 955, 927, 383,N
2025-03-19 18:49:55.699,617, 721, 666, -52, -25, -11, -9, 13, 1, 959, 940, 308,N
2025-03-19 18:49:55.706,759, 368, 519, -26, -9, -9, -9, 13, 1, 966, 949, 300,N
2025-03-19 18:49:55.718,680, 493, 912, -26, -20, -5, -9, 13, 1, 971, 954, 255,N
2025-03-19 18:49:55.726,801, 178, 667, -10, -24, -15, -9, 15, 0, 976, 957, 221,N
2025-03-19 18:49:55.734,884, 503, 487, 34, -17, -3, -9, 13, 2, 977, 959, 262,N
2025-03-19 18:49:55.744,911, 983, 348, 31, -5, 20, -10, 13, 2, 980, 958, 276,N
2025-03-19 18:49:55.752,969, 1026, 39, 17, 21, 62, -9, 13, 3, 981, 959, 280,N
2025-03-19 18:49:55.759,764, 530, 92, -5, 46, 81, -8, 14, 2, 983, 958, 272,N
2025-03-19 18:49:55.767,609, 842, 327, -41, 51, 82, -9, 14, 2, 984, 954, 146,N
2025-03-19 18:49:55.779,833, 304, 212, 26, 37, 63, -8, 17, 1, 981, 950, 143,N
2025-03-19 18:49:55.786,531, 768, 336, 1, 29, 49, -7, 16, 1, 982, 949, 95,N
2025-03-19 18:49:55.797,727, 457, 222, -17, 18, 35, -9, 18, 0, 981, 951, 86,N
2025-03-19 18:49:55.801,653, 639, 347, -29, 14, 23, -9, 18, 0, 982, 952, 55,N
2025-03-19 18:49:55.811,729, 644, 440, -37, 5, 15, -9, 15, 2, 982, 956, 49,N
2025-03-19 18:49:55.820,700, 487, 756, -40, -25, -3, -9, 17, -1, 979, 958, 93,N
2025-03-19 18:49:55.833,710, 11, 425, -9, -39, -34, -9, 17, 2, 978, 959, 131,N
2025-03-19 18:49:55.836,677, -116, 677, 24, -46, -55, -9, 18, 1, 978, 958, 341,N
2025-03-19 18:49:55.849,808, 391, 572, 32, -43, -57, -9, 16, 1, 973, 959, 472,N
2025-03-19 18:49:55.856,853, 647, 504, 34, -25, -36, -9, 15, 0, 969, 955, 539,N
2025-03-19 18:49:55.866,939, 621, 344, 25, -1, -21, -7, 16, 2, 964, 950, 566,N
2025-03-19 18:49:55.873,964, 455, 186, 11, 29, -19, -10, 15, 1, 960, 948, 565,N
2025-03-19 18:49:55.886,948, 370, 193, 3, 53, -25, -9, 15, 1, 960, 947, 567,N
2025-03-19 18:49:55.894,822, 456, 241, 1, 66, -28, -9, 15, 1, 961, 942, 563,N
2025-03-19 18:49:55.900,739, 588, 346, -3, 69, -23, -8, 15, 0, 960, 938, 541,N
2025-03-19 18:49:55.911,675, 637, 395, -7, 68, -18, -10, 15, 1, 961, 934, 536,N
2025-03-19 18:49:55.919,637, 632, 486, -12, 62, -13, -9, 15, -1, 962, 926, 496,N
2025-03-19 18:49:55.928,582, 636, 622, -8, 52, -8, -9, 15, 0, 959, 921, 492,N
2025-03-19 18:49:56.226,870, 493, 292, -19, -7, -12, -9, 14, 1, 961, 944, 317,O
2025-03-19 18:49:56.237,640, 586, 425, -25, -9, -13, -10, 16, 1, 962, 946, 223,O
2025-03-19 18:49:56.246,825, 342, 300, -15, -9, -17, -8, 15, 3, 961, 949, 191,O
2025-03-19 18:49:56.254,702, 384, 418, -4, -4, -22, -8, 15, 0, 962, 949, 169,O
2025-03-19 18:49:56.266,485, 440, 585, 4, -3, -25, -8, 15, 0, 962, 945, 152,O
2025-03-19 18:49:56.276,708, 441, 533, 2, -5, -25, -9, 14, 3, 964, 943, 74,O
2025-03-19 18:49:56.284,774, 377, 546, 6, -2, -29, -10, 16, 0, 964, 935, 51,O
2025-03-19 18:49:56.292,956, 409, 505, 29, 4, -26, -9, 14, 1, 966, 929, 42,O
2025-03-19 18:49:56.299,789, 415, 619, 41, 7, -22, -10, 16, 0, 968, 922, 42,O
2025-03-19 18:49:56.307,996, 517, 491, 59, 10, -17, -9, 14, 4, 972, 911, 52,O
2025-03-19 18:49:56.316,722, 742, 329, 75, 19, -1, -11, 15, 1, 973, 911, 41,O
2025-03-19 18:49:56.328,757, 729, 429, 27, 22, 19, -9, 14, 3, 978, 912, 27,O
2025-03-19 18:49:56.336,1247, 1029, 4, 24, 38, 50, -10, 14, 1, 979, 918, 20,O
2025-03-19 18:49:56.342,868, 1212, 6, 24, 49, 66, -9, 13, 2, 981, 933, 22,O
2025-03-19 18:49:56.351,827, 973, 468, -48, 44, 72, -9, 13, 2, 980, 942, 30,O
2025-03-19 18:49:56.359,693, 437, 202, -47, 43, 76, -8, 17, 0, 980, 950, 29,O
2025-03-19 18:49:56.369,713, 378, 470, -37, 28, 66, -8, 15, 1, 982, 954, 32,O
2025-03-19 18:49:56.376,656, 336, 459, -44, 10, 40, -8, 16, 0, 981, 960, 24,O
2025-03-19 18:49:56.388,651, 668, 395, -64, 5, 33, -8, 15, 1, 981, 963, 35,O
2025-03-19 18:49:56.396,748, 486, 526, -56, -7, 23, -9, 18, 0, 980, 966, 27,O
2025-03-19 18:49:56.406,639, 365, 768, -39, -32, 8, -9, 16, 0, 981, 968, 18,O
2025-03-19 18:49:56.413,565, 214, 800, -35, -42, -16, -9, 17, -1, 978, 970, 37,O
2025-03-19 18:49:56.421,631, 128, 630, -18, -51, -39, -9, 16, 1, 977, 970, 13,O
2025-03-19 18:49:56.430,499, 395, 477, -3, -44, -49, -9, 16, 0, 972, 970, 113,O
2025-03-19 18:49:56.442,314, 381, 558, 17, -45, -48, -9, 16, 0, 967, 968, 283,O
2025-03-19 18:49:56.451,953, 272, 598, 44, -37, -45, -10, 15, 2, 962, 960, 369,O
2025-03-19 18:49:56.459,604, 224, 566, 45, -22, -47, -9, 14, 1, 952, 952, 456,O
2025-03-19 18:49:56.467,754, 433, 409, 46, -11, -44, -9, 15, 3, 941, 943, 485,O
2025-03-19 18:49:56.476,891, 552, 307, 43, -1, -41, -9, 15, 2, 933, 933, 506,O
2025-03-19 18:49:56.487,1060, 592, 95, 22, 21, -42, -9, 13, 1, 933, 928, 509,O
2025-03-19 18:49:56.496,1119, 641, 48, 0, 47, -42, -10, 15, 2, 936, 923, 467,O
2025-03-19 18:49:56.503,984, 654, 159, -16, 64, -38, -8, 13, 2, 937, 918, 424,O
2025-03-19 18:49:56.513,802, 657, 289, -25, 70, -32, -9, 13, 2, 936, 912, 385,O
2025-03-19 18:49:56.520,648, 611, 403, -27, 69, -26, -10, 14, 1, 937, 905, 362,O
2025-03-19 18:49:56.528,583, 559, 541, -25, 63, -23, -10, 15, 0, 936, 891, 345,O
2025-03-19 18:49:56.541,543, 590, 705, -14, 50, -17, -10, 15, 0, 937, 875, 312,O
2025-03-19 18:49:56.549,480, 662, 761, -9, 34, -9, -8, 15, -2, 938, 849, 272,O
2025-03-19 18:49:56.558,465, 689, 746, -6, 19, 0, -9, 14, -1, 938, 821, 195,O
2025-03-19 18:49:56.566,456, 658, 741, 0, 6, 7, -7, 14, -2, 934, 789, 219,O
2025-03-19 18:49:56.575,472, 622, 708, 7, -5, 12, -9, 14, 0, 935, 779, 220,O
2025-03-19 18:49:56.876,580, 663, 376, 26, 44, 59, -8, 14, 0, 970, 908, 28,P
2025-03-19 18:49:56.886,601, 965, 307, -22, 54, 69, -8, 14, 2, 972, 901, 24,P
2025-03-19 18:49:56.894,676, 289, 413, 26, 46, 69, -9, 15, 0, 972, 896, 20,P
2025-03-19 18:49:56.900,350, 719, 383, 6, 41, 41, -10, 15, 2, 972, 887, 22,P
2025-03-19 18:49:56.914,960, 350, 354, -1, 27, 31, -10, 15, 2, 974, 887, 14,P
2025-03-19 18:49:56.918,696, 684, 214, -2, 22, 30, -9, 16, -1, 972, 891, 16,P
2025-03-19 18:49:56.928,885, 628, 338, -34, 16, 27, -7, 16, 1, 972, 893, 40,P
2025-03-19 18:49:56.939,709, 388, 291, -24, 13, 15, -9, 15, -1, 971, 901, 38,P
2025-03-19 18:49:56.947,750, 539, 296, -15, 14, 8, -7, 16, -1, 966, 906, 45,P
2025-03-19 18:49:56.956,776, 300, 710, -20, -4, -17, -7, 16, -1, 963, 909, 42,P
2025-03-19 18:49:56.962,736, 37, 912, 13, -39, -43, -7, 16, 0, 958, 903, 42,P
2025-03-19 18:49:56.975,586, 20, 543, 17, -55, -75, -8, 16, -1, 950, 905, 33,P
2025-03-19 18:49:56.983,660, 119, 657, 56, -74, -92, -7, 16, 0, 946, 921, 260,P
2025-03-19 18:49:56.992,701, 513, 322, 46, -66, -90, -9, 14, 0, 947, 926, 386,P
2025-03-19 18:49:57.000,586, 865, 371, 5, -64, -73, -9, 15, 2, 949, 938, 503,P
2025-03-19 18:49:57.009,851, 1015, 330, -29, -57, -38, -9, 15, 2, 958, 948, 534,P
2025-03-19 18:49:57.016,806, 707, 420, -34, -34, -13, -8, 15, 0, 964, 957, 549,P
2025-03-19 18:49:57.029,721, 433, 497, -14, -20, -4, -7, 12, 1, 969, 962, 556,P
2025-03-19 18:49:57.036,710, 508, 743, -6, -24, 1, -10, 15, 3, 973, 966, 551,P
2025-03-19 18:49:57.045,705, 548, 548, 2, -20, 4, -10, 15, 1, 977, 966, 544,P
2025-03-19 18:49:57.051,565, 592, 563, 2, -21, 4, -11, 14, 2, 978, 966, 529,P
2025-03-19 18:49:57.062,551, 731, 353, 5, -12, 8, -10, 13, 3, 980, 967, 512,P
2025-03-19 18:49:57.068,839, 981, 327, 6, 2, 24, -10, 13, 4, 982, 969, 465,P
2025-03-19 18:49:57.082,530, 544, 359, 2, 10, 25, -11, 14, 4, 982, 968, 388,P
2025-03-19 18:49:57.086,743, 740, 153, 14, 19, 33, -8, 14, 4, 980, 966, 323,P
2025-03-19 18:49:57.099,1100, 666, 358, -4, 29, 36, -8, 14, 4, 981, 966, 283,P
2025-03-19 18:49:57.106,854, 569, 270, 4, 30, 29, -9, 15, 2, 982, 965, 231,P
2025-03-19 18:49:57.115,789, 684, 56, 13, 36, 37, -8, 13, 4, 980, 959, 211,P
2025-03-19 18:49:57.122,724, 506, 306, -9, 35, 30, -10, 14, 2, 979, 949, 219,P
2025-03-19 18:49:57.133,862, 284, 256, 10, 26, 14, -9, 14, 2, 975, 939, 276,P
2025-03-19 18:49:57.143,851, 518, 270, -6, 24, 8, -10, 16, 3, 971, 928, 311,P
2025-03-19 18:49:57.152,939, 337, 233, -8, 26, -7, -9, 15, 1, 968, 914, 346,P
2025-03-19 18:49:57.160,1143, 197, 195, -9, 36, -35, -8, 15, 1, 966, 904, 354,P
2025-03-19 18:49:57.168,1179, 264, 175, -20, 54, -55, -9, 13, 2, 965, 900, 356,P
2025-03-19 18:49:57.180,945, 488, 233, -41, 67, -60, -8, 14, 0, 963, 897, 330,P
2025-03-19 18:49:57.186,659, 607, 343, -47, 68, -52, -9, 14, 1, 962, 895, 272,P
2025-03-19 18:49:57.196,458, 594, 522, -43, 57, -38, -9, 14, 1, 964, 898, 228,P
2025-03-19 18:49:57.201,407, 619, 773, -36, 39, -22, -10, 16, -2, 963, 900, 203,P
2025-03-19 18:49:57.213,388, 635, 974, -28, 16, -11, -8, 14, -2, 964, 904, 177,P
2025-03-19 18:49:57.218,397, 624, 1014, -18, -7, -4, -10, 14, -3, 965, 911, 178,P
2025-03-19 18:49:57.233,383, 599, 889, -5, -23, 1, -9, 14, -1, 965, 914, 212,P
2025-03-19 18:49:57.525,707, 1346, 295, -17, 51, 63, -9, 14, 1, 977, 925, 32,Q
2025-03-19 18:49:57.531,510, 973, 72, -28, 62, 89, -8, 14, 1, 978, 936, 48,Q
2025-03-19 18:49:57.544,751, 466, 396, -48, 36, 76, -7, 14, 0, 980, 944, 29,Q
2025-03-19 18:49:57.550,761, 376, 169, -64, 33, 70, -8, 15, -1, 982, 953, 17,Q
2025-03-19 18:49:57.562,778, 236, 98, -57, 31, 50, -7, 15, 0, 980, 957, 40,Q
2025-03-19 18:49:57.569,709, 669, 368, -75, 20, 38, -8, 16, -1, 982, 962, 11,Q
2025-03-19 18:49:57.579,700, 430, 465, -82, 6, 22, -8, 16, -1, 981, 966, 26,Q
2025-03-19 18:49:57.586,763, 490, 819, -66, -23, 6, -8, 17, -1, 980, 969, 16,Q
2025-03-19 18:49:57.598,600, 269, 839, -48, -37, -19, -7, 16, -1, 980, 971, 36,Q
2025-03-19 18:49:57.606,478, 107, 781, -17, -38, -29, -9, 19, 0, 980, 969, 47,Q
2025-03-19 18:49:57.612,531, 68, 915, 19, -52, -42, -9, 18, 0, 976, 967, 39,Q
2025-03-19 18:49:57.616,513, 275, 606, 46, -42, -39, -10, 19, 0, 972, 965, 48,Q
2025-03-19 18:49:57.630,733, 398, 439, 46, -21, -37, -8, 15, 0, 970, 955, 120,Q
2025-03-19 18:49:57.639,672, 421, 465, 49, -12, -39, -8, 17, 0, 964, 945, 130,Q
2025-03-19 18:49:57.651,585, 426, 305, 30, 2, -42, -7, 16, 0, 962, 928, 108,Q
2025-03-19 18:49:57.660,776, 388, 243, 14, 17, -49, -8, 15, 1, 961, 916, 22,Q
2025-03-19 18:49:57.666,850, 489, 249, 5, 28, -50, -8, 15, 1, 961, 901, 29,Q
2025-03-19 18:49:57.676,909, 625, 290, 0, 32, -40, -8, 15, 1, 962, 891, 25,Q
2025-03-19 18:49:57.684,811, 785, 337, -17, 28, -20, -10, 16, 0, 965, 888, 28,Q
2025-03-19 18:49:57.693,659, 817, 485, -27, 17, 3, -8, 14, 0, 967, 889, 24,Q
2025-03-19 18:49:57.701,627, 742, 642, -27, 1, 29, -9, 15, -2, 971, 901, 24,Q
2025-03-19 18:49:57.712,698, 648, 718, -15, -17, 54, -9, 15, 0, 973, 915, 23,Q
2025-03-19 18:49:57.718,810, 535, 669, -19, -12, 36, -9, 16, 0, 978, 934, 39,Q
2025-03-19 18:49:57.729,1026, 329, 326, 23, -3, 24, -10, 15, 2, 980, 942, 28,Q
2025-03-19 18:49:57.736,748, 1505, 652, -31, -8, 51, -9, 17, 0, 982, 953, 42,Q
2025-03-19 18:49:57.746,717, 541, 133, -63, 3, 61, -9, 16, 2, 984, 957, 37,Q
2025-03-19 18:49:57.752,686, 659, 320, -51, 7, 57, -10, 18, -1, 985, 959, 18,Q
2025-03-19 18:49:57.766,952, 455, 477, -19, 6, 52, -10, 18, -1, 987, 958, 25,Q
2025-03-19 18:49:57.774,655, 241, 352, -18, 6, 39, -8, 17, -1, 986, 958, 41,Q
2025-03-19 18:49:57.782,770, 614, 401, -8, 8, 42, -9, 19, 1, 984, 956, 40,Q
2025-03-19 18:49:57.791,803, 467, 397, -7, 6, 39, -6, 15, 1, 984, 949, 34,Q
2025-03-19 18:49:57.799,855, 336, 416, 2, 9, 27, -9, 18, 0, 981, 945, 37,Q
2025-03-19 18:49:57.808,876, 201, 361, -4, 20, 1, -8, 16, 1, 979, 936, 38,Q
2025-03-19 18:49:57.816,909, 14, 301, 3, 36, -34, -10, 19, -2, 976, 927, 34,Q
2025-03-19 18:49:57.828,803, 130, 283, 7, 50, -61, -7, 18, -1, 975, 915, 29,Q
2025-03-19 18:49:57.834,681, 378, 363, 10, 57, -70, -9, 21, -4, 970, 893, 21,Q
2025-03-19 18:49:57.844,621, 498, 398, 8, 58, -72, -8, 17, -2, 961, 869, 17,Q
2025-03-19 18:49:57.850,583, 502, 457, -3, 55, -72, -8, 17, -2, 955, 834, 25,Q
2025-03-19 18:49:57.861,573, 425, 594, 1, 50, -70, -8, 19, -4, 948, 803, 47,Q
2025-03-19 18:49:57.867,589, 456, 701, 15, 39, -63, -9, 16, -3, 941, 775, 53,Q
2025-03-19 18:49:58.146,708, 494, 481, -2, -11, -6, -9, 16, 0, 960, 932, 188,R
2025-03-19 18:49:58.158,737, 318, 390, 10, -7, -11, -10, 17, 1, 964, 933, 159,R
2025-03-19 18:49:58.170,809, 504, 481, 34, 4, -3, -8, 14, 2, 968, 932, 187,R
2025-03-19 18:49:58.181,997, 797, 572, 34, 15, 34, -10, 16, -1, 971, 932, 187,R
2025-03-19 18:49:58.187,657, 730, 339, 16, 38, 44, -10, 14, 0, 974, 930, 94,R
2025-03-19 18:49:58.196,281, 747, 429, 15, 50, 64, -9, 17, 1, 974, 925, 45,R
2025-03-19 18:49:58.208,776, 768, 585, -21, 59, 73, -7, 14, 1, 976, 912, 24,R
2025-03-19 18:49:58.216,698, 631, 442, 23, 48, 75, -9, 16, -1, 976, 906, 19,R
2025-03-19 18:49:58.226,211, 787, 493, -32, 40, 51, -9, 16, -1, 977, 899, 29,R
2025-03-19 18:49:58.232,870, 376, 411, -22, 26, 37, -8, 15, 1, 975, 899, 25,R
2025-03-19 18:49:58.242,685, 476, 274, -10, 22, 34, -6, 16, 0, 974, 904, 26,R
2025-03-19 18:49:58.250,677, 684, 97, -35, 21, 28, -9, 15, -2, 974, 905, 25,R
2025-03-19 18:49:58.261,853, 375, 352, -21, 11, 17, -9, 18, -2, 970, 912, 24,R
2025-03-19 18:49:58.266,828, 598, 209, -31, 14, 11, -8, 16, 0, 968, 914, 21,R
2025-03-19 18:49:58.278,764, 135, 636, -20, -10, -19, -7, 18, -1, 961, 907, 27,R
2025-03-19 18:49:58.286,739, -212, 690, 11, -35, -62, -6, 16, 0, 959, 895, 23,R
2025-03-19 18:49:58.295,884, -227, 790, 44, -55, -100, -9, 18, -3, 952, 899, 28,R
2025-03-19 18:49:58.299,546, 121, 747, 76, -69, -108, -7, 15, 1, 952, 905, 62,R
2025-03-19 18:49:58.314,679, 834, 511, 47, -76, -96, -7, 15, 1, 954, 918, 177,R
2025-03-19 18:49:58.316,889, 1155, 367, 2, -60, -59, -9, 15, 0, 961, 931, 226,R
2025-03-19 18:49:58.327,1005, 955, 474, -38, -41, -22, -9, 15, 2, 967, 943, 245,R
2025-03-19 18:49:58.338,752, 556, 497, -48, -29, -8, -9, 15, -1, 971, 954, 231,R
2025-03-19 18:49:58.347,704, 391, 675, -16, -24, -6, -8, 13, 3, 977, 957, 223,R
2025-03-19 18:49:58.357,634, 460, 677, 4, -25, -7, -10, 16, 1, 979, 960, 197,R
2025-03-19 18:49:58.366,554, 628, 482, 12, -21, 0, -9, 14, 2, 980, 960, 208,R
2025-03-19 18:49:58.377,687, 926, 394, -3, -12, 18, -11, 15, 0, 981, 960, 116,R
2025-03-19 18:49:58.383,652, 662, 181, -2, -2, 23, -9, 13, 4, 983, 961, 113,R
2025-03-19 18:49:58.394,621, 959, 312, -28, 12, 33, -11, 16, 1, 984, 960, 13,R
2025-03-19 18:49:58.400,575, 534, 265, -12, 25, 39, -9, 14, 3, 984, 960, 12,R
2025-03-19 18:49:58.409,620, 584, 145, 0, 37, 44, -9, 14, 3, 984, 960, 19,R
2025-03-19 18:49:58.421,982, 444, 570, -7, 26, 30, -8, 13, 1, 985, 957, 23,R
2025-03-19 18:49:58.430,686, 609, 406, -7, 27, 40, -8, 14, 1, 983, 955, 27,R
2025-03-19 18:49:58.436,1007, 722, 284, 9, 26, 46, -10, 14, 1, 983, 955, 24,R
2025-03-19 18:49:58.446,785, 620, 241, -14, 28, 54, -9, 15, 3, 985, 957, 41,R
2025-03-19 18:49:58.453,877, 555, 456, -35, 26, 52, -10, 16, 1, 983, 957, 53,R
2025-03-19 18:49:58.461,648, 276, 367, -15, 26, 42, -9, 16, 2, 984, 956, 46,R
2025-03-19 18:49:58.474,677, 348, 554, -26, 18, 30, -9, 15, 0, 984, 953, 30,R
2025-03-19 18:49:58.482,776, 376, 481, -14, 11, 21, -10, 16, 1, 982, 950, 26,R
2025-03-19 18:49:58.491,785, 319, 467, -3, 9, 11, -10, 18, 0, 981, 947, 22,R
2025-03-19 18:49:58.499,848, 397, 580, 9, 6, 6, -10, 18, 0, 979, 940, 46,R
2025-03-19 18:49:58.508,850, 330, 420, 10, 9, -10, -8, 17, 0, 976, 932, 40,R
2025-03-19 18:49:58.515,899, 230, 223, 8, 24, -33, -8, 19, 0, 972, 920, 45,R
2025-03-19 18:49:58.524,853, 277, 175, 7, 44, -51, -8, 18, 2, 970, 912, 32,R
2025-03-19 18:49:58.536,774, 458, 212, 0, 55, -58, -10, 16, -2, 965, 896, 72,R
2025-03-19 18:49:58.544,674, 544, 354, -12, 55, -57, -8, 16, -1, 964, 878, 74,R
2025-03-19 18:49:58.551,595, 573, 481, -17, 49, -52, -9, 18, -3, 961, 865, 24,R
2025-03-19 18:49:58.561,556, 574, 635, -17, 38, -45, -8, 16, -1, 960, 853, 39,R
2025-03-19 18:49:58.566,550, 611, 791, -12, 23, -36, -10, 15, -2, 958, 844, 24,R
2025-03-19 18:49:58.578,528, 633, 854, -6, 5, -25, -9, 17, -1, 955, 836, 20,R
2025-03-19 18:49:58.876,870, 412, 538, 19, -6, -11, -10, 17, -1, 959, 935, 160,S
2025-03-19 18:49:58.883,591, 355, 432, 14, -2, -15, -8, 16, 2, 959, 935, 143,S
2025-03-19 18:49:58.893,885, 353, 481, 33, -1, -18, -9, 16, 0, 963, 932, 166,S
2025-03-19 18:49:58.901,692, 390, 436, 37, -4, -21, -9, 16, 0, 962, 929, 167,S
2025-03-19 18:49:58.909,925, 362, 414, 44, -3, -20, -7, 14, 3, 966, 928, 174,S
2025-03-19 18:49:58.917,866, 489, 344, 44, 2, -16, -11, 16, 0, 968, 932, 196,S
2025-03-19 18:49:58.929,756, 685, 169, 38, 16, 0, -9, 15, 1, 970, 935, 189,S
2025-03-19 18:49:58.936,1088, 664, 279, 16, 24, 15, -10, 17, 1, 974, 941, 177,S
2025-03-19 18:49:58.946,1146, 929, 349, 18, 31, 47, -9, 14, 3, 976, 947, 202,S
2025-03-19 18:49:58.951,1218, 490, 522, -56, 37, 47, -10, 16, 0, 977, 952, 172,S
2025-03-19 18:49:58.961,864, 436, 380, -1, 39, 51, -6, 14, 1, 980, 955, 127,S
2025-03-19 18:49:58.970,680, 491, 569, 8, 33, 41, -11, 16, 1, 980, 955, 38,S
2025-03-19 18:49:58.977,445, 555, 601, 1, 24, 39, -8, 16, 1, 981, 955, 41,S
2025-03-19 18:49:58.991,495, 521, 598, 0, 19, 29, -8, 16, -1, 982, 957, 12,S
2025-03-19 18:49:58.996,447, 734, 353, -4, 24, 30, -8, 16, -1, 982, 957, 32,S
2025-03-19 18:49:59.007,572, 697, 405, -4, 23, 28, -9, 15, 1, 981, 956, 27,S
2025-03-19 18:49:59.015,561, 659, 445, -18, 18, 25, -7, 16, -1, 981, 954, 19,S
2025-03-19 18:49:59.024,731, 542, 494, -18, 13, 19, -8, 16, 1, 979, 947, 34,S
2025-03-19 18:49:59.032,727, 431, 379, -22, 15, 14, -8, 17, 0, 976, 937, 26,S
2025-03-19 18:49:59.044,666, 242, 416, -14, 15, -1, -9, 16, 0, 971, 919, 53,S
2025-03-19 18:49:59.050,687, 257, 386, 18, 15, -19, -8, 17, -1, 968, 881, 47,S
2025-03-19 18:49:59.061,743, 130, 452, 32, 8, -44, -7, 16, 0, 964, 809, 28,S
2025-03-19 18:49:59.067,1079, 172, 388, 28, 4, -62, -9, 15, -2, 955, 756, 40,S
2025-03-19 18:49:59.077,1300, 331, 184, 18, 18, -68, -6, 16, 0, 951, 747, 58,S
2025-03-19 18:49:59.086,1244, 569, 93, -1, 41, -66, -6, 16, 0, 949, 767, 107,S
2025-03-19 18:49:59.098,997, 694, 149, -37, 61, -57, -8, 14, -2, 950, 783, 114,S
2025-03-19 18:49:59.102,687, 599, 368, -41, 67, -44, -9, 16, -1, 951, 806, 71,S
2025-03-19 18:49:59.113,498, 471, 604, -32, 62, -35, -7, 17, -3, 949, 819, 44,S
2025-03-19 18:49:59.119,413, 523, 848, -20, 46, -28, -8, 15, -3, 952, 838, 33,S
2025-03-19 18:49:59.129,412, 576, 974, -11, 21, -21, -6, 14, -3, 953, 855, 40,S
2025-03-19 18:49:59.142,412, 642, 1041, -10, -6, -15, -9, 16, -6, 953, 869, 26,S
2025-03-19 18:49:59.149,381, 650, 940, -5, -28, -8, -7, 14, -4, 953, 871, 76,S
2025-03-19 18:49:59.158,417, 618, 774, -4, -41, -4, -8, 17, -4, 954, 879, 80,S
2025-03-19 18:49:59.166,448, 636, 593, 1, -46, -1, -9, 15, -3, 957, 889, 70,S
2025-03-19 18:49:59.175,505, 660, 508, 6, -45, 4, -9, 15, -3, 954, 893, 90,S
2025-03-19 18:49:59.182,561, 612, 487, 9, -43, 8, -8, 16, -4, 955, 897, 111,S
2025-03-19 18:49:59.192,641, 578, 465, 11, -40, 10, -9, 15, -2, 955, 898, 169,S
2025-03-19 18:49:59.466,727, 996, 123, -81, -19, 58, -8, 13, 5, 978, 963, 177,T
2025-03-19 18:49:59.478,561, 328, 15, -18, -10, 55, -10, 15, 3, 978, 962, 209,T
2025-03-19 18:49:59.486,510, 535, 206, -44, 11, 48, -10, 13, 4, 979, 962, 203,T
2025-03-19 18:49:59.494,589, 455, 622, -33, 9, 33, -12, 15, 2, 977, 962, 216,T
2025-03-19 18:49:59.503,583, 422, 455, -1, 7, 28, -9, 15, 3, 976, 960, 232,T
2025-03-19 18:49:59.515,591, 515, 608, 7, 6, 20, -10, 16, -1, 975, 953, 234,T
2025-03-19 18:49:59.517,597, 473, 546, 17, 4, 11, -10, 15, 3, 972, 945, 321,T
2025-03-19 18:49:59.531,664, 541, 518, 29, 5, 5, -10, 15, 1, 967, 934, 367,T
2025-03-19 18:49:59.539,704, 550, 393, 19, 8, -9, -10, 14, 2, 962, 925, 371,T
2025-03-19 18:49:59.548,713, 216, 273, 6, 16, -35, -9, 15, 1, 960, 920, 420,T
2025-03-19 18:49:59.556,719, 200, 242, 7, 24, -57, -9, 15, 1, 955, 920, 432,T
2025-03-19 18:49:59.566,663, 411, 340, -1, 26, -65, -10, 15, 1, 951, 911, 401,T
2025-03-19 18:49:59.576,563, 544, 434, -20, 19, -65, -11, 14, 1, 951, 902, 303,T
2025-03-19 18:49:59.583,582, 639, 527, -13, 8, -50, -9, 14, 2, 951, 902, 252,T
2025-03-19 18:49:59.593,723, 712, 678, 1, -3, -19, -10, 15, 1, 954, 904, 236,T
2025-03-19 18:49:59.601,682, 854, 841, -7, -17, 14, -9, 13, 0, 961, 915, 266,T
2025-03-19 18:49:59.610,734, 803, 859, -19, -29, 41, -10, 15, 3, 965, 929, 267,T
2025-03-19 18:49:59.616,679, 489, 729, -62, -19, 20, -9, 16, 2, 971, 939, 233,T
2025-03-19 18:49:59.628,1100, -189, 541, 48, -8, -1, -9, 15, 1, 976, 942, 250,T
2025-03-19 18:49:59.637,821, 892, 599, 22, -2, 17, -9, 16, 3, 979, 945, 63,T
2025-03-19 18:49:59.646,702, 858, 148, 3, 21, 51, -10, 15, 3, 980, 947, 20,T
2025-03-19 18:49:59.653,928, 467, 133, -15, 41, 54, -10, 15, 3, 982, 944, 17,T
2025-03-19 18:49:59.662,843, 355, 584, 15, 38, 44, -8, 15, 3, 982, 940, 20,T
2025-03-19 18:49:59.670,569, 704, 129, 30, 49, 62, -9, 14, 4, 981, 937, 45,T
2025-03-19 18:49:59.679,724, 338, 543, -13, 44, 53, -8, 14, 3, 981, 932, 50,T
2025-03-19 18:49:59.691,707, 452, 271, 5, 43, 50, -8, 15, 1, 979, 919, 45,T
2025-03-19 18:49:59.699,776, 544, 233, 4, 44, 37, -8, 15, 2, 978, 913, 41,T
2025-03-19 18:49:59.708,683, 344, 403, 3, 36, 19, -9, 16, 0, 973, 894, 47,T
2025-03-19 18:49:59.716,752, 356, 545, 12, 23, 6, -9, 16, -1, 969, 871, 51,T
2025-03-19 18:49:59.725,852, 421, 528, -4, 14, -15, -7, 14, 0, 966, 835, 24,T
2025-03-19 18:49:59.736,875, 183, 442, 0, 10, -47, -8, 15, 1, 962, 793, 133,T
2025-03-19 18:49:59.745,919, 201, 315, 10, 18, -71, -8, 15, 1, 950, 766, 202,T
2025-03-19 18:49:59.751,822, 432, 230, 10, 30, -79, -7, 16, 0, 937, 752, 214,T
2025-03-19 18:49:59.761,710, 631, 285, -4, 36, -67, -9, 16, -1, 932, 753, 152,T
2025-03-19 18:49:59.770,642, 707, 432, -27, 34, -49, -9, 14, -1, 930, 761, 95,T
2025-03-19 18:49:59.779,588, 688, 567, -37, 27, -35, -9, 15, -2, 929, 780, 97,T
2025-03-19 18:49:59.789,556, 606, 723, -31, 17, -25, -7, 14, -2, 930, 795, 105,T
2025-03-19 18:49:59.797,502, 570, 847, -23, 1, -17, -9, 16, -2, 933, 818, 91,T
2025-03-19 18:49:59.806,482, 587, 886, -16, -16, -10, -8, 14, 0, 930, 832, 157,T
2025-03-19 18:50:00.093,860, 777, 244, 1, 36, 50, -10, 15, 2, 974, 887, 23,U
2025-03-19 18:50:00.096,578, 681, 311, 9, 39, 62, -9, 14, 3, 974, 895, 19,U
2025-03-19 18:50:00.110,687, 762, 196, 2, 29, 52, -9, 14, 2, 975, 902, 29,U
2025-03-19 18:50:00.116,846, 476, 284, -15, 25, 39, -8, 16, 0, 974, 910, 52,U
2025-03-19 18:50:00.127,842, 533, 298, 5, 15, 30, -9, 15, 0, 973, 916, 25,U
2025-03-19 18:50:00.138,654, 562, 430, -12, 1, 25, -9, 16, 1, 972, 924, 35,U
2025-03-19 18:50:00.146,686, 750, 284, -23, -5, 20, -9, 16, 1, 971, 932, 20,U
2025-03-19 18:50:00.154,779, 336, 591, -28, -18, 6, -8, 15, -1, 966, 932, 38,U
2025-03-19 18:50:00.161,601, 106, 658, -2, -34, -16, -7, 18, 2, 962, 928, 261,U
2025-03-19 18:50:00.171,637, 182, 735, 11, -48, -34, -9, 16, 0, 955, 927, 386,U
2025-03-19 18:50:00.182,590, 438, 626, -2, -43, -46, -10, 17, 1, 948, 923, 452,U
2025-03-19 18:50:00.191,654, 480, 740, 4, -44, -38, -10, 16, 1, 949, 925, 460,U
2025-03-19 18:50:00.199,801, 621, 483, 1, -21, -20, -9, 15, 1, 948, 923, 459,U
2025-03-19 18:50:00.208,654, 469, 690, 4, -9, -8, -11, 14, 1, 952, 918, 434,U
2025-03-19 18:50:00.216,621, 337, 790, 12, -14, -11, -9, 16, 1, 957, 913, 358,U
2025-03-19 18:50:00.225,657, 192, 636, 32, -12, -20, -7, 14, 2, 963, 909, 301,U
2025-03-19 18:50:00.232,666, 640, 368, 53, -1, -11, -7, 14, 2, 968, 902, 225,U
2025-03-19 18:50:00.244,814, 688, 447, 52, 9, 8, -9, 15, 3, 970, 903, 219,U
2025-03-19 18:50:00.250,755, 1059, 125, 31, 26, 33, -10, 14, 2, 974, 910, 179,U
2025-03-19 18:50:00.261,788, 1130, 183, -14, 38, 47, -10, 15, 2, 975, 911, 45,U
2025-03-19 18:50:00.267,758, 613, 199, -14, 36, 38, -10, 14, 2, 974, 911, 48,U
2025-03-19 18:50:00.277,600, 746, 304, -4, 40, 38, -9, 15, 1, 974, 906, 42,U
2025-03-19 18:50:00.284,839, 364, 330, -10, 31, 30, -9, 15, 2, 974, 901, 46,U
2025-03-19 18:50:00.297,758, 369, 384, -4, 23, 14, -9, 16, 2, 973, 890, 54,U
2025-03-19 18:50:00.301,800, 468, 356, 12, 13, 5, -8, 14, 3, 971, 881, 70,U
2025-03-19 18:50:00.314,814, 641, 430, -1, 7, 1, -8, 16, 0, 967, 870, 212,U
2025-03-19 18:50:00.318,799, 506, 442, -24, -2, -14, -10, 15, 2, 965, 863, 280,U
2025-03-19 18:50:00.331,883, 279, 312, -27, 3, -34, -10, 15, 2, 961, 861, 319,U
2025-03-19 18:50:00.336,826, 276, 270, -27, 15, -52, -9, 15, 1, 956, 861, 320,U
2025-03-19 18:50:00.350,727, 470, 314, -21, 26, -57, -9, 15, 2, 946, 853, 354,U
2025-03-19 18:50:00.358,665, 625, 401, -30, 30, -51, -10, 18, 0, 940, 844, 288,U
2025-03-19 18:50:00.367,630, 608, 509, -27, 29, -39, -10, 15, 1, 933, 842, 244,U
2025-03-19 18:50:00.376,620, 562, 620, -20, 26, -25, -9, 16, -2, 926, 845, 239,U
2025-03-19 18:50:00.666,790, 617, 407, 38, 2, 11, -8, 14, 1, 969, 907, 63,V
2025-03-19 18:50:00.675,822, 889, 386, 45, 18, 36, -8, 14, 1, 971, 905, 71,V
2025-03-19 18:50:00.682,833, 791, 485, 7, 28, 49, -8, 14, 1, 973, 901, 25,V
2025-03-19 18:50:00.695,812, 801, 397, 7, 46, 70, -8, 14, 2, 974, 900, 28,V
2025-03-19 18:50:00.700,721, 674, 453, -16, 44, 78, -8, 15, 0, 975, 895, 43,V
2025-03-19 18:50:00.711,814, 807, 474, -33, 42, 75, -8, 13, 1, 975, 883, 18,V
2025-03-19 18:50:00.719,446, 233, 540, 1, 29, 61, -8, 16, 2, 975, 886, 27,V
2025-03-19 18:50:00.728,977, 645, 233, -24, 23, 52, -9, 15, -1, 975, 889, 32,V
2025-03-19 18:50:00.736,502, 463, 293, -28, 14, 36, -8, 16, -1, 974, 901, 29,V
2025-03-19 18:50:00.748,833, 460, 279, -8, 9, 26, -8, 14, -1, 974, 915, 29,V
2025-03-19 18:50:00.754,747, 649, 290, -27, 7, 22, -9, 17, 0, 973, 933, 17,V
2025-03-19 18:50:00.764,737, 563, 386, -44, -4, 13, -7, 16, 1, 972, 944, 29,V
2025-03-19 18:50:00.771,848, 271, 779, -36, -23, -2, -7, 16, 1, 972, 951, 20,V
2025-03-19 18:50:00.781,784, 66, 614, -16, -36, -21, -7, 17, 0, 969, 957, 44,V
2025-03-19 18:50:00.788,685, 104, 791, 4, -50, -46, -8, 16, -1, 968, 961, 50,V
2025-03-19 18:50:00.798,732, 302, 821, 18, -58, -43, -8, 17, -1, 969, 960, 141,V
2025-03-19 18:50:00.809,1047, 430, 467, 33, -53, -35, -9, 16, 1, 965, 960, 229,V
2025-03-19 18:50:00.817,780, 697, 451, 19, -31, -22, -10, 16, 0, 959, 958, 241,V
2025-03-19 18:50:00.826,774, 511, 456, 27, -20, -13, -9, 15, 1, 955, 955, 323,V
2025-03-19 18:50:00.827,767, 554, 370, 27, -5, -6, -9, 16, 0, 945, 951, 383,V
2025-03-19 18:50:00.843,741, 577, 433, 16, 2, -3, -9, 15, 1, 942, 947, 404,V
2025-03-19 18:50:00.850,790, 545, 450, 8, 4, -2, -9, 15, 0, 939, 946, 411,V
2025-03-19 18:50:00.862,830, 530, 356, -1, 13, -6, -9, 15, 0, 938, 941, 409,V
2025-03-19 18:50:00.866,821, 499, 307, -6, 25, -12, -11, 16, 1, 940, 937, 363,V
2025-03-19 18:50:00.877,791, 446, 333, -11, 32, -21, -9, 18, 0, 939, 932, 301,V
2025-03-19 18:50:00.887,719, 489, 386, -13, 36, -24, -10, 13, 2, 941, 924, 261,V
2025-03-19 18:50:00.896,680, 556, 434, -13, 37, -21, -11, 17, 0, 936, 912, 252,V
2025-03-19 18:50:00.907,650, 594, 481, -13, 36, -15, -10, 14, 1, 934, 897, 206,V
2025-03-19 18:50:00.915,622, 599, 549, -13, 30, -10, -9, 18, -2, 929, 871, 170,V
2025-03-19 18:50:00.924,610, 581, 610, -8, 23, -5, -9, 15, 0, 927, 842, 117,V
2025-03-19 18:50:00.932,607, 550, 644, -2, 17, -2, -10, 17, -2, 924, 793, 94,V
2025-03-19 18:50:00.940,604, 519, 625, 1, 8, -2, -10, 16, 1, 919, 736, 68,V
2025-03-19 18:50:01.246,881, 784, 492, 8, 10, 22, -9, 13, 1, 963, 887, 41,W
2025-03-19 18:50:01.256,997, 1032, 394, -16, 27, 47, -9, 15, 2, 965, 888, 30,W
2025-03-19 18:50:01.263,884, 936, 317, -3, 42, 77, -9, 12, 2, 968, 891, 33,W
2025-03-19 18:50:01.271,590, 856, 324, -8, 39, 76, -9, 16, 1, 971, 878, 10,W
2025-03-19 18:50:01.280,689, 560, 375, -4, 33, 71, -9, 16, 1, 972, 875, 28,W
2025-03-19 18:50:01.292,539, 728, 356, -6, 27, 62, -9, 13, 0, 972, 871, 30,W
2025-03-19 18:50:01.299,553, 216, 358, -27, 15, 42, -9, 16, 0, 973, 882, 46,W
2025-03-19 18:50:01.309,739, 599, 239, -15, 12, 34, -7, 16, 0, 972, 895, 49,W
2025-03-19 18:50:01.317,697, 534, 236, -43, 9, 23, -8, 16, 0, 971, 910, 37,W
2025-03-19 18:50:01.326,704, 588, 300, -45, 3, 17, -8, 17, -1, 972, 920, 42,W
2025-03-19 18:50:01.334,739, 336, 382, -38, -10, 1, -8, 18, -1, 971, 929, 42,W
2025-03-19 18:50:01.346,662, 342, 790, -26, -29, -18, -9, 18, -1, 971, 935, 33,W
