Timestamp,Acc_X,Acc_Y,Acc_Z,Gyro_X,Gyro_Y,Gyro_Z,Mag_X,Mag_Y,Mag_Z,Force1,Force2,Force3,Letter
2025-03-19 18:42:56.516,620, 626, 505, 1, -3, 3, -3, 10, 21, 841, 709, 553,noise
2025-03-19 18:42:56.531,629, 618, 503, -1, -3, 3, -3, 10, 21, 840, 707, 550,noise
2025-03-19 18:42:56.541,627, 609, 498, -1, -3, 1, -3, 10, 21, 839, 703, 551,noise
2025-03-19 18:42:56.548,625, 607, 498, -1, -2, 0, -2, 10, 23, 841, 699, 547,noise
2025-03-19 18:42:56.556,624, 611, 496, -2, -2, -1, -2, 11, 20, 841, 695, 551,noise
2025-03-19 18:42:56.569,629, 625, 502, -2, -2, -1, -4, 10, 22, 844, 700, 553,noise
2025-03-19 18:42:56.578,629, 627, 500, -3, -1, 0, -3, 10, 21, 844, 703, 552,noise
2025-03-19 18:42:56.586,634, 621, 503, -3, -1, -1, -2, 10, 23, 847, 708, 552,noise
2025-03-19 18:42:56.594,635, 614, 495, -4, 0, -1, -3, 12, 22, 848, 708, 551,noise
2025-03-19 18:42:56.603,632, 607, 487, -4, 1, -2, -4, 10, 23, 853, 713, 549,noise
2025-03-19 18:42:56.612,630, 605, 491, -4, 2, -2, -4, 12, 21, 854, 715, 554,noise
2025-03-19 18:42:56.620,625, 616, 503, -5, 2, -2, -4, 12, 21, 854, 721, 556,noise
2025-03-19 18:42:56.631,619, 620, 505, -4, 2, -2, -3, 10, 23, 856, 721, 557,noise
2025-03-19 18:42:56.636,619, 620, 510, -3, 2, -2, -5, 12, 21, 854, 722, 558,noise
2025-03-19 18:42:56.648,605, 613, 525, -3, 2, -2, -3, 10, 22, 856, 728, 561,noise
2025-03-19 18:42:56.656,611, 619, 533, -2, 1, -1, -2, 12, 21, 856, 727, 559,noise
2025-03-19 18:42:56.663,604, 622, 527, -2, 1, -1, -3, 10, 22, 857, 729, 562,noise
2025-03-19 18:42:56.666,594, 626, 525, -1, 0, 1, -4, 12, 20, 857, 728, 561,noise
2025-03-19 18:42:56.684,595, 625, 525, 1, -1, 1, -4, 11, 23, 859, 728, 563,noise
2025-03-19 18:42:56.693,601, 634, 523, 2, -1, 3, -3, 12, 21, 860, 730, 568,noise
2025-03-19 18:42:56.701,605, 623, 524, 2, -2, 4, -3, 11, 22, 860, 730, 568,noise
2025-03-19 18:42:56.709,616, 625, 512, 2, -2, 4, -3, 11, 22, 864, 733, 569,noise
2025-03-19 18:42:56.717,618, 618, 511, 1, -2, 4, -3, 11, 21, 862, 732, 568,noise
2025-03-19 18:42:56.720,620, 617, 508, 1, -2, 4, -2, 9, 23, 861, 735, 569,noise
2025-03-19 18:42:56.735,622, 615, 503, 0, -2, 4, -3, 10, 21, 862, 734, 571,noise
2025-03-19 18:42:56.746,619, 613, 501, 0, -2, 3, -4, 10, 23, 863, 739, 570,noise
2025-03-19 18:42:56.753,623, 604, 503, -1, -2, 3, -3, 13, 22, 864, 736, 571,noise
2025-03-19 18:42:56.762,631, 609, 503, -1, -3, 1, -2, 9, 22, 864, 743, 572,noise
2025-03-19 18:42:56.769,639, 601, 500, -1, -3, 0, -4, 11, 21, 865, 744, 574,noise
2025-03-19 18:42:56.779,637, 611, 497, -2, -3, -1, -4, 11, 23, 866, 743, 571,noise
2025-03-19 18:42:56.787,636, 612, 486, -3, -2, -2, -4, 11, 23, 868, 743, 576,noise
2025-03-19 18:42:56.799,639, 614, 480, -4, -1, -3, -3, 12, 22, 870, 746, 579,noise
2025-03-19 18:42:56.807,638, 611, 482, -4, 0, -3, -3, 10, 22, 867, 746, 578,noise
2025-03-19 18:42:56.815,633, 614, 496, -4, 1, -3, -3, 10, 22, 869, 749, 584,noise
2025-03-19 18:42:56.821,629, 618, 500, -5, 1, -4, -3, 11, 22, 870, 753, 588,noise
2025-03-19 18:42:56.832,628, 617, 507, -5, 1, -3, -4, 10, 21, 873, 757, 585,noise
2025-03-19 18:42:56.839,626, 620, 513, -5, 1, -3, -1, 10, 23, 872, 756, 587,noise
2025-03-19 18:42:56.847,618, 619, 521, -5, 1, -3, -3, 11, 22, 874, 759, 590,noise
2025-03-19 18:42:56.861,620, 613, 525, -5, 0, -2, -2, 11, 21, 876, 761, 590,noise
2025-03-19 18:42:56.868,622, 615, 532, -4, 0, -2, -3, 10, 23, 877, 763, 588,noise
2025-03-19 18:42:56.877,618, 603, 539, -3, -2, -3, -3, 10, 23, 879, 768, 590,noise
2025-03-19 18:42:56.885,611, 612, 536, -3, -2, -2, -1, 10, 22, 881, 766, 590,noise
2025-03-19 18:42:56.895,605, 616, 511, -3, -3, -1, -2, 10, 21, 882, 770, 592,noise
2025-03-19 18:42:56.900,602, 625, 529, -1, -4, 1, -3, 11, 23, 884, 776, 596,noise
2025-03-19 18:42:56.911,601, 630, 524, -2, -4, 3, -3, 10, 23, 886, 778, 596,noise
2025-03-19 18:42:56.919,609, 615, 520, -3, -4, 3, -3, 11, 23, 887, 779, 601,noise
2025-03-19 18:42:56.930,608, 609, 518, -1, -4, 3, -3, 12, 22, 890, 785, 600,noise
2025-03-19 18:42:56.936,602, 623, 521, -2, -5, 4, -3, 11, 23, 893, 786, 598,noise
2025-03-19 18:42:56.947,603, 618, 516, 0, -6, 4, -2, 10, 21, 895, 791, 603,noise
2025-03-19 18:42:56.951,614, 621, 508, 0, -6, 4, -4, 11, 22, 897, 795, 606,noise
2025-03-19 18:42:56.964,615, 621, 515, 0, -7, 4, -4, 11, 22, 900, 798, 608,noise
2025-03-19 18:42:56.970,627, 608, 508, 0, -8, 4, -2, 9, 22, 902, 801, 613,noise
2025-03-19 18:42:56.982,636, 605, 494, -1, -8, 2, -3, 12, 21, 903, 803, 613,noise
2025-03-19 18:42:56.991,632, 606, 478, 0, -7, 2, -1, 11, 23, 905, 805, 613,noise
2025-03-19 18:42:56.999,636, 610, 482, 1, -7, 0, -3, 11, 23, 906, 806, 615,noise
2025-03-19 18:42:57.006,643, 619, 480, 0, -6, 0, -4, 9, 24, 907, 811, 616,noise
2025-03-19 18:42:57.017,653, 616, 468, -1, -5, -1, -5, 11, 24, 904, 811, 619,noise
2025-03-19 18:42:57.024,661, 616, 471, -2, -3, -2, -3, 10, 25, 907, 812, 621,noise
2025-03-19 18:42:57.036,655, 607, 463, -3, -2, -3, -5, 13, 23, 909, 812, 617,noise
2025-03-19 18:42:57.045,648, 605, 463, -4, 0, -3, -2, 9, 24, 905, 812, 617,noise
2025-03-19 18:42:57.053,641, 613, 469, -4, 1, -4, -2, 9, 24, 909, 812, 615,noise
2025-03-19 18:42:57.061,639, 619, 481, -4, 2, -4, -4, 12, 23, 905, 813, 617,noise
2025-03-19 18:42:57.070,641, 616, 491, -4, 2, -4, -3, 10, 25, 905, 812, 611,noise
2025-03-19 18:42:57.078,640, 607, 497, -4, 2, -5, -3, 14, 23, 900, 807, 607,noise
2025-03-19 18:42:57.090,634, 601, 503, -3, 2, -5, -3, 11, 25, 897, 803, 602,noise
2025-03-19 18:42:57.098,634, 601, 512, -3, 2, -6, -2, 12, 24, 892, 801, 592,noise
2025-03-19 18:42:57.106,628, 615, 518, -3, 1, -5, -3, 11, 24, 891, 800, 587,noise
2025-03-19 18:42:57.115,625, 630, 530, -4, 0, -4, -3, 12, 23, 888, 797, 578,noise
2025-03-19 18:42:57.122,623, 622, 525, -3, 0, -3, -3, 11, 24, 889, 796, 569,noise
2025-03-19 18:42:57.132,614, 620, 527, -2, 0, -2, -3, 11, 24, 888, 794, 558,noise
2025-03-19 18:42:57.136,609, 608, 537, 0, -1, -1, -3, 11, 24, 888, 788, 554,noise
2025-03-19 18:42:57.148,602, 607, 539, 4, -3, 0, -3, 10, 26, 889, 788, 551,noise
2025-03-19 18:42:57.160,614, 611, 537, 6, -4, 1, -2, 11, 22, 885, 784, 546,noise
2025-03-19 18:42:57.167,623, 607, 529, 8, -5, 1, -4, 9, 26, 887, 783, 540,noise
2025-03-19 18:42:57.176,607, 602, 529, 9, -7, 1, -3, 13, 24, 887, 782, 532,noise
2025-03-19 18:42:57.184,617, 609, 523, 9, -10, 1, -3, 11, 25, 887, 780, 521,noise
2025-03-19 18:42:57.193,607, 618, 504, 9, -10, 1, -5, 12, 25, 888, 779, 517,noise
2025-03-19 18:42:57.201,611, 623, 498, 9, -11, 2, -2, 9, 27, 888, 778, 517,noise
2025-03-19 18:42:57.212,624, 619, 495, 7, -12, 1, -3, 11, 25, 889, 778, 511,noise
2025-03-19 18:42:57.219,637, 622, 491, 6, -12, 0, -2, 9, 27, 890, 780, 511,noise
2025-03-19 18:42:57.227,652, 607, 461, 7, -12, -2, -2, 9, 27, 885, 776, 497,noise
2025-03-19 18:42:57.237,670, 598, 439, 5, -10, -4, -3, 12, 26, 884, 776, 506,noise
2025-03-19 18:42:57.247,680, 619, 431, 2, -9, -6, -3, 10, 28, 883, 776, 513,noise
2025-03-19 18:42:57.251,673, 633, 420, 0, -6, -8, -4, 10, 26, 882, 775, 515,noise
2025-03-19 18:42:57.264,683, 638, 416, -2, -3, -8, -3, 12, 27, 884, 776, 518,noise
2025-03-19 18:42:57.270,680, 636, 426, -5, 0, -9, -3, 10, 26, 883, 774, 510,noise
2025-03-19 18:42:57.282,677, 631, 446, -8, 3, -9, -3, 10, 27, 880, 774, 497,noise
2025-03-19 18:42:57.287,677, 633, 461, -9, 3, -10, -3, 12, 27, 883, 772, 500,noise
2025-03-19 18:42:57.298,672, 622, 451, -10, 4, -11, -2, 10, 27, 883, 776, 496,noise
2025-03-19 18:42:57.306,664, 623, 478, -8, 4, -12, -3, 11, 27, 883, 778, 504,noise
2025-03-19 18:42:57.315,673, 627, 505, -8, 3, -12, -3, 11, 27, 881, 778, 507,noise
2025-03-19 18:42:57.327,689, 633, 502, -11, 2, -15, -3, 12, 26, 879, 779, 506,noise
2025-03-19 18:42:57.335,665, 592, 500, -13, 2, -18, -3, 11, 26, 882, 780, 511,noise
2025-03-19 18:42:57.343,635, 578, 507, -9, 1, -21, -5, 9, 27, 880, 778, 509,noise
2025-03-19 18:42:57.348,607, 598, 528, -7, -2, -23, -3, 10, 28, 880, 781, 511,noise
2025-03-19 18:42:57.360,604, 588, 551, 0, -6, -25, -4, 11, 27, 879, 775, 496,noise
2025-03-19 18:42:57.369,573, 572, 601, 13, -15, -25, -4, 10, 29, 879, 773, 512,noise
2025-03-19 18:42:57.377,644, 629, 604, 5, -21, -26, -5, 11, 29, 878, 771, 517,noise
2025-03-19 18:42:57.386,599, 658, 494, 3, -22, -25, -4, 10, 30, 880, 771, 514,noise
2025-03-19 18:42:57.396,559, 636, 483, 6, -21, -22, -4, 9, 28, 879, 771, 511,noise
2025-03-19 18:42:57.404,563, 653, 529, 6, -22, -19, -4, 8, 31, 880, 773, 513,noise
2025-03-19 18:42:57.414,566, 658, 536, 5, -26, -17, -4, 8, 31, 879, 774, 509,noise
2025-03-19 18:42:57.421,563, 611, 509, 5, -29, -14, -6, 11, 30, 881, 771, 508,noise
2025-03-19 18:42:57.432,562, 621, 496, 8, -29, -15, -4, 10, 31, 882, 770, 514,noise
2025-03-19 18:42:57.440,591, 648, 428, 4, -25, -15, -5, 9, 32, 882, 771, 519,noise
2025-03-19 18:42:57.450,583, 679, 404, 1, -19, -14, -6, 9, 33, 884, 772, 527,noise
2025-03-19 18:42:57.458,562, 733, 416, -5, -16, -9, -6, 9, 34, 885, 767, 532,noise
2025-03-19 18:42:57.467,581, 714, 393, -10, -13, -6, -4, 9, 34, 887, 769, 532,noise
2025-03-19 18:42:57.474,582, 682, 383, -14, -11, -4, -5, 9, 33, 887, 773, 531,noise
2025-03-19 18:42:57.486,578, 655, 404, -11, -9, -4, -5, 9, 34, 890, 778, 533,noise
2025-03-19 18:42:57.494,604, 652, 412, -10, -7, -4, -7, 11, 31, 892, 779, 538,noise
2025-03-19 18:42:57.504,609, 676, 391, -11, -3, -4, -7, 11, 31, 896, 778, 543,noise
2025-03-19 18:42:57.510,597, 703, 388, -13, 0, -1, -4, 9, 36, 897, 782, 547,noise
2025-03-19 18:42:57.519,591, 710, 399, -14, 2, 2, -6, 10, 33, 898, 787, 561,noise
2025-03-19 18:42:57.529,587, 704, 420, -16, 3, 6, -6, 8, 36, 899, 788, 567,noise
2025-03-19 18:42:57.537,581, 686, 457, -15, 3, 9, -5, 11, 33, 900, 789, 570,noise
2025-03-19 18:42:57.546,591, 662, 481, -11, 2, 11, -5, 10, 34, 904, 791, 572,noise
2025-03-19 18:42:57.556,598, 646, 481, -8, 1, 12, -6, 10, 33, 903, 791, 574,noise
2025-03-19 18:42:57.564,591, 642, 481, -5, 1, 13, -5, 10, 34, 907, 793, 579,noise
2025-03-19 18:42:57.571,617, 654, 483, -5, 1, 14, -5, 12, 33, 908, 795, 580,noise
2025-03-19 18:42:57.580,614, 657, 490, -5, 2, 16, -3, 11, 33, 913, 803, 579,noise
2025-03-19 18:42:57.589,619, 654, 508, -4, 1, 17, -3, 11, 33, 914, 805, 575,noise
2025-03-19 18:42:57.601,625, 633, 510, -3, 1, 17, -6, 12, 30, 914, 805, 570,noise
2025-03-19 18:42:57.610,624, 614, 515, 0, 0, 17, -5, 9, 35, 916, 807, 574,noise
2025-03-19 18:42:57.616,610, 603, 534, 4, -3, 16, -5, 11, 32, 913, 810, 574,noise
2025-03-19 18:42:57.627,617, 611, 549, 6, -7, 16, -5, 10, 32, 918, 813, 576,noise
2025-03-19 18:42:57.635,623, 627, 513, 6, -9, 16, -6, 10, 32, 919, 814, 578,noise
2025-03-19 18:42:57.643,621, 626, 495, 6, -11, 17, -3, 9, 34, 919, 817, 582,noise
2025-03-19 18:42:57.655,629, 630, 488, 6, -12, 18, -4, 11, 33, 920, 820, 586,noise
2025-03-19 18:42:57.660,642, 626, 462, 3, -13, 17, -4, 11, 34, 921, 821, 590,noise
2025-03-19 18:42:57.671,656, 606, 445, 3, -13, 15, -6, 10, 32, 923, 824, 591,noise
2025-03-19 18:42:57.677,672, 602, 433, 3, -12, 13, -5, 9, 35, 920, 825, 591,noise
2025-03-19 18:42:57.688,695, 613, 413, 0, -11, 9, -5, 9, 35, 924, 829, 600,noise
2025-03-19 18:42:57.698,704, 621, 399, -2, -9, 6, -5, 12, 33, 920, 830, 603,noise
2025-03-19 18:42:57.708,706, 622, 375, -5, -6, 4, -4, 10, 34, 923, 834, 608,noise
2025-03-19 18:42:57.716,710, 622, 370, -7, -3, 1, -7, 13, 33, 925, 839, 610,noise
2025-03-19 18:42:57.724,709, 625, 375, -9, 1, -1, -3, 10, 34, 922, 843, 612,noise
2025-03-19 18:42:57.733,696, 619, 391, -10, 3, -3, -4, 10, 34, 924, 841, 609,noise
2025-03-19 18:42:57.741,683, 617, 410, -11, 5, -5, -4, 10, 33, 923, 845, 613,noise
2025-03-19 18:42:57.749,668, 622, 436, -10, 5, -5, -4, 11, 32, 925, 843, 613,noise
2025-03-19 18:42:57.757,657, 618, 451, -8, 5, -6, -4, 11, 33, 927, 846, 613,noise
2025-03-19 18:42:57.766,653, 615, 460, -7, 5, -6, -5, 12, 33, 927, 845, 615,noise
2025-03-19 18:42:57.777,660, 618, 468, -6, 5, -6, -5, 12, 33, 924, 847, 614,noise
2025-03-19 18:42:57.786,661, 624, 469, -5, 5, -6, -5, 11, 35, 925, 843, 614,noise
2025-03-19 18:42:58.277,686, 682, 402, -22, -8, -28, -7, 5, 47, 938, 872, 391,A
2025-03-19 18:42:58.286,626, 732, 392, -21, -8, -27, -7, 5, 47, 938, 873, 385,A
2025-03-19 18:42:58.295,582, 752, 399, -19, -9, -21, -6, 8, 47, 935, 873, 388,A
2025-03-19 18:42:58.306,535, 768, 421, -18, -10, -13, -6, 6, 48, 935, 877, 395,A
2025-03-19 18:42:58.314,512, 762, 426, -20, -13, -4, -8, 6, 46, 934, 878, 395,A
2025-03-19 18:42:58.320,431, 766, 461, -15, -18, 6, -7, 8, 47, 936, 880, 394,A
2025-03-19 18:42:58.332,468, 747, 417, -12, -20, 15, -8, 8, 47, 936, 883, 405,A
2025-03-19 18:42:58.336,469, 749, 343, -8, -18, 25, -9, 7, 49, 936, 882, 401,A
2025-03-19 18:42:58.346,468, 752, 344, -9, -13, 35, -7, 9, 47, 935, 883, 399,A
2025-03-19 18:42:58.359,495, 725, 354, -11, -9, 43, -8, 8, 46, 935, 886, 402,A
2025-03-19 18:42:58.368,566, 682, 337, -16, -2, 47, -8, 7, 47, 937, 887, 400,A
2025-03-19 18:42:58.376,604, 655, 349, -21, 8, 51, -10, 9, 46, 934, 890, 391,A
2025-03-19 18:42:58.384,616, 623, 374, -23, 18, 50, -10, 9, 46, 935, 892, 392,A
2025-03-19 18:42:58.393,633, 605, 400, -23, 28, 48, -9, 9, 46, 934, 896, 400,A
2025-03-19 18:42:58.400,609, 621, 461, -21, 34, 48, -9, 9, 46, 936, 899, 413,A
2025-03-19 18:42:58.412,590, 618, 511, -19, 33, 46, -9, 10, 44, 937, 902, 419,A
2025-03-19 18:42:58.420,601, 585, 504, -14, 29, 46, -9, 11, 44, 936, 908, 425,A
2025-03-19 18:42:58.429,607, 555, 492, -9, 24, 45, -7, 11, 43, 939, 911, 442,A
2025-03-19 18:42:58.437,626, 547, 494, -5, 17, 43, -8, 10, 42, 940, 915, 470,A
2025-03-19 18:42:58.447,624, 533, 463, 1, 9, 39, -7, 10, 42, 940, 918, 482,A
2025-03-19 18:42:58.452,651, 518, 442, 10, 0, 34, -7, 12, 41, 939, 924, 517,A
2025-03-19 18:42:58.466,692, 524, 447, 12, -8, 27, -6, 12, 41, 945, 928, 587,A
2025-03-19 18:42:58.470,744, 548, 416, 17, -14, 20, -8, 11, 40, 945, 930, 619,A
2025-03-19 18:42:58.481,813, 600, 410, 20, -17, 14, -8, 11, 40, 944, 933, 642,A
2025-03-19 18:42:58.489,875, 619, 405, 18, -16, 6, -7, 12, 41, 942, 932, 655,A
2025-03-19 18:42:58.497,890, 631, 359, 10, -11, -3, -7, 14, 41, 944, 933, 668,A
2025-03-19 18:42:58.510,852, 624, 324, 0, -7, -11, -6, 12, 42, 945, 936, 678,A
2025-03-19 18:42:58.517,778, 618, 312, -9, -4, -17, -7, 12, 42, 945, 938, 685,A
2025-03-19 18:42:58.528,739, 613, 336, -11, -3, -19, -7, 11, 41, 945, 938, 694,A
2025-03-19 18:42:58.535,666, 619, 390, -13, -6, -17, -8, 12, 42, 946, 940, 700,A
2025-03-19 18:42:58.545,624, 604, 464, -8, -12, -15, -7, 12, 42, 947, 942, 710,A
2025-03-19 18:42:58.552,618, 630, 498, -4, -20, -11, -8, 13, 43, 949, 943, 713,A
2025-03-19 18:42:58.564,616, 656, 506, -4, -27, -8, -8, 12, 44, 950, 947, 724,A
2025-03-19 18:42:58.570,604, 664, 520, 1, -32, -2, -8, 12, 43, 952, 948, 741,A
2025-03-19 18:42:58.580,590, 668, 536, 1, -38, 5, -8, 12, 43, 955, 948, 751,A
2025-03-19 18:42:58.586,557, 665, 575, 3, -44, 12, -7, 11, 42, 956, 953, 766,A
2025-03-19 18:42:58.596,556, 643, 537, 2, -48, 17, -10, 13, 41, 956, 956, 768,A
2025-03-19 18:42:58.604,692, 501, 443, 6, -37, 13, -8, 11, 44, 960, 958, 757,A
2025-03-19 18:42:58.616,1154, -42, 222, 7, -14, -16, -9, 13, 42, 961, 959, 766,A
2025-03-19 18:42:58.626,703, 857, 602, -13, -21, -12, -7, 12, 44, 964, 960, 758,A
2025-03-19 18:42:58.634,714, 630, 324, -32, -19, -9, -9, 12, 43, 966, 961, 736,A
2025-03-19 18:42:58.642,684, 441, 388, -13, -13, -12, -7, 13, 47, 969, 963, 717,A
2025-03-19 18:42:58.651,675, 644, 391, -19, -8, -10, -8, 13, 44, 971, 961, 702,A
2025-03-19 18:42:58.659,694, 518, 533, -7, -10, -14, -6, 11, 46, 974, 963, 694,A
2025-03-19 18:42:58.668,700, 644, 321, 12, 10, -3, -8, 12, 46, 975, 964, 674,A
2025-03-19 18:42:58.679,782, 694, 376, 17, 37, 17, -8, 12, 46, 974, 960, 632,A
2025-03-19 18:42:58.686,1117, 617, 540, -13, 45, 27, -7, 11, 48, 975, 954, 557,A
2025-03-19 18:42:58.696,705, 1017, -1, 32, 64, 35, -7, 13, 45, 975, 953, 445,A
2025-03-19 18:42:58.701,723, 1093, 82, 5, 68, 36, -6, 13, 47, 974, 953, 283,A
2025-03-19 18:42:58.716,371, 842, -103, -9, 74, 44, -6, 15, 46, 975, 948, 220,A
2025-03-19 18:42:58.723,900, 914, 50, -15, 63, 64, -6, 13, 45, 972, 947, 130,A
2025-03-19 18:42:58.732,885, 426, 199, -36, 54, 35, -4, 15, 41, 972, 945, 104,A
2025-03-19 18:42:58.737,842, 539, 206, -21, 31, 20, -4, 15, 45, 972, 945, 162,A
2025-03-19 18:42:58.747,780, 741, 143, -31, 28, 21, -4, 15, 40, 965, 949, 239,A
2025-03-19 18:42:58.756,921, 680, 474, -52, 16, 17, -4, 15, 40, 966, 948, 320,A
2025-03-19 18:42:58.766,845, 442, 722, -51, -20, 7, -6, 16, 39, 964, 947, 353,A
2025-03-19 18:42:58.777,662, 132, 787, -25, -44, -18, -6, 16, 39, 964, 948, 451,A
2025-03-19 18:42:58.785,633, 17, 653, -4, -56, -49, -6, 15, 42, 961, 947, 532,A
2025-03-19 18:42:58.793,648, 210, 644, 7, -57, -64, -7, 15, 40, 960, 949, 630,A
2025-03-19 18:42:58.802,567, 609, 651, 0, -60, -58, -9, 14, 42, 962, 951, 687,A
2025-03-19 18:42:58.814,549, 737, 605, -12, -59, -36, -8, 14, 39, 964, 955, 707,A
2025-03-19 18:42:58.819,545, 667, 151, -42, -36, -28, -8, 14, 43, 966, 960, 703,A
2025-03-19 18:42:58.831,716, 354, 564, -1, -19, -23, -9, 15, 41, 969, 960, 707,A
2025-03-19 18:42:58.836,718, 528, 797, -10, -27, -20, -9, 14, 43, 970, 964, 703,A
2025-03-19 18:42:58.846,730, 371, 624, 11, -31, -23, -8, 13, 43, 974, 967, 703,A
2025-03-19 18:42:58.854,735, 695, 460, 23, -27, -15, -10, 14, 46, 979, 969, 707,A
2025-03-19 18:42:58.866,739, 1028, 148, 18, -8, 9, -7, 13, 44, 978, 970, 701,A
2025-03-19 18:42:58.875,810, 975, 22, 3, 12, 25, -7, 13, 44, 979, 967, 679,A
2025-03-19 18:42:58.884,877, 806, 162, -3, 27, 40, -8, 13, 48, 980, 965, 644,A
2025-03-19 18:42:58.892,582, 615, 282, -12, 32, 41, -7, 13, 45, 980, 968, 609,A
2025-03-19 18:42:58.900,650, 664, 198, -4, 37, 39, -7, 15, 46, 975, 967, 554,A
2025-03-19 18:42:58.909,599, 712, 255, -23, 43, 39, -8, 14, 47, 976, 963, 524,A
2025-03-19 18:42:58.920,574, 767, 368, -15, 40, 39, -8, 15, 45, 973, 962, 488,A
2025-03-19 18:42:58.929,871, 567, 452, -17, 36, 39, -7, 16, 44, 973, 959, 472,A
2025-03-19 18:42:58.936,600, 610, 457, -14, 33, 33, -7, 15, 45, 970, 954, 456,A
2025-03-19 18:42:58.947,653, 507, 478, -13, 28, 18, -8, 14, 43, 968, 951, 431,A
2025-03-19 18:42:58.953,624, 241, 479, -5, 26, -11, -8, 16, 43, 966, 946, 400,A
2025-03-19 18:42:58.963,609, 310, 552, 4, 20, -34, -6, 15, 42, 964, 942, 402,A
2025-03-19 18:42:58.966,512, 486, 624, 9, 5, -41, -6, 15, 42, 960, 935, 439,A
2025-03-19 18:42:58.982,405, 633, 630, 0, -16, -37, -7, 16, 41, 957, 924, 426,A
2025-03-19 18:42:58.990,350, 635, 658, -3, -37, -25, -6, 14, 41, 958, 913, 417,A
2025-03-19 18:42:58.997,653, 532, 545, 5, -47, -12, -7, 15, 41, 960, 918, 355,A
2025-03-19 18:42:59.006,1205, 4, 417, 51, -6, -34, -7, 13, 43, 960, 939, 398,A
2025-03-19 18:42:59.016,868, 1148, 657, -14, -18, -9, -8, 14, 41, 966, 950, 382,A
2025-03-19 18:42:59.027,841, 406, 262, -17, -15, -8, -7, 15, 42, 971, 961, 492,A
2025-03-19 18:42:59.035,794, 398, 466, 13, -15, -11, -7, 15, 42, 973, 965, 577,A
2025-03-19 18:42:59.043,917, 878, 441, -1, -18, 6, -6, 14, 43, 974, 970, 622,A
2025-03-19 18:42:59.052,660, 977, 277, -31, -11, 20, -8, 14, 42, 980, 973, 637,A
2025-03-19 18:42:59.061,825, 631, 177, -11, -5, 29, -6, 13, 46, 978, 975, 638,A
2025-03-19 18:42:59.070,579, 702, 247, -14, 9, 32, -6, 13, 46, 979, 974, 606,A
2025-03-19 18:42:59.081,580, 741, 478, -24, 9, 30, -10, 15, 43, 974, 971, 592,A
2025-03-19 18:42:59.086,738, 670, 468, 1, 9, 31, -6, 15, 44, 974, 970, 584,A
2025-03-19 18:42:59.096,689, 615, 550, -13, 10, 22, -8, 16, 44, 971, 970, 579,A
2025-03-19 18:42:59.096,850, 148, 262, -10, 32, -18, -7, 14, 45, 969, 969, 588,A
2025-03-19 18:42:59.117,836, 240, 229, -12, 52, -53, -10, 17, 43, 968, 962, 599,A
2025-03-19 18:42:59.124,668, 636, 288, -12, 59, -59, -7, 14, 43, 965, 959, 631,A
2025-03-19 18:42:59.133,622, 708, 327, -22, 60, -52, -9, 16, 42, 964, 956, 643,A
2025-03-19 18:42:59.140,573, 621, 328, -25, 61, -46, -9, 14, 43, 964, 952, 650,A
2025-03-19 18:42:59.150,532, 600, 436, -24, 60, -42, -10, 15, 41, 961, 952, 647,A
2025-03-19 18:42:59.159,468, 601, 636, -20, 51, -37, -9, 14, 42, 959, 947, 649,A
2025-03-19 18:42:59.168,457, 568, 778, -16, 36, -31, -9, 14, 42, 960, 940, 647,A
2025-03-19 18:42:59.178,441, 584, 731, -10, 20, -23, -10, 14, 40, 958, 937, 648,A
2025-03-19 18:42:59.466,598, 634, 517, -6, -27, 3, -8, 14, 40, 944, 925, 685,B
2025-03-19 18:42:59.478,596, 601, 562, -1, -35, 9, -10, 15, 41, 945, 929, 698,B
2025-03-19 18:42:59.486,662, 534, 546, 3, -37, 9, -10, 15, 42, 947, 933, 703,B
2025-03-19 18:42:59.496,784, 453, 436, 7, -33, -23, -8, 15, 41, 952, 938, 685,B
2025-03-19 18:42:59.506,561, 384, 464, 17, -9, -18, -7, 14, 42, 950, 943, 691,B
2025-03-19 18:42:59.514,763, 798, 502, -5, -14, -8, -8, 15, 42, 956, 944, 676,B
2025-03-19 18:42:59.520,772, 425, 332, -11, -10, -9, -8, 13, 42, 959, 948, 653,B
2025-03-19 18:42:59.531,721, 426, 490, 9, -7, -11, -7, 15, 42, 963, 951, 637,B
2025-03-19 18:42:59.543,722, 491, 522, 14, -8, -10, -6, 13, 43, 968, 953, 627,B
2025-03-19 18:42:59.550,797, 647, 471, 13, 2, 2, -6, 13, 43, 970, 953, 596,B
2025-03-19 18:42:59.560,707, 916, 293, 13, 31, 38, -7, 15, 43, 970, 953, 470,B
2025-03-19 18:42:59.568,1071, 811, 270, -3, 44, 35, -6, 13, 43, 974, 951, 330,B
2025-03-19 18:42:59.577,208, 1071, 304, -8, 65, 63, -8, 15, 43, 973, 953, 239,B
2025-03-19 18:42:59.586,352, 766, 426, -14, 66, 66, -7, 13, 43, 973, 951, 130,B
2025-03-19 18:42:59.596,1341, 751, 490, -4, 60, 70, -7, 16, 43, 972, 948, 109,B
2025-03-19 18:42:59.601,543, 712, 364, -58, 47, 52, -4, 16, 43, 974, 949, 16,B
2025-03-19 18:42:59.614,788, 417, 401, -36, 32, 39, -6, 16, 40, 972, 948, 10,B
2025-03-19 18:42:59.619,835, 501, 378, -19, 23, 29, -5, 16, 42, 972, 946, 11,B
2025-03-19 18:42:59.630,715, 618, 389, -26, 14, 22, -7, 19, 39, 970, 945, 2,B
2025-03-19 18:42:59.641,742, 725, 289, -33, 10, 18, -5, 15, 39, 968, 944, 8,B
2025-03-19 18:42:59.650,698, 245, 762, -21, -28, -18, -5, 15, 39, 965, 941, 1,B
2025-03-19 18:42:59.657,596, -35, 717, 17, -51, -57, -6, 18, 38, 960, 940, 196,B
2025-03-19 18:42:59.666,450, 34, 863, 48, -66, -81, -7, 17, 40, 959, 940, 378,B
2025-03-19 18:42:59.668,633, 360, 588, 59, -70, -79, -7, 18, 39, 959, 942, 496,B
2025-03-19 18:42:59.683,703, 675, 539, 53, -65, -62, -4, 15, 40, 961, 946, 651,B
2025-03-19 18:42:59.694,601, 909, 398, 14, -41, -35, -8, 16, 41, 962, 954, 687,B
2025-03-19 18:42:59.701,991, 586, 583, -20, -35, -20, -7, 14, 42, 964, 959, 702,B
2025-03-19 18:42:59.712,864, 399, 534, -24, -25, -20, -9, 15, 41, 967, 962, 708,B
2025-03-19 18:42:59.717,814, 311, 632, -2, -27, -24, -7, 13, 43, 970, 967, 724,B
2025-03-19 18:42:59.728,846, 496, 622, 11, -31, -19, -9, 15, 42, 974, 968, 732,B
2025-03-19 18:42:59.736,792, 919, 408, 10, -28, -4, -7, 14, 44, 975, 970, 733,B
2025-03-19 18:42:59.747,671, 648, 321, 2, -18, -1, -9, 14, 45, 976, 970, 735,B
2025-03-19 18:42:59.756,652, 707, 265, 13, -4, 7, -9, 14, 45, 977, 970, 730,B
2025-03-19 18:42:59.763,490, 944, 517, -8, -3, 11, -7, 14, 44, 974, 972, 724,B
2025-03-19 18:42:59.771,555, 645, 352, 7, 4, 12, -9, 15, 45, 976, 973, 714,B
2025-03-19 18:42:59.781,500, 880, 525, -3, 8, 20, -8, 14, 47, 977, 971, 691,B
2025-03-19 18:42:59.792,554, 745, 400, -8, 15, 26, -8, 14, 45, 979, 971, 671,B
2025-03-19 18:42:59.800,651, 620, 613, 2, 10, 22, -9, 15, 46, 978, 971, 619,B
2025-03-19 18:42:59.809,888, 622, 479, 3, 12, 23, -8, 14, 45, 978, 970, 556,B
2025-03-19 18:42:59.817,806, 509, 403, 4, 12, 19, -7, 15, 46, 976, 968, 508,B
2025-03-19 18:42:59.826,835, 448, 217, 14, 12, 12, -7, 15, 45, 981, 969, 491,B
2025-03-19 18:42:59.834,776, 534, 193, 7, 21, 19, -7, 13, 46, 979, 969, 438,B
2025-03-19 18:42:59.846,890, 404, 295, -4, 21, 12, -7, 13, 46, 976, 966, 380,B
2025-03-19 18:42:59.849,869, 457, 332, -12, 23, 12, -6, 16, 44, 976, 963, 365,B
2025-03-19 18:42:59.863,822, 607, 252, -8, 27, 16, -6, 14, 45, 976, 964, 344,B
2025-03-19 18:42:59.869,597, 565, 440, -27, 24, 14, -6, 15, 45, 977, 961, 331,B
2025-03-19 18:42:59.880,681, 551, 546, -25, 25, 18, -6, 15, 44, 973, 962, 294,B
2025-03-19 18:42:59.886,621, 590, 647, -18, 21, 12, -6, 16, 44, 975, 961, 216,B
2025-03-19 18:42:59.899,599, 603, 616, 4, 18, 9, -6, 15, 44, 976, 958, 217,B
2025-03-19 18:42:59.906,590, 571, 743, 0, 9, 5, -6, 16, 43, 976, 955, 221,B
2025-03-19 18:42:59.916,714, 708, 529, 8, 12, 8, -6, 15, 45, 972, 955, 184,B
2025-03-19 18:42:59.924,805, 710, 457, 7, 13, 9, -7, 16, 42, 975, 953, 90,B
2025-03-19 18:42:59.933,696, 555, 360, 17, 12, 3, -5, 16, 44, 971, 947, 107,B
2025-03-19 18:42:59.941,1003, 540, 253, 21, 10, -2, -5, 16, 44, 973, 940, 147,B
2025-03-19 18:42:59.952,714, 611, 208, 23, 15, 2, -6, 15, 42, 964, 932, 168,B
2025-03-19 18:42:59.961,756, 633, 276, 16, 16, 2, -4, 17, 43, 961, 921, 191,B
2025-03-19 18:42:59.970,785, 549, 367, 15, 11, -5, -5, 15, 43, 955, 909, 251,B
2025-03-19 18:42:59.978,1075, 265, 375, 22, 11, -26, -7, 15, 41, 949, 900, 334,B
2025-03-19 18:42:59.987,1041, 300, 296, 15, 22, -50, -5, 15, 43, 945, 897, 319,B
2025-03-19 18:42:59.995,937, 473, 317, 7, 32, -61, -5, 14, 41, 942, 897, 360,B
2025-03-19 18:43:00.002,744, 675, 343, -5, 34, -56, -6, 13, 41, 939, 897, 374,B
2025-03-19 18:43:00.012,574, 705, 444, -23, 29, -43, -6, 15, 41, 940, 899, 392,B
2025-03-19 18:43:00.022,524, 637, 550, -26, 20, -31, -8, 13, 41, 939, 905, 390,B
2025-03-19 18:43:00.031,496, 593, 693, -25, 7, -24, -8, 15, 41, 940, 907, 396,B
2025-03-19 18:43:00.036,479, 583, 768, -21, -7, -18, -8, 15, 41, 938, 911, 408,B
2025-03-19 18:43:00.051,436, 602, 778, -15, -17, -11, -7, 14, 41, 938, 912, 436,B
2025-03-19 18:43:00.326,689, 589, 429, -2, -6, 2, -9, 15, 42, 945, 918, 437,C
2025-03-19 18:43:00.342,679, 591, 438, -2, -6, 2, -6, 14, 42, 945, 919, 439,C
2025-03-19 18:43:00.349,681, 594, 455, -4, -6, 3, -7, 17, 42, 947, 917, 447,C
2025-03-19 18:43:00.359,670, 593, 465, -4, -7, 3, -7, 15, 44, 945, 918, 449,C
2025-03-19 18:43:00.366,671, 583, 479, -3, -8, 3, -7, 17, 43, 946, 920, 446,C
2025-03-19 18:43:00.378,675, 580, 482, -1, -10, 5, -8, 14, 43, 945, 921, 454,C
2025-03-19 18:43:00.386,673, 573, 467, 0, -10, 6, -7, 16, 43, 948, 920, 453,C
2025-03-19 18:43:00.395,677, 571, 448, 1, -11, 5, -7, 13, 42, 948, 923, 445,C
2025-03-19 18:43:00.400,685, 568, 455, 3, -13, 6, -8, 15, 42, 950, 926, 448,C
2025-03-19 18:43:00.412,702, 583, 436, 2, -14, 7, -8, 15, 42, 950, 926, 448,C
2025-03-19 18:43:00.419,751, 535, 392, 3, -10, 4, -7, 15, 44, 949, 927, 453,C
2025-03-19 18:43:00.432,744, 566, 392, 2, -7, 1, -8, 15, 44, 950, 929, 448,C
2025-03-19 18:43:00.437,725, 606, 399, -2, -6, 2, -7, 15, 45, 949, 927, 448,C
2025-03-19 18:43:00.446,705, 606, 409, -4, -6, 3, -8, 14, 43, 952, 931, 443,C
2025-03-19 18:43:00.456,677, 562, 424, -4, -7, 3, -7, 15, 44, 951, 932, 435,C
2025-03-19 18:43:00.464,652, 557, 459, -5, -10, 0, -6, 15, 43, 953, 934, 395,C
2025-03-19 18:43:00.471,673, 473, 369, -6, -2, -8, -8, 15, 44, 952, 934, 397,C
2025-03-19 18:43:00.479,662, 623, 567, -4, -7, -8, -6, 15, 45, 955, 939, 385,C
2025-03-19 18:43:00.493,658, 538, 517, -14, -11, -11, -9, 14, 45, 953, 940, 354,C
2025-03-19 18:43:00.496,723, 582, 407, -6, -7, -11, -9, 14, 45, 956, 943, 332,C
2025-03-19 18:43:00.510,664, 633, 519, -8, -8, -10, -7, 15, 44, 956, 941, 289,C
2025-03-19 18:43:00.517,685, 601, 455, -11, -9, -11, -9, 15, 44, 957, 941, 298,C
2025-03-19 18:43:00.527,617, 547, 487, -10, -11, -13, -7, 15, 45, 958, 944, 299,C
2025-03-19 18:43:00.536,646, 587, 502, -14, -11, -14, -9, 15, 44, 960, 943, 248,C
2025-03-19 18:43:00.546,574, 499, 565, -1, -10, -17, -8, 14, 44, 962, 943, 237,C
2025-03-19 18:43:00.553,545, 435, 602, 12, -14, -23, -9, 15, 44, 965, 940, 234,C
2025-03-19 18:43:00.563,567, 375, 583, 41, -10, -26, -7, 13, 44, 963, 935, 169,C
2025-03-19 18:43:00.569,537, 549, 516, 51, -4, -18, -8, 15, 45, 964, 932, 154,C
2025-03-19 18:43:00.580,596, 502, 304, 67, 12, -8, -6, 13, 47, 972, 924, 133,C
2025-03-19 18:43:00.586,658, 467, -27, 82, 33, -4, -7, 15, 46, 972, 923, 47,C
2025-03-19 18:43:00.599,769, 672, 311, 82, 44, 6, -7, 15, 46, 975, 924, 6,C
2025-03-19 18:43:00.607,761, 1223, -94, 8, 50, 21, -4, 13, 47, 976, 927, 11,C
2025-03-19 18:43:00.616,688, 476, 353, 23, 46, 29, -6, 13, 44, 976, 938, 13,C
2025-03-19 18:43:00.617,881, 837, 166, -13, 57, 57, -5, 14, 45, 978, 948, 15,C
2025-03-19 18:43:00.633,952, 774, 294, -70, 50, 66, -5, 15, 46, 978, 954, 8,C
2025-03-19 18:43:00.644,788, 100, 292, -35, 34, 47, -5, 14, 45, 978, 957, 14,C
2025-03-19 18:43:00.650,438, 769, 580, -55, 25, 45, -3, 15, 42, 976, 960, 21,C
2025-03-19 18:43:00.662,581, 531, 420, -46, 16, 34, -4, 15, 42, 976, 963, 26,C
2025-03-19 18:43:00.668,679, 412, 824, -21, -3, 22, -5, 16, 40, 975, 964, 23,C
2025-03-19 18:43:00.678,634, 522, 577, -21, -9, 16, -5, 15, 43, 972, 966, 132,C
2025-03-19 18:43:00.686,705, 493, 607, 0, -7, 14, -7, 17, 42, 972, 963, 186,C
2025-03-19 18:43:00.698,592, 508, 733, 21, -17, 8, -7, 17, 42, 967, 960, 261,C
2025-03-19 18:43:00.706,654, 373, 418, 32, -8, -1, -6, 15, 44, 960, 958, 377,C
2025-03-19 18:43:00.713,782, 288, 276, 40, 13, -26, -8, 16, 40, 954, 955, 455,C
2025-03-19 18:43:00.721,816, 372, 237, 30, 34, -46, -7, 14, 42, 951, 952, 518,C
2025-03-19 18:43:00.732,744, 581, 300, 13, 45, -50, -6, 14, 41, 949, 946, 548,C
2025-03-19 18:43:00.739,676, 676, 372, -2, 47, -44, -8, 15, 43, 945, 937, 564,C
2025-03-19 18:43:00.746,631, 665, 389, -11, 46, -37, -7, 15, 40, 942, 934, 561,C
2025-03-19 18:43:00.760,630, 615, 488, -19, 42, -32, -5, 13, 42, 940, 927, 538,C
2025-03-19 18:43:00.768,593, 591, 564, -19, 36, -29, -7, 16, 39, 937, 922, 516,C
2025-03-19 18:43:00.776,561, 598, 640, -19, 25, -26, -8, 13, 41, 937, 916, 489,C
2025-03-19 18:43:00.783,519, 614, 651, -18, 15, -22, -7, 15, 37, 937, 905, 451,C
2025-03-19 18:43:00.796,500, 629, 610, -14, 7, -16, -7, 15, 37, 937, 900, 427,C
2025-03-19 18:43:01.081,635, 576, 509, -13, -17, -3, -8, 15, 43, 931, 904, 396,D
2025-03-19 18:43:01.092,628, 571, 523, -9, -23, -1, -9, 16, 41, 933, 904, 405,D
2025-03-19 18:43:01.097,633, 575, 526, -5, -27, 0, -7, 15, 42, 933, 906, 408,D
2025-03-19 18:43:01.111,708, 525, 438, -2, -23, -2, -7, 16, 40, 933, 912, 409,D
2025-03-19 18:43:01.118,752, 527, 437, -1, -20, -7, -6, 15, 43, 936, 916, 378,D
2025-03-19 18:43:01.128,961, 510, 364, 0, -9, -15, -6, 15, 43, 937, 921, 382,D
2025-03-19 18:43:01.136,710, 673, 478, -9, -8, -12, -9, 17, 42, 940, 922, 350,D
2025-03-19 18:43:01.146,847, 619, 343, -17, -6, -7, -6, 15, 43, 943, 926, 328,D
2025-03-19 18:43:01.150,689, 560, 456, -20, -3, -7, -7, 15, 42, 944, 930, 292,D
2025-03-19 18:43:01.164,676, 496, 502, -15, -6, -9, -7, 14, 42, 948, 932, 266,D
2025-03-19 18:43:01.168,700, 469, 541, -4, -8, -11, -7, 14, 41, 952, 936, 258,D
2025-03-19 18:43:01.180,716, 484, 616, 2, -11, -13, -7, 15, 44, 957, 937, 227,D
2025-03-19 18:43:01.189,680, 452, 629, 12, -18, -17, -9, 15, 43, 961, 940, 204,D
2025-03-19 18:43:01.196,689, 356, 576, 39, -21, -22, -6, 14, 44, 965, 941, 260,D
2025-03-19 18:43:01.206,775, 484, 501, 76, -10, -9, -7, 16, 43, 969, 939, 225,D
2025-03-19 18:43:01.218,574, 633, 472, 61, 8, 0, -4, 14, 46, 972, 941, 225,D
2025-03-19 18:43:01.226,868, 922, 201, 37, 27, 27, -4, 14, 46, 973, 941, 143,D
2025-03-19 18:43:01.235,1121, 1076, 227, 0, 51, 58, -6, 15, 44, 974, 942, 17,D
2025-03-19 18:43:01.243,1229, 727, 435, -8, 60, 57, -4, 14, 46, 972, 942, 6,D
2025-03-19 18:43:01.251,1141, 552, 471, -14, 56, 54, -5, 15, 44, 974, 937, 13,D
2025-03-19 18:43:01.260,455, 830, 331, -9, 47, 46, -4, 13, 45, 972, 938, 6,D
2025-03-19 18:43:01.271,679, 586, 357, -26, 39, 42, -5, 16, 41, 971, 934, 16,D
2025-03-19 18:43:01.280,874, 717, 252, -14, 38, 39, -4, 14, 43, 970, 933, 23,D
2025-03-19 18:43:01.288,685, 643, 254, -21, 38, 36, -4, 15, 41, 969, 932, 13,D
2025-03-19 18:43:01.296,701, 586, 344, -31, 29, 29, -4, 16, 42, 964, 932, 18,D
2025-03-19 18:43:01.300,680, 526, 327, -12, 26, 21, -6, 17, 40, 962, 934, 14,D
2025-03-19 18:43:01.313,703, 619, 472, -4, 18, 13, -4, 14, 40, 954, 933, 15,D
2025-03-19 18:43:01.319,658, 362, 795, 6, -7, -14, -4, 14, 40, 952, 928, 7,D
2025-03-19 18:43:01.333,620, 167, 846, 56, -36, -33, -5, 17, 38, 946, 924, 14,D
2025-03-19 18:43:01.341,480, -27, 675, 74, -46, -66, -4, 16, 41, 941, 925, 152,D
2025-03-19 18:43:01.349,467, 199, 529, 69, -56, -84, -7, 15, 38, 940, 931, 367,D
2025-03-19 18:43:01.356,975, 670, 695, 63, -66, -76, -8, 15, 41, 944, 938, 485,D
2025-03-19 18:43:01.366,981, 742, 392, 25, -52, -54, -6, 14, 41, 951, 946, 523,D
2025-03-19 18:43:01.378,897, 915, 538, -11, -43, -26, -6, 13, 41, 956, 955, 572,D
2025-03-19 18:43:01.386,807, 614, 312, -30, -30, -10, -7, 14, 43, 962, 960, 593,D
2025-03-19 18:43:01.395,767, 374, 569, -20, -28, -9, -6, 14, 42, 963, 963, 596,D
2025-03-19 18:43:01.401,813, 448, 458, -11, -24, -5, -8, 14, 43, 972, 965, 597,D
2025-03-19 18:43:01.412,737, 671, 504, -2, -20, 6, -7, 12, 44, 975, 967, 598,D
2025-03-19 18:43:01.420,602, 604, 430, 6, -11, 5, -7, 12, 44, 975, 967, 572,D
2025-03-19 18:43:01.431,760, 855, 331, 4, 1, 18, -6, 13, 44, 976, 966, 539,D
2025-03-19 18:43:01.436,629, 879, 276, 18, 10, 24, -7, 13, 45, 978, 966, 443,D
2025-03-19 18:43:01.448,606, 809, 451, 10, 24, 32, -7, 14, 45, 978, 966, 379,D
2025-03-19 18:43:01.456,483, 798, 312, 16, 25, 24, -6, 15, 44, 979, 963, 273,D
2025-03-19 18:43:01.465,282, 931, 117, 5, 36, 33, -7, 14, 45, 978, 960, 215,D
2025-03-19 18:43:01.476,660, 645, 446, 1, 36, 31, -5, 16, 45, 976, 958, 134,D
2025-03-19 18:43:01.484,429, 900, 61, 14, 44, 38, -5, 14, 45, 977, 953, 16,D
2025-03-19 18:43:01.493,468, 431, 245, -17, 44, 24, -5, 15, 44, 974, 945, 18,D
2025-03-19 18:43:01.501,489, 459, 266, -1, 31, 17, -7, 14, 43, 970, 934, 13,D
2025-03-19 18:43:01.510,982, 427, 303, -1, 26, 10, -7, 14, 43, 967, 919, 18,D
2025-03-19 18:43:01.517,739, 508, 275, -3, 28, 9, -6, 13, 42, 960, 894, 16,D
2025-03-19 18:43:01.527,850, 460, 366, 1, 25, 8, -6, 14, 43, 956, 865, 20,D
2025-03-19 18:43:01.536,927, 475, 342, -2, 26, 3, -5, 14, 42, 948, 846, 14,D
2025-03-19 18:43:01.546,1098, 366, 342, -8, 34, -15, -5, 15, 41, 942, 835, 12,D
2025-03-19 18:43:01.553,1023, 251, 342, -1, 44, -41, -5, 16, 39, 939, 832, 32,D
2025-03-19 18:43:01.563,839, 358, 373, -4, 47, -57, -5, 13, 38, 938, 839, 45,D
2025-03-19 18:43:01.568,602, 548, 462, -12, 41, -56, -5, 15, 39, 938, 844, 71,D
2025-03-19 18:43:01.583,515, 655, 544, -18, 29, -46, -4, 13, 40, 937, 851, 87,D
2025-03-19 18:43:01.866,650, 620, 475, -12, -20, -1, -6, 15, 41, 933, 911, 465,E
2025-03-19 18:43:01.877,636, 609, 491, -11, -23, 2, -7, 14, 41, 935, 917, 488,E
2025-03-19 18:43:01.886,620, 591, 502, -10, -25, 3, -7, 14, 41, 935, 920, 489,E
2025-03-19 18:43:01.895,696, 517, 441, -4, -21, 2, -7, 13, 43, 939, 924, 490,E
2025-03-19 18:43:01.902,788, 513, 454, -18, -6, -12, -6, 13, 41, 941, 930, 460,E
2025-03-19 18:43:01.912,741, 537, 446, 2, -3, -9, -7, 14, 43, 944, 932, 459,E
2025-03-19 18:43:01.918,698, 645, 513, -6, -7, -6, -7, 14, 43, 946, 933, 438,E
2025-03-19 18:43:01.929,719, 474, 362, -8, -4, -8, -7, 15, 42, 949, 932, 401,E
2025-03-19 18:43:01.936,707, 552, 432, 4, -3, -8, -7, 14, 42, 950, 934, 401,E
2025-03-19 18:43:01.947,714, 617, 475, 3, -5, -7, -7, 14, 42, 953, 935, 398,E
2025-03-19 18:43:01.956,690, 565, 430, 1, -5, -8, -7, 14, 44, 956, 937, 388,E
2025-03-19 18:43:01.964,691, 522, 467, 5, -5, -9, -7, 13, 43, 959, 939, 384,E
2025-03-19 18:43:01.971,711, 529, 511, 12, -6, -9, -6, 14, 44, 964, 939, 378,E
2025-03-19 18:43:01.979,764, 604, 523, 15, -4, -3, -7, 13, 43, 964, 943, 374,E
2025-03-19 18:43:01.993,784, 603, 489, 17, 0, 6, -6, 15, 44, 970, 944, 265,E
2025-03-19 18:43:02.000,504, 593, 556, 23, 15, 15, -6, 14, 44, 973, 946, 235,E
2025-03-19 18:43:02.010,901, 539, 462, 36, 28, 23, -6, 14, 44, 973, 945, 110,E
2025-03-19 18:43:02.016,362, 1002, 249, -13, 44, 28, -7, 14, 43, 974, 944, 61,E
2025-03-19 18:43:02.026,100, 735, 278, 5, 53, 36, -6, 15, 45, 974, 941, 7,E
2025-03-19 18:43:02.036,952, 1676, -52, -11, 60, 48, -7, 14, 43, 976, 938, 9,E
2025-03-19 18:43:02.046,950, 934, 300, -12, 55, 61, -5, 13, 44, 976, 933, 11,E
2025-03-19 18:43:02.046,455, 492, 378, -18, 42, 48, -5, 16, 44, 975, 934, 10,E
2025-03-19 18:43:02.063,963, 531, 410, -27, 29, 37, -6, 15, 42, 972, 933, 10,E
2025-03-19 18:43:02.068,921, 462, 270, -23, 23, 29, -4, 16, 42, 973, 930, 15,E
2025-03-19 18:43:02.079,759, 556, 196, -26, 28, 25, -4, 15, 42, 971, 930, 19,E
2025-03-19 18:43:02.086,722, 609, 261, -23, 27, 19, -5, 16, 41, 967, 931, 10,E
2025-03-19 18:43:02.099,733, 718, 384, -37, 25, 14, -5, 17, 40, 963, 928, 14,E
2025-03-19 18:43:02.106,752, 453, 823, -29, -10, -5, -5, 17, 40, 960, 924, 16,E
2025-03-19 18:43:02.116,764, 44, 695, -11, -35, -38, -5, 17, 40, 950, 917, 20,E
2025-03-19 18:43:02.123,423, -61, 712, 44, -62, -74, -6, 15, 40, 950, 913, 13,E
2025-03-19 18:43:02.132,692, 51, 666, 55, -69, -86, -6, 15, 39, 948, 911, 151,E
2025-03-19 18:43:02.144,532, 563, 709, 40, -77, -83, -6, 14, 41, 951, 920, 194,E
2025-03-19 18:43:02.151,932, 696, 270, 21, -55, -63, -7, 14, 43, 953, 931, 218,E
2025-03-19 18:43:02.161,854, 794, 458, 5, -37, -39, -5, 12, 43, 957, 941, 222,E
2025-03-19 18:43:02.169,642, 802, 646, -30, -33, -22, -6, 15, 43, 962, 951, 201,E
2025-03-19 18:43:02.178,833, 319, 445, 2, -36, -21, -5, 12, 44, 964, 959, 263,E
2025-03-19 18:43:02.189,830, 445, 568, 31, -32, -19, -8, 14, 45, 971, 966, 408,E
2025-03-19 18:43:02.198,762, 666, 505, 32, -38, -11, -6, 13, 46, 973, 969, 480,E
2025-03-19 18:43:02.205,648, 771, 198, 31, -29, -4, -6, 13, 46, 976, 973, 530,E
2025-03-19 18:43:02.214,669, 795, 135, 29, -21, 5, -5, 12, 43, 975, 971, 582,E
2025-03-19 18:43:02.222,716, 947, 56, 0, -8, 20, -6, 11, 46, 978, 972, 609,E
2025-03-19 18:43:02.231,765, 542, 59, 7, 7, 20, -6, 14, 46, 976, 971, 637,E
2025-03-19 18:43:02.242,766, 782, 250, 3, 17, 29, -7, 12, 47, 976, 972, 640,E
2025-03-19 18:43:02.250,703, 578, 355, 0, 21, 28, -8, 12, 45, 975, 966, 636,E
2025-03-19 18:43:02.258,667, 678, 591, 4, 19, 30, -6, 12, 47, 972, 967, 619,E
2025-03-19 18:43:02.267,623, 613, 499, 15, 21, 34, -9, 14, 47, 969, 961, 606,E
2025-03-19 18:43:02.276,543, 677, 589, 17, 22, 30, -5, 13, 45, 967, 956, 574,E
2025-03-19 18:43:02.283,608, 465, 429, 16, 31, 11, -8, 14, 44, 963, 951, 565,E
2025-03-19 18:43:02.295,570, 256, 438, 20, 43, -17, -7, 12, 45, 960, 944, 559,E
2025-03-19 18:43:02.302,508, 392, 541, 27, 45, -29, -7, 12, 45, 959, 939, 519,E
2025-03-19 18:43:02.312,358, 659, 675, 30, 32, -19, -7, 16, 43, 956, 930, 487,E
2025-03-19 18:43:02.318,344, 781, 623, 16, 8, 2, -4, 13, 44, 956, 920, 402,E
2025-03-19 18:43:02.330,345, 758, 604, 1, -18, 16, -6, 13, 43, 956, 915, 348,E
2025-03-19 18:43:02.336,821, 550, 107, -96, -10, -32, -5, 12, 43, 963, 924, 87,E
2025-03-19 18:43:02.347,1450, -261, 293, 67, -9, -37, -8, 12, 43, 964, 938, 168,E
2025-03-19 18:43:02.357,972, 1289, 286, -11, -19, -10, -5, 12, 45, 968, 947, 187,E
2025-03-19 18:43:02.365,882, 474, -99, -9, -5, -5, -4, 13, 43, 972, 956, 291,E
2025-03-19 18:43:02.371,854, 642, 270, 8, 5, -1, -4, 13, 46, 974, 962, 399,E
2025-03-19 18:43:02.381,953, 1175, 318, -33, 10, 28, -4, 13, 44, 978, 967, 408,E
2025-03-19 18:43:02.393,980, 705, 268, -31, 9, 40, -5, 13, 46, 981, 969, 363,E
2025-03-19 18:43:02.401,848, 625, 261, -24, 17, 43, -5, 13, 46, 980, 970, 318,E
2025-03-19 18:43:02.411,676, 331, 485, -7, 13, 35, -6, 15, 46, 979, 971, 368,E
2025-03-19 18:43:02.417,557, 552, 441, 2, 18, 27, -7, 13, 44, 976, 970, 369,E
2025-03-19 18:43:02.427,568, 748, 520, 5, 18, 29, -7, 15, 45, 975, 968, 353,E
2025-03-19 18:43:02.433,429, 601, 571, -3, 21, 33, -6, 14, 45, 973, 963, 315,E
2025-03-19 18:43:02.447,535, 670, 512, 13, 29, 30, -7, 15, 43, 969, 955, 232,E
2025-03-19 18:43:02.451,528, 584, 429, 2, 42, 25, -5, 15, 44, 965, 941, 78,E
2025-03-19 18:43:02.464,515, 323, 481, 16, 48, 0, -6, 12, 44, 962, 928, 41,E
2025-03-19 18:43:02.469,491, 315, 498, 36, 47, -20, -7, 14, 43, 959, 910, 74,E
2025-03-19 18:43:02.480,522, 479, 540, 45, 36, -21, -5, 14, 42, 958, 881, 56,E
2025-03-19 18:43:02.486,468, 693, 554, 20, 18, -10, -5, 14, 42, 955, 843, 9,E
2025-03-19 18:43:02.496,424, 745, 520, -7, -3, 4, -4, 12, 41, 956, 813, 14,E
2025-03-19 18:43:02.508,1166, 445, -18, -60, 7, -30, -4, 12, 41, 956, 823, 13,E
2025-03-19 18:43:02.517,1081, 218, 261, 52, 9, -30, -3, 14, 41, 957, 870, 16,E
2025-03-19 18:43:02.525,985, 996, 386, 14, -4, -11, -3, 13, 42, 962, 912, 5,E
2025-03-19 18:43:02.528,880, 657, 58, 6, 4, -3, -5, 14, 42, 964, 934, 11,E
2025-03-19 18:43:02.541,894, 673, 267, 15, 7, 4, -4, 14, 42, 967, 946, 10,E
2025-03-19 18:43:02.549,843, 881, 502, -17, 0, 19, -4, 14, 41, 969, 953, 13,E
2025-03-19 18:43:02.562,686, 770, 244, -33, 6, 27, -4, 15, 41, 973, 955, 15,E
2025-03-19 18:43:02.569,663, 590, 363, -30, 4, 29, -5, 14, 40, 969, 957, 0,E
2025-03-19 18:43:02.578,663, 674, 412, -29, 8, 32, -5, 14, 40, 968, 958, 15,E
2025-03-19 18:43:02.586,630, 556, 581, -26, 7, 28, -5, 14, 41, 963, 954, 88,E
2025-03-19 18:43:02.595,746, 666, 574, -18, 5, 31, -4, 14, 41, 963, 951, 157,E
2025-03-19 18:43:02.599,643, 465, 461, -26, 8, 15, -3, 13, 40, 959, 945, 133,E
2025-03-19 18:43:02.615,814, 227, 319, -10, 24, -18, -7, 15, 42, 957, 939, 174,E
2025-03-19 18:43:02.619,803, 349, 294, 0, 38, -42, -6, 14, 41, 950, 932, 166,E
2025-03-19 18:43:02.630,690, 545, 322, -1, 44, -47, -6, 14, 39, 948, 921, 121,E
2025-03-19 18:43:02.640,599, 578, 352, -10, 43, -47, -6, 14, 39, 943, 910, 123,E
2025-03-19 18:43:02.648,545, 587, 432, -11, 39, -45, -6, 15, 37, 945, 899, 168,E
2025-03-19 18:43:02.916,670, 596, 428, -9, -2, -1, -6, 13, 41, 931, 843, 371,F
2025-03-19 18:43:02.926,682, 612, 444, -13, -4, -1, -6, 13, 41, 933, 849, 371,F
2025-03-19 18:43:02.935,680, 615, 445, -13, -4, -1, -7, 13, 42, 934, 855, 373,F
2025-03-19 18:43:02.943,672, 611, 451, -12, -6, -2, -6, 13, 41, 933, 858, 377,F
2025-03-19 18:43:02.950,650, 601, 447, -8, -7, -2, -9, 12, 43, 933, 863, 393,F
2025-03-19 18:43:02.960,654, 614, 455, -7, -10, -3, -6, 14, 42, 934, 866, 415,F
2025-03-19 18:43:02.967,664, 613, 439, -9, -13, -3, -6, 14, 42, 933, 872, 440,F
2025-03-19 18:43:02.977,663, 614, 418, -11, -16, -5, -6, 13, 41, 933, 876, 460,F
2025-03-19 18:43:02.987,666, 605, 423, -12, -17, -6, -4, 12, 43, 932, 879, 474,F
2025-03-19 18:43:02.996,672, 606, 444, -12, -19, -7, -7, 14, 43, 932, 883, 487,F
2025-03-19 18:43:03.004,667, 620, 441, -17, -21, -7, -6, 14, 40, 930, 890, 509,F
2025-03-19 18:43:03.013,666, 584, 411, -21, -22, -8, -7, 14, 42, 929, 899, 519,F
2025-03-19 18:43:03.018,667, 570, 421, -17, -23, -8, -6, 12, 42, 932, 907, 544,F
2025-03-19 18:43:03.032,662, 580, 446, -15, -23, -8, -8, 15, 43, 935, 912, 532,F
2025-03-19 18:43:03.041,1001, 401, 319, -24, -13, -18, -6, 12, 42, 938, 921, 524,F
2025-03-19 18:43:03.049,678, 677, 506, -9, -8, -15, -7, 12, 42, 943, 930, 521,F
2025-03-19 18:43:03.058,720, 683, 484, -22, -10, -10, -6, 13, 43, 951, 937, 463,F
2025-03-19 18:43:03.066,775, 520, 431, -12, -8, -7, -6, 13, 43, 953, 939, 420,F
2025-03-19 18:43:03.078,693, 504, 583, -3, -9, -8, -7, 15, 44, 957, 941, 408,F
2025-03-19 18:43:03.086,689, 393, 591, 9, -15, -14, -7, 13, 44, 962, 942, 403,F
2025-03-19 18:43:03.095,704, 340, 603, 37, -17, -18, -7, 13, 43, 964, 943, 454,F
2025-03-19 18:43:03.102,772, 481, 597, 59, -8, -10, -6, 12, 46, 970, 942, 441,F
2025-03-19 18:43:03.112,722, 648, 481, 68, 16, 12, -6, 12, 44, 971, 945, 359,F
2025-03-19 18:43:03.117,390, 1192, 110, 16, 45, 33, -5, 13, 45, 973, 942, 211,F
2025-03-19 18:43:03.130,476, 574, 340, 37, 65, 59, -5, 13, 44, 976, 941, 96,F
2025-03-19 18:43:03.138,1089, 390, 618, 5, 63, 57, -4, 12, 46, 976, 939, 6,F
2025-03-19 18:43:03.146,449, 930, 303, -9, 53, 50, -4, 13, 43, 978, 938, 10,F
2025-03-19 18:43:03.156,741, 620, 154, -19, 44, 43, -3, 12, 44, 975, 937, 2,F
2025-03-19 18:43:03.164,792, 678, 221, -31, 40, 45, -3, 12, 44, 976, 937, 17,F
2025-03-19 18:43:03.176,832, 718, 12, -36, 36, 38, -5, 14, 43, 973, 930, 13,F
2025-03-19 18:43:03.183,716, 436, 340, -45, 28, 24, -4, 15, 45, 969, 926, 13,F
2025-03-19 18:43:03.192,661, 682, 197, -49, 28, 20, -5, 16, 42, 963, 924, 17,F
2025-03-19 18:43:03.201,715, 731, 375, -62, 25, 13, -4, 14, 42, 963, 916, 20,F
2025-03-19 18:43:03.209,678, 282, 953, -39, -15, -14, -6, 17, 42, 956, 902, 20,F
2025-03-19 18:43:03.218,609, 3, 593, 0, -34, -46, -6, 15, 42, 951, 889, 18,F
2025-03-19 18:43:03.229,497, 13, 766, 33, -54, -67, -6, 16, 41, 947, 894, 19,F
2025-03-19 18:43:03.237,576, 237, 680, 35, -65, -80, -6, 14, 42, 949, 900, 27,F
2025-03-19 18:43:03.246,951, 462, 343, 52, -60, -74, -5, 15, 40, 952, 920, 144,F
2025-03-19 18:43:03.252,644, 774, 561, 51, -53, -54, -6, 13, 43, 955, 936, 367,F
2025-03-19 18:43:03.264,867, 785, 402, 8, -33, -34, -6, 13, 43, 959, 949, 449,F
2025-03-19 18:43:03.270,941, 662, 750, -4, -42, -18, -9, 14, 42, 962, 958, 501,F
2025-03-19 18:43:03.282,786, 448, 507, 14, -40, -13, -5, 11, 44, 970, 964, 543,F
2025-03-19 18:43:03.291,1040, 500, 555, 33, -51, -5, -6, 14, 44, 972, 971, 600,F
2025-03-19 18:43:03.299,667, 603, 128, 37, -35, -5, -5, 12, 46, 975, 970, 669,F
2025-03-19 18:43:03.308,577, 1010, 91, 24, -20, 9, -7, 13, 46, 975, 973, 688,F
2025-03-19 18:43:03.316,781, 1012, 75, 0, -2, 28, -6, 11, 48, 975, 971, 688,F
2025-03-19 18:43:03.324,602, 694, 170, -1, 17, 35, -7, 11, 46, 976, 972, 682,F
2025-03-19 18:43:03.336,533, 833, 342, -4, 25, 39, -5, 11, 47, 975, 969, 664,F
2025-03-19 18:43:03.345,681, 522, 392, 5, 31, 37, -8, 14, 46, 972, 966, 648,F
2025-03-19 18:43:03.349,634, 667, 584, 27, 29, 32, -8, 11, 47, 969, 963, 629,F
2025-03-19 18:43:03.362,492, 709, 521, 16, 33, 32, -8, 11, 47, 968, 954, 571,F
2025-03-19 18:43:03.368,522, 389, 427, 9, 42, 5, -7, 15, 47, 964, 946, 525,F
2025-03-19 18:43:03.380,515, 263, 429, 24, 53, -25, -6, 12, 46, 960, 937, 531,F
2025-03-19 18:43:03.386,373, 477, 593, 42, 50, -30, -8, 13, 43, 958, 926, 521,F
2025-03-19 18:43:03.397,311, 752, 675, 36, 31, -12, -5, 12, 44, 958, 915, 459,F
2025-03-19 18:43:03.402,255, 854, 679, 7, 2, 12, -6, 11, 43, 955, 896, 325,F
2025-03-19 18:43:03.412,347, 640, 547, -30, -23, 18, -5, 11, 44, 960, 883, 17,F
2025-03-19 18:43:03.422,715, -944, 125, 36, -1, -42, -5, 11, 43, 964, 908, 22,F
2025-03-19 18:43:03.428,1229, 985, 550, 20, -14, -25, -4, 12, 44, 966, 929, 63,F
2025-03-19 18:43:03.442,1103, 985, -132, -47, -12, -1, -4, 12, 45, 968, 942, 9,F
2025-03-19 18:43:03.450,924, 367, 0, 3, 5, -2, -3, 12, 44, 975, 952, 153,F
2025-03-19 18:43:03.459,740, 681, 266, 8, 8, 2, -3, 12, 44, 976, 961, 270,F
2025-03-19 18:43:03.466,975, 928, 442, -12, 3, 26, -5, 12, 44, 974, 963, 255,F
2025-03-19 18:43:03.475,933, 750, 191, -23, 8, 37, -5, 11, 45, 973, 965, 241,F
2025-03-19 18:43:03.483,737, 693, 451, -24, 5, 37, -5, 12, 43, 971, 961, 259,F
2025-03-19 18:43:03.495,614, 353, 353, -16, 4, 27, -5, 13, 44, 971, 961, 375,F
2025-03-19 18:43:03.501,595, 682, 655, 3, 3, 22, -5, 14, 43, 966, 959, 398,F
2025-03-19 18:43:03.513,757, 594, 461, -9, 12, 10, -7, 13, 43, 966, 950, 402,F
2025-03-19 18:43:03.519,844, 287, 193, -4, 36, -25, -7, 11, 43, 961, 948, 426,F
2025-03-19 18:43:03.529,753, 435, 156, 2, 50, -47, -6, 13, 43, 957, 944, 521,F
2025-03-19 18:43:03.538,617, 658, 296, -4, 57, -48, -6, 13, 44, 953, 935, 546,F
2025-03-19 18:43:03.549,500, 670, 397, -5, 51, -41, -6, 13, 44, 951, 925, 561,F
2025-03-19 18:43:03.557,470, 615, 452, -7, 42, -35, -5, 14, 43, 948, 914, 561,F
2025-03-19 18:43:03.826,686, 632, 398, -12, 2, 0, -7, 12, 42, 929, 848, 462,G
2025-03-19 18:43:03.839,684, 619, 410, -13, 2, 1, -5, 13, 43, 930, 851, 453,G
2025-03-19 18:43:03.846,649, 619, 439, -11, 2, 5, -7, 11, 41, 931, 853, 455,G
2025-03-19 18:43:03.856,638, 620, 478, -8, 1, 7, -6, 12, 43, 931, 860, 449,G
2025-03-19 18:43:03.863,654, 630, 470, -8, -1, 8, -6, 14, 42, 930, 859, 447,G
2025-03-19 18:43:03.871,665, 610, 447, -6, -3, 8, -6, 12, 43, 931, 859, 442,G
2025-03-19 18:43:03.880,667, 590, 422, -3, -4, 7, -6, 13, 41, 931, 861, 433,G
2025-03-19 18:43:03.888,686, 598, 407, 0, -4, 6, -6, 11, 41, 934, 860, 432,G
2025-03-19 18:43:03.901,692, 606, 397, 0, -4, 6, -6, 11, 41, 932, 861, 436,G
2025-03-19 18:43:03.909,708, 623, 391, -5, -4, 5, -6, 14, 41, 933, 861, 414,G
2025-03-19 18:43:03.917,718, 604, 384, -7, -5, 3, -5, 12, 43, 932, 863, 409,G
2025-03-19 18:43:03.926,720, 592, 385, -7, -4, 0, -6, 12, 42, 933, 863, 402,G
2025-03-19 18:43:03.933,721, 587, 380, -7, -3, -2, -6, 13, 43, 933, 865, 409,G
2025-03-19 18:43:03.944,696, 617, 404, -9, -4, -3, -8, 14, 40, 932, 872, 424,G
2025-03-19 18:43:03.951,691, 617, 414, -11, -5, -2, -5, 12, 44, 934, 879, 437,G
2025-03-19 18:43:03.962,679, 612, 417, -11, -5, -1, -7, 13, 43, 934, 885, 441,G
2025-03-19 18:43:03.969,687, 616, 430, -11, -6, 0, -6, 13, 44, 937, 891, 447,G
2025-03-19 18:43:03.979,694, 596, 440, -11, -7, 1, -7, 13, 42, 936, 892, 460,G
2025-03-19 18:43:03.986,701, 591, 448, -9, -7, 2, -7, 13, 42, 935, 895, 472,G
2025-03-19 18:43:03.996,699, 586, 438, -6, -6, 2, -6, 11, 43, 935, 898, 479,G
2025-03-19 18:43:04.006,695, 592, 433, -6, -6, 3, -6, 14, 41, 936, 899, 483,G
2025-03-19 18:43:04.016,676, 604, 433, -5, -7, 4, -7, 14, 44, 936, 902, 490,G
2025-03-19 18:43:04.022,663, 625, 435, -6, -9, 5, -6, 13, 43, 939, 904, 478,G
2025-03-19 18:43:04.032,659, 625, 450, -6, -12, 7, -8, 12, 43, 940, 906, 481,G
2025-03-19 18:43:04.040,631, 622, 446, -7, -15, 9, -7, 11, 44, 940, 913, 457,G
2025-03-19 18:43:04.048,655, 565, 438, -1, -15, 8, -8, 14, 43, 941, 919, 460,G
2025-03-19 18:43:04.057,648, 600, 462, -3, -15, 6, -6, 13, 44, 951, 925, 349,G
2025-03-19 18:43:04.066,896, 370, 309, -4, -8, -8, -6, 14, 43, 953, 930, 358,G
2025-03-19 18:43:04.077,661, 759, 449, -12, -8, -6, -6, 14, 43, 955, 935, 305,G
2025-03-19 18:43:04.086,689, 709, 348, -31, -7, -3, -6, 14, 42, 955, 936, 246,G
2025-03-19 18:43:04.094,614, 561, 335, -28, -3, -7, -6, 13, 43, 959, 942, 239,G
2025-03-19 18:43:04.100,708, 536, 409, -12, -2, -9, -7, 14, 43, 958, 944, 189,G
2025-03-19 18:43:04.111,738, 613, 537, -12, -4, -9, -6, 15, 44, 959, 942, 179,G
2025-03-19 18:43:04.121,802, 498, 572, -7, -6, -11, -6, 13, 45, 959, 943, 181,G
2025-03-19 18:43:04.131,604, 453, 609, 3, -9, -17, -6, 15, 44, 961, 942, 135,G
2025-03-19 18:43:04.139,898, 476, 541, 19, -11, -18, -6, 13, 43, 965, 939, 161,G
2025-03-19 18:43:04.146,690, 390, 552, 30, -10, -20, -6, 12, 44, 966, 936, 204,G
2025-03-19 18:43:04.154,426, 508, 292, 51, 2, -21, -6, 13, 46, 967, 934, 200,G
2025-03-19 18:43:04.163,865, 773, 190, 64, 19, -8, -5, 14, 45, 970, 932, 167,G
2025-03-19 18:43:04.174,727, 952, 138, 42, 23, 1, -5, 14, 45, 971, 929, 142,G
2025-03-19 18:43:04.182,1044, 821, -243, 37, 45, 30, -5, 12, 47, 973, 931, 13,G
2025-03-19 18:43:04.192,1111, 925, 448, -8, 48, 42, -4, 13, 46, 976, 933, 13,G
2025-03-19 18:43:04.197,871, 703, 171, -25, 42, 38, -5, 12, 46, 973, 937, 10,G
2025-03-19 18:43:04.209,892, 889, 75, -26, 48, 55, -5, 13, 44, 975, 944, 14,G
2025-03-19 18:43:04.217,427, 1006, 50, -81, 54, 64, -4, 12, 45, 974, 949, 11,G
2025-03-19 18:43:04.228,716, 386, 436, -66, 42, 50, -5, 15, 43, 977, 953, 11,G
2025-03-19 18:43:04.236,739, 375, 387, -38, 35, 35, -4, 14, 42, 976, 954, 6,G
2025-03-19 18:43:04.245,832, 599, 546, -41, 21, 29, -5, 17, 41, 976, 962, 5,G
2025-03-19 18:43:04.250,627, 567, 661, -44, 7, 24, -4, 15, 42, 976, 961, 2,G
2025-03-19 18:43:04.262,550, 424, 651, -33, -6, 11, -4, 15, 42, 975, 962, 0,G
2025-03-19 18:43:04.267,586, 430, 539, -17, -11, 1, -6, 17, 41, 970, 960, 12,G
2025-03-19 18:43:04.282,562, 537, 551, -7, -13, -6, -4, 14, 43, 967, 962, 19,G
2025-03-19 18:43:04.289,665, 302, 595, 7, -20, -22, -6, 15, 40, 964, 958, 17,G
2025-03-19 18:43:04.298,488, 250, 593, 22, -30, -38, -4, 14, 41, 963, 955, 19,G
2025-03-19 18:43:04.306,875, 484, 481, 40, -32, -37, -7, 16, 41, 961, 954, 156,G
2025-03-19 18:43:04.314,813, 602, 531, 22, -26, -28, -5, 14, 43, 961, 950, 183,G
2025-03-19 18:43:04.327,716, 575, 416, 22, -18, -17, -7, 15, 41, 960, 953, 187,G
2025-03-19 18:43:04.333,744, 629, 508, 12, -7, -10, -4, 14, 44, 964, 953, 182,G
2025-03-19 18:43:04.344,708, 430, 561, 8, -8, -10, -7, 16, 42, 970, 954, 188,G
2025-03-19 18:43:04.349,791, 522, 474, 19, -2, -5, -6, 13, 43, 973, 956, 177,G
2025-03-19 18:43:04.361,734, 1017, 335, 1, 13, 19, -6, 13, 43, 974, 957, 49,G
2025-03-19 18:43:04.368,635, 915, 382, -8, 26, 35, -6, 15, 42, 975, 957, 64,G
2025-03-19 18:43:04.377,624, 836, 295, -20, 33, 39, -4, 13, 44, 972, 958, 4,G
2025-03-19 18:43:04.388,616, 650, 246, -36, 29, 33, -5, 16, 42, 977, 957, 11,G
2025-03-19 18:43:04.397,758, 524, 337, -7, 27, 30, -4, 15, 43, 975, 956, 6,G
2025-03-19 18:43:04.405,775, 747, 293, -34, 22, 30, -4, 16, 42, 972, 951, 13,G
2025-03-19 18:43:04.413,748, 443, 355, -25, 17, 18, -5, 13, 42, 969, 945, 11,G
2025-03-19 18:43:04.421,665, 592, 404, -24, 12, 12, -5, 16, 41, 969, 941, 20,G
2025-03-19 18:43:04.430,608, 412, 583, -34, 1, -10, -3, 15, 41, 966, 935, 12,G
2025-03-19 18:43:04.442,687, 85, 499, -15, -1, -44, -6, 16, 40, 962, 927, 10,G
2025-03-19 18:43:04.450,584, 230, 521, 20, -1, -65, -6, 16, 40, 956, 918, 15,G
2025-03-19 18:43:04.458,480, 567, 618, 25, -4, -62, -5, 15, 41, 953, 908, 10,G
2025-03-19 18:43:04.467,360, 786, 716, -2, -18, -37, -5, 15, 40, 951, 898, 16,G
2025-03-19 18:43:04.475,409, 737, 768, 3, -42, -3, -6, 15, 41, 952, 904, 17,G
2025-03-19 18:43:04.483,682, 519, 622, 17, -59, 12, -5, 14, 41, 958, 928, 23,G
2025-03-19 18:43:04.495,815, -116, 481, 48, -6, -29, -4, 15, 42, 961, 941, 14,G
2025-03-19 18:43:04.499,812, 1107, 733, 12, -24, -9, -4, 17, 40, 967, 951, 16,G
2025-03-19 18:43:04.511,884, 360, 141, 20, -20, -6, -4, 14, 41, 970, 957, 83,G
2025-03-19 18:43:04.516,805, 609, 289, 40, -11, -4, -5, 14, 42, 974, 961, 131,G
2025-03-19 18:43:04.528,952, 1110, 192, 0, -7, 21, -5, 14, 43, 972, 964, 118,G
2025-03-19 18:43:04.536,697, 682, 130, -2, 5, 28, -6, 15, 45, 976, 965, 95,G
2025-03-19 18:43:04.548,729, 812, 299, -15, 12, 44, -6, 15, 45, 974, 964, 81,G
2025-03-19 18:43:04.556,766, 465, 387, -24, 18, 39, -6, 15, 42, 973, 962, 63,G
2025-03-19 18:43:04.563,697, 416, 489, -3, 14, 30, -6, 14, 43, 968, 961, 59,G
2025-03-19 18:43:04.566,655, 625, 591, -14, 10, 25, -5, 16, 41, 968, 957, 63,G
2025-03-19 18:43:04.581,760, 290, 449, -11, 22, -2, -7, 15, 41, 961, 952, 57,G
2025-03-19 18:43:04.589,801, 211, 335, 4, 37, -35, -7, 16, 40, 960, 940, 56,G
2025-03-19 18:43:04.599,657, 477, 414, 11, 41, -48, -7, 16, 41, 952, 932, 59,G
2025-03-19 18:43:04.609,545, 626, 413, 11, 38, -45, -7, 15, 42, 946, 918, 61,G
2025-03-19 18:43:04.858,698, 617, 394, -4, 0, -1, -7, 13, 42, 918, 816, 403,H
2025-03-19 18:43:04.876,690, 614, 396, -6, 1, -2, -6, 12, 43, 919, 816, 393,H
2025-03-19 18:43:04.880,690, 609, 400, -6, 1, -2, -8, 13, 41, 917, 810, 382,H
2025-03-19 18:43:04.892,686, 607, 416, -8, 1, -3, -5, 13, 42, 920, 810, 373,H
2025-03-19 18:43:04.901,686, 614, 434, -8, 1, -4, -6, 13, 41, 919, 811, 367,H
2025-03-19 18:43:04.909,673, 612, 440, -9, 0, -3, -6, 13, 41, 920, 808, 351,H
2025-03-19 18:43:04.916,663, 607, 441, -10, -2, -3, -5, 11, 43, 919, 809, 357,H
2025-03-19 18:43:04.926,660, 604, 454, -10, -3, -3, -7, 14, 42, 919, 813, 363,H
2025-03-19 18:43:04.936,667, 610, 443, -11, -5, -3, -6, 13, 42, 920, 821, 373,H
2025-03-19 18:43:04.945,669, 604, 437, -11, -7, -5, -8, 13, 39, 920, 824, 378,H
2025-03-19 18:43:04.946,667, 606, 425, -12, -10, -7, -7, 14, 43, 921, 831, 411,H
2025-03-19 18:43:04.962,662, 622, 436, -14, -12, -7, -7, 13, 40, 923, 839, 417,H
2025-03-19 18:43:04.967,644, 634, 444, -16, -14, -6, -5, 14, 43, 924, 849, 426,H
2025-03-19 18:43:04.977,626, 622, 454, -18, -18, -5, -6, 14, 42, 921, 859, 438,H
2025-03-19 18:43:04.986,620, 607, 461, -17, -22, -3, -6, 13, 43, 923, 871, 459,H
2025-03-19 18:43:04.998,634, 598, 486, -12, -26, 0, -7, 12, 42, 927, 878, 488,H
2025-03-19 18:43:05.008,642, 607, 488, -9, -29, 3, -7, 12, 42, 923, 887, 497,H
2025-03-19 18:43:05.015,698, 541, 418, -10, -26, 1, -7, 14, 42, 927, 898, 513,H
2025-03-19 18:43:05.024,1543, 398, 191, -26, -7, -13, -6, 13, 42, 929, 908, 486,H
2025-03-19 18:43:05.032,676, 687, 471, 0, -6, -10, -6, 13, 44, 934, 914, 498,H
2025-03-19 18:43:05.044,706, 644, 442, -14, -9, -6, -6, 12, 42, 940, 919, 469,H
2025-03-19 18:43:05.050,704, 437, 346, -6, -4, -9, -7, 13, 43, 942, 926, 467,H
2025-03-19 18:43:05.060,723, 543, 505, 10, -2, -9, -6, 13, 42, 949, 928, 467,H
2025-03-19 18:43:05.067,672, 590, 568, 4, -7, -8, -7, 14, 43, 952, 933, 460,H
2025-03-19 18:43:05.077,687, 502, 495, 13, -11, -11, -6, 12, 43, 956, 930, 460,H
2025-03-19 18:43:05.082,726, 514, 522, 28, -9, -9, -7, 12, 44, 963, 934, 465,H
2025-03-19 18:43:05.096,752, 601, 504, 36, -3, -1, -7, 12, 44, 966, 931, 428,H
2025-03-19 18:43:05.101,742, 653, 373, 46, 16, 21, -6, 13, 44, 965, 934, 269,H
2025-03-19 18:43:05.114,645, 627, 504, 38, 37, 38, -6, 13, 44, 968, 934, 145,H
2025-03-19 18:43:05.121,1067, 601, 598, 26, 47, 42, -6, 14, 44, 972, 936, 20,H
2025-03-19 18:43:05.130,895, 659, 411, 0, 48, 44, -5, 13, 44, 971, 931, 10,H
2025-03-19 18:43:05.142,597, 1052, 176, -6, 52, 52, -6, 13, 46, 975, 929, 13,H
2025-03-19 18:43:05.150,757, 730, 393, -10, 40, 45, -5, 16, 43, 970, 924, 0,H
2025-03-19 18:43:05.159,814, 726, 209, -18, 29, 38, -4, 12, 45, 971, 920, 10,H
2025-03-19 18:43:05.167,753, 774, 122, -38, 26, 34, -4, 14, 44, 970, 915, 9,H
2025-03-19 18:43:05.175,676, 629, 124, -49, 30, 30, -5, 14, 44, 969, 906, 5,H
2025-03-19 18:43:05.182,682, 537, 322, -54, 25, 20, -3, 16, 43, 965, 888, 17,H
2025-03-19 18:43:05.194,675, 585, 347, -50, 24, 13, -3, 16, 43, 959, 871, 12,H
2025-03-19 18:43:05.199,679, 475, 645, -50, 12, 1, -4, 16, 42, 952, 850, 17,H
2025-03-19 18:43:05.212,478, 269, 733, -19, -9, -23, -5, 16, 41, 949, 837, 15,H
2025-03-19 18:43:05.217,570, 117, 650, 18, -26, -42, -4, 14, 42, 943, 845, 16,H
2025-03-19 18:43:05.228,872, 264, 618, 48, -34, -49, -6, 16, 41, 945, 857, 19,H
2025-03-19 18:43:05.236,784, 432, 555, 53, -37, -44, -5, 14, 41, 946, 883, 18,H
2025-03-19 18:43:05.248,734, 677, 394, 39, -26, -34, -5, 14, 42, 949, 914, 17,H
2025-03-19 18:43:05.256,921, 702, 423, 34, -21, -18, -3, 11, 43, 957, 933, 46,H
2025-03-19 18:43:05.262,818, 611, 492, 26, -22, -8, -6, 16, 42, 965, 945, 196,H
2025-03-19 18:43:05.274,1170, 623, 555, 17, -28, 7, -4, 13, 44, 970, 960, 189,H
2025-03-19 18:43:05.282,801, 745, 360, 11, -23, 18, -7, 15, 43, 970, 960, 256,H
2025-03-19 18:43:05.291,828, 1031, 104, -14, -8, 33, -7, 15, 43, 973, 966, 205,H
2025-03-19 18:43:05.302,700, 902, -51, -37, 7, 49, -6, 13, 43, 970, 966, 166,H
2025-03-19 18:43:05.310,502, 481, 260, -20, 14, 45, -8, 13, 44, 972, 964, 178,H
2025-03-19 18:43:05.317,710, 677, 315, -27, 15, 46, -6, 14, 45, 973, 967, 184,H
2025-03-19 18:43:05.327,620, 592, 423, -29, 16, 35, -8, 14, 43, 969, 964, 175,H
2025-03-19 18:43:05.333,765, 190, 363, -19, 24, -2, -4, 13, 44, 969, 962, 188,H
2025-03-19 18:43:05.344,771, 162, 344, -16, 35, -44, -5, 15, 43, 967, 961, 197,H
2025-03-19 18:43:05.351,601, 439, 442, -20, 31, -63, -8, 14, 44, 964, 961, 251,H
2025-03-19 18:43:05.363,360, 644, 638, -18, 13, -56, -7, 16, 41, 961, 959, 325,H
2025-03-19 18:43:05.368,245, 594, 656, -8, -2, -40, -7, 14, 41, 961, 956, 387,H
2025-03-19 18:43:05.379,269, 601, 740, 2, -15, -25, -9, 15, 41, 963, 954, 406,H
2025-03-19 18:43:05.386,294, 625, 840, 1, -24, -14, -9, 15, 41, 965, 948, 418,H
2025-03-19 18:43:05.400,386, 572, 854, 12, -42, -2, -8, 13, 42, 963, 943, 419,H
2025-03-19 18:43:05.409,542, 611, 800, 18, -57, 17, -9, 13, 41, 964, 944, 433,H
2025-03-19 18:43:05.416,667, 645, 670, 34, -65, 34, -6, 14, 45, 967, 946, 186,H
2025-03-19 18:43:05.426,3540, -381, 10, 57, -21, -40, -7, 14, 43, 968, 951, 317,H
2025-03-19 18:43:05.433,818, 1792, 405, 52, -8, 9, -7, 14, 45, 969, 951, 254,H
2025-03-19 18:43:05.443,1005, 711, -145, -1, 3, 25, -6, 14, 43, 973, 955, 189,H
2025-03-19 18:43:05.450,765, 468, 126, 23, 20, 15, -5, 14, 47, 975, 956, 147,H
2025-03-19 18:43:05.462,814, 992, 58, 1, 37, 33, -7, 15, 45, 975, 950, 31,H
2025-03-19 18:43:05.470,757, 485, 115, 10, 35, 31, -5, 12, 45, 975, 950, 118,H
2025-03-19 18:43:05.478,808, 986, 323, -28, 41, 40, -6, 13, 45, 971, 948, 23,H
2025-03-19 18:43:05.486,740, 703, 449, -19, 36, 43, -6, 13, 45, 972, 944, 22,H
2025-03-19 18:43:05.495,716, 510, 481, -9, 25, 36, -5, 14, 42, 967, 940, 14,H
2025-03-19 18:43:05.776,690, 586, 429, 3, -1, 0, -5, 12, 44, 926, 839, 367,I
2025-03-19 18:43:05.786,697, 614, 414, 0, -1, 0, -7, 15, 42, 924, 837, 375,I
2025-03-19 18:43:05.796,696, 622, 405, -2, -1, 0, -6, 11, 43, 924, 838, 378,I
2025-03-19 18:43:05.803,696, 616, 408, -2, -1, -1, -7, 14, 42, 921, 837, 390,I
2025-03-19 18:43:05.814,701, 607, 408, -4, 0, -2, -5, 13, 44, 920, 833, 382,I
2025-03-19 18:43:05.819,687, 596, 419, -5, 1, -3, -6, 13, 41, 919, 828, 359,I
2025-03-19 18:43:05.829,686, 581, 443, -3, 1, -3, -6, 11, 44, 918, 829, 314,I
2025-03-19 18:43:05.838,669, 592, 448, -8, 1, -4, -6, 11, 44, 920, 829, 252,I
2025-03-19 18:43:05.846,669, 600, 449, -10, -1, -5, -7, 14, 41, 917, 831, 262,I
2025-03-19 18:43:05.859,668, 586, 434, -9, -2, -7, -6, 13, 42, 919, 827, 249,I
2025-03-19 18:43:05.867,675, 592, 422, -10, -2, -8, -7, 14, 42, 920, 825, 198,I
2025-03-19 18:43:05.876,672, 602, 415, -13, -1, -9, -5, 12, 42, 915, 826, 175,I
2025-03-19 18:43:05.883,683, 604, 410, -16, 0, -10, -7, 14, 41, 915, 824, 164,I
2025-03-19 18:43:05.893,673, 603, 399, -16, 1, -11, -6, 12, 43, 914, 817, 158,I
2025-03-19 18:43:05.900,656, 606, 418, -16, 1, -12, -6, 13, 42, 912, 818, 161,I
2025-03-19 18:43:05.912,653, 613, 440, -16, 1, -12, -6, 12, 43, 910, 816, 163,I
2025-03-19 18:43:05.917,649, 614, 455, -15, 0, -12, -8, 15, 43, 910, 812, 156,I
2025-03-19 18:43:05.927,624, 612, 473, -15, -2, -12, -8, 15, 43, 908, 808, 161,I
2025-03-19 18:43:05.936,605, 608, 480, -12, -6, -10, -7, 13, 42, 903, 807, 162,I
2025-03-19 18:43:05.946,588, 600, 493, -7, -11, -9, -6, 15, 41, 901, 809, 169,I
2025-03-19 18:43:05.952,561, 600, 522, -1, -20, -6, -6, 12, 41, 903, 814, 166,I
2025-03-19 18:43:05.965,628, 570, 479, 3, -25, -5, -7, 14, 42, 903, 833, 112,I
2025-03-19 18:43:05.973,1671, 401, 159, -6, -10, -27, -7, 13, 42, 915, 850, 16,I
2025-03-19 18:43:05.978,918, 545, 548, 21, -10, -30, -7, 14, 44, 924, 866, 16,I
2025-03-19 18:43:05.989,872, 727, 623, 0, -18, -22, -5, 12, 45, 939, 882, 12,I
2025-03-19 18:43:05.998,685, 569, 347, -1, -16, -19, -6, 13, 42, 948, 896, 11,I
2025-03-19 18:43:06.007,925, 387, 276, 43, -11, -16, -7, 13, 43, 958, 927, 6,I
2025-03-19 18:43:06.016,930, 477, 585, 54, -22, -15, -5, 12, 44, 967, 940, 157,I
2025-03-19 18:43:06.027,1067, 1065, 546, -8, -41, 10, -5, 12, 44, 973, 951, 258,I
2025-03-19 18:43:06.034,1070, 1256, 249, -29, -38, 42, -5, 13, 45, 972, 960, 283,I
2025-03-19 18:43:06.044,808, 848, -17, -42, -15, 57, -6, 12, 46, 974, 964, 380,I
2025-03-19 18:43:06.050,317, 694, 282, -47, -8, 38, -6, 12, 47, 975, 968, 383,I
2025-03-19 18:43:06.063,784, 246, 194, 0, -6, 31, -6, 13, 45, 974, 969, 442,I
2025-03-19 18:43:06.069,525, 731, 324, -21, 3, 33, -7, 13, 47, 973, 968, 402,I
2025-03-19 18:43:06.080,640, 665, 387, -11, 11, 34, -7, 12, 46, 974, 965, 380,I
2025-03-19 18:43:06.086,658, 410, 400, 1, 12, 27, -8, 13, 46, 970, 964, 411,I
2025-03-19 18:43:06.096,545, 563, 569, 12, 9, 16, -8, 14, 46, 969, 960, 424,I
2025-03-19 18:43:06.099,578, 463, 496, 22, 7, 6, -9, 14, 45, 965, 957, 440,I
2025-03-19 18:43:06.116,517, 577, 580, 23, 4, -1, -8, 13, 46, 962, 950, 484,I
2025-03-19 18:43:06.125,510, 496, 464, 21, 1, -7, -8, 13, 46, 957, 942, 529,I
2025-03-19 18:43:06.132,551, 323, 366, 33, 5, -27, -8, 14, 44, 953, 933, 575,I
2025-03-19 18:43:06.142,550, 406, 413, 34, 8, -40, -6, 13, 45, 953, 929, 589,I
2025-03-19 18:43:06.150,510, 655, 541, 18, 1, -38, -8, 12, 45, 951, 922, 561,I
2025-03-19 18:43:06.159,582, 734, 510, 9, -10, -25, -6, 13, 46, 953, 921, 426,I
2025-03-19 18:43:06.170,819, 440, 377, 3, 4, -31, -7, 12, 46, 956, 929, 408,I
2025-03-19 18:43:06.178,1000, 735, 656, 4, -4, -14, -7, 11, 46, 961, 935, 420,I
2025-03-19 18:43:06.186,822, 449, 749, 0, -21, -15, -6, 12, 44, 966, 939, 429,I
2025-03-19 18:43:06.196,774, 327, 365, 47, -10, -14, -6, 12, 46, 972, 944, 453,I
2025-03-19 18:43:06.200,867, 1000, 170, 34, 14, 9, -5, 13, 46, 976, 944, 382,I
2025-03-19 18:43:06.212,635, 1104, 97, 3, 31, 27, -4, 12, 45, 977, 942, 342,I
2025-03-19 18:43:06.221,730, 628, 387, 11, 48, 43, -4, 12, 45, 977, 944, 165,I
2025-03-19 18:43:06.232,1207, 746, 333, 11, 64, 55, -6, 14, 47, 977, 944, 16,I
2025-03-19 18:43:06.240,800, 339, 453, -6, 58, 52, -5, 12, 47, 975, 941, 11,I
2025-03-19 18:43:06.248,401, 847, 294, 8, 50, 41, -6, 14, 46, 973, 932, 19,I
2025-03-19 18:43:06.256,788, 672, 253, 9, 46, 36, -3, 12, 46, 969, 925, 22,I
2025-03-19 18:43:06.266,783, 790, 178, -10, 47, 42, -4, 14, 43, 964, 909, 14,I
2025-03-19 18:43:06.276,620, 525, 369, -9, 42, 25, -4, 13, 44, 960, 885, 22,I
2025-03-19 18:43:06.285,602, 456, 378, 15, 34, 9, -3, 14, 43, 952, 840, 16,I
2025-03-19 18:43:06.294,685, 306, 359, 20, 34, -11, -1, 14, 45, 944, 795, 12,I
2025-03-19 18:43:06.300,603, 306, 435, 41, 33, -37, -5, 14, 42, 937, 763, 7,I
2025-03-19 18:43:06.310,513, 426, 600, 43, 25, -50, -5, 14, 42, 930, 744, 9,I
2025-03-19 18:43:06.318,409, 677, 703, 20, 6, -38, -4, 11, 41, 929, 711, 22,I
2025-03-19 18:43:06.330,479, 821, 741, 26, -19, -3, -4, 11, 40, 930, 719, 82,I
2025-03-19 18:43:06.336,703, 755, 721, 19, -34, 25, -4, 11, 42, 940, 810, 12,I
2025-03-19 18:43:06.346,666, 5, 205, 27, -4, -17, -4, 13, 39, 944, 869, 170,I
2025-03-19 18:43:06.351,835, 836, 737, 11, -19, -10, -2, 11, 43, 954, 911, 315,I
2025-03-19 18:43:06.363,838, 729, 425, -33, -24, -2, -3, 11, 40, 960, 930, 327,I
2025-03-19 18:43:06.368,774, 377, 157, 0, -13, -7, -2, 11, 42, 964, 937, 382,I
2025-03-19 18:43:06.383,919, 868, 386, 18, -15, 6, -4, 12, 42, 966, 941, 417,I
2025-03-19 18:43:06.392,856, 1219, 90, -28, -3, 35, -4, 12, 44, 965, 945, 369,I
2025-03-19 18:43:06.399,861, 859, 65, -47, 11, 49, -4, 14, 41, 967, 947, 355,I
2025-03-19 18:43:06.408,655, 479, 368, -27, 10, 37, -4, 14, 41, 964, 942, 231,I
2025-03-19 18:43:06.416,545, 369, 420, -22, 12, 25, -5, 13, 45, 963, 934, 185,I
2025-03-19 18:43:06.425,698, 608, 562, -3, 11, 18, -3, 12, 42, 960, 926, 236,I
2025-03-19 18:43:06.436,725, 338, 405, -12, 17, -14, -6, 12, 43, 955, 916, 226,I
2025-03-19 18:43:06.708,706, 642, 365, -6, -11, 5, -6, 12, 42, 886, 772, 453,J
2025-03-19 18:43:06.716,720, 627, 352, -7, -8, 4, -5, 10, 42, 884, 770, 452,J
2025-03-19 18:43:06.731,722, 621, 350, -12, -4, 1, -7, 12, 42, 886, 774, 435,J
2025-03-19 18:43:06.736,704, 622, 368, -15, -1, 0, -6, 11, 42, 888, 772, 381,J
2025-03-19 18:43:06.748,679, 624, 398, -18, 1, -2, -6, 13, 40, 889, 771, 355,J
2025-03-19 18:43:06.756,670, 617, 427, -21, 1, -1, -5, 12, 42, 891, 774, 331,J
2025-03-19 18:43:06.764,653, 625, 446, -22, 0, -1, -7, 12, 41, 895, 772, 288,J
2025-03-19 18:43:06.767,651, 623, 456, -23, -2, -1, -5, 11, 43, 895, 774, 228,J
2025-03-19 18:43:06.783,636, 605, 448, -21, -6, -1, -7, 12, 40, 898, 770, 163,J
2025-03-19 18:43:06.793,639, 610, 449, -21, -8, -3, -5, 12, 43, 900, 775, 178,J
2025-03-19 18:43:06.801,638, 616, 435, -20, -11, -2, -5, 12, 43, 898, 783, 186,J
2025-03-19 18:43:06.809,636, 631, 423, -15, -13, -2, -6, 14, 41, 896, 795, 190,J
2025-03-19 18:43:06.817,625, 633, 439, -14, -16, -1, -6, 12, 42, 896, 803, 207,J
2025-03-19 18:43:06.826,610, 640, 455, -14, -21, 0, -6, 11, 40, 894, 813, 212,J
2025-03-19 18:43:06.836,591, 623, 478, -13, -25, 3, -5, 12, 44, 896, 823, 221,J
2025-03-19 18:43:06.845,558, 600, 528, -7, -32, 3, -5, 12, 40, 895, 834, 229,J
2025-03-19 18:43:06.851,637, 481, 460, -4, -31, -24, -5, 11, 43, 906, 850, 225,J
2025-03-19 18:43:06.862,601, 372, 391, 4, -8, -24, -4, 12, 41, 913, 860, 232,J
2025-03-19 18:43:06.868,631, 719, 696, 11, -18, -23, -6, 13, 43, 919, 881, 148,J
2025-03-19 18:43:06.879,773, 640, 315, -6, -17, -18, -6, 13, 42, 933, 905, 12,J
2025-03-19 18:43:06.891,886, 451, 333, 18, -11, -13, -4, 13, 43, 944, 924, 24,J
2025-03-19 18:43:06.899,761, 500, 499, 37, -15, -15, -4, 13, 43, 955, 938, 166,J
2025-03-19 18:43:06.908,1020, 620, 506, 28, -25, -7, -6, 13, 42, 961, 946, 329,J
2025-03-19 18:43:06.916,1076, 1016, 410, -19, -37, 15, -3, 11, 45, 968, 957, 357,J
2025-03-19 18:43:06.925,947, 1080, -73, -43, -29, 42, -6, 12, 44, 969, 961, 327,J
2025-03-19 18:43:06.932,460, 621, 242, -30, -20, 42, -4, 12, 46, 970, 965, 298,J
2025-03-19 18:43:06.945,406, 479, 41, -17, -3, 29, -8, 14, 46, 972, 964, 371,J
2025-03-19 18:43:06.951,360, 666, 255, -20, 9, 29, -6, 13, 48, 971, 965, 330,J
2025-03-19 18:43:06.961,562, 547, 546, -17, 3, 22, -7, 14, 45, 970, 963, 346,J
2025-03-19 18:43:06.966,627, 576, 442, -6, 4, 19, -7, 13, 47, 969, 963, 341,J
2025-03-19 18:43:06.977,570, 568, 436, 3, 11, 15, -7, 16, 45, 967, 959, 352,J
2025-03-19 18:43:06.982,513, 565, 622, 13, 6, 8, -8, 13, 47, 962, 952, 412,J
2025-03-19 18:43:06.997,527, 543, 576, 18, 2, 1, -8, 13, 47, 956, 944, 442,J
2025-03-19 18:43:07.006,449, 394, 540, 26, 1, -15, -6, 15, 45, 951, 935, 499,J
2025-03-19 18:43:07.012,524, 360, 429, 44, 4, -27, -6, 12, 46, 949, 929, 525,J
2025-03-19 18:43:07.016,551, 496, 402, 51, 7, -30, -7, 13, 45, 948, 924, 514,J
2025-03-19 18:43:07.030,762, 552, 430, 31, 8, -30, -7, 12, 45, 947, 922, 477,J
2025-03-19 18:43:07.042,1074, 479, 409, 30, 6, -24, -6, 13, 45, 954, 923, 513,J
2025-03-19 18:43:07.051,947, 673, 525, 23, 2, -15, -6, 12, 46, 957, 931, 484,J
2025-03-19 18:43:07.059,843, 549, 461, 8, -2, -6, -6, 12, 45, 963, 937, 487,J
2025-03-19 18:43:07.067,827, 615, 297, 17, 12, 4, -4, 11, 45, 966, 942, 433,J
2025-03-19 18:43:07.075,1130, 1061, 308, -2, 27, 33, -6, 11, 46, 973, 950, 189,J
2025-03-19 18:43:07.084,801, 834, 4, 9, 53, 68, -4, 12, 47, 974, 952, 5,J
2025-03-19 18:43:07.093,640, 553, 343, -5, 43, 43, -4, 12, 47, 978, 954, 3,J
2025-03-19 18:43:07.100,518, 736, 565, 4, 40, 44, -5, 12, 44, 977, 955, 16,J
2025-03-19 18:43:07.112,667, 604, 383, 10, 28, 31, -5, 12, 45, 978, 954, 8,J
2025-03-19 18:43:07.120,612, 859, 126, -6, 25, 29, -4, 12, 44, 978, 954, 20,J
2025-03-19 18:43:07.129,708, 799, 230, -31, 33, 36, -5, 14, 46, 975, 953, 10,J
2025-03-19 18:43:07.136,708, 519, 488, -38, 23, 24, -3, 12, 45, 975, 949, 12,J
2025-03-19 18:43:07.146,703, 548, 310, -30, 24, 17, -4, 14, 43, 968, 939, 9,J
2025-03-19 18:43:07.157,575, 511, 372, -28, 24, 7, -5, 14, 43, 961, 928, 14,J
2025-03-19 18:43:07.165,650, 353, 422, -5, 18, -12, -5, 15, 43, 951, 898, 15,J
2025-03-19 18:43:07.174,694, 110, 518, 53, 13, -32, -5, 13, 43, 939, 846, 9,J
2025-03-19 18:43:07.182,691, 350, 552, 71, 9, -51, -5, 13, 43, 910, 802, 14,J
2025-03-19 18:43:07.190,1126, 299, 329, 62, 15, -61, -4, 14, 42, 884, 759, 168,J
2025-03-19 18:43:07.198,1234, 559, 205, 45, 28, -65, -4, 13, 42, 863, 740, 307,J
2025-03-19 18:43:07.210,1007, 734, 201, 17, 41, -58, -3, 11, 41, 847, 742, 379,J
2025-03-19 18:43:07.217,815, 779, 246, -15, 48, -47, -3, 11, 40, 844, 751, 396,J
2025-03-19 18:43:07.228,568, 708, 404, -26, 47, -28, -4, 11, 39, 837, 749, 393,J
2025-03-19 18:43:07.232,519, 682, 561, -24, 38, -14, -3, 11, 40, 829, 749, 393,J
2025-03-19 18:43:07.245,493, 640, 719, -21, 22, -8, -6, 11, 38, 820, 748, 399,J
2025-03-19 18:43:07.249,520, 623, 767, -17, 5, -6, -3, 12, 38, 824, 764, 408,J
2025-03-19 18:43:07.509,695, 626, 371, -5, -3, -2, -5, 11, 43, 886, 792, 437,K
2025-03-19 18:43:07.521,697, 620, 395, -7, -3, -2, -7, 12, 42, 884, 792, 421,K
2025-03-19 18:43:07.529,694, 629, 404, -9, -1, -1, -6, 11, 45, 885, 793, 386,K
2025-03-19 18:43:07.537,666, 642, 415, -9, 0, 0, -8, 13, 42, 885, 792, 370,K
2025-03-19 18:43:07.546,658, 630, 439, -7, 0, 0, -6, 11, 42, 885, 795, 358,K
2025-03-19 18:43:07.553,647, 616, 443, -6, -1, 0, -7, 14, 42, 883, 791, 350,K
2025-03-19 18:43:07.561,644, 610, 446, 0, -3, 0, -7, 14, 42, 883, 790, 355,K
2025-03-19 18:43:07.570,671, 617, 451, 3, -4, 1, -6, 11, 42, 882, 788, 351,K
2025-03-19 18:43:07.576,679, 642, 444, 0, -4, 3, -6, 11, 40, 885, 789, 356,K
2025-03-19 18:43:07.591,669, 644, 416, -2, -5, 4, -6, 13, 42, 886, 786, 351,K
2025-03-19 18:43:07.599,676, 616, 400, -1, -4, 3, -6, 11, 42, 885, 779, 348,K
2025-03-19 18:43:07.608,674, 592, 391, 1, -4, 2, -5, 11, 44, 885, 776, 352,K
2025-03-19 18:43:07.616,688, 607, 395, 1, -4, 0, -5, 11, 42, 885, 777, 350,K
2025-03-19 18:43:07.624,706, 639, 394, -3, -4, 0, -6, 12, 43, 886, 778, 356,K
2025-03-19 18:43:07.626,700, 644, 381, -7, -3, 0, -5, 10, 43, 888, 782, 352,K
2025-03-19 18:43:07.643,697, 620, 384, -7, -2, 0, -6, 12, 42, 888, 779, 345,K
2025-03-19 18:43:07.651,701, 610, 388, -4, 0, -1, -6, 12, 42, 888, 779, 345,K
2025-03-19 18:43:07.662,696, 625, 386, -6, 2, -2, -7, 11, 43, 887, 779, 354,K
2025-03-19 18:43:07.668,675, 633, 396, -6, 2, -3, -6, 12, 43, 887, 778, 333,K
2025-03-19 18:43:07.677,670, 631, 407, -6, 2, -3, -6, 12, 43, 886, 776, 313,K
2025-03-19 18:43:07.686,669, 627, 421, -6, 2, -1, -7, 13, 42, 887, 776, 326,K
2025-03-19 18:43:07.697,661, 629, 436, -6, 0, 0, -6, 11, 42, 889, 780, 329,K
2025-03-19 18:43:07.706,667, 636, 446, -7, -1, 2, -8, 13, 42, 888, 786, 329,K
2025-03-19 18:43:07.715,665, 625, 425, -7, -2, 2, -7, 12, 43, 890, 787, 334,K
2025-03-19 18:43:07.722,673, 612, 411, -6, -2, 2, -6, 13, 43, 890, 789, 330,K
2025-03-19 18:43:07.730,675, 608, 413, -5, -2, 1, -6, 13, 43, 891, 792, 335,K
2025-03-19 18:43:07.738,683, 619, 415, -4, -3, 0, -7, 11, 43, 890, 794, 340,K
2025-03-19 18:43:07.748,693, 622, 406, -6, -3, 0, -7, 11, 42, 891, 801, 344,K
2025-03-19 18:43:07.758,691, 620, 397, -6, -3, -1, -4, 11, 44, 891, 800, 343,K
2025-03-19 18:43:07.766,685, 616, 410, -6, -2, -2, -7, 12, 41, 890, 801, 347,K
2025-03-19 18:43:07.776,674, 618, 425, -7, -2, -3, -4, 11, 42, 892, 805, 343,K
2025-03-19 18:43:07.781,659, 640, 422, -10, -2, -3, -7, 13, 42, 893, 807, 318,K
2025-03-19 18:43:07.791,651, 633, 436, -11, -3, -2, -6, 11, 44, 893, 811, 306,K
2025-03-19 18:43:07.799,647, 615, 442, -10, -3, -1, -7, 12, 42, 893, 807, 291,K
2025-03-19 18:43:07.812,661, 605, 442, -8, -4, 0, -6, 10, 43, 896, 812, 293,K
2025-03-19 18:43:07.816,693, 605, 436, -6, -6, 2, -5, 13, 41, 898, 818, 299,K
2025-03-19 18:43:07.826,704, 609, 423, -6, -7, 1, -5, 13, 41, 898, 821, 293,K
2025-03-19 18:43:07.836,730, 610, 394, -7, -6, 1, -4, 12, 42, 898, 827, 297,K
2025-03-19 18:43:07.844,727, 608, 375, -7, -6, 0, -6, 12, 40, 902, 829, 302,K
2025-03-19 18:43:07.852,750, 601, 374, -7, -4, 1, -6, 12, 43, 903, 830, 305,K
2025-03-19 18:43:07.861,751, 604, 369, -4, -1, 2, -7, 13, 41, 904, 838, 359,K
2025-03-19 18:43:07.874,731, 611, 383, -4, 0, 1, -5, 12, 45, 908, 840, 372,K
2025-03-19 18:43:07.882,679, 625, 417, -7, 0, -1, -8, 14, 42, 909, 846, 378,K
2025-03-19 18:43:07.891,652, 621, 432, -10, -2, -2, -6, 10, 43, 912, 850, 386,K
2025-03-19 18:43:07.896,599, 617, 431, -10, -2, -2, -7, 13, 43, 913, 858, 393,K
2025-03-19 18:43:07.906,581, 613, 458, -6, -5, -2, -6, 12, 44, 915, 869, 396,K
2025-03-19 18:43:07.913,576, 624, 486, -4, -10, -1, -6, 12, 44, 917, 873, 407,K
2025-03-19 18:43:07.928,556, 626, 524, -2, -18, 0, -6, 13, 42, 914, 882, 421,K
2025-03-19 18:43:07.932,535, 622, 559, 1, -29, 3, -5, 12, 43, 916, 889, 440,K
2025-03-19 18:43:07.943,500, 626, 581, 0, -40, 4, -8, 12, 44, 919, 899, 444,K
2025-03-19 18:43:07.950,676, 518, 439, -23, -33, -11, -4, 12, 44, 925, 909, 353,K
2025-03-19 18:43:07.958,841, 334, 242, 6, -15, -29, -6, 13, 43, 928, 918, 376,K
2025-03-19 18:43:07.968,786, 917, 510, -11, -17, -19, -6, 12, 44, 933, 922, 229,K
2025-03-19 18:43:07.976,683, 657, 272, -50, -12, -13, -8, 14, 44, 944, 930, 240,K
2025-03-19 18:43:07.987,787, 523, 308, -22, -4, -9, -5, 13, 43, 948, 933, 220,K
2025-03-19 18:43:07.996,729, 528, 537, -14, -8, -9, -7, 11, 44, 950, 934, 171,K
2025-03-19 18:43:08.004,701, 381, 534, -7, -12, -15, -7, 11, 44, 956, 935, 212,K
2025-03-19 18:43:08.013,690, 300, 550, 28, -11, -20, -5, 13, 46, 960, 933, 229,K
2025-03-19 18:43:08.020,790, 475, 566, 54, -4, -13, -6, 14, 44, 964, 925, 235,K
2025-03-19 18:43:08.029,866, 806, 450, 67, 13, 5, -5, 11, 46, 967, 921, 159,K
2025-03-19 18:43:08.041,1267, 1322, -135, 46, 59, 52, -5, 12, 46, 968, 911, 19,K
2025-03-19 18:43:08.050,616, 847, 226, 40, 81, 54, -4, 13, 46, 968, 905, 11,K
2025-03-19 18:43:08.058,191, 836, 413, -11, 68, 34, -5, 13, 44, 970, 892, 15,K
2025-03-19 18:43:08.066,512, 895, 288, -49, 51, 46, -4, 13, 46, 971, 879, 22,K
2025-03-19 18:43:08.076,395, 615, 282, -32, 50, 39, -4, 13, 46, 971, 873, 21,K
2025-03-19 18:43:08.087,546, 710, 283, -29, 28, 27, -4, 13, 46, 970, 871, 11,K
2025-03-19 18:43:08.095,815, 567, -61, -3, 23, 20, -3, 13, 44, 969, 897, 12,K
2025-03-19 18:43:08.098,795, 721, 66, -4, 33, 22, -3, 13, 44, 967, 918, 8,K
2025-03-19 18:43:08.112,852, 625, 203, 6, 32, 21, -2, 14, 42, 963, 937, 10,K
2025-03-19 18:43:08.116,1065, 750, 530, -4, 11, 27, -3, 14, 43, 962, 949, 15,K
2025-03-19 18:43:08.128,841, 490, 800, -11, -33, 15, -4, 15, 42, 963, 957, 5,K
2025-03-19 18:43:08.140,718, 321, 369, -17, -34, 2, -4, 14, 43, 965, 964, 8,K
2025-03-19 18:43:08.149,290, 409, 693, -15, -40, -16, -4, 14, 43, 964, 969, 19,K
2025-03-19 18:43:08.157,865, 550, 788, 11, -48, -16, -4, 13, 43, 967, 969, 76,K
2025-03-19 18:43:08.164,318, 721, 264, -37, -48, -11, -6, 15, 41, 964, 968, 55,K
2025-03-19 18:43:08.173,489, 532, 294, -17, -32, -8, -7, 14, 44, 965, 968, 23,K
2025-03-19 18:43:08.181,541, 312, 823, 0, -41, -18, -7, 15, 44, 964, 968, 179,K
2025-03-19 18:43:08.193,682, 489, 564, 19, -36, -19, -6, 11, 43, 962, 962, 200,K
2025-03-19 18:43:08.201,627, 641, 297, 32, -18, -13, -6, 11, 43, 956, 954, 229,K
2025-03-19 18:43:08.210,618, 703, 569, 34, -9, -7, -7, 14, 45, 951, 938, 309,K
2025-03-19 18:43:08.217,639, 575, 460, 41, -9, -6, -6, 12, 45, 946, 921, 366,K
2025-03-19 18:43:08.227,526, 587, 131, 50, 11, -7, -8, 13, 45, 941, 907, 342,K
2025-03-19 18:43:08.236,567, 571, 126, 45, 40, -13, -7, 12, 46, 936, 891, 312,K
2025-03-19 18:43:08.246,612, 565, 312, 32, 58, -24, -8, 13, 44, 932, 865, 124,K
2025-03-19 18:43:08.253,541, 695, 457, 7, 58, -29, -6, 10, 45, 929, 830, 17,K
2025-03-19 18:43:08.262,569, 757, 541, -9, 41, -17, -5, 13, 43, 930, 815, 17,K
2025-03-19 18:43:08.270,691, 791, 627, -15, 14, 13, -4, 11, 45, 934, 821, 11,K
2025-03-19 18:43:08.279,709, 902, 629, -42, -17, 47, -3, 12, 42, 949, 865, 0,K
2025-03-19 18:43:08.287,593, -389, 91, -3, -4, -8, -3, 12, 42, 957, 898, 10,K
2025-03-19 18:43:08.297,816, 762, 448, 13, -8, -1, -3, 12, 44, 964, 922, 10,K
2025-03-19 18:43:08.308,961, 1195, 253, -52, -8, 28, -5, 12, 42, 968, 942, 11,K
2025-03-19 18:43:08.316,730, 977, 23, -91, 8, 52, -3, 11, 44, 973, 949, 12,K
2025-03-19 18:43:08.324,508, 438, 219, -77, 15, 41, -6, 15, 43, 972, 953, 10,K
2025-03-19 18:43:08.333,740, 637, 345, -30, 18, 46, -3, 12, 44, 972, 956, 24,K
2025-03-19 18:43:08.341,448, 525, 371, -67, 14, 44, -6, 14, 42, 972, 957, 18,K
2025-03-19 18:43:08.350,790, 575, 480, -37, 12, 43, -4, 13, 43, 973, 955, 26,K
2025-03-19 18:43:08.358,581, 394, 462, -21, 12, 33, -6, 16, 42, 968, 949, 20,K
2025-03-19 18:43:08.369,611, 537, 645, -4, 4, 19, -6, 16, 42, 967, 944, 12,K
2025-03-19 18:43:08.378,760, 189, 423, -1, 9, -18, -6, 15, 42, 961, 940, 11,K
2025-03-19 18:43:08.386,856, 133, 240, 19, 28, -45, -6, 15, 42, 956, 932, 12,K
2025-03-19 18:43:08.651,663, 647, 408, -15, -8, -2, -5, 13, 43, 894, 828, 362,L
2025-03-19 18:43:08.661,668, 626, 389, -17, -8, -3, -5, 13, 43, 894, 829, 361,L
2025-03-19 18:43:08.668,649, 628, 402, -15, -8, -5, -7, 12, 42, 893, 831, 368,L
2025-03-19 18:43:08.681,624, 638, 421, -18, -11, -5, -5, 11, 43, 896, 838, 364,L
2025-03-19 18:43:08.686,632, 648, 427, -18, -14, -4, -6, 12, 41, 895, 849, 372,L
2025-03-19 18:43:08.698,644, 619, 428, -14, -14, -4, -7, 10, 43, 894, 850, 378,L
2025-03-19 18:43:08.706,657, 605, 436, -7, -14, -3, -6, 12, 44, 896, 854, 398,L
2025-03-19 18:43:08.714,653, 598, 454, -3, -16, -3, -6, 11, 44, 894, 856, 409,L
2025-03-19 18:43:08.721,649, 605, 454, -1, -19, -3, -7, 11, 43, 893, 858, 428,L
2025-03-19 18:43:08.732,659, 610, 426, 1, -21, -2, -5, 11, 43, 889, 863, 437,L
2025-03-19 18:43:08.743,651, 621, 415, 2, -24, -1, -8, 13, 42, 888, 868, 438,L
2025-03-19 18:43:08.750,719, 595, 386, -2, -23, -2, -6, 11, 44, 892, 872, 440,L
2025-03-19 18:43:08.759,786, 585, 320, 3, -10, -13, -6, 11, 44, 899, 881, 411,L
2025-03-19 18:43:08.767,685, 573, 388, 0, -6, -14, -7, 12, 42, 902, 890, 424,L
2025-03-19 18:43:08.777,705, 744, 456, -8, -7, -8, -6, 12, 45, 911, 899, 364,L
2025-03-19 18:43:08.786,740, 577, 304, -16, -4, -6, -7, 12, 43, 915, 908, 336,L
2025-03-19 18:43:08.796,706, 562, 417, -1, 0, -7, -5, 12, 44, 921, 912, 339,L
2025-03-19 18:43:08.801,709, 641, 453, 2, -3, -6, -5, 14, 43, 926, 918, 339,L
2025-03-19 18:43:08.810,679, 643, 395, -3, -3, -5, -6, 12, 45, 930, 920, 341,L
2025-03-19 18:43:08.820,679, 632, 396, 1, -3, -5, -8, 12, 44, 935, 926, 331,L
2025-03-19 18:43:08.827,684, 645, 406, 1, -3, -4, -5, 12, 44, 940, 928, 327,L
2025-03-19 18:43:08.840,684, 647, 433, 0, -4, -4, -6, 12, 44, 944, 929, 329,L
2025-03-19 18:43:08.849,682, 625, 434, 3, -6, -4, -6, 12, 44, 946, 931, 339,L
2025-03-19 18:43:08.857,678, 636, 408, 4, -6, -4, -6, 13, 46, 948, 934, 351,L
2025-03-19 18:43:08.865,676, 612, 419, 5, -7, -5, -7, 13, 44, 950, 932, 348,L
2025-03-19 18:43:08.874,678, 554, 449, 10, -9, -7, -6, 11, 45, 952, 931, 359,L
2025-03-19 18:43:08.882,669, 529, 451, 22, -9, -8, -6, 12, 44, 954, 927, 369,L
2025-03-19 18:43:08.890,715, 546, 439, 37, -3, -6, -5, 11, 47, 954, 918, 366,L
2025-03-19 18:43:08.899,757, 669, 375, 55, 7, -2, -7, 12, 46, 958, 905, 375,L
2025-03-19 18:43:08.911,625, 566, 415, 62, 19, 10, -5, 10, 46, 958, 898, 221,L
2025-03-19 18:43:08.918,809, 861, 97, 52, 54, 37, -5, 10, 45, 962, 886, 10,L
2025-03-19 18:43:08.927,501, 895, 303, 23, 66, 32, -3, 10, 46, 960, 875, 6,L
2025-03-19 18:43:08.935,456, 754, 374, 2, 58, 34, -3, 10, 46, 963, 866, 10,L
2025-03-19 18:43:08.944,760, 812, 428, -39, 51, 36, -4, 10, 45, 964, 870, 21,L
2025-03-19 18:43:08.952,764, 683, 149, -28, 39, 36, -3, 11, 46, 963, 875, 15,L
2025-03-19 18:43:08.963,1022, 564, 261, -27, 23, 28, -4, 13, 45, 964, 894, 15,L
2025-03-19 18:43:08.968,562, 555, 171, -13, 14, 17, -2, 11, 44, 966, 912, 15,L
2025-03-19 18:43:08.979,728, 536, 231, 8, 14, 10, -3, 13, 44, 966, 930, 15,L
2025-03-19 18:43:08.987,906, 803, 311, -10, 12, 20, -3, 11, 44, 966, 940, 13,L
2025-03-19 18:43:08.996,820, 822, 410, -37, 5, 26, -4, 14, 42, 969, 946, 13,L
2025-03-19 18:43:09.008,698, 604, 394, -28, 4, 28, -3, 13, 43, 964, 949, 0,L
2025-03-19 18:43:09.016,560, 549, 576, -22, -9, 23, -4, 13, 43, 965, 950, 8,L
2025-03-19 18:43:09.025,715, 321, 454, 3, -9, 8, -4, 13, 43, 962, 945, 7,L
2025-03-19 18:43:09.032,585, 491, 476, 21, -6, 3, -3, 14, 43, 952, 935, 6,L
2025-03-19 18:43:09.042,601, 685, 465, 26, -2, 4, -4, 13, 40, 943, 924, 131,L
2025-03-19 18:43:09.051,729, 651, 319, 13, 6, -4, -4, 14, 45, 934, 914, 317,L
2025-03-19 18:43:09.059,878, 384, 127, 0, 32, -29, -5, 14, 42, 924, 901, 404,L
2025-03-19 18:43:09.069,873, 413, 180, -4, 53, -48, -6, 12, 42, 918, 886, 432,L
2025-03-19 18:43:09.079,742, 582, 329, -12, 61, -51, -5, 12, 42, 912, 852, 411,L
2025-03-19 18:43:09.086,615, 683, 391, -21, 58, -43, -5, 13, 41, 907, 825, 310,L
2025-03-19 18:43:09.096,561, 701, 466, -30, 51, -36, -5, 12, 42, 906, 799, 201,L
2025-03-19 18:43:09.102,546, 704, 604, -36, 38, -25, -5, 12, 39, 905, 788, 164,L
2025-03-19 18:43:09.115,513, 651, 686, -29, 23, -18, -6, 14, 39, 902, 770, 10,L
2025-03-19 18:43:09.394,715, 640, 392, 6, -6, 2, -3, 12, 44, 863, 786, 201,M
2025-03-19 18:43:09.402,701, 631, 385, 2, -5, 1, -6, 14, 40, 862, 790, 200,M
2025-03-19 18:43:09.414,686, 617, 379, -1, -5, 1, -4, 12, 42, 864, 792, 238,M
2025-03-19 18:43:09.421,682, 603, 384, 2, -4, -1, -6, 12, 40, 866, 792, 292,M
2025-03-19 18:43:09.431,675, 615, 414, 3, -4, -2, -4, 12, 42, 867, 798, 301,M
2025-03-19 18:43:09.438,670, 630, 431, 1, -5, -2, -7, 12, 41, 868, 801, 308,M
2025-03-19 18:43:09.448,659, 638, 429, 1, -6, -2, -5, 12, 43, 867, 804, 317,M
2025-03-19 18:43:09.454,663, 630, 428, 4, -7, -2, -6, 12, 40, 867, 804, 318,M
2025-03-19 18:43:09.467,663, 619, 431, 4, -7, -1, -6, 11, 44, 870, 806, 327,M
2025-03-19 18:43:09.475,663, 644, 434, 0, -8, 0, -6, 11, 44, 870, 812, 326,M
2025-03-19 18:43:09.483,686, 641, 418, 0, -7, 1, -6, 12, 42, 868, 810, 338,M
2025-03-19 18:43:09.493,709, 610, 392, 1, -5, 0, -5, 11, 43, 868, 812, 339,M
2025-03-19 18:43:09.498,696, 596, 372, 1, -3, -1, -5, 12, 42, 869, 812, 339,M
2025-03-19 18:43:09.510,682, 615, 377, 0, -2, -2, -4, 12, 43, 870, 815, 353,M
2025-03-19 18:43:09.517,680, 633, 384, 0, -2, -2, -6, 13, 42, 870, 814, 348,M
2025-03-19 18:43:09.529,681, 631, 389, 1, -2, -3, -5, 11, 43, 870, 813, 359,M
2025-03-19 18:43:09.537,681, 628, 391, 2, -2, -4, -5, 11, 43, 870, 815, 358,M
2025-03-19 18:43:09.546,683, 641, 400, 1, -3, -5, -5, 11, 44, 870, 813, 354,M
2025-03-19 18:43:09.554,677, 633, 383, 0, -3, -6, -7, 13, 41, 868, 813, 361,M
2025-03-19 18:43:09.562,668, 625, 370, 1, -3, -6, -7, 13, 41, 865, 812, 364,M
2025-03-19 18:43:09.566,657, 618, 375, 4, -3, -8, -6, 9, 42, 859, 812, 373,M
2025-03-19 18:43:09.582,671, 624, 388, 2, -3, -9, -6, 12, 44, 859, 811, 370,M
2025-03-19 18:43:09.591,668, 641, 398, 0, -2, -10, -4, 11, 44, 855, 813, 368,M
2025-03-19 18:43:09.598,694, 644, 397, -3, -2, -9, -5, 12, 43, 853, 816, 352,M
2025-03-19 18:43:09.607,645, 654, 391, -6, -3, -9, -4, 12, 44, 848, 816, 342,M
2025-03-19 18:43:09.614,627, 648, 414, -7, -6, -8, -4, 11, 43, 847, 818, 342,M
2025-03-19 18:43:09.624,631, 632, 421, -7, -8, -7, -5, 10, 42, 846, 821, 341,M
2025-03-19 18:43:09.631,632, 635, 421, -5, -11, -7, -5, 10, 43, 844, 822, 340,M
2025-03-19 18:43:09.643,647, 621, 422, -4, -14, -7, -5, 10, 43, 847, 825, 337,M
2025-03-19 18:43:09.649,656, 618, 444, -1, -16, -6, -6, 12, 43, 849, 834, 341,M
2025-03-19 18:43:09.660,699, 630, 435, 0, -17, -6, -6, 10, 42, 852, 838, 351,M
2025-03-19 18:43:09.667,718, 627, 378, -2, -14, -8, -6, 12, 42, 861, 849, 344,M
2025-03-19 18:43:09.677,789, 674, 305, -3, -2, -5, -4, 9, 42, 868, 853, 340,M
2025-03-19 18:43:09.684,693, 717, 406, -9, -1, -2, -6, 11, 42, 870, 853, 321,M
2025-03-19 18:43:09.696,702, 650, 326, -11, 0, 0, -4, 12, 42, 873, 854, 233,M
2025-03-19 18:43:09.699,693, 574, 356, 0, 3, -2, -5, 11, 42, 873, 852, 232,M
2025-03-19 18:43:09.712,679, 633, 429, 3, 2, -2, -7, 10, 44, 874, 852, 229,M
2025-03-19 18:43:09.720,678, 670, 420, -1, 0, -1, -5, 11, 43, 874, 851, 222,M
2025-03-19 18:43:09.728,664, 650, 399, -4, -1, 0, -4, 11, 42, 875, 854, 217,M
2025-03-19 18:43:09.737,642, 617, 399, -1, -2, -2, -4, 11, 42, 875, 853, 220,M
2025-03-19 18:43:09.747,661, 597, 403, 2, -2, -4, -6, 10, 41, 878, 855, 224,M
2025-03-19 18:43:09.757,661, 629, 423, 4, -4, -5, -4, 11, 44, 878, 859, 227,M
2025-03-19 18:43:09.766,654, 635, 409, 4, -6, -6, -7, 12, 41, 881, 865, 235,M
2025-03-19 18:43:09.775,665, 634, 398, 4, -7, -8, -4, 11, 43, 884, 867, 244,M
2025-03-19 18:43:09.782,667, 650, 362, 6, -7, -9, -6, 12, 43, 887, 874, 239,M
2025-03-19 18:43:09.792,606, 633, 369, 6, -11, -13, -5, 9, 45, 891, 881, 248,M
2025-03-19 18:43:09.799,695, 605, 353, 9, -11, -14, -7, 12, 43, 895, 886, 312,M
2025-03-19 18:43:09.812,609, 646, 366, 7, -13, -15, -5, 9, 42, 903, 896, 314,M
2025-03-19 18:43:09.819,701, 689, 419, -7, -16, -14, -4, 11, 43, 911, 906, 276,M
2025-03-19 18:43:09.828,713, 626, 389, -8, -15, -11, -4, 11, 43, 924, 911, 238,M
2025-03-19 18:43:09.836,744, 606, 475, -6, -10, -7, -6, 10, 44, 935, 917, 245,M
2025-03-19 18:43:09.843,659, 520, 612, -12, -16, -9, -6, 11, 43, 947, 921, 234,M
2025-03-19 18:43:09.851,716, 357, 596, 6, -20, -14, -6, 9, 45, 957, 921, 240,M
2025-03-19 18:43:09.865,761, 425, 538, 37, -6, -8, -7, 11, 43, 962, 921, 232,M
2025-03-19 18:43:09.873,972, 1122, 340, 22, 22, 14, -6, 9, 47, 966, 921, 177,M
2025-03-19 18:43:09.881,1060, 1417, 93, -6, 57, 45, -6, 12, 44, 968, 919, 2,M
2025-03-19 18:43:09.890,1466, 1000, 327, -65, 80, 72, -3, 10, 46, 969, 917, 19,M
2025-03-19 18:43:09.897,1409, 1271, 324, -71, 70, 54, -4, 12, 44, 972, 912, 6,M
2025-03-19 18:43:09.906,1001, 466, 314, -68, 68, 66, -3, 11, 45, 972, 909, 5,M
2025-03-19 18:43:09.917,491, 783, 202, -75, 54, 54, -4, 13, 44, 970, 908, 9,M
2025-03-19 18:43:09.926,931, 792, 159, -74, 51, 52, -4, 13, 44, 967, 902, 10,M
2025-03-19 18:43:09.933,583, 470, 317, -64, 43, 37, -5, 14, 43, 962, 901, 17,M
2025-03-19 18:43:09.944,645, 450, 355, -26, 30, 21, -3, 14, 41, 954, 903, 18,M
2025-03-19 18:43:09.950,708, 634, 609, -14, 13, 11, -2, 14, 41, 948, 895, 18,M
2025-03-19 18:43:09.961,511, 306, 723, -6, -14, -15, -5, 15, 42, 938, 884, 18,M
2025-03-19 18:43:09.967,527, 104, 626, 32, -37, -46, -4, 15, 40, 922, 883, 19,M
2025-03-19 18:43:09.977,597, 163, 498, 58, -42, -64, -6, 15, 40, 910, 886, 107,M
2025-03-19 18:43:09.986,570, 356, 510, 67, -43, -73, -4, 12, 40, 904, 894, 399,M
2025-03-19 18:43:09.996,596, 720, 549, 44, -48, -61, -6, 11, 40, 906, 905, 552,M
2025-03-19 18:43:10.004,527, 986, 546, 6, -55, -33, -5, 11, 42, 911, 919, 598,M
2025-03-19 18:43:10.011,598, 822, 430, -20, -51, -11, -5, 11, 42, 926, 928, 573,M
2025-03-19 18:43:10.025,843, 285, 311, -12, -10, -20, -6, 13, 43, 937, 939, 591,M
2025-03-19 18:43:10.032,824, 757, 875, -34, -17, -9, -4, 12, 43, 947, 946, 581,M
2025-03-19 18:43:10.042,749, 523, 501, -44, -25, -7, -6, 10, 43, 953, 951, 534,M
2025-03-19 18:43:10.049,775, 280, 438, 1, -19, -11, -5, 12, 43, 962, 953, 539,M
2025-03-19 18:43:10.058,764, 680, 536, 8, -17, -4, -5, 12, 44, 964, 953, 520,M
2025-03-19 18:43:10.067,962, 1018, 171, -13, -3, 18, -5, 12, 45, 968, 954, 500,M
2025-03-19 18:43:10.077,736, 753, 160, -14, 13, 27, -5, 12, 45, 968, 957, 460,M
2025-03-19 18:43:10.086,632, 1089, -291, -43, 43, 48, -7, 12, 46, 970, 957, 266,M
2025-03-19 18:43:10.094,645, 681, 212, -30, 46, 51, -6, 14, 43, 971, 954, 181,M
2025-03-19 18:43:10.099,792, 814, 149, -37, 45, 57, -7, 13, 43, 974, 956, 144,M
2025-03-19 18:43:10.114,666, 533, 253, -45, 33, 38, -6, 13, 42, 971, 957, 150,M
2025-03-19 18:43:10.123,645, 637, 365, -26, 22, 31, -6, 13, 42, 968, 956, 155,M
2025-03-19 18:43:10.131,677, 677, 644, -28, 2, 24, -7, 15, 43, 965, 953, 170,M
2025-03-19 18:43:10.138,598, 422, 572, -11, -6, 10, -5, 14, 42, 964, 952, 204,M
2025-03-19 18:43:10.147,472, 438, 778, -2, -24, -4, -7, 13, 42, 958, 950, 241,M
2025-03-19 18:43:10.156,487, 208, 588, 10, -29, -20, -7, 14, 41, 956, 948, 301,M
2025-03-19 18:43:10.166,558, 372, 584, 13, -26, -28, -6, 15, 42, 956, 949, 323,M
2025-03-19 18:43:10.176,691, 570, 615, 7, -24, -22, -7, 14, 43, 960, 950, 319,M
2025-03-19 18:43:10.183,795, 549, 572, -1, -16, -13, -8, 14, 42, 962, 953, 307,M
2025-03-19 18:43:10.193,667, 358, 727, 7, -18, -16, -7, 14, 43, 966, 954, 290,M
2025-03-19 18:43:10.201,661, 311, 492, 23, -16, -20, -7, 14, 42, 968, 953, 208,M
2025-03-19 18:43:10.209,731, 768, 487, 24, -5, -11, -6, 12, 44, 971, 952, 172,M
2025-03-19 18:43:10.218,768, 1017, 315, 19, 8, 14, -6, 12, 44, 975, 953, 136,M
2025-03-19 18:43:10.229,798, 897, -213, 22, 38, 46, -6, 14, 43, 973, 951, 20,M
2025-03-19 18:43:10.236,512, 1046, 169, -15, 53, 53, -6, 13, 46, 972, 949, 9,M
2025-03-19 18:43:10.246,718, 935, 430, -28, 54, 47, -7, 15, 45, 973, 947, 21,M
2025-03-19 18:43:10.250,1011, 612, 338, -5, 40, 36, -4, 13, 44, 971, 940, 9,M
2025-03-19 18:43:10.261,759, 682, 277, -21, 33, 35, -6, 15, 41, 970, 934, 17,M
2025-03-19 18:43:10.274,711, 578, 359, -10, 25, 20, -4, 14, 43, 964, 924, 10,M
2025-03-19 18:43:10.282,859, 349, 375, -7, 25, -11, -7, 15, 42, 959, 919, 5,M
2025-03-19 18:43:10.291,855, 281, 341, -9, 29, -47, -5, 15, 42, 957, 913, 2,M
2025-03-19 18:43:10.299,748, 407, 362, -7, 32, -68, -7, 15, 40, 956, 909, 3,M
2025-03-19 18:43:10.309,581, 525, 375, 9, 32, -71, -7, 13, 42, 945, 900, 5,M
2025-03-19 18:43:10.316,538, 630, 395, 16, 30, -64, -7, 13, 42, 933, 887, 82,M
2025-03-19 18:43:10.327,544, 690, 515, 9, 26, -50, -8, 15, 40, 924, 881, 196,M
2025-03-19 18:43:10.607,708, 702, 686, -3, -6, -7, -6, 12, 43, 937, 915, 445,N
2025-03-19 18:43:10.616,715, 642, 587, -21, -12, -3, -4, 13, 42, 947, 919, 366,N
2025-03-19 18:43:10.627,706, 365, 420, 6, -7, -5, -6, 13, 44, 953, 921, 361,N
2025-03-19 18:43:10.632,710, 582, 485, 12, -3, -4, -4, 13, 43, 956, 919, 350,N
2025-03-19 18:43:10.644,816, 659, 535, 11, 6, 5, -7, 12, 44, 960, 917, 221,N
2025-03-19 18:43:10.649,709, 871, 191, 38, 40, 32, -6, 11, 45, 962, 918, 99,N
2025-03-19 18:43:10.660,704, 596, 500, -15, 52, 41, -6, 11, 45, 965, 915, 0,N
2025-03-19 18:43:10.667,894, 916, 196, 0, 75, 84, -5, 14, 43, 966, 912, 17,N
2025-03-19 18:43:10.679,693, 980, 374, -53, 86, 75, -6, 12, 45, 965, 901, 19,N
2025-03-19 18:43:10.686,1207, 536, 473, -29, 61, 53, -7, 14, 42, 964, 902, 21,N
2025-03-19 18:43:10.696,339, 681, 311, -81, 46, 48, -5, 13, 43, 964, 894, 20,N
2025-03-19 18:43:10.701,860, 473, 286, -39, 32, 35, -4, 15, 41, 963, 887, 21,N
2025-03-19 18:43:10.711,681, 357, 303, 0, 13, 13, -4, 15, 44, 959, 891, 19,N
2025-03-19 18:43:10.724,732, 779, 78, -3, 15, 12, -4, 16, 41, 952, 901, 14,N
2025-03-19 18:43:10.733,774, 723, 416, -16, 4, 6, -3, 15, 41, 944, 901, 14,N
2025-03-19 18:43:10.741,667, 354, 734, 13, -25, -21, -4, 17, 40, 935, 893, 6,N
2025-03-19 18:43:10.749,662, 150, 655, 41, -49, -57, -5, 14, 42, 916, 879, 4,N
2025-03-19 18:43:10.758,681, 16, 517, 75, -51, -86, -5, 14, 42, 903, 886, 170,N
2025-03-19 18:43:10.766,691, 329, 555, 68, -50, -91, -5, 14, 39, 903, 901, 423,N
2025-03-19 18:43:10.777,596, 902, 645, 16, -53, -65, -3, 11, 41, 910, 914, 559,N
2025-03-19 18:43:10.786,458, 1144, 632, -22, -61, -24, -6, 12, 41, 919, 923, 600,N
2025-03-19 18:43:10.793,576, 838, 522, -42, -56, 3, -7, 11, 42, 933, 936, 521,N
2025-03-19 18:43:10.801,722, 55, 50, -17, -12, -23, -7, 14, 40, 942, 943, 523,N
2025-03-19 18:43:10.812,732, 815, 845, -14, -22, -14, -8, 12, 42, 950, 950, 505,N
2025-03-19 18:43:10.819,754, 521, 534, -46, -24, -10, -8, 12, 40, 957, 950, 432,N
2025-03-19 18:43:10.831,773, 189, 439, -7, -19, -17, -6, 12, 44, 962, 951, 376,N
2025-03-19 18:43:10.840,811, 667, 522, 15, -15, -7, -6, 12, 44, 965, 951, 346,N
2025-03-19 18:43:10.847,830, 1014, 199, 10, 17, 38, -4, 12, 46, 968, 947, 163,N
2025-03-19 18:43:10.856,805, 1245, 202, -22, 45, 78, -4, 12, 46, 970, 948, 14,N
2025-03-19 18:43:10.865,686, 783, 235, -43, 77, 96, -6, 13, 44, 969, 941, 5,N
2025-03-19 18:43:10.874,643, 873, 350, -25, 72, 98, -7, 12, 44, 970, 935, 20,N
2025-03-19 18:43:10.884,748, 774, 319, -37, 64, 74, -7, 15, 43, 968, 930, 18,N
2025-03-19 18:43:10.893,409, 640, 425, -31, 52, 61, -5, 15, 44, 971, 932, 20,N
2025-03-19 18:43:10.900,488, 370, 330, -37, 25, 35, -6, 16, 42, 970, 936, 19,N
2025-03-19 18:43:10.910,650, 725, 246, -24, 15, 27, -3, 16, 44, 969, 941, 20,N
2025-03-19 18:43:10.917,540, 781, 231, -44, 14, 19, -5, 17, 41, 969, 948, 19,N
2025-03-19 18:43:10.929,609, 516, 791, -34, -15, 1, -4, 17, 42, 967, 952, 15,N
2025-03-19 18:43:10.936,804, 168, 521, -9, -29, -25, -6, 17, 40, 966, 956, 9,N
2025-03-19 18:43:10.947,578, 299, 605, 37, -60, -50, -7, 15, 43, 964, 957, 8,N
2025-03-19 18:43:10.952,1034, 270, 564, 68, -54, -54, -7, 15, 43, 963, 958, 5,N
2025-03-19 18:43:10.961,1082, 569, 597, 77, -50, -40, -6, 17, 41, 958, 953, 14,N
2025-03-19 18:43:10.971,639, 686, 515, 63, -37, -20, -6, 14, 44, 951, 944, 161,N
2025-03-19 18:43:10.983,806, 586, 544, 61, -27, -8, -6, 15, 43, 947, 934, 225,N
2025-03-19 18:43:10.991,850, 568, 324, 44, -7, -2, -7, 13, 45, 946, 926, 318,N
2025-03-19 18:43:10.998,953, 559, 85, 30, 26, -5, -8, 15, 44, 946, 920, 332,N
2025-03-19 18:43:11.008,910, 522, 74, 9, 54, -12, -6, 13, 44, 945, 916, 253,N
2025-03-19 18:43:11.016,759, 614, 208, -4, 66, -12, -8, 14, 42, 948, 911, 182,N
2025-03-19 18:43:11.025,631, 657, 352, -17, 64, -8, -7, 12, 42, 946, 909, 81,N
2025-03-19 18:43:11.031,557, 626, 423, -23, 60, -4, -8, 14, 42, 946, 902, 7,N
2025-03-19 18:43:11.044,537, 605, 529, -17, 51, 0, -8, 14, 42, 946, 887, 16,N
2025-03-19 18:43:11.051,496, 684, 658, -14, 35, 3, -6, 12, 42, 944, 878, 10,N
2025-03-19 18:43:11.061,430, 672, 739, -12, 14, 5, -8, 15, 39, 945, 874, 20,N
2025-03-19 18:43:11.069,401, 626, 775, -8, -10, 6, -7, 13, 41, 944, 873, 16,N
2025-03-19 18:43:11.347,572, 731, 515, -18, -11, -14, -6, 13, 44, 947, 928, 3,O
2025-03-19 18:43:11.356,627, 588, 381, -33, -8, -13, -8, 15, 43, 949, 933, 4,O
2025-03-19 18:43:11.363,853, 561, 333, -24, -3, -14, -8, 15, 43, 951, 936, 9,O
2025-03-19 18:43:11.376,678, 562, 577, -17, -7, -16, -6, 13, 44, 951, 936, 22,O
2025-03-19 18:43:11.382,730, 409, 451, -1, -8, -22, -7, 16, 42, 951, 935, 34,O
2025-03-19 18:43:11.394,815, 491, 425, 15, -5, -24, -6, 13, 44, 949, 932, 84,O
2025-03-19 18:43:11.399,605, 454, 648, 23, -7, -25, -8, 16, 43, 952, 922, 88,O
2025-03-19 18:43:11.410,580, 429, 456, 38, 2, -24, -5, 13, 45, 955, 915, 12,O
2025-03-19 18:43:11.416,614, 344, 534, 66, 8, -29, -7, 15, 43, 956, 907, 11,O
2025-03-19 18:43:11.429,924, 542, 404, 98, 26, -15, -7, 14, 45, 960, 901, 12,O
2025-03-19 18:43:11.436,696, 809, 325, 67, 30, -4, -5, 14, 44, 965, 903, 13,O
2025-03-19 18:43:11.443,924, 1116, 91, 20, 53, 35, -5, 12, 46, 969, 914, 3,O
2025-03-19 18:43:11.447,971, 1111, 24, -34, 66, 69, -5, 12, 46, 973, 925, 8,O
2025-03-19 18:43:11.462,1178, 1005, 247, -30, 47, 73, -5, 14, 44, 974, 934, 6,O
2025-03-19 18:43:11.471,642, 669, 141, -87, 44, 55, -3, 12, 43, 976, 941, 15,O
2025-03-19 18:43:11.482,921, 504, 26, -53, 44, 52, -3, 14, 43, 975, 949, 14,O
2025-03-19 18:43:11.490,535, 632, 289, -59, 27, 39, -3, 13, 44, 975, 953, 18,O
2025-03-19 18:43:11.498,839, 760, 340, -55, 20, 36, -6, 15, 40, 976, 959, 8,O
2025-03-19 18:43:11.507,692, 610, 482, -90, 3, 28, -6, 15, 42, 976, 963, 21,O
2025-03-19 18:43:11.515,671, 485, 635, -76, -4, 15, -6, 18, 40, 976, 966, 11,O
2025-03-19 18:43:11.524,442, 288, 1234, -45, -41, -8, -7, 16, 42, 972, 968, 19,O
2025-03-19 18:43:11.536,663, 266, 488, -17, -49, -30, -5, 17, 40, 971, 971, 12,O
2025-03-19 18:43:11.544,343, 212, 826, 27, -60, -53, -8, 17, 42, 967, 968, 11,O
2025-03-19 18:43:11.549,646, 372, 300, 33, -59, -57, -8, 17, 42, 960, 966, 11,O
2025-03-19 18:43:11.561,928, 237, 632, 76, -65, -53, -6, 15, 44, 949, 957, 41,O
2025-03-19 18:43:11.566,883, 436, 240, 77, -41, -45, -7, 15, 45, 940, 945, 63,O
2025-03-19 18:43:11.576,570, 488, 420, 87, -26, -37, -7, 14, 44, 931, 928, 178,O
2025-03-19 18:43:11.586,714, 661, 285, 77, -12, -27, -7, 13, 45, 921, 912, 237,O
2025-03-19 18:43:11.597,1065, 666, 40, 46, 12, -26, -7, 12, 45, 914, 899, 291,O
2025-03-19 18:43:11.606,1156, 563, -105, 12, 47, -37, -6, 13, 45, 916, 894, 324,O
2025-03-19 18:43:11.614,1014, 582, 2, -9, 75, -46, -7, 12, 45, 915, 887, 164,O
2025-03-19 18:43:11.623,806, 677, 137, -24, 85, -42, -6, 15, 43, 913, 871, 32,O
2025-03-19 18:43:11.633,604, 753, 331, -36, 83, -29, -7, 11, 43, 915, 842, 6,O
2025-03-19 18:43:11.642,499, 733, 481, -42, 73, -16, -7, 13, 41, 913, 814, 4,O
2025-03-19 18:43:11.650,498, 684, 655, -33, 56, -4, -7, 13, 41, 912, 784, 6,O
2025-03-19 18:43:11.659,479, 682, 756, -32, 36, 3, -6, 14, 41, 912, 752, 7,O
2025-03-19 18:43:11.667,465, 657, 776, -25, 14, 8, -7, 13, 41, 909, 730, 9,O
2025-03-19 18:43:11.676,425, 609, 731, -15, -4, 9, -7, 12, 41, 910, 731, 20,O
2025-03-19 18:43:11.681,454, 595, 629, -1, -13, 9, -8, 13, 40, 910, 727, 20,O
2025-03-19 18:43:11.694,520, 604, 496, 14, -19, 8, -8, 12, 40, 908, 724, 20,O
2025-03-19 18:43:11.698,576, 653, 485, 15, -21, 9, -8, 14, 41, 908, 731, 21,O
2025-03-19 18:43:11.990,609, 605, 463, -2, -18, -3, -5, 14, 44, 903, 840, 254,P
2025-03-19 18:43:11.996,669, 616, 456, -4, -21, -3, -7, 15, 43, 903, 854, 287,P
2025-03-19 18:43:12.011,680, 582, 407, -2, -19, -3, -7, 11, 45, 908, 873, 197,P
2025-03-19 18:43:12.016,691, 454, 399, -5, -4, -15, -9, 13, 42, 912, 889, 229,P
2025-03-19 18:43:12.026,721, 692, 543, -8, -6, -10, -6, 12, 43, 920, 897, 185,P
2025-03-19 18:43:12.035,764, 552, 458, -12, -7, -7, -6, 14, 44, 931, 900, 168,P
2025-03-19 18:43:12.044,710, 346, 460, 21, -3, -9, -6, 14, 43, 941, 905, 184,P
2025-03-19 18:43:12.052,802, 541, 460, 41, 5, 0, -6, 12, 43, 949, 906, 202,P
2025-03-19 18:43:12.063,790, 626, 525, 43, 8, 6, -7, 12, 45, 955, 909, 179,P
2025-03-19 18:43:12.073,733, 919, 226, 29, 41, 37, -7, 12, 45, 960, 913, 124,P
2025-03-19 18:43:12.080,409, 811, 417, -20, 44, 49, -6, 14, 43, 965, 916, 15,P
2025-03-19 18:43:12.089,545, 902, 103, -45, 74, 75, -6, 13, 43, 967, 923, 19,P
2025-03-19 18:43:12.097,1040, 646, 402, -81, 67, 89, -6, 13, 45, 969, 924, 16,P
2025-03-19 18:43:12.107,523, 449, 383, -49, 62, 58, -5, 13, 44, 968, 929, 26,P
2025-03-19 18:43:12.117,834, 559, 404, -41, 46, 44, -6, 15, 43, 967, 932, 25,P
2025-03-19 18:43:12.126,1175, 427, 291, -55, 32, 35, -5, 16, 42, 967, 933, 20,P
2025-03-19 18:43:12.132,791, 497, 328, -34, 23, 22, -4, 14, 42, 965, 934, 20,P
2025-03-19 18:43:12.143,666, 597, 272, -31, 18, 15, -5, 16, 41, 961, 940, 22,P
2025-03-19 18:43:12.151,745, 619, 454, -46, 11, 10, -4, 17, 40, 959, 940, 4,P
2025-03-19 18:43:12.162,584, 327, 757, -21, -23, -13, -6, 18, 39, 953, 941, 10,P
2025-03-19 18:43:12.166,740, 63, 607, 13, -46, -47, -6, 18, 39, 946, 937, 4,P
2025-03-19 18:43:12.177,394, -17, 765, 72, -68, -72, -6, 15, 39, 942, 937, 41,P
2025-03-19 18:43:12.186,452, 225, 370, 64, -58, -84, -6, 16, 41, 942, 941, 145,P
2025-03-19 18:43:12.194,958, 744, 376, 60, -69, -69, -6, 14, 41, 944, 945, 386,P
2025-03-19 18:43:12.203,824, 935, 572, 15, -58, -45, -8, 16, 42, 950, 952, 430,P
2025-03-19 18:43:12.215,1230, 822, 232, -9, -40, -22, -7, 13, 44, 954, 957, 305,P
2025-03-19 18:43:12.224,640, 609, 413, -19, -31, -15, -6, 14, 44, 960, 961, 250,P
2025-03-19 18:43:12.232,765, 544, 527, -19, -27, -9, -7, 13, 46, 967, 965, 256,P
2025-03-19 18:43:12.240,679, 497, 521, -1, -21, -7, -8, 14, 45, 970, 966, 279,P
2025-03-19 18:43:12.249,612, 634, 432, 4, -15, -2, -6, 13, 46, 974, 966, 279,P
2025-03-19 18:43:12.257,669, 875, 347, -1, -4, 11, -7, 14, 46, 974, 965, 244,P
2025-03-19 18:43:12.266,535, 959, 85, -11, 17, 31, -7, 14, 46, 974, 963, 216,P
2025-03-19 18:43:12.277,780, 732, 277, -20, 31, 41, -5, 12, 47, 974, 962, 191,P
2025-03-19 18:43:12.282,684, 714, 196, -9, 40, 36, -8, 15, 44, 972, 959, 98,P
2025-03-19 18:43:12.294,502, 583, 320, -17, 43, 37, -6, 14, 45, 973, 957, 91,P
2025-03-19 18:43:12.298,564, 697, 419, -24, 41, 35, -6, 16, 44, 972, 950, 71,P
2025-03-19 18:43:12.311,699, 490, 488, -14, 32, 24, -5, 13, 45, 969, 943, 23,P
2025-03-19 18:43:12.322,583, 543, 457, -4, 24, 18, -6, 17, 44, 964, 935, 20,P
2025-03-19 18:43:12.330,704, 417, 411, 5, 19, 10, -4, 14, 43, 961, 920, 12,P
2025-03-19 18:43:12.338,764, 395, 359, 16, 18, -7, -6, 15, 44, 954, 908, 20,P
2025-03-19 18:43:12.347,896, 286, 294, 32, 22, -30, -6, 14, 44, 948, 898, 10,P
2025-03-19 18:43:12.354,932, 402, 287, 29, 28, -43, -6, 15, 43, 945, 887, 37,P
2025-03-19 18:43:12.364,857, 581, 321, 18, 33, -41, -6, 15, 43, 939, 878, 36,P
2025-03-19 18:43:12.375,754, 661, 355, -1, 33, -34, -7, 14, 44, 934, 871, 59,P
2025-03-19 18:43:12.381,676, 638, 417, -8, 28, -27, -6, 14, 41, 930, 866, 77,P
2025-03-19 18:43:12.392,627, 584, 523, -7, 21, -24, -6, 13, 41, 928, 863, 99,P
2025-03-19 18:43:12.399,619, 554, 608, -5, 12, -23, -6, 15, 40, 924, 866, 133,P
2025-03-19 18:43:12.408,565, 563, 641, -2, 3, -22, -6, 13, 42, 924, 867, 160,P
2025-03-19 18:43:12.417,534, 614, 620, 7, -4, -17, -7, 15, 39, 922, 867, 202,P
2025-03-19 18:43:13.022,688, 610, 425, 0, -1, 0, -6, 14, 40, 916, 833, 144,Q
2025-03-19 18:43:13.026,686, 608, 423, -2, 0, 1, -6, 14, 42, 917, 836, 144,Q
2025-03-19 18:43:13.040,686, 601, 442, -3, 0, 2, -6, 15, 42, 919, 839, 152,Q
2025-03-19 18:43:13.047,681, 592, 452, -2, 0, 2, -7, 13, 41, 921, 840, 148,Q
2025-03-19 18:43:13.056,673, 589, 457, -1, 0, 2, -7, 14, 43, 920, 844, 152,Q
2025-03-19 18:43:13.064,668, 585, 470, 1, -1, 2, -6, 14, 44, 922, 845, 145,Q
2025-03-19 18:43:13.076,680, 590, 464, 3, -2, 3, -7, 14, 42, 922, 847, 149,Q
2025-03-19 18:43:13.082,690, 595, 454, 2, -2, 4, -7, 14, 44, 922, 850, 134,Q
2025-03-19 18:43:13.092,692, 601, 443, 2, -3, 5, -8, 14, 44, 924, 850, 109,Q
2025-03-19 18:43:13.099,691, 604, 428, 1, -2, 5, -8, 14, 44, 925, 852, 101,Q
2025-03-19 18:43:13.109,693, 598, 424, 2, -3, 6, -6, 14, 42, 927, 859, 55,Q
2025-03-19 18:43:13.116,696, 605, 429, 2, -4, 7, -6, 13, 43, 930, 868, 37,Q
2025-03-19 18:43:13.125,698, 605, 429, 5, -4, 9, -7, 14, 43, 929, 874, 72,Q
2025-03-19 18:43:13.136,704, 598, 436, 5, -5, 10, -7, 12, 43, 932, 879, 100,Q
2025-03-19 18:43:13.145,676, 607, 460, 6, -6, 11, -9, 14, 44, 933, 886, 117,Q
2025-03-19 18:43:13.152,674, 593, 465, 5, -9, 10, -7, 14, 44, 933, 889, 128,Q
2025-03-19 18:43:13.160,647, 586, 471, 7, -12, 10, -6, 15, 43, 932, 892, 140,Q
2025-03-19 18:43:13.169,617, 590, 479, 7, -15, 10, -7, 12, 42, 933, 896, 143,Q
2025-03-19 18:43:13.177,587, 577, 502, 10, -21, 10, -7, 15, 44, 936, 900, 154,Q
2025-03-19 18:43:13.191,557, 552, 479, 7, -27, 4, -6, 12, 44, 935, 905, 160,Q
2025-03-19 18:43:13.198,624, 524, 411, 10, -28, -10, -6, 12, 44, 938, 909, 143,Q
2025-03-19 18:43:13.208,884, 482, 215, 11, -10, -23, -7, 13, 44, 937, 915, 154,Q
2025-03-19 18:43:13.215,625, 712, 550, -1, -16, -22, -7, 13, 45, 939, 921, 180,Q
2025-03-19 18:43:13.225,620, 701, 307, -22, -18, -23, -8, 15, 44, 941, 928, 171,Q
2025-03-19 18:43:13.233,822, 541, 380, -16, -13, -26, -5, 14, 46, 942, 931, 171,Q
2025-03-19 18:43:13.243,719, 635, 686, -22, -14, -25, -7, 16, 44, 944, 933, 139,Q
2025-03-19 18:43:13.251,719, 553, 491, -14, -8, -20, -5, 12, 46, 946, 935, 144,Q
2025-03-19 18:43:13.260,530, 452, 644, -4, -6, -24, -8, 15, 43, 947, 930, 137,Q
2025-03-19 18:43:13.267,809, 305, 657, 23, -9, -32, -5, 12, 44, 950, 927, 107,Q
2025-03-19 18:43:13.278,744, 201, 515, 69, -2, -37, -6, 13, 46, 957, 922, 23,Q
2025-03-19 18:43:13.288,785, 314, 565, 113, 0, -38, -4, 11, 47, 964, 919, 127,Q
2025-03-19 18:43:13.297,221, 1094, -171, 94, 20, -13, -4, 11, 47, 969, 920, 2,Q
2025-03-19 18:43:13.305,1281, 1430, -157, 13, 51, 26, -5, 12, 46, 971, 923, 13,Q
2025-03-19 18:43:13.313,814, 755, 67, -12, 54, 54, -2, 10, 47, 975, 933, 7,Q
2025-03-19 18:43:13.322,1176, 1087, -127, -58, 67, 85, -4, 12, 46, 975, 941, 12,Q
2025-03-19 18:43:13.330,307, 929, -117, -116, 67, 89, -3, 11, 44, 978, 948, 10,Q
2025-03-19 18:43:13.342,866, 373, 212, -104, 56, 75, -5, 15, 43, 979, 956, 13,Q
2025-03-19 18:43:13.350,821, 292, 320, -57, 43, 58, -4, 15, 44, 977, 961, 4,Q
2025-03-19 18:43:13.359,453, 638, 602, -72, 26, 42, -6, 16, 41, 976, 962, 11,Q
2025-03-19 18:43:13.367,622, 498, 763, -62, 7, 32, -5, 15, 43, 976, 966, 21,Q
2025-03-19 18:43:13.375,481, 561, 1005, -59, -11, 24, -7, 16, 40, 976, 967, 9,Q
2025-03-19 18:43:13.384,441, 234, 861, -22, -24, 6, -7, 15, 42, 973, 968, 9,Q
2025-03-19 18:43:13.395,368, 293, 869, -2, -34, -10, -7, 15, 42, 972, 965, 10,Q
2025-03-19 18:43:13.404,522, 164, 715, 26, -40, -30, -7, 16, 39, 965, 958, 20,Q
2025-03-19 18:43:13.412,603, 240, 510, 60, -34, -36, -6, 16, 43, 957, 947, 89,Q
2025-03-19 18:43:13.418,529, 338, 371, 65, -26, -44, -8, 15, 42, 950, 939, 64,Q
2025-03-19 18:43:13.427,795, 488, 192, 57, -8, -49, -7, 15, 43, 949, 933, 32,Q
2025-03-19 18:43:13.436,816, 571, 155, 29, 13, -50, -7, 15, 41, 947, 926, 22,Q
2025-03-19 18:43:13.446,755, 676, 230, -1, 27, -46, -6, 14, 44, 949, 922, 47,Q
2025-03-19 18:43:13.457,686, 763, 436, -24, 24, -28, -6, 15, 41, 949, 919, 24,Q
2025-03-19 18:43:13.461,688, 775, 545, -39, 11, -2, -6, 14, 42, 955, 920, 10,Q
2025-03-19 18:43:13.474,659, 739, 692, -38, -12, 30, -6, 15, 41, 960, 926, 10,Q
2025-03-19 18:43:13.482,681, 735, 776, -53, -31, 49, -6, 15, 41, 966, 937, 0,Q
2025-03-19 18:43:13.491,862, -403, 315, 17, -3, -13, -5, 15, 43, 970, 946, 2,Q
2025-03-19 18:43:13.499,854, 1395, 713, 24, -14, 19, -6, 15, 42, 975, 951, 10,Q
2025-03-19 18:43:13.510,742, 1003, 200, -78, -11, 28, -4, 17, 44, 978, 959, 10,Q
2025-03-19 18:43:13.516,796, 570, 96, -27, 10, 32, -5, 15, 44, 980, 963, 15,Q
2025-03-19 18:43:13.526,826, 1103, 279, -37, 9, 43, -4, 15, 44, 982, 966, 20,Q
2025-03-19 18:43:13.532,680, 530, 203, -36, 14, 47, -5, 17, 43, 982, 964, 20,Q
2025-03-19 18:43:13.544,913, 713, 428, -30, 15, 50, -6, 16, 44, 981, 963, 17,Q
2025-03-19 18:43:13.550,714, 497, 414, -23, 16, 47, -7, 17, 43, 980, 964, 22,Q
2025-03-19 18:43:13.563,628, 519, 494, -16, 17, 46, -6, 19, 45, 980, 959, 13,Q
2025-03-19 18:43:13.569,706, 395, 543, -3, 15, 35, -6, 18, 43, 976, 954, 8,Q
2025-03-19 18:43:13.578,693, 468, 562, -9, 13, 23, -6, 18, 43, 975, 947, 7,Q
2025-03-19 18:43:13.586,813, 137, 405, 12, 24, -8, -7, 18, 43, 969, 939, 25,Q
2025-03-19 18:43:13.596,824, 127, 347, 28, 37, -41, -7, 18, 41, 963, 929, 19,Q
2025-03-19 18:43:13.608,732, 349, 340, 43, 44, -58, -6, 18, 44, 957, 913, 19,Q
2025-03-19 18:43:13.616,640, 522, 343, 45, 46, -60, -6, 17, 43, 948, 891, 15,Q
2025-03-19 18:43:13.624,599, 568, 341, 39, 48, -58, -6, 19, 41, 939, 868, 15,Q
2025-03-19 18:43:13.631,588, 609, 440, 18, 46, -55, -6, 16, 41, 921, 832, 8,Q
2025-03-19 18:43:13.641,551, 635, 587, -3, 38, -48, -6, 16, 41, 907, 784, 14,Q
2025-03-19 18:43:13.649,563, 568, 731, -4, 23, -40, -6, 15, 40, 902, 759, 9,Q
2025-03-19 18:43:13.926,718, 604, 431, 0, -7, -1, -6, 15, 43, 892, 787, 165,R
2025-03-19 18:43:13.936,707, 595, 414, 1, -6, 0, -6, 15, 41, 893, 787, 161,R
2025-03-19 18:43:13.945,692, 589, 416, 3, -4, 0, -5, 14, 42, 893, 790, 160,R
2025-03-19 18:43:13.953,685, 589, 425, 1, -4, -2, -7, 15, 41, 894, 789, 169,R
2025-03-19 18:43:13.959,695, 577, 442, -1, -4, -3, -5, 14, 42, 892, 794, 176,R
2025-03-19 18:43:13.973,701, 577, 442, -1, -3, -4, -5, 14, 42, 893, 797, 197,R
2025-03-19 18:43:13.981,685, 585, 444, -1, -4, -5, -8, 14, 40, 889, 800, 216,R
2025-03-19 18:43:13.990,669, 589, 458, -3, -6, -5, -7, 14, 44, 890, 801, 231,R
2025-03-19 18:43:13.997,663, 590, 459, -4, -9, -5, -7, 14, 40, 890, 806, 228,R
2025-03-19 18:43:14.006,652, 600, 457, -5, -11, -5, -6, 14, 43, 889, 812, 234,R
2025-03-19 18:43:14.014,629, 594, 462, -2, -14, -6, -6, 14, 41, 888, 825, 237,R
2025-03-19 18:43:14.026,614, 590, 479, 1, -17, -7, -6, 14, 43, 885, 830, 238,R
2025-03-19 18:43:14.031,629, 601, 494, 0, -21, -7, -7, 15, 40, 885, 838, 245,R
2025-03-19 18:43:14.043,645, 616, 478, 2, -25, -6, -7, 14, 42, 883, 846, 280,R
2025-03-19 18:43:14.051,647, 610, 449, 5, -26, -5, -7, 13, 42, 883, 857, 304,R
2025-03-19 18:43:14.056,705, 570, 383, 2, -24, -8, -7, 13, 42, 884, 864, 308,R
2025-03-19 18:43:14.066,706, 559, 376, 5, -20, -12, -6, 12, 45, 887, 876, 316,R
2025-03-19 18:43:14.079,957, 475, 326, 3, -11, -21, -7, 13, 44, 890, 880, 305,R
2025-03-19 18:43:14.086,800, 648, 387, 8, -5, -17, -6, 14, 44, 897, 888, 252,R
2025-03-19 18:43:14.096,719, 673, 486, -13, -6, -14, -7, 13, 42, 909, 897, 250,R
2025-03-19 18:43:14.102,705, 574, 455, -11, -4, -9, -5, 13, 42, 914, 903, 257,R
2025-03-19 18:43:14.112,758, 497, 623, -4, -6, -8, -7, 13, 43, 929, 906, 249,R
2025-03-19 18:43:14.120,696, 353, 611, 15, -13, -13, -7, 13, 43, 940, 909, 239,R
2025-03-19 18:43:14.130,838, 450, 531, 31, -7, -9, -6, 13, 44, 954, 910, 168,R
2025-03-19 18:43:14.140,749, 638, 482, 32, 9, 8, -6, 12, 44, 959, 913, 136,R
2025-03-19 18:43:14.149,827, 1102, 236, 4, 39, 49, -6, 12, 44, 965, 914, 1,R
2025-03-19 18:43:14.156,784, 1299, 79, -35, 64, 76, -5, 14, 43, 967, 915, 4,R
2025-03-19 18:43:14.166,946, 616, 386, -54, 71, 84, -6, 14, 43, 967, 915, 18,R
2025-03-19 18:43:14.175,606, 404, 476, -50, 68, 73, -6, 15, 43, 967, 914, 13,R
2025-03-19 18:43:14.183,609, 311, 518, -37, 48, 59, -6, 15, 43, 969, 911, 16,R
2025-03-19 18:43:14.192,665, 486, 513, -43, 30, 37, -5, 14, 43, 968, 910, 17,R
2025-03-19 18:43:14.200,723, 593, 200, -5, 25, 28, -4, 17, 41, 964, 911, 11,R
2025-03-19 18:43:14.209,760, 584, 336, -22, 15, 19, -4, 17, 42, 959, 915, 19,R
2025-03-19 18:43:14.218,666, 700, 315, -34, 15, 13, -5, 17, 40, 956, 913, 23,R
2025-03-19 18:43:14.226,485, 205, 738, -23, -10, -22, -4, 15, 41, 952, 913, 14,R
2025-03-19 18:43:14.239,724, -119, 685, 33, -37, -61, -4, 16, 40, 941, 911, 9,R
2025-03-19 18:43:14.247,670, 74, 776, 86, -61, -92, -4, 16, 40, 931, 910, 13,R
2025-03-19 18:43:14.256,585, 175, 663, 106, -72, -98, -5, 13, 40, 929, 917, 127,R
2025-03-19 18:43:14.264,681, 644, 337, 94, -69, -88, -6, 13, 41, 936, 926, 335,R
2025-03-19 18:43:14.273,849, 1010, 202, 12, -50, -61, -6, 13, 42, 944, 938, 379,R
2025-03-19 18:43:14.280,695, 1103, 519, -37, -42, -22, -6, 13, 42, 954, 944, 382,R
2025-03-19 18:43:14.292,730, 721, 617, -64, -41, -5, -5, 10, 44, 963, 953, 260,R
2025-03-19 18:43:14.299,868, 321, 553, -31, -32, -1, -7, 14, 44, 967, 959, 246,R
2025-03-19 18:43:14.309,577, 582, 637, -22, -27, 1, -5, 10, 45, 972, 960, 219,R
2025-03-19 18:43:14.317,696, 557, 322, 13, -14, 11, -6, 14, 44, 976, 960, 192,R
2025-03-19 18:43:14.326,599, 931, 164, 0, 2, 24, -6, 12, 46, 976, 961, 115,R
2025-03-19 18:43:14.336,648, 897, 290, -28, 15, 31, -6, 14, 44, 978, 961, 103,R
2025-03-19 18:43:14.345,726, 617, 305, 3, 26, 33, -6, 14, 44, 978, 957, 78,R
2025-03-19 18:43:14.354,655, 574, 330, 24, 41, 45, -6, 13, 46, 978, 953, 4,R
2025-03-19 18:43:14.361,588, 828, 281, -15, 51, 51, -7, 15, 45, 977, 948, 10,R
2025-03-19 18:43:14.369,533, 606, 332, -34, 53, 68, -5, 13, 46, 975, 943, 9,R
2025-03-19 18:43:14.378,633, 226, 490, -40, 34, 37, -5, 16, 44, 977, 941, 12,R
2025-03-19 18:43:14.391,816, 445, 342, -16, 29, 33, -5, 14, 45, 974, 940, 11,R
2025-03-19 18:43:14.398,891, 630, 363, -39, 27, 35, -4, 16, 42, 975, 944, 25,R
2025-03-19 18:43:14.406,771, 650, 314, -44, 23, 33, -5, 15, 43, 975, 947, 23,R
2025-03-19 18:43:14.414,819, 587, 340, -38, 24, 35, -6, 17, 43, 976, 948, 20,R
2025-03-19 18:43:14.423,767, 504, 504, -42, 20, 32, -5, 15, 43, 975, 949, 19,R
2025-03-19 18:43:14.432,709, 390, 608, -20, 13, 24, -6, 17, 41, 974, 947, 13,R
2025-03-19 18:43:14.444,739, 344, 652, 3, 5, 15, -6, 17, 41, 971, 942, 7,R
2025-03-19 18:43:14.452,769, 350, 485, 13, 4, 5, -6, 16, 43, 967, 935, 22,R
2025-03-19 18:43:14.461,856, 271, 291, 25, 18, -18, -5, 18, 40, 965, 930, 20,R
2025-03-19 18:43:14.466,842, 338, 260, 30, 34, -40, -6, 15, 42, 957, 921, 12,R
2025-03-19 18:43:14.476,719, 510, 283, 30, 42, -49, -7, 16, 42, 946, 908, 22,R
2025-03-19 18:43:14.483,622, 546, 355, 30, 45, -52, -7, 14, 43, 934, 887, 12,R
2025-03-19 18:43:14.496,582, 546, 388, 24, 45, -52, -7, 16, 40, 929, 864, 12,R
2025-03-19 18:43:14.505,574, 571, 500, 8, 42, -49, -7, 15, 40, 924, 838, 16,R
2025-03-19 18:43:14.513,541, 659, 663, -7, 32, -42, -6, 15, 39, 917, 810, 12,R
2025-03-19 18:43:14.522,478, 703, 781, -15, 15, -34, -7, 14, 39, 915, 788, 0,R
2025-03-19 18:43:14.788,689, 606, 427, -8, -5, 1, -6, 14, 43, 913, 827, 71,S
2025-03-19 18:43:14.796,690, 589, 430, -9, -6, 2, -6, 14, 43, 913, 831, 74,S
2025-03-19 18:43:14.803,681, 580, 450, -8, -6, 2, -8, 15, 42, 914, 836, 73,S
2025-03-19 18:43:14.811,673, 587, 479, -8, -7, 3, -5, 12, 42, 917, 845, 76,S
2025-03-19 18:43:14.820,674, 591, 498, -8, -9, 5, -8, 14, 42, 916, 854, 77,S
2025-03-19 18:43:14.830,675, 589, 488, -7, -11, 6, -7, 15, 43, 918, 860, 83,S
2025-03-19 18:43:14.838,669, 574, 473, -6, -13, 7, -7, 15, 42, 919, 869, 86,S
2025-03-19 18:43:14.849,662, 578, 465, -4, -15, 7, -7, 15, 42, 921, 874, 89,S
2025-03-19 18:43:14.858,678, 581, 446, -4, -17, 7, -8, 15, 42, 921, 880, 86,S
2025-03-19 18:43:14.864,687, 593, 423, -6, -18, 7, -6, 12, 43, 924, 885, 99,S
2025-03-19 18:43:14.875,680, 603, 404, -6, -18, 6, -6, 15, 42, 926, 894, 139,S
2025-03-19 18:43:14.881,674, 599, 421, -9, -18, 7, -6, 15, 42, 927, 901, 141,S
2025-03-19 18:43:14.891,711, 573, 405, -15, -16, 5, -7, 14, 43, 927, 904, 165,S
2025-03-19 18:43:14.899,697, 574, 425, -12, -13, 2, -7, 15, 42, 929, 910, 185,S
2025-03-19 18:43:14.911,697, 550, 421, -13, -12, -7, -6, 15, 43, 932, 916, 171,S
2025-03-19 18:43:14.916,684, 536, 387, -13, -2, -8, -6, 16, 43, 931, 920, 172,S
2025-03-19 18:43:14.928,649, 628, 459, -13, -1, -9, -8, 12, 44, 935, 924, 161,S
2025-03-19 18:43:14.936,654, 508, 445, -9, -1, -11, -8, 15, 43, 936, 927, 152,S
2025-03-19 18:43:14.944,650, 492, 559, 3, 0, -13, -6, 15, 43, 935, 928, 144,S
2025-03-19 18:43:14.955,670, 474, 581, 16, -4, -16, -7, 16, 43, 939, 926, 122,S
2025-03-19 18:43:14.963,635, 495, 579, 20, -2, -15, -6, 14, 44, 945, 926, 131,S
2025-03-19 18:43:14.973,837, 502, 606, 23, -8, -14, -6, 16, 43, 953, 929, 122,S
2025-03-19 18:43:14.979,508, 515, 412, 33, -1, -14, -6, 16, 43, 957, 929, 112,S
2025-03-19 18:43:14.990,761, 411, 391, 42, 1, -12, -5, 14, 44, 963, 930, 15,S
2025-03-19 18:43:14.997,693, 653, 241, 33, 11, -8, -7, 14, 44, 967, 932, 17,S
2025-03-19 18:43:15.009,750, 723, 248, 33, 21, 6, -6, 14, 46, 969, 938, 11,S
2025-03-19 18:43:15.016,908, 851, 145, 7, 29, 25, -5, 15, 44, 971, 944, 2,S
2025-03-19 18:43:15.026,792, 962, 201, -31, 33, 42, -5, 15, 45, 977, 949, 15,S
2025-03-19 18:43:15.030,1013, 781, 319, -52, 35, 52, -6, 15, 44, 976, 952, 14,S
2025-03-19 18:43:15.042,400, 458, 330, -70, 38, 47, -6, 14, 44, 976, 953, 10,S
2025-03-19 18:43:15.050,459, 563, 437, -24, 35, 36, -6, 16, 43, 980, 956, 15,S
2025-03-19 18:43:15.062,639, 540, 489, -14, 26, 22, -4, 16, 44, 980, 956, 15,S
2025-03-19 18:43:15.069,618, 831, 465, -7, 23, 28, -4, 16, 44, 979, 955, 10,S
2025-03-19 18:43:15.077,626, 753, 533, -25, 21, 30, -5, 16, 42, 977, 954, 14,S
2025-03-19 18:43:15.086,632, 500, 561, -16, 18, 22, -7, 17, 43, 975, 948, 26,S
2025-03-19 18:43:15.094,686, 552, 509, -10, 13, 14, -5, 16, 43, 972, 938, 21,S
2025-03-19 18:43:15.102,458, 363, 389, 3, 13, 4, -5, 17, 41, 965, 925, 19,S
2025-03-19 18:43:15.110,409, 407, 322, 34, 20, -3, -4, 17, 42, 958, 902, 19,S
2025-03-19 18:43:15.124,699, 449, 423, 43, 19, -10, -5, 17, 41, 944, 867, 22,S
2025-03-19 18:43:15.131,775, 472, 354, 51, 17, -14, -5, 15, 42, 931, 828, 13,S
2025-03-19 18:43:15.140,963, 456, 385, 43, 13, -16, -5, 15, 42, 918, 805, 7,S
2025-03-19 18:43:15.149,1118, 372, 330, 20, 19, -27, -4, 15, 40, 913, 799, 5,S
2025-03-19 18:43:15.158,1088, 402, 282, 11, 30, -39, -4, 15, 39, 908, 797, 9,S
2025-03-19 18:43:15.166,963, 485, 307, 4, 38, -47, -4, 15, 39, 902, 798, 10,S
2025-03-19 18:43:15.176,746, 563, 370, -9, 40, -49, -4, 14, 39, 899, 794, 13,S
2025-03-19 18:43:15.183,640, 581, 425, -7, 37, -42, -5, 16, 37, 896, 802, 14,S
2025-03-19 18:43:15.191,525, 624, 556, -10, 29, -32, -5, 15, 38, 894, 812, 6,S
2025-03-19 18:43:15.200,503, 643, 723, -10, 15, -21, -5, 15, 37, 895, 818, 35,S
2025-03-19 18:43:15.208,478, 656, 807, -7, -2, -14, -5, 14, 36, 896, 819, 83,S
2025-03-19 18:43:15.222,476, 623, 792, -3, -13, -9, -8, 15, 36, 897, 828, 113,S
2025-03-19 18:43:15.230,459, 598, 705, 7, -25, -6, -5, 12, 38, 900, 837, 123,S
2025-03-19 18:43:15.239,481, 647, 581, 16, -31, -3, -7, 15, 38, 902, 845, 137,S
2025-03-19 18:43:15.489,671, 616, 450, 2, -5, 0, -5, 14, 41, 849, 749, 117,T
2025-03-19 18:43:15.496,660, 607, 451, 2, -6, 0, -7, 14, 40, 850, 748, 129,T
2025-03-19 18:43:15.507,651, 599, 451, 3, -6, 1, -6, 13, 41, 850, 747, 129,T
2025-03-19 18:43:15.516,649, 604, 457, 4, -7, 1, -7, 13, 40, 852, 751, 122,T
2025-03-19 18:43:15.525,659, 612, 459, 3, -8, 1, -7, 13, 43, 854, 750, 138,T
2025-03-19 18:43:15.532,656, 614, 449, 1, -8, -1, -7, 12, 41, 853, 757, 129,T
2025-03-19 18:43:15.542,655, 609, 442, -1, -9, -2, -6, 12, 41, 854, 758, 131,T
2025-03-19 18:43:15.553,636, 603, 448, -3, -10, -2, -6, 13, 41, 856, 760, 131,T
2025-03-19 18:43:15.562,633, 597, 443, -3, -12, -2, -5, 15, 42, 856, 763, 77,T
2025-03-19 18:43:15.570,616, 599, 449, -3, -13, -3, -5, 13, 41, 856, 768, 15,T
2025-03-19 18:43:15.579,611, 599, 450, -1, -16, -5, -5, 13, 41, 853, 766, 8,T
2025-03-19 18:43:15.586,621, 605, 461, 0, -20, -6, -6, 12, 41, 854, 779, 11,T
2025-03-19 18:43:15.595,588, 620, 494, 1, -26, -6, -6, 14, 41, 853, 789, 13,T
2025-03-19 18:43:15.601,688, 595, 438, -3, -27, -6, -5, 12, 42, 856, 809, 16,T
2025-03-19 18:43:15.615,934, 506, 208, -33, -10, -22, -5, 13, 43, 874, 836, 18,T
2025-03-19 18:43:15.624,840, 530, 445, 4, -9, -21, -5, 14, 42, 892, 855, 7,T
2025-03-19 18:43:15.632,656, 707, 520, -16, -13, -17, -6, 11, 43, 910, 874, 4,T
2025-03-19 18:43:15.641,925, 470, 316, 1, -9, -13, -6, 13, 43, 927, 893, 15,T
2025-03-19 18:43:15.649,779, 399, 397, 38, -8, -15, -6, 12, 43, 944, 912, 6,T
2025-03-19 18:43:15.658,919, 605, 575, 40, -21, -10, -7, 13, 42, 953, 928, 0,T
2025-03-19 18:43:15.668,1166, 912, 527, 7, -31, 7, -7, 13, 42, 961, 939, 138,T
2025-03-19 18:43:15.677,738, 1137, 526, -51, -39, 35, -6, 14, 44, 967, 945, 209,T
2025-03-19 18:43:15.681,740, 700, 55, -44, -25, 36, -6, 12, 46, 970, 953, 194,T
2025-03-19 18:43:15.693,298, 655, 120, -38, -13, 36, -4, 13, 45, 971, 955, 75,T
2025-03-19 18:43:15.698,873, 597, 241, -25, 5, 35, -5, 15, 46, 971, 955, 94,T
2025-03-19 18:43:15.711,536, 636, 410, -11, 0, 32, -5, 12, 46, 972, 954, 139,T
2025-03-19 18:43:15.722,546, 563, 370, -3, 7, 25, -7, 14, 47, 971, 954, 172,T
2025-03-19 18:43:15.730,575, 523, 525, 4, 6, 20, -7, 14, 46, 968, 947, 178,T
2025-03-19 18:43:15.738,513, 619, 560, 15, 4, 17, -7, 15, 46, 964, 939, 203,T
2025-03-19 18:43:15.747,569, 543, 473, 31, 2, 11, -7, 14, 45, 959, 928, 204,T
2025-03-19 18:43:15.755,582, 558, 445, 30, 3, 2, -7, 14, 46, 953, 921, 218,T
2025-03-19 18:43:15.763,596, 418, 312, 19, 11, -18, -7, 14, 46, 947, 914, 225,T
