Timestamp,Acc_X,Acc_Y,Acc_Z,Gyro_X,Gyro_Y,Gyro_Z,Mag_X,Mag_Y,Mag_Z,Force1,Force2,Force3,Letter
2025-03-19 18:04:16.481,268, 569, 791, 56, 0, -5, -19, 39, -47, 11, 494, 17,noise
2025-03-19 18:04:16.494,275, 610, 795, 52, -1, -8, -19, 36, -44, 30, 474, 27,noise
2025-03-19 18:04:16.501,276, 636, 782, 45, -1, -9, -20, 37, -45, 27, 467, 33,noise
2025-03-19 18:04:16.511,285, 645, 790, 34, -2, -6, -18, 36, -45, 20, 464, 28,noise
2025-03-19 18:04:16.516,289, 655, 791, 30, -2, -3, -20, 35, -44, 25, 466, 20,noise
2025-03-19 18:04:16.530,245, 637, 786, 29, 0, -1, -18, 33, -45, 31, 469, 18,noise
2025-03-19 18:04:16.539,218, 620, 791, 29, 3, 0, -19, 34, -45, 20, 468, 17,noise
2025-03-19 18:04:16.547,232, 625, 808, 27, 4, 0, -18, 33, -44, 19, 461, 10,noise
2025-03-19 18:04:16.556,257, 636, 814, 27, 3, 0, -18, 32, -45, 10, 467, 1,noise
2025-03-19 18:04:16.564,241, 653, 787, 32, 3, 0, -18, 32, -44, 5, 472, 1,noise
2025-03-19 18:04:16.573,245, 633, 772, 37, 2, 0, -18, 32, -44, 15, 462, 4,noise
2025-03-19 18:04:16.581,227, 629, 757, 48, 0, -1, -18, 29, -45, 27, 393, 15,noise
2025-03-19 18:04:16.592,222, 612, 742, 56, -3, -4, -18, 29, -45, 22, 375, 29,noise
2025-03-19 18:04:16.600,221, 604, 738, 72, -7, -7, -18, 28, -45, 29, 334, 19,noise
2025-03-19 18:04:16.609,223, 608, 746, 86, -13, -11, -17, 25, -45, 27, 288, 29,noise
2025-03-19 18:04:16.613,247, 644, 748, 99, -19, -19, -18, 25, -44, 22, 283, 27,noise
2025-03-19 18:04:16.626,243, 646, 744, 107, -25, -24, -17, 24, -45, 26, 215, 26,noise
2025-03-19 18:04:16.631,243, 658, 746, 121, -31, -27, -17, 20, -42, 21, 189, 35,noise
2025-03-19 18:04:16.645,257, 680, 734, 117, -36, -26, -17, 18, -43, 9, 189, 9,noise
2025-03-19 18:04:16.653,222, 900, 764, 4, -34, -10, -18, 15, -42, 12, 196, 12,noise
2025-03-19 18:04:16.662,307, 984, 626, 1, -32, 8, -18, 15, -42, 10, 202, 4,noise
2025-03-19 18:04:16.671,239, 824, 495, -8, -23, 17, -19, 16, -42, 20, 205, 17,noise
2025-03-19 18:04:16.679,237, 747, 509, -21, -13, 21, -18, 16, -40, 17, 208, 4,noise
2025-03-19 18:04:16.688,226, 725, 640, -34, -7, 23, -18, 17, -42, 21, 208, 131,noise
2025-03-19 18:04:16.699,225, 659, 688, -42, -4, 22, -19, 16, -39, 18, 221, 168,noise
2025-03-19 18:04:16.707,271, 627, 763, -45, -8, 18, -19, 17, -43, 20, 226, 197,noise
2025-03-19 18:04:16.714,299, 596, 794, -52, -13, 11, -17, 17, -40, 22, 239, 226,noise
2025-03-19 18:04:16.724,295, 594, 791, -52, -16, 3, -17, 19, -41, 20, 263, 248,noise
2025-03-19 18:04:16.731,285, 528, 708, -43, -16, -8, -18, 18, -38, 15, 265, 269,noise
2025-03-19 18:04:16.744,308, 505, 725, -14, -18, -20, -17, 17, -38, 16, 262, 253,noise
2025-03-19 18:04:16.750,283, 515, 753, 9, -20, -29, -17, 17, -38, 20, 277, 218,noise
2025-03-19 18:04:16.760,245, 513, 735, 28, -22, -36, -17, 17, -38, 22, 239, 152,noise
2025-03-19 18:04:16.765,221, 542, 674, 55, -23, -41, -17, 19, -38, 24, 171, 144,noise
2025-03-19 18:04:16.777,223, 621, 622, 75, -22, -45, -16, 17, -35, 23, 129, 34,noise
2025-03-19 18:04:16.785,228, 696, 564, 87, -19, -47, -16, 16, -36, 28, 54, 19,noise
2025-03-19 18:04:16.797,256, 760, 528, 93, -15, -44, -15, 14, -33, 26, 61, 30,noise
2025-03-19 18:04:16.805,278, 843, 534, 83, -12, -35, -15, 14, -35, 30, 61, 19,noise
2025-03-19 18:04:16.813,290, 886, 559, 59, -12, -28, -14, 14, -34, 20, 59, 35,noise
2025-03-19 18:04:16.822,286, 887, 548, 31, -12, -19, -15, 14, -36, 18, 54, 27,noise
2025-03-19 18:04:16.830,285, 850, 528, 8, -11, -12, -14, 13, -33, 15, 56, 13,noise
2025-03-19 18:04:16.840,289, 812, 537, -9, -9, -7, -16, 14, -36, 8, 48, 15,noise
2025-03-19 18:04:16.847,275, 802, 553, -20, -7, -4, -16, 14, -36, 11, 48, 7,noise
2025-03-19 18:04:16.858,332, 805, 621, -49, -4, 7, -17, 13, -35, 10, 63, 2,noise
2025-03-19 18:04:16.864,273, 893, 627, -62, -1, 15, -18, 14, -38, 19, 78, 15,noise
2025-03-19 18:04:16.875,337, 849, 607, -64, 4, 19, -17, 15, -36, 29, 80, 5,noise
2025-03-19 18:04:16.882,317, 838, 679, -72, 7, 21, -18, 16, -41, 30, 135, 15,noise
2025-03-19 18:04:16.891,322, 795, 705, -72, 10, 20, -18, 16, -39, 25, 94, 19,noise
2025-03-19 18:04:16.898,327, 696, 755, -63, 14, 16, -18, 20, -40, 24, 100, 29,noise
2025-03-19 18:04:16.911,284, 658, 792, -54, 13, 8, -18, 19, -38, 29, 106, 28,noise
2025-03-19 18:04:16.914,278, 590, 715, -38, 12, 0, -18, 20, -41, 20, 61, 18,noise
2025-03-19 18:04:16.928,264, 685, 667, 2, 18, -1, -18, 19, -39, 17, 12, 9,noise
2025-03-19 18:04:16.930,266, 714, 701, -2, 19, -4, -18, 19, -39, 14, 14, 17,noise
2025-03-19 18:04:16.945,238, 704, 728, -14, 17, -8, -18, 22, -42, 16, 15, 6,noise
2025-03-19 18:04:16.953,210, 699, 724, -21, 12, -10, -18, 18, -40, 19, 12, 7,noise
2025-03-19 18:04:16.962,209, 664, 723, -23, 5, -13, -18, 20, -43, 18, 10, 2,noise
2025-03-19 18:04:16.973,202, 645, 704, -10, 0, -13, -19, 20, -39, 19, 13, 5,noise
2025-03-19 18:04:16.980,221, 673, 683, -4, -3, -11, -18, 20, -41, 20, 9, 21,noise
2025-03-19 18:04:16.989,229, 699, 696, 1, -6, -8, -17, 19, -41, 22, 17, 27,noise
2025-03-19 18:04:16.997,354, 760, 670, -10, -10, -8, -17, 20, -41, 23, 16, 36,noise
2025-03-19 18:04:17.006,199, 728, 708, -26, -11, -5, -19, 19, -40, 19, 10, 14,noise
2025-03-19 18:04:17.014,163, 680, 734, -22, -11, -3, -18, 20, -41, 13, 15, 23,noise
2025-03-19 18:04:17.023,231, 656, 733, -11, -10, -2, -18, 20, -41, 21, 10, 1,noise
2025-03-19 18:04:17.031,270, 660, 721, -4, -7, 0, -18, 19, -39, 20, 14, 30,noise
2025-03-19 18:04:17.043,271, 686, 724, 1, -4, 2, -19, 21, -41, 15, 9, 24,noise
2025-03-19 18:04:17.050,269, 731, 729, 0, -2, 7, -18, 20, -39, 16, 14, 23,noise
2025-03-19 18:04:17.058,291, 767, 718, -17, 1, 10, -19, 20, -40, 16, 7, 7,noise
2025-03-19 18:04:17.066,343, 784, 706, -33, 7, 18, -18, 20, -39, 18, 7, 8,noise
2025-03-19 18:04:17.076,384, 765, 718, -47, 16, 32, -18, 21, -42, 24, 20, 25,noise
2025-03-19 18:04:17.084,362, 761, 725, -54, 25, 40, -17, 21, -41, 19, 10, 143,noise
2025-03-19 18:04:17.095,351, 725, 732, -67, 29, 45, -18, 22, -42, 118, 11, 171,noise
2025-03-19 18:04:17.104,379, 705, 760, -74, 31, 45, -18, 22, -42, 248, 16, 276,noise
2025-03-19 18:04:17.113,112, 766, 648, -117, 16, 37, -15, 23, -39, 408, 180, 344,noise
2025-03-19 18:04:17.122,92, 854, 717, -182, -2, 30, -16, 24, -41, 520, 272, 393,noise
2025-03-19 18:04:17.128,338, 577, 812, -163, -9, 34, -17, 26, -40, 565, 413, 431,noise
2025-03-19 18:04:17.141,329, 465, 826, -150, -14, 31, -16, 28, -39, 620, 532, 473,noise
2025-03-19 18:04:17.149,260, 447, 809, -148, -17, 26, -16, 31, -38, 598, 585, 496,noise
2025-03-19 18:04:17.157,288, 418, 766, -121, -19, 22, -17, 32, -36, 613, 607, 509,noise
2025-03-19 18:04:17.160,353, 427, 781, -86, -19, 17, -18, 34, -36, 638, 624, 523,noise
2025-03-19 18:04:17.175,339, 396, 783, -58, -20, 15, -18, 34, -35, 668, 646, 543,noise
2025-03-19 18:04:17.185,321, 416, 766, -35, -16, 16, -16, 37, -36, 703, 679, 555,noise
2025-03-19 18:04:17.194,299, 465, 774, -27, -13, 18, -17, 33, -34, 739, 696, 557,noise
2025-03-19 18:04:17.201,348, 416, 804, -42, -10, 16, -17, 37, -33, 770, 712, 557,noise
2025-03-19 18:04:17.211,367, 336, 779, -30, -9, 15, -18, 36, -33, 805, 712, 567,noise
2025-03-19 18:04:17.218,235, 369, 788, 12, -7, 10, -18, 36, -33, 828, 732, 566,noise
2025-03-19 18:04:17.228,192, 455, 789, 33, -8, 4, -18, 37, -33, 836, 732, 579,noise
2025-03-19 18:04:17.239,192, 528, 810, 33, -10, 2, -18, 36, -31, 843, 746, 582,noise
2025-03-19 18:04:17.247,238, 557, 829, 31, -13, 4, -18, 38, -31, 847, 754, 574,noise
2025-03-19 18:04:17.256,248, 603, 835, 25, -16, 9, -20, 35, -30, 851, 768, 579,noise
2025-03-19 18:04:17.264,223, 634, 849, 21, -19, 11, -19, 39, -33, 857, 769, 577,noise
2025-03-19 18:04:17.273,228, 626, 887, 21, -22, 14, -19, 37, -33, 859, 779, 576,noise
2025-03-19 18:04:17.280,294, 635, 921, 17, -23, 19, -19, 39, -33, 863, 781, 575,noise
2025-03-19 18:04:17.293,347, 654, 909, 6, -23, 23, -19, 35, -32, 861, 781, 568,noise
2025-03-19 18:04:17.300,386, 635, 863, -11, -21, 24, -18, 38, -32, 850, 774, 561,noise
2025-03-19 18:04:17.308,424, 572, 791, -26, -19, 21, -19, 37, -32, 849, 746, 534,noise
2025-03-19 18:04:17.317,415, 509, 747, -30, -13, 18, -18, 38, -32, 824, 712, 500,noise
2025-03-19 18:04:17.329,410, 474, 730, -26, -7, 11, -18, 38, -32, 815, 736, 476,noise
2025-03-19 18:04:17.338,337, 433, 742, -8, 0, 3, -18, 38, -30, 819, 741, 474,noise
2025-03-19 18:04:17.346,295, 381, 769, 10, 5, -6, -19, 38, -33, 723, 724, 371,noise
2025-03-19 18:04:17.355,332, 352, 788, 24, 7, -12, -18, 37, -30, 708, 720, 339,noise
2025-03-19 18:04:17.362,396, 482, 854, 6, 4, -16, -19, 39, -33, 708, 727, 282,noise
2025-03-19 18:04:17.372,302, 488, 833, 38, 2, -15, -19, 36, -32, 653, 742, 254,noise
2025-03-19 18:04:17.382,265, 540, 807, 36, 0, -14, -17, 38, -36, 489, 721, 222,noise
2025-03-19 18:04:17.392,305, 546, 793, 37, -3, -12, -18, 35, -33, 258, 689, 172,noise
2025-03-19 18:04:17.397,349, 550, 774, 32, -5, -10, -17, 35, -36, 34, 685, 153,noise
2025-03-19 18:04:17.408,317, 530, 765, 32, -5, -10, -18, 34, -34, 16, 668, 111,noise
2025-03-19 18:04:17.416,304, 491, 773, 41, -4, -10, -17, 35, -35, 25, 667, 129,noise
2025-03-19 18:04:17.427,355, 490, 768, 48, 1, -8, -17, 35, -35, 33, 668, 134,noise
2025-03-19 18:04:17.436,398, 511, 740, 77, 8, -5, -18, 32, -36, 33, 663, 143,noise
2025-03-19 18:04:17.444,517, 617, 803, 66, 10, -4, -17, 34, -37, 39, 655, 42,noise
2025-03-19 18:04:17.453,458, 680, 796, 52, 11, 0, -17, 33, -38, 36, 652, 37,noise
2025-03-19 18:04:17.461,397, 666, 785, 36, 9, 4, -18, 31, -38, 38, 642, 34,noise
2025-03-19 18:04:17.468,344, 638, 774, 19, 8, 8, -17, 29, -37, 32, 639, 40,noise
2025-03-19 18:04:17.477,362, 625, 797, 3, 4, 9, -16, 31, -38, 26, 622, 36,noise
2025-03-19 18:04:17.489,365, 565, 791, -3, 0, 8, -17, 28, -39, 28, 603, 36,noise
2025-03-19 18:04:17.497,348, 519, 783, -6, -3, 3, -17, 32, -39, 7, 589, 17,noise
2025-03-19 18:04:17.505,352, 500, 782, 0, -5, -3, -17, 32, -39, 7, 590, 18,noise
2025-03-19 18:04:17.514,357, 514, 779, 5, -7, -9, -17, 32, -39, 15, 584, 11,noise
2025-03-19 18:04:17.523,353, 530, 765, 9, -7, -13, -17, 30, -41, 27, 582, 22,noise
2025-03-19 18:04:17.531,335, 570, 752, 16, -8, -15, -18, 31, -37, 36, 575, 27,noise
2025-03-19 18:04:17.539,337, 600, 755, 18, -8, -16, -17, 30, -39, 38, 569, 34,noise
2025-03-19 18:04:17.551,339, 614, 751, 17, -9, -16, -17, 30, -37, 34, 569, 40,noise
2025-03-19 18:04:17.559,338, 616, 747, 16, -9, -16, -16, 33, -39, 36, 555, 37,noise
2025-03-19 18:04:17.564,345, 595, 745, 17, -9, -16, -18, 30, -38, 43, 529, 35,noise
2025-03-19 18:04:17.576,345, 590, 747, 19, -9, -16, -17, 29, -37, 38, 526, 33,noise
2025-03-19 18:04:17.583,331, 586, 744, 20, -8, -17, -17, 31, -37, 27, 507, 24,noise
2025-03-19 18:04:17.593,335, 583, 735, 25, -7, -17, -17, 29, -38, 13, 485, 22,noise
2025-03-19 18:04:17.604,338, 591, 743, 28, -4, -16, -17, 29, -38, 27, 484, 13,noise
2025-03-19 18:04:17.612,338, 602, 743, 27, -2, -14, -17, 28, -37, 34, 493, 25,noise
2025-03-19 18:04:17.621,368, 649, 756, 14, 0, -6, -19, 28, -39, 23, 511, 28,noise
2025-03-19 18:04:17.628,312, 708, 705, 6, 4, -3, -17, 29, -39, 26, 524, 24,noise
2025-03-19 18:04:17.637,353, 674, 703, 1, 6, 0, -18, 28, -37, 27, 531, 18,noise
2025-03-19 18:04:17.646,337, 645, 726, -5, 7, 1, -18, 29, -39, 23, 528, 15,noise
2025-03-19 18:04:17.655,340, 607, 750, -7, 5, 0, -18, 27, -37, 36, 527, 21,noise
2025-03-19 18:04:17.664,331, 591, 762, -7, 3, -2, -20, 27, -40, 43, 514, 27,noise
2025-03-19 18:04:17.673,318, 576, 764, -2, 1, -5, -17, 28, -38, 26, 521, 18,noise
2025-03-19 18:04:17.680,313, 574, 764, 6, -1, -6, -18, 30, -38, 30, 518, 16,noise
2025-03-19 18:04:17.690,323, 597, 756, 14, -2, -6, -18, 30, -38, 23, 518, 22,noise
2025-03-19 18:04:17.696,321, 634, 758, 11, -3, -5, -19, 26, -39, 42, 522, 28,noise
2025-03-19 18:04:17.707,310, 657, 749, 7, -3, -3, -18, 28, -38, 29, 510, 36,noise
2025-03-19 18:04:17.713,305, 649, 742, 4, -2, 0, -18, 27, -39, 25, 512, 32,noise
2025-03-19 18:04:17.727,306, 634, 735, 2, -1, 1, -19, 27, -40, 22, 509, 22,noise
2025-03-19 18:04:17.732,309, 630, 736, 1, -1, 1, -18, 27, -37, 29, 495, 16,noise
2025-03-19 18:04:17.743,319, 614, 746, -2, -1, 1, -18, 27, -38, 28, 491, 18,noise
2025-03-19 18:04:17.751,341, 609, 749, -1, 0, 0, -19, 27, -38, 26, 494, 21,noise
2025-03-19 18:04:17.760,340, 614, 740, -1, 0, -1, -18, 28, -40, 24, 498, 21,noise
2025-03-19 18:04:17.765,343, 633, 736, -2, 0, -1, -18, 28, -40, 26, 510, 23,noise
2025-03-19 18:04:17.777,340, 656, 732, -6, 0, -1, -18, 27, -38, 40, 520, 32,noise
2025-03-19 18:04:17.788,332, 660, 733, -14, 0, 0, -18, 29, -40, 35, 524, 34,noise
2025-03-19 18:04:17.796,335, 662, 721, -29, 0, 0, -18, 26, -38, 32, 528, 35,noise
2025-03-19 18:04:17.805,336, 658, 725, -43, 1, 1, -17, 28, -39, 31, 544, 30,noise
2025-03-19 18:04:17.813,319, 658, 730, -60, 4, 2, -18, 27, -39, 26, 564, 31,noise
2025-03-19 18:04:17.823,330, 659, 735, -79, 6, 3, -18, 29, -39, 28, 591, 16,noise
2025-03-19 18:04:17.830,333, 648, 764, -97, 8, 4, -17, 27, -36, 18, 594, 28,noise
2025-03-19 18:04:17.839,336, 599, 742, -86, 9, 4, -18, 33, -41, 17, 590, 4,noise
2025-03-19 18:04:17.847,317, 563, 761, -75, 6, 3, -16, 32, -38, 14, 562, 9,noise
2025-03-19 18:04:17.858,324, 538, 793, -66, 0, 1, -16, 32, -38, 16, 546, 11,noise
2025-03-19 18:04:17.864,348, 499, 800, -43, -10, -6, -17, 35, -41, 44, 525, 32,noise
2025-03-19 18:04:17.875,405, 456, 839, 1, -21, -13, -16, 33, -38, 158, 499, 40,noise
2025-03-19 18:04:17.883,430, 478, 875, 37, -29, -17, -18, 35, -41, 260, 449, 39,noise
2025-03-19 18:04:17.895,342, 505, 893, 43, -38, -18, -16, 31, -38, 303, 389, 37,noise
2025-03-19 18:04:17.903,268, 502, 833, 43, -38, -17, -19, 32, -39, 395, 389, 40,noise
2025-03-19 18:04:17.912,256, 515, 791, 50, -35, -16, -16, 30, -37, 419, 383, 44,noise
2025-03-19 18:04:17.919,285, 581, 727, 55, -32, -15, -18, 31, -36, 431, 386, 39,noise
2025-03-19 18:04:17.928,337, 646, 720, 50, -28, -14, -18, 28, -35, 445, 407, 29,noise
2025-03-19 18:04:17.932,355, 680, 720, 42, -27, -11, -20, 29, -37, 436, 416, 23,noise
2025-03-19 18:04:17.945,351, 716, 739, 28, -27, -7, -18, 26, -33, 438, 430, 17,noise
2025-03-19 18:04:17.956,333, 700, 742, 8, -28, 0, -18, 26, -33, 436, 424, 29,noise
2025-03-19 18:04:17.964,326, 683, 713, -4, -28, 5, -18, 29, -35, 438, 434, 28,noise
2025-03-19 18:04:17.973,325, 644, 717, -9, -27, 10, -20, 26, -32, 432, 433, 27,noise
2025-03-19 18:04:17.981,336, 626, 739, -9, -28, 13, -19, 27, -34, 428, 432, 28,noise
2025-03-19 18:04:17.989,359, 600, 759, -5, -30, 14, -18, 25, -31, 420, 441, 18,noise
2025-03-19 18:04:18.000,356, 584, 769, -3, -32, 13, -19, 27, -33, 425, 456, 25,noise
2025-03-19 18:04:18.009,394, 565, 775, -3, -33, 9, -20, 25, -31, 418, 485, 24,noise
2025-03-19 18:04:18.015,393, 579, 768, -12, -30, 6, -20, 26, -32, 398, 524, 22,noise
2025-03-19 18:04:18.026,425, 605, 749, -19, -27, 4, -18, 25, -29, 309, 545, 22,noise
2025-03-19 18:04:18.032,449, 614, 726, -17, -23, 1, -19, 26, -30, 180, 571, 10,noise
2025-03-19 18:04:18.041,467, 580, 708, -13, -20, -5, -19, 25, -29, 14, 589, 6,noise
2025-03-19 18:04:18.055,462, 547, 711, -8, -17, -14, -19, 25, -29, 22, 591, 13,noise
2025-03-19 18:04:18.063,466, 534, 726, 1, -17, -21, -19, 25, -29, 42, 598, 32,noise
2025-03-19 18:04:18.072,460, 563, 747, 7, -18, -26, -17, 24, -28, 37, 621, 38,noise
2025-03-19 18:04:18.079,447, 588, 758, 10, -19, -29, -19, 24, -27, 46, 624, 31,noise
2025-03-19 18:04:18.088,421, 625, 757, 7, -21, -29, -18, 22, -26, 33, 641, 39,noise
2025-03-19 18:04:18.096,370, 648, 756, -2, -24, -25, -18, 22, -26, 41, 693, 44,noise
2025-03-19 18:04:18.108,358, 603, 717, 9, -20, -17, -18, 23, -25, 45, 711, 35,noise
2025-03-19 18:04:18.114,409, 726, 706, -1, -19, -15, -19, 22, -24, 36, 730, 27,noise
2025-03-19 18:04:18.125,465, 767, 732, -29, -19, -9, -16, 20, -22, 16, 740, 43,noise
2025-03-19 18:04:18.132,457, 706, 753, -64, -19, -3, -19, 22, -20, 22, 753, 13,noise
2025-03-19 18:04:18.140,445, 611, 742, -78, -16, 0, -19, 22, -20, 17, 778, 16,noise
2025-03-19 18:04:18.148,413, 543, 748, -69, -13, 0, -18, 22, -20, 21, 788, 120,noise
2025-03-19 18:04:18.160,412, 475, 770, -56, -13, -3, -17, 22, -18, 23, 789, 172,noise
2025-03-19 18:04:18.164,386, 455, 751, -42, -14, -8, -18, 23, -18, 27, 793, 183,noise
2025-03-19 18:04:18.177,369, 446, 745, -30, -16, -13, -17, 23, -16, 29, 797, 180,noise
2025-03-19 18:04:18.185,352, 473, 717, -13, -17, -13, -18, 22, -16, 27, 800, 177,noise
2025-03-19 18:04:18.194,351, 518, 704, -5, -18, -12, -17, 22, -14, 23, 799, 165,noise
2025-03-19 18:04:18.205,369, 566, 689, -11, -20, -9, -17, 22, -13, 32, 799, 136,noise
2025-03-19 18:04:18.213,362, 576, 681, -17, -22, -5, -17, 21, -12, 35, 790, 95,noise
2025-03-19 18:04:18.223,355, 574, 654, -20, -24, 0, -17, 24, -11, 26, 783, 81,noise
2025-03-19 18:04:18.231,353, 530, 645, -23, -23, 2, -16, 21, -10, 35, 785, 63,noise
2025-03-19 18:04:18.239,358, 512, 640, -15, -21, 4, -16, 21, -10, 21, 778, 60,noise
2025-03-19 18:04:18.247,420, 499, 688, -11, -20, 11, -17, 23, -11, 39, 769, 77,noise
2025-03-19 18:04:18.259,357, 563, 678, -11, -19, 18, -17, 21, -11, 40, 764, 95,noise
2025-03-19 18:04:18.264,376, 569, 632, -8, -14, 26, -17, 24, -11, 219, 754, 110,noise
2025-03-19 18:04:18.274,371, 586, 655, -13, -10, 32, -17, 22, -9, 356, 737, 119,noise
2025-03-19 18:04:18.281,365, 569, 677, -17, -7, 35, -18, 26, -11, 477, 732, 123,noise
2025-03-19 18:04:18.290,383, 544, 710, -21, -6, 36, -16, 25, -8, 561, 724, 133,noise
2025-03-19 18:04:18.300,381, 506, 734, -22, -7, 35, -16, 27, -10, 614, 716, 126,noise
2025-03-19 18:04:18.312,396, 449, 727, -18, -6, 31, -17, 26, -9, 645, 713, 122,noise
2025-03-19 18:04:18.322,425, 430, 723, -5, -3, 25, -16, 28, -11, 670, 698, 139,noise
2025-03-19 18:04:18.329,442, 424, 716, 5, 0, 18, -16, 28, -10, 685, 686, 136,noise
2025-03-19 18:04:18.338,443, 462, 720, 13, 4, 13, -16, 28, -10, 696, 685, 143,noise
2025-03-19 18:04:18.346,439, 513, 728, 15, 6, 8, -17, 30, -14, 705, 676, 154,noise
2025-03-19 18:04:18.355,443, 547, 745, 12, 6, 8, -16, 27, -11, 710, 659, 159,noise
2025-03-19 18:04:18.363,431, 582, 756, 8, 5, 9, -16, 29, -13, 707, 639, 154,noise
2025-03-19 18:04:18.374,421, 600, 760, 5, 2, 12, -17, 29, -12, 709, 622, 167,noise
2025-03-19 18:04:18.381,430, 602, 794, 9, -2, 14, -17, 31, -14, 708, 608, 170,noise
2025-03-19 18:04:18.391,448, 573, 811, 18, -5, 14, -16, 29, -12, 687, 569, 186,noise
2025-03-19 18:04:18.396,492, 560, 842, 27, -7, 11, -16, 31, -15, 670, 535, 182,noise
2025-03-19 18:04:18.411,551, 577, 863, 34, -9, 7, -14, 29, -13, 658, 442, 170,noise
2025-03-19 18:04:19.685,791, 629, 549, 22, -17, -28, -16, 19, 21, 955, 928, 637,A
2025-03-19 18:04:19.691,825, 676, 511, 19, -18, -27, -14, 18, 20, 955, 929, 646,A
2025-03-19 18:04:19.704,784, 704, 456, 13, -17, -24, -15, 19, 22, 958, 930, 654,A
2025-03-19 18:04:19.713,729, 678, 413, 8, -15, -22, -15, 18, 22, 957, 934, 654,A
2025-03-19 18:04:19.722,694, 599, 426, 7, -12, -21, -15, 18, 23, 957, 933, 655,A
2025-03-19 18:04:19.729,650, 573, 389, 11, -10, -21, -15, 17, 22, 958, 938, 658,A
2025-03-19 18:04:19.738,640, 579, 371, 12, -7, -21, -15, 19, 22, 958, 937, 656,A
2025-03-19 18:04:19.747,662, 611, 382, 13, -5, -18, -15, 19, 22, 960, 940, 665,A
2025-03-19 18:04:19.758,666, 647, 401, 11, -5, -13, -14, 16, 23, 961, 940, 665,A
2025-03-19 18:04:19.764,668, 667, 386, 8, -5, -7, -15, 19, 23, 961, 942, 676,A
2025-03-19 18:04:19.776,679, 672, 396, 8, -7, -2, -13, 18, 23, 961, 941, 675,A
2025-03-19 18:04:19.782,722, 656, 387, 6, -8, 0, -15, 18, 24, 961, 944, 677,A
2025-03-19 18:04:19.792,742, 634, 372, 4, -9, -1, -12, 18, 23, 962, 944, 681,A
2025-03-19 18:04:19.804,763, 607, 344, 1, -8, -5, -16, 19, 23, 962, 944, 686,A
2025-03-19 18:04:19.812,770, 594, 336, -2, -7, -8, -14, 18, 22, 963, 947, 687,A
2025-03-19 18:04:19.820,734, 613, 332, -6, -6, -9, -14, 19, 23, 963, 947, 687,A
2025-03-19 18:04:19.828,703, 633, 368, -7, -7, -7, -14, 16, 23, 963, 950, 685,A
2025-03-19 18:04:19.836,677, 632, 418, -8, -9, -4, -14, 18, 23, 963, 950, 689,A
2025-03-19 18:04:19.845,658, 621, 462, -9, -13, 0, -14, 18, 23, 964, 950, 691,A
2025-03-19 18:04:19.856,629, 612, 502, -8, -19, 3, -13, 17, 24, 964, 951, 698,A
2025-03-19 18:04:19.865,639, 606, 525, -5, -24, 5, -15, 20, 23, 962, 952, 700,A
2025-03-19 18:04:19.873,651, 595, 510, -3, -31, 8, -13, 17, 23, 964, 952, 696,A
2025-03-19 18:04:19.881,631, 603, 502, 2, -37, 10, -14, 20, 23, 965, 954, 699,A
2025-03-19 18:04:19.889,677, 524, 439, 6, -40, 9, -13, 18, 25, 965, 955, 698,A
2025-03-19 18:04:19.895,682, 570, 537, 8, -44, 11, -14, 19, 24, 967, 957, 695,A
2025-03-19 18:04:19.909,658, 580, 483, 7, -48, 10, -14, 18, 26, 967, 960, 677,A
2025-03-19 18:04:19.912,1879, 262, 192, 11, -24, -17, -15, 19, 24, 970, 962, 659,A
2025-03-19 18:04:19.927,765, 915, 437, -7, -24, -11, -12, 17, 27, 972, 962, 631,A
2025-03-19 18:04:19.935,750, 509, 267, -24, -21, -6, -14, 20, 26, 974, 962, 610,A
2025-03-19 18:04:19.943,719, 414, 397, -4, -20, -12, -14, 20, 26, 975, 964, 595,A
2025-03-19 18:04:19.955,708, 446, 467, 5, -22, -17, -12, 17, 28, 976, 964, 573,A
2025-03-19 18:04:19.962,679, 420, 463, 14, -22, -22, -12, 19, 27, 975, 962, 548,A
2025-03-19 18:04:19.972,708, 539, 368, 31, -7, -18, -13, 18, 30, 975, 960, 530,A
2025-03-19 18:04:19.979,618, 573, 169, 47, 15, -7, -13, 18, 29, 977, 959, 522,A
2025-03-19 18:04:19.988,489, 823, 319, 45, 31, 2, -12, 16, 30, 978, 956, 495,A
2025-03-19 18:04:19.998,730, 737, 395, 16, 24, -2, -12, 20, 28, 978, 956, 434,A
2025-03-19 18:04:20.008,772, 848, 85, -2, 46, 20, -12, 17, 30, 976, 950, 393,A
2025-03-19 18:04:20.014,861, 658, 140, -11, 49, 29, -11, 18, 29, 976, 946, 350,A
2025-03-19 18:04:20.025,690, 457, 88, -28, 42, 8, -9, 18, 29, 976, 941, 321,A
2025-03-19 18:04:20.033,778, 684, 68, -17, 38, 4, -11, 19, 26, 978, 945, 300,A
2025-03-19 18:04:20.042,763, 888, 136, -14, 29, 7, -10, 19, 27, 974, 947, 287,A
2025-03-19 18:04:20.050,909, 964, 53, -23, 34, 19, -10, 19, 27, 975, 947, 392,A
2025-03-19 18:04:20.061,748, 871, 526, -43, 9, 19, -11, 20, 24, 969, 945, 486,A
2025-03-19 18:04:20.070,745, 328, 602, -48, -17, -10, -11, 20, 26, 969, 946, 542,A
2025-03-19 18:04:20.078,741, 12, 486, -33, -26, -46, -14, 21, 25, 967, 947, 566,A
2025-03-19 18:04:20.086,630, 192, 646, -12, -32, -60, -13, 19, 26, 967, 950, 610,A
2025-03-19 18:04:20.098,548, 606, 789, -4, -45, -43, -14, 20, 24, 968, 954, 630,A
2025-03-19 18:04:20.107,473, 812, 686, -12, -53, -15, -13, 18, 25, 968, 955, 647,A
2025-03-19 18:04:20.115,536, 717, 674, -13, -58, 8, -13, 18, 26, 968, 959, 652,A
2025-03-19 18:04:20.124,734, 421, 527, -15, -26, -22, -13, 18, 27, 972, 964, 631,A
2025-03-19 18:04:20.131,771, 381, 696, 2, -29, -23, -13, 18, 28, 975, 966, 620,A
2025-03-19 18:04:20.143,736, 579, 525, -7, -37, -21, -12, 18, 28, 977, 971, 588,A
2025-03-19 18:04:20.151,741, 410, 316, 14, -32, -26, -12, 18, 28, 977, 969, 591,A
2025-03-19 18:04:20.158,885, 851, 157, 26, -18, -9, -12, 17, 30, 978, 968, 611,A
2025-03-19 18:04:20.167,874, 1077, -20, 9, -5, 16, -12, 20, 30, 978, 965, 609,A
2025-03-19 18:04:20.176,740, 828, -98, -2, 18, 31, -12, 18, 30, 977, 965, 606,A
2025-03-19 18:04:20.181,603, 803, -45, -21, 42, 51, -11, 19, 31, 977, 966, 578,A
2025-03-19 18:04:20.197,733, 822, 183, -18, 51, 51, -12, 21, 29, 975, 966, 535,A
2025-03-19 18:04:20.205,721, 635, 254, -19, 50, 44, -12, 20, 29, 976, 966, 487,A
2025-03-19 18:04:20.214,741, 814, 384, -22, 52, 44, -12, 21, 30, 976, 964, 429,A
2025-03-19 18:04:20.222,614, 622, 457, -25, 48, 36, -12, 21, 28, 974, 964, 448,A
2025-03-19 18:04:20.230,684, 500, 443, -19, 43, 19, -13, 20, 29, 974, 957, 467,A
2025-03-19 18:04:20.241,717, 419, 382, -15, 41, -5, -12, 21, 27, 973, 959, 486,A
2025-03-19 18:04:20.245,658, 382, 395, -10, 39, -20, -12, 20, 28, 972, 954, 499,A
2025-03-19 18:04:20.258,511, 434, 561, 4, 24, -34, -12, 20, 28, 971, 953, 520,A
2025-03-19 18:04:20.264,401, 500, 683, 18, -1, -37, -12, 19, 25, 969, 947, 538,A
2025-03-19 18:04:20.274,345, 601, 771, 22, -28, -27, -11, 20, 25, 971, 943, 555,A
2025-03-19 18:04:20.287,370, 623, 846, 25, -53, -8, -14, 20, 25, 969, 942, 559,A
2025-03-19 18:04:20.295,625, 500, 679, 40, -63, 7, -13, 20, 25, 968, 946, 478,A
2025-03-19 18:04:20.303,1921, -525, 136, 31, -25, -33, -13, 21, 25, 974, 952, 528,A
2025-03-19 18:04:20.312,878, 941, 600, -9, -31, -21, -12, 20, 26, 976, 960, 501,A
2025-03-19 18:04:20.321,895, 699, 30, -27, -24, -8, -12, 21, 27, 975, 967, 400,A
2025-03-19 18:04:20.328,803, 312, 226, 12, -15, -14, -13, 18, 28, 976, 972, 339,A
2025-03-19 18:04:20.339,895, 748, 227, 13, -12, -5, -13, 20, 27, 978, 973, 405,A
2025-03-19 18:04:20.345,938, 949, 143, -13, -5, 12, -13, 19, 30, 982, 974, 447,A
2025-03-19 18:04:20.357,890, 584, -45, -2, 11, 18, -13, 19, 29, 981, 975, 520,A
2025-03-19 18:04:20.362,676, 955, 149, -26, 20, 32, -13, 19, 29, 982, 976, 576,A
2025-03-19 18:04:20.374,859, 782, 241, -26, 27, 41, -12, 19, 30, 979, 974, 610,A
2025-03-19 18:04:20.381,748, 549, 344, -10, 28, 38, -12, 21, 27, 977, 972, 611,A
2025-03-19 18:04:20.393,868, 419, 453, -14, 34, 19, -12, 20, 28, 975, 971, 627,A
2025-03-19 18:04:20.401,887, 347, 383, -24, 44, -12, -15, 20, 27, 975, 971, 634,A
2025-03-19 18:04:20.409,797, 353, 286, -28, 55, -39, -14, 20, 29, 972, 970, 639,A
2025-03-19 18:04:20.415,729, 407, 230, -25, 63, -56, -16, 21, 26, 971, 968, 645,A
2025-03-19 18:04:20.425,630, 621, 325, -24, 61, -58, -14, 19, 26, 968, 967, 648,A
2025-03-19 18:04:20.438,556, 689, 450, -23, 52, -50, -14, 20, 25, 970, 965, 654,A
2025-03-19 18:04:20.445,527, 638, 544, -21, 42, -41, -13, 19, 25, 969, 964, 652,A
2025-03-19 18:04:20.456,500, 585, 635, -17, 31, -35, -14, 20, 24, 971, 962, 651,A
2025-03-19 18:04:20.463,473, 593, 772, -13, 17, -29, -13, 20, 25, 969, 959, 648,A
2025-03-19 18:04:20.475,445, 545, 757, -9, 4, -25, -13, 20, 25, 969, 958, 641,A
2025-03-19 18:04:20.481,438, 593, 715, 0, -6, -20, -16, 19, 24, 965, 953, 636,A
2025-03-19 18:04:20.490,487, 640, 665, 8, -13, -13, -13, 19, 23, 965, 949, 634,A
2025-03-19 18:04:20.500,541, 677, 615, 14, -20, -3, -15, 19, 22, 963, 946, 634,A
2025-03-19 18:04:20.507,559, 678, 580, 15, -27, 5, -13, 18, 25, 963, 944, 630,A
2025-03-19 18:04:20.515,576, 646, 518, 19, -32, 10, -14, 20, 23, 963, 942, 629,A
2025-03-19 18:04:20.528,628, 628, 464, 22, -34, 13, -15, 19, 25, 963, 942, 629,A
2025-03-19 18:04:20.537,700, 624, 415, 25, -35, 14, -12, 19, 25, 962, 941, 628,A
2025-03-19 18:04:20.545,704, 652, 358, 23, -32, 17, -12, 17, 25, 962, 940, 628,A
2025-03-19 18:04:20.554,722, 661, 329, 18, -27, 18, -15, 19, 27, 961, 939, 623,A
2025-03-19 18:04:20.562,751, 624, 312, 13, -23, 18, -13, 17, 27, 963, 942, 616,A
2025-03-19 18:04:20.573,766, 592, 289, 8, -17, 14, -13, 20, 25, 963, 941, 610,A
2025-03-19 18:04:20.581,776, 578, 299, 6, -12, 9, -13, 20, 25, 964, 941, 604,A
2025-03-19 18:04:20.590,799, 582, 305, 6, -6, 6, -13, 19, 27, 960, 940, 604,A
2025-03-19 18:04:20.597,791, 614, 303, 2, -1, 5, -13, 20, 25, 961, 940, 603,A
2025-03-19 18:04:20.607,784, 627, 295, -6, 3, 4, -12, 18, 27, 962, 939, 599,A
2025-03-19 18:04:20.613,773, 616, 313, -11, 8, 2, -14, 21, 27, 961, 938, 587,A
2025-03-19 18:04:20.627,756, 598, 349, -14, 11, 1, -13, 18, 28, 961, 938, 576,A
2025-03-19 18:04:20.631,727, 590, 382, -14, 14, -1, -14, 19, 26, 961, 939, 569,A
2025-03-19 18:04:20.642,705, 586, 410, -14, 15, -2, -12, 19, 27, 960, 939, 554,A
2025-03-19 18:04:20.650,678, 597, 418, -13, 14, -2, -14, 20, 24, 960, 938, 539,A
2025-03-19 18:04:20.660,680, 601, 425, -12, 14, -2, -12, 19, 27, 961, 937, 523,A
2025-03-19 18:04:20.672,680, 596, 455, -10, 12, -3, -14, 20, 24, 961, 937, 521,A
2025-03-19 18:04:20.679,684, 599, 459, -10, 10, -3, -14, 20, 24, 960, 934, 512,A
2025-03-19 18:04:20.688,672, 621, 443, -10, 9, -2, -14, 19, 26, 958, 931, 505,A
2025-03-19 18:04:20.696,662, 610, 433, -9, 9, -1, -14, 19, 25, 957, 927, 495,A
2025-03-19 18:04:20.705,656, 604, 442, -7, 7, 0, -14, 19, 25, 955, 925, 488,A
2025-03-19 18:04:20.712,657, 583, 452, -4, 6, 1, -14, 20, 24, 955, 926, 490,A
2025-03-19 18:04:20.724,664, 581, 478, -3, 5, 1, -12, 20, 25, 953, 925, 490,A
2025-03-19 18:04:20.731,672, 589, 468, -2, 2, 1, -13, 20, 25, 952, 921, 496,A
2025-03-19 18:04:20.742,677, 596, 451, -1, 0, 0, -14, 21, 25, 951, 921, 495,A
2025-03-19 18:04:20.748,679, 590, 444, 1, 0, 1, -14, 19, 24, 953, 920, 493,A
2025-03-19 18:04:20.756,678, 581, 449, 2, 0, 1, -15, 20, 25, 952, 920, 482,A
2025-03-19 18:04:20.765,676, 582, 440, 2, -1, 0, -15, 20, 25, 952, 920, 486,A
2025-03-19 18:04:20.773,680, 602, 435, 2, -2, 0, -13, 20, 24, 952, 919, 484,A
2025-03-19 18:04:20.787,693, 601, 423, 2, -2, -1, -15, 20, 25, 954, 920, 492,A
2025-03-19 18:04:20.794,700, 599, 428, 4, -1, 0, -13, 19, 24, 953, 917, 493,A
2025-03-19 18:04:20.803,689, 611, 428, 1, -1, 1, -13, 20, 24, 955, 921, 494,A
2025-03-19 18:04:20.811,685, 623, 430, -1, -2, 1, -14, 19, 25, 955, 919, 481,A
2025-03-19 18:04:20.820,689, 604, 418, -3, -2, 1, -14, 21, 25, 953, 920, 474,A
2025-03-19 18:04:20.828,687, 597, 417, -2, -1, 0, -12, 20, 25, 952, 919, 472,A
2025-03-19 18:04:20.840,681, 585, 436, 1, -1, 1, -15, 19, 23, 953, 921, 470,A
2025-03-19 18:04:20.845,678, 604, 449, 1, -2, 2, -12, 20, 25, 956, 921, 462,A
2025-03-19 18:04:20.856,680, 617, 436, -1, -3, 2, -14, 21, 24, 953, 919, 453,A
2025-03-19 18:04:20.864,692, 611, 407, -2, -3, 2, -14, 21, 24, 952, 920, 450,A
2025-03-19 18:04:20.874,706, 600, 420, -2, -3, 1, -13, 20, 26, 951, 918, 457,A
2025-03-19 18:04:20.880,705, 584, 415, -1, -2, 1, -15, 18, 25, 952, 918, 446,A
2025-03-19 18:04:20.892,701, 583, 409, 0, -1, 0, -14, 19, 25, 950, 918, 440,A
2025-03-19 18:04:20.901,693, 594, 418, -1, 0, -1, -14, 21, 24, 949, 917, 438,A
2025-03-19 18:04:20.909,692, 600, 420, -2, 0, -1, -13, 21, 24, 950, 919, 438,A
2025-03-19 18:04:21.204,693, 598, 420, -1, -2, 0, -15, 21, 25, 949, 914, 391,B
2025-03-19 18:04:21.211,699, 602, 420, -1, -2, 0, -12, 20, 24, 946, 912, 399,B
2025-03-19 18:04:21.224,701, 606, 409, -2, -1, 0, -14, 20, 25, 946, 913, 389,B
2025-03-19 18:04:21.233,701, 601, 410, -2, -1, 0, -14, 19, 25, 948, 913, 393,B
2025-03-19 18:04:21.241,698, 598, 415, -2, 0, 0, -13, 19, 26, 946, 912, 387,B
2025-03-19 18:04:21.253,693, 594, 421, -1, 0, 0, -15, 19, 25, 947, 914, 384,B
2025-03-19 18:04:21.261,687, 594, 420, -1, 0, 0, -13, 21, 25, 947, 911, 370,B
2025-03-19 18:04:21.271,681, 590, 423, 0, -1, 0, -13, 20, 25, 947, 914, 366,B
2025-03-19 18:04:21.278,686, 597, 428, 0, -2, -1, -13, 21, 25, 951, 914, 361,B
2025-03-19 18:04:21.287,682, 596, 420, 0, -3, -3, -15, 19, 25, 953, 915, 357,B
2025-03-19 18:04:21.295,686, 599, 416, 0, -4, -4, -15, 19, 25, 950, 916, 343,B
2025-03-19 18:04:21.304,685, 610, 412, -2, -5, -5, -15, 21, 25, 948, 915, 344,B
2025-03-19 18:04:21.313,674, 597, 415, -3, -7, -6, -14, 19, 25, 948, 915, 348,B
2025-03-19 18:04:21.321,655, 598, 441, -2, -9, -6, -14, 20, 23, 945, 915, 324,B
2025-03-19 18:04:21.331,652, 606, 468, 0, -12, -4, -14, 19, 25, 945, 915, 326,B
2025-03-19 18:04:21.340,626, 611, 482, -1, -16, -2, -14, 17, 25, 946, 915, 326,B
2025-03-19 18:04:21.346,628, 605, 497, 4, -21, 1, -14, 19, 24, 945, 917, 314,B
2025-03-19 18:04:21.360,615, 613, 513, 7, -25, 5, -15, 20, 24, 946, 919, 328,B
2025-03-19 18:04:21.365,621, 611, 506, 9, -31, 10, -12, 19, 25, 944, 920, 324,B
2025-03-19 18:04:21.377,622, 600, 514, 14, -36, 15, -13, 21, 25, 949, 926, 325,B
2025-03-19 18:04:21.381,708, 495, 444, 15, -34, 16, -12, 19, 26, 953, 930, 326,B
2025-03-19 18:04:21.393,663, 465, 556, 22, -36, 14, -12, 19, 26, 958, 932, 320,B
2025-03-19 18:04:21.405,809, -51, 200, -28, -22, -21, -14, 19, 28, 959, 936, 287,B
2025-03-19 18:04:21.413,796, 500, 449, 29, -10, -22, -11, 18, 27, 960, 936, 297,B
2025-03-19 18:04:21.421,820, 877, 353, 6, -2, -4, -12, 20, 27, 962, 935, 231,B
2025-03-19 18:04:21.421,738, 711, 257, -3, 16, 8, -13, 17, 29, 962, 937, 186,B
2025-03-19 18:04:21.437,564, 665, 202, 9, 28, 16, -12, 20, 29, 966, 937, 79,B
2025-03-19 18:04:21.445,807, 970, 192, -19, 40, 33, -12, 17, 29, 964, 938, 64,B
2025-03-19 18:04:21.456,775, 603, 145, -22, 41, 39, -12, 21, 27, 963, 938, 32,B
2025-03-19 18:04:21.464,582, 563, 350, -18, 29, 26, -12, 18, 28, 967, 936, 32,B
2025-03-19 18:04:21.473,777, 704, 234, -22, 27, 26, -12, 21, 26, 968, 939, 28,B
2025-03-19 18:04:21.482,700, 779, 268, -35, 25, 26, -9, 18, 28, 969, 941, 19,B
2025-03-19 18:04:21.491,653, 602, 315, -25, 19, 21, -12, 22, 25, 967, 939, 19,B
2025-03-19 18:04:21.503,715, 815, 325, -33, 18, 25, -12, 22, 25, 962, 938, 15,B
2025-03-19 18:04:21.511,607, 622, 617, -33, -1, 16, -11, 20, 25, 960, 936, 26,B
2025-03-19 18:04:21.520,527, 252, 744, -9, -27, -8, -13, 23, 24, 957, 929, 48,B
2025-03-19 18:04:21.528,655, 130, 545, 18, -35, -31, -12, 21, 26, 953, 931, 80,B
2025-03-19 18:04:21.537,652, 217, 558, 32, -41, -46, -14, 23, 24, 952, 931, 155,B
2025-03-19 18:04:21.546,727, 429, 549, 32, -50, -41, -10, 19, 25, 951, 938, 250,B
2025-03-19 18:04:21.554,955, 399, 239, 8, -36, -40, -14, 19, 25, 955, 941, 243,B
2025-03-19 18:04:21.563,751, 602, 523, 9, -34, -32, -12, 19, 28, 957, 949, 257,B
2025-03-19 18:04:21.571,854, 536, 340, -7, -28, -23, -13, 18, 27, 960, 953, 278,B
2025-03-19 18:04:21.581,828, 370, 442, 3, -24, -21, -13, 19, 28, 962, 958, 314,B
2025-03-19 18:04:21.590,877, 451, 527, 14, -29, -20, -14, 21, 28, 966, 959, 352,B
2025-03-19 18:04:21.600,860, 656, 245, 17, -20, -15, -14, 21, 28, 968, 960, 390,B
2025-03-19 18:04:21.608,541, 909, 219, 3, -11, -2, -11, 17, 29, 966, 962, 405,B
2025-03-19 18:04:21.616,655, 854, 316, -2, -5, 6, -13, 19, 29, 963, 958, 417,B
2025-03-19 18:04:21.625,639, 913, 311, -1, 3, 17, -12, 19, 30, 966, 959, 426,B
2025-03-19 18:04:21.634,572, 642, 479, -8, 5, 13, -13, 21, 29, 967, 957, 423,B
2025-03-19 18:04:21.642,643, 810, 430, 1, 8, 21, -12, 19, 31, 967, 957, 407,B
2025-03-19 18:04:21.655,528, 738, 452, 1, 11, 23, -12, 20, 28, 968, 958, 361,B
2025-03-19 18:04:21.662,581, 677, 342, 3, 12, 23, -12, 19, 32, 967, 959, 345,B
2025-03-19 18:04:21.672,546, 498, 423, 6, 8, 18, -12, 21, 29, 970, 957, 336,B
2025-03-19 18:04:21.672,760, 570, 247, 3, 11, 18, -12, 19, 31, 974, 961, 317,B
2025-03-19 18:04:21.687,806, 407, 143, 9, 12, 12, -13, 20, 29, 972, 962, 294,B
2025-03-19 18:04:21.696,864, 510, 138, 6, 16, 11, -13, 20, 29, 972, 964, 265,B
2025-03-19 18:04:21.708,913, 590, 125, -6, 24, 12, -10, 20, 29, 974, 961, 235,B
2025-03-19 18:04:21.714,970, 583, 255, -9, 27, 19, -12, 20, 27, 971, 957, 214,B
2025-03-19 18:04:21.720,632, 547, 316, -19, 27, 14, -12, 19, 30, 972, 960, 218,B
2025-03-19 18:04:21.732,656, 520, 484, -15, 25, 11, -12, 20, 28, 973, 960, 218,B
2025-03-19 18:04:21.740,569, 684, 646, -16, 22, 14, -12, 21, 27, 972, 961, 160,B
2025-03-19 18:04:21.753,607, 459, 742, 1, 10, 4, -12, 20, 28, 972, 961, 153,B
2025-03-19 18:04:21.760,558, 600, 631, 16, 5, 1, -12, 21, 28, 973, 960, 155,B
2025-03-19 18:04:21.768,450, 754, 446, 11, 8, 3, -11, 21, 27, 973, 959, 104,B
2025-03-19 18:04:21.778,614, 664, 380, 14, 11, 4, -12, 21, 27, 972, 956, 101,B
2025-03-19 18:04:21.787,633, 623, 392, 10, 8, 1, -12, 20, 27, 972, 956, 92,B
2025-03-19 18:04:21.793,744, 614, 189, 10, 12, 2, -11, 20, 27, 972, 951, 97,B
2025-03-19 18:04:21.806,628, 588, 202, 6, 14, 1, -11, 20, 27, 969, 944, 96,B
2025-03-19 18:04:21.815,927, 558, 245, 7, 13, 0, -10, 19, 28, 958, 932, 116,B
2025-03-19 18:04:21.823,854, 560, 243, 5, 12, -1, -13, 20, 27, 956, 920, 162,B
2025-03-19 18:04:21.830,968, 456, 308, 5, 10, -11, -12, 20, 25, 955, 915, 209,B
2025-03-19 18:04:21.841,1090, 320, 241, -1, 15, -31, -11, 22, 28, 953, 912, 233,B
2025-03-19 18:04:21.852,1054, 460, 228, -10, 25, -44, -10, 19, 27, 951, 916, 292,B
2025-03-19 18:04:21.854,879, 543, 199, -28, 41, -48, -11, 19, 25, 951, 917, 301,B
2025-03-19 18:04:21.867,750, 641, 260, -35, 46, -43, -12, 18, 26, 948, 915, 305,B
2025-03-19 18:04:21.876,611, 664, 425, -41, 46, -34, -13, 21, 25, 948, 919, 298,B
2025-03-19 18:04:21.885,527, 639, 595, -41, 36, -25, -12, 18, 24, 949, 923, 273,B
2025-03-19 18:04:21.896,473, 590, 717, -34, 22, -19, -14, 21, 25, 951, 923, 271,B
2025-03-19 18:04:21.905,460, 577, 770, -26, 6, -14, -14, 21, 25, 950, 924, 271,B
2025-03-19 18:04:21.914,425, 579, 791, -15, -8, -10, -12, 20, 24, 949, 923, 271,B
2025-03-19 18:04:21.923,423, 697, 675, -2, -17, -2, -15, 21, 24, 948, 924, 293,B
2025-03-19 18:04:21.931,435, 676, 638, 0, -28, 4, -15, 20, 24, 945, 924, 288,B
2025-03-19 18:04:21.942,472, 677, 600, 12, -33, 10, -14, 19, 24, 948, 924, 285,B
2025-03-19 18:04:22.220,748, 573, 375, 1, -15, 0, -12, 19, 29, 942, 911, 171,C
2025-03-19 18:04:22.231,748, 567, 356, 1, -11, 0, -14, 21, 27, 943, 915, 179,C
2025-03-19 18:04:22.240,745, 585, 365, 1, -8, 0, -13, 19, 29, 944, 912, 183,C
2025-03-19 18:04:22.247,723, 586, 380, 0, -7, 0, -14, 20, 27, 943, 915, 169,C
2025-03-19 18:04:22.257,699, 596, 403, -2, -8, 1, -14, 20, 29, 942, 914, 175,C
2025-03-19 18:04:22.262,700, 582, 422, 0, -9, 1, -14, 20, 29, 944, 914, 184,C
2025-03-19 18:04:22.274,712, 559, 422, 1, -9, 0, -14, 20, 27, 941, 915, 197,C
2025-03-19 18:04:22.280,711, 583, 422, 2, -8, 0, -14, 18, 28, 943, 914, 204,C
2025-03-19 18:04:22.294,694, 597, 429, 3, -9, 0, -13, 18, 27, 942, 916, 205,C
2025-03-19 18:04:22.301,700, 585, 414, 2, -11, 0, -14, 19, 29, 944, 915, 195,C
2025-03-19 18:04:22.311,720, 574, 393, 3, -11, 0, -14, 19, 29, 943, 917, 198,C
2025-03-19 18:04:22.319,725, 586, 390, 4, -10, -1, -13, 19, 29, 945, 916, 202,C
2025-03-19 18:04:22.327,721, 589, 385, 3, -11, -1, -13, 19, 29, 943, 919, 202,C
2025-03-19 18:04:22.339,723, 593, 361, 2, -10, -2, -12, 20, 29, 948, 918, 205,C
2025-03-19 18:04:22.347,719, 602, 365, 1, -9, -1, -12, 19, 29, 950, 924, 205,C
2025-03-19 18:04:22.355,702, 611, 379, 0, -9, 0, -12, 19, 29, 951, 924, 182,C
2025-03-19 18:04:22.362,694, 610, 395, -1, -10, 1, -13, 21, 31, 951, 927, 141,C
2025-03-19 18:04:22.372,688, 575, 418, -1, -12, 0, -13, 20, 29, 948, 924, 127,C
2025-03-19 18:04:22.380,694, 570, 415, 0, -13, 0, -12, 20, 31, 949, 927, 85,C
2025-03-19 18:04:22.392,707, 587, 400, 0, -14, -1, -13, 20, 30, 949, 931, 80,C
2025-03-19 18:04:22.396,822, 488, 314, -11, -7, -10, -13, 21, 30, 950, 934, 77,C
2025-03-19 18:04:22.406,726, 614, 371, -5, -7, -10, -12, 19, 31, 953, 936, 81,C
2025-03-19 18:04:22.415,718, 604, 354, -12, -6, -10, -13, 21, 31, 948, 936, 63,C
2025-03-19 18:04:22.425,716, 587, 351, -11, -4, -10, -11, 18, 30, 952, 936, 76,C
2025-03-19 18:04:22.433,641, 614, 397, -9, -3, -10, -12, 19, 29, 956, 938, 49,C
2025-03-19 18:04:22.443,757, 541, 475, -7, -5, -12, -13, 20, 29, 958, 937, 32,C
2025-03-19 18:04:22.454,698, 508, 519, 2, -7, -13, -13, 20, 29, 959, 935, 25,C
2025-03-19 18:04:22.462,296, 296, 515, 27, 0, -19, -11, 21, 31, 959, 928, 32,C
2025-03-19 18:04:22.470,533, 367, 522, 52, 4, -23, -11, 18, 32, 960, 923, 41,C
2025-03-19 18:04:22.478,637, 537, 460, 70, 8, -21, -12, 20, 32, 962, 918, 43,C
2025-03-19 18:04:22.488,965, 669, 390, 78, 14, -17, -10, 18, 32, 964, 921, 37,C
2025-03-19 18:04:22.494,1039, 802, 291, 64, 25, -5, -10, 21, 30, 967, 921, 45,C
2025-03-19 18:04:22.506,703, 745, 66, 51, 19, 2, -9, 17, 31, 969, 931, 44,C
2025-03-19 18:04:22.513,922, 881, -191, 12, 41, 27, -9, 17, 31, 969, 936, 27,C
2025-03-19 18:04:22.524,760, 710, 15, 0, 29, 19, -8, 18, 31, 971, 944, 30,C
2025-03-19 18:04:22.531,854, 856, -118, -16, 34, 31, -10, 18, 28, 978, 954, 22,C
2025-03-19 18:04:22.540,723, 749, 104, -42, 31, 24, -9, 19, 30, 978, 958, 21,C
2025-03-19 18:04:22.550,1002, 515, 237, -18, 25, 23, -9, 19, 30, 974, 959, 14,C
2025-03-19 18:04:22.560,610, 947, 302, -60, 23, 28, -11, 20, 29, 970, 960, 85,C
2025-03-19 18:04:22.568,784, 579, 564, -38, 4, 30, -10, 18, 31, 968, 960, 148,C
2025-03-19 18:04:22.577,719, 594, 604, -30, -11, 23, -11, 21, 29, 965, 960, 196,C
2025-03-19 18:04:22.581,630, 424, 551, -8, -10, 13, -11, 20, 28, 962, 955, 279,C
2025-03-19 18:04:22.595,764, 281, 401, 3, 2, -11, -13, 21, 28, 957, 952, 335,C
2025-03-19 18:04:22.605,823, 360, 336, 1, 20, -33, -13, 19, 30, 956, 952, 413,C
2025-03-19 18:04:22.612,812, 516, 214, -18, 38, -45, -12, 20, 28, 954, 948, 387,C
2025-03-19 18:04:22.622,742, 555, 181, -26, 52, -52, -12, 17, 29, 953, 943, 373,C
2025-03-19 18:04:22.630,651, 631, 268, -31, 56, -50, -12, 19, 28, 953, 940, 304,C
2025-03-19 18:04:22.641,624, 663, 392, -33, 52, -44, -11, 18, 28, 952, 935, 287,C
2025-03-19 18:04:22.645,614, 671, 482, -35, 44, -38, -14, 21, 26, 949, 929, 257,C
2025-03-19 18:04:22.658,599, 642, 563, -37, 35, -33, -14, 21, 26, 947, 920, 245,C
2025-03-19 18:04:22.664,570, 601, 604, -38, 25, -32, -13, 19, 27, 944, 913, 205,C
2025-03-19 18:04:22.673,541, 591, 603, -36, 17, -28, -13, 20, 24, 943, 908, 146,C
2025-03-19 18:04:22.687,508, 612, 592, -28, 11, -23, -12, 20, 27, 943, 902, 101,C
2025-03-19 18:04:22.695,501, 655, 586, -19, 6, -14, -14, 20, 25, 942, 898, 95,C
2025-03-19 18:04:22.704,517, 664, 609, -14, 2, -5, -13, 18, 27, 942, 892, 98,C
2025-03-19 18:04:22.711,527, 650, 613, -10, -4, 2, -14, 20, 25, 943, 887, 93,C
2025-03-19 18:04:22.720,543, 624, 596, -4, -11, 7, -14, 18, 26, 943, 888, 95,C
2025-03-19 18:04:22.728,560, 599, 578, 7, -18, 12, -12, 21, 25, 945, 886, 92,C
2025-03-19 18:04:22.740,588, 595, 541, 14, -23, 15, -13, 20, 28, 944, 889, 76,C
2025-03-19 18:04:22.745,620, 605, 472, 18, -26, 15, -14, 19, 27, 946, 886, 78,C
2025-03-19 18:04:22.757,663, 602, 421, 21, -26, 16, -14, 19, 27, 942, 890, 86,C
2025-03-19 18:04:22.762,718, 605, 381, 20, -22, 15, -12, 19, 27, 944, 888, 132,C
2025-03-19 18:04:22.774,748, 627, 340, 16, -17, 13, -15, 20, 27, 942, 888, 148,C
2025-03-19 18:04:22.781,754, 631, 325, 11, -13, 13, -13, 21, 27, 943, 892, 154,C
2025-03-19 18:04:22.794,745, 613, 325, 6, -9, 11, -14, 18, 26, 942, 892, 156,C
2025-03-19 18:04:22.800,738, 605, 358, 4, -7, 9, -13, 19, 28, 942, 892, 146,C
2025-03-19 18:04:22.809,744, 587, 381, 2, -5, 6, -12, 20, 26, 944, 898, 152,C
2025-03-19 18:04:22.812,734, 589, 376, -1, -3, 2, -12, 21, 29, 945, 897, 152,C
2025-03-19 18:04:22.826,709, 596, 371, -2, -2, 0, -12, 19, 28, 946, 902, 165,C
2025-03-19 18:04:22.835,679, 618, 393, -3, -1, 0, -13, 20, 26, 949, 904, 157,C
2025-03-19 18:04:22.845,678, 626, 417, -3, 0, 1, -14, 21, 27, 948, 904, 159,C
2025-03-19 18:04:22.854,677, 613, 430, -2, 1, 2, -14, 21, 27, 950, 906, 162,C
2025-03-19 18:04:22.862,689, 602, 437, -1, 2, 1, -12, 20, 26, 945, 905, 155,C
2025-03-19 18:04:22.872,677, 593, 452, 0, 1, 1, -12, 20, 27, 943, 901, 171,C
2025-03-19 18:04:22.879,664, 599, 458, 1, -1, 1, -13, 19, 26, 943, 902, 171,C
2025-03-19 18:04:22.888,660, 596, 451, 2, -2, 2, -11, 20, 27, 942, 900, 174,C
2025-03-19 18:04:22.895,672, 602, 444, 2, -3, 3, -14, 20, 27, 943, 901, 180,C
2025-03-19 18:04:22.906,685, 606, 434, 2, -4, 3, -12, 19, 27, 941, 901, 186,C
2025-03-19 18:04:22.915,687, 603, 428, 3, -4, 3, -12, 21, 26, 944, 898, 187,C
2025-03-19 18:04:22.925,677, 603, 436, 4, -4, 3, -12, 19, 26, 944, 900, 194,C
2025-03-19 18:04:24.255,696, 611, 385, -4, -7, -4, -12, 20, 28, 928, 903, 122,D
2025-03-19 18:04:24.264,690, 603, 387, -4, -7, -4, -11, 19, 29, 929, 904, 127,D
2025-03-19 18:04:24.272,686, 610, 399, -3, -8, -4, -12, 19, 28, 928, 904, 120,D
2025-03-19 18:04:24.280,683, 620, 411, -5, -10, -4, -12, 18, 29, 929, 905, 122,D
2025-03-19 18:04:24.290,685, 613, 392, -6, -11, -5, -12, 19, 28, 930, 906, 109,D
2025-03-19 18:04:24.294,698, 594, 391, -5, -13, -5, -12, 18, 30, 930, 906, 113,D
2025-03-19 18:04:24.309,690, 603, 393, -5, -14, -5, -13, 19, 29, 931, 913, 120,D
2025-03-19 18:04:24.312,704, 615, 389, -7, -14, -3, -13, 18, 31, 930, 917, 109,D
2025-03-19 18:04:24.325,690, 609, 395, -5, -16, -3, -12, 20, 27, 934, 922, 120,D
2025-03-19 18:04:24.334,700, 599, 410, -4, -17, -2, -11, 19, 31, 937, 923, 130,D
2025-03-19 18:04:24.342,696, 595, 406, -3, -18, 0, -11, 19, 31, 938, 925, 130,D
2025-03-19 18:04:24.353,699, 571, 401, -2, -17, 0, -12, 18, 29, 938, 929, 138,D
2025-03-19 18:04:24.362,770, 534, 380, 1, -9, -10, -11, 17, 29, 940, 930, 48,D
2025-03-19 18:04:24.370,776, 476, 399, 5, -8, -13, -12, 19, 29, 943, 931, 67,D
2025-03-19 18:04:24.378,754, 666, 373, 0, -7, -9, -11, 19, 31, 946, 933, 67,D
2025-03-19 18:04:24.387,751, 552, 326, -3, -6, -9, -12, 19, 29, 950, 935, 66,D
2025-03-19 18:04:24.395,730, 420, 381, 10, -4, -12, -10, 19, 31, 955, 933, 71,D
2025-03-19 18:04:24.404,771, 419, 428, 29, -1, -13, -12, 19, 29, 957, 933, 78,D
2025-03-19 18:04:24.411,776, 605, 405, 42, 10, 0, -12, 19, 30, 962, 934, 73,D
2025-03-19 18:04:24.424,770, 1020, 281, 42, 36, 21, -12, 19, 29, 969, 935, 24,D
2025-03-19 18:04:24.431,767, 767, 223, 33, 53, 40, -10, 17, 31, 970, 936, 25,D
2025-03-19 18:04:24.440,697, 693, 130, 19, 60, 45, -10, 17, 31, 972, 934, 24,D
2025-03-19 18:04:24.444,717, 915, 334, -10, 61, 48, -10, 18, 28, 967, 934, 31,D
2025-03-19 18:04:24.460,706, 576, 363, -16, 48, 35, -10, 19, 30, 971, 934, 31,D
2025-03-19 18:04:24.463,660, 624, 178, 6, 37, 32, -9, 19, 28, 970, 936, 39,D
2025-03-19 18:04:24.477,679, 751, 198, -14, 30, 28, -11, 21, 29, 970, 936, 28,D
2025-03-19 18:04:24.486,782, 777, 159, -32, 30, 30, -10, 20, 28, 970, 937, 32,D
2025-03-19 18:04:24.493,707, 564, 265, -23, 26, 24, -10, 22, 28, 968, 935, 34,D
2025-03-19 18:04:24.502,758, 693, 225, -25, 26, 22, -10, 21, 25, 962, 933, 22,D
2025-03-19 18:04:24.511,663, 714, 471, -25, 10, 16, -10, 22, 26, 961, 929, 24,D
2025-03-19 18:04:24.522,493, 320, 723, 12, -24, -8, -10, 21, 26, 955, 924, 27,D
2025-03-19 18:04:24.530,450, 106, 672, 36, -47, -34, -11, 19, 25, 949, 923, 58,D
2025-03-19 18:04:24.539,538, 78, 471, 50, -53, -52, -11, 19, 25, 947, 922, 128,D
2025-03-19 18:04:24.547,677, 368, 626, 42, -56, -59, -11, 18, 26, 944, 923, 243,D
2025-03-19 18:04:24.559,1090, 599, 476, 31, -57, -49, -11, 20, 26, 948, 934, 266,D
2025-03-19 18:04:24.565,755, 728, 422, -3, -44, -34, -12, 18, 27, 951, 945, 270,D
2025-03-19 18:04:24.573,917, 639, 241, -23, -30, -17, -11, 20, 26, 958, 951, 263,D
2025-03-19 18:04:24.582,861, 465, 528, -32, -34, -12, -12, 17, 27, 963, 957, 254,D
2025-03-19 18:04:24.592,840, 245, 523, -23, -34, -17, -12, 20, 29, 965, 961, 262,D
2025-03-19 18:04:24.604,783, 572, 462, -12, -32, -7, -12, 18, 30, 969, 965, 276,D
2025-03-19 18:04:24.611,512, 741, 422, -20, -26, -1, -13, 20, 30, 970, 964, 244,D
2025-03-19 18:04:24.620,643, 694, 331, 7, -9, 10, -10, 18, 32, 972, 963, 229,D
2025-03-19 18:04:24.628,455, 967, 341, 6, 6, 18, -11, 20, 32, 975, 966, 185,D
2025-03-19 18:04:24.637,678, 891, 369, 8, 15, 31, -10, 20, 33, 977, 966, 189,D
2025-03-19 18:04:24.645,432, 381, 589, 5, 16, 22, -10, 20, 33, 977, 962, 175,D
2025-03-19 18:04:24.657,419, 710, 495, 22, 24, 25, -12, 20, 34, 977, 960, 111,D
2025-03-19 18:04:24.662,579, 628, 325, 5, 33, 22, -10, 18, 32, 976, 960, 108,D
2025-03-19 18:04:24.673,535, 709, 134, 26, 24, 22, -11, 20, 32, 974, 960, 90,D
2025-03-19 18:04:24.680,685, 800, 92, 19, 32, 21, -10, 17, 33, 974, 953, 68,D
2025-03-19 18:04:24.690,929, 614, 85, 17, 33, 16, -11, 20, 30, 975, 951, 68,D
2025-03-19 18:04:24.695,855, 667, 21, 15, 36, 16, -8, 18, 30, 969, 943, 64,D
2025-03-19 18:04:24.710,634, 648, 224, 2, 40, 14, -10, 20, 31, 967, 932, 69,D
2025-03-19 18:04:24.719,845, 417, 236, 13, 38, 8, -8, 18, 29, 963, 920, 80,D
2025-03-19 18:04:24.727,859, 594, 303, 2, 36, 9, -11, 20, 28, 962, 904, 161,D
2025-03-19 18:04:24.735,953, 526, 409, -11, 31, 1, -10, 18, 28, 956, 890, 237,D
2025-03-19 18:04:24.744,1068, 237, 425, -6, 30, -21, -10, 18, 28, 951, 877, 259,D
2025-03-19 18:04:24.755,1019, 289, 399, -28, 34, -46, -10, 21, 25, 946, 876, 266,D
2025-03-19 18:04:24.763,882, 361, 331, -36, 38, -61, -9, 19, 28, 945, 879, 250,D
2025-03-19 18:04:24.772,669, 540, 323, -38, 39, -62, -11, 20, 25, 946, 883, 237,D
2025-03-19 18:04:24.780,575, 677, 392, -38, 36, -53, -12, 18, 29, 945, 886, 229,D
2025-03-19 18:04:24.790,576, 717, 500, -40, 28, -43, -13, 20, 25, 943, 888, 224,D
2025-03-19 18:04:24.800,584, 674, 569, -39, 20, -37, -11, 19, 26, 943, 892, 197,D
2025-03-19 18:04:24.807,579, 625, 611, -35, 14, -36, -13, 20, 25, 943, 895, 191,D
2025-03-19 18:04:24.816,544, 634, 613, -28, 7, -34, -13, 19, 27, 941, 894, 173,D
2025-03-19 18:04:24.825,511, 663, 601, -22, 1, -32, -13, 19, 26, 941, 895, 174,D
2025-03-19 18:04:24.834,476, 710, 577, -18, -3, -24, -12, 19, 27, 942, 899, 129,D
2025-03-19 18:04:25.121,709, 613, 392, 0, -6, 0, -11, 19, 27, 909, 821, 86,E
2025-03-19 18:04:25.131,694, 624, 379, -2, -6, 0, -13, 19, 27, 912, 829, 88,E
2025-03-19 18:04:25.141,703, 618, 380, -2, -5, 0, -11, 17, 27, 915, 833, 90,E
2025-03-19 18:04:25.147,708, 609, 374, -3, -4, 0, -13, 20, 27, 913, 836, 73,E
2025-03-19 18:04:25.158,702, 607, 379, -3, -4, -1, -13, 20, 27, 915, 839, 77,E
2025-03-19 18:04:25.166,692, 615, 400, -4, -4, -2, -11, 18, 28, 911, 838, 69,E
2025-03-19 18:04:25.174,689, 628, 414, -7, -5, -2, -13, 22, 26, 912, 841, 98,E
2025-03-19 18:04:25.180,688, 625, 412, -8, -5, -1, -12, 18, 28, 914, 848, 107,E
2025-03-19 18:04:25.193,684, 614, 413, -8, -6, 0, -14, 20, 27, 914, 849, 95,E
2025-03-19 18:04:25.202,662, 609, 423, -8, -7, 1, -11, 20, 29, 915, 854, 102,E
2025-03-19 18:04:25.210,652, 605, 429, -7, -9, 1, -12, 20, 26, 918, 858, 103,E
2025-03-19 18:04:25.219,646, 594, 431, -5, -11, 0, -11, 19, 28, 917, 864, 91,E
2025-03-19 18:04:25.226,648, 602, 437, -4, -14, 0, -12, 19, 26, 917, 871, 81,E
2025-03-19 18:04:25.236,637, 610, 451, -3, -18, 1, -10, 17, 30, 920, 874, 59,E
2025-03-19 18:04:25.244,625, 617, 468, -2, -25, 3, -12, 19, 27, 923, 885, 66,E
2025-03-19 18:04:25.255,615, 617, 487, 3, -32, 7, -12, 19, 27, 927, 897, 65,E
2025-03-19 18:04:25.263,694, 593, 464, 0, -34, 8, -11, 18, 29, 930, 907, 76,E
2025-03-19 18:04:25.272,704, 553, 419, 8, -31, 9, -13, 20, 28, 932, 912, 71,E
2025-03-19 18:04:25.280,733, 589, 450, 5, -28, 10, -12, 20, 30, 942, 918, 24,E
2025-03-19 18:04:25.289,1078, 88, 286, 8, -15, -15, -12, 19, 29, 949, 922, 24,E
2025-03-19 18:04:25.295,738, 456, 401, 27, -12, -19, -10, 18, 31, 956, 922, 53,E
2025-03-19 18:04:25.307,831, 564, 361, 19, -7, -12, -12, 18, 29, 961, 928, 56,E
2025-03-19 18:04:25.315,823, 518, 314, 24, 11, 2, -12, 19, 31, 964, 932, 37,E
2025-03-19 18:04:25.324,696, 999, 290, 43, 33, 30, -11, 20, 29, 970, 935, 67,E
2025-03-19 18:04:25.333,579, 985, 238, 14, 46, 49, -10, 17, 30, 970, 940, 25,E
2025-03-19 18:04:25.341,764, 700, 207, -15, 56, 59, -10, 17, 30, 974, 939, 27,E
2025-03-19 18:04:25.353,775, 331, 458, -17, 49, 35, -10, 19, 29, 973, 939, 28,E
2025-03-19 18:04:25.361,670, 692, 281, -3, 40, 44, -10, 17, 32, 970, 938, 38,E
2025-03-19 18:04:25.370,530, 769, 275, -30, 37, 46, -11, 20, 29, 971, 938, 47,E
2025-03-19 18:04:25.378,572, 635, 219, -35, 36, 45, -9, 18, 30, 971, 940, 52,E
2025-03-19 18:04:25.387,688, 585, 275, -34, 26, 31, -10, 21, 27, 969, 938, 43,E
2025-03-19 18:04:25.395,740, 669, 261, -33, 21, 24, -9, 20, 29, 968, 936, 39,E
2025-03-19 18:04:25.407,698, 648, 440, -38, 13, 21, -10, 23, 27, 966, 932, 42,E
2025-03-19 18:04:25.412,623, 451, 557, -31, -10, -2, -8, 21, 28, 961, 927, 45,E
2025-03-19 18:04:25.423,681, 127, 455, -11, -23, -40, -10, 21, 26, 960, 921, 43,E
2025-03-19 18:04:25.431,623, 150, 452, 12, -24, -67, -11, 20, 26, 953, 920, 47,E
2025-03-19 18:04:25.439,549, 343, 588, 9, -29, -76, -10, 21, 27, 953, 918, 63,E
2025-03-19 18:04:25.450,426, 603, 634, 4, -39, -68, -10, 21, 27, 952, 918, 74,E
2025-03-19 18:04:25.459,406, 747, 687, 12, -54, -43, -13, 20, 28, 951, 922, 82,E
2025-03-19 18:04:25.461,636, 686, 643, 23, -63, -14, -12, 18, 28, 956, 931, 149,E
2025-03-19 18:04:25.477,970, 575, 595, -57, -26, -36, -12, 20, 28, 962, 943, 54,E
2025-03-19 18:04:25.485,955, 315, 584, 34, -25, -28, -11, 18, 29, 965, 952, 134,E
2025-03-19 18:04:25.496,800, 745, 597, -3, -40, -19, -12, 19, 26, 969, 961, 134,E
2025-03-19 18:04:25.505,882, 310, 203, 21, -39, -22, -11, 17, 29, 972, 968, 188,E
2025-03-19 18:04:25.512,1007, 716, 140, 38, -32, -6, -12, 19, 31, 973, 967, 239,E
2025-03-19 18:04:25.522,821, 1111, 111, -15, -23, 8, -10, 17, 31, 975, 971, 277,E
2025-03-19 18:04:25.530,687, 778, -17, -8, -8, 22, -10, 18, 33, 979, 976, 334,E
2025-03-19 18:04:25.539,812, 928, 24, -27, 7, 32, -10, 20, 31, 978, 974, 344,E
2025-03-19 18:04:25.545,568, 645, 114, -33, 17, 30, -10, 20, 31, 980, 972, 371,E
2025-03-19 18:04:25.556,620, 528, 337, -4, 23, 31, -13, 19, 33, 977, 972, 384,E
2025-03-19 18:04:25.565,664, 728, 509, 9, 26, 30, -11, 18, 32, 975, 966, 414,E
2025-03-19 18:04:25.574,612, 660, 527, 5, 28, 26, -13, 20, 31, 972, 965, 443,E
2025-03-19 18:04:25.582,568, 613, 500, 9, 33, 20, -11, 20, 31, 967, 959, 454,E
2025-03-19 18:04:25.591,515, 560, 449, 11, 38, 10, -11, 20, 30, 967, 956, 450,E
2025-03-19 18:04:25.603,478, 344, 432, 25, 40, -8, -10, 19, 32, 966, 950, 448,E
2025-03-19 18:04:25.611,455, 373, 533, 40, 31, -18, -12, 20, 31, 963, 943, 455,E
2025-03-19 18:04:25.620,486, 524, 626, 46, 13, -16, -12, 19, 29, 964, 939, 456,E
2025-03-19 18:04:25.628,511, 612, 607, 37, -9, -11, -11, 19, 29, 964, 933, 398,E
2025-03-19 18:04:25.639,562, 619, 518, 23, -21, -3, -10, 18, 30, 965, 933, 365,E
2025-03-19 18:04:25.644,949, -16, 18, -34, -16, -25, -11, 19, 30, 969, 942, 311,E
2025-03-19 18:04:25.656,1044, 754, 331, 31, -11, -24, -11, 19, 30, 973, 951, 320,E
2025-03-19 18:04:25.662,878, 916, 86, -15, -16, -8, -10, 18, 31, 971, 954, 248,E
2025-03-19 18:04:25.674,859, 503, 13, -6, -1, -8, -12, 18, 31, 973, 961, 248,E
2025-03-19 18:04:25.681,837, 925, 255, -4, 5, 7, -9, 17, 31, 974, 962, 247,E
2025-03-19 18:04:25.691,925, 943, 330, -28, 1, 17, -10, 20, 29, 976, 966, 248,E
2025-03-19 18:04:25.701,831, 700, 152, -26, 11, 26, -11, 19, 30, 976, 968, 272,E
2025-03-19 18:04:25.707,880, 762, 363, -28, 10, 38, -11, 21, 30, 975, 967, 281,E
2025-03-19 18:04:25.716,579, 221, 315, 3, 14, 19, -10, 19, 30, 975, 965, 336,E
2025-03-19 18:04:25.726,649, 473, 478, 28, 19, 15, -11, 19, 29, 974, 960, 407,E
2025-03-19 18:04:25.738,680, 965, 442, 9, 27, 30, -10, 19, 31, 977, 960, 449,E
2025-03-19 18:04:25.745,727, 636, 325, 7, 43, 27, -11, 21, 29, 976, 955, 442,E
2025-03-19 18:04:25.755,656, 428, 273, 12, 61, 6, -11, 21, 29, 973, 944, 453,E
2025-03-19 18:04:25.763,552, 390, 358, 19, 67, -13, -11, 19, 30, 968, 932, 423,E
2025-03-19 18:04:25.772,368, 432, 570, 39, 53, -22, -11, 21, 27, 967, 915, 432,E
2025-03-19 18:04:25.778,297, 549, 757, 43, 24, -14, -11, 17, 29, 967, 896, 414,E
2025-03-19 18:04:25.791,291, 709, 797, 44, -11, 7, -12, 19, 26, 965, 887, 395,E
2025-03-19 18:04:25.796,578, 755, 777, 45, -45, 28, -10, 18, 29, 967, 892, 378,E
2025-03-19 18:04:25.808,782, 502, 543, -86, -16, -34, -10, 20, 26, 969, 925, 335,E
2025-03-19 18:04:25.813,864, 444, 111, 52, -19, -27, -10, 17, 29, 971, 940, 349,E
2025-03-19 18:04:25.825,827, 1547, 235, -51, -20, 8, -9, 19, 28, 972, 953, 139,E
2025-03-19 18:04:25.836,812, 241, -191, -15, 0, 0, -10, 18, 29, 973, 960, 69,E
2025-03-19 18:04:25.844,804, 726, 158, -5, 8, 4, -11, 20, 30, 977, 964, 69,E
2025-03-19 18:04:25.854,951, 885, 422, -25, 0, 19, -10, 19, 30, 976, 965, 53,E
2025-03-19 18:04:25.861,906, 485, 197, -26, 6, 18, -10, 19, 30, 973, 963, 70,E
2025-03-19 18:04:25.871,846, 481, 384, -9, 4, 17, -12, 20, 27, 969, 958, 181,E
2025-03-19 18:04:25.878,751, 643, 408, -3, 4, 21, -10, 19, 29, 968, 954, 271,E
2025-03-19 18:04:25.890,762, 730, 484, -7, 1, 21, -11, 20, 29, 965, 947, 343,E
2025-03-19 18:04:25.895,900, 418, 251, -13, 14, -2, -12, 20, 31, 962, 942, 407,E
2025-03-19 18:04:25.906,947, 347, 155, -16, 35, -30, -10, 20, 29, 958, 938, 428,E
2025-03-19 18:04:25.914,818, 347, 127, -25, 52, -52, -11, 20, 29, 955, 928, 446,E
2025-03-19 18:04:25.923,666, 466, 213, -19, 60, -62, -11, 19, 27, 952, 918, 452,E
2025-03-19 18:04:25.935,569, 618, 341, -18, 58, -60, -11, 18, 29, 948, 908, 446,E
2025-03-19 18:04:25.943,491, 720, 509, -20, 46, -50, -11, 20, 27, 949, 900, 443,E
2025-03-19 18:04:25.952,491, 708, 621, -25, 32, -43, -12, 19, 26, 948, 889, 420,E
2025-03-19 18:04:25.960,485, 648, 681, -27, 19, -38, -12, 19, 26, 947, 880, 384,E
2025-03-19 18:04:26.250,1512, 424, 170, -12, -12, -15, -12, 19, 28, 950, 928, 124,F
2025-03-19 18:04:26.253,793, 543, 331, 20, -7, -15, -12, 18, 30, 953, 930, 157,F
2025-03-19 18:04:26.266,746, 661, 364, 7, -9, -12, -13, 19, 31, 957, 933, 145,F
2025-03-19 18:04:26.275,760, 439, 274, 11, -3, -14, -11, 18, 31, 960, 933, 128,F
2025-03-19 18:04:26.287,801, 566, 357, 34, 2, -9, -13, 18, 31, 962, 931, 166,F
2025-03-19 18:04:26.294,772, 799, 326, 41, 11, 8, -11, 17, 32, 967, 934, 118,F
2025-03-19 18:04:26.304,670, 650, 455, 8, 24, 28, -12, 17, 30, 968, 934, 57,F
2025-03-19 18:04:26.310,707, 690, 513, 19, 33, 32, -12, 17, 30, 970, 933, 73,F
2025-03-19 18:04:26.321,806, 647, 273, 15, 42, 38, -11, 17, 33, 969, 934, 68,F
2025-03-19 18:04:26.331,562, 973, 426, 9, 47, 43, -12, 21, 29, 970, 931, 69,F
2025-03-19 18:04:26.341,1027, 683, 345, -5, 39, 33, -10, 16, 30, 972, 921, 41,F
2025-03-19 18:04:26.349,749, 261, 93, 42, 30, 24, -10, 19, 30, 970, 920, 48,F
2025-03-19 18:04:26.358,770, 912, -5, 11, 34, 34, -9, 17, 32, 968, 919, 29,F
2025-03-19 18:04:26.366,495, 756, 170, -22, 30, 35, -9, 19, 30, 969, 920, 40,F
2025-03-19 18:04:26.373,756, 717, 80, -30, 29, 33, -11, 17, 29, 967, 921, 28,F
2025-03-19 18:04:26.385,697, 587, 167, -29, 25, 25, -11, 20, 29, 964, 923, 31,F
2025-03-19 18:04:26.393,756, 634, 224, -27, 23, 21, -10, 19, 30, 961, 924, 21,F
2025-03-19 18:04:26.402,687, 742, 399, -32, 5, 14, -10, 20, 27, 955, 915, 13,F
2025-03-19 18:04:26.411,450, 370, 712, -7, -29, -14, -10, 20, 27, 945, 901, 53,F
2025-03-19 18:04:26.419,657, 125, 553, -2, -43, -50, -11, 19, 28, 935, 896, 99,F
2025-03-19 18:04:26.430,682, 153, 473, 5, -43, -74, -12, 19, 27, 930, 900, 178,F
2025-03-19 18:04:26.439,601, 441, 529, 12, -45, -78, -12, 19, 30, 930, 905, 240,F
2025-03-19 18:04:26.444,558, 708, 585, 11, -53, -57, -11, 19, 28, 930, 912, 314,F
2025-03-19 18:04:26.455,578, 878, 554, 6, -57, -24, -11, 17, 30, 936, 923, 369,F
2025-03-19 18:04:26.461,625, 803, 580, 5, -56, 1, -12, 19, 29, 946, 936, 284,F
2025-03-19 18:04:26.475,942, 90, 137, -23, -21, -20, -10, 17, 31, 954, 947, 259,F
2025-03-19 18:04:26.480,749, 652, 651, -3, -33, -16, -11, 16, 31, 961, 953, 264,F
2025-03-19 18:04:26.491,772, 445, 375, -15, -38, -19, -11, 18, 31, 964, 959, 255,F
2025-03-19 18:04:26.501,864, 517, 267, 20, -35, -19, -9, 18, 31, 971, 964, 290,F
2025-03-19 18:04:26.509,786, 1004, 94, 23, -30, -2, -11, 17, 34, 973, 964, 331,F
2025-03-19 18:04:26.516,722, 1087, -34, -1, -14, 20, -11, 17, 34, 974, 964, 339,F
2025-03-19 18:04:26.528,602, 660, -42, -19, -1, 25, -12, 17, 32, 974, 962, 320,F
2025-03-19 18:04:26.537,815, 761, 76, -10, 13, 24, -12, 19, 33, 974, 962, 371,F
2025-03-19 18:04:26.543,798, 794, 129, -13, 24, 32, -9, 17, 33, 973, 962, 383,F
2025-03-19 18:04:26.553,579, 597, 421, -15, 27, 27, -12, 18, 34, 972, 959, 400,F
2025-03-19 18:04:26.561,696, 633, 442, 14, 27, 28, -11, 17, 34, 969, 953, 434,F
2025-03-19 18:04:26.573,624, 659, 504, 11, 31, 23, -11, 19, 32, 965, 947, 444,F
2025-03-19 18:04:26.580,623, 547, 446, 13, 39, 10, -10, 17, 31, 963, 936, 425,F
2025-03-19 18:04:26.590,624, 392, 400, 14, 49, -3, -12, 18, 31, 959, 924, 409,F
2025-03-19 18:04:26.597,488, 423, 439, 22, 51, -19, -10, 18, 31, 962, 911, 385,F
2025-03-19 18:04:26.605,413, 439, 563, 31, 40, -23, -12, 18, 32, 960, 897, 354,F
2025-03-19 18:04:26.616,343, 620, 644, 22, 18, -16, -12, 18, 32, 958, 872, 259,F
2025-03-19 18:04:26.627,392, 762, 631, 16, -8, 2, -10, 17, 31, 960, 835, 100,F
2025-03-19 18:04:26.635,747, 644, 544, 21, -33, 18, -11, 18, 30, 958, 843, 69,F
2025-03-19 18:04:26.644,2287, 166, -122, -24, -17, -25, -10, 18, 30, 963, 896, 51,F
2025-03-19 18:04:26.652,931, 465, 274, 57, -16, -29, -12, 18, 31, 966, 920, 65,F
2025-03-19 18:04:26.660,848, 1201, -9, -9, -18, -7, -9, 18, 31, 972, 935, 59,F
2025-03-19 18:04:26.672,857, 629, -123, -7, -3, 0, -10, 17, 32, 971, 947, 39,F
2025-03-19 18:04:26.681,936, 1003, 163, -27, 4, 17, -10, 17, 33, 973, 954, 28,F
2025-03-19 18:04:26.688,923, 761, 181, -42, 11, 25, -10, 19, 30, 972, 959, 22,F
2025-03-19 18:04:26.694,874, 562, 261, -21, 12, 28, -9, 17, 31, 972, 958, 135,F
2025-03-19 18:04:26.705,797, 636, 390, -16, 7, 32, -11, 20, 31, 974, 958, 217,F
2025-03-19 18:04:26.710,843, 643, 415, -22, 8, 30, -10, 18, 31, 973, 952, 265,F
2025-03-19 18:04:26.725,785, 511, 313, -6, 16, 27, -10, 18, 31, 967, 946, 365,F
2025-03-19 18:04:26.733,896, 529, 360, -11, 30, 8, -12, 19, 29, 961, 938, 425,F
2025-03-19 18:04:26.740,950, 344, 229, -16, 48, -22, -12, 19, 32, 957, 926, 444,F
2025-03-19 18:04:26.751,796, 326, 129, -24, 63, -50, -12, 19, 31, 950, 913, 465,F
2025-03-19 18:04:26.759,576, 439, 214, -13, 65, -63, -11, 19, 30, 939, 894, 456,F
2025-03-19 18:04:26.770,410, 565, 370, -8, 55, -59, -12, 19, 30, 935, 868, 426,F
2025-03-19 18:04:26.779,392, 682, 548, -5, 41, -48, -10, 18, 30, 932, 844, 393,F
2025-03-19 18:04:26.787,419, 770, 648, -10, 25, -37, -14, 18, 28, 930, 821, 320,F
2025-03-19 18:04:26.795,442, 762, 721, -19, 10, -28, -11, 18, 29, 928, 788, 270,F
2025-03-19 18:04:26.805,456, 682, 762, -18, -4, -20, -12, 19, 28, 929, 771, 181,F
2025-03-19 18:04:26.811,466, 625, 740, -12, -14, -13, -10, 17, 28, 927, 754, 132,F
2025-03-19 18:04:26.824,493, 621, 634, 0, -26, -5, -13, 19, 28, 927, 747, 112,F
2025-03-19 18:04:26.832,537, 636, 531, 13, -33, 3, -13, 19, 28, 927, 747, 100,F
2025-03-19 18:04:27.074,712, 651, 363, -12, 0, 0, -11, 16, 31, 933, 844, 66,G
2025-03-19 18:04:27.086,697, 636, 360, -13, -1, 0, -12, 18, 31, 932, 847, 64,G
2025-03-19 18:04:27.093,686, 625, 375, -14, -1, 0, -11, 18, 30, 931, 847, 75,G
2025-03-19 18:04:27.103,674, 614, 390, -13, -3, 0, -10, 17, 30, 931, 849, 79,G
2025-03-19 18:04:27.111,667, 607, 401, -10, -5, 0, -11, 20, 29, 928, 853, 67,G
2025-03-19 18:04:27.122,673, 606, 410, -9, -7, 0, -11, 17, 30, 929, 863, 88,G
2025-03-19 18:04:27.131,667, 627, 413, -10, -9, 1, -11, 19, 31, 929, 869, 85,G
2025-03-19 18:04:27.139,674, 637, 413, -10, -13, 3, -13, 17, 31, 931, 879, 102,G
2025-03-19 18:04:27.144,675, 635, 398, -10, -16, 5, -12, 18, 31, 932, 885, 95,G
2025-03-19 18:04:27.155,682, 640, 392, -9, -19, 8, -11, 18, 32, 933, 894, 99,G
2025-03-19 18:04:27.166,663, 633, 402, -6, -21, 12, -12, 18, 31, 936, 904, 111,G
2025-03-19 18:04:27.176,655, 601, 410, -6, -24, 11, -12, 18, 31, 939, 911, 123,G
2025-03-19 18:04:27.184,685, 543, 402, -1, -21, 9, -11, 17, 31, 940, 916, 117,G
2025-03-19 18:04:27.193,667, 593, 436, 1, -22, 8, -13, 20, 31, 945, 922, 135,G
2025-03-19 18:04:27.200,636, 645, 415, -4, -23, 9, -11, 18, 32, 945, 930, 125,G
2025-03-19 18:04:27.210,655, 589, 375, -3, -24, 7, -12, 20, 31, 950, 931, 100,G
2025-03-19 18:04:27.221,856, 286, 282, -3, -10, -15, -11, 17, 32, 952, 937, 81,G
2025-03-19 18:04:27.229,576, 700, 453, 0, -11, -16, -11, 20, 32, 955, 940, 37,G
2025-03-19 18:04:27.238,763, 624, 392, -7, -10, -14, -10, 18, 32, 956, 939, 26,G
2025-03-19 18:04:27.243,486, 508, 371, 13, -6, -18, -12, 20, 30, 959, 937, 30,G
2025-03-19 18:04:27.255,664, 440, 514, 25, -6, -21, -10, 18, 32, 964, 933, 17,G
2025-03-19 18:04:27.262,750, 513, 453, 39, 2, -19, -12, 18, 32, 964, 926, 9,G
2025-03-19 18:04:27.274,914, 366, 502, 70, 9, -19, -12, 18, 32, 965, 919, 18,G
2025-03-19 18:04:27.280,440, 553, 204, 82, 10, -23, -11, 17, 33, 968, 912, 24,G
2025-03-19 18:04:27.291,942, 812, 182, 85, 25, -7, -10, 17, 31, 968, 908, 23,G
2025-03-19 18:04:27.295,856, 1000, 124, 44, 30, 11, -10, 16, 34, 968, 911, 29,G
2025-03-19 18:04:27.305,1331, 1041, -11, 13, 41, 32, -11, 18, 32, 969, 915, 31,G
2025-03-19 18:04:27.314,958, 857, 55, -25, 47, 52, -7, 17, 32, 971, 925, 36,G
2025-03-19 18:04:27.327,922, 692, 83, -53, 49, 52, -9, 19, 32, 972, 934, 43,G
2025-03-19 18:04:27.336,685, 692, 157, -65, 54, 52, -9, 17, 31, 972, 940, 47,G
2025-03-19 18:04:27.343,845, 638, 333, -79, 50, 49, -11, 19, 30, 971, 948, 52,G
2025-03-19 18:04:27.353,614, 599, 470, -76, 36, 43, -8, 18, 31, 971, 949, 20,G
2025-03-19 18:04:27.360,655, 573, 351, -57, 26, 32, -10, 22, 29, 972, 953, 19,G
2025-03-19 18:04:27.372,620, 656, 543, -51, 16, 26, -10, 22, 29, 972, 954, 37,G
2025-03-19 18:04:27.380,641, 515, 695, -44, -6, 19, -10, 19, 30, 969, 956, 53,G
2025-03-19 18:04:27.389,538, 370, 681, -21, -25, 0, -12, 20, 29, 967, 955, 35,G
2025-03-19 18:04:27.394,556, 322, 632, -8, -34, -17, -11, 20, 30, 964, 955, 39,G
2025-03-19 18:04:27.406,473, 325, 608, 0, -37, -31, -13, 21, 29, 961, 955, 89,G
2025-03-19 18:04:27.413,553, 410, 533, 8, -33, -33, -11, 19, 30, 965, 954, 108,G
2025-03-19 18:04:27.425,760, 557, 609, -3, -22, -24, -12, 21, 29, 966, 957, 87,G
2025-03-19 18:04:27.434,797, 586, 550, -4, -18, -17, -11, 19, 30, 968, 957, 23,G
2025-03-19 18:04:27.442,723, 299, 494, 16, -19, -22, -12, 19, 30, 970, 957, 22,G
2025-03-19 18:04:27.451,710, 506, 385, 22, -12, -19, -10, 19, 32, 975, 960, 17,G
2025-03-19 18:04:27.459,778, 780, 203, 23, 2, -4, -11, 21, 30, 977, 959, 16,G
2025-03-19 18:04:27.466,813, 764, 229, 25, 12, 3, -11, 21, 30, 977, 959, 10,G
2025-03-19 18:04:27.479,739, 1039, 36, -5, 27, 25, -10, 20, 32, 975, 956, 22,G
2025-03-19 18:04:27.488,758, 870, 56, -22, 37, 33, -10, 19, 31, 975, 958, 23,G
2025-03-19 18:04:27.494,796, 683, 177, -22, 42, 38, -9, 19, 32, 977, 957, 30,G
2025-03-19 18:04:27.504,700, 640, 300, -37, 36, 35, -11, 21, 29, 974, 954, 27,G
2025-03-19 18:04:27.512,743, 546, 405, -33, 25, 29, -9, 20, 33, 971, 948, 27,G
2025-03-19 18:04:27.524,659, 604, 387, -28, 18, 21, -10, 21, 29, 969, 942, 45,G
2025-03-19 18:04:27.532,727, 609, 436, -31, 13, 11, -11, 22, 30, 969, 934, 43,G
2025-03-19 18:04:27.540,694, 394, 510, -36, 7, -15, -11, 22, 29, 966, 924, 27,G
2025-03-19 18:04:27.545,618, 218, 473, -14, 1, -41, -12, 21, 31, 964, 918, 29,G
2025-03-19 18:04:27.557,480, 293, 515, 16, -4, -54, -10, 21, 28, 960, 909, 26,G
2025-03-19 18:04:27.564,395, 451, 616, 26, -11, -53, -10, 21, 28, 959, 901, 21,G
2025-03-19 18:04:27.576,403, 640, 701, 20, -25, -35, -11, 21, 30, 959, 893, 29,G
2025-03-19 18:04:27.586,530, 666, 737, 38, -45, -4, -11, 20, 28, 960, 907, 44,G
2025-03-19 18:04:27.594,871, 36, -30, -82, -20, -35, -10, 19, 29, 964, 925, 49,G
2025-03-19 18:04:27.603,1026, 269, 657, 29, -20, -26, -10, 17, 30, 970, 938, 45,G
2025-03-19 18:04:27.610,700, 984, 354, -15, -33, -12, -9, 20, 31, 970, 949, 44,G
2025-03-19 18:04:27.620,830, 278, 76, 28, -21, -16, -9, 19, 30, 974, 954, 38,G
2025-03-19 18:04:27.631,891, 776, 128, 41, -12, -5, -10, 19, 31, 976, 956, 33,G
2025-03-19 18:04:27.639,942, 1230, 90, -18, -6, 23, -10, 20, 31, 976, 959, 27,G
2025-03-19 18:04:27.644,800, 807, -93, -31, 9, 37, -10, 20, 32, 980, 961, 18,G
2025-03-19 18:04:27.656,721, 727, 138, -31, 17, 44, -9, 21, 31, 977, 961, 11,G
2025-03-19 18:04:27.661,748, 517, 354, -10, 21, 40, -9, 21, 31, 975, 957, 88,G
2025-03-19 18:04:27.673,833, 488, 400, -11, 31, 24, -11, 21, 31, 971, 948, 23,G
2025-03-19 18:04:27.681,939, 253, 311, -17, 50, -14, -12, 19, 31, 967, 942, 23,G
2025-03-19 18:04:27.692,834, 271, 226, -26, 68, -49, -12, 21, 30, 962, 931, 59,G
2025-03-19 18:04:27.700,616, 421, 269, -20, 73, -64, -12, 21, 29, 958, 915, 75,G
2025-03-19 18:04:27.708,461, 604, 390, -5, 66, -60, -12, 21, 30, 950, 890, 71,G
2025-03-19 18:04:27.714,441, 684, 474, -6, 56, -50, -11, 19, 30, 944, 859, 59,G
2025-03-19 18:04:27.729,463, 730, 579, -21, 42, -40, -11, 20, 27, 938, 808, 61,G
2025-03-19 18:04:27.737,483, 733, 688, -38, 27, -31, -12, 19, 26, 937, 772, 42,G
2025-03-19 18:04:28.061,667, 619, 426, -3, -7, -2, -12, 19, 28, 893, 770, 92,H
2025-03-19 18:04:28.070,671, 617, 429, -2, -10, -1, -12, 19, 29, 890, 780, 77,H
2025-03-19 18:04:28.074,673, 625, 422, -3, -13, 1, -11, 18, 27, 890, 790, 78,H
2025-03-19 18:04:28.086,654, 637, 423, -5, -18, 2, -12, 18, 31, 892, 808, 70,H
2025-03-19 18:04:28.095,656, 629, 416, -3, -23, 4, -12, 18, 31, 894, 819, 75,H
2025-03-19 18:04:28.106,669, 615, 415, -1, -26, 7, -12, 19, 29, 894, 831, 105,H
2025-03-19 18:04:28.110,671, 615, 422, -3, -27, 8, -11, 17, 31, 901, 850, 127,H
2025-03-19 18:04:28.123,729, 564, 361, 1, -23, 7, -11, 18, 31, 908, 869, 155,H
2025-03-19 18:04:28.131,760, 572, 395, 4, -20, 7, -11, 18, 30, 912, 882, 189,H
2025-03-19 18:04:28.137,806, 533, 387, 5, -16, 3, -11, 19, 29, 920, 893, 186,H
2025-03-19 18:04:28.150,1105, 341, 309, -8, -8, -11, -12, 18, 30, 929, 900, 153,H
2025-03-19 18:04:28.159,746, 539, 366, 24, -7, -12, -11, 18, 29, 938, 902, 189,H
2025-03-19 18:04:28.166,728, 722, 336, 16, -4, -6, -12, 19, 31, 944, 903, 180,H
2025-03-19 18:04:28.176,754, 581, 352, 11, 2, -3, -9, 18, 31, 948, 905, 101,H
2025-03-19 18:04:28.184,808, 588, 348, 23, 11, 3, -11, 18, 32, 954, 903, 69,H
2025-03-19 18:04:28.192,736, 833, 343, 26, 23, 13, -11, 18, 32, 958, 903, 63,H
2025-03-19 18:04:28.203,604, 603, 434, 20, 27, 26, -11, 17, 31, 959, 901, 83,H
2025-03-19 18:04:28.212,690, 749, 255, 13, 38, 28, -10, 18, 32, 962, 899, 77,H
2025-03-19 18:04:28.221,733, 730, 314, -3, 39, 36, -10, 18, 30, 964, 898, 45,H
2025-03-19 18:04:28.229,593, 499, 432, -11, 32, 23, -12, 18, 31, 964, 892, 35,H
2025-03-19 18:04:28.237,731, 612, 68, 15, 32, 26, -10, 18, 31, 966, 887, 50,H
2025-03-19 18:04:28.244,665, 668, 197, -6, 24, 23, -10, 21, 30, 965, 887, 39,H
2025-03-19 18:04:28.257,775, 668, 173, -15, 22, 20, -10, 19, 30, 963, 884, 30,H
2025-03-19 18:04:28.263,733, 663, 262, -20, 20, 19, -9, 19, 28, 962, 882, 27,H
2025-03-19 18:04:28.273,659, 693, 301, -29, 17, 18, -9, 18, 29, 957, 887, 31,H
2025-03-19 18:04:28.280,688, 668, 473, -33, 11, 15, -10, 20, 27, 954, 882, 15,H
2025-03-19 18:04:28.291,572, 417, 578, -13, -6, 0, -10, 20, 27, 950, 869, 11,H
2025-03-19 18:04:28.302,494, 282, 612, 10, -19, -19, -10, 20, 27, 944, 860, 33,H
2025-03-19 18:04:28.310,557, 280, 602, 28, -29, -34, -10, 18, 27, 941, 864, 58,H
2025-03-19 18:04:28.319,766, 404, 508, 26, -23, -37, -10, 17, 29, 942, 886, 55,H
2025-03-19 18:04:28.327,901, 665, 453, 11, -26, -33, -12, 20, 29, 948, 904, 57,H
2025-03-19 18:04:28.336,698, 658, 470, 5, -25, -23, -11, 18, 30, 952, 921, 58,H
2025-03-19 18:04:28.344,947, 558, 255, 6, -15, -15, -13, 19, 30, 957, 934, 60,H
2025-03-19 18:04:28.356,800, 577, 416, 12, -17, -10, -9, 17, 28, 963, 943, 75,H
2025-03-19 18:04:28.361,930, 591, 439, 22, -26, -2, -12, 19, 28, 964, 951, 115,H
2025-03-19 18:04:28.371,681, 714, 153, 12, -19, 3, -9, 17, 31, 967, 952, 161,H
2025-03-19 18:04:28.380,650, 792, 110, 7, -10, 11, -10, 19, 30, 970, 953, 259,H
2025-03-19 18:04:28.389,779, 905, 157, 11, -2, 27, -10, 19, 30, 971, 953, 291,H
2025-03-19 18:04:28.400,761, 761, 154, 7, 6, 36, -9, 18, 32, 969, 952, 370,H
2025-03-19 18:04:28.409,620, 769, 266, -10, 10, 38, -13, 19, 31, 967, 949, 406,H
2025-03-19 18:04:28.416,626, 550, 323, -20, 13, 27, -10, 17, 31, 966, 947, 447,H
2025-03-19 18:04:28.426,666, 482, 387, -7, 14, 10, -12, 18, 32, 963, 946, 493,H
2025-03-19 18:04:28.434,668, 551, 427, -12, 12, -7, -10, 17, 32, 961, 941, 520,H
2025-03-19 18:04:28.443,675, 492, 416, -20, 6, -26, -12, 19, 28, 957, 942, 534,H
2025-03-19 18:04:28.454,630, 438, 394, -20, 1, -38, -12, 17, 32, 956, 941, 544,H
2025-03-19 18:04:28.461,552, 491, 430, -13, -4, -41, -13, 20, 29, 952, 942, 534,H
2025-03-19 18:04:28.471,464, 619, 513, -6, -10, -35, -11, 18, 31, 954, 941, 527,H
2025-03-19 18:04:28.477,446, 683, 581, -6, -18, -23, -12, 18, 31, 957, 941, 520,H
2025-03-19 18:04:28.488,471, 695, 642, 0, -28, -9, -12, 18, 30, 960, 942, 501,H
2025-03-19 18:04:28.493,606, 612, 636, -1, -38, 1, -12, 18, 30, 962, 945, 473,H
2025-03-19 18:04:28.507,742, 581, 636, 11, -43, 17, -12, 18, 29, 966, 949, 388,H
2025-03-19 18:04:28.516,1583, -329, 423, 8, -25, -26, -12, 18, 32, 971, 952, 426,H
2025-03-19 18:04:28.523,705, 657, 357, 18, -30, -27, -12, 18, 32, 972, 953, 399,H
2025-03-19 18:04:28.532,829, 907, -52, 9, -12, -6, -8, 16, 34, 974, 953, 334,H
2025-03-19 18:04:28.541,686, 804, 23, 14, 9, 7, -11, 18, 33, 976, 952, 298,H
2025-03-19 18:04:28.552,860, 1034, 74, -1, 19, 25, -12, 16, 34, 977, 953, 235,H
2025-03-19 18:04:28.560,820, 947, -86, -29, 39, 37, -10, 18, 33, 978, 953, 185,H
2025-03-19 18:04:28.569,838, 697, -131, 2, 55, 55, -11, 17, 33, 981, 950, 195,H
2025-03-19 18:04:28.577,699, 507, 309, 9, 51, 45, -11, 19, 31, 979, 949, 210,H
2025-03-19 18:04:28.586,709, 689, 350, -9, 41, 37, -10, 19, 32, 977, 946, 212,H
2025-03-19 18:04:28.597,671, 711, 335, -3, 34, 34, -10, 19, 32, 975, 943, 222,H
2025-03-19 18:04:28.605,623, 632, 406, -3, 26, 27, -12, 20, 31, 972, 934, 297,H
2025-03-19 18:04:28.611,711, 452, 459, 4, 18, 11, -11, 19, 31, 968, 926, 352,H
2025-03-19 18:04:28.623,820, 466, 349, 2, 18, -9, -10, 19, 31, 964, 917, 387,H
2025-03-19 18:04:28.630,724, 409, 324, -5, 17, -32, -11, 20, 30, 957, 911, 417,H
2025-03-19 18:04:28.640,750, 383, 273, -2, 19, -49, -10, 21, 30, 953, 901, 416,H
2025-03-19 18:04:28.651,689, 479, 234, -2, 24, -53, -10, 20, 31, 948, 895, 405,H
2025-03-19 18:04:28.659,674, 613, 348, -18, 25, -48, -11, 19, 29, 947, 891, 368,H
2025-03-19 18:04:28.666,578, 707, 485, -23, 20, -40, -11, 18, 30, 944, 883, 346,H
2025-03-19 18:04:28.676,579, 678, 562, -23, 12, -30, -12, 20, 30, 944, 877, 318,H
2025-03-19 18:04:28.683,595, 655, 601, -19, 4, -22, -10, 18, 30, 941, 873, 301,H
2025-03-19 18:04:28.693,563, 632, 628, -12, -4, -14, -12, 19, 30, 943, 870, 277,H
2025-03-19 18:04:28.704,585, 639, 621, -2, -12, -7, -12, 19, 30, 943, 869, 269,H
2025-03-19 18:04:28.711,566, 668, 546, 2, -19, 0, -12, 18, 28, 941, 871, 269,H
2025-03-19 18:04:28.721,593, 648, 481, 8, -23, 5, -11, 17, 29, 941, 870, 269,H
2025-03-19 18:04:28.729,644, 635, 416, 13, -24, 7, -12, 19, 29, 940, 865, 272,H
2025-03-19 18:04:28.740,682, 638, 369, 14, -23, 9, -11, 17, 27, 942, 865, 255,H
2025-03-19 18:04:28.743,729, 645, 340, 12, -22, 10, -12, 18, 30, 942, 866, 255,H
2025-03-19 18:04:28.756,762, 641, 299, 8, -20, 9, -11, 18, 30, 943, 864, 269,H
2025-03-19 18:04:28.764,791, 616, 266, 8, -15, 7, -11, 19, 29, 942, 862, 255,H
2025-03-19 18:04:28.772,818, 601, 250, 2, -9, 3, -11, 18, 30, 942, 860, 263,H
2025-03-19 18:04:28.781,811, 598, 249, -4, -3, 0, -11, 19, 30, 945, 860, 254,H
2025-03-19 18:04:28.791,778, 610, 259, -9, 2, -3, -11, 18, 31, 944, 858, 241,H
2025-03-19 18:04:28.802,754, 597, 291, -10, 5, -5, -11, 18, 31, 943, 859, 210,H
2025-03-19 18:04:28.810,722, 588, 355, -7, 7, -6, -12, 18, 30, 942, 855, 194,H
2025-03-19 18:04:28.819,702, 586, 394, -7, 6, -7, -11, 18, 32, 942, 855, 154,H
2025-03-19 18:04:28.826,686, 615, 410, -8, 5, -6, -12, 20, 27, 942, 854, 115,H
2025-03-19 18:04:28.835,669, 635, 420, -7, 3, -4, -12, 16, 30, 941, 850, 117,H
2025-03-19 18:04:28.843,668, 641, 419, -6, 1, -2, -10, 19, 29, 940, 848, 109,H
2025-03-19 18:04:28.855,661, 627, 417, -2, -1, 0, -10, 19, 31, 940, 845, 114,H
2025-03-19 18:04:28.861,689, 619, 420, 0, -1, 1, -11, 20, 30, 939, 839, 103,H
2025-03-19 18:04:28.872,699, 629, 382, -1, -2, 0, -11, 18, 31, 940, 834, 111,H
2025-03-19 18:04:28.880,702, 622, 357, -1, -2, 0, -12, 20, 29, 939, 830, 85,H
2025-03-19 18:04:29.140,680, 617, 377, -1, -1, -3, -11, 18, 30, 927, 795, 91,I
2025-03-19 18:04:29.151,693, 618, 381, -2, -2, -3, -11, 19, 31, 926, 797, 95,I
2025-03-19 18:04:29.158,678, 628, 384, 1, -3, -3, -11, 18, 30, 926, 795, 80,I
2025-03-19 18:04:29.166,691, 617, 376, 1, -2, -3, -11, 18, 31, 922, 796, 80,I
2025-03-19 18:04:29.175,686, 626, 374, 1, -1, -3, -11, 18, 30, 923, 793, 86,I
2025-03-19 18:04:29.187,674, 628, 379, 3, -2, -3, -11, 17, 31, 920, 790, 71,I
2025-03-19 18:04:29.194,675, 624, 382, 2, -3, -3, -10, 17, 29, 918, 788, 58,I
2025-03-19 18:04:29.203,682, 613, 375, 3, -4, -5, -11, 16, 30, 914, 782, 64,I
2025-03-19 18:04:29.210,689, 611, 371, 3, -4, -6, -11, 16, 30, 916, 773, 78,I
2025-03-19 18:04:29.221,689, 631, 368, 2, -4, -6, -11, 17, 30, 914, 775, 84,I
2025-03-19 18:04:29.232,701, 642, 356, 0, -4, -6, -11, 17, 29, 910, 776, 87,I
2025-03-19 18:04:29.241,705, 633, 347, 0, -3, -5, -12, 17, 30, 910, 770, 85,I
2025-03-19 18:04:29.247,700, 622, 350, -2, -3, -5, -12, 17, 30, 907, 767, 81,I
2025-03-19 18:04:29.257,683, 618, 369, -2, -3, -5, -10, 17, 30, 906, 770, 52,I
2025-03-19 18:04:29.261,659, 614, 395, -1, -4, -5, -11, 17, 30, 906, 777, 61,I
2025-03-19 18:04:29.274,674, 601, 398, 0, -5, -5, -11, 17, 29, 908, 783, 27,I
2025-03-19 18:04:29.280,670, 610, 401, 1, -7, -3, -10, 18, 30, 909, 786, 21,I
2025-03-19 18:04:29.293,666, 624, 409, 2, -10, 0, -11, 18, 29, 912, 792, 14,I
2025-03-19 18:04:29.302,665, 643, 432, 3, -15, 4, -11, 18, 29, 917, 806, 14,I
2025-03-19 18:04:29.310,722, 604, 434, 0, -18, 4, -11, 17, 29, 925, 821, 25,I
2025-03-19 18:04:29.319,766, 291, 262, -19, -10, -17, -12, 18, 29, 933, 841, 26,I
2025-03-19 18:04:29.326,745, 555, 388, 9, -13, -20, -10, 17, 30, 940, 865, 24,I
2025-03-19 18:04:29.335,816, 628, 334, 5, -14, -16, -10, 18, 30, 950, 893, 36,I
2025-03-19 18:04:29.344,766, 484, 271, 16, -12, -18, -11, 18, 29, 957, 910, 41,I
2025-03-19 18:04:29.355,914, 624, 402, 37, -18, -10, -10, 17, 31, 961, 923, 47,I
2025-03-19 18:04:29.361,841, 1071, 402, 0, -25, 5, -9, 17, 30, 963, 937, 39,I
2025-03-19 18:04:29.371,1025, 1041, 331, -29, -32, 26, -8, 17, 33, 965, 945, 45,I
2025-03-19 18:04:29.380,692, 804, 179, -42, -25, 30, -12, 17, 34, 971, 952, 82,I
2025-03-19 18:04:29.392,663, 549, 208, -33, -15, 29, -10, 18, 34, 970, 956, 130,I
2025-03-19 18:04:29.393,501, 462, 176, -22, -9, 20, -10, 18, 34, 972, 957, 152,I
2025-03-19 18:04:29.408,694, 642, 222, -20, 1, 17, -11, 17, 33, 971, 957, 254,I
2025-03-19 18:04:29.415,681, 610, 399, -13, 3, 17, -10, 16, 34, 968, 957, 288,I
2025-03-19 18:04:29.425,572, 562, 396, -2, 2, 13, -12, 19, 32, 967, 953, 294,I
2025-03-19 18:04:29.433,625, 602, 487, 7, 0, 11, -11, 17, 34, 963, 949, 310,I
2025-03-19 18:04:29.445,593, 529, 463, 21, 3, 5, -11, 19, 35, 958, 941, 378,I
2025-03-19 18:04:29.453,661, 575, 483, 26, 0, 1, -11, 18, 35, 952, 935, 404,I
2025-03-19 18:04:29.461,574, 636, 322, 23, 3, -3, -12, 18, 31, 950, 926, 402,I
2025-03-19 18:04:29.469,601, 499, 253, 24, 12, -12, -11, 16, 35, 947, 921, 391,I
2025-03-19 18:04:29.477,604, 457, 368, 27, 15, -20, -12, 17, 32, 950, 914, 321,I
2025-03-19 18:04:29.490,579, 598, 471, 19, 6, -24, -10, 15, 35, 949, 905, 266,I
2025-03-19 18:04:29.492,609, 702, 466, 8, -6, -20, -11, 17, 32, 947, 902, 62,I
2025-03-19 18:04:29.507,967, 484, 319, -7, -6, -24, -11, 17, 32, 952, 905, 52,I
2025-03-19 18:04:29.512,961, 592, 385, -7, -8, -18, -10, 17, 34, 956, 910, 58,I
2025-03-19 18:04:29.523,883, 594, 358, -14, -12, -14, -10, 16, 33, 962, 919, 53,I
2025-03-19 18:04:29.532,781, 413, 310, 9, -10, -16, -11, 17, 35, 965, 927, 55,I
2025-03-19 18:04:29.543,840, 625, 273, 18, -5, -12, -10, 17, 31, 971, 933, 57,I
2025-03-19 18:04:29.552,909, 956, 264, 13, 11, 13, -10, 16, 34, 972, 940, 59,I
2025-03-19 18:04:29.559,866, 1107, 107, -17, 20, 33, -10, 18, 32, 973, 944, 59,I
2025-03-19 18:04:29.568,546, 784, 144, -23, 39, 50, -9, 16, 35, 974, 945, 23,I
2025-03-19 18:04:29.576,607, 552, 223, -19, 49, 55, -9, 19, 33, 974, 946, 32,I
2025-03-19 18:04:29.586,677, 473, 433, -5, 40, 36, -9, 17, 34, 977, 943, 28,I
2025-03-19 18:04:29.594,864, 683, 205, 26, 40, 35, -11, 18, 32, 975, 939, 15,I
2025-03-19 18:04:29.605,898, 1041, 114, 8, 44, 47, -11, 18, 32, 974, 932, 32,I
2025-03-19 18:04:29.611,768, 847, 224, -38, 47, 57, -8, 18, 32, 970, 926, 44,I
2025-03-19 18:04:29.622,840, 717, 339, -10, 43, 44, -10, 18, 32, 966, 912, 41,I
2025-03-19 18:04:29.629,680, 465, 403, 1, 38, 30, -11, 19, 32, 964, 896, 46,I
2025-03-19 18:04:29.642,656, 439, 374, 10, 36, 15, -9, 20, 30, 957, 876, 69,I
2025-03-19 18:04:29.644,685, 345, 324, 19, 38, -10, -9, 19, 30, 951, 843, 87,I
2025-03-19 18:04:29.658,553, 345, 391, 32, 36, -32, -12, 20, 29, 945, 801, 95,I
2025-03-19 18:04:29.665,531, 419, 511, 34, 27, -39, -9, 17, 30, 941, 766, 84,I
2025-03-19 18:04:29.674,422, 597, 623, 23, 12, -36, -9, 19, 27, 941, 721, 64,I
2025-03-19 18:04:29.681,462, 725, 647, 16, -8, -25, -10, 20, 28, 941, 654, 47,I
2025-03-19 18:04:29.693,616, 711, 566, 20, -21, -14, -9, 19, 28, 940, 643, 13,I
2025-03-19 18:04:29.703,849, 615, 502, 33, -26, 2, -9, 19, 28, 943, 689, 13,I
2025-03-19 18:04:29.711,1512, 442, 294, -35, -12, -15, -9, 17, 28, 950, 794, 20,I
2025-03-19 18:04:29.720,893, 388, 259, 30, -11, -18, -10, 20, 28, 956, 872, 20,I
2025-03-19 18:04:29.728,781, 835, 312, -6, -11, -9, -10, 17, 29, 961, 914, 26,I
2025-03-19 18:04:29.737,937, 629, 233, -9, -11, -2, -9, 18, 27, 963, 934, 20,I
2025-03-19 18:04:29.747,903, 799, 364, -4, -12, 9, -8, 17, 29, 967, 942, 29,I
2025-03-19 18:04:29.756,912, 923, 288, -19, -13, 26, -9, 19, 30, 969, 944, 46,I
2025-03-19 18:04:29.764,668, 763, 102, -41, -8, 35, -10, 19, 31, 969, 948, 57,I
2025-03-19 18:04:29.772,717, 562, 114, -26, 4, 34, -9, 17, 28, 969, 950, 63,I
2025-03-19 18:04:29.781,675, 658, 381, -21, 8, 30, -10, 19, 30, 968, 949, 111,I
2025-03-19 18:04:29.789,746, 596, 463, -12, 6, 24, -10, 19, 30, 967, 942, 162,I
2025-03-19 18:04:29.801,559, 435, 378, 4, 10, 15, -9, 18, 29, 963, 935, 233,I
2025-03-19 18:04:29.809,618, 433, 363, 5, 17, -6, -9, 19, 30, 958, 929, 286,I
2025-03-19 18:04:29.818,763, 467, 315, 11, 26, -19, -9, 19, 29, 957, 921, 331,I
2025-03-19 18:04:29.827,728, 512, 305, -2, 33, -34, -11, 20, 28, 954, 911, 327,I
2025-03-19 18:04:29.835,715, 561, 328, -13, 35, -40, -10, 17, 28, 954, 904, 288,I
2025-03-19 18:04:29.844,654, 628, 346, -22, 33, -39, -11, 19, 28, 953, 889, 237,I
2025-03-19 18:04:29.855,625, 656, 384, -26, 30, -36, -10, 18, 27, 952, 871, 195,I
2025-03-19 18:04:29.862,618, 639, 451, -23, 24, -29, -12, 20, 27, 951, 856, 109,I
2025-03-19 18:04:29.871,637, 653, 513, -18, 16, -21, -10, 17, 28, 949, 850, 116,I
2025-03-19 18:04:29.871,645, 666, 573, -9, 7, -11, -13, 19, 26, 950, 848, 81,I
2025-03-19 18:04:29.887,629, 666, 571, -3, -1, -3, -10, 17, 28, 948, 850, 99,I
2025-03-19 18:04:29.895,635, 624, 517, 2, -6, 0, -10, 17, 28, 948, 853, 122,I
2025-03-19 18:04:29.908,649, 607, 476, 6, -9, 0, -12, 19, 27, 945, 855, 137,I
2025-03-19 18:04:29.915,665, 610, 429, 9, -9, 0, -9, 18, 27, 943, 858, 144,I
2025-03-19 18:04:29.925,661, 618, 397, 8, -9, 1, -10, 19, 28, 941, 860, 148,I
2025-03-19 18:04:29.933,673, 624, 377, 8, -10, 2, -9, 17, 27, 942, 859, 160,I
2025-03-19 18:04:29.940,710, 632, 368, 8, -10, 2, -12, 20, 27, 939, 859, 164,I
2025-03-19 18:04:29.953,723, 612, 362, 5, -9, 0, -10, 17, 29, 939, 856, 176,I
2025-03-19 18:04:29.960,730, 607, 359, 4, -8, -2, -12, 19, 27, 938, 852, 185,I
2025-03-19 18:04:29.969,746, 616, 355, 2, -6, -2, -11, 17, 29, 936, 847, 190,I
2025-03-19 18:04:29.976,719, 628, 352, -4, -3, -3, -12, 19, 28, 938, 848, 183,I
2025-03-19 18:04:29.986,700, 622, 354, -5, -1, -3, -12, 19, 28, 936, 847, 185,I
2025-03-19 18:04:29.994,683, 617, 387, -5, -1, -4, -9, 17, 27, 935, 845, 180,I
2025-03-19 18:04:30.006,683, 618, 409, -4, -3, -5, -11, 19, 26, 933, 841, 175,I
2025-03-19 18:04:30.010,674, 617, 425, -1, -5, -5, -11, 18, 29, 933, 838, 173,I
2025-03-19 18:04:30.022,686, 630, 428, -2, -6, -2, -13, 17, 26, 932, 838, 161,I
2025-03-19 18:04:30.031,685, 634, 404, -2, -7, -1, -10, 18, 28, 931, 840, 156,I
2025-03-19 18:04:30.039,680, 634, 380, -3, -6, -1, -11, 20, 28, 933, 838, 152,I
2025-03-19 18:04:30.044,677, 606, 386, -3, -5, -1, -11, 17, 30, 930, 836, 153,I
2025-03-19 18:04:30.059,674, 607, 384, -1, -5, -1, -11, 20, 27, 931, 836, 137,I
2025-03-19 18:04:30.067,690, 628, 397, -4, -5, 0, -11, 17, 29, 931, 834, 119,I
2025-03-19 18:04:30.076,706, 632, 383, -4, -5, 1, -12, 19, 27, 933, 836, 113,I
2025-03-19 18:04:30.084,714, 624, 360, -5, -4, 0, -12, 19, 27, 932, 835, 92,I
2025-03-19 18:04:30.092,720, 623, 355, -7, -2, -1, -10, 18, 29, 932, 829, 106,I
2025-03-19 18:04:30.361,687, 618, 394, -4, -13, -7, -13, 20, 30, 916, 853, 77,J
2025-03-19 18:04:30.371,707, 622, 376, -5, -12, -7, -11, 19, 29, 915, 853, 40,J
2025-03-19 18:04:30.378,698, 631, 366, -6, -11, -6, -11, 19, 29, 913, 846, 32,J
2025-03-19 18:04:30.388,695, 631, 371, -7, -11, -6, -11, 19, 29, 914, 846, 28,J
2025-03-19 18:04:30.392,677, 625, 375, -7, -11, -6, -11, 17, 28, 912, 847, 44,J
2025-03-19 18:04:30.408,672, 626, 386, -6, -12, -5, -12, 18, 29, 910, 855, 43,J
2025-03-19 18:04:30.415,669, 622, 388, -4, -13, -4, -10, 18, 30, 910, 857, 51,J
2025-03-19 18:04:30.425,679, 618, 399, -2, -14, -3, -11, 19, 29, 910, 860, 61,J
2025-03-19 18:04:30.432,667, 624, 410, -1, -13, -1, -10, 17, 30, 911, 862, 64,J
2025-03-19 18:04:30.441,653, 618, 420, 2, -14, 2, -12, 19, 29, 912, 865, 64,J
2025-03-19 18:04:30.448,658, 603, 421, 5, -15, 4, -11, 19, 29, 918, 868, 51,J
2025-03-19 18:04:30.460,631, 560, 447, 13, -15, 7, -11, 19, 29, 923, 871, 41,J
2025-03-19 18:04:30.469,620, 558, 489, 20, -20, 9, -9, 18, 29, 928, 876, 13,J
2025-03-19 18:04:30.476,1679, 358, 313, -7, -11, -21, -9, 18, 29, 942, 889, 11,J
2025-03-19 18:04:30.485,686, 475, 272, 34, -7, -28, -11, 18, 30, 945, 903, 13,J
2025-03-19 18:04:30.493,875, 868, 381, 6, -12, -18, -10, 17, 32, 950, 909, 21,J
2025-03-19 18:04:30.503,833, 750, 174, -5, -7, -9, -10, 18, 31, 958, 922, 27,J
2025-03-19 18:04:30.511,776, 562, 171, 19, -2, -7, -10, 18, 30, 962, 936, 28,J
2025-03-19 18:04:30.522,843, 604, 342, 28, -5, -5, -10, 18, 30, 965, 946, 32,J
2025-03-19 18:04:30.530,936, 880, 441, 19, -15, 10, -9, 16, 32, 968, 951, 19,J
2025-03-19 18:04:30.537,864, 1018, 315, -16, -19, 26, -12, 19, 30, 970, 953, 111,J
2025-03-19 18:04:30.545,716, 622, 82, -19, -10, 29, -11, 17, 32, 969, 956, 133,J
2025-03-19 18:04:30.554,684, 707, 241, -12, -10, 32, -12, 18, 30, 972, 959, 171,J
2025-03-19 18:04:30.567,597, 482, 279, -9, -4, 20, -11, 16, 31, 969, 957, 246,J
2025-03-19 18:04:30.575,745, 595, 536, 8, -8, 20, -11, 16, 31, 971, 956, 272,J
2025-03-19 18:04:30.584,610, 587, 359, -1, -5, 14, -12, 19, 31, 967, 953, 304,J
2025-03-19 18:04:30.591,625, 458, 464, 20, -3, 6, -11, 18, 33, 964, 946, 347,J
2025-03-19 18:04:30.601,531, 527, 497, 38, -2, -1, -11, 19, 31, 957, 936, 355,J
2025-03-19 18:04:30.610,646, 630, 475, 42, -5, -3, -10, 17, 31, 950, 930, 380,J
2025-03-19 18:04:30.621,581, 542, 280, 37, 0, -8, -12, 18, 31, 944, 922, 398,J
2025-03-19 18:04:30.629,659, 467, 216, 35, 10, -19, -9, 16, 33, 941, 920, 412,J
2025-03-19 18:04:30.637,640, 469, 277, 33, 16, -27, -12, 19, 32, 938, 918, 383,J
2025-03-19 18:04:30.645,656, 620, 381, 29, 13, -26, -10, 16, 32, 940, 916, 372,J
2025-03-19 18:04:30.655,685, 668, 450, 25, 2, -15, -11, 18, 32, 944, 916, 358,J
2025-03-19 18:04:30.662,777, 674, 475, 21, -6, 1, -11, 17, 32, 954, 925, 240,J
2025-03-19 18:04:30.674,819, 291, 357, 21, -1, -18, -11, 17, 31, 964, 930, 244,J
2025-03-19 18:04:30.680,829, 742, 332, 20, 0, -9, -11, 17, 31, 967, 935, 239,J
2025-03-19 18:04:30.691,777, 960, 231, -2, 15, 14, -10, 16, 34, 968, 937, 231,J
2025-03-19 18:04:30.697,837, 929, 81, -15, 35, 36, -10, 17, 32, 973, 942, 93,J
2025-03-19 18:04:30.710,664, 735, 327, -32, 37, 40, -10, 15, 31, 975, 943, 23,J
2025-03-19 18:04:30.718,871, 402, 367, -4, 36, 34, -10, 16, 32, 975, 944, 16,J
2025-03-19 18:04:30.727,687, 778, 321, -14, 34, 37, -8, 17, 33, 977, 947, 39,J
2025-03-19 18:04:30.736,719, 923, 218, -41, 39, 50, -9, 17, 31, 976, 950, 29,J
2025-03-19 18:04:30.743,765, 609, 260, -41, 30, 32, -9, 17, 32, 976, 949, 34,J
2025-03-19 18:04:30.753,667, 803, 203, -19, 33, 33, -10, 18, 30, 974, 950, 22,J
2025-03-19 18:04:30.761,669, 641, 453, -36, 24, 30, -11, 18, 30, 972, 947, 14,J
2025-03-19 18:04:30.772,666, 495, 487, -27, 15, 21, -9, 18, 28, 971, 942, 23,J
2025-03-19 18:04:30.780,667, 517, 408, -22, 13, 15, -9, 18, 28, 966, 936, 27,J
2025-03-19 18:04:30.789,696, 447, 451, -9, 12, 7, -11, 19, 30, 959, 925, 39,J
2025-03-19 18:04:30.797,608, 290, 514, 19, 6, -10, -11, 18, 29, 950, 907, 36,J
2025-03-19 18:04:30.806,706, 242, 535, 48, -7, -29, -10, 18, 27, 940, 881, 49,J
2025-03-19 18:04:30.817,932, 272, 391, 42, -9, -49, -10, 18, 29, 928, 847, 38,J
2025-03-19 18:04:30.826,963, 491, 243, 20, -3, -58, -10, 17, 29, 913, 816, 50,J
2025-03-19 18:04:30.834,983, 615, 122, 4, 5, -60, -9, 16, 27, 907, 803, 48,J
2025-03-19 18:04:30.842,926, 656, 54, -3, 16, -55, -8, 18, 28, 901, 792, 35,J
2025-03-19 18:04:30.851,813, 692, 137, -15, 26, -48, -10, 17, 29, 901, 790, 43,J
2025-03-19 18:04:30.858,717, 673, 292, -20, 29, -42, -11, 17, 28, 898, 791, 48,J
2025-03-19 18:04:30.870,639, 655, 435, -20, 26, -37, -11, 17, 28, 898, 797, 44,J
2025-03-19 18:04:30.876,604, 654, 515, -16, 18, -33, -10, 16, 29, 898, 798, 40,J
2025-03-19 18:04:31.176,651, 663, 372, -14, -14, -3, -12, 18, 30, 908, 844, 27,K
2025-03-19 18:04:31.186,629, 654, 403, -12, -19, 1, -10, 16, 32, 912, 849, 23,K
2025-03-19 18:04:31.190,622, 647, 430, -9, -24, 5, -11, 17, 30, 915, 864, 11,K
2025-03-19 18:04:31.202,680, 604, 410, -10, -26, 5, -11, 15, 30, 920, 882, 18,K
2025-03-19 18:04:31.211,687, 585, 385, -4, -26, 4, -11, 15, 30, 923, 894, 10,K
2025-03-19 18:04:31.219,720, 665, 370, -1, -25, 6, -11, 18, 31, 924, 899, 22,K
2025-03-19 18:04:31.230,768, 604, 301, -12, -20, 3, -11, 17, 31, 930, 907, 33,K
2025-03-19 18:04:31.239,777, 459, 211, -18, -6, -10, -11, 18, 30, 936, 912, 44,K
2025-03-19 18:04:31.248,749, 749, 302, -11, -4, -4, -10, 16, 33, 941, 915, 43,K
2025-03-19 18:04:31.257,737, 671, 274, -24, -2, -1, -11, 17, 31, 944, 917, 43,K
2025-03-19 18:04:31.263,722, 546, 309, -16, 0, -3, -10, 18, 32, 947, 916, 40,K
2025-03-19 18:04:31.272,697, 534, 404, -2, 0, -6, -10, 18, 31, 950, 915, 40,K
2025-03-19 18:04:31.284,707, 523, 452, 12, -1, -7, -10, 17, 32, 954, 911, 30,K
2025-03-19 18:04:31.292,700, 525, 416, 28, 1, -8, -10, 17, 31, 958, 904, 21,K
2025-03-19 18:04:31.301,718, 586, 193, 52, 16, 1, -9, 17, 31, 958, 891, 20,K
2025-03-19 18:04:31.308,813, 791, 276, 37, 33, 11, -9, 17, 31, 962, 876, 28,K
2025-03-19 18:04:31.317,712, 768, 401, 21, 36, 18, -10, 17, 31, 963, 862, 29,K
2025-03-19 18:04:31.326,752, 668, 253, 26, 38, 24, -11, 18, 33, 964, 856, 26,K
2025-03-19 18:04:31.337,792, 891, 249, -21, 42, 22, -12, 17, 30, 964, 841, 25,K
2025-03-19 18:04:31.343,725, 731, 186, -14, 39, 32, -10, 17, 31, 964, 840, 21,K
2025-03-19 18:04:31.354,734, 573, 395, -19, 22, 19, -8, 16, 31, 963, 851, 19,K
2025-03-19 18:04:31.361,743, 632, 96, -20, 18, 14, -11, 20, 30, 965, 876, 24,K
2025-03-19 18:04:31.371,770, 695, 154, -16, 16, 14, -9, 18, 30, 967, 897, 25,K
2025-03-19 18:04:31.375,814, 653, 227, -12, 15, 17, -10, 18, 30, 968, 921, 32,K
2025-03-19 18:04:31.391,760, 823, 282, -27, 14, 24, -11, 20, 28, 969, 936, 10,K
2025-03-19 18:04:31.394,875, 791, 562, -49, -3, 27, -12, 20, 29, 969, 948, 10,K
2025-03-19 18:04:31.406,625, 647, 429, -67, -13, 23, -12, 20, 29, 968, 954, 18,K
2025-03-19 18:04:31.414,777, 395, 545, -43, -28, 11, -10, 20, 30, 969, 958, 36,K
2025-03-19 18:04:31.423,784, 550, 704, -24, -32, 8, -10, 20, 31, 970, 958, 44,K
2025-03-19 18:04:31.435,806, 525, 334, -32, -34, -2, -10, 18, 30, 969, 961, 48,K
2025-03-19 18:04:31.442,609, 306, 342, 4, -38, -8, -12, 21, 30, 969, 958, 36,K
2025-03-19 18:04:31.453,456, 527, 440, 22, -24, -9, -11, 19, 31, 966, 956, 44,K
2025-03-19 18:04:31.461,628, 552, 354, 26, -16, -9, -11, 19, 31, 961, 953, 37,K
2025-03-19 18:04:31.469,688, 557, 336, 38, -9, -7, -12, 19, 32, 959, 948, 51,K
2025-03-19 18:04:31.476,702, 580, 363, 48, 0, -7, -12, 19, 31, 955, 931, 32,K
2025-03-19 18:04:31.489,729, 579, 445, 55, -3, -9, -11, 17, 32, 951, 917, 117,K
2025-03-19 18:04:31.493,728, 628, 149, 40, 11, -14, -12, 19, 31, 947, 904, 94,K
2025-03-19 18:04:31.506,754, 583, 96, 19, 34, -26, -12, 19, 31, 946, 890, 24,K
2025-03-19 18:04:31.511,643, 576, 236, -2, 47, -35, -10, 17, 32, 943, 863, 33,K
2025-03-19 18:04:31.523,508, 637, 363, -24, 45, -41, -11, 20, 31, 941, 815, 22,K
2025-03-19 18:04:31.530,431, 673, 516, -24, 32, -34, -10, 18, 30, 943, 774, 27,K
2025-03-19 18:04:31.541,491, 692, 598, -9, 12, -14, -12, 18, 30, 944, 757, 28,K
2025-03-19 18:04:31.550,552, 810, 758, 15, -17, 26, -9, 18, 28, 948, 787, 21,K
2025-03-19 18:04:31.558,655, 781, 763, 4, -42, 44, -11, 18, 30, 955, 841, 26,K
2025-03-19 18:04:31.567,3117, -235, 118, -2, -21, -13, -9, 19, 31, 964, 904, 18,K
2025-03-19 18:04:31.575,794, 699, 305, 77, -25, -20, -10, 17, 31, 970, 923, 20,K
2025-03-19 18:04:31.584,801, 1231, 203, -7, -23, 1, -10, 16, 31, 972, 939, 14,K
2025-03-19 18:04:31.592,825, 519, -97, -15, -4, 5, -10, 20, 31, 974, 946, 10,K
2025-03-19 18:04:31.604,850, 710, 159, 14, 4, 11, -10, 20, 31, 976, 948, 23,K
2025-03-19 18:04:31.610,839, 873, 247, -18, 7, 21, -9, 16, 32, 973, 951, 36,K
2025-03-19 18:04:31.620,772, 758, 19, -26, 19, 31, -10, 18, 33, 974, 952, 40,K
2025-03-19 18:04:31.627,711, 688, 259, -27, 26, 42, -10, 17, 33, 975, 951, 51,K
2025-03-19 18:04:31.640,795, 634, 460, -47, 22, 39, -10, 20, 31, 974, 949, 43,K
2025-03-19 18:04:31.649,845, 494, 413, -18, 19, 32, -10, 17, 29, 972, 944, 38,K
2025-03-19 18:04:31.656,726, 562, 519, 0, 17, 32, -11, 21, 31, 968, 936, 50,K
2025-03-19 18:04:31.662,667, 478, 492, -12, 14, 15, -10, 19, 31, 964, 926, 29,K
2025-03-19 18:04:31.673,805, 276, 342, 3, 20, -4, -10, 21, 30, 961, 914, 29,K
2025-03-19 18:04:31.681,806, 328, 277, 15, 29, -30, -10, 18, 30, 953, 901, 44,K
2025-03-19 18:04:31.691,733, 430, 244, 11, 34, -47, -12, 19, 28, 948, 884, 68,K
2025-03-19 18:04:31.702,665, 561, 225, -7, 37, -51, -12, 19, 28, 946, 871, 71,K
2025-03-19 18:04:31.709,561, 682, 297, -20, 35, -46, -9, 19, 31, 943, 860, 74,K
2025-03-19 18:04:31.718,580, 715, 449, -22, 30, -40, -11, 18, 29, 940, 843, 53,K
2025-03-19 18:04:31.726,619, 709, 493, -26, 25, -37, -11, 17, 30, 937, 822, 43,K
2025-03-19 18:04:31.735,619, 650, 534, -24, 20, -33, -12, 20, 27, 932, 807, 34,K
2025-03-19 18:04:31.746,530, 612, 577, -12, 10, -26, -11, 18, 30, 930, 792, 24,K
2025-03-19 18:04:31.756,498, 616, 633, 2, -2, -19, -11, 18, 27, 928, 782, 22,K
2025-03-19 18:04:31.760,541, 621, 602, 15, -10, -13, -11, 18, 30, 926, 778, 31,K
2025-03-19 18:04:31.770,604, 661, 511, 19, -13, -6, -12, 18, 29, 923, 770, 24,K
2025-03-19 18:04:31.780,596, 687, 491, 21, -16, 1, -12, 17, 30, 925, 768, 27,K
2025-03-19 18:04:31.791,626, 700, 507, 23, -21, 7, -11, 19, 28, 922, 765, 28,K
2025-03-19 18:04:31.800,661, 662, 448, 20, -23, 9, -11, 19, 28, 922, 763, 26,K
2025-03-19 18:04:31.808,692, 610, 377, 21, -23, 10, -12, 18, 29, 921, 765, 48,K
2025-03-19 18:04:31.817,714, 603, 346, 20, -22, 9, -10, 18, 28, 920, 767, 58,K
2025-03-19 18:04:31.825,745, 624, 324, 18, -20, 7, -12, 16, 30, 919, 769, 67,K
2025-03-19 18:04:31.834,752, 639, 285, 12, -18, 6, -12, 17, 30, 920, 772, 73,K
2025-03-19 18:04:31.842,766, 612, 270, 10, -15, 4, -11, 16, 29, 922, 772, 85,K
2025-03-19 18:04:31.853,781, 607, 284, 9, -11, 1, -11, 17, 29, 920, 773, 78,K
2025-03-19 18:04:31.862,798, 647, 294, 3, -6, -2, -11, 17, 29, 922, 775, 75,K
2025-03-19 18:04:31.870,782, 654, 270, -7, -1, -4, -12, 18, 29, 923, 780, 69,K
2025-03-19 18:04:31.870,725, 643, 280, -11, 3, -4, -11, 18, 28, 923, 783, 55,K
2025-03-19 18:04:31.887,672, 628, 341, -11, 4, -3, -11, 18, 28, 924, 786, 50,K
2025-03-19 18:04:31.893,668, 620, 391, -8, 3, -1, -11, 16, 29, 924, 787, 54,K
2025-03-19 18:04:31.905,689, 632, 406, -7, 2, -1, -10, 17, 31, 925, 790, 56,K
2025-03-19 18:04:31.914,696, 633, 400, -4, 1, -1, -11, 19, 28, 925, 790, 59,K
2025-03-19 18:04:31.923,695, 651, 396, -5, 1, -1, -10, 19, 30, 925, 788, 66,K
2025-03-19 18:04:31.931,680, 658, 382, -5, 1, -1, -10, 17, 31, 926, 793, 58,K
2025-03-19 18:04:32.240,699, 637, 333, -1, -14, -3, -11, 17, 32, 901, 826, 26,L
2025-03-19 18:04:32.250,705, 615, 328, 0, -13, -3, -11, 17, 32, 904, 827, 26,L
2025-03-19 18:04:32.256,722, 620, 331, 2, -12, -2, -12, 19, 29, 904, 827, 49,L
2025-03-19 18:04:32.267,721, 640, 326, 0, -10, -2, -12, 16, 31, 906, 833, 29,L
2025-03-19 18:04:32.276,752, 635, 306, -3, -8, -2, -11, 18, 30, 908, 838, 42,L
2025-03-19 18:04:32.284,743, 623, 307, -2, -7, -4, -11, 18, 32, 909, 844, 22,L
2025-03-19 18:04:32.292,722, 639, 323, -3, -7, -5, -11, 18, 29, 911, 847, 31,L
2025-03-19 18:04:32.304,694, 656, 322, -8, -9, -5, -8, 17, 32, 913, 853, 26,L
2025-03-19 18:04:32.311,687, 650, 312, -7, -8, -5, -12, 16, 31, 914, 862, 29,L
2025-03-19 18:04:32.320,682, 622, 324, -5, -8, -4, -12, 17, 32, 916, 871, 7,L
2025-03-19 18:04:32.328,711, 631, 347, -5, -8, -4, -11, 19, 30, 917, 883, 26,L
2025-03-19 18:04:32.338,705, 638, 362, -5, -9, -2, -11, 19, 30, 921, 891, 28,L
2025-03-19 18:04:32.343,691, 634, 362, -4, -8, 0, -10, 17, 31, 922, 896, 39,L
2025-03-19 18:04:32.357,712, 618, 355, -2, -6, 1, -11, 18, 29, 926, 901, 41,L
2025-03-19 18:04:32.365,722, 620, 349, -2, -5, 1, -11, 17, 31, 930, 904, 42,L
2025-03-19 18:04:32.373,717, 601, 348, 0, -4, 0, -11, 18, 30, 934, 909, 48,L
2025-03-19 18:04:32.380,816, 552, 304, -3, -1, -6, -11, 18, 31, 938, 913, 31,L
2025-03-19 18:04:32.389,724, 594, 355, 3, 0, -8, -12, 17, 30, 943, 919, 33,L
2025-03-19 18:04:32.397,711, 674, 364, -3, -1, -6, -11, 16, 31, 948, 920, 20,L
2025-03-19 18:04:32.406,719, 638, 353, -4, -1, -5, -10, 17, 30, 954, 924, 16,L
2025-03-19 18:04:32.418,698, 603, 379, 0, -2, -6, -10, 17, 30, 955, 926, 10,L
2025-03-19 18:04:32.427,693, 597, 402, 2, -3, -7, -10, 17, 30, 959, 927, 21,L
2025-03-19 18:04:32.436,686, 576, 393, 6, -3, -8, -11, 18, 30, 960, 927, 28,L
2025-03-19 18:04:32.442,705, 622, 348, 15, 3, -4, -12, 18, 31, 961, 927, 33,L
2025-03-19 18:04:32.452,673, 657, 322, 20, 10, -2, -10, 18, 32, 965, 923, 42,L
2025-03-19 18:04:32.460,802, 598, 402, 31, 15, 7, -10, 17, 30, 965, 918, 39,L
2025-03-19 18:04:32.473,847, 646, 374, 25, 22, 5, -9, 17, 30, 968, 915, 45,L
2025-03-19 18:04:32.480,809, 672, 367, 12, 32, 13, -12, 17, 30, 968, 911, 40,L
2025-03-19 18:04:32.488,563, 757, 228, 21, 42, 27, -9, 17, 30, 969, 905, 44,L
2025-03-19 18:04:32.493,598, 722, 251, 6, 45, 30, -9, 18, 31, 971, 904, 34,L
2025-03-19 18:04:32.505,591, 727, 152, 5, 45, 26, -9, 16, 30, 974, 908, 27,L
2025-03-19 18:04:32.510,977, 653, 433, -11, 32, 23, -9, 16, 30, 974, 917, 26,L
2025-03-19 18:04:32.524,850, 687, 171, -8, 27, 22, -10, 18, 29, 975, 924, 21,L
2025-03-19 18:04:32.533,869, 688, 105, -9, 28, 26, -9, 17, 29, 976, 932, 35,L
2025-03-19 18:04:32.541,801, 674, 346, -12, 18, 24, -9, 19, 28, 975, 944, 24,L
2025-03-19 18:04:32.550,872, 756, 340, -21, 10, 32, -8, 19, 30, 976, 950, 26,L
2025-03-19 18:04:32.558,808, 673, 466, -32, -2, 29, -10, 19, 28, 976, 956, 17,L
2025-03-19 18:04:32.570,607, 507, 522, -17, -15, 27, -10, 18, 29, 976, 958, 24,L
2025-03-19 18:04:32.578,712, 514, 458, -3, -13, 24, -10, 18, 28, 976, 958, 21,L
2025-03-19 18:04:32.587,544, 530, 342, 10, -9, 19, -11, 18, 29, 975, 958, 20,L
2025-03-19 18:04:32.593,566, 512, 533, 16, -11, 13, -11, 19, 28, 976, 953, 70,L
2025-03-19 18:04:32.604,678, 419, 353, 40, -3, 7, -10, 18, 30, 972, 946, 169,L
2025-03-19 18:04:32.611,732, 612, 373, 53, 3, 9, -10, 18, 30, 966, 930, 214,L
2025-03-19 18:04:32.623,783, 723, 298, 44, 13, 12, -10, 19, 30, 957, 917, 271,L
2025-03-19 18:04:32.632,877, 604, 153, 15, 32, 4, -10, 17, 30, 954, 904, 269,L
2025-03-19 18:04:32.641,891, 497, 82, -2, 50, -13, -10, 18, 27, 950, 889, 274,L
2025-03-19 18:04:32.649,809, 496, 158, -18, 56, -27, -10, 18, 29, 949, 878, 212,L
2025-03-19 18:04:32.657,737, 471, 239, -26, 59, -38, -11, 19, 29, 947, 859, 129,L
2025-03-19 18:04:32.668,669, 562, 310, -27, 57, -42, -11, 18, 28, 946, 840, 103,L
2025-03-19 18:04:32.676,614, 664, 415, -29, 50, -38, -11, 19, 26, 944, 822, 86,L
2025-03-19 18:04:32.685,548, 698, 541, -27, 38, -31, -9, 17, 29, 941, 809, 86,L
2025-03-19 18:04:32.692,500, 697, 644, -21, 23, -21, -12, 19, 26, 940, 800, 73,L
2025-03-19 18:04:32.702,495, 687, 683, -16, 9, -13, -10, 18, 27, 938, 796, 66,L
2025-03-19 18:04:32.710,512, 639, 659, -9, -3, -8, -11, 20, 25, 939, 789, 57,L
2025-03-19 18:04:33.017,671, 658, 400, 5, -16, -8, -12, 18, 27, 886, 795, 22,M
2025-03-19 18:04:33.026,664, 668, 395, 3, -18, -4, -11, 17, 30, 882, 798, 37,M
2025-03-19 18:04:33.037,662, 659, 385, 3, -21, -2, -13, 18, 28, 882, 805, 12,M
2025-03-19 18:04:33.045,673, 650, 377, 4, -24, 1, -11, 15, 28, 884, 814, 13,M
2025-03-19 18:04:33.054,666, 647, 393, 3, -27, 3, -11, 15, 28, 885, 832, 18,M
2025-03-19 18:04:33.062,696, 583, 342, 5, -25, 0, -11, 18, 30, 890, 844, 17,M
2025-03-19 18:04:33.071,697, 627, 323, 4, -23, -1, -11, 15, 30, 894, 857, 25,M
2025-03-19 18:04:33.078,692, 655, 322, 0, -21, -1, -11, 16, 30, 900, 870, 31,M
2025-03-19 18:04:33.090,721, 580, 297, -4, -16, -9, -10, 17, 30, 908, 885, 22,M
2025-03-19 18:04:33.093,665, 496, 277, -2, -10, -18, -11, 17, 30, 913, 897, 34,M
2025-03-19 18:04:33.104,717, 703, 337, -3, -9, -13, -10, 17, 31, 922, 903, 46,M
2025-03-19 18:04:33.110,759, 650, 306, -13, -6, -10, -11, 17, 31, 930, 911, 32,M
2025-03-19 18:04:33.123,765, 561, 413, -4, -5, -8, -9, 16, 30, 938, 915, 47,M
2025-03-19 18:04:33.131,710, 464, 508, 4, -10, -14, -10, 17, 31, 949, 919, 24,M
2025-03-19 18:04:33.141,736, 414, 406, 16, -12, -15, -10, 15, 31, 958, 922, 25,M
2025-03-19 18:04:33.152,813, 644, 395, 31, -6, -7, -10, 15, 31, 962, 923, 15,M
2025-03-19 18:04:33.161,825, 917, 209, 33, 14, 12, -11, 17, 31, 966, 923, 41,M
2025-03-19 18:04:33.169,507, 1039, 168, 7, 40, 42, -8, 17, 31, 969, 926, 40,M
2025-03-19 18:04:33.175,558, 890, 148, -11, 57, 52, -11, 17, 32, 970, 928, 40,M
2025-03-19 18:04:33.188,786, 790, 353, -23, 64, 53, -10, 16, 32, 970, 927, 33,M
2025-03-19 18:04:33.192,384, 705, 600, -26, 46, 43, -10, 20, 31, 971, 924, 35,M
2025-03-19 18:04:33.205,820, 524, 174, -5, 35, 29, -8, 17, 31, 970, 923, 38,M
2025-03-19 18:04:33.211,572, 881, -17, -22, 37, 25, -10, 18, 30, 971, 921, 33,M
2025-03-19 18:04:33.222,708, 715, 330, -32, 27, 26, -7, 17, 31, 967, 919, 16,M
2025-03-19 18:04:33.230,705, 635, 247, -25, 19, 20, -10, 19, 28, 965, 920, 21,M
2025-03-19 18:04:33.241,715, 687, 219, -26, 14, 17, -9, 17, 29, 959, 918, 17,M
2025-03-19 18:04:33.250,652, 584, 444, -17, -2, 6, -9, 17, 29, 952, 912, 18,M
2025-03-19 18:04:33.258,617, 309, 579, -4, -21, -22, -10, 20, 28, 940, 910, 67,M
2025-03-19 18:04:33.267,630, 195, 506, 17, -28, -45, -10, 18, 27, 928, 905, 98,M
2025-03-19 18:04:33.274,556, 408, 518, 26, -33, -55, -9, 18, 27, 917, 909, 163,M
2025-03-19 18:04:33.284,634, 639, 572, 16, -41, -44, -10, 16, 29, 918, 913, 241,M
2025-03-19 18:04:33.292,584, 824, 528, 7, -46, -23, -11, 18, 28, 921, 923, 270,M
2025-03-19 18:04:33.304,732, 790, 444, -8, -41, -9, -10, 18, 29, 933, 930, 235,M
2025-03-19 18:04:33.310,742, 422, 250, -16, -18, -18, -12, 18, 28, 940, 940, 235,M
2025-03-19 18:04:33.320,745, 757, 607, -21, -25, -10, -11, 15, 31, 947, 946, 133,M
2025-03-19 18:04:33.329,799, 483, 343, -40, -21, -9, -10, 18, 29, 959, 952, 68,M
2025-03-19 18:04:33.340,740, 361, 424, -11, -21, -15, -10, 17, 31, 964, 955, 69,M
2025-03-19 18:04:33.347,767, 541, 488, 9, -25, -14, -10, 17, 31, 967, 954, 111,M
2025-03-19 18:04:33.354,838, 807, 287, 19, -27, -1, -12, 16, 31, 969, 954, 120,M
2025-03-19 18:04:33.364,972, 1078, -199, 13, 2, 22, -9, 16, 31, 970, 954, 141,M
2025-03-19 18:04:33.373,772, 816, 208, -14, 19, 31, -12, 17, 31, 970, 951, 138,M
2025-03-19 18:04:33.384,583, 660, 43, -11, 33, 35, -12, 16, 33, 971, 953, 146,M
2025-03-19 18:04:33.392,654, 686, 227, -24, 38, 33, -10, 18, 30, 972, 955, 158,M
2025-03-19 18:04:33.402,770, 704, 307, -29, 32, 32, -10, 18, 33, 970, 952, 161,M
2025-03-19 18:04:33.410,686, 652, 320, -22, 21, 23, -10, 19, 31, 969, 952, 169,M
2025-03-19 18:04:33.419,643, 692, 403, -20, 14, 19, -10, 17, 31, 969, 951, 187,M
2025-03-19 18:04:33.426,643, 680, 465, -25, 1, 13, -10, 21, 31, 965, 949, 199,M
2025-03-19 18:04:33.438,581, 504, 611, -9, -17, 3, -12, 20, 31, 963, 949, 200,M
2025-03-19 18:04:33.446,634, 326, 584, 11, -28, -11, -12, 18, 29, 961, 949, 223,M
2025-03-19 18:04:33.456,589, 294, 575, 16, -31, -18, -12, 18, 29, 960, 947, 270,M
2025-03-19 18:04:33.464,705, 427, 561, 6, -25, -21, -12, 19, 31, 963, 950, 236,M
2025-03-19 18:04:33.472,730, 573, 657, 9, -25, -15, -10, 18, 29, 966, 950, 234,M
2025-03-19 18:04:33.483,680, 436, 596, 27, -35, -18, -11, 17, 31, 969, 948, 243,M
2025-03-19 18:04:33.491,739, 347, 277, 53, -32, -23, -11, 18, 31, 972, 945, 300,M
2025-03-19 18:04:33.501,868, 774, -56, 57, -17, -12, -10, 16, 32, 972, 942, 373,M
2025-03-19 18:04:33.509,848, 1145, -323, 26, 16, 19, -10, 18, 35, 974, 942, 359,M
2025-03-19 18:04:33.517,973, 872, -226, 1, 42, 36, -9, 17, 35, 974, 946, 349,M
2025-03-19 18:04:33.528,748, 908, -50, -34, 57, 43, -9, 18, 33, 974, 944, 307,M
2025-03-19 18:04:33.536,744, 544, 159, -7, 52, 41, -11, 18, 32, 974, 939, 348,M
2025-03-19 18:04:33.544,773, 705, 276, -23, 48, 33, -11, 18, 31, 973, 933, 316,M
2025-03-19 18:04:33.554,838, 499, 353, -25, 46, 14, -10, 19, 31, 970, 928, 348,M
2025-03-19 18:04:33.561,856, 298, 348, -18, 47, -17, -10, 19, 31, 968, 924, 372,M
2025-03-19 18:04:33.573,753, 406, 331, -22, 47, -41, -11, 18, 31, 963, 915, 379,M
2025-03-19 18:04:33.580,644, 517, 383, -21, 44, -52, -13, 19, 30, 958, 906, 368,M
2025-03-19 18:04:33.589,542, 589, 418, -13, 37, -52, -11, 19, 30, 953, 894, 360,M
2025-03-19 18:04:33.597,513, 632, 443, -10, 30, -45, -12, 18, 28, 946, 884, 349,M
2025-03-19 18:04:33.606,502, 687, 498, -15, 22, -36, -12, 17, 30, 939, 879, 335,M
2025-03-19 18:04:33.619,519, 680, 581, -16, 10, -28, -13, 19, 28, 938, 880, 327,M
2025-03-19 18:04:33.626,531, 639, 666, -18, -4, -25, -11, 18, 30, 936, 880, 260,M
2025-03-19 18:04:33.635,556, 586, 677, -14, -18, -23, -12, 18, 29, 936, 884, 251,M
2025-03-19 18:04:33.642,584, 571, 590, -6, -26, -21, -13, 18, 29, 935, 885, 259,M
2025-03-19 18:04:33.652,612, 608, 510, 5, -31, -15, -14, 18, 29, 933, 886, 264,M
2025-03-19 18:04:33.660,614, 689, 461, 9, -32, -7, -11, 17, 29, 933, 888, 270,M
2025-03-19 18:04:33.950,797, 577, 257, 8, -9, 16, -12, 19, 32, 944, 857, 76,N
2025-03-19 18:04:33.950,779, 557, 245, 4, -8, 9, -13, 18, 32, 943, 863, 76,N
2025-03-19 18:04:33.967,745, 561, 260, 2, -7, 3, -12, 17, 31, 944, 871, 78,N
2025-03-19 18:04:33.975,714, 569, 273, 3, -7, 0, -12, 18, 34, 947, 874, 72,N
2025-03-19 18:04:33.983,707, 585, 320, 4, -7, -1, -14, 18, 33, 946, 877, 59,N
2025-03-19 18:04:33.992,727, 560, 337, 2, -5, -4, -14, 18, 33, 948, 886, 72,N
2025-03-19 18:04:34.004,728, 607, 402, 2, -7, -3, -11, 20, 32, 947, 893, 87,N
2025-03-19 18:04:34.011,684, 670, 471, -4, -15, 2, -12, 18, 31, 948, 903, 84,N
2025-03-19 18:04:34.020,670, 665, 502, -9, -22, 9, -12, 19, 32, 951, 916, 92,N
2025-03-19 18:04:34.029,741, 606, 457, -14, -23, 11, -12, 18, 30, 955, 928, 64,N
2025-03-19 18:04:34.037,1118, 135, 278, -45, -7, -15, -11, 19, 31, 958, 931, 55,N
2025-03-19 18:04:34.046,865, 624, 546, -1, -6, -13, -11, 19, 31, 962, 935, 51,N
2025-03-19 18:04:34.057,716, 598, 435, -15, -13, -11, -10, 18, 33, 966, 937, 43,N
2025-03-19 18:04:34.065,742, 387, 316, 9, -8, -14, -12, 17, 32, 970, 937, 27,N
2025-03-19 18:04:34.071,795, 647, 391, 28, -2, -3, -12, 17, 32, 971, 936, 36,N
2025-03-19 18:04:34.080,907, 999, 242, 21, 18, 14, -12, 17, 32, 972, 935, 27,N
2025-03-19 18:04:34.090,738, 845, 356, -5, 33, 31, -11, 18, 32, 974, 934, 21,N
2025-03-19 18:04:34.101,701, 709, 215, -18, 43, 38, -10, 18, 32, 974, 935, 36,N
2025-03-19 18:04:34.108,762, 787, 321, -15, 46, 46, -9, 19, 33, 974, 931, 27,N
2025-03-19 18:04:34.118,822, 422, 237, -3, 36, 36, -11, 20, 31, 973, 930, 32,N
2025-03-19 18:04:34.126,659, 854, 268, -31, 32, 31, -10, 19, 32, 973, 931, 23,N
2025-03-19 18:04:34.135,870, 668, 166, -29, 32, 34, -11, 19, 32, 971, 930, 23,N
2025-03-19 18:04:34.142,663, 643, 276, -31, 25, 27, -10, 19, 31, 970, 929, 24,N
2025-03-19 18:04:34.155,740, 588, 274, -26, 18, 18, -11, 22, 30, 967, 928, 20,N
2025-03-19 18:04:34.161,713, 618, 415, -21, 4, 7, -10, 21, 30, 968, 928, 24,N
2025-03-19 18:04:34.171,577, 334, 597, 6, -20, -20, -11, 23, 29, 961, 924, 12,N
2025-03-19 18:04:34.180,588, 148, 567, 41, -37, -47, -11, 23, 29, 954, 923, 17,N
2025-03-19 18:04:34.187,590, 292, 485, 52, -42, -62, -11, 21, 30, 949, 923, 54,N
2025-03-19 18:04:34.196,615, 567, 519, 48, -45, -59, -13, 20, 29, 946, 925, 79,N
2025-03-19 18:04:34.203,620, 820, 518, 27, -49, -38, -11, 19, 31, 948, 930, 178,N
2025-03-19 18:04:34.217,645, 882, 441, 0, -45, -13, -12, 18, 29, 952, 939, 145,N
2025-03-19 18:04:34.225,1285, 435, 151, -42, -14, -19, -10, 18, 32, 958, 945, 70,N
2025-03-19 18:04:34.234,726, 702, 581, -15, -17, -11, -12, 18, 31, 962, 953, 70,N
2025-03-19 18:04:34.241,845, 500, 492, -32, -20, -7, -11, 17, 33, 965, 952, 68,N
2025-03-19 18:04:34.253,729, 45, 525, -3, -21, -22, -11, 19, 30, 971, 954, 70,N
2025-03-19 18:04:34.261,911, 358, 481, 39, -22, -19, -11, 17, 34, 972, 952, 73,N
2025-03-19 18:04:34.270,983, 1270, 125, 40, -1, 19, -12, 20, 33, 975, 952, 51,N
2025-03-19 18:04:34.275,860, 1121, -80, -3, 30, 59, -10, 17, 32, 974, 951, 21,N
2025-03-19 18:04:34.287,821, 759, 142, -12, 51, 67, -10, 17, 32, 977, 946, 34,N
2025-03-19 18:04:34.292,507, 791, 82, -20, 59, 77, -11, 20, 32, 975, 943, 39,N
2025-03-19 18:04:34.307,729, 730, 278, -32, 49, 57, -10, 20, 33, 975, 943, 44,N
2025-03-19 18:04:34.310,712, 546, 309, -24, 33, 40, -10, 21, 31, 976, 943, 44,N
2025-03-19 18:04:34.323,590, 675, 174, -30, 19, 27, -11, 18, 32, 974, 947, 36,N
2025-03-19 18:04:34.331,556, 731, 204, -40, 14, 20, -12, 21, 29, 974, 951, 38,N
2025-03-19 18:04:34.340,627, 938, 230, -68, 14, 22, -11, 19, 33, 974, 955, 45,N
2025-03-19 18:04:34.352,638, 682, 785, -59, -14, 13, -12, 23, 29, 972, 956, 24,N
2025-03-19 18:04:34.360,483, 212, 662, -32, -34, -12, -11, 20, 32, 972, 959, 34,N
2025-03-19 18:04:34.369,817, 40, 790, 9, -55, -40, -13, 22, 30, 970, 960, 28,N
2025-03-19 18:04:34.376,683, 311, 652, 46, -59, -44, -13, 20, 33, 968, 959, 23,N
2025-03-19 18:04:34.385,935, 535, 344, 65, -39, -29, -13, 20, 33, 963, 957, 21,N
2025-03-19 18:04:34.393,885, 714, 399, 38, -20, -17, -13, 21, 31, 957, 952, 23,N
2025-03-19 18:04:34.405,958, 563, 184, 28, 0, -14, -12, 19, 33, 958, 947, 75,N
2025-03-19 18:04:34.411,980, 331, 103, 24, 20, -28, -13, 19, 31, 953, 942, 148,N
2025-03-19 18:04:34.423,953, 455, 25, 9, 41, -36, -11, 20, 33, 953, 936, 152,N
2025-03-19 18:04:34.430,816, 604, 94, 1, 54, -36, -11, 20, 32, 952, 930, 148,N
2025-03-19 18:04:34.436,743, 666, 186, -7, 59, -32, -11, 20, 32, 951, 922, 95,N
2025-03-19 18:04:34.450,699, 679, 295, -11, 60, -28, -12, 18, 32, 949, 912, 88,N
2025-03-19 18:04:34.458,641, 650, 401, -16, 56, -25, -12, 18, 32, 949, 898, 93,N
2025-03-19 18:04:34.467,583, 625, 515, -15, 48, -23, -13, 20, 30, 945, 883, 70,N
2025-03-19 18:04:35.450,714, 640, 223, -15, 9, -4, -8, 17, 30, 889, 835, 282,P
2025-03-19 18:04:35.451,651, 646, 318, -14, 8, -6, -9, 15, 30, 890, 843, 286,P
2025-03-19 18:04:35.470,601, 673, 416, -10, 2, -5, -11, 15, 30, 891, 852, 292,P
2025-03-19 18:04:35.474,539, 701, 487, -7, -8, -1, -10, 15, 30, 893, 856, 302,P
2025-03-19 18:04:35.487,507, 706, 571, 0, -20, 6, -10, 16, 28, 894, 867, 310,P
2025-03-19 18:04:35.490,595, 702, 524, -2, -28, 12, -10, 15, 29, 903, 880, 301,P
2025-03-19 18:04:35.503,622, 613, 451, 6, -29, 12, -9, 16, 27, 911, 894, 297,P
2025-03-19 18:04:35.510,784, 533, 228, -25, -11, -18, -10, 16, 30, 926, 909, 256,P
2025-03-19 18:04:35.523,792, 519, 414, 14, -9, -18, -10, 16, 30, 937, 916, 251,P
2025-03-19 18:04:35.531,710, 823, 462, -9, -13, -11, -9, 17, 29, 946, 921, 248,P
2025-03-19 18:04:35.539,835, 588, 309, -18, -13, -9, -8, 15, 30, 953, 921, 252,P
2025-03-19 18:04:35.546,712, 432, 396, 3, -14, -15, -9, 16, 28, 958, 922, 247,P
2025-03-19 18:04:35.557,770, 562, 310, 25, -1, -8, -9, 16, 30, 963, 922, 252,P
2025-03-19 18:04:35.568,855, 848, 204, 10, 15, 6, -9, 16, 31, 964, 925, 255,P
2025-03-19 18:04:35.576,785, 1164, -21, 6, 52, 38, -8, 15, 32, 968, 924, 272,P
2025-03-19 18:04:35.585,708, 686, 390, -57, 65, 58, -9, 15, 30, 968, 924, 204,P
2025-03-19 18:04:35.592,894, 638, 398, -50, 62, 55, -8, 16, 30, 968, 920, 123,P
2025-03-19 18:04:35.602,636, 607, 467, -32, 57, 43, -10, 16, 27, 968, 918, 107,P
2025-03-19 18:04:35.608,676, 705, 322, -16, 44, 37, -8, 17, 28, 968, 916, 98,P
2025-03-19 18:04:35.622,606, 720, 306, -36, 36, 30, -8, 17, 28, 968, 917, 102,P
2025-03-19 18:04:35.626,688, 876, 160, -30, 33, 31, -8, 17, 28, 966, 917, 102,P
2025-03-19 18:04:35.638,602, 600, 322, -39, 25, 19, -6, 18, 28, 959, 920, 63,P
2025-03-19 18:04:35.642,647, 609, 184, -20, 15, 12, -8, 18, 26, 953, 919, 77,P
2025-03-19 18:04:35.655,693, 619, 487, -24, 5, -1, -10, 18, 27, 947, 916, 133,P
2025-03-19 18:04:35.667,550, 352, 831, 11, -33, -25, -8, 18, 25, 930, 909, 160,P
2025-03-19 18:04:35.675,522, 227, 621, 38, -56, -49, -8, 18, 28, 914, 902, 232,P
2025-03-19 18:04:35.684,637, 240, 453, 62, -57, -60, -10, 17, 27, 902, 900, 282,P
2025-03-19 18:04:35.692,668, 562, 458, 84, -59, -62, -10, 16, 28, 902, 905, 280,P
2025-03-19 18:04:35.701,657, 858, 379, 56, -57, -49, -9, 16, 27, 911, 913, 267,P
2025-03-19 18:04:35.710,800, 926, 246, -4, -44, -32, -11, 17, 29, 924, 927, 277,P
2025-03-19 18:04:35.720,844, 916, 355, -50, -35, -12, -11, 17, 29, 936, 936, 295,P
2025-03-19 18:04:35.724,852, 689, 413, -76, -35, -4, -11, 15, 28, 946, 944, 326,P
2025-03-19 18:04:35.736,818, 570, 475, -73, -31, 4, -10, 17, 29, 954, 947, 315,P
2025-03-19 18:04:35.741,716, 496, 456, -51, -26, 2, -10, 17, 30, 961, 949, 293,P
2025-03-19 18:04:35.754,560, 604, 397, -32, -18, 1, -9, 16, 29, 966, 950, 300,P
2025-03-19 18:04:35.760,502, 811, 356, -23, -12, 7, -10, 17, 30, 969, 951, 294,P
2025-03-19 18:04:35.771,613, 813, 267, -15, -1, 11, -10, 19, 30, 968, 950, 262,P
2025-03-19 18:04:35.781,493, 718, 354, -1, 9, 15, -9, 17, 31, 970, 951, 252,P
2025-03-19 18:04:35.788,664, 792, 249, -4, 23, 18, -9, 18, 31, 970, 948, 220,P
2025-03-19 18:04:35.796,520, 664, 185, 11, 29, 20, -9, 18, 31, 973, 943, 132,P
2025-03-19 18:04:35.807,614, 806, 227, -2, 36, 23, -10, 18, 31, 972, 938, 88,P
2025-03-19 18:04:35.818,691, 647, 234, -7, 31, 16, -8, 16, 31, 973, 932, 67,P
2025-03-19 18:04:35.825,691, 628, 224, 2, 32, 16, -8, 16, 31, 969, 918, 50,P
2025-03-19 18:04:35.834,820, 585, 277, 3, 26, 9, -10, 19, 30, 961, 909, 51,P
2025-03-19 18:04:35.842,862, 602, 284, 10, 20, 6, -9, 17, 31, 953, 896, 106,P
2025-03-19 18:04:35.852,765, 661, 187, 16, 23, 6, -10, 20, 27, 942, 877, 136,P
2025-03-19 18:04:35.859,910, 483, 260, 15, 24, -8, -8, 17, 29, 929, 856, 159,P
2025-03-19 18:04:35.872,958, 373, 316, 20, 26, -28, -10, 19, 28, 917, 843, 216,P
2025-03-19 18:04:35.875,1034, 460, 295, -3, 29, -43, -9, 16, 28, 909, 844, 251,P
2025-03-19 18:04:35.888,888, 549, 274, -20, 34, -50, -10, 18, 27, 907, 842, 270,P
2025-03-19 18:04:35.894,731, 643, 289, -25, 38, -47, -10, 18, 28, 906, 852, 279,P
2025-03-19 18:04:35.904,596, 730, 360, -28, 37, -37, -11, 19, 25, 908, 854, 281,P
2025-03-19 18:04:35.916,520, 732, 518, -29, 32, -24, -10, 15, 27, 909, 856, 278,P
2025-03-19 18:04:36.200,704, 613, 341, -20, -14, -5, -10, 18, 28, 927, 902, 60,Q
2025-03-19 18:04:36.200,669, 494, 294, 3, -8, -11, -11, 19, 28, 929, 908, 59,Q
2025-03-19 18:04:36.220,577, 727, 427, -7, -11, -12, -11, 19, 28, 930, 915, 34,Q
2025-03-19 18:04:36.224,742, 717, 301, -24, -9, -8, -10, 17, 29, 932, 916, 22,Q
2025-03-19 18:04:36.236,512, 500, 428, -11, -11, -15, -11, 17, 30, 933, 919, 26,Q
2025-03-19 18:04:36.242,724, 630, 394, -2, -7, -13, -9, 19, 29, 932, 922, 28,Q
2025-03-19 18:04:36.253,578, 583, 527, 2, -12, -16, -10, 18, 29, 935, 920, 33,Q
2025-03-19 18:04:36.260,685, 472, 489, 20, -13, -20, -10, 17, 30, 939, 916, 42,Q
2025-03-19 18:04:36.272,800, 460, 458, 45, -11, -22, -9, 17, 29, 944, 905, 43,Q
2025-03-19 18:04:36.280,779, 412, 496, 65, -7, -24, -8, 16, 30, 952, 892, 49,Q
2025-03-19 18:04:36.288,500, 482, 262, 102, 13, -20, -11, 17, 30, 955, 871, 40,Q
2025-03-19 18:04:36.296,886, 717, 203, 113, 28, -3, -8, 14, 30, 958, 860, 25,Q
2025-03-19 18:04:36.305,1054, 1080, 304, 53, 34, 8, -7, 18, 31, 962, 857, 17,Q
2025-03-19 18:04:36.313,1225, 1156, 11, -19, 37, 43, -7, 18, 31, 966, 867, 34,Q
2025-03-19 18:04:36.323,698, 933, 131, -69, 49, 58, -8, 15, 30, 966, 865, 47,Q
2025-03-19 18:04:36.335,739, 798, 107, -42, 48, 59, -10, 18, 30, 967, 883, 31,Q
2025-03-19 18:04:36.342,775, 763, -83, -72, 45, 53, -7, 16, 30, 967, 899, 40,Q
2025-03-19 18:04:36.351,515, 592, 94, -75, 37, 46, -8, 17, 28, 969, 913, 31,Q
2025-03-19 18:04:36.359,700, 768, 266, -88, 32, 45, -8, 17, 29, 968, 926, 37,Q
2025-03-19 18:04:36.368,596, 804, 479, -110, 22, 41, -8, 20, 27, 967, 935, 23,Q
2025-03-19 18:04:36.375,492, 611, 605, -101, -1, 32, -8, 18, 27, 965, 941, 21,Q
2025-03-19 18:04:36.386,504, 413, 733, -72, -21, 15, -9, 21, 27, 968, 945, 25,Q
2025-03-19 18:04:36.395,441, 181, 830, -32, -32, -11, -8, 19, 27, 964, 946, 20,Q
2025-03-19 18:04:36.402,571, 352, 791, 1, -51, -34, -11, 21, 27, 958, 947, 11,Q
2025-03-19 18:04:36.411,625, 460, 609, 42, -62, -40, -11, 21, 27, 949, 943, 14,Q
2025-03-19 18:04:36.421,666, 551, 189, 55, -48, -38, -9, 19, 29, 935, 931, 25,Q
2025-03-19 18:04:36.433,1258, 574, 402, 58, -38, -35, -11, 19, 30, 924, 919, 62,Q
2025-03-19 18:04:36.440,579, 532, 236, 56, -23, -32, -9, 17, 29, 913, 899, 84,Q
2025-03-19 18:04:36.449,754, 629, 158, 58, -8, -31, -10, 19, 30, 905, 877, 127,Q
2025-03-19 18:04:36.457,926, 603, 75, 44, 14, -31, -8, 17, 31, 898, 864, 141,Q
2025-03-19 18:04:36.466,876, 722, 94, 28, 33, -26, -10, 19, 31, 898, 845, 157,Q
2025-03-19 18:04:36.475,758, 769, 192, 11, 41, -23, -9, 17, 30, 896, 830, 146,Q
2025-03-19 18:04:36.486,608, 675, 287, 7, 38, -20, -9, 18, 29, 897, 816, 125,Q
2025-03-19 18:04:36.490,522, 629, 418, 14, 33, -14, -9, 17, 30, 901, 804, 104,Q
2025-03-19 18:04:36.503,515, 717, 580, 19, 17, 5, -9, 18, 28, 912, 808, 108,Q
2025-03-19 18:04:36.510,498, 874, 713, 5, -5, 30, -9, 18, 28, 930, 833, 119,Q
2025-03-19 18:04:36.522,521, 816, 665, -24, -24, 43, -8, 16, 29, 943, 862, 85,Q
2025-03-19 18:04:36.531,722, 384, 412, -24, -27, -6, -10, 19, 29, 955, 898, 69,Q
2025-03-19 18:04:36.538,742, 348, 333, 16, -11, -13, -9, 18, 31, 961, 915, 66,Q
2025-03-19 18:04:36.546,884, 1191, 326, -27, -11, 11, -8, 17, 29, 970, 925, 61,Q
2025-03-19 18:04:36.556,690, 1279, -40, -96, -2, 38, -9, 19, 30, 973, 939, 37,Q
2025-03-19 18:04:36.564,797, 583, 76, -64, 13, 40, -10, 19, 30, 975, 943, 25,Q
2025-03-19 18:04:36.575,616, 725, 277, -62, 18, 43, -9, 18, 30, 976, 947, 43,Q
2025-03-19 18:04:36.584,648, 508, 330, -45, 15, 39, -10, 19, 29, 977, 948, 29,Q
2025-03-19 18:04:36.592,763, 526, 363, -28, 14, 35, -11, 19, 30, 978, 946, 15,Q
2025-03-19 18:04:36.600,656, 712, 343, -36, 17, 34, -11, 20, 27, 976, 938, 13,Q
2025-03-19 18:04:36.609,803, 681, 345, -27, 21, 39, -11, 20, 27, 974, 925, 23,Q
2025-03-19 18:04:36.618,779, 517, 448, -22, 22, 26, -10, 19, 29, 966, 913, 22,Q
2025-03-19 18:04:36.625,890, 206, 305, -4, 33, -9, -10, 21, 28, 963, 899, 27,Q
2025-03-19 18:04:36.636,845, 251, 254, 0, 44, -43, -10, 21, 30, 956, 877, 23,Q
2025-03-19 18:04:36.644,701, 386, 251, 9, 49, -61, -9, 21, 27, 947, 841, 124,Q
2025-03-19 18:04:36.655,580, 592, 281, 14, 48, -64, -9, 20, 28, 935, 787, 154,Q
2025-03-19 18:04:36.662,492, 675, 361, 14, 42, -58, -10, 20, 27, 917, 755, 160,Q
2025-03-19 18:04:36.674,485, 677, 480, 11, 32, -50, -11, 20, 26, 902, 721, 154,Q
2025-03-19 18:04:36.683,496, 657, 640, 4, 19, -42, -11, 19, 26, 891, 707, 111,Q
2025-03-19 18:04:36.691,524, 648, 740, 0, 4, -32, -11, 18, 27, 887, 702, 102,Q
2025-03-19 18:04:36.976,610, 654, 362, 12, -19, -12, -10, 18, 28, 804, 732, 18,R
2025-03-19 18:04:36.986,607, 635, 380, 16, -23, -12, -11, 19, 28, 792, 740, 26,R
2025-03-19 18:04:36.990,613, 619, 410, 22, -29, -10, -9, 17, 29, 782, 752, 27,R
2025-03-19 18:04:37.003,610, 632, 445, 30, -35, -7, -10, 19, 28, 778, 759, 11,R
2025-03-19 18:04:37.010,612, 641, 485, 33, -41, -3, -10, 17, 29, 786, 772, 16,R
2025-03-19 18:04:37.020,769, 599, 438, 28, -37, -2, -10, 17, 29, 813, 790, 20,R
2025-03-19 18:04:37.031,850, 573, 387, 22, -27, -3, -11, 19, 28, 859, 820, 28,R
2025-03-19 18:04:37.038,752, 426, 370, 4, -15, -20, -9, 16, 30, 888, 836, 47,R
2025-03-19 18:04:37.045,757, 614, 479, 16, -13, -18, -10, 17, 28, 913, 845, 43,R
2025-03-19 18:04:37.055,753, 570, 434, 4, -18, -17, -9, 16, 30, 934, 853, 46,R
2025-03-19 18:04:37.067,763, 525, 228, 25, -13, -9, -9, 18, 30, 946, 861, 44,R
2025-03-19 18:04:37.074,777, 820, 233, 34, 6, -1, -8, 16, 32, 955, 863, 46,R
2025-03-19 18:04:37.085,884, 862, 106, 33, 28, 22, -9, 18, 31, 957, 870, 21,R
2025-03-19 18:04:37.091,658, 1111, 123, -22, 53, 50, -8, 17, 32, 961, 870, 26,R
2025-03-19 18:04:37.101,491, 822, 195, -24, 60, 52, -8, 17, 30, 964, 869, 19,R
2025-03-19 18:04:37.110,1221, 756, 324, -14, 64, 63, -8, 17, 30, 968, 859, 22,R
2025-03-19 18:04:37.120,580, 520, 295, -13, 55, 42, -8, 17, 30, 968, 851, 15,R
2025-03-19 18:04:37.126,736, 596, 325, 2, 47, 37, -8, 19, 28, 965, 850, 13,R
2025-03-19 18:04:37.138,578, 807, 273, -13, 45, 38, -8, 17, 30, 963, 852, 23,R
2025-03-19 18:04:37.142,560, 911, 140, -51, 39, 40, -10, 20, 28, 961, 855, 20,R
2025-03-19 18:04:37.154,609, 443, 421, -22, 22, 21, -8, 19, 27, 958, 854, 21,R
2025-03-19 18:04:37.161,698, 617, 250, -10, 19, 15, -10, 18, 28, 950, 861, 24,R
2025-03-19 18:04:37.174,694, 829, 320, -20, 14, 17, -9, 18, 28, 940, 865, 20,R
2025-03-19 18:04:37.182,617, 591, 444, -19, 1, 3, -8, 18, 24, 928, 862, 23,R
2025-03-19 18:04:37.190,545, 321, 625, 13, -34, -22, -8, 20, 26, 905, 854, 18,R
2025-03-19 18:04:37.199,451, 177, 688, 52, -54, -52, -10, 20, 26, 888, 851, 56,R
2025-03-19 18:04:37.207,611, 207, 594, 64, -57, -72, -9, 17, 28, 879, 859, 79,R
2025-03-19 18:04:37.219,1039, 396, 309, 77, -52, -72, -9, 17, 28, 884, 876, 96,R
