Timestamp,Acc_X,Acc_Y,Acc_Z,Gyro_X,Gyro_Y,Gyro_Z,Mag_X,Mag_Y,Mag_Z,Force1,Force2,Force3,Letter
2025-03-19 21:55:31.876,393, 750, 561, -2, 0, -1, -1, -2, -1, 592, 801, 431,noise
2025-03-19 21:55:31.884,391, 746, 564, -2, 0, -1, -1, 0, 0, 594, 801, 431,noise
2025-03-19 21:55:31.892,395, 749, 567, -2, 0, -1, 1, -3, 1, 597, 800, 425,noise
2025-03-19 21:55:31.900,391, 749, 567, -2, 0, -1, 1, 0, 0, 598, 801, 428,noise
2025-03-19 21:55:31.908,387, 754, 567, -2, 0, -1, 2, -1, 2, 602, 802, 434,noise
2025-03-19 21:55:31.917,378, 750, 565, -1, 0, -1, -2, -3, 1, 607, 803, 433,noise
2025-03-19 21:55:31.925,384, 750, 567, -1, 0, -1, -2, -1, -1, 599, 801, 432,noise
2025-03-19 21:55:31.937,379, 749, 561, -1, 0, 0, 1, 4, -4, 598, 800, 424,noise
2025-03-19 21:55:31.945,391, 752, 567, -1, 0, 0, 1, 4, -4, 599, 801, 431,noise
2025-03-19 21:55:31.953,387, 749, 564, -1, 0, 0, -2, -5, 0, 601, 802, 435,noise
2025-03-19 21:55:31.962,394, 750, 560, -1, 0, 0, 1, -2, 0, 596, 802, 436,noise
2025-03-19 21:55:31.970,396, 749, 560, -1, 0, 0, 0, -1, 3, 593, 801, 430,noise
2025-03-19 21:55:31.978,390, 749, 562, -1, 0, 0, 1, -1, 3, 595, 801, 426,noise
2025-03-19 21:55:31.986,388, 746, 559, -1, 0, 0, -2, -2, 2, 596, 801, 430,noise
2025-03-19 21:55:31.995,396, 751, 559, -1, 0, -1, -2, -1, -1, 600, 801, 425,noise
2025-03-19 21:55:32.006,391, 751, 555, -1, 0, -1, 3, -1, -2, 593, 801, 440,noise
2025-03-19 21:55:32.015,392, 753, 561, -2, 0, -1, 1, -4, 0, 592, 800, 424,noise
2025-03-19 21:55:32.023,393, 751, 561, -2, 0, -1, 1, -4, 0, 591, 801, 429,noise
2025-03-19 21:55:32.032,392, 752, 565, -2, 0, -1, 0, -4, 3, 596, 802, 436,noise
2025-03-19 21:55:32.039,392, 751, 565, -2, 0, -1, 4, -4, 2, 595, 802, 434,noise
2025-03-19 21:55:32.048,388, 750, 566, -1, 0, -1, 1, -1, 4, 591, 800, 435,noise
2025-03-19 21:55:32.056,387, 752, 567, -1, 0, 0, 1, 2, 4, 587, 800, 426,noise
2025-03-19 21:55:32.064,388, 745, 564, -1, 0, 0, 1, -3, 1, 585, 800, 432,noise
2025-03-19 21:55:32.076,387, 750, 562, -1, 0, 0, 0, -2, 1, 581, 800, 426,noise
2025-03-19 21:55:32.084,391, 749, 561, -1, 0, 0, 0, -5, -1, 583, 802, 431,noise
2025-03-19 21:55:32.093,390, 753, 561, -1, 0, 0, 0, 3, -5, 578, 800, 424,noise
2025-03-19 21:55:32.101,392, 751, 565, -1, 0, -1, 0, 3, -5, 580, 799, 427,noise
2025-03-19 21:55:32.109,393, 755, 561, -1, 0, -1, -2, -4, 2, 582, 802, 441,noise
2025-03-19 21:55:32.117,391, 748, 557, -1, 0, -1, -1, -3, 1, 579, 802, 437,noise
2025-03-19 21:55:32.126,394, 755, 554, -2, 0, -1, 0, -2, 2, 579, 802, 436,noise
2025-03-19 21:55:32.137,390, 750, 559, -1, 0, -1, 1, 1, 3, 578, 800, 423,noise
2025-03-19 21:55:32.146,391, 747, 561, -1, 0, -1, -1, -2, -1, 579, 801, 430,noise
2025-03-19 21:55:32.154,394, 750, 559, -2, 0, 0, 3, -3, 2, 582, 800, 421,noise
2025-03-19 21:55:32.162,393, 750, 560, -2, 0, -1, -2, 0, -1, 580, 800, 429,noise
2025-03-19 21:55:32.171,392, 750, 567, -1, 0, -1, 2, -2, 0, 580, 800, 423,noise
2025-03-19 21:55:32.179,385, 753, 565, -1, 0, 0, 2, -2, 0, 581, 800, 427,noise
2025-03-19 21:55:32.187,385, 746, 564, -2, 0, 0, 0, -1, -1, 587, 802, 434,noise
2025-03-19 21:55:32.196,388, 747, 564, -1, 0, -1, 1, -1, 0, 585, 802, 437,noise
2025-03-19 21:55:32.207,389, 746, 558, -1, 0, -1, -4, -4, 4, 586, 801, 442,noise
2025-03-19 21:55:32.215,387, 753, 561, -2, 0, 0, 0, -2, 2, 582, 802, 430,noise
2025-03-19 21:55:32.224,391, 749, 559, -2, 0, -1, -1, 0, 3, 581, 800, 432,noise
2025-03-19 21:55:32.232,390, 749, 560, -2, 0, -1, 1, -4, 2, 580, 800, 425,noise
2025-03-19 21:55:32.242,393, 750, 560, -2, 0, -1, -1, -3, 1, 577, 800, 428,noise
2025-03-19 21:55:32.257,388, 752, 565, -2, 0, -1, 2, -3, 2, 577, 799, 420,noise
2025-03-19 21:55:32.258,389, 745, 568, -1, 0, -1, 1, -2, -3, 580, 801, 425,noise
2025-03-19 21:55:32.268,387, 748, 566, -1, 0, -1, 1, -2, -3, 576, 802, 436,noise
2025-03-19 21:55:32.277,389, 750, 564, -1, 0, 0, 0, -4, 1, 581, 802, 437,noise
2025-03-19 21:55:32.285,389, 750, 561, -2, 0, 0, -1, -6, 2, 579, 802, 442,noise
2025-03-19 21:55:32.293,386, 749, 562, -1, 0, -1, 1, -3, 1, 577, 801, 431,noise
2025-03-19 21:55:32.301,388, 749, 559, -1, 0, -1, 0, 2, 4, 573, 800, 436,noise
2025-03-19 21:55:32.310,387, 750, 561, -1, 0, -1, 0, -4, 0, 573, 800, 426,noise
2025-03-19 21:55:32.318,394, 747, 560, -1, 0, 0, 0, -4, 2, 572, 799, 427,noise
2025-03-19 21:55:32.326,393, 748, 558, -1, 0, -1, -2, -1, -2, 565, 798, 422,noise
2025-03-19 21:55:32.338,392, 750, 557, -1, 0, 0, -1, -2, 0, 573, 800, 418,noise
2025-03-19 21:55:32.346,386, 747, 559, -1, 0, 0, -1, -2, 0, 576, 800, 433,noise
2025-03-19 21:55:32.355,395, 751, 561, -1, 0, 0, -1, -3, 2, 581, 802, 438,noise
2025-03-19 21:55:32.363,392, 754, 559, -2, 0, 0, -1, 1, -2, 579, 802, 444,noise
2025-03-19 21:55:32.371,389, 750, 562, -2, 0, -1, 1, -2, 0, 577, 802, 435,noise
2025-03-19 21:55:32.379,392, 752, 565, -2, 0, 0, -1, -3, 3, 577, 800, 433,noise
2025-03-19 21:55:32.388,393, 747, 558, -2, 0, -1, 0, 0, 0, 573, 799, 429,noise
2025-03-19 21:55:32.396,388, 749, 562, -2, 0, -1, 0, -2, 0, 572, 799, 424,noise
2025-03-19 21:55:32.408,389, 747, 572, -2, 0, -1, 1, -8, 1, 565, 798, 420,noise
2025-03-19 21:55:32.416,388, 748, 563, -1, 0, -1, 1, -4, 0, 568, 799, 413,noise
2025-03-19 21:55:32.424,389, 750, 564, -1, 0, -1, 1, -4, 0, 573, 800, 429,noise
2025-03-19 21:55:32.433,386, 751, 564, -1, 0, 0, 0, -3, 0, 580, 802, 438,noise
2025-03-19 21:55:32.441,383, 751, 562, -1, 0, 0, -1, -3, -1, 579, 802, 444,noise
2025-03-19 21:55:32.449,385, 751, 558, -1, 0, 0, 0, -2, 0, 578, 802, 439,noise
2025-03-19 21:55:32.458,385, 748, 561, -1, 0, 0, -1, -4, 2, 576, 800, 437,noise
2025-03-19 21:55:32.469,391, 758, 560, -1, 0, 0, 0, 0, 5, 573, 800, 437,noise
2025-03-19 21:55:32.478,395, 753, 556, -1, 0, 0, 2, -7, 3, 572, 799, 422,noise
2025-03-19 21:55:32.486,388, 758, 555, -2, 0, 0, -2, -3, -2, 563, 797, 425,noise
2025-03-19 21:55:32.494,390, 750, 562, -2, 0, 0, -1, -3, 1, 563, 799, 414,noise
2025-03-19 21:55:32.502,393, 745, 558, -2, 0, -1, -1, -3, 1, 573, 799, 422,noise
2025-03-19 21:55:32.511,394, 749, 560, -2, 0, -1, -5, -3, 1, 582, 802, 438,noise
2025-03-19 21:55:32.519,389, 751, 556, -2, 0, -1, 0, 0, -2, 583, 802, 442,noise
2025-03-19 21:55:32.527,391, 754, 561, -2, 0, -1, -2, -1, 0, 582, 804, 440,noise
2025-03-19 21:55:32.539,392, 754, 562, -2, 0, 0, -1, -1, 2, 585, 803, 440,noise
2025-03-19 21:55:32.547,387, 742, 568, -2, 0, -1, 0, -3, 5, 584, 802, 439,noise
2025-03-19 21:55:32.555,394, 745, 566, -2, 0, -1, -2, 2, 1, 582, 801, 429,noise
2025-03-19 21:55:32.564,390, 747, 564, -2, 0, -1, -1, -4, -2, 583, 800, 425,noise
2025-03-19 21:55:32.572,387, 753, 562, -2, 0, 0, 0, -3, -1, 581, 799, 412,noise
2025-03-19 21:55:32.580,388, 751, 560, -1, 0, 0, 0, -3, -1, 581, 800, 421,noise
2025-03-19 21:55:32.589,390, 745, 565, -1, 0, 0, 3, -5, 0, 594, 802, 428,noise
2025-03-19 21:55:32.600,388, 753, 560, -1, 0, 0, 0, -2, 1, 595, 803, 442,noise
2025-03-19 21:55:32.609,388, 747, 561, -1, 0, 0, 2, -2, 0, 592, 803, 445,noise
2025-03-19 21:55:32.617,391, 749, 563, 0, 0, 0, -1, -3, 2, 590, 803, 436,noise
2025-03-19 21:55:32.625,394, 750, 563, -1, 0, 0, 1, 1, 4, 588, 802, 443,noise
2025-03-19 21:55:32.633,392, 750, 564, -1, 0, -1, -2, -1, 1, 586, 802, 427,noise
2025-03-19 21:55:32.642,392, 749, 564, -1, 0, -1, 0, -6, 3, 580, 799, 429,noise
2025-03-19 21:55:32.650,389, 747, 563, -1, 0, -1, 0, -4, -1, 568, 798, 418,noise
2025-03-19 21:55:32.658,387, 750, 559, -2, 0, -1, 0, -4, -1, 572, 799, 416,noise
2025-03-19 21:55:32.670,390, 746, 558, -2, 0, -1, 1, -6, 1, 577, 800, 423,noise
2025-03-19 21:55:32.678,391, 751, 559, -2, 0, 0, 0, -2, 0, 583, 803, 431,noise
2025-03-19 21:55:32.686,391, 750, 562, -1, 0, 0, -1, 0, 1, 582, 802, 445,noise
2025-03-19 21:55:32.695,390, 747, 559, -2, 0, 0, -3, -1, 2, 581, 802, 436,noise
2025-03-19 21:55:32.703,393, 747, 562, -1, 0, 0, 0, -3, -1, 579, 802, 444,noise
2025-03-19 21:55:32.712,388, 749, 568, -1, 0, 0, 0, -1, -2, 578, 800, 434,noise
2025-03-19 21:55:32.720,390, 750, 566, -2, 0, -1, 1, -5, -1, 570, 801, 432,noise
2025-03-19 21:55:32.731,390, 746, 564, -1, 0, -1, 1, -4, -1, 563, 797, 415,noise
2025-03-19 21:55:32.740,390, 745, 565, -1, 0, -1, 0, -1, 1, 564, 799, 414,noise
2025-03-19 21:55:32.748,390, 747, 562, -1, 0, -1, 0, -1, 1, 570, 799, 421,noise
2025-03-19 21:55:32.756,387, 748, 560, -1, 0, -1, -2, -3, 2, 577, 800, 428,noise
2025-03-19 21:55:32.764,390, 753, 563, -1, 0, 0, 0, 2, 3, 582, 803, 444,noise
2025-03-19 21:55:32.773,390, 754, 559, -1, 0, 0, 1, -2, -1, 582, 802, 438,noise
2025-03-19 21:55:32.781,395, 753, 558, -1, 0, -1, 0, -1, 2, 582, 803, 443,noise
2025-03-19 21:55:32.789,391, 752, 558, -2, 0, -1, 1, -4, 0, 582, 802, 435,noise
2025-03-19 21:55:32.801,391, 757, 559, -2, 0, -1, 0, -5, 0, 575, 800, 437,noise
2025-03-19 21:55:32.809,388, 753, 561, -2, 0, -1, 0, -4, -1, 562, 797, 424,noise
2025-03-19 21:55:32.818,391, 752, 561, -2, 0, -1, 2, 1, -5, 565, 798, 412,noise
2025-03-19 21:55:32.826,389, 746, 561, -2, 0, -1, 2, 1, -5, 566, 799, 424,noise
2025-03-19 21:55:32.834,387, 752, 563, -2, 0, -1, 2, -4, 0, 578, 800, 423,noise
2025-03-19 21:55:32.843,390, 743, 568, -2, 0, -1, 2, 0, -5, 582, 802, 433,noise
2025-03-19 21:55:32.851,389, 747, 567, -2, 0, -1, 1, 0, 0, 583, 803, 439,noise
2025-03-19 21:55:32.859,390, 749, 561, -1, 0, -1, 2, -2, 3, 582, 803, 443,noise
2025-03-19 21:55:32.871,386, 754, 561, -1, 0, -1, 1, -2, -1, 581, 804, 440,noise
2025-03-19 21:55:32.879,388, 750, 565, -2, 0, 0, 0, -4, 0, 579, 802, 434,noise
2025-03-19 21:55:32.887,387, 750, 563, -2, 0, -1, 1, -4, 0, 570, 799, 421,noise
2025-03-19 21:55:32.895,383, 746, 567, -1, 0, -1, -1, -5, 2, 563, 798, 416,noise
2025-03-19 21:55:32.904,391, 750, 567, -1, 0, -1, -1, -5, 2, 568, 798, 419,noise
2025-03-19 21:55:32.912,388, 749, 563, -1, 0, -1, -2, 0, -3, 573, 800, 424,noise
2025-03-19 21:55:32.920,392, 748, 565, -1, 0, -1, -1, 1, 4, 576, 802, 430,noise
2025-03-19 21:55:32.932,392, 753, 564, -1, 0, -1, 1, 1, 3, 582, 801, 428,noise
2025-03-19 21:55:32.940,392, 751, 561, -1, 0, -1, 0, 1, 3, 581, 802, 441,noise
2025-03-19 21:55:32.948,388, 751, 560, -1, 0, -1, -3, -4, -1, 582, 803, 440,noise
2025-03-19 21:55:32.957,391, 752, 560, -1, 0, -1, 1, -3, 0, 579, 802, 435,noise
2025-03-19 21:55:32.965,392, 750, 561, -1, 0, -1, 0, -3, -1, 566, 800, 432,noise
2025-03-19 21:55:32.973,390, 753, 563, -1, 0, -1, 0, -4, 1, 567, 799, 410,noise
2025-03-19 21:55:32.982,390, 754, 560, -1, 0, -1, 0, -4, 1, 562, 797, 422,noise
2025-03-19 21:55:32.990,389, 751, 560, -1, 0, 0, -1, -3, -2, 572, 800, 421,noise
2025-03-19 21:55:33.002,389, 750, 559, -1, 0, 0, 2, -2, -1, 572, 800, 426,noise
2025-03-19 21:55:33.010,382, 748, 561, -1, 0, -1, -3, 0, 0, 574, 800, 427,noise
2025-03-19 21:55:33.018,386, 750, 562, -1, 0, -1, -4, -2, 1, 581, 802, 427,noise
2025-03-19 21:55:33.027,388, 756, 558, -1, 0, -1, 0, -2, 2, 580, 802, 440,noise
2025-03-19 21:55:33.035,390, 751, 560, -1, 0, -1, 3, -5, 2, 580, 801, 432,noise
2025-03-19 21:55:33.043,394, 750, 561, -1, 0, -1, 1, -5, 0, 576, 800, 433,noise
2025-03-19 21:55:33.051,395, 747, 562, -1, 0, -1, 0, 0, -3, 563, 798, 416,noise
2025-03-19 21:55:33.063,389, 752, 560, -2, 0, -1, 0, 0, -3, 567, 798, 414,noise
2025-03-19 21:55:33.071,388, 750, 564, -2, 0, -1, -1, -3, 1, 573, 799, 412,noise
2025-03-19 21:55:33.080,392, 748, 569, -1, 0, -1, -2, -3, 0, 573, 799, 416,noise
2025-03-19 21:55:33.088,392, 747, 568, -1, 0, 0, 3, -2, -2, 574, 799, 419,noise
2025-03-19 21:55:33.096,387, 744, 566, -1, 0, 0, -1, -2, -2, 574, 800, 419,noise
2025-03-19 21:55:33.104,388, 748, 563, 0, 0, 0, 1, 0, 4, 581, 801, 431,noise
2025-03-19 21:55:33.113,391, 751, 561, 0, 0, 0, 2, -3, 3, 580, 801, 429,noise
2025-03-19 21:55:33.121,389, 759, 559, 0, 0, 0, 2, -4, 0, 576, 800, 433,noise
2025-03-19 21:55:33.133,392, 751, 555, -1, 0, 0, 3, -2, 0, 568, 799, 412,noise
2025-03-19 21:55:33.141,397, 751, 561, -1, 0, 0, 3, -2, 0, 566, 798, 413,noise
2025-03-19 21:55:33.149,396, 754, 554, -1, 0, 0, 1, -4, -3, 572, 799, 413,noise
2025-03-19 21:55:33.158,393, 750, 557, -1, 0, -1, -1, -2, 3, 570, 800, 419,noise
2025-03-19 21:55:33.166,390, 756, 559, -2, 0, -1, 2, -3, 0, 572, 799, 422,noise
2025-03-19 21:55:33.174,394, 754, 561, -2, 0, -1, -1, -3, 0, 576, 800, 415,noise
2025-03-19 21:55:33.182,391, 741, 556, -2, 0, -1, 1, -1, 0, 581, 801, 426,noise
2025-03-19 21:55:33.191,392, 748, 552, -2, 0, -1, 0, -2, 3, 583, 802, 429,noise
2025-03-19 21:55:33.202,394, 755, 557, -2, 0, -1, 3, -4, 1, 581, 802, 435,noise
2025-03-19 21:55:33.211,390, 750, 562, -2, 0, 0, -1, -2, -3, 573, 800, 419,noise
2025-03-19 21:55:33.219,387, 750, 560, -2, 0, -1, -1, -3, 2, 573, 799, 416,noise
2025-03-19 21:55:33.227,390, 747, 564, -2, 0, -1, -1, -3, 2, 576, 800, 419,noise
2025-03-19 21:55:33.236,390, 748, 569, -1, 0, -1, -4, -1, -2, 578, 800, 424,noise
2025-03-19 21:55:33.244,390, 750, 571, -1, 0, -1, -3, -1, 0, 579, 801, 426,noise
2025-03-19 21:55:33.252,385, 750, 563, -1, 0, -1, -1, -3, 1, 581, 800, 418,noise
2025-03-19 21:55:33.264,388, 748, 561, -1, 0, -1, -2, -2, 3, 584, 801, 424,noise
2025-03-19 21:55:33.272,388, 750, 563, -1, 0, 0, 1, 1, 6, 589, 802, 421,noise
2025-03-19 21:55:33.280,389, 753, 566, -1, 0, 0, -2, -2, -3, 589, 802, 436,noise
2025-03-19 21:55:33.289,392, 751, 563, -1, 0, 0, 1, -3, -1, 579, 800, 423,noise
2025-03-19 21:55:33.297,392, 751, 558, -1, 0, 0, -6, -5, 1, 578, 800, 419,noise
2025-03-19 21:55:33.305,392, 751, 563, -1, 0, 0, -6, -5, 1, 575, 799, 423,noise
2025-03-19 21:55:33.314,392, 751, 558, -1, 0, 0, 0, -2, -1, 579, 801, 422,noise
2025-03-19 21:55:33.322,386, 750, 557, -1, 0, 0, -1, 0, 2, 575, 800, 430,noise
2025-03-19 21:55:33.334,390, 750, 557, -1, 0, 0, 0, 3, 3, 575, 800, 416,noise
2025-03-19 21:55:33.342,385, 753, 561, -1, 0, -1, 0, -1, 1, 575, 799, 424,noise
2025-03-19 21:55:33.350,387, 750, 562, -1, 0, -1, 1, -1, 3, 576, 801, 422,noise
2025-03-19 21:55:33.358,390, 753, 560, -2, 0, 0, 1, -3, 1, 582, 801, 424,noise
2025-03-19 21:55:33.367,392, 751, 563, -2, 0, -1, -1, -7, 1, 574, 799, 427,noise
2025-03-19 21:55:33.376,391, 747, 562, -1, 0, -1, -2, -5, 0, 574, 799, 414,noise
2025-03-19 21:55:33.383,388, 750, 561, -2, 0, 0, -2, -5, 0, 574, 799, 422,noise
2025-03-19 21:55:33.395,391, 750, 561, -2, 0, -1, -1, -1, -1, 578, 801, 424,noise
2025-03-19 21:55:33.403,389, 749, 563, -2, 0, 0, 3, -2, -1, 578, 801, 428,noise
2025-03-19 21:55:33.412,391, 749, 561, -2, 1, -1, 0, 0, 4, 575, 800, 416,noise
2025-03-19 21:55:33.420,393, 750, 563, -2, 1, 0, 0, -3, 2, 575, 800, 417,noise
2025-03-19 21:55:33.428,387, 752, 562, -1, 0, 0, -1, -1, 4, 576, 799, 416,noise
2025-03-19 21:55:33.436,387, 751, 563, -1, 0, 0, 1, -2, 4, 576, 800, 415,noise
2025-03-19 21:55:33.445,392, 754, 560, -1, 0, 0, 0, -3, -1, 576, 800, 421,noise
2025-03-19 21:55:33.453,392, 751, 561, -1, 0, 0, -1, -1, -4, 573, 799, 409,noise
2025-03-19 21:55:33.465,391, 751, 562, -1, 0, 0, -1, -1, -4, 576, 798, 414,noise
2025-03-19 21:55:33.473,389, 753, 561, -2, 0, 0, 3, -5, 0, 581, 799, 421,noise
2025-03-19 21:55:33.481,388, 750, 559, -2, 0, -1, 2, -6, 3, 579, 799, 425,noise
2025-03-19 21:55:33.489,392, 751, 563, -2, 0, -1, -1, 1, 1, 576, 798, 418,noise
2025-03-19 21:55:33.498,388, 745, 562, -2, 0, -1, -1, -3, 1, 575, 798, 410,noise
2025-03-19 21:55:33.506,393, 751, 564, -2, 0, -1, -3, -4, 3, 575, 798, 413,noise
2025-03-19 21:55:33.515,394, 754, 558, -2, 0, -1, 3, -1, 2, 578, 798, 407,noise
2025-03-19 21:55:33.526,392, 750, 557, -2, 0, -1, -1, -1, 0, 579, 797, 411,noise
2025-03-19 21:55:33.534,388, 753, 561, -2, -1, -1, -1, -4, -1, 575, 798, 406,noise
2025-03-19 21:55:33.543,393, 751, 565, -2, 0, -1, -1, -4, -1, 575, 798, 416,noise
2025-03-19 21:55:33.551,389, 750, 564, -2, 0, -2, -2, -4, 2, 581, 798, 413,noise
2025-03-19 21:55:33.559,395, 750, 562, -2, -1, -2, 4, -2, -1, 581, 800, 426,noise
2025-03-19 21:55:33.567,391, 750, 563, -2, 0, -2, 3, -1, 1, 577, 800, 423,noise
2025-03-19 21:55:33.576,391, 750, 564, -2, 0, -2, 0, 2, 5, 574, 797, 418,noise
2025-03-19 21:55:33.584,395, 753, 566, -3, -1, -1, 2, -3, 1, 574, 797, 415,noise
2025-03-19 21:55:33.596,391, 750, 566, -2, -1, -2, 1, -3, 1, 574, 797, 408,noise
2025-03-19 21:55:33.604,393, 749, 562, -2, -1, -1, 1, -4, 1, 574, 798, 415,noise
2025-03-19 21:55:33.612,387, 750, 559, -2, -1, -2, 0, -1, -2, 571, 796, 399,noise
2025-03-19 21:55:33.620,390, 753, 563, -2, -1, -1, -2, -2, -1, 573, 797, 415,noise
2025-03-19 21:55:33.629,392, 753, 564, -2, -1, -2, -2, -2, -1, 575, 799, 414,noise
2025-03-19 21:55:33.637,393, 747, 562, -2, -1, -2, 1, 0, 0, 581, 800, 425,noise
2025-03-19 21:55:33.645,396, 751, 563, -2, -1, -2, 0, 0, 1, 578, 799, 426,noise
2025-03-19 21:55:33.657,393, 754, 565, -2, -1, -2, -4, -5, 3, 577, 798, 417,noise
2025-03-19 21:55:33.666,397, 759, 564, -2, -1, -2, 4, -2, 2, 572, 798, 422,noise
2025-03-19 21:55:33.674,392, 750, 562, -3, -1, -2, -1, 0, 0, 570, 796, 408,noise
2025-03-19 21:55:33.682,391, 750, 562, -2, -1, -2, 0, -5, 0, 570, 798, 414,noise
2025-03-19 21:55:33.690,393, 747, 562, -2, -1, -2, 2, -4, 1, 562, 795, 397,noise
2025-03-19 21:55:33.699,391, 756, 558, -2, -1, -2, 1, -5, 0, 569, 795, 398,noise
2025-03-19 21:55:33.707,397, 759, 562, -1, -1, -2, 1, -5, 0, 572, 797, 405,noise
2025-03-19 21:55:33.719,404, 755, 567, -1, -1, -2, -1, -4, 1, 580, 799, 414,noise
2025-03-19 21:55:33.727,411, 758, 555, -1, -1, -2, -2, -2, 2, 579, 799, 400,noise
2025-03-19 21:55:33.735,417, 757, 560, -1, -1, -3, 0, 1, 1, 577, 797, 381,noise
2025-03-19 21:55:33.743,420, 765, 561, -1, -1, -3, 2, -1, 3, 573, 796, 365,noise
2025-03-19 21:55:33.752,419, 771, 564, -2, 0, -4, 1, 1, 3, 567, 794, 352,noise
2025-03-19 21:55:33.760,420, 753, 561, -2, -1, -4, -2, 1, -2, 565, 793, 349,noise
2025-03-19 21:55:33.783,409, 750, 567, 1, -2, -4, 0, -3, 1, 556, 791, 342,noise
2025-03-19 21:55:33.785,409, 760, 571, 3, -3, -4, 3, -2, 1, 552, 790, 337,noise
2025-03-19 21:55:33.789,416, 766, 569, 6, -5, -2, 3, -2, 1, 555, 789, 337,noise
2025-03-19 21:55:33.798,439, 776, 550, 8, -8, -2, -3, -2, -1, 556, 790, 353,noise
2025-03-19 21:55:33.805,453, 788, 553, 9, -9, -2, 0, -5, 0, 549, 785, 364,noise
2025-03-19 21:55:33.813,473, 783, 512, 9, -12, -3, 0, -3, 1, 542, 783, 355,noise
2025-03-19 21:55:33.821,503, 789, 501, 10, -13, -4, 3, -2, 2, 535, 780, 363,noise
2025-03-19 21:55:33.829,505, 797, 487, 9, -15, -5, 1, -3, 0, 517, 778, 350,noise
2025-03-19 21:55:33.838,508, 806, 485, 5, -16, -6, -1, -4, 1, 517, 776, 344,noise
2025-03-19 21:55:33.849,485, 806, 489, 3, -20, -7, 3, -4, 0, 492, 773, 338,noise
2025-03-19 21:55:33.858,477, 770, 523, 5, -25, -8, -1, -3, 0, 489, 769, 321,noise
2025-03-19 21:55:33.866,470, 750, 521, 10, -31, -10, -3, -5, 0, 513, 769, 327,noise
2025-03-19 21:55:33.874,467, 758, 494, 13, -33, -11, -3, -5, 0, 535, 769, 317,noise
2025-03-19 21:55:33.883,460, 780, 481, 12, -35, -10, -1, -4, 2, 552, 773, 338,noise
2025-03-19 21:55:33.891,446, 787, 479, 11, -36, -9, -3, -4, 2, 558, 774, 329,noise
2025-03-19 21:55:33.903,438, 775, 484, 9, -37, -7, -3, 0, 1, 569, 773, 338,noise
2025-03-19 21:55:33.911,430, 762, 500, 8, -37, -6, -4, -2, 4, 574, 774, 344,noise
2025-03-19 21:55:33.919,421, 745, 504, 8, -38, -7, 1, -3, 0, 580, 773, 346,noise
2025-03-19 21:55:33.928,421, 736, 514, 8, -40, -8, -3, -5, 0, 583, 771, 347,noise
2025-03-19 21:55:33.936,419, 720, 517, 9, -42, -11, -2, -4, 1, 589, 772, 337,noise
2025-03-19 21:55:33.944,418, 709, 500, 10, -44, -14, -1, -5, 1, 588, 768, 327,noise
2025-03-19 21:55:33.953,413, 734, 488, 8, -44, -17, -1, -6, 3, 596, 768, 319,noise
2025-03-19 21:55:33.964,403, 744, 486, 5, -44, -18, -1, -6, 3, 606, 769, 326,noise
2025-03-19 21:55:33.973,387, 751, 437, 1, -40, -20, 1, -5, 0, 613, 771, 337,noise
2025-03-19 21:55:33.981,387, 773, 506, -7, -36, -20, 0, -1, 3, 618, 772, 339,noise
2025-03-19 21:55:33.989,366, 732, 513, -8, -33, -20, -4, -6, 3, 620, 773, 335,noise
2025-03-19 21:55:33.997,351, 748, 489, -8, -28, -20, 2, -1, 3, 624, 777, 331,noise
2025-03-19 21:55:34.006,335, 773, 541, -13, -27, -17, 0, -2, 6, 624, 779, 340,noise
2025-03-19 21:55:34.018,323, 723, 523, -13, -27, -16, -1, -3, 0, 625, 781, 336,noise
2025-03-19 21:55:34.026,314, 703, 529, -11, -25, -17, 1, -3, 2, 626, 782, 347,noise
2025-03-19 21:55:34.034,307, 734, 541, -9, -24, -15, -2, -6, 0, 625, 782, 328,noise
2025-03-19 21:55:34.042,300, 750, 543, -11, -23, -12, -2, -5, 0, 626, 784, 340,noise
2025-03-19 21:55:34.051,305, 737, 521, -13, -21, -10, -2, -5, 0, 619, 786, 336,noise
2025-03-19 21:55:34.059,305, 733, 546, -12, -19, -9, -3, -5, 5, 624, 789, 348,noise
2025-03-19 21:55:34.071,305, 741, 536, -12, -18, -7, 2, -4, 0, 623, 791, 357,noise
2025-03-19 21:55:34.079,311, 744, 521, -12, -17, -6, -1, -1, 2, 622, 796, 356,noise
2025-03-19 21:55:34.087,333, 763, 518, -19, -14, -3, -4, -6, 2, 620, 799, 356,noise
2025-03-19 21:55:34.096,305, 743, 527, -15, -16, -1, -1, -5, 1, 619, 800, 351,noise
2025-03-19 21:55:34.104,348, 722, 505, -11, -15, -1, -1, -4, 1, 616, 800, 356,noise
2025-03-19 21:55:34.112,361, 733, 505, -9, -12, 0, 1, -5, 2, 611, 800, 338,noise
2025-03-19 21:55:34.124,375, 747, 500, -11, -10, 1, -1, -6, 0, 608, 799, 330,noise
2025-03-19 21:55:34.132,396, 735, 499, -12, -9, 0, -2, -3, -3, 600, 799, 314,noise
2025-03-19 21:55:34.140,400, 729, 483, -11, -10, -2, -4, -4, -2, 600, 798, 315,noise
2025-03-19 21:55:34.149,440, 760, 482, -11, -11, -4, -4, -4, -2, 604, 799, 312,noise
2025-03-19 21:55:34.157,487, 797, 524, -15, -12, -7, -2, -5, 2, 600, 803, 326,noise
2025-03-19 21:55:34.166,507, 794, 500, -18, -8, -12, -5, -3, -1, 603, 803, 330,noise
2025-03-19 21:55:34.174,496, 776, 501, -18, -3, -14, -1, 0, 3, 610, 803, 298,noise
2025-03-19 21:55:34.185,496, 832, 571, -17, -3, -15, -2, -3, 1, 610, 803, 299,noise
2025-03-19 21:55:34.194,514, 847, 594, -17, -4, -14, -2, -2, -2, 608, 802, 297,noise
2025-03-19 21:55:34.202,535, 826, 596, -12, -6, -16, -2, -3, -1, 597, 800, 312,noise
2025-03-19 21:55:34.210,571, 837, 610, -7, -7, -20, -1, -3, -3, 593, 797, 296,noise
2025-03-19 21:55:34.219,573, 855, 564, -8, -5, -23, -1, -4, -5, 580, 795, 267,noise
2025-03-19 21:55:34.227,540, 862, 514, -11, -2, -23, 2, -5, -1, 572, 794, 249,noise
2025-03-19 21:55:34.239,504, 871, 543, -17, 0, -21, 2, -5, -1, 568, 794, 251,noise
2025-03-19 21:55:34.247,481, 837, 536, -19, -1, -19, 1, -3, -1, 560, 793, 268,noise
2025-03-19 21:55:34.255,458, 803, 539, -16, -2, -19, -1, -3, -2, 552, 794, 253,noise
2025-03-19 21:55:34.264,463, 765, 546, -12, -2, -18, -1, -4, 0, 547, 791, 265,noise
2025-03-19 21:55:34.272,464, 779, 500, -16, 2, -18, -1, 0, 1, 544, 792, 252,noise
2025-03-19 21:55:34.280,407, 748, 454, -12, 7, -17, -1, -2, 0, 537, 793, 262,noise
2025-03-19 21:55:34.292,423, 769, 512, -12, 7, -13, 0, -1, -1, 533, 799, 264,noise
2025-03-19 21:55:34.300,373, 801, 483, -26, 6, -8, 3, -3, -2, 520, 798, 299,noise
2025-03-19 21:55:34.309,328, 729, 569, -21, 2, -7, -1, -2, -2, 497, 799, 318,noise
2025-03-19 21:55:34.317,355, 690, 657, -11, -4, -6, -2, 0, -6, 503, 795, 325,noise
2025-03-19 21:55:34.325,355, 653, 555, -4, -6, -7, -2, 0, -6, 525, 792, 328,noise
2025-03-19 21:55:34.333,354, 703, 488, 5, -4, -6, -2, 3, -5, 539, 794, 341,noise
2025-03-19 21:55:34.342,374, 760, 536, 5, -2, -4, -4, -3, -1, 537, 792, 356,noise
2025-03-19 21:55:34.353,368, 761, 454, -4, 4, -1, 0, -1, -2, 535, 793, 350,noise
2025-03-19 21:55:34.362,350, 722, 529, -8, 12, 1, 1, 2, 0, 523, 792, 358,noise
2025-03-19 21:55:34.371,325, 756, 504, -13, 16, 7, 1, -2, -2, 516, 793, 347,noise
2025-03-19 21:55:34.378,298, 703, 580, -13, 12, 10, 0, -2, -3, 492, 792, 344,noise
2025-03-19 21:55:34.387,329, 715, 455, -10, 16, 13, -2, -3, -5, 477, 787, 344,noise
2025-03-19 21:55:34.395,349, 765, 556, -13, 15, 15, -2, -5, -3, 462, 781, 330,noise
2025-03-19 21:55:34.403,353, 740, 570, -10, 12, 15, 0, 0, -6, 459, 781, 336,noise
2025-03-19 21:55:34.415,362, 731, 526, -4, 11, 14, 0, 0, -6, 467, 779, 325,noise
2025-03-19 21:55:34.423,359, 751, 525, -5, 10, 11, -4, -2, -4, 484, 783, 354,noise
2025-03-19 21:55:34.432,374, 733, 462, -4, 13, 8, 0, -4, -8, 483, 781, 352,noise
2025-03-19 21:55:34.440,370, 764, 437, -5, 17, 6, -2, 1, -3, 481, 779, 360,noise
2025-03-19 21:55:34.448,372, 796, 465, -14, 20, 6, -1, 2, -1, 475, 778, 353,noise
2025-03-19 21:55:34.456,358, 765, 468, -19, 24, 6, -2, 0, 0, 473, 776, 353,noise
2025-03-19 21:55:34.468,349, 751, 467, -22, 28, 4, 0, 0, -2, 466, 773, 351,noise
2025-03-19 21:55:34.476,339, 727, 496, -20, 31, 2, 1, -2, -5, 456, 770, 339,noise
2025-03-19 21:55:34.485,329, 739, 542, -20, 28, 0, 0, -1, -6, 440, 765, 336,noise
2025-03-19 21:55:34.493,315, 756, 502, -21, 26, 0, 1, -5, -2, 443, 764, 318,noise
2025-03-19 21:55:34.501,308, 739, 494, -22, 25, 0, 1, -5, -2, 447, 763, 330,noise
2025-03-19 21:55:34.509,297, 741, 504, -23, 23, 1, -1, -1, -6, 457, 765, 336,noise
2025-03-19 21:55:34.521,300, 735, 511, -24, 21, 2, 1, -2, -4, 461, 760, 346,noise
2025-03-19 21:55:34.530,312, 718, 504, -24, 21, 1, 1, -1, -5, 464, 761, 344,noise
2025-03-19 21:55:34.538,288, 709, 515, -25, 23, 1, 0, 1, -5, 469, 762, 350,noise
2025-03-19 21:55:34.546,281, 685, 535, -23, 25, 0, 2, 1, -5, 476, 764, 358,noise
2025-03-19 21:55:34.554,264, 705, 550, -21, 25, 2, 0, 1, -6, 474, 764, 358,noise
2025-03-19 21:55:34.563,259, 722, 554, -18, 25, 5, 3, -1, -6, 472, 760, 357,noise
2025-03-19 21:55:34.571,303, 770, 739, -9, 20, 3, 2, 0, -9, 464, 762, 353,noise
2025-03-19 21:55:34.583,403, 773, 719, -1, 14, 2, 1, -3, -9, 454, 756, 375,noise
2025-03-19 21:55:34.591,416, 850, 631, 5, 12, 3, 1, -3, -9, 441, 754, 384,noise
2025-03-19 21:55:34.599,470, 915, 705, 2, 10, 2, 1, 0, -8, 466, 755, 397,noise
2025-03-19 21:55:34.608,509, 893, 691, 1, 8, 2, 2, 2, -7, 491, 751, 398,noise
2025-03-19 21:55:34.616,526, 900, 670, 3, 5, 0, 0, 1, -4, 499, 748, 410,noise
2025-03-19 21:55:34.624,574, 870, 576, 2, 9, -5, 2, 1, -6, 509, 743, 415,noise
2025-03-19 21:55:34.633,569, 844, 500, -7, 17, -12, 2, 3, -4, 513, 747, 412,noise
2025-03-19 21:55:34.644,520, 769, 442, -21, 26, -18, 4, 1, -5, 521, 755, 438,noise
2025-03-19 21:55:34.652,429, 678, 449, -28, 31, -21, 3, 0, -7, 521, 759, 460,noise
2025-03-19 21:55:34.661,348, 618, 503, -31, 30, -22, -2, 1, -8, 521, 762, 478,noise
2025-03-19 21:55:34.669,291, 618, 546, -27, 27, -19, 4, 0, -7, 528, 769, 488,noise
2025-03-19 21:55:34.677,287, 651, 552, -26, 22, -15, 4, 0, -7, 537, 773, 505,noise
2025-03-19 21:55:34.686,316, 700, 562, -27, 20, -12, -2, -5, -3, 549, 773, 524,noise
2025-03-19 21:55:34.697,354, 745, 613, -30, 21, -11, 3, -1, -3, 556, 772, 533,noise
2025-03-19 21:55:34.706,372, 751, 703, -29, 21, -12, 4, 0, -6, 571, 770, 547,noise
2025-03-19 21:55:34.714,387, 756, 718, -27, 22, -14, 4, 1, -4, 572, 770, 546,noise
2025-03-19 21:55:34.722,352, 759, 723, -26, 24, -18, 4, 3, -6, 579, 769, 558,noise
2025-03-19 21:55:34.731,306, 776, 761, -23, 24, -19, 4, 1, -9, 591, 771, 550,noise
2025-03-19 21:55:34.739,263, 776, 789, -18, 21, -16, 4, 4, -9, 593, 768, 550,noise
2025-03-19 21:55:34.751,258, 751, 747, -14, 17, -13, 7, 1, -9, 586, 764, 536,noise
2025-03-19 21:55:34.759,264, 743, 667, -15, 15, -10, 3, 1, -8, 592, 763, 541,noise
2025-03-19 21:55:34.767,259, 731, 647, -17, 12, -7, 3, 1, -8, 600, 761, 547,noise
2025-03-19 21:55:34.776,275, 706, 658, -16, 8, -6, 4, 3, -9, 612, 758, 550,noise
2025-03-19 21:55:34.784,296, 700, 659, -15, 5, -6, 4, 4, -9, 615, 754, 558,noise
2025-03-19 21:55:34.792,330, 711, 641, -13, 3, -8, 6, 2, -7, 625, 752, 542,noise
2025-03-19 21:55:34.800,349, 727, 627, -15, 1, -10, 6, 4, -9, 628, 748, 559,noise
2025-03-19 21:55:34.812,352, 722, 606, -18, 1, -13, 5, 3, -10, 628, 743, 554,noise
2025-03-19 21:55:34.820,359, 706, 605, -19, 2, -16, 4, 1, -9, 628, 739, 560,noise
2025-03-19 21:55:34.829,356, 708, 610, -18, 4, -19, 4, 1, -14, 628, 734, 558,noise
2025-03-19 21:55:34.837,340, 728, 636, -20, 7, -20, 4, 4, -13, 620, 724, 553,noise
2025-03-19 21:55:34.845,334, 724, 638, -23, 8, -21, 4, 3, -14, 619, 719, 544,noise
2025-03-19 21:55:34.857,331, 716, 645, -24, 11, -21, 4, 3, -14, 621, 716, 533,noise
2025-03-19 21:55:34.865,313, 699, 668, -25, 13, -21, 5, 1, -9, 626, 716, 533,noise
2025-03-19 21:55:34.874,323, 695, 657, -25, 16, -22, 5, 4, -10, 629, 716, 519,noise
2025-03-19 21:55:34.882,346, 704, 628, -28, 20, -24, 4, 5, -7, 628, 715, 512,noise
2025-03-19 21:55:34.890,350, 702, 608, -31, 24, -25, 6, 6, -9, 630, 714, 487,noise
2025-03-19 21:55:34.899,344, 681, 603, -29, 25, -27, 5, 4, -11, 630, 715, 491,noise
2025-03-19 21:55:34.910,371, 694, 631, -23, 23, -31, 6, 6, -10, 633, 715, 483,noise
2025-03-19 21:55:34.919,350, 724, 601, -32, 21, -40, 5, 4, -12, 635, 712, 473,noise
2025-03-19 21:55:34.927,338, 696, 560, -34, 24, -44, 7, 6, -12, 634, 710, 453,noise
2025-03-19 21:55:34.935,287, 742, 626, -39, 25, -45, 10, 3, -12, 630, 698, 438,noise
2025-03-19 21:55:34.944,240, 754, 662, -43, 24, -42, 7, 5, -14, 630, 693, 422,noise
2025-03-19 21:55:34.952,212, 708, 742, -47, 23, -41, 7, 5, -14, 631, 685, 414,noise
2025-03-19 21:55:34.964,204, 665, 728, -37, 24, -41, 7, 7, -14, 637, 678, 416,noise
2025-03-19 21:55:34.972,164, 693, 784, -31, 24, -38, 8, 6, -13, 643, 676, 394,noise
2025-03-19 21:55:34.980,155, 707, 789, -31, 23, -34, 10, 5, -14, 644, 671, 400,noise
2025-03-19 21:55:34.989,152, 703, 791, -25, 23, -29, 10, 7, -14, 640, 661, 405,noise
2025-03-19 21:55:34.997,160, 761, 793, -26, 22, -28, 12, 8, -11, 637, 647, 406,noise
2025-03-19 21:55:35.009,181, 675, 809, -21, 22, -27, 13, 6, -15, 635, 643, 403,noise
2025-03-19 21:55:35.017,156, 625, 718, -28, 26, -29, 13, 7, -12, 635, 623, 394,noise
2025-03-19 21:55:35.025,109, 654, 734, -27, 27, -26, 12, 8, -13, 635, 623, 387,noise
2025-03-19 21:55:35.034,123, 638, 832, -16, 22, -22, 13, 7, -18, 628, 616, 350,noise
2025-03-19 21:55:35.042,124, 668, 807, -16, 16, -23, 12, 6, -14, 618, 611, 339,noise
2025-03-19 21:55:35.054,177, 630, 704, -14, 16, -25, 13, 7, -16, 612, 601, 333,noise
2025-03-19 21:55:35.062,125, 637, 704, -16, 21, -22, 13, 7, -16, 615, 606, 338,noise
2025-03-19 21:55:35.070,87, 647, 806, -16, 22, -18, 14, 6, -17, 611, 612, 341,noise
2025-03-19 21:55:35.079,37, 660, 830, -17, 19, -18, 11, 7, -13, 601, 619, 356,noise
2025-03-19 21:55:35.087,96, 641, 787, -15, 18, -15, 14, 10, -17, 607, 621, 354,noise
2025-03-19 21:55:35.095,57, 664, 787, -12, 18, -11, 14, 10, -13, 607, 635, 353,noise
2025-03-19 21:55:35.107,37, 689, 842, -10, 14, -5, 13, 6, -17, 598, 633, 360,noise
2025-03-19 21:55:35.115,56, 674, 876, -1, 9, 2, 16, 10, -14, 586, 627, 351,noise
2025-03-19 21:55:35.124,69, 706, 906, 13, -1, 11, 13, 7, -15, 566, 625, 351,noise
2025-03-19 21:55:35.132,214, 779, 899, 28, -11, 17, 16, 9, -14, 560, 625, 337,noise
2025-03-19 21:55:35.140,242, 786, 745, 20, -13, 15, 14, 8, -18, 548, 622, 334,noise
2025-03-19 21:55:35.149,235, 735, 615, 5, -4, 9, 14, 6, -15, 542, 633, 337,noise
2025-03-19 21:55:35.160,200, 688, 611, -10, 8, 3, 14, 6, -15, 534, 643, 355,noise
2025-03-19 21:55:35.169,132, 648, 666, -22, 18, -3, 13, 10, -17, 529, 658, 321,noise
2025-03-19 21:55:35.177,44, 602, 799, -23, 20, -2, 14, 3, -15, 516, 663, 313,noise
2025-03-19 21:55:35.185,-30, 602, 883, -14, 17, 4, 13, 7, -11, 511, 669, 277,noise
2025-03-19 21:55:35.193,-58, 612, 893, -6, 13, 13, 14, 7, -14, 512, 675, 297,noise
2025-03-19 21:55:35.202,-42, 613, 868, 2, 9, 22, 13, 8, -15, 509, 678, 320,noise
2025-03-19 21:55:35.213,-32, 633, 832, 9, 3, 31, 10, 11, -13, 494, 686, 314,noise
2025-03-19 21:55:35.222,1, 636, 827, 14, -6, 38, 15, 6, -14, 468, 687, 318,noise
2025-03-19 21:55:35.230,40, 644, 839, 21, -13, 44, 16, 6, -14, 468, 686, 304,noise
2025-03-19 21:55:35.238,83, 633, 785, 29, -25, 48, 15, 3, -14, 465, 686, 293,noise
2025-03-19 21:55:35.247,132, 646, 744, 34, -36, 49, 11, 7, -14, 466, 688, 287,noise
2025-03-19 21:55:35.258,178, 650, 723, 38, -44, 48, 11, 7, -14, 469, 691, 295,noise
2025-03-19 21:55:35.267,248, 651, 684, 41, -47, 44, 10, 5, -15, 481, 697, 317,noise
2025-03-19 21:55:35.275,329, 662, 666, 41, -43, 37, 12, 4, -12, 479, 700, 317,noise
2025-03-19 21:55:35.283,330, 677, 655, 36, -39, 29, 9, 5, -12, 482, 706, 321,noise
2025-03-19 21:55:35.292,349, 687, 656, 33, -35, 24, 13, 3, -15, 479, 711, 311,noise
2025-03-19 21:55:35.309,334, 693, 680, 31, -32, 16, 7, 6, -12, 477, 717, 320,noise
2025-03-19 21:55:35.312,368, 696, 643, 22, -26, 7, 9, 7, -12, 479, 723, 318,noise
2025-03-19 21:55:35.325,356, 696, 598, 9, -15, 0, 10, 6, -12, 477, 728, 321,noise
2025-03-19 21:55:35.328,317, 694, 645, -3, -5, -3, 8, 4, -13, 465, 733, 306,noise
2025-03-19 21:55:35.337,268, 671, 694, -6, -2, -3, 9, 1, -12, 456, 733, 282,noise
2025-03-19 21:55:35.345,227, 635, 757, 1, -5, -2, 10, 1, -12, 456, 738, 281,noise
2025-03-19 21:55:35.353,242, 606, 764, 10, -8, -1, 10, 1, -12, 465, 741, 292,noise
2025-03-19 21:55:35.361,267, 623, 688, 9, -6, -5, 7, 6, -14, 475, 748, 320,noise
2025-03-19 21:55:35.373,248, 654, 608, 5, -2, -8, 9, 6, -11, 478, 753, 333,noise
2025-03-19 21:55:35.381,223, 658, 610, -2, 1, -9, 9, 3, -15, 485, 761, 359,noise
2025-03-19 21:55:35.390,213, 638, 652, -5, 2, -10, 9, 6, -10, 484, 764, 371,noise
2025-03-19 21:55:35.398,194, 616, 672, -4, 3, -13, 10, 7, -9, 486, 766, 382,noise
2025-03-19 21:55:35.406,199, 619, 675, -4, 5, -19, 10, 2, -12, 484, 765, 401,noise
2025-03-19 21:55:35.414,176, 670, 697, -3, 9, -21, 12, 1, -14, 472, 767, 411,noise
2025-03-19 21:55:35.426,189, 761, 741, -4, 11, -22, 13, 4, -15, 458, 769, 420,noise
2025-03-19 21:55:35.435,166, 794, 825, -4, 11, -22, 12, 1, -15, 492, 772, 432,noise
2025-03-19 21:55:35.443,195, 824, 873, 2, 7, -21, 12, 1, -15, 511, 774, 462,noise
2025-03-19 21:55:35.451,200, 811, 780, 8, 7, -23, 8, 6, -11, 527, 777, 473,noise
2025-03-19 21:55:35.460,198, 835, 723, 2, 11, -23, 11, 1, -12, 529, 777, 456,noise
2025-03-19 21:55:35.468,154, 785, 717, -3, 15, -19, 9, 3, -13, 531, 778, 448,noise
2025-03-19 21:55:35.480,118, 701, 724, -3, 15, -15, 10, 4, -10, 536, 778, 457,noise
2025-03-19 21:55:35.488,129, 659, 763, 5, 11, -14, 9, 5, -13, 543, 779, 452,noise
2025-03-19 21:55:35.496,144, 689, 755, 10, 6, -12, 12, 5, -11, 548, 779, 449,noise
2025-03-19 21:55:35.505,178, 727, 732, 12, 3, -8, 12, 4, -12, 553, 779, 452,noise
2025-03-19 21:55:35.513,224, 736, 695, 11, 3, -5, 13, 3, -13, 556, 779, 444,noise
2025-03-19 21:55:35.521,264, 752, 673, 6, 4, -3, 10, 1, -10, 553, 778, 463,noise
2025-03-19 21:55:35.533,284, 718, 648, -1, 5, -4, 13, 4, -14, 560, 779, 476,noise
2025-03-19 21:55:35.541,291, 670, 640, -3, 6, -7, 13, 4, -14, 564, 784, 496,noise
2025-03-19 21:55:35.550,282, 678, 655, -9, 5, -9, 10, 3, -12, 569, 785, 512,noise
2025-03-19 21:55:35.558,281, 681, 674, -12, 5, -10, 11, 4, -10, 569, 789, 524,noise
2025-03-19 21:55:35.566,265, 680, 687, -13, 6, -11, 10, 5, -6, 567, 790, 527,noise
2025-03-19 21:55:35.575,218, 708, 713, -14, 5, -10, 11, 5, -9, 567, 793, 536,noise
2025-03-19 21:55:35.586,207, 712, 732, -13, 5, -8, 11, 2, -11, 566, 794, 545,noise
2025-03-19 21:55:35.595,209, 699, 702, -9, 6, -6, 11, 3, -13, 567, 794, 539,noise
2025-03-19 21:55:35.603,187, 702, 684, -7, 11, -5, 11, 4, -12, 563, 793, 543,noise
2025-03-19 21:55:35.611,152, 717, 704, -6, 15, -1, 11, 3, -12, 556, 791, 521,noise
2025-03-19 21:55:35.619,124, 724, 713, -5, 15, 4, 13, 3, -14, 554, 790, 526,noise
2025-03-19 21:55:35.628,122, 719, 738, -1, 15, 8, 13, 3, -14, 558, 789, 509,noise
2025-03-19 21:55:35.639,149, 701, 734, 5, 17, 10, 12, 6, -13, 572, 785, 515,noise
2025-03-19 21:55:35.648,153, 725, 723, 8, 19, 10, 10, 4, -12, 577, 784, 513,noise
2025-03-19 21:55:35.656,149, 753, 712, 9, 22, 13, 15, 4, -12, 582, 783, 498,noise
2025-03-19 21:55:35.664,158, 761, 731, 7, 22, 16, 13, 5, -11, 587, 782, 489,noise
2025-03-19 21:55:35.673,157, 762, 700, 6, 24, 19, 14, 8, -7, 591, 779, 464,noise
2025-03-19 21:55:35.681,150, 745, 706, 6, 25, 22, 10, 6, -8, 593, 780, 463,noise
2025-03-19 21:55:35.693,156, 741, 716, 6, 25, 24, 10, 3, -14, 605, 801, 506,noise
2025-03-19 21:55:35.701,181, 735, 707, 4, 26, 24, 14, 5, -14, 621, 805, 511,noise
2025-03-19 21:55:35.709,185, 732, 707, 1, 27, 24, 13, 5, -15, 616, 803, 500,noise
2025-03-19 21:55:35.718,172, 729, 719, 0, 26, 24, 14, 1, -11, 614, 804, 508,noise
2025-03-19 21:55:35.726,160, 746, 710, -2, 25, 25, 14, 1, -11, 556, 774, 426,noise
2025-03-19 21:55:35.738,167, 755, 730, -5, 24, 26, 13, 3, -10, 548, 776, 420,noise
2025-03-19 21:55:35.746,162, 733, 770, -7, 22, 25, 14, 3, -11, 530, 774, 403,noise
2025-03-19 21:55:35.754,187, 698, 749, -7, 22, 22, 12, 2, -13, 522, 773, 368,noise
2025-03-19 21:55:35.763,183, 694, 747, -6, 23, 18, 11, 4, -11, 507, 771, 353,noise
2025-03-19 21:55:35.771,191, 717, 771, -4, 23, 15, 15, 4, -12, 507, 770, 345,noise
2025-03-19 21:55:35.779,191, 725, 783, -1, 22, 14, 10, 5, -10, 508, 767, 351,noise
2025-03-19 21:55:35.791,190, 733, 774, 2, 20, 14, 13, 3, -12, 507, 760, 336,noise
2025-03-19 21:55:35.799,204, 735, 750, 4, 18, 14, 11, 2, -12, 506, 749, 327,noise
2025-03-19 21:55:35.808,214, 752, 722, 2, 17, 12, 13, -1, -9, 499, 744, 301,noise
2025-03-19 21:55:35.816,225, 755, 707, -4, 18, 9, 12, 2, -9, 492, 747, 303,noise
2025-03-19 21:55:35.824,220, 760, 719, -9, 18, 5, 12, 2, -9, 494, 751, 296,noise
2025-03-19 21:55:35.832,200, 766, 725, -14, 15, 2, 11, 2, -14, 497, 760, 311,noise
2025-03-19 21:55:35.844,190, 762, 725, -18, 11, -1, 9, -1, -10, 492, 768, 320,noise
2025-03-19 21:55:35.853,182, 744, 719, -23, 7, -3, 15, 6, -12, 481, 775, 326,noise
2025-03-19 21:55:35.861,164, 729, 714, -25, 3, -4, 14, 4, -13, 465, 778, 342,noise
2025-03-19 21:55:35.869,164, 693, 727, -26, 1, -5, 12, 2, -11, 474, 784, 338,noise
2025-03-19 21:55:35.877,164, 681, 723, -28, 0, -7, 14, 5, -10, 473, 787, 350,noise
2025-03-19 21:55:35.886,152, 667, 726, -30, -1, -9, 14, 7, -9, 481, 791, 345,noise
2025-03-19 21:55:35.897,143, 638, 727, -28, -1, -10, 15, -1, -10, 479, 793, 351,noise
2025-03-19 21:55:35.906,112, 637, 739, -28, -3, -11, 11, 5, -12, 473, 795, 346,noise
2025-03-19 21:55:35.914,104, 630, 754, -28, -6, -9, 9, 5, -14, 471, 799, 343,noise
2025-03-19 21:55:35.922,147, 668, 767, -29, -10, -7, 9, 5, -14, 476, 800, 351,noise
2025-03-19 21:55:35.931,79, 650, 795, -24, -16, -4, 13, 6, -14, 482, 803, 356,noise
2025-03-19 21:55:35.942,108, 631, 808, -22, -21, -3, 12, 7, -10, 480, 804, 366,noise
2025-03-19 21:55:35.951,123, 629, 814, -20, -26, -2, 13, 4, -12, 480, 803, 354,noise
2025-03-19 21:55:35.959,122, 633, 815, -21, -30, -1, 13, 5, -13, 481, 804, 359,noise
2025-03-19 21:55:35.967,169, 636, 825, -24, -33, 1, 11, 4, -14, 500, 803, 350,noise
2025-03-19 21:55:35.976,155, 633, 891, -18, -40, 3, 16, 4, -10, 516, 804, 346,noise
2025-03-19 21:55:35.984,173, 599, 946, -11, -51, 2, 11, 3, -13, 526, 803, 345,noise
2025-03-19 21:55:35.996,148, 572, 967, 1, -64, 4, 11, 6, -15, 527, 803, 321,noise
2025-03-19 21:55:36.004,111, 584, 1002, 15, -79, 8, 10, 5, -14, 529, 802, 301,noise
2025-03-19 21:55:36.013,103, 574, 996, 33, -95, 15, 11, 5, -12, 544, 800, 267,noise
2025-03-19 21:55:36.021,111, 583, 981, 50, -110, 24, 11, 5, -12, 552, 796, 272,noise
2025-03-19 21:55:36.029,146, 596, 913, 67, -117, 30, 9, 3, -13, 560, 794, 260,noise
2025-03-19 21:55:36.041,199, 606, 853, 76, -119, 33, 7, 5, -14, 563, 788, 214,noise
2025-03-19 21:55:36.049,262, 606, 748, 87, -113, 35, 6, 3, -10, 566, 775, 166,noise
2025-03-19 21:55:36.057,314, 650, 672, 86, -101, 34, 4, 5, -10, 567, 770, 50,noise
2025-03-19 21:55:36.066,353, 666, 584, 79, -85, 30, 4, 2, -11, 567, 769, 51,noise
2025-03-19 21:55:36.074,388, 675, 495, 67, -64, 24, 3, 1, -10, 569, 766, 48,noise
2025-03-19 21:55:36.082,408, 674, 530, 62, -44, 18, 2, 3, -8, 566, 764, 56,noise
2025-03-19 21:55:36.094,416, 722, 551, 57, -30, 14, 4, -1, -9, 569, 761, 42,noise
2025-03-19 21:55:36.102,406, 722, 547, 50, -17, 10, 5, 1, -11, 566, 758, 51,noise
2025-03-19 21:55:36.111,398, 731, 461, 40, -3, 7, 4, -3, -7, 568, 753, 43,noise
2025-03-19 21:55:36.119,395, 760, 460, 31, 4, 6, 4, -3, -7, 570, 744, 58,noise
2025-03-19 21:55:36.127,374, 789, 581, 27, 6, 6, 3, 3, -7, 576, 740, 69,noise
2025-03-19 21:55:36.135,382, 801, 612, 27, -1, 7, 2, 2, -6, 577, 736, 66,noise
2025-03-19 21:55:36.144,371, 813, 470, 24, -5, 6, 1, -1, -7, 576, 731, 61,noise
2025-03-19 21:55:36.152,399, 776, 491, 20, -2, 3, 1, -1, -7, 578, 726, 47,noise
2025-03-19 21:55:36.164,396, 806, 582, 14, -5, 0, 2, 0, -6, 582, 726, 54,noise
2025-03-19 21:55:36.172,369, 794, 521, 14, -7, -2, 3, 2, -8, 586, 716, 41,noise
2025-03-19 21:55:36.180,349, 811, 440, 12, -5, -2, 1, -2, -9, 584, 711, 38,noise
2025-03-19 21:55:36.188,321, 838, 466, -1, -8, 1, 3, 1, -11, 589, 707, 37,noise
2025-03-19 21:55:36.199,301, 821, 491, -12, -12, 3, 3, 1, -11, 594, 703, 55,noise
2025-03-19 21:55:36.205,299, 801, 514, -16, -19, 6, 2, 1, -8, 601, 700, 73,noise
2025-03-19 21:55:36.213,310, 830, 538, -28, -30, 7, 2, 1, -4, 595, 706, 72,noise
2025-03-19 21:55:36.225,354, 773, 569, -24, -34, 7, 0, 0, -7, 598, 710, 71,noise
2025-03-19 21:55:36.233,379, 704, 584, -20, -39, 0, 4, 1, -5, 599, 711, 54,noise
2025-03-19 21:55:36.242,386, 673, 537, -9, -37, -9, -2, 1, -6, 596, 714, 67,noise
2025-03-19 21:55:36.250,397, 773, 551, -5, -31, -13, 1, 1, -9, 597, 716, 44,noise
2025-03-19 21:55:36.258,394, 851, 581, -14, -27, -11, 1, 0, -6, 596, 717, 48,noise
2025-03-19 21:55:36.267,368, 814, 553, -25, -19, -11, 0, -1, -9, 596, 719, 26,noise
2025-03-19 21:55:36.275,369, 719, 518, -26, -9, -14, 0, -1, -8, 594, 726, 38,noise
2025-03-19 21:55:36.287,351, 720, 554, -22, -1, -17, 0, -1, -8, 602, 730, 40,noise
2025-03-19 21:55:36.295,336, 770, 600, -22, 3, -16, 2, -3, -6, 604, 737, 68,noise
2025-03-19 21:55:36.303,317, 774, 635, -26, 4, -14, 0, 1, -7, 600, 739, 80,noise
2025-03-19 21:55:36.311,303, 731, 625, -28, 4, -11, 3, 1, -6, 595, 741, 67,noise
2025-03-19 21:55:36.320,286, 705, 636, -27, 5, -10, 1, 1, -7, 586, 742, 77,noise
2025-03-19 21:55:36.328,276, 699, 625, -23, 6, -10, 1, 3, -7, 579, 742, 58,noise
2025-03-19 21:55:36.336,249, 713, 636, -25, 7, -6, 2, 1, -9, 569, 742, 94,noise
2025-03-19 21:55:36.348,238, 732, 645, -30, 8, 1, 2, -1, -9, 554, 737, 86,noise
2025-03-19 21:55:36.356,227, 701, 639, -32, 10, 7, 3, 1, -14, 546, 740, 85,noise
2025-03-19 21:55:36.365,219, 665, 647, -30, 12, 12, 3, 1, -14, 543, 738, 89,noise
2025-03-19 21:55:36.373,220, 650, 653, -27, 14, 16, 1, -1, -8, 551, 741, 94,noise
2025-03-19 21:55:36.381,226, 648, 663, -26, 17, 19, 2, 0, -10, 554, 742, 105,noise
2025-03-19 21:55:36.389,225, 636, 667, -27, 20, 23, 0, 3, -9, 551, 741, 92,noise
2025-03-19 21:55:36.401,230, 617, 666, -25, 23, 26, 2, 1, -9, 557, 741, 90,noise
2025-03-19 21:55:36.409,245, 615, 676, -22, 26, 27, -2, 0, -10, 554, 743, 67,noise
2025-03-19 21:55:36.418,263, 625, 688, -25, 27, 28, 2, 0, -10, 553, 741, 76,noise
2025-03-19 21:55:36.426,272, 597, 693, -27, 26, 26, 1, 2, -10, 551, 740, 71,noise
2025-03-19 21:55:36.434,268, 563, 708, -25, 22, 22, 3, -1, -10, 552, 738, 60,noise
2025-03-19 21:55:36.443,263, 560, 708, -17, 17, 17, 1, 3, -13, 544, 733, 53,noise
2025-03-19 21:55:36.454,270, 594, 708, -14, 12, 16, -2, 4, -10, 546, 736, 41,noise
2025-03-19 21:55:36.463,266, 600, 715, -9, 7, 16, -2, 4, -10, 549, 736, 59,noise
2025-03-19 21:55:36.471,278, 616, 712, -7, 4, 18, 0, 2, -10, 559, 739, 62,noise
2025-03-19 21:55:36.479,286, 611, 710, -4, 2, 19, 1, 0, -10, 557, 737, 96,noise
2025-03-19 21:55:36.488,295, 616, 706, 0, 1, 20, -3, 1, -10, 559, 737, 120,noise
2025-03-19 21:55:36.496,315, 615, 705, 2, 1, 20, 1, 3, -9, 562, 738, 113,noise
2025-03-19 21:55:36.504,328, 622, 690, 4, 3, 20, 0, 1, -10, 564, 739, 108,noise
2025-03-19 21:55:36.516,342, 627, 697, 3, 5, 18, 2, 4, -11, 566, 740, 62,noise
2025-03-19 21:55:36.524,355, 628, 717, 0, 4, 17, -1, 2, -12, 563, 740, 93,noise
2025-03-19 21:55:36.532,389, 638, 722, 1, 3, 15, 0, 4, -11, 553, 742, 115,noise
2025-03-19 21:55:36.541,390, 640, 735, 0, 1, 12, 0, 4, -11, 549, 741, 186,noise
2025-03-19 21:55:36.549,398, 631, 731, 2, -1, 9, 0, 1, -11, 552, 743, 188,noise
2025-03-19 21:55:36.557,400, 654, 756, 4, -3, 7, 2, 0, -11, 540, 746, 232,noise
2025-03-19 21:55:36.566,399, 664, 722, 6, -4, 6, 0, 3, -12, 538, 746, 240,noise
2025-03-19 21:55:36.577,414, 661, 730, 4, -5, 5, 2, 0, -9, 535, 744, 254,noise
2025-03-19 21:55:36.586,422, 666, 730, 8, -3, 5, -1, 5, -7, 524, 742, 239,noise
2025-03-19 21:55:36.594,434, 697, 745, 9, -1, 6, 4, 4, -9, 522, 743, 214,noise
2025-03-19 21:55:36.603,449, 700, 741, 8, 1, 7, 1, 3, -9, 517, 744, 215,noise
2025-03-19 21:55:36.610,461, 690, 733, 8, 4, 5, -1, 4, -10, 499, 742, 182,noise
2025-03-19 21:55:36.619,469, 684, 737, 10, 7, 3, -1, 5, -13, 501, 745, 175,noise
2025-03-19 21:55:36.627,479, 707, 730, 11, 9, 1, -1, 5, -13, 490, 745, 168,noise
2025-03-19 21:55:36.639,484, 724, 730, 9, 10, 0, -1, 3, -11, 490, 748, 185,noise
2025-03-19 21:55:36.647,481, 709, 736, 8, 11, -2, 3, 1, -11, 487, 748, 169,noise
2025-03-19 21:55:36.655,483, 700, 736, 10, 10, -5, -1, 3, -7, 487, 747, 166,noise
2025-03-19 21:55:36.664,484, 697, 730, 12, 9, -7, 2, 2, -7, 485, 746, 171,noise
2025-03-19 21:55:36.672,473, 703, 721, 15, 8, -9, 1, 2, -8, 482, 745, 159,noise
2025-03-19 21:55:36.680,459, 709, 705, 16, 6, -10, 1, 1, -10, 480, 746, 164,noise
2025-03-19 21:55:36.688,448, 700, 683, 15, 5, -11, -3, 1, -8, 474, 744, 149,noise
2025-03-19 21:55:36.700,434, 703, 683, 14, 4, -11, 0, -2, -7, 467, 742, 137,noise
2025-03-19 21:55:36.709,422, 690, 658, 15, 3, -11, 0, 3, -11, 465, 740, 135,noise
2025-03-19 21:55:36.717,421, 686, 648, 15, 3, -12, 0, 3, -11, 472, 742, 134,noise
2025-03-19 21:55:36.725,417, 677, 630, 16, 4, -13, 1, 1, -8, 480, 745, 154,noise
2025-03-19 21:55:36.733,418, 682, 623, 16, 5, -14, 1, 2, -7, 484, 746, 152,noise
2025-03-19 21:55:36.742,406, 692, 615, 16, 6, -14, 0, 1, -8, 488, 747, 156,noise
2025-03-19 21:55:36.754,395, 678, 611, 13, 6, -15, -3, 1, -7, 492, 751, 155,noise
2025-03-19 21:55:36.762,389, 673, 609, 11, 6, -16, 2, 3, -6, 492, 750, 181,noise
2025-03-19 21:55:36.777,377, 667, 606, 11, 6, -17, 2, 2, -9, 492, 750, 169,noise
2025-03-19 21:55:36.780,361, 672, 604, 11, 5, -19, 1, 0, -7, 489, 750, 179,noise
2025-03-19 21:55:36.791,345, 681, 600, 11, 4, -19, 1, 3, -10, 479, 746, 147,noise
2025-03-19 21:55:36.796,337, 680, 595, 10, 4, -19, 1, 0, -7, 476, 748, 153,noise
2025-03-19 21:55:36.807,322, 686, 597, 10, 3, -18, 1, 0, -7, 478, 747, 149,noise
2025-03-19 21:55:36.815,311, 687, 587, 10, 2, -18, 1, 0, -4, 487, 750, 159,noise
2025-03-19 21:55:36.823,311, 690, 588, 8, 1, -17, 1, 0, -6, 484, 748, 168,noise
2025-03-19 21:55:36.831,303, 682, 588, 7, 2, -17, 1, 1, -5, 483, 749, 159,noise
2025-03-19 21:55:36.840,303, 667, 588, 7, 2, -17, 1, 0, -5, 484, 750, 176,noise
2025-03-19 21:55:36.848,294, 667, 586, 7, 3, -18, 3, 1, -6, 488, 750, 173,noise
2025-03-19 21:55:36.856,285, 667, 571, 8, 5, -19, 4, 1, -7, 490, 751, 196,noise
2025-03-19 21:55:36.868,272, 673, 575, 8, 6, -18, 4, -1, -5, 494, 754, 194,noise
2025-03-19 21:55:36.876,274, 691, 567, 7, 7, -17, 2, 2, -10, 487, 753, 181,noise
2025-03-19 21:55:36.885,274, 695, 574, 3, 7, -15, 1, 1, -8, 487, 753, 185,noise
2025-03-19 21:55:36.893,261, 681, 582, 1, 7, -14, 1, 1, -8, 486, 752, 186,noise
2025-03-19 21:55:36.901,266, 679, 596, 2, 7, -14, 2, 1, -4, 494, 755, 208,noise
2025-03-19 21:55:36.909,262, 681, 595, 2, 5, -14, 4, 3, -7, 490, 755, 196,noise
2025-03-19 21:55:36.918,260, 681, 597, 2, 4, -14, 3, 0, -6, 490, 755, 203,noise
2025-03-19 21:55:36.930,262, 682, 589, 1, 4, -14, 4, 1, -5, 489, 754, 190,noise
2025-03-19 21:55:36.938,253, 685, 585, -2, 4, -14, 4, 1, -4, 494, 756, 202,noise
2025-03-19 21:55:36.946,252, 682, 598, -4, 5, -14, 4, 3, -6, 503, 757, 202,noise
2025-03-19 21:55:36.954,243, 680, 612, -6, 6, -14, 3, 1, -8, 505, 758, 199,noise
2025-03-19 21:55:36.963,233, 673, 622, -5, 7, -14, 4, 3, -9, 511, 756, 197,noise
2025-03-19 21:55:36.971,231, 673, 626, -5, 8, -14, 2, 2, -7, 517, 758, 196,noise
2025-03-19 21:55:36.979,222, 680, 626, -4, 9, -12, 2, 2, -7, 521, 758, 216,noise
2025-03-19 21:55:36.991,215, 691, 647, -4, 10, -10, 2, -3, -8, 527, 761, 219,noise
2025-03-19 21:55:36.999,214, 687, 646, -2, 10, -8, 3, 2, -6, 523, 761, 227,noise
2025-03-19 21:55:37.008,230, 688, 639, 0, 10, -7, 2, 0, -3, 515, 760, 214,noise
2025-03-19 21:55:37.016,233, 693, 654, -1, 10, -7, 3, 0, -7, 506, 760, 218,noise
2025-03-19 21:55:37.024,239, 682, 645, 1, 11, -8, 5, 2, -3, 500, 759, 220,noise
2025-03-19 21:55:37.033,231, 679, 644, 4, 11, -10, 3, 0, -8, 512, 759, 206,noise
2025-03-19 21:55:37.044,228, 701, 639, 5, 12, -10, 4, -2, -7, 505, 757, 217,noise
2025-03-19 21:55:37.053,229, 717, 627, 4, 13, -10, 4, -1, -6, 505, 756, 191,noise
2025-03-19 21:55:37.061,236, 721, 627, 4, 15, -10, 4, -1, -6, 503, 757, 205,noise
2025-03-19 21:55:37.069,243, 712, 621, 4, 17, -10, 4, 0, -7, 510, 758, 205,noise
2025-03-19 21:55:37.077,238, 721, 624, 4, 19, -11, 6, -2, -5, 516, 758, 227,noise
2025-03-19 21:55:37.086,239, 722, 623, 5, 20, -12, 4, 2, -8, 506, 760, 228,noise
2025-03-19 21:55:37.094,237, 740, 621, 5, 20, -12, 5, 1, -4, 500, 761, 233,noise
2025-03-19 21:55:37.106,243, 766, 638, 3, 20, -11, 6, 2, -5, 497, 761, 232,noise
2025-03-19 21:55:37.114,246, 780, 658, 0, 20, -10, 5, 3, -6, 498, 761, 224,noise
2025-03-19 21:55:37.122,247, 789, 663, -1, 19, -8, 7, -2, -6, 496, 760, 233,noise
2025-03-19 21:55:37.131,255, 787, 683, -1, 18, -7, 5, 0, -6, 485, 759, 209,noise
2025-03-19 21:55:37.139,260, 786, 713, 1, 17, -6, 6, 0, -10, 482, 757, 208,noise
2025-03-19 21:55:37.147,264, 787, 728, 5, 15, -6, 6, 0, -10, 480, 755, 223,noise
2025-03-19 21:55:37.155,270, 795, 733, 12, 11, -5, 5, 2, -5, 488, 755, 246,noise
2025-03-19 21:55:37.167,284, 798, 740, 11, 7, -6, 4, 0, -7, 490, 756, 271,noise
2025-03-19 21:55:37.176,284, 750, 700, 21, 5, -8, 6, 1, -9, 488, 756, 277,noise
2025-03-19 21:55:37.184,287, 801, 658, 25, 4, -7, 9, -1, -5, 488, 757, 262,noise
2025-03-19 21:55:37.192,291, 837, 657, 20, 3, -5, 7, 3, -5, 497, 758, 270,noise
2025-03-19 21:55:37.200,294, 830, 656, 14, 2, -3, 6, 0, -7, 496, 760, 302,noise
2025-03-19 21:55:37.209,293, 789, 666, 14, 1, -3, 9, 1, -4, 493, 759, 295,noise
2025-03-19 21:55:37.220,301, 781, 666, 17, -1, -3, 8, -2, -6, 486, 756, 287,noise
2025-03-19 21:55:37.229,307, 798, 664, 17, -2, -3, 7, 0, -3, 484, 757, 278,noise
2025-03-19 21:55:37.237,314, 797, 662, 14, -2, -3, 7, 0, -3, 480, 756, 289,noise
2025-03-19 21:55:37.245,315, 785, 657, 13, -2, -4, 5, 2, -9, 491, 758, 294,noise
2025-03-19 21:55:37.253,314, 785, 649, 13, -2, -5, 6, 0, -5, 491, 756, 290,noise
2025-03-19 21:55:37.262,311, 794, 648, 12, -2, -7, 6, 1, -2, 494, 756, 295,noise
2025-03-19 21:55:37.270,295, 815, 651, 11, -1, -7, 6, -2, -4, 502, 756, 285,noise
2025-03-19 21:55:37.278,301, 828, 644, 7, 1, -7, 7, -2, -4, 507, 757, 296,noise
2025-03-19 21:55:37.290,297, 837, 643, 4, 3, -7, 7, -1, -5, 508, 757, 290,noise
2025-03-19 21:55:37.298,304, 822, 649, 1, 7, -7, 5, -3, -7, 492, 757, 313,noise
2025-03-19 21:55:37.307,297, 803, 648, 0, 8, -8, 7, -1, -5, 485, 755, 292,noise
2025-03-19 21:55:37.315,284, 788, 637, 1, 10, -10, 7, -1, -5, 482, 755, 295,noise
2025-03-19 21:55:37.323,278, 790, 621, 1, 11, -11, 4, 1, -4, 489, 755, 299,noise
2025-03-19 21:55:37.332,273, 793, 601, 0, 13, -12, 8, 2, -5, 489, 757, 306,noise
2025-03-19 21:55:37.343,258, 785, 588, -3, 15, -12, 6, 1, -3, 489, 755, 308,noise
2025-03-19 21:55:37.352,240, 780, 586, -6, 15, -12, 6, 0, -1, 494, 754, 299,noise
2025-03-19 21:55:37.360,227, 766, 591, -7, 14, -13, 6, 0, -4, 497, 752, 303,noise
2025-03-19 21:55:37.368,207, 754, 598, -6, 13, -13, 11, -2, -4, 502, 751, 293,noise
2025-03-19 21:55:37.376,205, 763, 591, -7, 11, -14, 8, -1, -6, 511, 752, 298,noise
2025-03-19 21:55:37.385,196, 772, 587, -9, 10, -14, 10, -1, -6, 514, 750, 288,noise
2025-03-19 21:55:37.393,188, 772, 603, -10, 9, -14, 7, 0, -4, 506, 750, 291,noise
2025-03-19 21:55:37.405,183, 774, 623, -10, 8, -13, 11, -2, -2, 516, 749, 290,noise
2025-03-19 21:55:37.413,187, 777, 632, -8, 7, -13, 11, -2, -2, 525, 751, 292,noise
2025-03-19 21:55:37.421,190, 777, 627, -8, 7, -14, 9, 1, -6, 534, 753, 319,noise
2025-03-19 21:55:37.430,188, 792, 632, -8, 8, -14, 6, -2, -5, 537, 753, 307,noise
2025-03-19 21:55:37.438,186, 793, 641, -10, 8, -14, 8, 0, -4, 538, 753, 317,noise
2025-03-19 21:55:37.446,187, 783, 655, -10, 8, -14, 8, -1, -5, 537, 754, 311,noise
2025-03-19 21:55:37.458,189, 771, 664, -10, 8, -14, 7, 0, -6, 538, 754, 316,noise
2025-03-19 21:55:37.466,188, 765, 666, -9, 8, -14, 8, 3, -6, 539, 752, 308,noise
2025-03-19 21:55:37.475,175, 762, 676, -8, 8, -14, 11, -1, -6, 533, 750, 299,noise
2025-03-19 21:55:37.483,162, 762, 676, -7, 7, -14, 10, 0, -6, 525, 748, 293,noise
2025-03-19 21:55:37.491,158, 763, 676, -6, 5, -12, 6, 1, -5, 524, 748, 288,noise
2025-03-19 21:55:37.499,154, 758, 672, -4, 4, -12, 6, 1, -5, 529, 748, 300,noise
2025-03-19 21:55:37.508,148, 757, 673, -3, 3, -11, 5, -1, -1, 538, 750, 297,noise
2025-03-19 21:55:37.519,142, 752, 670, -2, 2, -11, 8, 3, -4, 539, 752, 312,noise
2025-03-19 21:55:37.528,150, 757, 668, -1, 2, -10, 11, 0, -3, 546, 752, 305,noise
2025-03-19 21:55:37.536,148, 753, 658, 0, 2, -9, 12, -1, -6, 547, 753, 321,noise
2025-03-19 21:55:37.544,145, 746, 652, 1, 3, -9, 8, 0, -6, 547, 754, 321,noise
2025-03-19 21:55:37.553,139, 750, 645, 1, 4, -8, 8, 0, -7, 545, 753, 316,noise
2025-03-19 21:55:37.561,140, 754, 645, 1, 5, -8, 10, 0, -7, 536, 750, 303,noise
2025-03-19 21:55:37.569,145, 756, 639, 0, 5, -7, 8, -2, -6, 533, 748, 265,noise
2025-03-19 21:55:37.581,134, 755, 645, 0, 5, -6, 8, -2, -6, 529, 748, 254,noise
2025-03-19 21:55:37.589,131, 761, 652, 0, 5, -5, 11, 1, -5, 538, 749, 248,noise
2025-03-19 21:55:37.597,127, 754, 657, 1, 4, -4, 9, 1, -2, 538, 748, 256,noise
2025-03-19 21:55:37.606,129, 752, 655, 3, 2, -3, 12, 0, -3, 538, 750, 252,noise
2025-03-19 21:55:37.614,139, 758, 645, 4, 2, -2, 14, 7, -2, 541, 750, 255,noise
2025-03-19 21:55:37.622,142, 767, 636, 3, 2, -1, 10, -1, -7, 543, 752, 272,noise
2025-03-19 21:55:37.631,149, 766, 627, 3, 2, 0, 14, 0, -3, 543, 752, 266,noise
2025-03-19 21:55:37.639,148, 757, 625, 2, 3, 0, 11, 1, -6, 538, 751, 271,noise
2025-03-19 21:55:37.651,151, 763, 624, 3, 3, 1, 11, -2, -5, 529, 748, 238,noise
2025-03-19 21:55:37.659,164, 768, 631, 2, 3, 1, 6, -3, -4, 523, 748, 250,noise
2025-03-19 21:55:37.667,161, 772, 633, 2, 2, 1, 6, -3, -4, 522, 747, 241,noise
2025-03-19 21:55:37.675,166, 764, 625, 2, 2, 0, 7, 2, -2, 525, 748, 249,noise
2025-03-19 21:55:37.684,166, 771, 622, 1, 2, -1, 13, 3, -4, 526, 747, 243,noise
2025-03-19 21:55:37.692,167, 778, 623, 0, 2, 0, 13, 4, -4, 525, 747, 244,noise
2025-03-19 21:55:37.700,170, 783, 622, -1, 1, 0, 9, 0, -5, 526, 748, 251,noise
2025-03-19 21:55:37.712,169, 783, 630, -1, 1, 0, 10, 1, -6, 532, 749, 245,noise
2025-03-19 21:55:37.720,169, 775, 638, -1, 1, -1, 7, -1, -7, 531, 749, 263,noise
2025-03-19 21:55:37.729,165, 778, 641, 0, 1, -1, 10, 1, -7, 523, 745, 226,noise
2025-03-19 21:55:37.737,173, 779, 631, 1, 0, -2, 14, -1, -6, 523, 744, 230,noise
2025-03-19 21:55:37.745,167, 788, 618, 0, 0, -1, 14, -1, -6, 522, 744, 223,noise
2025-03-19 21:55:37.753,168, 784, 617, -1, 1, -1, 12, 1, -5, 529, 745, 229,noise
2025-03-19 21:55:37.762,169, 784, 614, -2, 1, -2, 12, 0, -5, 526, 745, 225,noise
2025-03-19 21:55:37.773,163, 771, 610, -3, 2, -2, 11, 3, -3, 525, 744, 207,noise
2025-03-19 21:55:37.782,163, 766, 614, -3, 2, -2, 9, 1, -3, 527, 742, 210,noise
2025-03-19 21:55:37.790,158, 762, 616, -4, 2, -3, 8, 3, -2, 529, 741, 195,noise
2025-03-19 21:55:37.799,167, 770, 621, -5, 2, -3, 13, -1, -3, 534, 742, 210,noise
2025-03-19 21:55:37.806,167, 771, 621, -6, 2, -4, 10, 1, -8, 539, 743, 197,noise
2025-03-19 21:55:37.815,170, 776, 625, -7, 3, -5, 8, 1, -7, 537, 741, 196,noise
2025-03-19 21:55:37.823,168, 779, 620, -8, 4, -6, 8, 1, -7, 538, 740, 190,noise
2025-03-19 21:55:37.835,164, 781, 610, -11, 6, -6, 9, -1, -6, 547, 743, 194,noise
2025-03-19 21:55:37.843,155, 781, 600, -14, 9, -7, 10, 1, -3, 552, 743, 205,noise
2025-03-19 21:55:37.851,155, 778, 594, -17, 11, -8, 9, 0, -5, 554, 741, 189,noise
2025-03-19 21:55:37.860,150, 773, 597, -19, 12, -10, 11, 1, -5, 554, 741, 202,noise
2025-03-19 21:55:37.868,142, 775, 595, -23, 15, -12, 9, 1, -3, 558, 740, 183,noise
2025-03-19 21:55:37.876,135, 791, 622, -26, 16, -12, 9, -2, -6, 560, 741, 145,noise
2025-03-19 21:55:37.888,129, 798, 641, -29, 16, -12, 14, 2, -2, 562, 738, 121,noise
2025-03-19 21:55:37.896,143, 794, 666, -29, 15, -12, 10, 0, -6, 559, 738, 44,noise
2025-03-19 21:55:37.904,144, 794, 692, -28, 14, -13, 13, 1, -7, 553, 734, 28,noise
2025-03-19 21:55:37.913,150, 799, 710, -27, 11, -13, 9, -1, -4, 556, 720, 30,noise
2025-03-19 21:55:37.921,152, 809, 719, -26, 9, -14, 9, -1, -4, 557, 717, 47,noise
2025-03-19 21:55:37.929,149, 814, 739, -26, 5, -16, 10, 1, -9, 574, 721, 49,noise
2025-03-19 21:55:37.941,155, 813, 714, -24, 2, -17, 11, 2, -6, 574, 720, 80,noise
2025-03-19 21:55:37.949,156, 806, 723, -26, 0, -20, 13, 3, -7, 577, 718, 67,noise
2025-03-19 21:55:37.958,149, 824, 712, -24, -1, -22, 12, 0, -6, 577, 719, 80,noise
2025-03-19 21:55:37.966,162, 836, 717, -27, -2, -23, 11, 3, -9, 578, 717, 66,noise
2025-03-19 21:55:37.974,153, 828, 724, -31, -3, -25, 14, 2, -6, 576, 716, 73,noise
2025-03-19 21:55:37.983,144, 814, 719, -32, -3, -26, 13, 1, -7, 573, 715, 60,noise
2025-03-19 21:55:37.991,130, 807, 725, -33, -4, -30, 12, 0, -6, 567, 711, 33,noise
2025-03-19 21:55:38.003,121, 813, 732, -36, -5, -32, 14, 4, -9, 565, 714, 51,noise
2025-03-19 21:55:38.011,120, 809, 742, -39, -7, -34, 14, 4, -9, 576, 714, 29,noise
2025-03-19 21:55:38.019,125, 782, 750, -41, -9, -37, 13, 2, -9, 588, 717, 58,noise
2025-03-19 21:55:38.028,108, 760, 749, -42, -11, -42, 13, 4, -9, 599, 718, 78,noise
2025-03-19 21:55:38.036,78, 761, 752, -42, -13, -45, 15, 6, -5, 615, 722, 151,noise
2025-03-19 21:55:38.044,54, 773, 753, -45, -14, -47, 14, 4, -9, 627, 727, 176,noise
2025-03-19 21:55:38.056,40, 768, 743, -47, -14, -48, 16, 8, -6, 635, 732, 203,noise
2025-03-19 21:55:38.064,23, 749, 753, -49, -13, -48, 13, 5, -11, 646, 735, 218,noise
2025-03-19 21:55:38.073,9, 712, 767, -47, -13, -50, 15, 6, -11, 652, 738, 271,noise
2025-03-19 21:55:38.081,-5, 694, 780, -43, -13, -52, 14, 7, -13, 653, 738, 304,noise
2025-03-19 21:55:38.089,-28, 713, 750, -44, -12, -55, 16, 7, -10, 658, 739, 292,noise
2025-03-19 21:55:38.101,-58, 714, 745, -46, -12, -56, 16, 7, -10, 662, 742, 314,noise
2025-03-19 21:55:38.109,-76, 688, 743, -50, -11, -58, 11, 8, -10, 666, 745, 323,noise
2025-03-19 21:55:38.118,-105, 680, 751, -55, -11, -59, 15, 10, -12, 673, 749, 347,noise
2025-03-19 21:55:38.126,-130, 690, 768, -63, -10, -60, 15, 9, -14, 675, 749, 341,noise
2025-03-19 21:55:38.134,-117, 610, 771, -68, -11, -60, 14, 10, -9, 677, 751, 343,noise
2025-03-19 21:55:38.146,-184, 590, 809, -68, -13, -62, 17, 13, -12, 679, 751, 345,noise
2025-03-19 21:55:38.154,-174, 583, 858, -64, -16, -61, 15, 11, -13, 680, 753, 340,noise
2025-03-19 21:55:38.163,-182, 581, 875, -58, -20, -60, 18, 10, -11, 681, 754, 338,noise
2025-03-19 21:55:38.171,-175, 562, 872, -54, -21, -59, 17, 12, -13, 680, 756, 321,noise
2025-03-19 21:55:38.179,-178, 552, 875, -52, -22, -57, 18, 12, -14, 680, 757, 315,noise
2025-03-19 21:55:38.191,-184, 517, 893, -46, -24, -57, 20, 12, -13, 679, 756, 309,noise
2025-03-19 21:55:38.199,-163, 468, 912, -38, -28, -61, 16, 16, -17, 682, 757, 316,noise
2025-03-19 21:55:38.208,-156, 432, 873, -30, -35, -66, 17, 15, -11, 681, 761, 332,noise
2025-03-19 21:55:38.216,-155, 395, 879, -21, -42, -69, 17, 15, -11, 680, 766, 356,noise
2025-03-19 21:55:38.225,-163, 433, 862, -13, -48, -66, 17, 10, -12, 687, 770, 370,noise
2025-03-19 21:55:38.236,-170, 510, 815, -11, -50, -58, 15, 17, -12, 694, 773, 390,noise
2025-03-19 21:55:38.245,-149, 530, 761, -17, -48, -50, 17, 15, -12, 697, 775, 411,noise
2025-03-19 21:55:38.253,-74, 495, 743, -28, -42, -48, 18, 18, -12, 699, 777, 429,noise
2025-03-19 21:55:38.261,-15, 446, 756, -40, -35, -51, 17, 16, -14, 700, 779, 449,noise
2025-03-19 21:55:38.269,-19, 408, 778, -44, -28, -57, 16, 15, -15, 701, 780, 466,noise
2025-03-19 21:55:38.281,-55, 382, 848, -42, -27, -58, 17, 21, -12, 702, 781, 484,noise
2025-03-19 21:55:38.290,-96, 388, 938, -37, -27, -53, 18, 15, -16, 701, 783, 478,noise
2025-03-19 21:55:38.298,-146, 445, 936, -25, -30, -40, 17, 17, -15, 699, 782, 484,noise
2025-03-19 21:55:38.307,-113, 435, 921, -16, -35, -34, 17, 17, -16, 695, 780, 483,noise
2025-03-19 21:55:38.315,-47, 439, 889, 2, -38, -32, 16, 20, -19, 697, 780, 495,noise
2025-03-19 21:55:38.327,21, 463, 879, 8, -43, -34, 16, 20, -19, 696, 780, 499,noise
2025-03-19 21:55:38.335,67, 468, 848, 11, -47, -37, 19, 15, -17, 699, 780, 508,noise
2025-03-19 21:55:38.343,48, 464, 739, 12, -47, -39, 16, 17, -14, 701, 781, 518,noise
2025-03-19 21:55:38.351,24, 528, 716, 5, -42, -36, 14, 17, -14, 703, 780, 508,noise
2025-03-19 21:55:38.359,57, 606, 712, -7, -34, -28, 16, 20, -14, 702, 779, 502,noise
2025-03-19 21:55:38.368,94, 606, 721, -22, -27, -23, 15, 19, -15, 703, 780, 509,noise
2025-03-19 21:55:38.380,103, 539, 770, -28, -22, -26, 19, 20, -14, 704, 779, 522,noise
2025-03-19 21:55:38.388,42, 507, 847, -28, -21, -32, 17, 19, -15, 705, 779, 507,noise
2025-03-19 21:55:38.396,112, 522, 889, -21, -20, -33, 16, 19, -17, 705, 778, 506,noise
2025-03-19 21:55:38.404,126, 559, 906, -20, -20, -34, 14, 21, -17, 705, 778, 509,noise
2025-03-19 21:55:38.416,129, 534, 860, -14, -20, -41, 15, 20, -16, 703, 776, 509,noise
2025-03-19 21:55:38.425,177, 563, 848, -10, -19, -49, 20, 18, -15, 705, 776, 504,noise
2025-03-19 21:55:38.433,168, 648, 832, -14, -17, -53, 14, 20, -16, 705, 776, 500,noise
2025-03-19 21:55:38.441,196, 639, 827, -14, -20, -57, 14, 20, -16, 708, 776, 515,noise
2025-03-19 21:55:38.450,109, 636, 833, -12, -22, -59, 18, 21, -15, 712, 778, 529,noise
2025-03-19 21:55:38.461,106, 620, 815, -13, -27, -62, 16, 19, -16, 716, 779, 541,noise
2025-03-19 21:55:38.470,91, 623, 828, -19, -33, -64, 14, 21, -14, 719, 779, 533,noise
2025-03-19 21:55:38.478,61, 613, 820, -26, -39, -63, 17, 22, -15, 724, 780, 534,noise
2025-03-19 21:55:38.486,57, 598, 868, -22, -43, -63, 17, 25, -13, 728, 780, 532,noise
2025-03-19 21:55:38.495,109, 573, 883, -18, -48, -68, 18, 23, -16, 729, 782, 546,noise
2025-03-19 21:55:38.506,147, 584, 904, -13, -52, -75, 16, 25, -16, 731, 784, 548,noise
2025-03-19 21:55:38.516,171, 620, 925, -11, -56, -80, 21, 22, -13, 734, 786, 544,noise
2025-03-19 21:55:38.523,110, 647, 930, -6, -56, -80, 17, 22, -15, 737, 785, 540,noise
2025-03-19 21:55:38.532,24, 642, 907, 0, -51, -75, 15, 25, -18, 739, 787, 533,noise
2025-03-19 21:55:38.540,43, 632, 868, 5, -41, -69, 16, 24, -15, 740, 788, 546,noise
2025-03-19 21:55:38.548,143, 644, 838, 0, -31, -68, 16, 24, -15, 743, 789, 540,noise
2025-03-19 21:55:38.560,71, 594, 890, 2, -29, -68, 14, 25, -14, 748, 792, 549,noise
2025-03-19 21:55:38.568,34, 569, 900, 12, -30, -63, 13, 26, -14, 748, 791, 542,noise
2025-03-19 21:55:38.576,-15, 625, 949, 26, -34, -54, 13, 27, -15, 750, 791, 545,noise
2025-03-19 21:55:38.585,6, 637, 937, 30, -38, -47, 19, 29, -14, 748, 790, 540,noise
2025-03-19 21:55:38.593,16, 615, 906, 35, -40, -40, 13, 30, -13, 750, 787, 542,noise
2025-03-19 21:55:38.605,4, 631, 842, 39, -39, -35, 15, 26, -16, 750, 787, 546,noise
2025-03-19 21:55:38.613,40, 640, 739, 35, -33, -32, 17, 25, -15, 749, 788, 546,noise
2025-03-19 21:55:38.621,78, 686, 661, 26, -23, -33, 15, 25, -16, 751, 788, 551,noise
2025-03-19 21:55:38.630,83, 737, 645, 9, -14, -34, 13, 25, -18, 752, 788, 541,noise
2025-03-19 21:55:38.638,36, 724, 684, -3, -9, -33, 13, 26, -18, 753, 790, 533,noise
2025-03-19 21:55:38.646,-17, 714, 741, -8, -7, -30, 13, 26, -18, 754, 790, 525,noise
2025-03-19 21:55:38.658,-16, 711, 744, -13, -4, -27, 13, 24, -16, 754, 790, 529,noise
2025-03-19 21:55:38.666,-8, 666, 737, -17, -1, -24, 13, 23, -17, 758, 791, 526,noise
2025-03-19 21:55:38.675,6, 615, 742, -19, 2, -23, 11, 26, -12, 758, 792, 531,noise
2025-03-19 21:55:38.683,-14, 585, 792, -18, 3, -18, 14, 28, -13, 760, 792, 515,noise
2025-03-19 21:55:38.691,-82, 526, 777, -9, 5, -13, 16, 28, -14, 758, 791, 497,noise
2025-03-19 21:55:38.703,-35, 595, 808, -3, 8, -7, 16, 29, -12, 753, 791, 492,noise
2025-03-19 21:55:38.711,-31, 621, 796, -5, 13, -1, 15, 25, -18, 744, 790, 482,noise
2025-03-19 21:55:38.720,-63, 603, 854, 4, 12, 4, 12, 28, -18, 736, 793, 488,noise
2025-03-19 21:55:38.728,-51, 563, 840, 14, 6, 6, 13, 25, -16, 729, 790, 463,noise
2025-03-19 21:55:38.736,-18, 608, 771, 21, 4, 6, 15, 22, -15, 726, 789, 462,noise
2025-03-19 21:55:38.744,41, 639, 698, 18, 6, 4, 15, 22, -15, 723, 789, 436,noise
2025-03-19 21:55:38.756,38, 668, 684, 11, 10, 3, 13, 25, -14, 727, 789, 424,noise
2025-03-19 21:55:38.765,5, 684, 698, 3, 13, 6, 16, 24, -15, 724, 788, 425,noise
2025-03-19 21:55:38.773,-26, 643, 699, 2, 16, 12, 11, 25, -17, 720, 786, 409,noise
2025-03-19 21:55:38.781,-44, 685, 726, 2, 19, 19, 16, 26, -13, 711, 784, 406,noise
2025-03-19 21:55:38.789,-25, 704, 715, -1, 22, 27, 15, 28, -14, 708, 783, 388,noise
2025-03-19 21:55:38.798,50, 717, 689, -5, 24, 31, 16, 26, -15, 705, 779, 402,noise
2025-03-19 21:55:38.810,112, 733, 716, -8, 24, 29, 14, 24, -14, 707, 776, 398,noise
2025-03-19 21:55:38.818,125, 750, 730, -10, 22, 27, 16, 24, -15, 711, 776, 392,noise
2025-03-19 21:55:38.826,141, 779, 746, -9, 22, 26, 15, 23, -13, 705, 772, 360,noise
2025-03-19 21:55:38.835,141, 837, 752, -8, 21, 28, 15, 23, -16, 704, 772, 364,noise
2025-03-19 21:55:38.843,152, 866, 776, -4, 20, 31, 15, 23, -16, 704, 770, 368,noise
2025-03-19 21:55:38.855,145, 862, 743, -3, 22, 33, 15, 26, -17, 699, 768, 376,noise
2025-03-19 21:55:38.863,105, 864, 740, 3, 23, 35, 14, 28, -14, 699, 765, 369,noise
2025-03-19 21:55:38.871,42, 881, 736, 10, 25, 42, 13, 25, -15, 698, 760, 322,noise
2025-03-19 21:55:38.880,-45, 880, 710, 15, 28, 56, 15, 24, -16, 694, 757, 346,noise
2025-03-19 21:55:38.888,-146, 858, 718, 21, 30, 77, 17, 25, -14, 690, 744, 347,noise
2025-03-19 21:55:38.896,-141, 833, 695, 23, 35, 98, 16, 24, -14, 686, 734, 358,noise
2025-03-19 21:55:38.908,-104, 816, 639, 22, 41, 116, 17, 24, -15, 680, 715, 349,noise
2025-03-19 21:55:38.916,-84, 742, 643, 21, 45, 129, 16, 18, -13, 673, 693, 348,noise
2025-03-19 21:55:38.925,31, 678, 649, 16, 47, 134, 15, 23, -14, 664, 675, 301,noise
2025-03-19 21:55:38.933,66, 622, 707, 15, 44, 133, 13, 22, -17, 658, 658, 221,noise
2025-03-19 21:55:38.945,42, 554, 857, 30, 34, 130, 13, 19, -10, 643, 653, 206,noise
2025-03-19 21:55:38.953,44, 564, 810, 53, 21, 127, 16, 19, -15, 633, 647, 183,noise
2025-03-19 21:55:38.961,101, 554, 903, 67, 6, 120, 16, 19, -15, 604, 642, 170,noise
2025-03-19 21:55:38.970,156, 490, 760, 84, -4, 108, 13, 16, -10, 598, 645, 183,noise
2025-03-19 21:55:38.978,161, 578, 644, 101, -5, 102, 10, 17, -11, 595, 647, 201,noise
2025-03-19 21:55:38.990,127, 610, 617, 99, -5, 98, 12, 16, -11, 577, 647, 186,noise
2025-03-19 21:55:38.998,98, 554, 572, 90, -6, 94, 12, 17, -11, 553, 651, 140,noise
2025-03-19 21:55:39.006,72, 527, 528, 85, -5, 89, 12, 17, -9, 540, 649, 130,noise
2025-03-19 21:55:39.015,50, 495, 516, 79, -4, 85, 13, 14, -11, 537, 642, 126,noise
2025-03-19 21:55:39.023,55, 492, 513, 77, -1, 81, 12, 12, -9, 534, 634, 158,noise
2025-03-19 21:55:39.031,97, 494, 538, 66, 3, 76, 13, 11, -9, 531, 633, 158,noise
2025-03-19 21:55:39.043,131, 451, 544, 63, 6, 66, 12, 12, -11, 511, 630, 149,noise
2025-03-19 21:55:39.051,175, 434, 586, 60, 7, 54, 13, 12, -10, 498, 624, 160,noise
2025-03-19 21:55:39.060,211, 433, 552, 52, 11, 39, 13, 12, -10, 480, 623, 173,noise
2025-03-19 21:55:39.068,197, 495, 545, 39, 17, 25, 11, 9, -10, 471, 630, 174,noise
2025-03-19 21:55:39.076,177, 500, 585, 33, 23, 16, 9, 12, -8, 471, 637, 197,noise
2025-03-19 21:55:39.085,132, 541, 675, 24, 27, 13, 9, 14, -11, 456, 637, 209,noise
2025-03-19 21:55:39.096,91, 594, 773, 22, 28, 14, 9, 12, -6, 404, 645, 222,noise
2025-03-19 21:55:39.105,88, 596, 874, 25, 25, 18, 9, 12, -8, 414, 647, 215,noise
2025-03-19 21:55:39.113,88, 633, 943, 24, 18, 22, 10, 10, -7, 417, 654, 216,noise
2025-03-19 21:55:39.121,114, 567, 908, 30, 13, 25, 10, 13, -7, 429, 684, 230,noise
2025-03-19 21:55:39.130,157, 645, 873, 27, 10, 26, 9, 12, -9, 432, 708, 252,noise
2025-03-19 21:55:39.141,162, 675, 839, 24, 6, 23, 10, 11, -9, 428, 721, 261,noise
2025-03-19 21:55:39.150,174, 661, 877, 18, 1, 19, 10, 6, -6, 433, 734, 267,noise
2025-03-19 21:55:39.158,152, 594, 753, 16, 6, 14, 10, 6, -6, 439, 744, 291,noise
2025-03-19 21:55:39.166,125, 681, 798, 15, 8, 13, 10, 10, -8, 451, 752, 305,noise
2025-03-19 21:55:39.175,154, 721, 738, 8, 13, 16, 11, 7, -6, 455, 757, 328,noise
2025-03-19 21:55:39.183,166, 685, 727, 3, 15, 22, 7, 6, -5, 455, 761, 313,noise
2025-03-19 21:55:39.195,121, 625, 785, 6, 16, 30, 10, 10, -7, 458, 763, 308,noise
2025-03-19 21:55:39.203,45, 704, 835, 24, 9, 48, 13, 11, -5, 461, 766, 318,noise
2025-03-19 21:55:39.211,-97, 1265, 1104, 68, -9, 73, 8, 10, -6, 522, 772, 401,noise
2025-03-19 21:55:39.220,63, 2289, 1572, 91, -24, 73, 11, 11, -5, 609, 773, 437,noise
2025-03-19 21:55:39.228,917, 2142, 1209, -9, -11, 51, 6, 7, -5, 592, 775, 440,noise
2025-03-19 21:55:39.236,842, 1404, 767, -59, 21, 25, 9, 7, -8, 553, 774, 366,noise
2025-03-19 21:55:39.248,226, 359, 632, -20, 36, -5, 7, 9, -7, 591, 774, 223,noise
2025-03-19 21:55:39.256,-113, 47, 458, 47, 36, -19, 7, 9, -7, 638, 777, 217,noise
2025-03-19 21:55:39.264,-167, 264, 368, 76, 21, -8, 6, 8, -6, 663, 776, 264,noise
2025-03-19 21:55:39.273,-153, 626, 313, 52, 3, 15, 10, 10, -5, 671, 774, 325,noise
2025-03-19 21:55:39.281,-33, 883, 388, -2, -16, 39, 9, 4, -7, 671, 772, 322,noise
2025-03-19 21:55:39.289,136, 936, 700, -40, -35, 51, 10, 7, -1, 677, 772, 374,noise
2025-03-19 21:55:39.301,250, 738, 999, -46, -52, 43, 8, 8, -4, 685, 777, 491,noise
2025-03-19 21:55:39.309,352, 539, 1151, -23, -60, 25, 9, 7, -5, 681, 781, 527,noise
2025-03-19 21:55:39.318,353, 555, 1085, 14, -56, 10, 7, 8, -5, 691, 786, 533,noise
2025-03-19 21:55:39.326,252, 675, 967, 36, -47, 8, 9, 5, -6, 699, 788, 517,noise
2025-03-19 21:55:39.334,147, 734, 858, 48, -39, 17, 8, 6, -6, 701, 788, 491,noise
2025-03-19 21:55:39.343,78, 755, 765, 55, -36, 31, 5, 6, -4, 704, 787, 477,noise
2025-03-19 21:55:39.354,80, 734, 707, 58, -36, 44, 5, 6, -4, 705, 786, 478,noise
2025-03-19 21:55:39.363,112, 742, 629, 59, -36, 52, 8, 6, -7, 708, 785, 489,noise
2025-03-19 21:55:39.371,160, 724, 565, 61, -37, 55, 6, 4, -4, 709, 785, 498,noise
2025-03-19 21:55:39.379,220, 707, 564, 63, -41, 55, 4, 4, -2, 711, 784, 525,noise
2025-03-19 21:55:39.388,279, 729, 522, 65, -45, 50, 7, 5, -1, 713, 784, 534,noise
2025-03-19 21:55:39.396,356, 758, 534, 66, -50, 41, 3, 5, -3, 717, 786, 546,noise
2025-03-19 21:55:39.408,410, 834, 488, 61, -52, 31, 4, 6, -1, 721, 788, 550,noise
2025-03-19 21:55:39.416,446, 887, 442, 50, -51, 23, 4, 0, 1, 725, 786, 560,noise
2025-03-19 21:55:39.424,432, 891, 403, 39, -46, 19, 1, 4, -2, 723, 785, 557,noise
2025-03-19 21:55:39.432,374, 865, 377, 34, -39, 17, 4, 3, -1, 725, 788, 564,noise
2025-03-19 21:55:39.441,350, 837, 371, 29, -31, 14, 4, 3, -1, 728, 788, 569,noise
2025-03-19 21:55:39.449,333, 847, 342, 21, -24, 14, 4, 3, -3, 732, 792, 572,noise
2025-03-19 21:55:39.461,339, 853, 399, 6, -21, 11, -4, 5, 2, 740, 792, 577,noise
2025-03-19 21:55:39.469,413, 737, 430, 11, -22, 2, 4, 3, -2, 748, 789, 564,noise
2025-03-19 21:55:39.477,408, 811, 440, 9, -22, -3, 1, 3, 0, 754, 789, 569,noise
2025-03-19 21:55:39.486,386, 903, 534, 0, -25, -2, 0, 1, -1, 758, 787, 562,noise
2025-03-19 21:55:39.494,399, 739, 448, -3, -24, -4, 4, 4, 0, 764, 786, 576,noise
2025-03-19 21:55:39.502,386, 795, 576, 0, -28, 1, 2, 2, 0, 765, 787, 587,noise
2025-03-19 21:55:39.511,317, 790, 586, 3, -32, 1, 1, 3, 0, 763, 787, 584,noise
2025-03-19 21:55:39.522,418, 746, 520, 16, -28, 2, 1, 2, -4, 764, 788, 590,noise
2025-03-19 21:55:39.531,322, 854, 583, 14, -23, 4, 1, 2, -4, 766, 787, 585,noise
2025-03-19 21:55:39.539,454, 799, 474, 12, -17, 1, 0, 5, 0, 770, 785, 596,noise
2025-03-19 21:55:39.547,286, 786, 414, 13, -14, -4, -2, 4, -1, 771, 784, 588,noise
2025-03-19 21:55:39.555,351, 927, 368, 5, -14, -3, 0, 1, 3, 773, 782, 606,noise
2025-03-19 21:55:39.564,448, 943, 332, -5, -16, -3, 1, 5, 4, 774, 783, 624,noise
2025-03-19 21:55:39.572,526, 851, 310, -12, -16, -9, 1, 6, 2, 775, 786, 642,noise
2025-03-19 21:55:39.584,567, 831, 248, -22, -16, -19, 1, 2, 0, 777, 786, 649,noise
2025-03-19 21:55:39.592,504, 827, 268, -38, -17, -31, 2, 2, 2, 779, 791, 658,noise
2025-03-19 21:55:39.600,531, 802, 301, -45, -16, -40, 0, 3, -2, 775, 792, 664,noise
2025-03-19 21:55:39.609,509, 826, 345, -54, -14, -45, 1, 7, -3, 773, 796, 661,noise
2025-03-19 21:55:39.617,498, 803, 453, -63, -12, -47, 1, 7, -3, 768, 797, 658,noise
2025-03-19 21:55:39.629,417, 745, 596, -65, -12, -53, 1, 3, -1, 771, 797, 644,noise
2025-03-19 21:55:39.637,330, 700, 653, -50, -16, -52, 3, 3, 0, 760, 801, 658,noise
2025-03-19 21:55:39.645,304, 900, 634, -57, -16, -38, 2, 2, -3, 752, 804, 654,noise
2025-03-19 21:55:39.654,193, 683, 766, -57, -21, -34, 3, 5, -1, 749, 805, 654,noise
2025-03-19 21:55:39.662,222, 610, 714, -33, -22, -32, 3, 7, 0, 744, 804, 650,noise
2025-03-19 21:55:39.670,208, 719, 756, -19, -23, -25, 1, 4, -3, 743, 805, 643,noise
2025-03-19 21:55:39.682,218, 770, 715, -13, -28, -18, 3, 5, -6, 737, 804, 644,noise
2025-03-19 21:55:39.690,275, 684, 525, -14, -27, -16, 5, 4, -3, 734, 804, 640,noise
2025-03-19 21:55:39.699,313, 715, 583, -16, -21, -19, 3, 7, -6, 732, 806, 649,noise
2025-03-19 21:55:39.707,326, 769, 662, -18, -19, -22, 4, 5, -7, 733, 808, 651,noise
2025-03-19 21:55:39.715,333, 742, 659, -20, -17, -28, 4, 5, -7, 736, 811, 656,noise
2025-03-19 21:55:39.724,318, 747, 604, -18, -10, -33, 1, 6, -5, 740, 816, 658,noise
2025-03-19 21:55:39.735,276, 783, 570, -21, -4, -35, 3, 5, -4, 744, 819, 656,noise
2025-03-19 21:55:39.744,239, 787, 548, -25, 1, -34, 4, 4, -3, 747, 823, 651,noise
2025-03-19 21:55:39.752,212, 798, 573, -27, 0, -29, 1, 7, -5, 742, 823, 645,noise
2025-03-19 21:55:39.760,221, 764, 627, -21, -3, -21, 3, 7, -2, 743, 826, 652,noise
2025-03-19 21:55:39.768,236, 760, 618, -13, -4, -18, 4, 5, -6, 743, 827, 644,noise
2025-03-19 21:55:39.777,270, 831, 579, -11, -5, -16, 4, 4, -7, 744, 826, 649,noise
2025-03-19 21:55:39.785,304, 830, 535, -15, -3, -15, 4, 10, -6, 742, 824, 640,noise
2025-03-19 21:55:39.797,289, 760, 553, -19, -5, -18, 5, 6, -6, 743, 827, 645,noise
2025-03-19 21:55:39.805,337, 712, 558, -16, -8, -22, 5, 6, -6, 743, 827, 646,noise
2025-03-19 21:55:39.813,317, 733, 503, -12, -6, -25, 4, 5, -6, 750, 826, 641,noise
2025-03-19 21:55:39.830,351, 763, 519, -25, 0, -25, 5, 6, -5, 745, 824, 637,noise
2025-03-19 21:55:39.831,346, 834, 589, -29, 4, -21, 4, 6, -8, 749, 824, 634,noise
2025-03-19 21:55:39.842,279, 783, 615, -36, 9, -22, 3, 7, -5, 747, 825, 636,noise
2025-03-19 21:55:39.850,257, 761, 630, -43, 14, -21, 5, 10, -4, 747, 827, 626,noise
2025-03-19 21:55:39.858,197, 774, 745, -34, 12, -15, 6, 7, -6, 746, 829, 632,noise
2025-03-19 21:55:39.866,162, 705, 737, -33, 10, -16, 4, 10, -6, 745, 831, 626,noise
2025-03-19 21:55:39.875,93, 639, 631, -32, 17, -15, 6, 5, -6, 734, 827, 613,noise
2025-03-19 21:55:39.883,84, 692, 682, -30, 23, -5, 5, 6, -9, 728, 826, 584,noise
2025-03-19 21:55:39.891,58, 721, 746, -28, 24, 8, 5, 7, -9, 710, 820, 581,noise
2025-03-19 21:55:39.903,129, 714, 772, -16, 24, 17, 5, 7, -9, 694, 811, 569,noise
2025-03-19 21:55:39.911,209, 751, 833, 3, 23, 22, 5, 7, -8, 691, 804, 548,noise
2025-03-19 21:55:39.920,347, 803, 843, 18, 16, 21, 5, 10, -9, 688, 802, 547,noise
2025-03-19 21:55:39.928,419, 777, 764, 32, 5, 15, 7, 9, -8, 689, 803, 545,noise
2025-03-19 21:55:39.936,410, 764, 666, 50, -8, 9, 5, 10, -6, 691, 804, 552,noise
2025-03-19 21:55:39.944,409, 779, 480, 55, -19, 1, 4, 9, -6, 695, 803, 534,noise
2025-03-19 21:55:39.953,411, 829, 288, 41, -19, -4, 5, 9, -6, 698, 804, 521,noise
2025-03-19 21:55:39.965,367, 866, 228, 19, -12, -4, 4, 6, -7, 695, 801, 515,noise
2025-03-19 21:55:39.973,350, 856, 272, -1, -4, -3, 4, 5, -6, 695, 798, 516,noise
2025-03-19 21:55:39.981,327, 828, 306, -17, 3, -5, 5, 3, -4, 695, 796, 521,noise
2025-03-19 21:55:39.989,362, 813, 421, -33, 11, -9, 5, 3, -4, 698, 793, 516,noise
2025-03-19 21:55:39.998,348, 798, 420, -42, 21, -14, 4, 7, -8, 699, 794, 503,noise
2025-03-19 21:55:40.006,324, 828, 556, -46, 24, -9, 4, 8, -5, 699, 793, 483,noise
2025-03-19 21:55:40.018,188, 736, 639, -39, 16, -7, 3, 9, -5, 697, 792, 475,noise
2025-03-19 21:55:40.026,207, 736, 692, -33, 7, -1, 6, 10, -6, 694, 790, 464,noise
2025-03-19 21:55:40.034,240, 724, 760, -21, 0, -3, 6, 6, -7, 693, 789, 478,noise
2025-03-19 21:55:40.043,241, 697, 707, -20, -6, -8, 6, 8, -7, 691, 787, 465,noise
2025-03-19 21:55:40.051,256, 730, 708, -19, -3, -5, 4, 8, -10, 690, 786, 457,noise
2025-03-19 21:55:40.059,192, 767, 784, -15, -2, -2, 4, 7, -9, 682, 786, 439,noise
2025-03-19 21:55:40.068,162, 756, 817, 8, -7, 9, 10, 6, -7, 675, 787, 451,noise
2025-03-19 21:55:40.079,241, 678, 604, 21, -8, 6, 10, 6, -7, 676, 787, 459,noise
2025-03-19 21:55:40.088,203, 638, 500, 5, -1, -2, 6, 7, -9, 680, 788, 430,noise
2025-03-19 21:55:40.096,223, 876, 569, 4, 5, 7, 4, 8, -5, 682, 787, 435,noise
2025-03-19 21:55:40.104,304, 888, 658, -9, 5, 9, 5, 7, -8, 677, 786, 437,noise
2025-03-19 21:55:40.112,277, 740, 578, -13, 7, 2, 4, 10, -7, 672, 786, 447,noise
2025-03-19 21:55:40.121,281, 744, 611, -8, 8, -4, 5, 8, -9, 673, 786, 444,noise
2025-03-19 21:55:40.129,246, 786, 621, -9, 5, -6, 8, 9, -8, 674, 787, 446,noise
2025-03-19 21:55:40.141,206, 780, 589, -9, 1, -4, 7, 8, -9, 668, 785, 440,noise
2025-03-19 21:55:40.149,215, 791, 585, -8, -2, -3, 4, 9, -11, 666, 784, 431,noise
2025-03-19 21:55:40.158,271, 777, 557, -11, -1, -3, 4, 9, -11, 667, 783, 441,noise
2025-03-19 21:55:40.166,298, 774, 556, -16, 2, -5, 4, 8, -9, 673, 785, 446,noise
2025-03-19 21:55:40.174,290, 791, 593, -22, 6, -6, 5, 8, -8, 671, 784, 450,noise
2025-03-19 21:55:40.182,267, 738, 625, -24, 6, -6, 2, 7, -5, 654, 785, 443,noise
2025-03-19 21:55:40.191,236, 703, 668, -18, 4, -5, 6, 10, -8, 654, 785, 440,noise
2025-03-19 21:55:40.202,254, 713, 679, -13, 3, -4, 4, 10, -6, 655, 782, 438,noise
2025-03-19 21:55:40.211,262, 733, 672, -12, 4, -2, 4, 9, -9, 655, 781, 432,noise
2025-03-19 21:55:40.219,254, 740, 651, -11, 6, 0, 6, 7, -6, 658, 780, 432,noise
2025-03-19 21:55:40.227,268, 735, 651, -9, 7, 1, 4, 11, -11, 652, 776, 419,noise
2025-03-19 21:55:40.235,270, 726, 629, -11, 8, 2, 4, 10, -9, 650, 771, 423,noise
2025-03-19 21:55:40.244,268, 734, 622, -11, 9, 1, 4, 10, -9, 651, 769, 404,noise
2025-03-19 21:55:40.252,272, 749, 626, -14, 10, 1, 4, 8, -7, 655, 770, 421,noise
2025-03-19 21:55:40.264,273, 749, 629, -15, 11, 1, 5, 12, -9, 654, 767, 415,noise
2025-03-19 21:55:40.272,262, 752, 635, -15, 11, 1, 6, 9, -7, 649, 762, 410,noise
2025-03-19 21:55:40.280,270, 732, 658, -14, 11, 1, 4, 9, -9, 643, 762, 426,noise
2025-03-19 21:55:40.289,267, 736, 628, -15, 11, 0, 6, 11, -5, 640, 761, 419,noise
2025-03-19 21:55:40.297,249, 729, 637, -16, 12, 0, 8, 10, -8, 637, 760, 419,noise
2025-03-19 21:55:40.305,256, 725, 642, -14, 15, 1, 5, 10, -9, 638, 756, 399,noise
2025-03-19 21:55:40.317,269, 728, 676, -15, 16, 2, 5, 5, -8, 631, 752, 394,noise
2025-03-19 21:55:40.325,291, 741, 678, -16, 18, 4, 8, 10, -9, 632, 751, 376,noise
2025-03-19 21:55:40.333,308, 702, 691, -13, 20, 4, 8, 10, -9, 630, 748, 380,noise
2025-03-19 21:55:40.342,303, 700, 666, -10, 22, 4, 5, 10, -9, 634, 750, 391,noise
2025-03-19 21:55:40.350,296, 710, 674, -6, 22, 5, 6, 10, -7, 628, 748, 390,noise
2025-03-19 21:55:40.358,261, 734, 650, -3, 20, 4, 7, 11, -11, 613, 743, 396,noise
2025-03-19 21:55:40.370,328, 701, 627, -6, 19, 2, 7, 10, -8, 602, 731, 392,noise
2025-03-19 21:55:40.378,313, 747, 583, -8, 19, 0, 6, 9, -10, 592, 723, 387,noise
2025-03-19 21:55:40.387,295, 752, 619, -10, 19, -3, 5, 8, -9, 586, 714, 335,noise
2025-03-19 21:55:40.395,293, 763, 626, -15, 19, -5, 7, 10, -10, 581, 706, 337,noise
2025-03-19 21:55:40.403,266, 767, 635, -21, 20, -6, 8, 9, -8, 563, 703, 307,noise
2025-03-19 21:55:40.412,229, 773, 666, -24, 21, -5, 6, 12, -14, 544, 695, 288,noise
2025-03-19 21:55:40.423,195, 776, 706, -24, 20, -3, 7, 10, -12, 536, 691, 212,noise
2025-03-19 21:55:40.432,182, 764, 731, -28, 18, 1, 7, 10, -12, 528, 677, 197,noise
2025-03-19 21:55:40.440,179, 730, 721, -23, 17, 6, 6, 9, -11, 526, 656, 99,noise
2025-03-19 21:55:40.448,211, 702, 711, -24, 18, 9, 7, 10, -11, 521, 647, 46,noise
2025-03-19 21:55:40.457,209, 658, 688, -18, 19, 11, 7, 10, -5, 516, 641, 53,noise
2025-03-19 21:55:40.465,218, 666, 723, -23, 18, 12, 7, 10, -12, 518, 629, 45,noise
2025-03-19 21:55:40.477,225, 625, 727, -29, 17, 11, 5, 14, -8, 522, 624, 55,noise
2025-03-19 21:55:40.485,220, 599, 699, -34, 18, 9, 9, 13, -7, 535, 630, 44,noise
2025-03-19 21:55:40.493,206, 575, 714, -33, 19, 8, 9, 11, -10, 537, 640, 97,noise
2025-03-19 21:55:40.502,180, 583, 778, -23, 18, 7, 8, 8, -9, 539, 642, 171,noise
2025-03-19 21:55:40.510,167, 640, 818, -5, 15, 8, 7, 10, -10, 543, 648, 193,noise
2025-03-19 21:55:40.518,212, 699, 826, 14, 12, 8, 7, 10, -10, 543, 647, 188,noise
2025-03-19 21:55:40.530,241, 733, 750, 23, 12, 7, 10, 16, -14, 551, 641, 66,noise
2025-03-19 21:55:40.538,254, 738, 662, 36, 17, 5, 11, 11, -8, 551, 634, 79,noise
2025-03-19 21:55:40.546,254, 819, 613, 29, 25, 7, 7, 11, -8, 545, 621, 68,noise
2025-03-19 21:55:40.555,352, 915, 534, 22, 33, 13, 6, 12, -6, 540, 618, 75,noise
2025-03-19 21:55:40.563,268, 1015, 561, -2, 38, 22, 7, 13, -7, 547, 622, 65,noise
2025-03-19 21:55:40.571,240, 1019, 718, -29, 37, 38, 8, 12, -9, 545, 634, 67,noise
2025-03-19 21:55:40.583,218, 1013, 824, -47, 28, 56, 9, 12, -9, 535, 648, 60,noise
2025-03-19 21:55:40.591,208, 907, 924, -45, 17, 71, 7, 8, -6, 532, 656, 43,noise
2025-03-19 21:55:40.600,205, 779, 979, -14, 9, 81, 8, 10, -11, 516, 655, 39,noise
2025-03-19 21:55:40.608,220, 782, 949, 29, 8, 90, 10, 8, -9, 504, 652, 28,noise
2025-03-19 21:55:40.616,292, 867, 902, 59, 12, 103, 10, 8, -9, 506, 637, 44,noise
2025-03-19 21:55:40.625,289, 922, 883, 48, 18, 115, 7, 10, -13, 507, 624, 46,noise
2025-03-19 21:55:40.636,407, 884, 817, 66, 25, 126, 5, 12, -5, 506, 629, 52,noise
2025-03-19 21:55:40.645,478, 869, 723, 78, 34, 138, 4, 10, -6, 508, 625, 47,noise
2025-03-19 21:55:40.653,431, 805, 718, 67, 38, 147, 6, 10, -5, 502, 605, 53,noise
2025-03-19 21:55:40.661,326, 725, 779, 59, 36, 155, 4, 9, -6, 488, 598, 56,noise
2025-03-19 21:55:40.670,406, 679, 802, 71, 32, 160, 6, 5, -6, 462, 590, 56,noise
2025-03-19 21:55:40.678,396, 674, 874, 83, 23, 164, 5, 5, -5, 445, 569, 68,noise
2025-03-19 21:55:40.690,408, 636, 871, 97, 13, 165, 1, 7, -7, 434, 547, 58,noise
2025-03-19 21:55:40.698,410, 624, 784, 106, 9, 165, -1, 3, -5, 433, 521, 45,noise
2025-03-19 21:55:40.706,395, 594, 724, 115, 4, 163, -1, 3, -5, 432, 506, 44,noise
2025-03-19 21:55:40.714,265, 628, 723, 121, -2, 163, -2, 2, -1, 432, 499, 53,noise
2025-03-19 21:55:40.723,367, 585, 698, 112, -9, 161, 0, 1, -2, 437, 497, 69,noise
2025-03-19 21:55:40.731,353, 548, 685, 107, -18, 159, -2, 2, 0, 435, 491, 65,noise
2025-03-19 21:55:40.743,335, 506, 675, 103, -26, 153, -5, 3, -1, 428, 486, 64,noise
2025-03-19 21:55:40.751,390, 479, 619, 110, -30, 145, -4, 3, 1, 435, 492, 58,noise
2025-03-19 21:55:40.760,343, 409, 557, 106, -32, 134, -9, 1, 0, 401, 494, 55,noise
2025-03-19 21:55:40.768,448, 433, 571, 123, -30, 126, -5, 1, 3, 390, 494, 58,noise
2025-03-19 21:55:40.776,337, 482, 519, 123, -26, 121, -8, 1, 1, 370, 488, 48,noise
2025-03-19 21:55:40.788,371, 555, 480, 117, -18, 120, -9, 3, 0, 338, 470, 25,noise
2025-03-19 21:55:40.796,480, 636, 408, 111, -6, 120, -9, -2, 5, 318, 467, 30,noise
2025-03-19 21:55:40.804,445, 624, 310, 83, 9, 115, -9, -2, 5, 252, 451, 28,noise
2025-03-19 21:55:40.813,493, 665, 393, 69, 18, 110, -8, 0, 0, 264, 455, 39,noise
2025-03-19 21:55:40.821,444, 665, 421, 41, 19, 104, -11, -1, 5, 271, 464, 47,noise
2025-03-19 21:55:40.829,463, 625, 516, 32, 14, 98, -12, 0, 5, 274, 475, 51,noise
2025-03-19 21:55:40.838,471, 588, 643, 36, 2, 92, -11, -1, 8, 301, 482, 51,noise
2025-03-19 21:55:40.849,483, 561, 653, 47, -12, 84, -15, 0, 8, 307, 483, 64,noise
2025-03-19 21:55:40.858,536, 569, 634, 67, -20, 77, -15, 0, 8, 309, 477, 69,noise
2025-03-19 21:55:40.866,576, 643, 607, 73, -25, 74, -15, -3, 10, 338, 468, 67,noise
2025-03-19 21:55:40.874,479, 705, 538, 78, -25, 74, -16, -2, 8, 333, 438, 65,noise
2025-03-19 21:55:40.883,705, 690, 462, 69, -20, 70, -19, 1, 7, 329, 432, 42,noise
2025-03-19 21:55:40.891,761, 670, 427, 66, -13, 64, -19, 0, 8, 334, 435, 38,noise
2025-03-19 21:55:40.903,722, 657, 401, 58, -6, 58, -19, 0, 8, 321, 427, 43,noise
2025-03-19 21:55:40.911,732, 641, 385, 49, 0, 50, -17, -2, 9, 315, 426, 63,noise
2025-03-19 21:55:40.919,717, 639, 417, 45, 3, 44, -14, -1, 7, 312, 428, 53,noise
2025-03-19 21:55:40.927,711, 642, 446, 44, 2, 40, -15, 0, 11, 290, 404, 53,noise
2025-03-19 21:55:40.936,710, 644, 423, 39, -2, 37, -21, 0, 12, 283, 401, 46,noise
2025-03-19 21:55:40.944,687, 568, 357, 39, -2, 29, -21, -2, 11, 310, 406, 45,noise
2025-03-19 21:55:40.956,719, 521, 320, 48, 1, 21, -18, -1, 12, 350, 417, 45,noise
2025-03-19 21:55:40.964,719, 573, 306, 53, 3, 16, -20, -1, 12, 362, 425, 42,noise
2025-03-19 21:55:40.972,727, 618, 282, 49, 4, 15, -19, -3, 14, 350, 429, 33,noise
2025-03-19 21:55:40.981,711, 602, 265, 40, 4, 13, -22, 0, 11, 354, 428, 28,noise
2025-03-19 21:55:40.996,720, 538, 208, 33, 6, 7, -22, 0, 11, 329, 413, 36,noise
2025-03-19 21:55:40.999,796, 513, 154, 36, 11, -2, -17, -1, 12, 331, 423, 67,noise
2025-03-19 21:55:41.010,741, 542, 180, 38, 14, -10, -22, 0, 15, 321, 423, 70,noise
2025-03-19 21:55:41.017,712, 583, 188, 31, 10, -15, -18, -2, 15, 295, 419, 70,noise
2025-03-19 21:55:41.026,696, 596, 151, 28, 6, -21, -20, 1, 15, 281, 394, 69,noise
2025-03-19 21:55:41.034,701, 573, 79, 18, 7, -28, -17, 0, 17, 270, 371, 67,noise
2025-03-19 21:55:41.042,682, 625, 189, 6, 3, -35, -19, 0, 16, 266, 317, 63,noise
2025-03-19 21:55:41.050,625, 628, 168, -13, -6, -40, -16, -6, 17, 267, 302, 60,noise
2025-03-19 21:55:41.062,550, 600, 193, -28, -10, -48, -18, -1, 10, 272, 327, 47,noise
2025-03-19 21:55:41.071,575, 572, 121, -30, -9, -57, -19, -2, 11, 302, 358, 29,noise
2025-03-19 21:55:41.079,519, 573, 164, -38, -6, -68, -17, -4, 12, 329, 410, 40,noise
2025-03-19 21:55:41.087,486, 642, 224, -49, -5, -74, -17, -4, 12, 360, 439, 38,noise
2025-03-19 21:55:41.095,449, 655, 255, -58, -7, -78, -14, -3, 11, 387, 478, 50,noise
2025-03-19 21:55:41.104,423, 653, 277, -62, -8, -79, -15, -3, 13, 404, 486, 46,noise
2025-03-19 21:55:41.116,413, 642, 340, -64, -11, -81, -13, -2, 16, 413, 503, 50,noise
2025-03-19 21:55:41.124,448, 678, 424, -69, -17, -82, -15, -3, 14, 419, 503, 50,noise
2025-03-19 21:55:41.132,478, 697, 506, -72, -24, -85, -16, -3, 13, 426, 502, 47,noise
2025-03-19 21:55:41.141,514, 707, 564, -75, -33, -90, -15, -3, 11, 434, 494, 49,noise
2025-03-19 21:55:41.149,562, 696, 610, -75, -41, -98, -12, -1, 11, 438, 491, 52,noise
2025-03-19 21:55:41.161,615, 681, 628, -77, -48, -110, -11, -5, 10, 444, 494, 42,noise
2025-03-19 21:55:41.169,631, 677, 600, -74, -49, -123, -15, -2, 8, 439, 482, 31,noise
2025-03-19 21:55:41.177,621, 675, 583, -77, -46, -133, -9, -5, 9, 445, 490, 38,noise
2025-03-19 21:55:41.186,602, 673, 587, -75, -41, -138, -9, -5, 9, 449, 493, 47,noise
2025-03-19 21:55:41.194,569, 682, 571, -78, -34, -140, -11, -2, 8, 467, 512, 73,noise
2025-03-19 21:55:41.202,529, 684, 562, -77, -26, -137, -9, -2, 9, 481, 524, 71,noise
2025-03-19 21:55:41.214,501, 711, 563, -79, -21, -130, -10, -1, 9, 517, 535, 72,noise
2025-03-19 21:55:41.222,478, 737, 577, -83, -16, -122, -8, -1, 8, 533, 542, 71,noise
2025-03-19 21:55:41.230,504, 703, 633, -80, -14, -119, -6, 0, 6, 550, 547, 70,noise
2025-03-19 21:55:41.239,517, 662, 646, -66, -18, -123, -6, -5, 7, 566, 553, 70,noise
2025-03-19 21:55:41.247,487, 661, 608, -48, -22, -127, -6, -4, 3, 570, 556, 67,noise
2025-03-19 21:55:41.255,433, 694, 548, -34, -25, -127, -5, 0, 2, 574, 560, 57,noise
2025-03-19 21:55:41.267,395, 757, 466, -27, -22, -121, -2, -3, 4, 570, 554, 34,noise
2025-03-19 21:55:41.275,360, 807, 440, -21, -15, -109, -3, 0, 5, 570, 555, 37,noise
2025-03-19 21:55:41.284,337, 869, 396, -25, -7, -94, -3, 0, 5, 567, 554, 43,noise
2025-03-19 21:55:41.292,337, 835, 357, -27, 4, -80, -1, 2, 1, 570, 536, 51,noise
2025-03-19 21:55:41.300,294, 807, 376, -22, 13, -70, 1, 0, 3, 569, 525, 47,noise
2025-03-19 21:55:41.309,329, 791, 394, -16, 18, -63, 0, -2, 4, 571, 524, 51,noise
2025-03-19 21:55:41.320,356, 786, 392, -18, 21, -60, -1, -3, 3, 574, 528, 51,noise
2025-03-19 21:55:41.329,311, 762, 403, -16, 21, -58, 2, 0, 4, 578, 533, 54,noise
2025-03-19 21:55:41.337,280, 758, 408, -9, 19, -55, 4, 1, 3, 580, 540, 64,noise
2025-03-19 21:55:41.345,319, 755, 386, -2, 20, -53, 2, -1, 4, 577, 540, 67,noise
2025-03-19 21:55:41.353,331, 797, 326, 3, 24, -51, 2, -1, 2, 571, 542, 46,noise
2025-03-19 21:55:41.362,323, 801, 420, 0, 28, -49, 0, 2, 1, 570, 545, 44,noise
2025-03-19 21:55:41.370,350, 852, 395, 0, 36, -46, 0, 2, 1, 563, 546, 52,noise
2025-03-19 21:55:41.382,352, 859, 387, -8, 40, -43, 4, 0, -1, 543, 544, 61,noise
2025-03-19 21:55:41.390,330, 834, 405, -6, 44, -40, 0, 1, 5, 521, 543, 59,noise
2025-03-19 21:55:41.398,302, 870, 412, -6, 47, -35, 2, 2, 7, 464, 534, 49,noise
2025-03-19 21:55:41.407,283, 890, 444, -12, 47, -28, 4, 2, 5, 463, 534, 46,noise
2025-03-19 21:55:41.415,269, 898, 478, -10, 45, -21, 4, 2, 4, 452, 536, 51,noise
2025-03-19 21:55:41.423,290, 916, 514, -16, 41, -15, 4, 1, 2, 459, 534, 46,noise
2025-03-19 21:55:41.432,364, 904, 602, -13, 35, -13, 4, 0, 0, 454, 529, 44,noise
2025-03-19 21:55:41.443,395, 854, 603, -6, 31, -18, 5, 2, 0, 457, 529, 40,noise
2025-03-19 21:55:41.452,426, 855, 625, 7, 28, -27, 5, 2, 0, 455, 531, 51,noise
2025-03-19 21:55:41.460,445, 855, 575, 14, 28, -37, 8, 0, 2, 461, 540, 61,noise
2025-03-19 21:55:41.468,394, 859, 484, 16, 31, -44, 6, -1, 1, 447, 540, 71,noise
2025-03-19 21:55:41.476,378, 885, 504, 9, 36, -45, 5, 1, 1, 444, 537, 70,noise
2025-03-19 21:55:41.485,354, 905, 465, -2, 39, -42, 4, 0, 4, 434, 535, 65,noise
2025-03-19 21:55:41.493,310, 893, 436, -16, 42, -37, 7, 0, 4, 419, 533, 56,noise
2025-03-19 21:55:41.505,273, 867, 528, -18, 40, -31, 7, 1, 5, 410, 525, 50,noise
2025-03-19 21:55:41.513,240, 831, 516, -14, 36, -27, 8, 0, 2, 397, 522, 47,noise
2025-03-19 21:55:41.521,245, 838, 573, -6, 30, -25, 10, 0, 1, 370, 510, 36,noise
2025-03-19 21:55:41.529,242, 867, 588, 4, 24, -25, 7, 1, 1, 371, 514, 28,noise
2025-03-19 21:55:41.538,239, 888, 566, 10, 20, -26, 7, 1, 1, 371, 514, 37,noise
2025-03-19 21:55:41.546,270, 936, 520, 13, 22, -29, 7, 1, 3, 390, 523, 53,noise
2025-03-19 21:55:41.558,274, 920, 507, 2, 25, -31, 10, 0, 1, 391, 527, 72,noise
2025-03-19 21:55:41.566,294, 854, 448, -4, 29, -35, 9, 2, 3, 391, 525, 73,noise
2025-03-19 21:55:41.575,258, 845, 490, -6, 34, -37, 9, 0, 5, 392, 529, 71,noise
2025-03-19 21:55:41.583,195, 876, 466, -10, 36, -36, 11, 3, 6, 380, 530, 70,noise
2025-03-19 21:55:41.591,178, 896, 549, -11, 34, -34, 11, -2, 2, 378, 531, 65,noise
2025-03-19 21:55:41.600,169, 866, 554, -9, 31, -31, 11, -2, 2, 369, 534, 60,noise
2025-03-19 21:55:41.608,125, 865, 548, -6, 29, -29, 10, 1, 2, 356, 529, 30,noise
2025-03-19 21:55:41.619,109, 856, 543, -3, 26, -26, 11, -1, 5, 346, 528, 43,noise
2025-03-19 21:55:41.628,107, 853, 526, -3, 25, -25, 11, -1, 5, 345, 526, 34,noise
2025-03-19 21:55:41.636,112, 856, 512, -9, 24, -26, 9, 1, 5, 356, 532, 48,noise
2025-03-19 21:55:41.644,85, 835, 500, -14, 24, -28, 12, -1, 2, 351, 533, 48,noise
2025-03-19 21:55:41.653,67, 846, 475, -12, 24, -26, 13, 2, 2, 343, 536, 48,noise
2025-03-19 21:55:41.661,56, 830, 537, -9, 22, -25, 14, 3, 3, 319, 537, 56,noise
2025-03-19 21:55:41.673,79, 817, 537, -2, 22, -25, 14, 3, 3, 327, 548, 60,noise
2025-03-19 21:55:41.681,112, 848, 574, 5, 23, -27, 14, 1, 6, 303, 550, 70,noise
2025-03-19 21:55:41.689,145, 883, 588, 6, 24, -29, 14, 2, 1, 305, 548, 65,noise
2025-03-19 21:55:41.697,126, 895, 590, 0, 26, -32, 14, 1, 3, 290, 546, 43,noise
2025-03-19 21:55:41.706,125, 871, 604, 1, 26, -34, 15, 2, 3, 286, 548, 42,noise
2025-03-19 21:55:41.714,94, 885, 564, 3, 28, -35, 15, 2, 3, 308, 550, 46,noise
2025-03-19 21:55:41.722,48, 905, 588, 5, 27, -36, 15, 1, -1, 317, 561, 56,noise
2025-03-19 21:55:41.734,66, 925, 593, 3, 25, -34, 13, 2, 5, 313, 564, 52,noise
2025-03-19 21:55:41.742,110, 939, 607, 0, 23, -33, 16, 3, 3, 312, 563, 48,noise
2025-03-19 21:55:41.751,140, 927, 604, -6, 23, -38, 17, 4, 4, 323, 564, 46,noise
2025-03-19 21:55:41.759,125, 888, 617, -9, 23, -44, 16, 0, 3, 335, 568, 51,noise
2025-03-19 21:55:41.767,85, 823, 597, -4, 23, -50, 17, 4, 5, 344, 572, 50,noise
2025-03-19 21:55:41.775,0, 812, 567, -1, 20, -52, 17, 3, 1, 360, 575, 63,noise
2025-03-19 21:55:41.784,-17, 798, 559, 6, 16, -51, 17, 3, 2, 370, 571, 42,noise
2025-03-19 21:55:41.795,-21, 781, 524, 8, 14, -50, 17, -2, 3, 383, 576, 49,noise
2025-03-19 21:55:41.804,-17, 791, 485, 4, 11, -48, 17, -2, 3, 402, 585, 54,noise
2025-03-19 21:55:41.812,-84, 776, 492, -3, 6, -47, 19, 2, 3, 420, 595, 66,noise
2025-03-19 21:55:41.820,-68, 763, 529, -1, 2, -47, 17, 6, 2, 431, 600, 59,noise
2025-03-19 21:55:41.829,-115, 767, 497, 1, 0, -47, 21, 3, 4, 449, 606, 49,noise
2025-03-19 21:55:41.837,-230, 821, 578, -6, -1, -42, 21, 3, 3, 453, 616, 56,noise
2025-03-19 21:55:41.845,-263, 836, 649, 3, -4, -34, 22, 5, 5, 454, 621, 43,noise
2025-03-19 21:55:41.857,-284, 813, 682, 10, -6, -26, 23, 7, 4, 462, 628, 53,noise
2025-03-19 21:55:41.865,-270, 791, 648, 17, -6, -20, 19, 5, 1, 455, 629, 27,noise
2025-03-19 21:55:41.873,-160, 801, 649, 28, -5, -17, 22, 3, 1, 466, 634, 42,noise
2025-03-19 21:55:41.882,-75, 869, 583, 30, -1, -17, 22, 3, 1, 474, 634, 48,noise
2025-03-19 21:55:41.890,-54, 885, 561, 27, 1, -18, 21, 2, 5, 485, 646, 73,noise
2025-03-19 21:55:41.898,-61, 854, 584, 20, -3, -20, 20, 5, 6, 490, 650, 75,noise
2025-03-19 21:55:41.906,-52, 800, 589, 30, -11, -20, 18, 2, 3, 490, 653, 65,noise
2025-03-19 21:55:41.918,-73, 810, 523, 36, -19, -20, 21, 5, 6, 488, 657, 73,noise
2025-03-19 21:55:41.927,-77, 858, 450, 33, -22, -20, 23, 6, 7, 490, 658, 52,noise
2025-03-19 21:55:41.935,-92, 894, 417, 24, -21, -19, 23, 5, 8, 487, 661, 66,noise
2025-03-19 21:55:41.943,-89, 866, 419, 18, -16, -18, 21, 7, 3, 485, 655, 45,noise
2025-03-19 21:55:41.951,-81, 826, 420, 15, -9, -17, 21, 4, 4, 471, 654, 37,noise
2025-03-19 21:55:41.960,-118, 827, 415, 12, -3, -16, 23, 3, 4, 474, 658, 29,noise
2025-03-19 21:55:41.972,-112, 802, 453, 13, -2, -12, 23, 3, 4, 474, 662, 35,noise
2025-03-19 21:55:41.980,-106, 794, 531, 17, -6, -7, 23, 4, 3, 479, 667, 61,noise
2025-03-19 21:55:41.988,-93, 811, 504, 21, -10, -1, 20, 4, 4, 480, 667, 59,noise
2025-03-19 21:55:41.996,-84, 772, 523, 10, -17, 4, 21, 4, 8, 481, 666, 81,noise
2025-03-19 21:55:42.005,-52, 831, 470, 19, -19, 7, 22, 3, 5, 475, 665, 68,noise
2025-03-19 21:55:42.013,11, 839, 476, 18, -21, 8, 22, 4, 6, 465, 663, 75,noise
2025-03-19 21:55:42.021,26, 852, 474, 12, -20, 8, 23, 3, 6, 464, 662, 66,noise
2025-03-19 21:55:42.029,-30, 837, 471, 10, -19, 10, 21, 2, 6, 457, 660, 57,noise
2025-03-19 21:55:42.041,-11, 865, 474, 8, -17, 14, 22, 3, 4, 445, 656, 44,noise
2025-03-19 21:55:42.049,-32, 881, 485, 4, -14, 18, 21, 1, 8, 449, 653, 26,noise
2025-03-19 21:55:42.058,-31, 872, 501, 4, -11, 23, 21, 1, 8, 452, 653, 42,noise
2025-03-19 21:55:42.066,-26, 907, 532, 9, -10, 29, 19, 4, 3, 458, 658, 44,noise
2025-03-19 21:55:42.074,-18, 946, 526, 10, -7, 34, 19, 5, 4, 459, 658, 62,noise
2025-03-19 21:55:42.083,14, 960, 517, 11, -6, 36, 22, 5, 4, 467, 661, 53,noise
2025-03-19 21:55:42.091,33, 961, 504, 12, -8, 35, 22, 4, 9, 464, 662, 77,noise
2025-03-19 21:55:42.103,44, 986, 494, 13, -9, 33, 20, 2, 5, 462, 661, 70,noise
2025-03-19 21:55:42.111,58, 1011, 479, 8, -12, 31, 21, 1, 6, 465, 660, 66,noise
2025-03-19 21:55:42.119,71, 1003, 464, 5, -15, 30, 21, 2, 5, 459, 650, 50,noise
2025-03-19 21:55:42.127,96, 1023, 447, 5, -15, 24, 22, 0, 5, 455, 646, 38,noise
2025-03-19 21:55:42.136,141, 1055, 454, -1, -12, 12, 22, 0, 5, 451, 645, 47,noise
2025-03-19 21:55:42.144,140, 1096, 410, -12, -7, 0, 16, 4, 5, 457, 646, 46,noise
2025-03-19 21:55:42.156,118, 1060, 443, -22, -3, -7, 19, 4, 8, 457, 646, 56,noise
2025-03-19 21:55:42.164,60, 991, 468, -27, 0, -8, 23, 4, 3, 453, 646, 44,noise
2025-03-19 21:55:42.172,9, 911, 495, -27, -2, -6, 17, 2, 6, 456, 648, 54,noise
2025-03-19 21:55:42.181,-32, 848, 493, -22, -6, -3, 17, 1, 3, 454, 650, 59,noise
2025-03-19 21:55:42.189,-29, 819, 500, -14, -10, 0, 20, 1, 5, 458, 655, 63,noise
2025-03-19 21:55:42.197,-31, 832, 480, -12, -13, 2, 21, 2, 5, 449, 657, 69,noise
2025-03-19 21:55:42.205,-40, 871, 476, -14, -14, 4, 20, 1, 4, 437, 654, 38,noise
2025-03-19 21:55:42.214,-34, 879, 487, -20, -15, 6, 18, 1, 6, 439, 655, 50,noise
2025-03-19 21:55:42.226,-41, 878, 515, -23, -16, 6, 18, 1, 6, 440, 657, 42,noise
2025-03-19 21:55:42.234,-8, 855, 533, -22, -15, 6, 16, 3, 5, 448, 657, 64,noise
2025-03-19 21:55:42.242,24, 854, 544, -21, -12, 5, 15, 3, 8, 443, 655, 56,noise
2025-03-19 21:55:42.250,-1, 884, 539, -20, -7, 4, 17, 2, 3, 439, 653, 51,noise
2025-03-19 21:55:42.259,-2, 872, 564, -16, -4, 6, 17, 2, 6, 430, 654, 54,noise
2025-03-19 21:55:42.267,-5, 860, 559, -12, -1, 8, 17, 2, 3, 423, 653, 52,noise
2025-03-19 21:55:42.275,-36, 866, 571, -11, 0, 11, 19, 1, 4, 418, 657, 73,noise
2025-03-19 21:55:42.287,-31, 868, 588, -8, -1, 14, 18, 5, 2, 399, 648, 38,noise
2025-03-19 21:55:42.295,-32, 860, 576, -4, -2, 18, 16, 3, 1, 394, 648, 51,noise
2025-03-19 21:55:42.303,-21, 847, 559, -2, -3, 19, 16, 3, 1, 397, 642, 41,noise
2025-03-19 21:55:42.312,-20, 842, 533, 2, -4, 20, 17, 3, 7, 399, 652, 68,noise
2025-03-19 21:55:42.320,-18, 851, 531, 8, -4, 20, 18, 4, 5, 393, 651, 61,noise
2025-03-19 21:55:42.328,0, 862, 529, 11, -3, 21, 15, 2, 6, 386, 650, 49,noise
2025-03-19 21:55:42.337,18, 882, 516, 9, -2, 23, 17, 3, 4, 384, 645, 53,noise
2025-03-19 21:55:42.345,19, 894, 522, 8, -2, 25, 16, 1, 2, 387, 645, 43,noise
2025-03-19 21:55:42.357,21, 873, 538, 9, -1, 28, 18, 1, 4, 388, 645, 59,noise
2025-03-19 21:55:42.365,41, 870, 539, 14, 0, 29, 16, 3, 4, 372, 638, 40,noise
2025-03-19 21:55:42.373,41, 890, 524, 16, 0, 29, 16, -1, 4, 350, 636, 47,noise
2025-03-19 21:55:42.381,58, 879, 524, 16, 1, 30, 16, -1, 4, 335, 636, 47,noise
2025-03-19 21:55:42.390,65, 875, 531, 17, 3, 30, 16, 1, 5, 328, 638, 66,noise
2025-03-19 21:55:42.398,50, 872, 527, 18, 4, 32, 14, 1, 2, 302, 633, 63,noise
2025-03-19 21:55:42.406,69, 861, 533, 20, 4, 33, 15, 3, 4, 290, 630, 55,noise
2025-03-19 21:55:42.414,88, 863, 515, 20, 5, 35, 14, 0, 7, 284, 622, 57,noise
2025-03-19 21:55:42.426,94, 865, 495, 21, 7, 35, 14, 0, 5, 271, 612, 40,noise
2025-03-19 21:55:42.435,114, 869, 491, 20, 9, 36, 16, 2, 6, 272, 595, 51,noise
2025-03-19 21:55:42.443,152, 887, 491, 19, 11, 35, 16, 0, 6, 263, 588, 40,noise
2025-03-19 21:55:42.451,157, 888, 478, 14, 13, 33, 14, 1, 2, 263, 585, 37,noise
2025-03-19 21:55:42.459,167, 876, 481, 14, 12, 30, 15, 4, 1, 263, 583, 45,noise
2025-03-19 21:55:42.468,160, 877, 475, 16, 10, 27, 15, 4, 1, 264, 583, 50,noise
2025-03-19 21:55:42.479,157, 881, 466, 16, 8, 26, 14, 0, 4, 264, 586, 75,noise
2025-03-19 21:55:42.513,157, 891, 455, 16, 6, 24, 11, 2, 10, 268, 583, 64,noise
2025-03-19 21:55:42.513,162, 898, 425, 13, 5, 23, 14, 0, 6, 259, 582, 77,noise
2025-03-19 21:55:42.514,176, 904, 407, 9, 7, 21, 14, 1, 7, 256, 578, 58,noise
2025-03-19 21:55:42.514,176, 903, 408, 4, 8, 19, 14, -2, 6, 254, 577, 63,noise
2025-03-19 21:55:42.521,169, 912, 423, -1, 9, 17, 9, 1, 3, 249, 573, 48,noise
2025-03-19 21:55:42.529,189, 890, 426, -2, 9, 15, 13, -1, 7, 238, 572, 40,noise
2025-03-19 21:55:42.541,177, 896, 415, -2, 9, 12, 12, 0, 6, 230, 561, 26,noise
2025-03-19 21:55:42.549,172, 900, 429, -4, 8, 11, 12, 0, 6, 232, 560, 30,noise
2025-03-19 21:55:42.557,168, 912, 429, -6, 7, 9, 14, -2, 6, 254, 563, 45,noise
2025-03-19 21:55:42.566,166, 902, 426, -11, 6, 8, 14, -3, 7, 263, 567, 60,noise
2025-03-19 21:55:42.574,162, 895, 456, -13, 5, 6, 14, 1, 9, 262, 564, 77,noise
2025-03-19 21:55:42.582,162, 906, 469, -13, 3, 3, 11, -2, 8, 258, 561, 65,noise
2025-03-19 21:55:42.590,159, 905, 475, -14, 2, -1, 15, -1, 8, 256, 558, 72,noise
2025-03-19 21:55:42.602,140, 900, 470, -12, 2, -2, 13, 0, 7, 250, 554, 63,noise
2025-03-19 21:55:42.611,121, 900, 476, -9, 2, -1, 13, 1, 4, 243, 550, 52,noise
2025-03-19 21:55:42.619,110, 895, 459, -8, 3, 1, 12, -2, 5, 220, 541, 34,noise
2025-03-19 21:55:42.627,107, 891, 471, -8, 5, 2, 15, -1, 6, 215, 542, 26,noise
2025-03-19 21:55:42.635,102, 886, 472, -9, 7, 4, 15, -1, 6, 225, 546, 41,noise
2025-03-19 21:55:42.644,91, 891, 484, -10, 8, 5, 13, -2, 4, 235, 555, 48,noise
2025-03-19 21:55:42.652,81, 891, 504, -9, 9, 8, 11, 0, 8, 242, 560, 69,noise
2025-03-19 21:55:42.660,65, 878, 514, -5, 9, 10, 12, 0, 7, 226, 558, 67,noise
2025-03-19 21:55:42.672,61, 862, 529, 2, 9, 13, 15, 1, 8, 195, 558, 69,noise
2025-03-19 21:55:42.680,67, 871, 541, 8, 8, 15, 15, 1, 8, 192, 556, 68,noise
2025-03-19 21:55:42.689,99, 882, 533, 9, 6, 18, 14, -2, 8, 196, 555, 52,noise
2025-03-19 21:55:42.697,117, 874, 526, 13, 4, 18, 12, -4, 7, 196, 546, 39,noise
2025-03-19 21:55:42.705,153, 863, 508, 18, 3, 15, 14, -3, 6, 205, 549, 25,noise
2025-03-19 21:55:42.713,180, 880, 464, 17, 4, 12, 14, -3, 6, 227, 551, 36,noise
2025-03-19 21:55:42.722,174, 897, 448, 11, 7, 11, 11, -4, 7, 247, 559, 42,noise
2025-03-19 21:55:42.733,184, 883, 464, 7, 9, 12, 11, 1, 4, 252, 560, 58,noise
2025-03-19 21:55:42.742,171, 883, 464, 2, 10, 12, 12, -2, 8, 266, 563, 60,noise
2025-03-19 21:55:42.750,154, 890, 469, 0, 11, 13, 13, 0, 9, 268, 564, 70,noise
2025-03-19 21:55:42.758,151, 881, 480, 0, 10, 13, 12, -2, 9, 270, 562, 73,noise
2025-03-19 21:55:42.767,151, 871, 489, 2, 10, 13, 10, 0, 7, 271, 560, 65,noise
2025-03-19 21:55:42.775,150, 870, 491, 4, 10, 12, 13, -4, 10, 264, 555, 69,noise
2025-03-19 21:55:42.783,140, 879, 483, 9, 10, 13, 13, -3, 9, 263, 552, 34,noise
2025-03-19 21:55:42.795,137, 877, 475, 9, 11, 13, 10, -2, 6, 286, 552, 42,noise
2025-03-19 21:55:42.803,129, 890, 482, 8, 12, 14, 10, -2, 6, 296, 553, 39,noise
2025-03-19 21:55:42.811,137, 882, 482, 9, 12, 15, 9, -1, 7, 312, 555, 50,noise
2025-03-19 21:55:42.820,148, 877, 476, 11, 12, 15, 13, -3, 7, 325, 556, 46,noise
2025-03-19 21:55:42.828,161, 878, 461, 13, 12, 14, 12, -1, 9, 340, 557, 48,noise
2025-03-19 21:55:42.836,168, 885, 440, 10, 12, 13, 13, 3, 11, 348, 555, 51,noise
2025-03-19 21:55:42.848,180, 906, 445, 8, 12, 13, 11, -2, 9, 350, 559, 48,noise
2025-03-19 21:55:42.856,192, 900, 453, 4, 11, 12, 12, -4, 7, 362, 559, 59,noise
2025-03-19 21:55:42.865,194, 891, 455, 0, 10, 12, 11, -3, 9, 359, 560, 60,noise
2025-03-19 21:55:42.873,195, 886, 462, -2, 10, 10, 12, -3, 8, 354, 551, 52,noise
2025-03-19 21:55:42.881,186, 880, 460, -3, 9, 8, 11, -3, 10, 363, 552, 40,noise
2025-03-19 21:55:42.889,167, 871, 469, -1, 8, 6, 11, -3, 10, 365, 554, 53,noise
2025-03-19 21:55:42.898,168, 885, 464, 2, 8, 6, 10, -3, 7, 375, 559, 68,noise
2025-03-19 21:55:42.909,162, 889, 462, 3, 7, 7, 10, 0, 12, 376, 558, 54,noise
2025-03-19 21:55:42.918,161, 896, 451, 2, 6, 8, 12, -1, 10, 382, 555, 60,noise
2025-03-19 21:55:42.926,175, 886, 455, 2, 6, 8, 10, -1, 10, 388, 554, 44,noise
2025-03-19 21:55:42.934,199, 878, 452, 3, 6, 7, 13, 0, 10, 396, 554, 55,noise
2025-03-19 21:55:42.942,208, 886, 436, 2, 5, 5, 10, 1, 7, 403, 556, 41,noise
2025-03-19 21:55:42.951,219, 901, 428, -1, 5, 4, 9, -1, 6, 402, 550, 40,noise
2025-03-19 21:55:42.959,222, 905, 430, -6, 5, 2, 13, -3, 6, 405, 553, 46,noise
2025-03-19 21:55:42.971,215, 906, 428, -10, 4, 0, 13, -3, 6, 409, 551, 49,noise
2025-03-19 21:55:42.979,204, 891, 435, -12, 3, -3, 10, -3, 10, 417, 559, 73,noise
2025-03-19 21:55:42.987,182, 875, 434, -12, 2, -4, 11, 0, 9, 417, 558, 61,noise
2025-03-19 21:55:42.996,182, 874, 447, -10, 3, -5, 10, -3, 9, 417, 556, 65,noise
2025-03-19 21:55:43.004,166, 888, 458, -10, 4, -5, 10, -1, 10, 411, 557, 53,noise
2025-03-19 21:55:43.012,150, 885, 476, -10, 5, -4, 13, -5, 6, 412, 559, 54,noise
2025-03-19 21:55:43.021,151, 886, 472, -10, 6, -3, 14, -2, 9, 415, 559, 40,noise
2025-03-19 21:55:43.032,135, 882, 474, -7, 7, -1, 12, 0, 6, 414, 556, 40,noise
2025-03-19 21:55:43.041,131, 878, 468, -6, 9, 0, 12, -1, 6, 408, 553, 32,noise
2025-03-19 21:55:43.049,142, 878, 451, -6, 10, 2, 12, -1, 6, 416, 560, 41,noise
2025-03-19 21:55:43.057,146, 884, 465, -7, 10, 3, 10, -2, 7, 427, 567, 63,noise
2025-03-19 21:55:43.065,154, 875, 481, -4, 9, 3, 13, 0, 7, 426, 566, 66,noise
2025-03-19 21:55:43.074,173, 884, 476, -1, 8, 0, 11, -3, 9, 421, 563, 78,noise
2025-03-19 21:55:43.082,192, 892, 466, -2, 6, -1, 9, -3, 10, 418, 562, 61,noise
2025-03-19 21:55:43.090,197, 911, 461, -4, 5, -3, 11, 0, 10, 416, 562, 62,noise
2025-03-19 21:55:43.102,185, 899, 455, -8, 4, -4, 10, -2, 7, 413, 555, 47,noise
2025-03-19 21:55:43.110,185, 886, 458, -11, 4, -5, 11, -3, 6, 406, 554, 49,noise
2025-03-19 21:55:43.119,147, 884, 455, -12, 5, -6, 11, -1, 5, 404, 543, 32,noise
2025-03-19 21:55:43.127,161, 867, 474, -10, 4, -6, 11, -1, 8, 405, 541, 30,noise
2025-03-19 21:55:43.135,157, 887, 497, -9, 4, -4, 11, -1, 8, 422, 544, 48,noise
2025-03-19 21:55:43.144,151, 884, 496, -10, 4, -3, 10, -1, 7, 430, 545, 66,noise
2025-03-19 21:55:43.152,154, 880, 496, -10, 4, -2, 11, 0, 9, 431, 526, 77,noise
2025-03-19 21:55:43.163,162, 884, 492, -14, 4, -3, 11, -1, 8, 431, 523, 66,noise
2025-03-19 21:55:43.172,159, 871, 494, -15, 5, -3, 14, -1, 10, 430, 526, 70,noise
2025-03-19 21:55:43.180,147, 853, 515, -11, 3, -3, 11, -3, 8, 426, 538, 65,noise
2025-03-19 21:55:43.188,143, 838, 510, -7, 0, -5, 12, 2, 7, 424, 546, 55,noise
2025-03-19 21:55:43.197,155, 866, 493, -6, 0, -6, 10, 0, 6, 410, 542, 48,noise
2025-03-19 21:55:43.205,160, 891, 503, -8, 0, -5, 10, -6, 10, 409, 539, 25,noise
2025-03-19 21:55:43.213,168, 883, 520, -10, 1, -5, 10, -6, 10, 416, 544, 36,noise
2025-03-19 21:55:43.225,162, 883, 521, -10, 2, -5, 11, 0, 7, 428, 552, 43,noise
2025-03-19 21:55:43.233,148, 884, 530, -10, 2, -5, 12, -3, 8, 433, 554, 59,noise
2025-03-19 21:55:43.242,137, 858, 526, -10, 2, -4, 11, -2, 11, 436, 558, 69,noise
2025-03-19 21:55:43.250,126, 832, 543, -7, 1, -4, 11, 0, 7, 437, 558, 74,noise
2025-03-19 21:55:43.258,125, 865, 520, -4, 1, -2, 13, 1, 8, 436, 556, 74,noise
2025-03-19 21:55:43.266,133, 875, 537, -3, 1, 0, 14, -1, 6, 433, 552, 65,noise
2025-03-19 21:55:43.275,132, 879, 522, -1, 1, 0, 10, -3, 9, 423, 545, 65,noise
2025-03-19 21:55:43.286,145, 866, 500, -2, 2, 1, 15, -1, 5, 412, 535, 35,noise
2025-03-19 21:55:43.295,146, 875, 500, -4, 2, 1, 12, -6, 7, 417, 536, 35,noise
2025-03-19 21:55:43.303,147, 866, 506, -3, 2, 1, 12, -6, 7, 427, 540, 31,noise
2025-03-19 21:55:43.311,158, 869, 495, -3, 2, 1, 13, -2, 4, 433, 546, 53,noise
2025-03-19 21:55:43.319,151, 874, 486, -4, 2, 1, 11, -1, 7, 441, 550, 58,noise
2025-03-19 21:55:43.328,145, 875, 479, -4, 2, 1, 13, 0, 9, 446, 553, 72,noise
2025-03-19 21:55:43.336,143, 872, 491, -4, 2, 1, 13, 0, 10, 445, 553, 76,noise
2025-03-19 21:55:43.344,157, 876, 493, -3, 2, 0, 11, -2, 7, 449, 553, 62,noise
2025-03-19 21:55:43.356,155, 882, 493, -4, 2, 0, 11, 0, 4, 446, 550, 63,noise
2025-03-19 21:55:43.364,156, 880, 493, -6, 0, 1, 13, 0, 4, 432, 542, 32,noise
2025-03-19 21:55:43.372,152, 871, 499, -7, 0, 1, 10, -1, 7, 429, 538, 32,noise
2025-03-19 21:55:43.381,151, 861, 505, -6, -1, 0, 10, -1, 7, 436, 535, 33,noise
2025-03-19 21:55:43.389,149, 860, 509, -5, -1, 0, 11, 0, 6, 445, 526, 49,noise
2025-03-19 21:55:43.397,153, 862, 515, -5, -2, 0, 12, 0, 8, 450, 524, 57,noise
2025-03-19 21:55:43.406,156, 870, 509, -4, -1, 0, 10, -4, 9, 454, 530, 67,noise
2025-03-19 21:55:43.414,144, 869, 507, -7, 0, 0, 13, 0, 5, 451, 529, 79,noise
2025-03-19 21:55:43.426,145, 866, 517, -7, 0, 1, 10, 0, 6, 448, 525, 63,noise
2025-03-19 21:55:43.434,141, 853, 521, -6, 0, 1, 11, -2, 4, 445, 522, 61,noise
2025-03-19 21:55:43.442,126, 863, 523, -4, 1, 1, 11, -2, 7, 434, 512, 30,noise
2025-03-19 21:55:43.450,136, 867, 523, -3, 0, 3, 11, 2, 2, 432, 505, 34,noise
2025-03-19 21:55:43.459,146, 870, 518, -4, 0, 3, 11, 2, 2, 439, 502, 34,noise
2025-03-19 21:55:43.467,162, 842, 515, -3, 1, 4, 11, -3, 4, 452, 505, 46,noise
2025-03-19 21:55:43.475,148, 847, 496, 1, 1, 3, 13, 0, 6, 455, 505, 62,noise
2025-03-19 21:55:43.483,161, 885, 501, 3, 0, 4, 13, -2, 5, 462, 505, 66,noise
2025-03-19 21:55:43.495,166, 907, 505, 1, 0, 2, 14, -4, 7, 463, 495, 79,noise
2025-03-19 21:55:43.503,194, 896, 504, -5, 0, 1, 11, 0, 7, 459, 478, 64,noise
2025-03-19 21:55:43.512,186, 844, 498, -9, 1, -1, 12, -3, 8, 450, 480, 59,noise
2025-03-19 21:55:43.520,132, 820, 494, -7, 0, -2, 11, -2, 6, 434, 473, 30,noise
2025-03-19 21:55:43.528,127, 820, 510, -3, -2, 0, 9, 1, 5, 434, 474, 32,noise
2025-03-19 21:55:43.536,119, 848, 518, 1, -3, 3, 9, 1, 5, 446, 484, 36,noise
2025-03-19 21:55:43.545,158, 890, 532, 0, -2, 5, 10, 0, 7, 461, 492, 43,noise
2025-03-19 21:55:43.553,167, 893, 530, -3, -2, 5, 11, -1, 6, 457, 497, 62,noise
2025-03-19 21:55:43.565,173, 853, 525, -4, -2, 3, 10, 0, 9, 458, 505, 66,noise
2025-03-19 21:55:43.573,171, 826, 508, -3, -1, 1, 12, -1, 9, 453, 508, 77,noise
2025-03-19 21:55:43.581,150, 835, 500, 0, -1, 1, 13, -3, 4, 449, 506, 69,noise
2025-03-19 21:55:43.590,136, 870, 510, 2, -1, 3, 11, -1, 6, 447, 505, 57,noise
2025-03-19 21:55:43.598,158, 887, 521, 0, -1, 4, 11, -2, 6, 435, 490, 35,noise
2025-03-19 21:55:43.606,179, 890, 522, -2, -1, 4, 9, -1, 7, 424, 479, 32,noise
2025-03-19 21:55:43.614,193, 890, 511, -3, -1, 1, 9, -1, 7, 437, 470, 40,noise
2025-03-19 21:55:43.623,191, 869, 498, -5, -1, -1, 12, 0, 6, 446, 469, 42,noise
2025-03-19 21:55:43.635,175, 854, 482, -6, -1, -3, 13, -2, 5, 451, 469, 61,noise
2025-03-19 21:55:43.643,154, 861, 486, -6, -1, -2, 11, 0, 8, 460, 464, 64,noise
2025-03-19 21:55:43.651,152, 866, 497, -7, -1, 0, 12, -2, 5, 456, 461, 74,noise
2025-03-19 21:55:43.659,154, 875, 509, -7, -1, 0, 12, -2, 9, 452, 456, 70,noise
2025-03-19 21:55:43.668,172, 881, 519, -7, -1, -1, 11, -1, 4, 458, 452, 54,noise
2025-03-19 21:55:43.676,193, 874, 507, -10, -1, -3, 13, 0, 6, 448, 438, 37,noise
2025-03-19 21:55:43.684,183, 855, 500, -13, -2, -6, 12, 2, 6, 447, 442, 36,noise
2025-03-19 21:55:43.696,156, 838, 503, -12, -3, -7, 12, 2, 6, 452, 454, 45,noise
2025-03-19 21:55:43.704,140, 833, 505, -10, -5, -6, 10, -1, 4, 464, 472, 40,noise
2025-03-19 21:55:43.712,134, 850, 528, -9, -8, -5, 13, -4, 4, 464, 477, 55,noise
2025-03-19 21:55:43.721,146, 875, 539, -9, -9, -3, 11, -5, 6, 471, 483, 49,noise
2025-03-19 21:55:43.729,158, 875, 542, -12, -10, -3, 12, 2, 7, 479, 491, 58,noise
2025-03-19 21:55:43.737,162, 835, 558, -13, -10, -3, 10, -2, 6, 478, 495, 74,noise
2025-03-19 21:55:43.746,161, 831, 522, -11, -9, -3, 12, -2, 4, 475, 497, 68,noise
2025-03-19 21:55:43.757,154, 845, 515, -11, -9, -2, 10, -2, 6, 463, 495, 57,noise
2025-03-19 21:55:43.766,141, 874, 511, -13, -10, -1, 12, 1, 4, 436, 482, 39,noise
2025-03-19 21:55:43.774,176, 875, 520, -11, -10, -1, 12, 1, 4, 427, 476, 49,noise
2025-03-19 21:55:43.782,188, 876, 513, -9, -10, -3, 10, -3, 7, 434, 466, 40,noise
2025-03-19 21:55:43.791,179, 873, 508, -11, -9, -4, 10, 2, 7, 434, 467, 60,noise
2025-03-19 21:55:43.799,173, 876, 501, -15, -9, -5, 13, 0, 4, 435, 453, 47,noise
2025-03-19 21:55:43.807,160, 848, 509, -14, -8, -4, 14, 4, 9, 437, 449, 45,noise
2025-03-19 21:55:43.819,145, 845, 514, -14, -9, -3, 11, -2, 6, 437, 441, 53,noise
2025-03-19 21:55:43.827,152, 854, 525, -15, -9, -1, 11, -2, 4, 440, 407, 45,noise
2025-03-19 21:55:43.836,168, 851, 538, -15, -9, -1, 14, 0, 7, 445, 384, 54,noise
2025-03-19 21:55:43.844,176, 843, 533, -16, -8, -2, 10, 1, 2, 437, 365, 39,noise
2025-03-19 21:55:43.852,184, 847, 523, -18, -7, -3, 10, -1, 6, 436, 351, 52,noise
2025-03-19 21:55:43.860,181, 846, 508, -22, -6, -4, 10, -1, 6, 438, 357, 43,noise
2025-03-19 21:55:43.872,166, 849, 504, -29, -5, -5, 13, 1, 2, 443, 371, 70,noise
2025-03-19 21:55:43.880,160, 839, 528, -34, -6, -4, 11, 4, 3, 447, 374, 65,noise
2025-03-19 21:55:43.889,160, 835, 546, -33, -7, -4, 14, 1, 2, 446, 379, 57,noise
2025-03-19 21:55:43.897,164, 835, 556, -32, -9, -3, 11, 1, 4, 445, 380, 62,noise
2025-03-19 21:55:43.905,180, 836, 562, -27, -10, -1, 10, 1, 3, 452, 386, 43,noise
2025-03-19 21:55:43.913,190, 835, 552, -26, -8, -2, 11, 0, 3, 454, 387, 46,noise
2025-03-19 21:55:43.922,211, 840, 549, -26, -7, -3, 10, 0, 2, 445, 387, 45,noise
2025-03-19 21:55:43.933,234, 821, 547, -27, -3, -7, 13, -1, 3, 440, 384, 32,noise
2025-03-19 21:55:43.942,212, 820, 536, -33, 2, -12, 10, 0, 1, 458, 417, 34,noise
2025-03-19 21:55:43.950,184, 830, 548, -39, 7, -16, 10, 0, 1, 466, 433, 49,noise
2025-03-19 21:55:43.958,164, 835, 557, -42, 10, -16, 11, 2, 3, 483, 451, 73,noise
2025-03-19 21:55:43.967,138, 830, 582, -40, 11, -14, 15, -2, 1, 482, 461, 72,noise
2025-03-19 21:55:43.975,125, 828, 594, -38, 12, -10, 9, 3, 3, 468, 467, 72,noise
2025-03-19 21:55:43.987,120, 800, 607, -35, 11, -8, 8, 0, 5, 462, 473, 69,noise
2025-03-19 21:55:43.995,113, 795, 619, -27, 8, -6, 12, 2, 3, 467, 474, 66,noise
2025-03-19 21:55:44.008,121, 799, 600, -24, 6, -5, 11, 1, 2, 474, 473, 55,noise
2025-03-19 21:55:44.011,128, 799, 578, -25, 5, -5, 12, 3, -1, 474, 481, 52,noise
2025-03-19 21:55:44.020,144, 813, 558, -29, 4, -5, 15, 4, -2, 472, 474, 29,noise
2025-03-19 21:55:44.028,153, 797, 580, -31, 4, -6, 16, 3, 1, 471, 479, 34,noise
2025-03-19 21:55:44.036,172, 790, 594, -31, 4, -7, 16, 3, 1, 484, 492, 36,noise
2025-03-19 21:55:44.044,160, 795, 622, -32, 4, -8, 15, -2, -2, 499, 509, 53,noise
2025-03-19 21:55:44.056,142, 794, 649, -31, 3, -7, 10, 1, -2, 514, 520, 58,noise
2025-03-19 21:55:44.065,142, 784, 671, -27, 2, -5, 15, 3, -2, 516, 530, 71,noise
2025-03-19 21:55:44.073,146, 785, 672, -23, 2, -3, 13, 4, 2, 515, 543, 76,noise
2025-03-19 21:55:44.081,148, 791, 645, -24, 3, -1, 14, 6, 1, 516, 551, 68,noise
2025-03-19 21:55:44.089,142, 799, 646, -27, 6, 1, 10, 4, -1, 518, 555, 69,noise
2025-03-19 21:55:44.098,134, 789, 663, -28, 7, 3, 15, 3, -2, 506, 553, 55,noise
2025-03-19 21:55:44.106,127, 811, 674, -29, 9, 4, 16, 2, -3, 508, 554, 32,noise
2025-03-19 21:55:44.118,134, 813, 697, -30, 9, 5, 16, 2, -3, 507, 554, 40,noise
2025-03-19 21:55:44.126,123, 805, 708, -26, 9, 4, 15, 5, -5, 520, 562, 37,noise
2025-03-19 21:55:44.134,113, 824, 708, -24, 8, 3, 14, 4, 1, 524, 567, 57,noise
2025-03-19 21:55:44.143,101, 842, 714, -22, 6, 3, 12, 2, -1, 532, 568, 45,noise
2025-03-19 21:55:44.151,104, 828, 712, -20, 4, 2, 15, 5, -4, 537, 573, 61,noise
2025-03-19 21:55:44.159,100, 824, 693, -19, 3, 2, 16, 5, -2, 540, 580, 69,noise
2025-03-19 21:55:44.167,101, 830, 701, -16, 3, 2, 13, 2, -2, 542, 580, 74,noise
2025-03-19 21:55:44.179,109, 856, 723, -14, 3, 4, 13, 5, -4, 547, 577, 69,noise
2025-03-19 21:55:44.187,123, 891, 747, -16, 2, 8, 10, 1, 0, 540, 577, 44,noise
2025-03-19 21:55:44.196,129, 884, 776, -16, 2, 11, 10, 5, -2, 545, 575, 47,noise
2025-03-19 21:55:44.204,141, 854, 788, -13, 1, 14, 10, 5, -2, 555, 576, 31,noise
2025-03-19 21:55:44.212,155, 831, 791, -7, 1, 15, 13, 5, -3, 557, 581, 67,noise
2025-03-19 21:55:44.221,173, 812, 786, 1, 1, 15, 13, 4, -5, 556, 578, 45,noise
2025-03-19 21:55:44.229,186, 820, 771, 6, 3, 15, 12, 5, 0, 557, 576, 51,noise
2025-03-19 21:55:44.241,178, 821, 741, 6, 7, 16, 12, 4, 0, 558, 573, 49,noise
2025-03-19 21:55:44.249,189, 804, 738, 6, 10, 18, 12, 4, -2, 558, 573, 56,noise
2025-03-19 21:55:44.257,194, 806, 732, 7, 13, 21, 13, 1, -3, 562, 567, 57,noise
2025-03-19 21:55:44.266,192, 790, 739, 6, 14, 24, 10, 2, -2, 551, 556, 54,noise
2025-03-19 21:55:44.274,194, 778, 740, 8, 13, 26, 11, 4, -3, 536, 541, 52,noise
2025-03-19 21:55:44.282,189, 767, 746, 12, 10, 28, 14, 2, -3, 525, 536, 38,noise
2025-03-19 21:55:44.294,187, 772, 769, 17, 5, 28, 14, 2, -3, 480, 526, 63,noise
2025-03-19 21:55:44.302,202, 755, 753, 23, -2, 27, 7, 4, 0, 477, 521, 62,noise
2025-03-19 21:55:44.310,220, 757, 698, 28, -4, 25, 10, 4, 2, 467, 519, 64,noise
2025-03-19 21:55:44.319,221, 801, 692, 27, -5, 23, 10, 4, 0, 460, 523, 59,noise
2025-03-19 21:55:44.327,218, 840, 675, 21, -5, 23, 8, 5, 3, 459, 522, 47,noise
2025-03-19 21:55:44.335,206, 844, 654, 16, -4, 25, 11, 3, 0, 460, 520, 50,noise
2025-03-19 21:55:44.344,198, 829, 656, 15, -3, 27, 11, 0, 0, 462, 514, 43,noise
2025-03-19 21:55:44.355,193, 817, 655, 20, -1, 28, 12, 1, -2, 456, 515, 51,noise
2025-03-19 21:55:44.364,183, 823, 646, 21, 0, 30, 10, 1, -2, 467, 515, 26,noise
2025-03-19 21:55:44.372,175, 839, 631, 21, 0, 34, 10, 1, -2, 473, 520, 50,noise
2025-03-19 21:55:44.380,171, 828, 628, 23, -1, 36, 11, 3, -6, 484, 519, 56,noise
2025-03-19 21:55:44.389,180, 826, 608, 25, -2, 38, 7, 5, 2, 486, 519, 74,noise
2025-03-19 21:55:44.397,177, 813, 561, 23, -3, 38, 6, 3, 0, 492, 513, 72,noise
2025-03-19 21:55:44.405,191, 819, 542, 23, -4, 38, 9, 3, 2, 495, 508, 65,noise
2025-03-19 21:55:44.417,189, 824, 520, 19, -5, 37, 9, 1, 1, 498, 505, 68,noise
2025-03-19 21:55:44.425,186, 812, 509, 15, -6, 36, 10, 1, 1, 504, 506, 53,noise
2025-03-19 21:55:44.434,186, 801, 521, 12, -6, 35, 8, -1, 4, 510, 507, 54,noise
2025-03-19 21:55:44.455,178, 792, 522, 9, -8, 35, 6, 0, 0, 505, 500, 27,noise
2025-03-19 21:55:44.460,183, 777, 509, 6, -9, 34, 8, 2, -2, 520, 501, 33,noise
2025-03-19 21:55:44.460,187, 769, 510, 5, -9, 33, 8, 2, -2, 527, 505, 35,noise
2025-03-19 21:55:44.467,188, 770, 519, 0, -10, 34, 8, 1, 0, 542, 518, 67,noise
2025-03-19 21:55:44.478,186, 760, 520, -4, -10, 35, 5, 0, 3, 545, 511, 76,noise
2025-03-19 21:55:44.486,189, 733, 529, -8, -11, 34, 5, 0, -1, 536, 503, 69,noise
2025-03-19 21:55:44.495,172, 704, 549, -9, -14, 33, 5, 0, 5, 539, 493, 79,noise
2025-03-19 21:55:44.503,204, 695, 558, -9, -16, 32, 8, 1, 3, 544, 489, 61,noise
2025-03-19 21:55:44.511,201, 670, 537, -8, -17, 29, 4, 2, 1, 543, 480, 60,noise
2025-03-19 21:55:44.520,200, 677, 563, -10, -19, 26, 5, -4, 3, 534, 475, 47,noise
2025-03-19 21:55:44.528,211, 656, 541, -6, -20, 23, 4, -3, 1, 538, 469, 31,noise
2025-03-19 21:55:44.540,205, 648, 532, -5, -19, 21, 4, -3, 1, 543, 467, 31,noise
2025-03-19 21:55:44.548,193, 656, 545, -5, -18, 20, 3, 0, 3, 556, 471, 37,noise
2025-03-19 21:55:44.556,185, 666, 553, -5, -18, 22, 5, 0, 0, 559, 481, 54,noise
2025-03-19 21:55:44.565,189, 659, 554, -6, -19, 23, 1, 1, 0, 571, 488, 56,noise
2025-03-19 21:55:44.573,205, 645, 547, -5, -21, 23, 4, 0, 1, 569, 500, 74,noise
2025-03-19 21:55:44.582,214, 651, 545, -4, -22, 22, 4, 1, 1, 573, 502, 72,noise
2025-03-19 21:55:44.589,222, 646, 542, -5, -23, 21, 3, 0, 2, 572, 508, 72,noise
2025-03-19 21:55:44.601,227, 651, 539, -7, -24, 21, 4, 0, 3, 569, 505, 68,noise
2025-03-19 21:55:44.609,233, 644, 523, -9, -24, 21, 4, 0, -1, 556, 498, 42,noise
2025-03-19 21:55:44.618,237, 640, 517, -14, -23, 21, 2, -2, 4, 551, 501, 36,noise
2025-03-19 21:55:44.626,252, 652, 526, -22, -23, 21, 2, -2, 4, 544, 504, 33,noise
2025-03-19 21:55:44.634,262, 652, 531, -30, -24, 22, 2, 1, -1, 544, 513, 50,noise
2025-03-19 21:55:44.642,272, 650, 528, -37, -24, 22, -1, 1, 4, 535, 512, 46,noise
2025-03-19 21:55:44.651,283, 638, 533, -43, -24, 23, 2, 1, 3, 526, 513, 50,noise
2025-03-19 21:55:44.663,282, 637, 556, -46, -25, 25, 1, 1, 2, 510, 519, 48,noise
2025-03-19 21:55:44.671,276, 625, 584, -50, -28, 27, 1, 1, 1, 484, 514, 55,noise
2025-03-19 21:55:44.679,289, 597, 586, -55, -31, 28, 1, 1, 0, 448, 531, 58,noise
