Timestamp,Acc_X,Acc_Y,Acc_Z,Gyro_X,Gyro_Y,Gyro_Z,Mag_X,Mag_Y,Mag_Z,Force1,Force2,Force3,Letter
2025-03-19 18:31:31.398,257, 787, 619, -1, 0, -1, 1, -4, -4, 86, 459, 64,noise
2025-03-19 18:31:31.409,257, 780, 610, -2, 1, -1, -1, -1, -4, 96, 471, 82,noise
2025-03-19 18:31:31.415,255, 773, 601, -3, 1, -3, -1, -1, -4, 129, 499, 100,noise
2025-03-19 18:31:31.425,254, 771, 607, -3, 0, -4, -1, -4, -5, 120, 505, 118,noise
2025-03-19 18:31:31.433,254, 766, 597, -4, 0, -5, 1, -2, -3, 115, 511, 98,noise
2025-03-19 18:31:31.442,251, 765, 586, -5, 0, -7, 1, -4, -7, 100, 512, 75,noise
2025-03-19 18:31:31.453,239, 771, 590, -5, 1, -8, -1, 2, -1, 101, 515, 74,noise
2025-03-19 18:31:31.461,235, 780, 606, -6, 0, -8, 1, 0, -2, 109, 513, 94,noise
2025-03-19 18:31:31.469,240, 791, 614, -8, 0, -9, 1, -4, -1, 110, 515, 87,noise
2025-03-19 18:31:31.478,228, 784, 605, -9, -1, -7, 0, -2, -4, 100, 515, 73,noise
2025-03-19 18:31:31.484,221, 775, 610, -9, -1, -7, 0, -2, -4, 101, 517, 76,noise
2025-03-19 18:31:31.496,213, 780, 611, -7, -2, -7, -1, -4, -3, 130, 531, 103,noise
2025-03-19 18:31:31.503,213, 785, 609, -6, -3, -7, -2, -2, -6, 123, 540, 133,noise
2025-03-19 18:31:31.511,210, 796, 608, -7, -3, -6, -2, 0, -1, 123, 536, 110,noise
2025-03-19 18:31:31.522,212, 795, 602, -7, -4, -5, -2, 1, -3, 104, 531, 96,noise
2025-03-19 18:31:31.531,207, 795, 609, -7, -4, -3, -3, -1, -4, 97, 533, 84,noise
2025-03-19 18:31:31.538,199, 795, 614, -7, -4, -2, 1, 1, -1, 113, 539, 76,noise
2025-03-19 18:31:31.548,202, 796, 626, -7, -4, 0, 2, -1, -2, 102, 533, 86,noise
2025-03-19 18:31:31.552,206, 796, 644, -6, -5, 1, -1, 0, -3, 95, 535, 80,noise
2025-03-19 18:31:31.565,207, 794, 651, -4, -5, 2, -1, 0, -3, 98, 537, 85,noise
2025-03-19 18:31:31.571,218, 789, 644, -3, -6, 2, 0, 2, -5, 132, 555, 116,noise
2025-03-19 18:31:31.579,215, 790, 633, -2, -7, 3, -1, 0, -2, 115, 553, 128,noise
2025-03-19 18:31:31.593,220, 788, 625, -1, -7, 3, -3, 3, -3, 104, 554, 111,noise
2025-03-19 18:31:31.601,225, 790, 620, 0, -6, 4, -2, 1, -3, 102, 553, 85,noise
2025-03-19 18:31:31.610,227, 790, 621, 0, -6, 4, -3, 1, -3, 110, 552, 86,noise
2025-03-19 18:31:31.617,244, 782, 625, -1, -6, 4, -1, 0, -2, 119, 561, 110,noise
2025-03-19 18:31:31.626,249, 782, 626, 0, -6, 4, -3, -1, -2, 119, 556, 93,noise
2025-03-19 18:31:31.634,257, 769, 616, -2, -6, 3, -2, -4, -1, 110, 559, 99,noise
2025-03-19 18:31:31.643,262, 769, 604, -3, -6, 1, -2, -4, -1, 108, 562, 91,noise
2025-03-19 18:31:31.651,263, 754, 597, -3, -6, -1, -2, -2, -2, 143, 578, 99,noise
2025-03-19 18:31:31.662,262, 753, 587, -4, -6, -2, 0, 0, -1, 128, 578, 129,noise
2025-03-19 18:31:31.670,262, 753, 587, -5, -5, -4, -2, -2, -3, 111, 571, 95,noise
2025-03-19 18:31:31.679,258, 747, 587, -7, -5, -6, -1, 0, -1, 95, 568, 87,noise
2025-03-19 18:31:31.687,258, 746, 590, -8, -4, -7, -4, -3, -4, 103, 570, 73,noise
2025-03-19 18:31:31.695,255, 756, 604, -9, -4, -7, 1, -1, -2, 113, 576, 90,noise
2025-03-19 18:31:31.703,246, 760, 608, -9, -4, -8, -1, -3, -1, 127, 575, 75,noise
2025-03-19 18:31:31.713,233, 762, 607, -9, -4, -8, 1, -4, -2, 94, 569, 75,noise
2025-03-19 18:31:31.720,229, 769, 613, -9, -4, -6, 1, -4, -2, 90, 568, 74,noise
2025-03-19 18:31:31.732,224, 782, 615, -8, -5, -4, -4, 0, -2, 124, 584, 115,noise
2025-03-19 18:31:31.737,220, 781, 625, -6, -6, -3, 0, 0, 0, 111, 581, 118,noise
2025-03-19 18:31:31.748,227, 785, 625, -5, -7, 0, -2, -3, -2, 89, 580, 99,noise
2025-03-19 18:31:31.753,237, 789, 622, -3, -8, 2, -2, 0, 0, 89, 568, 89,noise
2025-03-19 18:31:31.763,255, 781, 613, -5, -7, 2, -2, -1, -3, 98, 573, 76,noise
2025-03-19 18:31:31.772,250, 786, 607, -6, -6, 1, -1, -1, 0, 110, 576, 93,noise
2025-03-19 18:31:31.780,243, 784, 619, -6, -5, 1, -2, -2, -2, 99, 573, 99,noise
2025-03-19 18:31:31.789,240, 792, 629, -7, -5, 2, 0, -1, -3, 91, 564, 69,noise
2025-03-19 18:31:31.798,230, 800, 630, -8, -4, 3, 0, -1, -3, 83, 564, 85,noise
2025-03-19 18:31:31.810,232, 795, 638, -8, -5, 4, -1, -2, -2, 116, 570, 113,noise
2025-03-19 18:31:31.818,230, 791, 639, -8, -5, 6, -1, -2, 1, 94, 565, 121,noise
2025-03-19 18:31:31.826,236, 779, 643, -6, -6, 7, -3, -2, -3, 87, 561, 80,noise
2025-03-19 18:31:31.834,249, 779, 648, -4, -7, 8, 0, -2, 0, 96, 556, 81,noise
2025-03-19 18:31:31.845,254, 770, 652, -2, -9, 8, -2, -2, -2, 116, 555, 87,noise
2025-03-19 18:31:31.851,253, 757, 643, 7, -9, 7, 1, -2, -1, 134, 561, 115,noise
2025-03-19 18:31:31.860,278, 739, 618, 8, -9, 6, -4, 0, -2, 85, 536, 73,noise
2025-03-19 18:31:31.867,289, 762, 599, 7, -8, 4, 1, -4, 0, 80, 529, 63,noise
2025-03-19 18:31:31.878,294, 768, 554, 3, -6, 3, 1, -4, 0, 83, 531, 81,noise
2025-03-19 18:31:31.888,283, 766, 544, 0, -3, 4, -2, -1, 1, 91, 532, 104,noise
2025-03-19 18:31:31.896,273, 770, 563, 0, -1, 5, -1, -2, 1, 94, 531, 79,noise
2025-03-19 18:31:31.902,274, 793, 586, -3, -2, 8, -1, -2, 0, 104, 535, 70,noise
2025-03-19 18:31:31.913,268, 795, 598, -4, -5, 10, -2, -2, -2, 116, 529, 85,noise
2025-03-19 18:31:31.921,274, 789, 599, -2, -7, 11, -4, 1, 1, 140, 543, 132,noise
2025-03-19 18:31:31.929,290, 768, 599, -1, -9, 11, 0, -4, 1, 131, 523, 128,noise
2025-03-19 18:31:31.938,300, 788, 593, 1, -11, 11, -2, -2, -1, 87, 489, 69,noise
2025-03-19 18:31:31.946,298, 800, 584, 1, -12, 10, -3, 0, 1, 80, 472, 71,noise
2025-03-19 18:31:31.954,297, 817, 574, 1, -12, 11, -3, 0, 1, 82, 476, 77,noise
2025-03-19 18:31:31.965,293, 830, 563, -3, -11, 12, -4, -1, 0, 104, 484, 90,noise
2025-03-19 18:31:31.970,288, 835, 565, -7, -9, 13, -1, -1, 1, 96, 467, 83,noise
2025-03-19 18:31:31.982,287, 826, 566, -9, -6, 15, -3, -2, -1, 98, 451, 84,noise
2025-03-19 18:31:31.988,270, 822, 574, -10, -4, 16, -3, -2, 0, 103, 439, 83,noise
2025-03-19 18:31:31.999,269, 811, 601, -9, -3, 19, -4, -1, 0, 111, 430, 86,noise
2025-03-19 18:31:32.007,255, 825, 621, -7, -2, 23, -5, -2, -2, 136, 411, 108,noise
2025-03-19 18:31:32.019,248, 822, 642, -4, -2, 28, -3, -1, -2, 87, 380, 84,noise
2025-03-19 18:31:32.026,241, 816, 648, 0, -2, 34, -4, -1, -3, 83, 371, 65,noise
2025-03-19 18:31:32.035,227, 816, 652, 6, -2, 41, -4, -1, -3, 81, 347, 86,noise
2025-03-19 18:31:32.044,226, 814, 648, 11, 0, 46, -4, -1, -2, 109, 375, 116,noise
2025-03-19 18:31:32.051,230, 809, 639, 15, 1, 53, -5, -1, 0, 100, 379, 107,noise
2025-03-19 18:31:32.060,238, 813, 625, 15, 4, 60, -4, -1, -2, 95, 359, 84,noise
2025-03-19 18:31:32.068,245, 810, 612, 13, 7, 67, -4, -1, -1, 89, 341, 88,noise
2025-03-19 18:31:32.079,239, 789, 604, 14, 8, 76, -4, -2, -2, 130, 309, 92,noise
2025-03-19 18:31:32.087,225, 797, 707, 27, 2, 93, -1, -4, -2, 123, 261, 83,noise
2025-03-19 18:31:32.096,263, 747, 719, 41, -2, 98, -3, -2, -1, 134, 225, 83,noise
2025-03-19 18:31:32.101,338, 659, 637, 40, -2, 94, -6, -3, -2, 142, 145, 70,noise
2025-03-19 18:31:32.112,378, 643, 608, 49, -1, 91, -6, -3, -2, 144, 155, 82,noise
2025-03-19 18:31:32.122,370, 700, 573, 55, 0, 91, -1, -4, -5, 179, 167, 84,noise
2025-03-19 18:31:32.131,374, 734, 524, 49, 2, 91, -3, -1, -3, 216, 197, 118,noise
2025-03-19 18:31:32.142,432, 724, 529, 40, 6, 92, -2, -3, -2, 229, 190, 118,noise
2025-03-19 18:31:32.150,477, 712, 528, 30, 11, 93, -5, -2, -2, 260, 187, 105,noise
2025-03-19 18:31:32.159,485, 683, 521, 25, 16, 93, -4, -3, -1, 307, 186, 97,noise
2025-03-19 18:31:32.167,478, 615, 535, 23, 21, 89, -3, -3, -1, 333, 91, 110,noise
2025-03-19 18:31:32.176,477, 578, 561, 23, 23, 81, -2, -3, -1, 350, 88, 82,noise
2025-03-19 18:31:32.184,473, 540, 561, 29, 25, 71, -4, -4, -2, 347, 71, 67,noise
2025-03-19 18:31:32.192,482, 519, 532, 38, 28, 60, -5, -5, -1, 345, 59, 36,noise
2025-03-19 18:31:32.202,469, 550, 520, 41, 31, 51, -5, -5, -1, 361, 125, 48,noise
2025-03-19 18:31:32.212,459, 594, 531, 38, 31, 44, -5, -2, -2, 436, 194, 65,noise
2025-03-19 18:31:32.220,448, 610, 529, 31, 29, 39, -5, -5, -1, 473, 265, 113,noise
2025-03-19 18:31:32.228,451, 602, 524, 23, 27, 36, -3, -2, -4, 480, 303, 141,noise
2025-03-19 18:31:32.234,465, 560, 515, 22, 26, 31, -4, -6, -2, 483, 306, 145,noise
2025-03-19 18:31:32.245,470, 525, 522, 26, 25, 25, -2, 0, -2, 488, 284, 132,noise
2025-03-19 18:31:32.251,475, 516, 506, 31, 25, 19, -1, -4, 0, 491, 289, 126,noise
2025-03-19 18:31:32.265,496, 535, 485, 34, 27, 12, -3, -2, -4, 491, 317, 115,noise
2025-03-19 18:31:32.296,505, 573, 494, 34, 29, 9, 0, -3, -4, 494, 336, 117,noise
2025-03-19 18:31:32.298,514, 594, 508, 28, 30, 7, -2, -2, -6, 474, 339, 74,noise
2025-03-19 18:31:32.299,503, 606, 505, 18, 31, 5, 0, -6, -1, 506, 382, 48,noise
2025-03-19 18:31:32.300,478, 611, 468, 8, 30, 3, 0, -6, -1, 519, 418, 44,noise
2025-03-19 18:31:32.301,447, 625, 464, 2, 29, 3, 0, -2, -5, 554, 473, 94,noise
2025-03-19 18:31:32.318,453, 651, 468, 0, 26, 1, 3, -5, -3, 564, 509, 109,noise
2025-03-19 18:31:32.326,475, 699, 547, 4, 20, -2, 3, 1, -6, 573, 529, 113,noise
2025-03-19 18:31:32.334,565, 779, 666, 14, 12, -9, 0, -3, -6, 604, 534, 152,noise
2025-03-19 18:31:32.344,728, 947, 877, 25, 2, -21, 2, 1, -6, 614, 560, 204,noise
2025-03-19 18:31:32.351,862, 1084, 951, 21, -3, -29, 2, -2, -6, 608, 550, 208,noise
2025-03-19 18:31:32.360,853, 1098, 752, 6, -1, -31, 3, 2, -8, 599, 550, 176,noise
2025-03-19 18:31:32.371,725, 1014, 493, -15, 13, -28, 1, -4, -5, 595, 517, 106,noise
2025-03-19 18:31:32.379,541, 928, 372, -41, 32, -21, 1, 0, -8, 615, 521, 91,noise
2025-03-19 18:31:32.388,354, 840, 421, -65, 41, -14, 1, 0, -8, 624, 541, 57,noise
2025-03-19 18:31:32.396,246, 753, 450, -74, 40, -5, 5, -1, -7, 641, 579, 113,noise
2025-03-19 18:31:32.401,156, 604, 550, -64, 29, -1, -1, 2, -10, 651, 595, 90,noise
2025-03-19 18:31:32.413,127, 527, 569, -41, 16, -2, 2, 3, -6, 643, 583, 100,noise
2025-03-19 18:31:32.423,147, 533, 628, -18, 2, -5, -2, 1, -9, 642, 591, 70,noise
2025-03-19 18:31:32.432,180, 635, 660, 2, -9, -6, 2, -1, -10, 632, 589, 76,noise
2025-03-19 18:31:32.438,246, 754, 672, 18, -16, -4, 1, 2, -10, 623, 591, 74,noise
2025-03-19 18:31:32.449,348, 849, 658, 23, -18, -1, 2, 0, -7, 567, 589, 92,noise
2025-03-19 18:31:32.452,418, 866, 653, 24, -17, 1, -3, 1, -9, 512, 579, 57,noise
2025-03-19 18:31:32.465,431, 826, 624, 21, -14, 3, 1, 2, -7, 407, 573, 75,noise
2025-03-19 18:31:32.474,436, 748, 580, 21, -12, 2, 1, 2, -7, 284, 582, 102,noise
2025-03-19 18:31:32.485,421, 693, 573, 24, -8, 0, -3, 1, -8, 122, 587, 116,noise
2025-03-19 18:31:32.494,395, 700, 572, 18, -8, 0, 1, -2, -6, 113, 585, 124,noise
2025-03-19 18:31:32.502,395, 692, 541, 27, -8, 0, 1, -1, -8, 94, 572, 91,noise
2025-03-19 18:31:32.512,411, 695, 529, 29, -9, -1, 0, -2, -8, 83, 558, 101,noise
2025-03-19 18:31:32.519,420, 722, 538, 32, -10, 0, 1, 0, -5, 79, 556, 76,noise
2025-03-19 18:31:32.528,439, 742, 521, 28, -11, 1, 0, -1, -4, 72, 553, 66,noise
2025-03-19 18:31:32.535,451, 776, 536, 23, -11, 2, 3, -2, -6, 41, 537, 38,noise
2025-03-19 18:31:32.545,469, 776, 535, 19, -11, 3, 0, -3, -5, 69, 543, 41,noise
2025-03-19 18:31:32.553,491, 761, 521, 13, -8, 3, 0, -3, -5, 88, 543, 74,noise
2025-03-19 18:31:32.564,506, 750, 513, 6, -5, 5, 1, -2, -6, 125, 569, 123,noise
2025-03-19 18:31:32.569,758, 874, 563, -43, -4, 16, -3, -2, -4, 118, 570, 113,noise
2025-03-19 18:31:32.579,404, 802, 509, -33, 0, 13, -1, -1, -6, 113, 555, 110,noise
2025-03-19 18:31:32.588,434, 657, 471, -20, 2, 11, 1, -1, -7, 99, 559, 106,noise
2025-03-19 18:31:32.597,489, 643, 552, -14, 3, 5, 0, 0, -7, 93, 556, 94,noise
2025-03-19 18:31:32.602,467, 645, 594, -7, 1, -2, 2, 0, -4, 76, 544, 69,noise
2025-03-19 18:31:32.616,449, 671, 573, -5, -2, -7, -1, -1, -7, 39, 532, 62,noise
2025-03-19 18:31:32.625,450, 715, 541, -3, -2, -8, -1, -1, -6, 39, 533, 47,noise
2025-03-19 18:31:32.633,438, 746, 539, -3, -3, -8, -1, -1, -6, 91, 556, 73,noise
2025-03-19 18:31:32.642,420, 761, 540, -6, -3, -5, -1, -2, -3, 126, 573, 113,noise
2025-03-19 18:31:32.650,423, 758, 546, -9, -4, -3, -1, 0, -3, 125, 573, 125,noise
2025-03-19 18:31:32.659,432, 745, 561, -11, -4, -3, 0, 1, -4, 118, 568, 113,noise
2025-03-19 18:31:32.666,446, 731, 564, -12, -4, -2, 1, 0, -7, 97, 564, 103,noise
2025-03-19 18:31:32.675,449, 701, 549, -10, -4, -4, 1, 2, -5, 88, 560, 88,noise
2025-03-19 18:31:32.685,431, 702, 553, -6, -4, -5, 1, 0, -5, 73, 553, 67,noise
2025-03-19 18:31:32.694,420, 712, 554, -2, -4, -5, 0, -1, -5, 37, 535, 54,noise
2025-03-19 18:31:32.703,435, 722, 559, 0, -3, -4, 1, 0, -5, 43, 535, 39,noise
2025-03-19 18:31:32.713,446, 736, 555, 0, -3, -3, 1, 0, -5, 89, 556, 81,noise
2025-03-19 18:31:32.720,445, 743, 552, -1, -2, -2, 1, 1, -6, 126, 572, 132,noise
2025-03-19 18:31:32.728,445, 740, 544, -3, -3, -2, 2, 2, -5, 121, 574, 109,noise
2025-03-19 18:31:32.735,445, 721, 531, -4, -2, -1, -1, -2, -5, 112, 567, 117,noise
2025-03-19 18:31:32.745,478, 723, 546, -7, -1, 1, 0, 2, -4, 102, 559, 82,noise
2025-03-19 18:31:32.752,440, 744, 548, -8, -1, 3, 2, 2, -3, 90, 554, 72,noise
2025-03-19 18:31:32.764,450, 746, 541, -7, 0, 3, 2, 0, -3, 78, 551, 59,noise
2025-03-19 18:31:32.768,474, 738, 535, -9, 0, 2, 0, -1, -4, 40, 541, 41,noise
2025-03-19 18:31:32.780,461, 724, 536, -11, 1, 1, -2, 0, -5, 78, 554, 71,noise
2025-03-19 18:31:32.787,462, 706, 537, -9, 2, -1, -2, 0, -5, 97, 558, 87,noise
2025-03-19 18:31:32.797,456, 708, 537, -9, 3, -3, -1, -1, -4, 121, 574, 126,noise
2025-03-19 18:31:32.802,450, 715, 553, -9, 3, -4, -1, 4, -6, 112, 569, 110,noise
2025-03-19 18:31:32.814,445, 723, 569, -8, 2, -4, 0, 1, -4, 107, 562, 99,noise
2025-03-19 18:31:32.820,441, 724, 573, -6, 2, -4, 0, 2, -7, 88, 552, 68,noise
2025-03-19 18:31:32.829,443, 717, 575, -7, 1, -4, 2, 0, -4, 86, 558, 73,noise
2025-03-19 18:31:32.842,431, 716, 569, -8, 1, -4, 1, 2, -7, 74, 559, 65,noise
2025-03-19 18:31:32.850,436, 711, 564, -7, 1, -4, 2, -2, -3, 83, 553, 55,noise
2025-03-19 18:31:32.858,429, 710, 565, -5, 2, -4, 2, -2, -3, 82, 555, 72,noise
2025-03-19 18:31:32.866,430, 715, 570, -5, 1, -4, -2, 1, -5, 122, 580, 122,noise
2025-03-19 18:31:32.875,430, 722, 578, -6, 1, -3, 2, 0, -6, 111, 575, 117,noise
2025-03-19 18:31:32.884,431, 716, 577, -5, 0, -3, 1, 0, -6, 107, 566, 85,noise
2025-03-19 18:31:32.892,436, 706, 572, -3, 0, -3, -1, 1, -5, 124, 560, 73,noise
2025-03-19 18:31:32.900,431, 713, 578, -3, 1, -3, -1, 2, -7, 142, 557, 76,noise
2025-03-19 18:31:32.911,436, 717, 573, -4, 1, -3, -1, 0, -5, 158, 568, 76,noise
2025-03-19 18:31:32.920,436, 717, 572, -4, 1, -3, 1, 1, -8, 155, 563, 71,noise
2025-03-19 18:31:32.929,436, 708, 573, -2, 1, -3, 1, -1, -8, 144, 561, 78,noise
2025-03-19 18:31:32.937,435, 706, 577, -2, 0, -4, 1, -1, -8, 155, 564, 64,noise
2025-03-19 18:31:32.946,433, 707, 582, -2, 0, -3, 0, 0, -5, 178, 577, 132,noise
2025-03-19 18:31:32.953,435, 710, 579, -1, 0, -3, 1, 1, -4, 169, 570, 110,noise
2025-03-19 18:31:32.962,435, 719, 577, 0, -1, -3, -2, 4, -7, 169, 570, 89,noise
2025-03-19 18:31:32.970,436, 720, 576, 0, -1, -3, -2, 1, -6, 173, 563, 82,noise
2025-03-19 18:31:32.981,440, 717, 582, 0, 0, -2, 0, 3, -6, 181, 561, 67,noise
2025-03-19 18:31:32.989,438, 713, 581, 1, 0, -3, 1, 0, -5, 192, 554, 85,noise
2025-03-19 18:31:32.998,436, 713, 580, 2, 1, -3, 3, -2, -5, 172, 538, 76,noise
2025-03-19 18:31:33.006,439, 718, 579, 2, 1, -4, 0, 0, -5, 173, 528, 63,noise
2025-03-19 18:31:33.016,435, 720, 573, 2, 2, -4, 0, 0, -5, 182, 527, 80,noise
2025-03-19 18:31:33.022,435, 727, 571, 2, 1, -4, 0, -2, -5, 213, 536, 117,noise
2025-03-19 18:31:33.029,432, 725, 571, 2, 1, -4, 1, 1, -7, 208, 528, 104,noise
2025-03-19 18:31:33.039,434, 726, 575, 2, 0, -5, 0, 2, -4, 191, 520, 76,noise
2025-03-19 18:31:33.048,443, 729, 559, 2, 0, -5, -2, 0, -4, 193, 515, 80,noise
2025-03-19 18:31:33.059,446, 734, 571, 3, -1, -5, 0, -1, -4, 205, 520, 80,noise
2025-03-19 18:31:33.067,453, 730, 557, 2, 0, -6, 0, 0, -7, 215, 524, 92,noise
2025-03-19 18:31:33.075,451, 735, 547, 3, 2, -6, 0, 0, -5, 183, 520, 92,noise
2025-03-19 18:31:33.084,441, 741, 543, 2, 2, -6, 0, -1, -6, 186, 524, 70,noise
2025-03-19 18:31:33.093,450, 736, 540, 0, 3, -6, 0, -1, -6, 195, 531, 76,noise
2025-03-19 18:31:33.101,454, 740, 565, -2, 3, -7, 0, -2, -5, 207, 547, 112,noise
2025-03-19 18:31:33.109,465, 738, 575, -2, 2, -8, 0, 0, -8, 179, 549, 102,noise
2025-03-19 18:31:33.117,459, 729, 568, -1, 2, -9, 0, 1, -6, 129, 545, 83,noise
2025-03-19 18:31:33.129,456, 724, 555, 2, 3, -11, -2, 1, -6, 102, 550, 78,noise
2025-03-19 18:31:33.135,469, 719, 544, 2, 6, -14, 1, 0, -6, 121, 561, 96,noise
2025-03-19 18:31:33.145,480, 735, 533, 1, 8, -17, 0, -1, -4, 138, 573, 101,noise
2025-03-19 18:31:33.152,484, 738, 531, -4, 10, -21, 2, -2, -6, 100, 571, 94,noise
2025-03-19 18:31:33.163,479, 744, 546, -8, 11, -25, 2, -1, -6, 94, 577, 80,noise
2025-03-19 18:31:33.169,474, 739, 540, -11, 11, -29, 2, -1, -6, 101, 585, 91,noise
2025-03-19 18:31:33.182,478, 735, 526, -12, 13, -32, 2, 1, -7, 138, 621, 132,noise
2025-03-19 18:31:33.188,477, 742, 499, -13, 15, -36, 2, 2, -8, 135, 622, 123,noise
2025-03-19 18:31:33.198,485, 751, 484, -15, 20, -39, 0, 1, -9, 128, 629, 120,noise
2025-03-19 18:31:33.205,494, 763, 477, -18, 26, -42, -1, 2, -9, 121, 627, 112,noise
2025-03-19 18:31:33.215,496, 774, 470, -19, 33, -46, -1, 0, -6, 117, 628, 109,noise
2025-03-19 18:31:33.221,533, 771, 461, -10, 39, -49, 0, 0, -8, 81, 612, 95,noise
2025-03-19 18:31:33.230,495, 762, 492, -24, 43, -59, 2, -1, -8, 74, 610, 75,noise
2025-03-19 18:31:33.244,484, 742, 507, -30, 50, -65, 0, -2, -11, 32, 597, 64,noise
2025-03-19 18:31:33.251,480, 761, 511, -40, 55, -65, 5, 0, -11, 49, 602, 47,noise
2025-03-19 18:31:33.261,429, 733, 573, -28, 59, -61, 5, 0, -11, 45, 605, 40,noise
2025-03-19 18:31:33.269,297, 795, 543, -37, 61, -62, 0, -1, -13, 113, 616, 74,noise
2025-03-19 18:31:33.278,348, 764, 548, -42, 65, -63, 2, -2, -13, 131, 629, 99,noise
2025-03-19 18:31:33.285,250, 718, 656, -44, 63, -60, 1, 0, -17, 130, 637, 125,noise
2025-03-19 18:31:33.296,167, 732, 754, -31, 53, -54, 1, 2, -17, 130, 632, 133,noise
2025-03-19 18:31:33.303,181, 747, 825, -21, 45, -51, 2, 1, -18, 130, 632, 130,noise
2025-03-19 18:31:33.314,183, 710, 831, -19, 32, -46, 1, 1, -19, 122, 613, 121,noise
2025-03-19 18:31:33.318,148, 725, 734, -2, 25, -38, 2, 1, -23, 121, 608, 112,noise
2025-03-19 18:31:33.329,104, 775, 734, 2, 21, -29, 1, -1, -20, 115, 596, 102,noise
2025-03-19 18:31:33.337,83, 776, 729, 2, 17, -19, 0, 0, -21, 66, 570, 60,noise
2025-03-19 18:31:33.349,76, 762, 748, -1, 12, -12, 3, -4, -19, 52, 563, 54,noise
2025-03-19 18:31:33.358,67, 735, 774, 5, 7, -4, 3, -4, -19, 55, 561, 48,noise
2025-03-19 18:31:33.366,53, 697, 768, 13, 1, 2, 2, 1, -21, 83, 539, 62,noise
2025-03-19 18:31:33.373,44, 704, 777, 25, -5, 10, 2, -4, -20, 86, 524, 78,noise
2025-03-19 18:31:33.383,57, 752, 791, 24, -11, 22, 1, -1, -23, 97, 499, 78,noise
2025-03-19 18:31:33.392,44, 779, 742, 29, -15, 35, 1, -5, -20, 129, 506, 92,noise
2025-03-19 18:31:33.399,69, 788, 701, 22, -17, 47, -1, -2, -22, 129, 503, 105,noise
2025-03-19 18:31:33.412,80, 793, 693, 18, -19, 58, 2, -5, -18, 118, 495, 121,noise
2025-03-19 18:31:33.420,99, 749, 685, 15, -23, 66, 2, -3, -20, 88, 485, 90,noise
2025-03-19 18:31:33.429,123, 713, 669, 13, -27, 69, 2, -5, -19, 75, 470, 53,noise
2025-03-19 18:31:33.436,142, 693, 664, 13, -31, 70, 2, -5, -19, 164, 463, 50,noise
2025-03-19 18:31:33.445,168, 682, 648, 19, -36, 70, 1, -3, -16, 224, 466, 73,noise
2025-03-19 18:31:33.451,198, 685, 632, 23, -40, 70, -1, -6, -17, 241, 469, 110,noise
2025-03-19 18:31:33.464,222, 677, 604, 26, -42, 70, 1, -3, -15, 226, 459, 89,noise
2025-03-19 18:31:33.468,251, 679, 596, 33, -42, 70, -3, -4, -11, 204, 461, 95,noise
2025-03-19 18:31:33.481,268, 707, 626, 37, -44, 71, -2, -2, -12, 151, 443, 87,noise
2025-03-19 18:31:33.489,303, 709, 609, 41, -46, 70, -1, -3, -11, 77, 437, 80,noise
2025-03-19 18:31:33.498,319, 680, 591, 48, -45, 68, -1, -4, -12, 83, 416, 70,noise
2025-03-19 18:31:33.505,334, 697, 541, 49, -41, 65, -1, -6, -9, 58, 413, 61,noise
2025-03-19 18:31:33.515,362, 754, 495, 44, -37, 63, -3, -6, -6, 39, 399, 56,noise
2025-03-19 18:31:33.527,381, 802, 488, 42, -32, 63, -3, -7, -6, 70, 427, 43,noise
2025-03-19 18:31:33.533,412, 799, 528, 36, -31, 61, -3, -7, -6, 100, 452, 76,noise
2025-03-19 18:31:33.544,413, 768, 545, 29, -30, 59, -2, -5, -4, 127, 469, 127,noise
2025-03-19 18:31:33.552,427, 751, 520, 27, -30, 55, -2, -4, -5, 128, 475, 114,noise
2025-03-19 18:31:33.561,458, 772, 498, 26, -28, 50, -5, -5, -4, 122, 468, 122,noise
2025-03-19 18:31:33.567,470, 785, 458, 23, -26, 46, -2, -4, -1, 117, 473, 108,noise
2025-03-19 18:31:33.580,490, 800, 441, 19, -23, 43, -2, -3, -3, 115, 468, 123,noise
2025-03-19 18:31:33.588,508, 802, 428, 15, -20, 40, -1, -5, -2, 99, 465, 94,noise
2025-03-19 18:31:33.596,516, 795, 438, 11, -17, 38, -4, -3, -2, 88, 454, 88,noise
2025-03-19 18:31:33.602,512, 804, 472, 9, -15, 38, 0, -4, -1, 24, 442, 46,noise
2025-03-19 18:31:33.613,535, 882, 481, -25, -16, 45, -3, -2, -3, 40, 443, 32,noise
2025-03-19 18:31:33.618,506, 908, 494, -33, -18, 46, -3, -2, -3, 50, 445, 30,noise
2025-03-19 18:31:33.630,508, 787, 455, -36, -19, 46, -3, -2, 1, 96, 422, 72,noise
2025-03-19 18:31:33.638,495, 699, 478, -31, -20, 42, -2, -3, 0, 101, 430, 96,noise
2025-03-19 18:31:33.649,501, 653, 525, -14, -23, 34, -2, -4, 2, 127, 441, 90,noise
2025-03-19 18:31:33.657,535, 665, 521, 1, -26, 26, -2, -3, 4, 129, 454, 122,noise
2025-03-19 18:31:33.665,572, 699, 529, 7, -28, 22, -2, -4, 2, 140, 472, 147,noise
2025-03-19 18:31:33.674,590, 744, 525, -1, -33, 19, -3, -3, 1, 129, 473, 135,noise
2025-03-19 18:31:33.682,602, 776, 487, -30, -38, 17, -3, -3, 3, 128, 487, 116,noise
2025-03-19 18:31:33.694,583, 754, 485, -59, -38, 29, -3, -6, 4, 83, 517, 70,noise
2025-03-19 18:31:33.701,506, 768, 410, -58, -33, 33, -4, -4, 3, 69, 568, 57,noise
2025-03-19 18:31:33.710,565, 719, 374, -55, -23, 40, -4, -4, 3, 275, 601, 61,noise
2025-03-19 18:31:33.717,532, 653, 472, -52, -14, 44, -4, -4, 2, 332, 639, 116,noise
2025-03-19 18:31:33.728,538, 600, 519, -41, -8, 43, -4, -1, 5, 336, 640, 97,noise
2025-03-19 18:31:33.734,567, 554, 536, -34, -7, 38, -2, 0, 6, 317, 653, 105,noise
2025-03-19 18:31:34.177,460, 647, 615, 109, -44, 13, -5, -2, 5, 36, 669, 510,A
2025-03-19 18:31:34.188,540, 687, 565, 101, -48, 13, -5, -4, 5, 47, 657, 456,A
2025-03-19 18:31:34.198,574, 723, 550, 92, -50, 15, -5, -4, 5, 76, 643, 410,A
2025-03-19 18:31:34.210,599, 752, 512, 84, -53, 21, -3, -2, 5, 347, 643, 442,A
2025-03-19 18:31:34.219,710, 922, 571, 51, -50, 42, -3, -5, 7, 620, 628, 498,A
2025-03-19 18:31:34.227,703, 978, 436, 8, -48, 60, -5, -3, 10, 735, 601, 573,A
2025-03-19 18:31:34.235,641, 853, 329, -18, -38, 67, -3, -2, 11, 794, 568, 605,A
2025-03-19 18:31:34.244,650, 729, 312, -29, -28, 68, -5, -1, 10, 825, 516, 621,A
2025-03-19 18:31:34.251,670, 671, 354, -38, -21, 66, -4, -1, 13, 845, 546, 628,A
2025-03-19 18:31:34.264,676, 660, 375, -57, -17, 66, -5, -1, 13, 856, 574, 636,A
2025-03-19 18:31:34.271,683, 611, 385, -66, -15, 65, -5, -1, 10, 866, 605, 627,A
2025-03-19 18:31:34.279,685, 583, 383, -67, -14, 63, -6, -1, 12, 866, 624, 629,A
2025-03-19 18:31:34.287,721, 557, 394, -69, -15, 60, -5, -2, 13, 877, 650, 638,A
2025-03-19 18:31:34.295,765, 534, 417, -68, -16, 56, -5, -2, 13, 886, 672, 669,A
2025-03-19 18:31:34.308,761, 545, 398, -74, -18, 51, -8, 3, 13, 902, 713, 703,A
2025-03-19 18:31:34.317,786, 528, 397, -78, -18, 44, -5, 2, 11, 910, 749, 719,A
2025-03-19 18:31:34.325,772, 520, 378, -84, -17, 35, -5, 5, 12, 915, 784, 724,A
2025-03-19 18:31:34.333,750, 495, 374, -85, -13, 21, -6, 2, 13, 924, 805, 741,A
2025-03-19 18:31:34.342,787, 485, 382, -74, -5, 11, -7, 5, 12, 929, 827, 742,A
2025-03-19 18:31:34.350,732, 499, 407, -62, 3, 7, -5, 4, 14, 933, 848, 742,A
2025-03-19 18:31:34.361,695, 546, 432, -54, 10, 7, -6, 4, 12, 936, 865, 745,A
2025-03-19 18:31:34.368,651, 605, 479, -53, 13, 11, -5, 2, 14, 937, 881, 742,A
2025-03-19 18:31:34.379,615, 647, 547, -54, 11, 16, -5, 3, 13, 942, 885, 735,A
2025-03-19 18:31:34.385,605, 583, 579, -51, 4, 16, -6, 4, 10, 947, 897, 729,A
2025-03-19 18:31:34.396,598, 506, 609, -45, -3, 12, -6, 4, 10, 951, 910, 727,A
2025-03-19 18:31:34.403,635, 473, 607, -39, -9, 8, -7, 3, 14, 954, 921, 732,A
2025-03-19 18:31:34.415,649, 525, 586, -32, -13, 8, -9, 4, 15, 958, 926, 721,A
2025-03-19 18:31:34.418,658, 561, 552, -30, -15, 9, -7, 7, 13, 960, 934, 710,A
2025-03-19 18:31:34.431,691, 541, 492, -29, -13, 10, -6, 4, 15, 962, 938, 701,A
2025-03-19 18:31:34.438,712, 514, 480, -27, -10, 9, -8, 5, 12, 964, 943, 691,A
2025-03-19 18:31:34.447,706, 510, 484, -22, -8, 8, -7, 5, 15, 967, 947, 685,A
2025-03-19 18:31:34.455,718, 523, 479, -19, -7, 7, -7, 5, 12, 966, 950, 662,A
2025-03-19 18:31:34.468,718, 518, 465, -15, -6, 5, -6, 6, 14, 967, 950, 637,A
2025-03-19 18:31:34.476,723, 502, 450, -13, -7, 0, -8, 8, 11, 968, 953, 644,A
2025-03-19 18:31:34.483,725, 510, 436, -11, -6, -4, -8, 8, 11, 967, 954, 650,A
2025-03-19 18:31:34.493,754, 500, 439, -11, -3, -8, -7, 4, 13, 970, 957, 663,A
2025-03-19 18:31:34.500,729, 511, 458, -11, -2, -10, -7, 4, 14, 969, 959, 672,A
2025-03-19 18:31:34.511,735, 522, 488, -12, -3, -9, -7, 6, 14, 972, 961, 681,A
2025-03-19 18:31:34.518,723, 564, 532, -16, -4, -5, -4, 9, 13, 971, 961, 678,A
2025-03-19 18:31:34.529,690, 535, 542, -17, -6, -4, -6, 6, 15, 972, 963, 690,A
2025-03-19 18:31:34.538,669, 488, 578, -15, -9, -4, -7, 4, 12, 974, 967, 695,A
2025-03-19 18:31:34.546,642, 468, 615, -15, -16, -5, -6, 7, 13, 974, 968, 709,A
2025-03-19 18:31:34.552,576, 480, 667, -12, -22, -4, -9, 6, 11, 976, 971, 713,A
2025-03-19 18:31:34.562,584, 481, 693, -8, -33, 0, -7, 5, 12, 974, 970, 710,A
2025-03-19 18:31:34.568,591, 503, 723, -5, -44, 4, -7, 5, 12, 976, 972, 718,A
2025-03-19 18:31:34.578,571, 502, 753, -1, -53, 11, -7, 5, 13, 978, 973, 722,A
2025-03-19 18:31:34.591,601, 461, 659, 3, -56, 13, -7, 5, 16, 978, 975, 712,A
2025-03-19 18:31:34.599,845, 347, 307, -2, -34, -1, -7, 4, 15, 979, 975, 708,A
2025-03-19 18:31:34.608,833, 353, 747, -3, -24, -13, -4, 5, 12, 980, 977, 696,A
2025-03-19 18:31:34.616,684, 570, 480, -10, -31, -10, -7, 6, 15, 982, 977, 670,A
2025-03-19 18:31:34.627,711, 408, 488, -5, -26, -13, -7, 6, 17, 983, 979, 624,A
2025-03-19 18:31:34.636,694, 422, 568, 3, -24, -15, -9, 6, 16, 984, 980, 571,A
2025-03-19 18:31:34.644,719, 428, 623, 9, -24, -16, -10, 7, 16, 985, 978, 552,A
2025-03-19 18:31:34.652,699, 267, 658, 27, -26, -27, -9, 7, 15, 986, 978, 536,A
2025-03-19 18:31:34.661,585, 476, 351, 48, -10, -22, -8, 7, 14, 988, 979, 542,A
2025-03-19 18:31:34.668,776, 719, 437, 51, 6, -4, -8, 7, 14, 990, 979, 502,A
2025-03-19 18:31:34.681,259, 995, 152, 34, 26, 20, -10, 7, 13, 987, 976, 448,A
2025-03-19 18:31:34.689,271, 611, 361, 23, 15, 12, -8, 5, 17, 987, 976, 423,A
2025-03-19 18:31:34.698,660, 814, -18, 36, 39, 35, -7, 8, 15, 987, 974, 337,A
2025-03-19 18:31:34.703,416, 813, 28, 21, 41, 39, -7, 10, 18, 985, 974, 282,A
2025-03-19 18:31:34.715,762, 825, 4, -7, 53, 38, -8, 8, 18, 984, 971, 251,A
2025-03-19 18:31:34.721,828, 926, 41, -16, 59, 53, -11, 8, 15, 984, 970, 121,A
2025-03-19 18:31:34.730,878, 591, 231, -26, 46, 41, -8, 6, 16, 983, 969, 184,A
2025-03-19 18:31:34.742,745, 532, 239, -36, 46, 31, -8, 7, 17, 983, 968, 262,A
2025-03-19 18:31:34.750,801, 512, 603, -46, 35, 13, -7, 9, 14, 980, 969, 321,A
2025-03-19 18:31:34.760,660, 168, 777, -44, 4, -23, -8, 8, 15, 980, 968, 359,A
2025-03-19 18:31:34.768,686, -77, 677, -28, -14, -58, -8, 8, 15, 979, 969, 420,A
2025-03-19 18:31:34.776,656, -23, 838, -5, -26, -70, -7, 5, 15, 978, 967, 517,A
2025-03-19 18:31:34.787,548, 473, 781, -4, -35, -62, -4, 6, 11, 978, 970, 551,A
2025-03-19 18:31:34.796,569, 761, 741, -21, -42, -30, -8, 4, 14, 979, 971, 567,A
2025-03-19 18:31:34.801,500, 721, 774, -28, -45, -1, -8, 7, 14, 981, 974, 559,A
2025-03-19 18:31:34.811,796, 201, 566, -30, -19, -3, -8, 5, 14, 981, 976, 518,A
2025-03-19 18:31:34.821,661, 335, 989, -24, -25, -8, -7, 7, 13, 982, 978, 480,A
2025-03-19 18:31:34.828,710, 265, 740, -8, -35, -15, -7, 4, 17, 984, 979, 452,A
2025-03-19 18:31:34.838,762, 330, 585, 11, -35, -22, -8, 8, 14, 986, 978, 453,A
2025-03-19 18:31:34.849,837, 737, 436, 12, -30, -7, -8, 4, 17, 985, 979, 427,A
2025-03-19 18:31:34.857,877, 852, 208, 14, -12, 14, -10, 7, 15, 987, 978, 379,A
2025-03-19 18:31:34.865,724, 786, 117, 8, 4, 25, -10, 7, 15, 987, 979, 345,A
2025-03-19 18:31:34.873,701, 563, 193, 12, 21, 34, -7, 5, 16, 985, 977, 352,A
2025-03-19 18:31:34.882,752, 714, 398, 12, 30, 45, -10, 8, 16, 985, 977, 350,A
2025-03-19 18:31:34.894,812, 488, 418, 6, 39, 48, -8, 4, 14, 984, 977, 343,A
2025-03-19 18:31:34.900,789, 390, 510, 8, 41, 50, -10, 8, 14, 982, 976, 303,A
2025-03-19 18:31:34.911,653, 539, 475, 2, 40, 41, -6, 7, 17, 983, 976, 301,A
2025-03-19 18:31:34.918,633, 489, 549, 4, 41, 34, -6, 7, 15, 982, 973, 270,A
2025-03-19 18:31:34.927,549, 304, 562, 13, 38, 16, -9, 6, 16, 981, 967, 277,A
2025-03-19 18:31:34.933,628, 190, 532, 19, 37, -15, -7, 8, 15, 979, 965, 287,A
2025-03-19 18:31:34.947,616, 289, 627, 22, 29, -38, -5, 6, 14, 976, 959, 335,A
2025-03-19 18:31:34.950,519, 508, 724, 26, 9, -42, -6, 10, 13, 978, 959, 421,A
2025-03-19 18:31:34.964,450, 589, 705, 13, -14, -36, -6, 10, 13, 978, 955, 458,A
2025-03-19 18:31:34.969,458, 568, 642, 7, -34, -24, -8, 6, 13, 976, 955, 497,A
2025-03-19 18:31:34.979,1386, 475, 260, 8, -28, -17, -5, 5, 16, 977, 956, 485,A
2025-03-19 18:31:34.992,1161, 531, 636, -21, -14, -7, -9, 7, 15, 979, 965, 474,A
2025-03-19 18:31:35.000,834, 710, 438, -56, -17, 6, -10, 6, 13, 981, 972, 400,A
2025-03-19 18:31:35.009,850, 104, 437, -20, -10, -4, -8, 10, 18, 982, 977, 399,A
2025-03-19 18:31:35.018,943, 332, 693, -2, -20, -6, -8, 11, 17, 984, 980, 419,A
2025-03-19 18:31:35.026,846, 743, 588, -18, -27, 7, -7, 7, 20, 984, 979, 387,A
2025-03-19 18:31:35.033,807, 636, 194, -10, -14, 16, -6, 8, 11, 986, 983, 409,A
2025-03-19 18:31:35.045,838, 780, 347, -24, -6, 29, -6, 8, 16, 989, 983, 386,A
2025-03-19 18:31:35.053,794, 497, 301, -8, 0, 30, -9, 7, 15, 987, 983, 403,A
2025-03-19 18:31:35.063,704, 441, 389, -2, 8, 26, -9, 7, 15, 984, 980, 392,A
2025-03-19 18:31:35.069,751, 556, 440, 9, 18, 24, -9, 8, 17, 983, 979, 427,A
2025-03-19 18:31:35.078,774, 422, 531, 16, 20, 22, -6, 9, 14, 981, 978, 452,A
2025-03-19 18:31:35.087,700, 410, 564, 11, 24, 17, -8, 3, 14, 980, 979, 489,A
2025-03-19 18:31:35.099,858, 125, 398, 13, 35, -13, -9, 7, 12, 979, 976, 481,A
2025-03-19 18:31:35.106,876, 213, 347, 13, 54, -42, -8, 7, 15, 976, 973, 490,A
2025-03-19 18:31:35.115,754, 481, 396, 13, 65, -51, -8, 8, 13, 975, 972, 494,A
2025-03-19 18:31:35.122,637, 538, 418, 12, 66, -51, -8, 7, 13, 973, 969, 505,A
2025-03-19 18:31:35.132,571, 491, 419, 14, 65, -53, -8, 6, 11, 969, 964, 516,A
2025-03-19 18:31:35.141,550, 516, 564, 13, 61, -55, -4, 5, 11, 966, 959, 513,A
2025-03-19 18:31:35.152,520, 526, 719, 6, 52, -56, -9, 8, 11, 964, 951, 543,A
2025-03-19 18:31:35.161,495, 507, 783, -1, 38, -57, -9, 8, 11, 960, 942, 570,A
2025-03-19 18:31:35.170,555, 483, 792, 5, 23, -47, -7, 6, 10, 959, 935, 596,A
2025-03-19 18:31:35.178,535, 590, 846, 7, 6, -32, -7, 5, 12, 958, 930, 613,A
2025-03-19 18:31:35.186,560, 614, 783, 11, -5, -16, -7, 6, 9, 957, 929, 609,A
2025-03-19 18:31:35.194,567, 600, 749, 15, -12, -6, -6, 5, 9, 955, 929, 618,A
2025-03-19 18:31:35.205,572, 570, 694, 15, -18, 1, -4, 4, 10, 958, 930, 626,A
2025-03-19 18:31:35.214,570, 561, 668, 17, -24, 5, -5, 7, 13, 956, 930, 617,A
2025-03-19 18:31:35.497,690, 552, 470, -7, -4, -3, -7, 5, 13, 955, 941, 635,B
2025-03-19 18:31:35.508,675, 548, 484, -8, -5, -4, -8, 7, 13, 954, 943, 652,B
2025-03-19 18:31:35.521,657, 540, 503, -9, -7, -6, -8, 7, 13, 958, 948, 666,B
2025-03-19 18:31:35.530,651, 529, 521, -9, -11, -7, -5, 3, 15, 954, 945, 670,B
2025-03-19 18:31:35.541,665, 520, 528, -6, -14, -6, -8, 4, 13, 955, 946, 690,B
2025-03-19 18:31:35.549,670, 541, 538, -6, -17, -5, -8, 5, 14, 955, 948, 690,B
2025-03-19 18:31:35.557,660, 543, 541, -6, -20, -4, -9, 7, 16, 959, 955, 717,B
2025-03-19 18:31:35.566,670, 539, 558, -7, -24, -2, -7, 5, 16, 962, 956, 726,B
2025-03-19 18:31:35.575,679, 534, 536, -8, -26, 0, -9, 6, 13, 958, 954, 704,B
2025-03-19 18:31:35.582,867, 512, 376, -18, -18, -4, -7, 5, 16, 958, 955, 681,B
2025-03-19 18:31:35.594,815, 498, 450, -13, -7, -3, -7, 5, 13, 961, 956, 659,B
2025-03-19 18:31:35.601,728, 537, 599, -16, -9, 0, -8, 4, 14, 963, 959, 629,B
2025-03-19 18:31:35.611,707, 306, 577, -6, -12, -6, -8, 4, 14, 966, 961, 609,B
2025-03-19 18:31:35.618,728, 321, 630, 4, -15, -11, -8, 5, 13, 968, 962, 616,B
2025-03-19 18:31:35.628,767, 423, 679, 13, -18, -9, -7, 5, 16, 972, 963, 621,B
2025-03-19 18:31:35.634,817, 500, 603, 27, -15, -1, -7, 6, 14, 974, 963, 608,B
2025-03-19 18:31:35.648,840, 740, 400, 39, 0, 17, -8, 5, 18, 975, 966, 576,B
2025-03-19 18:31:35.652,587, 1215, 227, 26, 27, 58, -9, 7, 16, 977, 965, 501,B
2025-03-19 18:31:35.663,730, 325, 428, 11, 32, 47, -8, 4, 16, 979, 964, 478,B
2025-03-19 18:31:35.671,740, 665, 315, 21, 35, 51, -9, 5, 15, 980, 966, 344,B
2025-03-19 18:31:35.679,686, 457, 520, -7, 36, 48, -7, 6, 13, 981, 966, 288,B
2025-03-19 18:31:35.689,651, 515, 377, 1, 33, 33, -7, 5, 15, 979, 966, 250,B
2025-03-19 18:31:35.701,783, 750, 186, 6, 29, 37, -9, 4, 16, 978, 967, 243,B
2025-03-19 18:31:35.710,803, 707, 232, -14, 31, 34, -9, 4, 16, 978, 968, 255,B
2025-03-19 18:31:35.718,707, 498, 401, -15, 22, 21, -8, 7, 15, 978, 965, 328,B
2025-03-19 18:31:35.726,737, 671, 326, -28, 26, 17, -7, 6, 14, 974, 966, 350,B
2025-03-19 18:31:35.734,548, 270, 642, -22, 8, -10, -7, 6, 15, 974, 964, 416,B
2025-03-19 18:31:35.746,603, -64, 671, 4, -23, -51, -7, 6, 15, 973, 966, 519,B
2025-03-19 18:31:35.750,692, 72, 747, 13, -39, -70, -10, 6, 15, 973, 964, 544,B
2025-03-19 18:31:35.763,708, 396, 679, 8, -44, -68, -7, 6, 15, 974, 967, 608,B
2025-03-19 18:31:35.769,833, 661, 435, -10, -36, -46, -9, 6, 15, 972, 968, 656,B
2025-03-19 18:31:35.780,785, 631, 567, -26, -31, -25, -7, 5, 14, 974, 971, 664,B
2025-03-19 18:31:35.788,846, 466, 520, -33, -22, -11, -8, 6, 14, 976, 973, 645,B
2025-03-19 18:31:35.799,651, 372, 640, -31, -23, -12, -8, 5, 16, 978, 975, 611,B
2025-03-19 18:31:35.807,821, 352, 558, -17, -21, -14, -8, 5, 16, 978, 978, 614,B
2025-03-19 18:31:35.816,779, 565, 670, -10, -26, -8, -8, 5, 15, 980, 978, 614,B
2025-03-19 18:31:35.824,753, 552, 461, 2, -21, 1, -9, 6, 17, 980, 978, 607,B
2025-03-19 18:31:35.832,733, 547, 532, 6, -13, 1, -6, 6, 13, 981, 979, 607,B
2025-03-19 18:31:35.841,622, 625, 550, 8, -9, 3, -11, 5, 17, 980, 979, 608,B
2025-03-19 18:31:35.849,579, 801, 529, 5, -6, 10, -8, 4, 15, 983, 979, 594,B
2025-03-19 18:31:35.861,580, 595, 547, 7, -3, 12, -6, 5, 15, 981, 980, 574,B
2025-03-19 18:31:35.867,567, 655, 439, 16, 3, 17, -7, 7, 17, 982, 978, 556,B
2025-03-19 18:31:35.877,653, 600, 690, 18, 4, 21, -9, 4, 16, 983, 978, 508,B
2025-03-19 18:31:35.884,844, 466, 477, 13, 3, 18, -10, 6, 15, 984, 978, 484,B
2025-03-19 18:31:35.895,813, 472, 360, 6, 4, 15, -10, 6, 15, 982, 980, 459,B
2025-03-19 18:31:35.900,808, 440, 254, 9, 8, 14, -11, 9, 13, 983, 977, 408,B
2025-03-19 18:31:35.913,896, 218, 298, 13, 5, 4, -7, 3, 18, 982, 978, 427,B
2025-03-19 18:31:35.921,914, 570, 119, 2, 12, 6, -8, 9, 14, 984, 978, 409,B
2025-03-19 18:31:35.928,911, 589, 227, -12, 20, 12, -8, 6, 16, 983, 977, 372,B
2025-03-19 18:31:35.937,745, 663, 430, -26, 20, 19, -9, 7, 16, 983, 979, 281,B
2025-03-19 18:31:35.948,688, 408, 563, -20, 17, 15, -9, 6, 16, 982, 980, 271,B
2025-03-19 18:31:35.959,535, 477, 694, -11, 14, 11, -10, 7, 15, 985, 980, 208,B
2025-03-19 18:31:35.967,521, 496, 896, 1, 5, 9, -7, 4, 16, 984, 978, 207,B
2025-03-19 18:31:35.976,559, 556, 859, 5, -2, 7, -10, 8, 16, 984, 978, 168,B
2025-03-19 18:31:35.983,530, 589, 631, 18, 0, 4, -7, 7, 16, 985, 978, 92,B
2025-03-19 18:31:35.992,823, 500, 582, 35, -5, -2, -7, 7, 16, 983, 978, 72,B
2025-03-19 18:31:35.999,726, 630, 482, 30, -3, 2, -8, 8, 14, 984, 977, 101,B
2025-03-19 18:31:36.009,490, 566, 22, 14, 9, 3, -7, 4, 16, 983, 975, 103,B
2025-03-19 18:31:36.018,790, 359, 248, 31, 18, -4, -9, 6, 15, 980, 971, 162,B
2025-03-19 18:31:36.027,958, 518, 264, 30, 18, -5, -10, 5, 18, 979, 969, 218,B
2025-03-19 18:31:36.027,951, 606, 176, 14, 25, -1, -9, 6, 16, 978, 966, 289,B
2025-03-19 18:31:36.045,877, 499, 302, 8, 32, -1, -6, 4, 18, 977, 962, 361,B
2025-03-19 18:31:36.051,976, 440, 582, -2, 22, -9, -9, 7, 14, 976, 962, 383,B
2025-03-19 18:31:36.062,1052, 265, 438, -11, 28, -31, -5, 6, 14, 975, 963, 422,B
2025-03-19 18:31:36.067,948, 314, 467, -23, 37, -49, -8, 7, 12, 974, 962, 430,B
2025-03-19 18:31:36.082,753, 560, 466, -30, 39, -48, -8, 7, 12, 972, 963, 420,B
2025-03-19 18:31:36.089,616, 674, 457, -44, 38, -36, -9, 4, 16, 972, 964, 428,B
2025-03-19 18:31:36.099,516, 581, 583, -44, 30, -29, -10, 5, 13, 972, 964, 395,B
2025-03-19 18:31:36.107,496, 492, 766, -36, 16, -26, -8, 4, 14, 971, 964, 386,B
2025-03-19 18:31:36.117,463, 486, 822, -30, 2, -24, -6, 7, 11, 971, 964, 386,B
2025-03-19 18:31:36.127,432, 533, 824, -20, -12, -20, -7, 4, 12, 971, 963, 401,B
2025-03-19 18:31:36.134,425, 586, 747, -5, -21, -13, -9, 7, 12, 969, 963, 440,B
2025-03-19 18:31:36.143,477, 633, 664, 2, -22, -4, -7, 3, 13, 968, 962, 452,B
2025-03-19 18:31:36.426,595, 549, 605, -6, -23, 11, -7, 5, 13, 966, 958, 549,C
2025-03-19 18:31:36.433,625, 523, 592, 0, -26, 14, -9, 5, 15, 966, 960, 535,C
2025-03-19 18:31:36.443,642, 499, 580, 5, -28, 15, -9, 5, 15, 968, 959, 550,C
2025-03-19 18:31:36.450,687, 498, 541, 6, -27, 15, -7, 4, 15, 968, 962, 564,C
2025-03-19 18:31:36.460,746, 491, 508, -10, -21, 7, -10, 6, 15, 969, 962, 543,C
2025-03-19 18:31:36.468,871, 410, 359, -5, -9, -4, -7, 6, 18, 969, 963, 537,C
2025-03-19 18:31:36.480,702, 631, 447, -9, -9, -1, -9, 6, 13, 970, 965, 533,C
2025-03-19 18:31:36.487,712, 558, 365, -17, -4, 0, -8, 4, 15, 971, 966, 489,C
2025-03-19 18:31:36.496,660, 502, 425, -15, 0, -2, -9, 5, 15, 971, 965, 481,C
2025-03-19 18:31:36.501,609, 488, 589, -13, -1, -6, -9, 6, 16, 972, 967, 476,C
2025-03-19 18:31:36.511,657, 442, 642, -5, -4, -9, -10, 6, 15, 971, 966, 437,C
2025-03-19 18:31:36.524,670, 454, 703, -1, -8, -8, -7, 4, 14, 974, 967, 421,C
2025-03-19 18:31:36.532,738, 392, 642, -2, -15, -11, -7, 4, 14, 974, 966, 398,C
2025-03-19 18:31:36.541,732, 162, 600, 31, -16, -20, -9, 7, 15, 975, 961, 410,C
2025-03-19 18:31:36.549,495, 175, 504, 62, -6, -26, -8, 5, 17, 976, 960, 403,C
2025-03-19 18:31:36.557,752, 246, 490, 84, 2, -27, -9, 5, 15, 977, 958, 373,C
2025-03-19 18:31:36.565,789, 423, 534, 87, 5, -21, -9, 5, 19, 976, 958, 373,C
2025-03-19 18:31:36.577,579, 679, 229, 84, 15, -5, -10, 7, 19, 979, 957, 328,C
2025-03-19 18:31:36.583,1107, 643, 452, 61, 15, -3, -8, 5, 19, 978, 958, 290,C
2025-03-19 18:31:36.594,777, 875, 44, 55, 29, 19, -9, 5, 16, 981, 959, 274,C
2025-03-19 18:31:36.600,567, 862, 89, 4, 35, 27, -9, 4, 16, 982, 961, 218,C
2025-03-19 18:31:36.611,768, 653, 199, 13, 39, 35, -10, 5, 17, 982, 964, 181,C
2025-03-19 18:31:36.618,959, 1039, 226, -27, 40, 55, -10, 5, 17, 983, 967, 152,C
2025-03-19 18:31:36.631,652, 797, 232, -50, 41, 55, -7, 4, 17, 983, 971, 64,C
2025-03-19 18:31:36.638,761, 592, 409, -38, 28, 44, -8, 7, 17, 981, 972, 142,C
2025-03-19 18:31:36.647,722, 422, 563, -41, 15, 31, -8, 6, 19, 982, 973, 173,C
2025-03-19 18:31:36.653,704, 562, 535, -31, 13, 27, -7, 6, 14, 980, 974, 200,C
2025-03-19 18:31:36.664,607, 581, 590, -35, 6, 23, -8, 7, 16, 979, 974, 206,C
2025-03-19 18:31:36.669,692, 355, 660, -17, 1, 12, -8, 7, 14, 977, 973, 281,C
2025-03-19 18:31:36.679,652, 279, 719, 0, -6, -5, -9, 5, 14, 974, 971, 310,C
2025-03-19 18:31:36.692,722, 144, 430, 12, -2, -34, -10, 5, 15, 973, 970, 402,C
2025-03-19 18:31:36.700,884, 303, 188, 15, 23, -57, -8, 6, 15, 971, 967, 479,C
2025-03-19 18:31:36.709,907, 650, 185, -8, 49, -58, -9, 6, 15, 970, 968, 480,C
2025-03-19 18:31:36.717,776, 735, 309, -32, 61, -51, -9, 6, 15, 968, 965, 482,C
2025-03-19 18:31:36.726,649, 640, 356, -44, 63, -42, -7, 3, 16, 967, 964, 472,C
2025-03-19 18:31:36.733,568, 513, 547, -42, 60, -37, -8, 5, 10, 965, 963, 455,C
2025-03-19 18:31:36.745,521, 458, 782, -33, 48, -34, -7, 4, 13, 967, 960, 450,C
2025-03-19 18:31:36.750,510, 475, 879, -23, 32, -31, -7, 5, 12, 965, 956, 455,C
2025-03-19 18:31:36.762,491, 498, 905, -17, 16, -25, -8, 6, 13, 963, 952, 444,C
2025-03-19 18:31:36.768,475, 561, 843, -14, 4, -18, -6, 7, 10, 962, 950, 431,C
2025-03-19 18:31:37.061,785, 473, 431, -7, -24, 9, -6, 4, 15, 961, 953, 534,D
2025-03-19 18:31:37.069,968, 224, 511, 4, -8, -6, -6, 4, 15, 963, 953, 536,D
2025-03-19 18:31:37.077,734, 501, 569, 1, -10, -7, -7, 6, 13, 965, 955, 533,D
2025-03-19 18:31:37.088,732, 390, 480, 7, -9, -9, -7, 7, 17, 968, 955, 520,D
2025-03-19 18:31:37.098,769, 314, 498, 28, -6, -12, -8, 7, 16, 969, 956, 518,D
2025-03-19 18:31:37.103,794, 570, 583, 32, -1, 1, -8, 4, 17, 972, 957, 483,D
2025-03-19 18:31:37.114,882, 791, 486, 30, 12, 22, -8, 6, 14, 973, 960, 406,D
2025-03-19 18:31:37.118,786, 392, 535, 35, 20, 31, -7, 4, 16, 974, 959, 371,D
2025-03-19 18:31:37.131,682, 859, 428, 27, 39, 56, -10, 4, 13, 977, 960, 76,D
2025-03-19 18:31:37.142,706, 375, 610, 15, 39, 50, -7, 7, 16, 978, 962, 82,D
2025-03-19 18:31:37.151,508, 637, 391, 20, 40, 46, -9, 8, 14, 977, 962, 72,D
2025-03-19 18:31:37.159,668, 871, 421, 5, 34, 38, -9, 8, 14, 978, 961, 73,D
2025-03-19 18:31:37.167,816, 762, 184, 11, 30, 49, -6, 6, 16, 977, 961, 82,D
2025-03-19 18:31:37.176,947, 455, 365, 5, 19, 20, -7, 7, 15, 979, 962, 102,D
2025-03-19 18:31:37.184,760, 701, 192, 0, 17, 19, -6, 3, 15, 978, 963, 106,D
2025-03-19 18:31:37.196,725, 616, 366, -12, 15, 15, -9, 7, 13, 977, 961, 94,D
2025-03-19 18:31:37.201,704, 703, 328, -23, 18, 16, -6, 4, 14, 974, 962, 104,D
2025-03-19 18:31:37.212,567, 420, 623, -20, 5, -4, -8, 8, 13, 972, 958, 86,D
2025-03-19 18:31:37.221,710, 116, 647, 2, -12, -41, -8, 7, 16, 970, 955, 155,D
2025-03-19 18:31:37.229,541, -77, 673, 35, -36, -71, -8, 7, 15, 970, 958, 295,D
2025-03-19 18:31:37.238,681, 213, 699, 45, -47, -78, -7, 5, 15, 969, 957, 447,D
2025-03-19 18:31:37.248,704, 705, 487, 23, -45, -64, -8, 4, 13, 969, 960, 499,D
2025-03-19 18:31:37.257,844, 845, 387, -5, -38, -41, -8, 4, 13, 971, 966, 512,D
2025-03-19 18:31:37.265,808, 686, 488, -28, -29, -20, -6, 4, 14, 974, 967, 536,D
2025-03-19 18:31:37.275,796, 457, 565, -35, -26, -14, -8, 5, 13, 974, 972, 522,D
2025-03-19 18:31:37.283,859, 350, 736, -37, -34, -13, -6, 5, 15, 978, 973, 515,D
2025-03-19 18:31:37.292,875, 354, 561, -15, -30, -9, -8, 6, 15, 978, 976, 512,D
2025-03-19 18:31:37.302,694, 692, 657, -24, -31, 5, -7, 6, 18, 979, 975, 435,D
2025-03-19 18:31:37.311,692, 427, 495, -31, -23, 9, -10, 4, 15, 981, 976, 414,D
2025-03-19 18:31:37.318,640, 505, 411, -2, -9, 8, -7, 5, 16, 982, 977, 341,D
2025-03-19 18:31:37.327,614, 704, 609, 7, -8, 14, -6, 7, 15, 983, 978, 295,D
2025-03-19 18:31:37.333,567, 679, 489, 18, -4, 20, -8, 6, 16, 983, 977, 233,D
2025-03-19 18:31:37.345,560, 588, 504, 15, 0, 21, -10, 6, 15, 984, 977, 196,D
2025-03-19 18:31:37.350,486, 691, 422, 14, 11, 19, -10, 6, 15, 985, 978, 144,D
2025-03-19 18:31:37.364,580, 795, 252, 14, 21, 32, -11, 5, 16, 982, 975, 105,D
2025-03-19 18:31:37.368,836, 662, 485, 12, 20, 26, -8, 5, 14, 983, 975, 102,D
2025-03-19 18:31:37.379,734, 596, 257, 18, 29, 29, -10, 3, 16, 983, 974, 103,D
2025-03-19 18:31:37.387,647, 518, 315, 20, 29, 20, -11, 5, 16, 983, 972, 97,D
2025-03-19 18:31:37.398,705, 496, 237, 21, 31, 13, -8, 7, 15, 981, 968, 94,D
2025-03-19 18:31:37.409,858, 453, 306, 20, 33, 10, -11, 3, 15, 979, 964, 147,D
2025-03-19 18:31:37.417,914, 455, 333, 7, 32, 3, -7, 5, 17, 977, 957, 251,D
2025-03-19 18:31:37.426,889, 455, 305, 1, 34, -1, -6, 6, 17, 976, 949, 262,D
2025-03-19 18:31:37.434,992, 277, 417, -9, 36, -20, -8, 6, 13, 974, 946, 300,D
2025-03-19 18:31:37.443,1097, 172, 381, -12, 44, -45, -6, 4, 13, 973, 943, 329,D
2025-03-19 18:31:37.454,1020, 391, 372, -28, 53, -58, -6, 4, 13, 972, 943, 338,D
2025-03-19 18:31:37.462,775, 639, 411, -40, 55, -52, -8, 5, 14, 971, 946, 366,D
2025-03-19 18:31:37.470,571, 664, 463, -47, 50, -37, -7, 4, 15, 973, 948, 364,D
2025-03-19 18:31:37.480,510, 588, 618, -45, 40, -27, -6, 8, 12, 971, 947, 345,D
2025-03-19 18:31:37.490,503, 517, 806, -37, 26, -23, -5, 6, 12, 970, 950, 360,D
2025-03-19 18:31:37.497,486, 481, 896, -27, 11, -23, -6, 6, 11, 970, 950, 346,D
2025-03-19 18:31:37.774,673, 467, 589, 4, -33, 11, -8, 5, 13, 967, 953, 566,E
2025-03-19 18:31:37.782,1081, 283, 413, -4, -18, -7, -8, 5, 16, 970, 956, 565,E
2025-03-19 18:31:37.790,778, 557, 620, 4, -15, -6, -9, 6, 15, 971, 959, 540,E
2025-03-19 18:31:37.798,726, 462, 441, -1, -18, -7, -9, 5, 18, 973, 958, 533,E
2025-03-19 18:31:37.810,739, 396, 427, 10, -12, -9, -9, 4, 15, 973, 961, 524,E
2025-03-19 18:31:37.818,746, 525, 541, 19, -8, -5, -8, 6, 16, 975, 961, 505,E
2025-03-19 18:31:37.827,695, 537, 541, 20, -7, -1, -9, 5, 15, 976, 960, 477,E
2025-03-19 18:31:37.833,764, 573, 382, 31, 6, 17, -8, 4, 18, 978, 960, 417,E
2025-03-19 18:31:37.844,563, 573, 550, 26, 12, 22, -8, 4, 18, 980, 960, 308,E
2025-03-19 18:31:37.850,792, 390, 555, 48, 27, 29, -9, 4, 16, 979, 960, 239,E
2025-03-19 18:31:37.863,723, 574, 555, 35, 20, 23, -8, 4, 16, 981, 959, 173,E
2025-03-19 18:31:37.868,910, 457, 533, 49, 28, 23, -9, 4, 15, 981, 958, 153,E
2025-03-19 18:31:37.880,593, 816, 165, 41, 40, 32, -8, 4, 16, 981, 960, 56,E
2025-03-19 18:31:37.889,941, 940, 267, 18, 32, 39, -8, 3, 17, 981, 956, 62,E
2025-03-19 18:31:37.896,715, 699, 290, -4, 28, 37, -8, 6, 17, 980, 958, 62,E
2025-03-19 18:31:37.903,760, 815, 31, -13, 30, 34, -9, 4, 15, 978, 958, 81,E
2025-03-19 18:31:37.912,656, 277, 361, -2, 20, 12, -8, 6, 15, 977, 959, 90,E
2025-03-19 18:31:37.926,747, 689, 231, -5, 20, 8, -7, 4, 14, 977, 958, 54,E
2025-03-19 18:31:37.933,765, 704, 529, -30, 13, 3, -7, 5, 16, 976, 957, 58,E
2025-03-19 18:31:37.941,772, 260, 605, -39, -5, -24, -7, 5, 16, 974, 953, 57,E
2025-03-19 18:31:37.950,573, 93, 646, -10, -29, -46, -8, 5, 15, 973, 950, 242,E
2025-03-19 18:31:37.958,679, 7, 643, 5, -38, -73, -8, 7, 14, 971, 949, 339,E
2025-03-19 18:31:37.968,604, 419, 622, -2, -40, -79, -8, 5, 15, 971, 949, 410,E
2025-03-19 18:31:37.977,621, 822, 548, -8, -42, -58, -8, 4, 16, 972, 949, 443,E
2025-03-19 18:31:37.985,570, 830, 571, -21, -46, -26, -8, 4, 14, 974, 954, 433,E
2025-03-19 18:31:37.996,817, 546, 425, -30, -34, -15, -8, 5, 13, 974, 960, 417,E
2025-03-19 18:31:37.999,837, 433, 546, -16, -24, -14, -7, 4, 16, 976, 966, 420,E
2025-03-19 18:31:38.012,791, 516, 705, -17, -31, -8, -8, 3, 15, 979, 970, 369,E
2025-03-19 18:31:38.021,816, 461, 452, -5, -27, -8, -7, 4, 17, 979, 972, 363,E
2025-03-19 18:31:38.031,817, 529, 576, 1, -33, -7, -7, 4, 17, 981, 973, 377,E
2025-03-19 18:31:38.038,672, 713, 246, 0, -23, 1, -9, 4, 17, 981, 975, 385,E
2025-03-19 18:31:38.047,792, 766, 301, 1, -15, 12, -9, 3, 18, 981, 976, 407,E
2025-03-19 18:31:38.055,590, 603, 165, -12, -1, 15, -9, 6, 16, 983, 976, 423,E
2025-03-19 18:31:38.064,749, 666, 341, 3, 6, 18, -8, 4, 17, 983, 977, 435,E
2025-03-19 18:31:38.071,769, 674, 431, 4, 12, 25, -9, 5, 18, 983, 977, 445,E
2025-03-19 18:31:38.083,645, 508, 444, 4, 15, 19, -8, 2, 18, 982, 976, 479,E
2025-03-19 18:31:38.093,709, 518, 546, 13, 17, 17, -9, 5, 15, 980, 974, 496,E
2025-03-19 18:31:38.100,656, 525, 562, 26, 18, 16, -7, 4, 18, 980, 971, 499,E
2025-03-19 18:31:38.111,575, 628, 525, 20, 25, 19, -9, 5, 15, 978, 968, 477,E
2025-03-19 18:31:38.118,555, 419, 487, 22, 34, 9, -10, 5, 15, 977, 966, 463,E
2025-03-19 18:31:38.129,644, 183, 479, 31, 43, -15, -10, 5, 15, 976, 964, 472,E
2025-03-19 18:31:38.138,595, 326, 611, 29, 41, -28, -8, 5, 15, 976, 958, 511,E
2025-03-19 18:31:38.146,478, 596, 638, 28, 25, -23, -9, 6, 18, 975, 953, 499,E
2025-03-19 18:31:38.152,479, 666, 601, 24, 6, -8, -9, 5, 14, 975, 946, 498,E
2025-03-19 18:31:38.161,640, 624, 588, 26, -13, 8, -7, 4, 16, 975, 945, 503,E
2025-03-19 18:31:38.168,821, 610, 591, 2, -23, 5, -8, 6, 16, 978, 949, 476,E
2025-03-19 18:31:38.177,1059, 358, 252, 20, -14, -10, -8, 4, 18, 979, 956, 490,E
2025-03-19 18:31:38.191,800, 818, 342, 4, -15, -3, -8, 6, 15, 980, 961, 456,E
2025-03-19 18:31:38.200,844, 653, 137, -7, -6, 2, -9, 3, 16, 981, 965, 417,E
2025-03-19 18:31:38.209,918, 859, 264, -16, 0, 15, -9, 4, 14, 981, 968, 358,E
2025-03-19 18:31:38.216,672, 736, 306, -46, 4, 21, -9, 4, 14, 982, 970, 272,E
2025-03-19 18:31:38.225,718, 478, 375, -24, 8, 18, -8, 3, 18, 982, 970, 269,E
2025-03-19 18:31:38.233,747, 579, 473, -15, 6, 18, -10, 4, 14, 982, 972, 289,E
2025-03-19 18:31:38.244,795, 554, 561, -6, 8, 20, -8, 4, 18, 983, 972, 286,E
2025-03-19 18:31:38.252,616, 517, 509, 1, 7, 19, -9, 5, 16, 982, 972, 294,E
2025-03-19 18:31:38.261,694, 427, 526, 12, 12, 11, -10, 5, 16, 981, 970, 353,E
2025-03-19 18:31:38.268,686, 420, 560, 31, 14, 7, -7, 6, 16, 980, 966, 377,E
2025-03-19 18:31:38.278,612, 590, 457, 29, 24, 12, -8, 5, 17, 978, 962, 366,E
2025-03-19 18:31:38.282,610, 429, 430, 21, 38, 2, -9, 5, 16, 977, 957, 363,E
2025-03-19 18:31:38.298,625, 272, 499, 30, 45, -16, -8, 5, 17, 975, 946, 381,E
2025-03-19 18:31:38.305,531, 415, 631, 31, 36, -20, -10, 2, 15, 975, 938, 358,E
2025-03-19 18:31:38.314,437, 614, 729, 31, 15, -10, -10, 2, 15, 975, 928, 339,E
2025-03-19 18:31:38.322,513, 681, 650, 30, -8, 7, -7, 4, 16, 974, 923, 333,E
2025-03-19 18:31:38.331,693, 694, 615, 19, -28, 23, -8, 5, 16, 975, 931, 263,E
2025-03-19 18:31:38.343,1104, 236, 254, 12, -17, -4, -9, 5, 16, 978, 943, 257,E
2025-03-19 18:31:38.350,886, 818, 381, -4, -17, 1, -8, 6, 15, 978, 954, 167,E
2025-03-19 18:31:38.359,876, 779, 122, -24, -8, 11, -8, 3, 16, 980, 960, 63,E
2025-03-19 18:31:38.368,924, 636, 118, -15, 6, 16, -8, 5, 15, 981, 964, 79,E
2025-03-19 18:31:38.377,796, 606, 363, -21, 9, 19, -10, 4, 16, 982, 966, 94,E
2025-03-19 18:31:38.383,835, 684, 464, -19, 9, 26, -8, 5, 14, 982, 968, 72,E
2025-03-19 18:31:38.393,835, 615, 435, -26, 7, 31, -9, 4, 15, 981, 969, 49,E
2025-03-19 18:31:38.401,663, 418, 402, -20, 10, 25, -9, 5, 14, 982, 969, 53,E
2025-03-19 18:31:38.412,733, 383, 594, -5, 10, 15, -9, 5, 14, 982, 968, 61,E
2025-03-19 18:31:38.418,716, 371, 624, 9, 3, 9, -8, 4, 15, 979, 964, 88,E
2025-03-19 18:31:38.429,739, 424, 452, -1, 4, -7, -8, 4, 16, 978, 962, 181,E
2025-03-19 18:31:38.438,865, 207, 246, 4, 24, -36, -9, 6, 15, 976, 960, 268,E
2025-03-19 18:31:38.445,838, 410, 215, -3, 42, -53, -8, 5, 14, 974, 956, 354,E
2025-03-19 18:31:38.457,725, 614, 290, -12, 49, -54, -8, 6, 15, 973, 951, 399,E
2025-03-19 18:31:38.466,633, 627, 318, -20, 48, -51, -8, 5, 14, 970, 946, 420,E
2025-03-19 18:31:38.475,604, 540, 394, -21, 46, -53, -8, 5, 14, 969, 941, 428,E
2025-03-19 18:31:38.482,521, 523, 543, -22, 40, -54, -7, 3, 12, 967, 932, 428,E
2025-03-19 18:31:38.741,690, 567, 499, -9, -9, 5, -7, 2, 15, 953, 913, 631,F
2025-03-19 18:31:38.753,672, 571, 493, -9, -9, 6, -8, 3, 11, 955, 916, 629,F
2025-03-19 18:31:38.761,672, 569, 484, -9, -10, 6, -6, 3, 12, 954, 919, 634,F
2025-03-19 18:31:38.768,663, 548, 505, -8, -12, 6, -8, 5, 15, 954, 920, 629,F
2025-03-19 18:31:38.777,658, 550, 518, -6, -13, 8, -7, 4, 14, 953, 922, 631,F
2025-03-19 18:31:38.787,652, 574, 537, -5, -16, 10, -7, 3, 14, 954, 922, 629,F
2025-03-19 18:31:38.797,654, 551, 539, -2, -18, 12, -8, 4, 15, 954, 922, 620,F
2025-03-19 18:31:38.805,664, 521, 536, 2, -19, 13, -7, 5, 12, 956, 926, 621,F
2025-03-19 18:31:38.814,695, 503, 540, 4, -21, 11, -7, 5, 12, 957, 926, 624,F
2025-03-19 18:31:38.819,922, 473, 471, 1, -15, 2, -9, 3, 15, 959, 931, 612,F
2025-03-19 18:31:38.831,778, 486, 408, 2, -8, -4, -7, 4, 15, 960, 936, 619,F
2025-03-19 18:31:38.837,722, 592, 474, 0, -8, 0, -8, 4, 13, 962, 937, 586,F
2025-03-19 18:31:38.850,709, 496, 438, -3, -6, -2, -10, 6, 16, 962, 938, 573,F
2025-03-19 18:31:38.858,720, 410, 542, 2, -7, -7, -8, 4, 15, 965, 938, 552,F
2025-03-19 18:31:38.867,745, 506, 542, 14, -8, -6, -9, 5, 16, 967, 941, 529,F
2025-03-19 18:31:38.875,677, 570, 588, 14, -3, 1, -8, 3, 16, 970, 939, 521,F
2025-03-19 18:31:38.883,749, 428, 520, 39, -3, 3, -10, 3, 16, 972, 937, 478,F
2025-03-19 18:31:38.893,775, 574, 529, 37, 4, 10, -8, 3, 15, 974, 939, 469,F
2025-03-19 18:31:38.900,699, 839, 305, 16, 23, 33, -8, 3, 15, 973, 941, 390,F
2025-03-19 18:31:38.910,779, 408, 415, 38, 36, 40, -9, 6, 15, 976, 943, 344,F
2025-03-19 18:31:38.919,735, 816, 426, 15, 31, 36, -8, 4, 16, 975, 945, 240,F
2025-03-19 18:31:38.929,770, 685, 242, -5, 28, 33, -10, 4, 16, 976, 943, 216,F
2025-03-19 18:31:38.936,546, 702, 180, -3, 30, 31, -10, 5, 17, 975, 941, 159,F
2025-03-19 18:31:38.946,598, 479, 381, 5, 22, 21, -7, 6, 16, 975, 941, 212,F
2025-03-19 18:31:38.957,736, 604, 298, -4, 18, 14, -7, 5, 16, 972, 942, 228,F
2025-03-19 18:31:38.966,721, 635, 329, -9, 18, 11, -9, 5, 14, 970, 945, 245,F
2025-03-19 18:31:38.975,751, 726, 346, -23, 18, 13, -7, 7, 15, 970, 946, 261,F
2025-03-19 18:31:38.982,686, 523, 574, -36, 2, 0, -8, 5, 15, 968, 942, 311,F
2025-03-19 18:31:38.991,697, 121, 579, -27, -10, -31, -8, 7, 14, 964, 942, 350,F
2025-03-19 18:31:38.998,721, 25, 504, -4, -17, -68, -8, 7, 14, 962, 943, 452,F
2025-03-19 18:31:39.011,694, 376, 465, 10, -18, -81, -7, 5, 14, 964, 941, 521,F
2025-03-19 18:31:39.018,611, 773, 520, -15, -21, -64, -8, 4, 15, 961, 942, 540,F
2025-03-19 18:31:39.028,515, 853, 573, -29, -29, -36, -8, 3, 15, 964, 944, 559,F
2025-03-19 18:31:39.034,464, 712, 652, -26, -40, -9, -7, 5, 15, 963, 949, 571,F
2025-03-19 18:31:39.045,530, 636, 738, -15, -51, 6, -7, 5, 15, 968, 957, 560,F
2025-03-19 18:31:39.053,1250, 503, 350, -35, -36, -2, -10, 5, 16, 971, 964, 533,F
2025-03-19 18:31:39.061,958, 334, 773, -11, -22, -9, -8, 2, 17, 973, 969, 526,F
2025-03-19 18:31:39.067,817, 660, 577, -27, -39, 0, -8, 5, 15, 977, 972, 496,F
2025-03-19 18:31:39.079,839, 274, 429, 4, -31, -7, -6, 4, 15, 979, 973, 478,F
2025-03-19 18:31:39.088,784, 612, 442, 9, -29, -5, -9, 4, 16, 979, 975, 483,F
2025-03-19 18:31:39.097,615, 901, 328, -1, -26, 9, -9, 4, 16, 980, 977, 472,F
2025-03-19 18:31:39.104,715, 774, 99, -8, -7, 18, -8, 2, 19, 980, 976, 473,F
2025-03-19 18:31:39.117,674, 627, 243, 4, 4, 20, -10, 5, 16, 981, 975, 482,F
2025-03-19 18:31:39.125,684, 502, 510, 11, 3, 17, -7, 3, 16, 980, 976, 494,F
2025-03-19 18:31:39.133,722, 544, 436, 18, 7, 15, -10, 5, 17, 978, 974, 530,F
2025-03-19 18:31:39.142,626, 540, 495, 24, 10, 13, -8, 2, 17, 978, 972, 548,F
2025-03-19 18:31:39.149,651, 545, 522, 35, 14, 11, -10, 5, 16, 976, 970, 562,F
2025-03-19 18:31:39.159,618, 626, 482, 38, 18, 13, -9, 3, 17, 975, 966, 563,F
2025-03-19 18:31:39.169,587, 449, 463, 31, 27, 3, -10, 4, 15, 973, 962, 565,F
2025-03-19 18:31:39.178,602, 238, 432, 39, 39, -20, -8, 4, 16, 971, 958, 560,F
2025-03-19 18:31:39.185,641, 304, 475, 54, 46, -39, -8, 4, 16, 968, 954, 586,F
2025-03-19 18:31:39.195,585, 564, 546, 52, 42, -40, -10, 5, 17, 968, 950, 619,F
2025-03-19 18:31:39.201,482, 764, 538, 31, 29, -27, -9, 3, 17, 969, 945, 623,F
2025-03-19 18:31:39.215,445, 795, 569, 17, 11, -15, -9, 3, 14, 968, 937, 587,F
2025-03-19 18:31:39.223,566, 704, 586, 13, -11, 4, -8, 4, 18, 968, 932, 552,F
2025-03-19 18:31:39.231,746, 627, 641, 12, -32, 21, -9, 4, 15, 970, 940, 525,F
2025-03-19 18:31:39.240,1066, 103, 201, 9, -22, -9, -8, 2, 16, 974, 950, 531,F
2025-03-19 18:31:39.249,934, 649, 454, 9, -21, -13, -7, 4, 16, 976, 960, 546,F
2025-03-19 18:31:39.257,899, 957, 123, -27, -19, 7, -9, 3, 18, 978, 964, 497,F
2025-03-19 18:31:39.268,1042, 818, 121, -43, -6, 21, -9, 3, 16, 981, 969, 448,F
2025-03-19 18:31:39.276,841, 742, 404, -42, -11, 26, -9, 4, 18, 982, 975, 383,F
2025-03-19 18:31:39.283,719, 658, 155, -25, -3, 36, -9, 4, 18, 984, 977, 315,F
2025-03-19 18:31:39.294,643, 574, 347, -24, 1, 33, -9, 6, 17, 983, 976, 326,F
2025-03-19 18:31:39.301,760, 665, 410, -23, 2, 38, -7, 4, 16, 982, 975, 303,F
2025-03-19 18:31:39.310,619, 547, 235, -30, 17, 33, -9, 5, 16, 981, 975, 315,F
2025-03-19 18:31:39.318,667, 413, 552, -5, 15, 24, -8, 4, 16, 982, 975, 328,F
2025-03-19 18:31:39.330,641, 575, 547, -5, 14, 17, -9, 6, 16, 979, 973, 346,F
2025-03-19 18:31:39.337,701, 422, 447, 6, 21, 2, -9, 7, 15, 977, 971, 403,F
2025-03-19 18:31:39.346,773, 168, 325, 2, 31, -33, -9, 5, 15, 975, 969, 437,F
2025-03-19 18:31:39.352,850, 275, 241, 4, 49, -61, -10, 4, 16, 973, 967, 475,F
2025-03-19 18:31:39.362,743, 575, 246, 5, 61, -65, -10, 4, 14, 972, 961, 493,F
2025-03-19 18:31:39.375,646, 689, 327, -5, 63, -59, -7, 3, 16, 969, 959, 518,F
2025-03-19 18:31:39.382,601, 666, 362, -26, 61, -54, -7, 3, 16, 969, 950, 509,F
2025-03-19 18:31:39.392,503, 626, 516, -28, 58, -49, -9, 3, 13, 966, 944, 515,F
2025-03-19 18:31:39.399,530, 559, 715, -18, 48, -43, -9, 2, 16, 963, 936, 526,F
2025-03-19 18:31:39.408,509, 574, 842, -5, 29, -36, -6, 2, 12, 960, 928, 534,F
2025-03-19 18:31:39.416,503, 577, 870, 8, 9, -27, -8, 3, 13, 958, 922, 581,F
2025-03-19 18:31:39.428,538, 598, 802, 18, -7, -17, -7, 2, 12, 957, 923, 593,F
2025-03-19 18:31:39.435,563, 623, 720, 21, -16, -8, -7, 3, 12, 956, 922, 614,F
2025-03-19 18:31:39.446,569, 636, 617, 24, -22, 0, -3, 4, 15, 956, 924, 635,F
2025-03-19 18:31:39.727,626, 600, 516, -8, -20, 16, -7, 3, 15, 961, 947, 637,G
2025-03-19 18:31:39.742,614, 570, 524, -7, -23, 19, -8, 3, 15, 962, 949, 628,G
2025-03-19 18:31:39.756,605, 534, 557, -5, -28, 18, -8, 3, 15, 963, 951, 600,G
2025-03-19 18:31:39.764,609, 538, 554, -3, -31, 15, -8, 3, 15, 962, 952, 594,G
2025-03-19 18:31:39.772,884, 389, 282, -17, -12, -4, -8, 5, 16, 964, 955, 595,G
2025-03-19 18:31:39.781,667, 685, 512, -15, -10, -3, -9, 3, 16, 967, 958, 572,G
2025-03-19 18:31:39.789,681, 647, 376, -28, -11, 0, -9, 5, 16, 968, 962, 553,G
2025-03-19 18:31:39.798,702, 429, 422, -25, -7, -6, -8, 3, 16, 968, 964, 547,G
2025-03-19 18:31:39.809,665, 469, 541, -13, -8, -9, -9, 4, 15, 970, 963, 533,G
2025-03-19 18:31:39.815,730, 492, 645, -11, -13, -10, -8, 4, 16, 970, 965, 510,G
2025-03-19 18:31:39.826,547, 357, 568, 5, -16, -19, -9, 4, 15, 971, 964, 498,G
2025-03-19 18:31:39.833,629, 420, 517, 15, -14, -22, -8, 4, 18, 972, 964, 471,G
2025-03-19 18:31:39.842,780, 435, 514, 30, -12, -19, -8, 4, 18, 974, 961, 464,G
2025-03-19 18:31:39.850,728, 414, 489, 36, -9, -23, -9, 4, 15, 975, 960, 447,G
2025-03-19 18:31:39.862,667, 529, 404, 49, -1, -16, -11, 3, 18, 976, 958, 440,G
2025-03-19 18:31:39.868,841, 554, 504, 46, -4, -15, -7, 5, 16, 977, 957, 415,G
2025-03-19 18:31:39.879,826, 601, 178, 47, 8, -8, -8, 2, 18, 981, 957, 413,G
2025-03-19 18:31:39.879,988, 912, 152, 25, 25, 15, -8, 4, 17, 980, 958, 426,G
2025-03-19 18:31:39.894,992, 1014, 111, -14, 38, 41, -11, 3, 18, 981, 960, 376,G
2025-03-19 18:31:39.903,1091, 1098, -16, -62, 39, 45, -9, 5, 17, 983, 962, 247,G
2025-03-19 18:31:39.911,836, 393, 346, -18, 41, 57, -10, 6, 16, 983, 964, 175,G
2025-03-19 18:31:39.924,396, 663, 210, -65, 45, 47, -8, 3, 17, 983, 967, 172,G
2025-03-19 18:31:39.932,727, 617, 511, -50, 30, 38, -7, 4, 18, 982, 969, 124,G
2025-03-19 18:31:39.941,687, 560, 330, -47, 28, 35, -7, 4, 18, 982, 972, 109,G
2025-03-19 18:31:39.948,605, 600, 602, -52, 15, 30, -8, 5, 15, 982, 972, 45,G
2025-03-19 18:31:39.958,601, 452, 652, -39, 1, 18, -8, 5, 15, 979, 973, 83,G
2025-03-19 18:31:39.968,657, 325, 561, -25, 1, 2, -8, 5, 15, 980, 973, 83,G
2025-03-19 18:31:39.977,623, 283, 885, -13, -15, -12, -9, 6, 16, 978, 972, 90,G
2025-03-19 18:31:39.984,587, 272, 611, 4, -24, -24, -9, 5, 15, 978, 971, 268,G
2025-03-19 18:31:39.994,595, 352, 548, 8, -23, -30, -8, 6, 15, 976, 972, 333,G
2025-03-19 18:31:40.000,661, 444, 630, 17, -24, -26, -10, 6, 15, 978, 972, 365,G
2025-03-19 18:31:40.014,701, 501, 616, 14, -18, -18, -9, 6, 16, 977, 972, 370,G
2025-03-19 18:31:40.018,691, 467, 671, 14, -21, -15, -9, 5, 16, 979, 973, 329,G
2025-03-19 18:31:40.031,709, 440, 505, 22, -21, -15, -8, 5, 15, 981, 972, 335,G
2025-03-19 18:31:40.037,726, 529, 432, 28, -15, -11, -8, 5, 15, 983, 971, 294,G
2025-03-19 18:31:40.047,714, 788, 164, 24, 0, 6, -8, 4, 18, 981, 973, 235,G
2025-03-19 18:31:40.054,788, 797, 313, 16, 5, 13, -10, 5, 16, 981, 973, 199,G
2025-03-19 18:31:40.062,635, 823, 132, -5, 20, 25, -9, 4, 18, 981, 972, 58,G
2025-03-19 18:31:40.075,708, 860, 43, -16, 35, 37, -9, 6, 17, 982, 972, 60,G
2025-03-19 18:31:40.081,769, 636, 316, -16, 32, 34, -8, 7, 16, 982, 969, 64,G
2025-03-19 18:31:40.091,738, 588, 299, -22, 36, 31, -10, 5, 16, 980, 969, 68,G
2025-03-19 18:31:40.100,666, 384, 516, -17, 27, 17, -8, 4, 16, 981, 965, 69,G
2025-03-19 18:31:40.109,664, 499, 510, -13, 20, 7, -9, 8, 14, 979, 964, 86,G
2025-03-19 18:31:40.118,625, 426, 526, -24, 15, -8, -10, 4, 16, 982, 968, 139,G
2025-03-19 18:31:40.129,641, 200, 602, -11, 9, -32, -8, 7, 15, 977, 959, 68,G
2025-03-19 18:31:40.133,652, 321, 635, 2, -1, -45, -8, 7, 15, 976, 955, 164,G
2025-03-19 18:31:40.143,529, 524, 694, 0, -13, -40, -7, 4, 15, 974, 951, 214,G
2025-03-19 18:31:40.153,477, 597, 648, 2, -26, -23, -10, 6, 15, 974, 952, 268,G
2025-03-19 18:31:40.162,592, 469, 457, -1, -31, -12, -7, 4, 15, 977, 958, 242,G
2025-03-19 18:31:40.173,962, 534, 561, -11, -16, -13, -7, 7, 15, 978, 963, 223,G
2025-03-19 18:31:40.182,870, 688, 577, -23, -27, -4, -3, 5, 19, 979, 968, 116,G
2025-03-19 18:31:40.190,852, 362, 259, -4, -20, -6, -8, 6, 18, 982, 972, 96,G
2025-03-19 18:31:40.198,875, 502, 473, 11, -15, -6, -7, 6, 17, 984, 976, 161,G
2025-03-19 18:31:40.207,821, 812, 211, -2, -12, 7, -10, 5, 16, 981, 973, 59,G
2025-03-19 18:31:40.214,797, 747, 231, -9, -4, 17, -10, 3, 17, 982, 973, 53,G
2025-03-19 18:31:40.224,854, 705, 271, -14, 4, 26, -10, 3, 17, 982, 973, 31,G
2025-03-19 18:31:40.231,784, 525, 253, -11, 17, 28, -9, 5, 16, 980, 973, 50,G
2025-03-19 18:31:40.243,692, 338, 458, -7, 20, 17, -9, 6, 16, 978, 971, 104,G
2025-03-19 18:31:40.249,718, 568, 616, 3, 18, 16, -9, 7, 15, 978, 969, 162,G
2025-03-19 18:31:40.260,811, 297, 445, -7, 28, -6, -8, 5, 17, 977, 964, 170,G
2025-03-19 18:31:40.268,822, 185, 338, -2, 45, -37, -8, 7, 14, 974, 962, 187,G
2025-03-19 18:31:40.277,712, 469, 379, -3, 51, -48, -6, 4, 14, 973, 960, 206,G
2025-03-19 18:31:40.553,647, 619, 469, -21, 4, -2, -9, 3, 13, 946, 904, 541,H
2025-03-19 18:31:40.557,612, 593, 508, -20, 2, 0, -8, 4, 15, 946, 907, 545,H
2025-03-19 18:31:40.570,601, 580, 541, -16, 0, 1, -8, 4, 13, 945, 908, 542,H
2025-03-19 18:31:40.579,609, 559, 564, -11, -4, 2, -7, 2, 14, 944, 908, 528,H
2025-03-19 18:31:40.587,631, 564, 557, -9, -7, 2, -7, 3, 14, 945, 908, 527,H
2025-03-19 18:31:40.597,639, 571, 527, -7, -10, 2, -7, 3, 14, 943, 908, 529,H
2025-03-19 18:31:40.602,638, 574, 497, -6, -12, 2, -8, 1, 14, 946, 912, 540,H
2025-03-19 18:31:40.616,631, 574, 486, -6, -14, 3, -8, 4, 13, 945, 912, 542,H
2025-03-19 18:31:40.625,620, 572, 489, -5, -17, 4, -7, 3, 14, 943, 914, 552,H
2025-03-19 18:31:40.632,657, 557, 512, -3, -21, 5, -9, 5, 14, 946, 915, 547,H
2025-03-19 18:31:40.642,644, 561, 532, -2, -25, 8, -7, 2, 14, 947, 920, 553,H
2025-03-19 18:31:40.649,619, 575, 556, -1, -31, 12, -9, 4, 14, 946, 924, 557,H
2025-03-19 18:31:40.658,613, 545, 550, 4, -34, 14, -6, 3, 15, 949, 928, 570,H
2025-03-19 18:31:40.668,633, 523, 551, 8, -36, 15, -9, 3, 16, 949, 934, 570,H
2025-03-19 18:31:40.678,705, 516, 539, 12, -36, 15, -7, 2, 17, 953, 935, 554,H
2025-03-19 18:31:40.685,991, 182, 355, -4, -16, -12, -7, 2, 17, 957, 941, 547,H
2025-03-19 18:31:40.694,760, 547, 594, 19, -16, -13, -8, 5, 14, 960, 944, 538,H
2025-03-19 18:31:40.701,752, 557, 455, 6, -17, -10, -8, 1, 17, 964, 944, 479,H
2025-03-19 18:31:40.711,783, 385, 359, 21, -11, -10, -7, 5, 14, 966, 945, 469,H
2025-03-19 18:31:40.718,843, 608, 494, 39, -5, -2, -8, 3, 18, 972, 947, 465,H
2025-03-19 18:31:40.730,840, 802, 440, 31, 4, 20, -10, 5, 17, 975, 951, 457,H
2025-03-19 18:31:40.739,663, 528, 528, -7, 19, 26, -7, 4, 17, 976, 953, 409,H
2025-03-19 18:31:40.747,723, 767, 352, 31, 27, 45, -7, 4, 16, 977, 954, 266,H
2025-03-19 18:31:40.755,505, 611, 389, -11, 44, 52, -7, 3, 17, 979, 954, 88,H
2025-03-19 18:31:40.764,1095, 204, 534, 9, 33, 38, -8, 4, 15, 978, 954, 64,H
2025-03-19 18:31:40.776,509, 931, 404, -22, 42, 45, -7, 4, 17, 980, 955, 49,H
2025-03-19 18:31:40.782,731, 692, 466, -43, 32, 37, -7, 4, 17, 979, 952, 56,H
2025-03-19 18:31:40.793,510, 580, 116, -15, 32, 38, -10, 5, 16, 980, 951, 61,H
2025-03-19 18:31:40.799,839, 494, 441, -21, 25, 29, -7, 4, 17, 979, 949, 62,H
2025-03-19 18:31:40.810,726, 456, 402, -15, 15, 12, -9, 6, 15, 978, 943, 55,H
2025-03-19 18:31:40.817,744, 672, 267, -27, 18, 10, -8, 4, 15, 974, 942, 61,H
2025-03-19 18:31:40.827,648, 590, 456, -42, 10, -2, -7, 6, 15, 970, 932, 53,H
2025-03-19 18:31:40.835,660, 144, 579, -29, -8, -35, -9, 4, 16, 967, 922, 62,H
2025-03-19 18:31:40.844,648, -51, 631, 9, -19, -67, -10, 5, 14, 965, 919, 55,H
2025-03-19 18:31:40.853,654, 208, 698, 26, -28, -76, -7, 4, 16, 965, 924, 226,H
2025-03-19 18:31:40.863,604, 679, 650, 34, -37, -54, -8, 4, 15, 965, 928, 285,H
2025-03-19 18:31:40.869,553, 931, 605, 23, -42, -16, -7, 3, 17, 966, 937, 346,H
2025-03-19 18:31:40.882,575, 624, 288, -17, -35, -2, -7, 3, 17, 971, 950, 249,H
2025-03-19 18:31:40.891,1063, 416, 513, 6, -14, -3, -9, 4, 15, 972, 959, 320,H
2025-03-19 18:31:40.899,778, 622, 658, 0, -23, 4, -8, 5, 16, 975, 964, 313,H
2025-03-19 18:31:40.907,920, 560, 426, -11, -30, 2, -8, 4, 14, 977, 966, 270,H
2025-03-19 18:31:40.915,800, 554, 201, 14, -23, 0, -8, 4, 17, 979, 971, 290,H
2025-03-19 18:31:40.925,816, 917, 200, 5, -14, 16, -9, 4, 15, 980, 970, 265,H
2025-03-19 18:31:40.932,739, 858, 35, -9, 3, 31, -7, 4, 18, 980, 971, 251,H
2025-03-19 18:31:40.944,732, 813, 168, -25, 19, 40, -8, 4, 17, 979, 971, 203,H
2025-03-19 18:31:40.950,772, 788, 364, -47, 22, 43, -9, 5, 16, 980, 972, 38,H
2025-03-19 18:31:40.960,825, 394, 455, -28, 20, 31, -10, 7, 16, 979, 971, 143,H
2025-03-19 18:31:40.967,638, 427, 566, -17, 12, 18, -10, 7, 16, 977, 969, 167,H
2025-03-19 18:31:40.977,686, 302, 545, -21, 11, -8, -10, 4, 16, 977, 968, 231,H
2025-03-19 18:31:40.987,733, 203, 408, -20, 18, -38, -9, 5, 15, 977, 968, 319,H
2025-03-19 18:31:40.996,582, 433, 509, -23, 16, -50, -8, 4, 16, 977, 967, 355,H
2025-03-19 18:31:41.005,405, 590, 691, -15, 4, -38, -8, 5, 16, 976, 967, 415,H
2025-03-19 18:31:41.013,317, 544, 718, -4, -8, -22, -8, 5, 17, 975, 965, 444,H
2025-03-19 18:31:41.018,435, 499, 834, 13, -24, -9, -8, 3, 14, 975, 964, 464,H
2025-03-19 18:31:41.031,458, 615, 938, 16, -42, 11, -10, 4, 15, 977, 965, 493,H
2025-03-19 18:31:41.041,556, 542, 918, 18, -56, 26, -8, 6, 17, 977, 966, 474,H
2025-03-19 18:31:41.049,1123, -306, 413, 6, -39, -20, -7, 5, 16, 981, 967, 448,H
2025-03-19 18:31:41.059,707, 618, 500, 47, -29, -18, -8, 3, 16, 982, 968, 421,H
2025-03-19 18:31:41.066,738, 851, 266, 12, -22, 0, -8, 3, 16, 983, 965, 361,H
2025-03-19 18:31:41.075,1048, 635, 142, 30, -8, 7, -8, 4, 16, 982, 967, 285,H
2025-03-19 18:31:41.081,771, 919, -67, 31, 12, 26, -9, 4, 18, 984, 965, 207,H
2025-03-19 18:31:41.096,746, 925, -25, 19, 35, 37, -10, 5, 16, 983, 966, 172,H
2025-03-19 18:31:41.100,801, 665, 455, 9, 40, 31, -9, 4, 17, 982, 966, 185,H
2025-03-19 18:31:41.110,658, 814, 309, 1, 39, 32, -9, 5, 17, 983, 963, 181,H
2025-03-19 18:31:41.119,787, 806, 333, -7, 43, 37, -10, 5, 17, 980, 964, 157,H
2025-03-19 18:31:41.129,705, 608, 481, -11, 36, 28, -9, 6, 16, 981, 958, 179,H
2025-03-19 18:31:41.140,725, 452, 377, 5, 34, 18, -9, 4, 17, 978, 954, 192,H
2025-03-19 18:31:41.148,699, 515, 522, -4, 26, 8, -8, 5, 16, 976, 953, 193,H
2025-03-19 18:31:41.157,836, 304, 508, -14, 25, -17, -8, 4, 15, 976, 951, 261,H
2025-03-19 18:31:41.164,899, 179, 375, -12, 32, -51, -8, 4, 15, 973, 948, 329,H
2025-03-19 18:31:41.440,804, 723, 453, -4, -17, -6, -8, 4, 15, 959, 916, 44,I
2025-03-19 18:31:41.447,791, 618, 325, -23, -14, -3, -8, 4, 15, 962, 923, 36,I
2025-03-19 18:31:41.456,755, 469, 292, -7, -6, -7, -9, 3, 17, 963, 932, 45,I
2025-03-19 18:31:41.468,794, 493, 410, 6, -6, -6, -9, 3, 17, 968, 943, 47,I
2025-03-19 18:31:41.476,979, 629, 528, 9, -10, 2, -7, 5, 17, 970, 955, 62,I
2025-03-19 18:31:41.482,1038, 839, 606, -9, -22, 19, -11, 3, 16, 975, 962, 81,I
2025-03-19 18:31:41.493,1116, 823, 467, -21, -25, 34, -8, 4, 16, 978, 965, 135,I
2025-03-19 18:31:41.498,950, 578, 360, -25, -25, 41, -8, 4, 18, 978, 968, 160,I
2025-03-19 18:31:41.510,801, 713, 475, -29, -20, 45, -9, 5, 16, 980, 971, 86,I
2025-03-19 18:31:41.518,486, 366, 201, -28, -3, 34, -8, 4, 17, 980, 973, 51,I
2025-03-19 18:31:41.529,619, 700, 469, -20, -6, 41, -9, 7, 18, 981, 972, 55,I
2025-03-19 18:31:41.537,407, 251, 333, -16, 3, 29, -9, 7, 18, 981, 972, 53,I
2025-03-19 18:31:41.544,627, 382, 603, 1, 4, 22, -10, 4, 16, 979, 972, 75,I
2025-03-19 18:31:41.553,599, 555, 511, 1, 2, 18, -10, 6, 16, 977, 972, 68,I
2025-03-19 18:31:41.562,693, 511, 479, 10, 5, 16, -9, 4, 15, 977, 970, 69,I
2025-03-19 18:31:41.568,731, 435, 512, 26, 6, 10, -10, 5, 16, 974, 967, 61,I
2025-03-19 18:31:41.579,618, 433, 496, 32, 5, 0, -10, 5, 18, 969, 964, 221,I
2025-03-19 18:31:41.591,712, 511, 462, 33, 6, -4, -9, 6, 16, 967, 959, 330,I
2025-03-19 18:31:41.599,594, 586, 376, 27, 13, -9, -9, 5, 17, 962, 955, 364,I
2025-03-19 18:31:41.608,645, 268, 246, 32, 26, -32, -9, 5, 15, 960, 951, 451,I
2025-03-19 18:31:41.614,635, 306, 293, 35, 33, -55, -8, 5, 17, 957, 946, 509,I
2025-03-19 18:31:41.625,595, 520, 494, 16, 28, -59, -8, 5, 17, 956, 943, 520,I
2025-03-19 18:31:41.633,582, 714, 651, 12, 13, -39, -7, 5, 15, 955, 940, 548,I
2025-03-19 18:31:41.644,565, 804, 668, 16, -5, -12, -9, 2, 16, 955, 941, 558,I
2025-03-19 18:31:41.652,618, 759, 794, 11, -16, 15, -10, 4, 16, 958, 944, 570,I
2025-03-19 18:31:41.659,727, 439, 714, -10, -27, 8, -9, 2, 18, 963, 952, 537,I
2025-03-19 18:31:41.669,1014, 250, 552, 2, -19, -6, -8, 3, 15, 967, 958, 543,I
2025-03-19 18:31:41.678,750, 666, 585, -1, -23, -1, -8, 3, 16, 972, 959, 524,I
2025-03-19 18:31:41.687,811, 579, 315, -2, -21, 4, -8, 2, 17, 975, 962, 485,I
2025-03-19 18:31:41.696,770, 552, 89, 10, -1, 9, -8, 3, 17, 977, 961, 397,I
2025-03-19 18:31:41.698,808, 660, 344, 11, 7, 17, -8, 5, 14, 980, 961, 327,I
2025-03-19 18:31:41.714,825, 702, 218, 16, 19, 33, -7, 5, 17, 980, 962, 226,I
2025-03-19 18:31:41.721,440, 613, 411, 8, 32, 38, -7, 5, 17, 979, 965, 96,I
2025-03-19 18:31:41.731,737, 392, 316, 23, 39, 34, -9, 5, 17, 980, 963, 62,I
2025-03-19 18:31:41.742,609, 738, 331, 19, 37, 30, -7, 4, 18, 980, 962, 55,I
2025-03-19 18:31:41.749,802, 760, 204, 1, 49, 42, -10, 6, 15, 980, 960, 66,I
2025-03-19 18:31:41.759,660, 650, 328, 0, 47, 42, -9, 4, 19, 979, 957, 58,I
2025-03-19 18:31:41.766,686, 236, 439, -17, 47, 34, -8, 5, 15, 976, 952, 56,I
2025-03-19 18:31:41.776,626, 675, 324, 19, 46, 31, -8, 4, 17, 973, 946, 71,I
2025-03-19 18:31:41.781,616, 462, 545, -1, 33, 12, -8, 5, 16, 970, 935, 90,I
2025-03-19 18:31:41.795,666, 360, 407, 13, 31, -14, -8, 5, 14, 967, 922, 179,I
2025-03-19 18:31:41.800,726, 300, 479, 13, 29, -42, -9, 4, 14, 963, 906, 227,I
2025-03-19 18:31:41.813,575, 410, 581, 20, 22, -54, -9, 4, 14, 960, 892, 301,I
2025-03-19 18:31:41.819,464, 624, 677, 7, 7, -43, -7, 5, 16, 959, 875, 315,I
2025-03-19 18:31:41.827,373, 727, 750, -6, -10, -18, -7, 6, 13, 957, 871, 319,I
2025-03-19 18:31:41.837,448, 689, 833, 18, -31, 2, -7, 3, 15, 957, 881, 323,I
2025-03-19 18:31:41.849,790, 597, 458, -15, -29, 7, -7, 4, 13, 961, 910, 226,I
2025-03-19 18:31:41.857,1037, 189, 619, 20, -21, -11, -6, 4, 16, 966, 931, 300,I
2025-03-19 18:31:41.864,908, 745, 454, -14, -28, -6, -9, 6, 14, 970, 947, 213,I
2025-03-19 18:31:41.874,824, 438, 157, -1, -18, -9, -7, 2, 16, 973, 956, 213,I
2025-03-19 18:31:41.882,847, 480, 284, 23, -11, -9, -9, 5, 16, 976, 961, 295,I
2025-03-19 18:31:41.890,953, 1003, 363, -4, -12, 14, -9, 4, 17, 978, 964, 292,I
2025-03-19 18:31:41.902,910, 975, 175, -35, -4, 36, -10, 3, 16, 979, 968, 265,I
2025-03-19 18:31:41.911,598, 541, 71, -25, 9, 38, -10, 3, 16, 979, 968, 256,I
2025-03-19 18:31:41.919,695, 596, 304, -21, 13, 40, -9, 4, 17, 977, 966, 257,I
2025-03-19 18:31:41.927,629, 403, 424, -33, 16, 29, -8, 5, 15, 977, 966, 287,I
2025-03-19 18:31:41.935,701, 379, 633, -10, 12, 17, -7, 2, 17, 974, 963, 300,I
2025-03-19 18:31:41.943,701, 377, 570, -8, 13, -2, -7, 6, 15, 973, 960, 340,I
2025-03-19 18:31:41.952,868, 142, 304, -3, 34, -38, -6, 5, 14, 971, 957, 403,I
2025-03-19 18:31:41.964,799, 361, 232, -7, 55, -61, -8, 5, 13, 969, 953, 450,I
2025-03-19 18:31:41.967,657, 666, 336, -16, 60, -61, -8, 4, 12, 966, 947, 462,I
2025-03-19 18:31:41.980,582, 696, 375, -27, 58, -54, -6, 4, 12, 963, 938, 461,I
2025-03-19 18:31:42.258,599, 562, 533, -14, -16, -4, -7, 4, 14, 942, 887, 386,J
2025-03-19 18:31:42.267,578, 537, 566, -6, -22, -1, -9, 5, 13, 942, 885, 380,J
2025-03-19 18:31:42.277,606, 546, 624, 1, -31, 5, -7, 3, 16, 944, 889, 373,J
2025-03-19 18:31:42.285,603, 527, 688, 14, -44, 13, -7, 5, 16, 947, 903, 374,J
2025-03-19 18:31:42.294,767, 525, 566, 18, -34, 3, -7, 4, 15, 953, 921, 310,J
2025-03-19 18:31:42.297,1061, 174, 391, 8, -19, -16, -9, 6, 15, 959, 930, 324,J
2025-03-19 18:31:42.313,823, 681, 599, 17, -28, -12, -6, 3, 18, 963, 942, 307,J
2025-03-19 18:31:42.318,915, 583, 236, 0, -24, -4, -10, 4, 16, 965, 952, 326,J
2025-03-19 18:31:42.328,1002, 680, 370, -2, -21, 3, -10, 4, 16, 972, 958, 324,J
2025-03-19 18:31:42.340,981, 942, 424, -23, -21, 22, -7, 4, 16, 974, 963, 399,J
2025-03-19 18:31:42.348,1096, 1039, 258, -58, -20, 44, -8, 4, 15, 975, 968, 344,J
2025-03-19 18:31:42.358,727, 542, 85, -71, -9, 43, -7, 4, 17, 977, 970, 285,J
2025-03-19 18:31:42.365,640, 576, 344, -32, 0, 45, -8, 5, 16, 977, 970, 258,J
2025-03-19 18:31:42.374,509, 461, 250, -58, 8, 36, -8, 5, 17, 977, 970, 197,J
2025-03-19 18:31:42.381,694, 448, 497, -17, 11, 32, -8, 5, 17, 978, 970, 182,J
2025-03-19 18:31:42.394,576, 580, 537, -26, 7, 25, -8, 5, 16, 976, 971, 175,J
2025-03-19 18:31:42.400,600, 369, 587, -1, 7, 16, -10, 7, 14, 976, 969, 220,J
2025-03-19 18:31:42.410,570, 497, 598, 4, 7, 9, -9, 5, 17, 975, 968, 246,J
2025-03-19 18:31:42.418,614, 487, 590, 9, 4, 3, -9, 5, 17, 971, 966, 272,J
2025-03-19 18:31:42.427,562, 490, 542, 5, 4, -7, -8, 6, 15, 970, 964, 319,J
2025-03-19 18:31:42.437,543, 182, 487, 25, 4, -31, -8, 5, 16, 967, 961, 389,J
2025-03-19 18:31:42.446,640, 236, 399, 40, 8, -51, -8, 4, 13, 966, 959, 477,J
2025-03-19 18:31:42.454,611, 492, 402, 38, 13, -59, -8, 6, 16, 965, 952, 524,J
2025-03-19 18:31:42.464,654, 660, 432, 17, 13, -54, -9, 4, 15, 962, 946, 518,J
2025-03-19 18:31:42.472,670, 711, 429, 1, 10, -38, -8, 3, 16, 961, 938, 515,J
2025-03-19 18:31:42.481,771, 644, 513, 7, 5, -18, -8, 4, 16, 961, 939, 530,J
2025-03-19 18:31:42.491,805, 621, 639, 10, -2, -1, -8, 3, 16, 963, 941, 533,J
2025-03-19 18:31:42.500,796, 515, 683, 7, -13, 5, -10, 4, 16, 966, 946, 520,J
2025-03-19 18:31:42.509,911, 254, 504, 16, -13, -7, -11, 5, 17, 969, 950, 539,J
2025-03-19 18:31:42.516,861, 593, 608, 27, -14, 4, -11, 5, 17, 972, 957, 563,J
2025-03-19 18:31:42.526,908, 975, 402, 5, -12, 21, -9, 4, 16, 974, 963, 549,J
2025-03-19 18:31:42.534,838, 746, 313, -16, -7, 26, -9, 4, 17, 977, 965, 532,J
2025-03-19 18:31:42.545,688, 737, 321, -20, 0, 33, -10, 2, 16, 978, 969, 474,J
2025-03-19 18:31:42.549,637, 613, 365, -18, -5, 25, -10, 4, 18, 978, 969, 390,J
2025-03-19 18:31:42.562,523, 542, 317, -5, 3, 22, -9, 5, 16, 980, 970, 374,J
2025-03-19 18:31:42.568,577, 605, 428, -5, 2, 16, -8, 5, 17, 979, 970, 342,J
2025-03-19 18:31:42.578,631, 647, 389, -6, 5, 16, -11, 4, 16, 981, 970, 279,J
2025-03-19 18:31:42.583,631, 649, 456, -13, 7, 15, -9, 5, 17, 981, 970, 265,J
2025-03-19 18:31:42.595,633, 446, 458, -3, 6, 9, -7, 5, 16, 979, 971, 250,J
2025-03-19 18:31:42.600,715, 541, 520, 3, 4, 6, -7, 5, 16, 980, 969, 276,J
2025-03-19 18:31:42.615,715, 597, 490, 0, 3, 8, -10, 4, 16, 977, 969, 335,J
2025-03-19 18:31:42.624,686, 526, 424, -1, 5, 6, -9, 4, 15, 976, 967, 365,J
2025-03-19 18:31:42.631,708, 450, 418, 7, 6, 1, -10, 4, 16, 975, 967, 389,J
2025-03-19 18:31:42.641,676, 435, 451, 14, 7, -8, -8, 5, 16, 972, 967, 449,J
2025-03-19 18:31:42.648,621, 384, 458, 28, 6, -19, -9, 5, 15, 969, 963, 511,J
2025-03-19 18:31:42.660,657, 432, 456, 37, 5, -24, -7, 5, 16, 967, 962, 550,J
2025-03-19 18:31:42.667,700, 457, 586, 31, -2, -28, -9, 6, 15, 967, 959, 567,J
2025-03-19 18:31:42.676,680, 581, 468, 26, -4, -26, -7, 4, 14, 965, 958, 586,J
2025-03-19 18:31:42.684,722, 618, 506, 18, -3, -21, -9, 5, 15, 965, 958, 589,J
2025-03-19 18:31:42.693,688, 639, 484, 9, -3, -13, -9, 5, 15, 965, 957, 588,J
2025-03-19 18:31:42.699,723, 593, 454, 2, -1, -7, -9, 3, 15, 966, 958, 586,J
2025-03-19 18:31:42.710,744, 504, 537, 2, -3, -5, -9, 4, 15, 969, 960, 583,J
2025-03-19 18:31:42.718,744, 477, 524, 4, -5, -5, -7, 3, 16, 970, 961, 556,J
2025-03-19 18:31:42.727,785, 587, 469, 1, -3, -1, -9, 3, 17, 974, 962, 543,J
2025-03-19 18:31:42.737,859, 610, 495, 4, 1, 13, -8, 3, 16, 975, 965, 458,J
2025-03-19 18:31:42.746,840, 734, 531, -30, 9, 30, -10, 5, 16, 977, 966, 303,J
2025-03-19 18:31:42.754,496, 521, 247, -33, 21, 33, -7, 3, 17, 978, 967, 195,J
2025-03-19 18:31:42.762,726, 523, 478, -17, 22, 38, -9, 6, 16, 979, 967, 73,J
2025-03-19 18:31:42.774,649, 548, 521, -8, 23, 37, -9, 3, 17, 983, 966, 67,J
2025-03-19 18:31:42.781,649, 229, 633, -23, 21, 33, -9, 3, 17, 983, 965, 46,J
2025-03-19 18:31:42.791,611, 697, 235, 9, 24, 24, -10, 5, 16, 983, 965, 63,J
2025-03-19 18:31:42.799,672, 1059, 343, -35, 33, 32, -7, 4, 14, 983, 962, 78,J
2025-03-19 18:31:42.808,815, 754, 342, -32, 33, 37, -8, 6, 14, 982, 962, 68,J
2025-03-19 18:31:42.816,744, 348, 278, -20, 25, 28, -7, 5, 18, 982, 960, 80,J
2025-03-19 18:31:42.828,665, 570, 242, -29, 19, 19, -7, 4, 15, 981, 957, 54,J
2025-03-19 18:31:42.831,671, 592, 138, -33, 29, 17, -7, 5, 15, 979, 953, 63,J
2025-03-19 18:31:42.843,645, 488, 457, -29, 27, 9, -8, 6, 14, 978, 945, 58,J
2025-03-19 18:31:42.852,666, 417, 411, -20, 26, -3, -8, 5, 15, 973, 935, 56,J
2025-03-19 18:31:42.861,489, 20, 710, 3, 5, -31, -7, 7, 13, 971, 926, 40,J
2025-03-19 18:31:42.869,936, 154, 622, 41, -2, -48, -6, 4, 15, 968, 916, 37,J
2025-03-19 18:31:42.878,921, 352, 669, 50, -14, -51, -6, 4, 15, 962, 911, 133,J
2025-03-19 18:31:42.889,927, 509, 532, 50, -11, -48, -10, 7, 15, 956, 910, 291,J
2025-03-19 18:31:42.898,1027, 627, 246, 39, 10, -45, -7, 4, 17, 945, 908, 350,J
2025-03-19 18:31:42.906,1024, 655, 91, 17, 29, -44, -7, 6, 14, 934, 907, 355,J
2025-03-19 18:31:42.914,958, 632, 113, -10, 55, -41, -7, 3, 15, 931, 903, 348,J
2025-03-19 18:31:42.924,811, 620, 253, -30, 68, -37, -8, 4, 14, 930, 901, 351,J
2025-03-19 18:31:42.932,620, 562, 413, -38, 67, -33, -5, 4, 15, 930, 894, 337,J
2025-03-19 18:31:42.942,519, 551, 567, -30, 60, -29, -7, 5, 13, 930, 889, 330,J
2025-03-19 18:31:42.951,479, 570, 794, -22, 47, -26, -5, 3, 11, 929, 883, 326,J
2025-03-19 18:31:42.959,493, 644, 902, -14, 29, -22, -7, 4, 10, 927, 880, 300,J
2025-03-19 18:31:42.968,461, 671, 873, -14, 12, -14, -8, 4, 10, 927, 876, 314,J
2025-03-19 18:31:42.976,401, 627, 826, -8, -3, -6, -8, 4, 10, 926, 876, 304,J
2025-03-19 18:31:43.254,681, 461, 597, 1, -34, 7, -7, 4, 15, 947, 935, 510,K
2025-03-19 18:31:43.258,961, 201, 430, 17, -21, -12, -9, 3, 15, 951, 935, 519,K
2025-03-19 18:31:43.271,692, 620, 567, 12, -24, -11, -7, 2, 14, 954, 937, 481,K
2025-03-19 18:31:43.277,718, 541, 388, 8, -20, -9, -7, 2, 14, 957, 934, 456,K
2025-03-19 18:31:43.291,740, 460, 335, 21, -10, -11, -11, 4, 15, 960, 933, 464,K
2025-03-19 18:31:43.299,719, 674, 331, 35, 4, 1, -9, 3, 18, 963, 928, 405,K
2025-03-19 18:31:43.308,832, 567, 525, 31, 10, 10, -10, 3, 16, 965, 929, 391,K
2025-03-19 18:31:43.316,700, 548, 402, 12, 16, 12, -8, 2, 19, 967, 924, 358,K
2025-03-19 18:31:43.324,577, 400, 454, 34, 22, 15, -9, 5, 14, 967, 922, 274,K
2025-03-19 18:31:43.331,705, 702, 453, 28, 30, 31, -8, 2, 17, 969, 918, 96,K
2025-03-19 18:31:43.345,766, 589, 479, 9, 34, 24, -9, 5, 16, 971, 912, 90,K
2025-03-19 18:31:43.352,740, 704, 333, 17, 29, 31, -8, 4, 17, 971, 909, 73,K
2025-03-19 18:31:43.360,654, 904, 206, -14, 31, 35, -9, 4, 16, 970, 905, 47,K
2025-03-19 18:31:43.369,872, 736, 336, -44, 19, 27, -9, 4, 16, 972, 904, 59,K
2025-03-19 18:31:43.376,815, 479, 103, -14, 18, 19, -7, 2, 15, 970, 913, 61,K
2025-03-19 18:31:43.388,853, 860, 231, -33, 21, 29, -9, 7, 15, 970, 927, 66,K
2025-03-19 18:31:43.397,808, 769, 261, -57, 13, 31, -7, 6, 15, 970, 943, 80,K
2025-03-19 18:31:43.406,860, 672, 481, -67, 8, 29, -9, 5, 16, 970, 954, 60,K
2025-03-19 18:31:43.413,819, 583, 638, -63, -30, 17, -8, 5, 15, 972, 962, 65,K
2025-03-19 18:31:43.422,788, 299, 437, -56, -20, 11, -8, 5, 13, 975, 968, 52,K
2025-03-19 18:31:43.431,447, 276, 1156, -61, -40, -1, -9, 5, 16, 974, 971, 57,K
2025-03-19 18:31:43.442,625, 362, 534, -47, -45, -16, -9, 4, 14, 976, 973, 54,K
2025-03-19 18:31:43.450,541, 222, 457, -22, -38, -21, -8, 5, 16, 976, 974, 43,K
2025-03-19 18:31:43.459,606, 485, 865, -4, -38, -12, -9, 5, 14, 976, 976, 40,K
2025-03-19 18:31:43.467,618, 393, 507, -9, -31, -11, -9, 5, 14, 975, 976, 50,K
2025-03-19 18:31:43.476,611, 339, 509, 14, -24, -16, -9, 5, 16, 973, 975, 90,K
2025-03-19 18:31:43.484,660, 619, 353, 23, -12, -8, -8, 6, 15, 972, 971, 89,K
2025-03-19 18:31:43.492,718, 497, 515, 22, -5, -7, -9, 6, 17, 972, 970, 95,K
2025-03-19 18:31:43.503,722, 444, 479, 34, -6, -11, -9, 6, 15, 969, 967, 94,K
2025-03-19 18:31:43.511,696, 493, 374, 37, 0, -14, -10, 3, 16, 967, 962, 89,K
2025-03-19 18:31:43.521,611, 455, 287, 45, 10, -23, -9, 5, 17, 965, 954, 167,K
2025-03-19 18:31:43.529,553, 459, 351, 63, 21, -28, -9, 5, 18, 962, 947, 288,K
2025-03-19 18:31:43.537,635, 560, 390, 59, 33, -34, -10, 4, 15, 959, 942, 351,K
2025-03-19 18:31:43.548,653, 522, 471, 47, 39, -42, -10, 4, 16, 960, 935, 408,K
2025-03-19 18:31:43.556,560, 595, 537, 31, 31, -45, -10, 4, 16, 956, 925, 418,K
2025-03-19 18:31:43.561,673, 669, 594, 32, 11, -27, -8, 4, 14, 957, 925, 433,K
2025-03-19 18:31:43.573,624, 859, 684, 15, -12, 3, -9, 4, 16, 962, 929, 422,K
2025-03-19 18:31:43.578,1126, 453, 476, -9, -15, 2, -8, 3, 16, 966, 935, 405,K
2025-03-19 18:31:43.590,892, 462, 470, 2, -13, -5, -7, 4, 16, 970, 944, 413,K
2025-03-19 18:31:43.599,880, 678, 483, -15, -16, 10, -8, 4, 15, 974, 952, 324,K
2025-03-19 18:31:43.610,967, 692, 324, -31, -4, 23, -9, 5, 17, 977, 960, 236,K
2025-03-19 18:31:43.617,1009, 1020, 306, -38, 2, 39, -7, 4, 15, 981, 964, 64,K
2025-03-19 18:31:43.627,887, 624, 413, -74, 6, 49, -8, 4, 19, 982, 966, 63,K
2025-03-19 18:31:43.632,729, 602, 433, -54, 10, 62, -8, 3, 17, 982, 966, 59,K
2025-03-19 18:31:43.643,581, 661, 264, -70, 18, 65, -9, 6, 16, 983, 966, 55,K
2025-03-19 18:31:43.655,704, 474, 233, -36, 28, 60, -9, 6, 16, 983, 967, 62,K
2025-03-19 18:31:43.663,678, 437, 355, -21, 28, 45, -9, 3, 16, 982, 966, 80,K
2025-03-19 18:31:43.671,608, 348, 550, -26, 24, 36, -10, 5, 15, 982, 964, 89,K
2025-03-19 18:31:43.679,627, 356, 464, -7, 22, 16, -9, 4, 16, 981, 962, 92,K
2025-03-19 18:31:43.688,625, 395, 518, 3, 20, 4, -10, 5, 15, 978, 957, 91,K
2025-03-19 18:31:43.696,746, 207, 390, 1, 27, -32, -9, 7, 14, 976, 953, 74,K
2025-03-19 18:31:43.703,865, 173, 322, 0, 41, -66, -9, 6, 15, 975, 950, 82,K
2025-03-19 18:31:43.715,675, 477, 346, 4, 48, -74, -8, 7, 13, 971, 947, 61,K
2025-03-19 18:31:43.725,532, 648, 393, 1, 47, -67, -7, 5, 12, 970, 940, 216,K
2025-03-19 18:31:43.733,498, 618, 465, -8, 44, -59, -8, 3, 13, 968, 931, 277,K
2025-03-19 18:31:44.008,727, 628, 517, -1, -14, -2, -7, 4, 16, 969, 956, 661,L
2025-03-19 18:31:44.018,726, 411, 401, 4, -13, -7, -8, 4, 16, 970, 953, 656,L
2025-03-19 18:31:44.027,739, 418, 482, 18, -9, -9, -8, 3, 16, 972, 954, 652,L
2025-03-19 18:31:44.035,712, 565, 470, 24, -6, -6, -10, 4, 17, 974, 954, 652,L
2025-03-19 18:31:44.047,719, 633, 450, 21, 2, 3, -9, 3, 17, 975, 954, 621,L
2025-03-19 18:31:44.056,776, 673, 478, 15, 7, 9, -10, 4, 15, 976, 952, 574,L
2025-03-19 18:31:44.064,736, 517, 476, 28, 10, 7, -10, 4, 15, 975, 952, 532,L
2025-03-19 18:31:44.073,612, 772, 425, 22, 19, 12, -8, 4, 18, 978, 948, 503,L
2025-03-19 18:31:44.081,697, 390, 635, 48, 15, 8, -8, 4, 16, 976, 947, 489,L
2025-03-19 18:31:44.090,708, 739, 332, 44, 28, 21, -8, 3, 17, 977, 942, 435,L
2025-03-19 18:31:44.098,914, 688, 491, 11, 29, 28, -10, 2, 16, 976, 942, 321,L
2025-03-19 18:31:44.108,919, 442, 343, 11, 26, 15, -8, 4, 16, 977, 940, 305,L
2025-03-19 18:31:44.118,703, 618, 206, 17, 30, 21, -8, 2, 19, 978, 938, 188,L
2025-03-19 18:31:44.127,621, 841, 287, -6, 26, 25, -9, 5, 17, 977, 941, 53,L
2025-03-19 18:31:44.132,909, 737, 185, -29, 23, 24, -9, 5, 16, 978, 942, 63,L
2025-03-19 18:31:44.144,774, 498, 322, -19, 19, 17, -8, 5, 16, 978, 948, 44,L
2025-03-19 18:31:44.155,807, 699, 238, -22, 23, 24, -8, 4, 17, 979, 954, 55,L
2025-03-19 18:31:44.163,822, 777, 523, -44, 16, 31, -8, 4, 17, 978, 958, 57,L
2025-03-19 18:31:44.172,749, 605, 455, -54, 12, 35, -7, 2, 15, 980, 964, 74,L
2025-03-19 18:31:44.179,657, 582, 428, -53, 15, 35, -7, 5, 14, 980, 967, 73,L
2025-03-19 18:31:44.188,686, 440, 645, -35, 7, 32, -8, 6, 15, 980, 969, 67,L
2025-03-19 18:31:44.197,700, 425, 642, -28, -6, 23, -8, 5, 15, 980, 969, 56,L
2025-03-19 18:31:44.208,591, 223, 504, 2, -7, 10, -9, 5, 15, 980, 971, 64,L
2025-03-19 18:31:44.216,654, 445, 455, 19, 0, 4, -8, 5, 14, 979, 970, 52,L
2025-03-19 18:31:44.225,756, 537, 466, 25, 4, 4, -7, 5, 14, 977, 966, 50,L
2025-03-19 18:31:44.233,710, 536, 407, 24, 9, 2, -7, 4, 14, 976, 962, 247,L
2025-03-19 18:31:44.242,714, 461, 393, 30, 14, -4, -8, 5, 14, 974, 958, 348,L
2025-03-19 18:31:44.250,789, 390, 375, 25, 21, -23, -8, 5, 14, 970, 954, 441,L
2025-03-19 18:31:44.261,931, 257, 238, 25, 38, -53, -7, 5, 14, 967, 950, 488,L
2025-03-19 18:31:44.268,842, 472, 240, 16, 53, -69, -8, 5, 14, 967, 945, 521,L
2025-03-19 18:31:44.278,698, 666, 344, -2, 57, -65, -7, 4, 13, 964, 939, 563,L
2025-03-19 18:31:44.284,608, 729, 401, -25, 55, -53, -7, 4, 12, 962, 934, 559,L
2025-03-19 18:31:44.294,480, 638, 523, -34, 49, -42, -6, 4, 14, 961, 927, 529,L
2025-03-19 18:31:44.301,536, 579, 736, -26, 36, -33, -7, 4, 10, 956, 922, 501,L
2025-03-19 18:31:44.308,519, 614, 880, -19, 17, -25, -6, 3, 11, 954, 918, 502,L
2025-03-19 18:31:44.323,509, 563, 819, -14, 0, -22, -7, 4, 9, 952, 914, 500,L
2025-03-19 18:31:44.606,729, 535, 589, 24, -16, -10, -9, 4, 16, 967, 942, 533,M
2025-03-19 18:31:44.613,695, 576, 519, 27, -9, 0, -9, 4, 15, 972, 942, 530,M
2025-03-19 18:31:44.625,948, 730, 638, 12, -1, 6, -8, 4, 18, 973, 939, 463,M
2025-03-19 18:31:44.631,648, 792, 248, 38, 19, 29, -8, 4, 18, 975, 939, 447,M
2025-03-19 18:31:44.643,582, 529, 473, 23, 28, 33, -8, 4, 15, 974, 939, 380,M
2025-03-19 18:31:44.650,890, 711, 381, 19, 34, 38, -10, 4, 16, 975, 938, 329,M
2025-03-19 18:31:44.659,802, 707, 346, -8, 39, 51, -9, 2, 16, 976, 938, 174,M
2025-03-19 18:31:44.667,512, 595, 230, -8, 41, 40, -10, 3, 17, 974, 938, 120,M
2025-03-19 18:31:44.679,844, 866, 346, -12, 36, 38, -9, 4, 15, 973, 936, 67,M
2025-03-19 18:31:44.687,817, 427, 323, -24, 22, 23, -8, 5, 14, 972, 936, 70,M
2025-03-19 18:31:44.694,738, 517, 210, -12, 17, 13, -8, 3, 15, 971, 937, 74,M
2025-03-19 18:31:44.703,743, 689, 254, -18, 19, 11, -8, 5, 15, 967, 939, 161,M
2025-03-19 18:31:44.710,721, 693, 544, -35, 5, 4, -7, 3, 15, 966, 940, 164,M
2025-03-19 18:31:44.721,638, 305, 535, -22, -12, -20, -8, 7, 15, 964, 939, 305,M
2025-03-19 18:31:44.730,604, 60, 721, 3, -29, -46, -8, 7, 15, 961, 938, 394,M
2025-03-19 18:31:44.740,562, 169, 704, 28, -43, -60, -7, 4, 16, 959, 941, 500,M
2025-03-19 18:31:44.748,647, 535, 563, 17, -40, -58, -8, 5, 16, 961, 943, 532,M
2025-03-19 18:31:44.757,698, 852, 545, -4, -34, -36, -8, 3, 16, 962, 951, 571,M
2025-03-19 18:31:44.766,662, 813, 454, -25, -25, -17, -8, 6, 15, 964, 957, 545,M
2025-03-19 18:31:44.774,803, 599, 470, -28, -15, -7, -7, 3, 15, 967, 960, 539,M
2025-03-19 18:31:44.781,729, 520, 655, -40, -19, -6, -9, 2, 15, 970, 964, 511,M
2025-03-19 18:31:44.793,777, 354, 645, -31, -24, -8, -8, 3, 16, 973, 968, 496,M
2025-03-19 18:31:44.798,734, 363, 569, -12, -21, -12, -9, 5, 16, 975, 969, 496,M
2025-03-19 18:31:44.809,708, 413, 601, 4, -24, -15, -8, 4, 16, 977, 969, 467,M
2025-03-19 18:31:44.819,818, 672, 505, 20, -24, 3, -9, 5, 16, 979, 969, 467,M
2025-03-19 18:31:44.827,815, 969, 133, 3, -8, 16, -9, 5, 16, 981, 969, 368,M
2025-03-19 18:31:44.839,776, 550, 322, 20, 4, 28, -8, 3, 16, 981, 968, 354,M
2025-03-19 18:31:44.847,682, 954, 126, 0, 23, 40, -8, 4, 16, 980, 968, 253,M
2025-03-19 18:31:44.855,755, 848, 291, -25, 26, 44, -8, 3, 18, 982, 969, 152,M
2025-03-19 18:31:44.863,684, 425, 246, -8, 27, 41, -9, 6, 17, 982, 969, 61,M
2025-03-19 18:31:44.872,740, 633, 609, -20, 11, 23, -9, 4, 17, 982, 967, 51,M
2025-03-19 18:31:44.881,763, 827, 206, -27, 12, 30, -10, 5, 16, 982, 969, 42,M
2025-03-19 18:31:44.892,719, 701, 308, -40, 12, 27, -8, 2, 18, 982, 970, 55,M
2025-03-19 18:31:44.898,641, 565, 353, -35, 10, 19, -10, 5, 16, 980, 972, 43,M
2025-03-19 18:31:44.909,686, 478, 464, -29, 5, 7, -7, 3, 17, 980, 971, 32,M
2025-03-19 18:31:44.914,598, 324, 790, -17, -14, -8, -7, 3, 17, 980, 970, 24,M
2025-03-19 18:31:44.926,550, 152, 757, 1, -23, -20, -10, 6, 14, 978, 972, 133,M
2025-03-19 18:31:44.931,633, 509, 537, -1, -18, -14, -8, 4, 15, 979, 971, 184,M
2025-03-19 18:31:44.945,678, 479, 641, 10, -14, -7, -9, 6, 15, 977, 970, 184,M
2025-03-19 18:31:44.954,662, 311, 685, 19, -14, -9, -7, 5, 16, 981, 972, 204,M
2025-03-19 18:31:44.962,709, 370, 680, 30, -16, -11, -10, 6, 15, 981, 972, 206,M
2025-03-19 18:31:44.968,686, 628, 422, 41, -11, 1, -9, 4, 17, 980, 970, 201,M
2025-03-19 18:31:44.978,813, 733, 326, 35, 3, 15, -10, 6, 14, 981, 970, 177,M
2025-03-19 18:31:44.983,678, 748, 114, 17, 20, 29, -9, 5, 17, 982, 969, 55,M
2025-03-19 18:31:44.997,895, 660, 227, 8, 30, 29, -7, 7, 16, 982, 969, 57,M
2025-03-19 18:31:45.006,791, 817, 163, -2, 34, 35, -8, 4, 17, 983, 969, 49,M
2025-03-19 18:31:45.013,744, 599, 314, -11, 33, 30, -8, 4, 17, 981, 968, 25,M
2025-03-19 18:31:45.023,759, 486, 339, -3, 31, 20, -8, 7, 15, 981, 967, 50,M
2025-03-19 18:31:45.031,766, 611, 441, -7, 27, 16, -8, 4, 16, 981, 965, 62,M
2025-03-19 18:31:45.041,758, 598, 478, -16, 22, 11, -9, 6, 14, 978, 963, 45,M
2025-03-19 18:31:45.051,797, 335, 473, -20, 21, -11, -9, 5, 15, 977, 962, 43,M
2025-03-19 18:31:45.059,842, 231, 399, -21, 28, -37, -9, 6, 14, 976, 962, 92,M
2025-03-19 18:31:45.067,723, 407, 436, -20, 31, -49, -8, 5, 15, 975, 960, 218,M
2025-03-19 18:31:45.076,602, 556, 462, -16, 30, -46, -8, 4, 13, 973, 958, 261,M
2025-03-19 18:31:45.084,562, 570, 480, -14, 27, -41, -7, 6, 15, 972, 955, 288,M
2025-03-19 18:31:45.092,602, 515, 605, -11, 21, -39, -7, 6, 13, 968, 953, 380,M
2025-03-19 18:31:45.101,628, 491, 708, -6, 10, -39, -7, 6, 13, 966, 948, 407,M
2025-03-19 18:31:45.113,642, 481, 752, 2, -1, -34, -9, 4, 13, 965, 947, 455,M
2025-03-19 18:31:45.121,581, 574, 682, -4, -6, -25, -8, 4, 10, 965, 947, 463,M
2025-03-19 18:31:45.389,667, 542, 513, 4, -20, 11, -7, 2, 16, 945, 918, 571,N
2025-03-19 18:31:45.397,694, 501, 514, 9, -18, 10, -8, 3, 13, 944, 921, 567,N
2025-03-19 18:31:45.412,736, 491, 529, 10, -17, 5, -8, 3, 16, 946, 926, 565,N
2025-03-19 18:31:45.419,791, 436, 470, 8, -11, -5, -10, 4, 14, 948, 926, 547,N
2025-03-19 18:31:45.429,715, 571, 494, 10, -10, -5, -7, 3, 16, 949, 926, 536,N
2025-03-19 18:31:45.441,708, 576, 443, 10, -9, -3, -9, 3, 15, 953, 926, 499,N
2025-03-19 18:31:45.449,696, 544, 403, 12, -5, -3, -7, 2, 18, 957, 925, 477,N
2025-03-19 18:31:45.458,697, 634, 399, 11, 0, 2, -8, 4, 15, 960, 927, 435,N
2025-03-19 18:31:45.465,680, 503, 643, 9, -12, -5, -8, 4, 15, 963, 926, 428,N
2025-03-19 18:31:45.474,703, 571, 346, 17, -3, 0, -7, 3, 16, 963, 930, 385,N
2025-03-19 18:31:45.482,747, 681, 467, 10, 6, 9, -9, 4, 16, 967, 931, 361,N
2025-03-19 18:31:45.491,606, 651, 418, 0, 13, 21, -8, 1, 16, 968, 930, 336,N
2025-03-19 18:31:45.498,838, 578, 446, 5, 14, 23, -9, 3, 15, 971, 931, 307,N
2025-03-19 18:31:45.511,809, 719, 296, 11, 27, 24, -8, 2, 16, 971, 929, 211,N
2025-03-19 18:31:45.518,808, 585, 434, 24, 21, 28, -7, 4, 16, 973, 934, 181,N
2025-03-19 18:31:45.527,798, 757, 366, -13, 26, 39, -8, 4, 17, 973, 933, 70,N
2025-03-19 18:31:45.533,800, 524, 404, -19, 24, 34, -10, 2, 16, 974, 931, 55,N
2025-03-19 18:31:45.544,713, 735, 41, -15, 38, 43, -8, 4, 15, 974, 933, 27,N
2025-03-19 18:31:45.556,696, 589, 456, -22, 36, 44, -8, 4, 15, 974, 932, 30,N
2025-03-19 18:31:45.564,609, 468, 471, -20, 28, 30, -9, 5, 15, 971, 927, 36,N
2025-03-19 18:31:45.572,784, 299, 500, 6, 21, 18, -8, 4, 16, 972, 928, 50,N
2025-03-19 18:31:45.579,643, 545, 638, -13, 12, 13, -7, 4, 15, 973, 927, 41,N
2025-03-19 18:31:45.589,705, 493, 472, 0, 14, 14, -7, 5, 16, 972, 925, 46,N
2025-03-19 18:31:45.596,652, 632, 518, -9, 14, 19, -7, 6, 15, 972, 926, 31,N
2025-03-19 18:31:45.605,664, 543, 486, -14, 15, 21, -7, 5, 16, 973, 929, 48,N
2025-03-19 18:31:45.615,764, 457, 519, -14, 14, 19, -7, 6, 13, 972, 930, 49,N
2025-03-19 18:31:45.625,658, 535, 395, 2, 11, 12, -7, 6, 15, 972, 928, 72,N
2025-03-19 18:31:45.632,795, 532, 427, 10, 10, 11, -8, 5, 14, 971, 924, 41,N
2025-03-19 18:31:45.642,740, 654, 340, -4, 13, 13, -7, 5, 15, 970, 922, 33,N
2025-03-19 18:31:45.650,771, 622, 367, -10, 12, 10, -7, 5, 15, 965, 924, 50,N
2025-03-19 18:31:45.659,744, 586, 364, -15, 10, 4, -7, 5, 14, 965, 921, 73,N
2025-03-19 18:31:45.668,746, 423, 541, -18, 0, -10, -8, 5, 14, 962, 921, 60,N
2025-03-19 18:31:45.677,730, 147, 466, 0, -5, -41, -8, 5, 13, 960, 920, 53,N
2025-03-19 18:31:45.685,724, 182, 444, 15, -6, -68, -7, 5, 14, 957, 919, 57,N
2025-03-19 18:31:45.693,658, 423, 451, 15, -8, -79, -8, 5, 15, 955, 925, 211,N
2025-03-19 18:31:45.702,566, 708, 491, -4, -16, -70, -8, 5, 15, 956, 927, 302,N
2025-03-19 18:31:45.710,473, 783, 547, -21, -26, -54, -8, 4, 13, 957, 931, 382,N
2025-03-19 18:31:45.723,454, 710, 630, -21, -38, -37, -8, 4, 13, 959, 936, 420,N
2025-03-19 18:31:45.731,481, 657, 717, -16, -50, -20, -8, 4, 16, 960, 943, 473,N
2025-03-19 18:31:45.740,534, 584, 723, -8, -59, -9, -8, 4, 16, 961, 945, 498,N
2025-03-19 18:31:45.748,611, 544, 656, -2, -63, -3, -9, 4, 14, 962, 952, 523,N
2025-03-19 18:31:45.757,1207, 353, 198, -33, -35, -16, -8, 3, 15, 967, 957, 521,N
2025-03-19 18:31:45.765,827, 745, 430, -24, -16, -10, -8, 4, 15, 968, 963, 516,N
2025-03-19 18:31:45.776,714, 651, 550, -40, -22, -1, -7, 2, 15, 970, 964, 499,N
2025-03-19 18:31:45.782,782, 343, 278, -24, -17, -3, -8, 5, 16, 973, 967, 484,N
2025-03-19 18:31:45.793,778, 397, 513, -10, -6, -9, -9, 4, 16, 976, 968, 485,N
2025-03-19 18:31:45.798,748, 424, 587, 0, -13, -10, -8, 5, 18, 977, 968, 472,N
2025-03-19 18:31:45.811,807, 432, 521, 17, -16, -4, -8, 4, 17, 979, 969, 475,N
2025-03-19 18:31:45.818,985, 792, 291, 18, -6, 23, -8, 5, 16, 982, 970, 403,N
2025-03-19 18:31:45.830,790, 586, 343, 25, 15, 38, -9, 3, 18, 981, 970, 311,N
2025-03-19 18:31:45.837,709, 944, 432, -8, 33, 57, -9, 3, 18, 982, 970, 156,N
2025-03-19 18:31:45.846,684, 568, 477, 8, 41, 70, -8, 7, 15, 982, 970, 52,N
2025-03-19 18:31:45.855,708, 526, 263, 13, 37, 65, -8, 3, 16, 984, 969, 43,N
2025-03-19 18:31:45.864,601, 504, 479, -2, 20, 47, -9, 5, 16, 983, 969, 45,N
2025-03-19 18:31:45.873,696, 902, 128, -24, 27, 53, -8, 5, 16, 984, 968, 45,N
2025-03-19 18:31:45.880,525, 519, 250, -17, 20, 39, -6, 6, 16, 984, 969, 45,N
2025-03-19 18:31:45.889,715, 809, 282, -31, 18, 42, -8, 5, 15, 982, 970, 45,N
2025-03-19 18:31:45.899,593, 505, 332, -51, 18, 29, -9, 6, 15, 983, 973, 34,N
2025-03-19 18:31:45.909,698, 696, 423, -57, 11, 23, -7, 5, 16, 983, 973, 38,N
2025-03-19 18:31:45.913,645, 401, 733, -70, -12, 6, -9, 8, 15, 981, 977, 39,N
2025-03-19 18:31:45.925,786, -69, 510, -32, -18, -27, -9, 8, 15, 982, 976, 42,N
2025-03-19 18:31:45.931,777, -162, 748, 14, -34, -58, -8, 5, 16, 980, 978, 73,N
2025-03-19 18:31:45.944,700, 407, 460, 24, -50, -66, -9, 6, 14, 980, 978, 66,N
2025-03-19 18:31:45.953,966, 561, 590, 13, -55, -49, -8, 5, 16, 979, 977, 75,N
2025-03-19 18:31:45.960,763, 678, 288, -6, -39, -42, -10, 6, 15, 977, 977, 76,N
2025-03-19 18:31:45.968,931, 475, 454, 20, -21, -30, -9, 5, 17, 978, 977, 242,N
2025-03-19 18:31:45.977,768, 366, 399, 31, -14, -29, -9, 5, 15, 974, 975, 336,N
2025-03-19 18:31:45.989,932, 519, 327, 41, -3, -27, -9, 3, 18, 970, 972, 450,N
2025-03-19 18:31:45.998,882, 626, 306, 34, 11, -23, -10, 4, 16, 970, 971, 498,N
2025-03-19 18:31:46.006,980, 539, 138, 19, 41, -27, -8, 6, 16, 969, 971, 503,N
2025-03-19 18:31:46.015,914, 563, 141, 0, 69, -32, -9, 6, 15, 969, 969, 507,N
2025-03-19 18:31:46.023,744, 699, 301, -15, 79, -27, -9, 6, 15, 968, 967, 482,N
2025-03-19 18:31:46.031,607, 706, 413, -26, 78, -18, -7, 4, 15, 967, 965, 439,N
2025-03-19 18:31:46.043,516, 613, 459, -26, 71, -13, -10, 4, 12, 966, 962, 428,N
2025-03-19 18:31:46.051,495, 617, 643, -19, 59, -10, -8, 3, 14, 965, 959, 419,N
2025-03-19 18:31:46.059,519, 600, 773, -16, 42, -7, -7, 5, 13, 965, 954, 420,N
2025-03-19 18:31:46.068,474, 591, 817, -12, 24, -3, -7, 4, 12, 963, 952, 424,N
2025-03-19 18:31:46.075,476, 571, 776, -6, 6, 1, -8, 4, 12, 962, 950, 416,N
2025-03-19 18:31:46.363,883, 678, 336, 41, 25, 10, -8, 4, 15, 969, 931, 431,O
2025-03-19 18:31:46.371,1351, 782, 90, 6, 34, 21, -8, 2, 16, 971, 937, 427,O
2025-03-19 18:31:46.380,914, 1064, 293, -18, 44, 47, -9, 3, 14, 974, 945, 400,O
2025-03-19 18:31:46.388,997, 1036, 144, -47, 49, 73, -8, 2, 16, 975, 948, 231,O
2025-03-19 18:31:46.396,683, 987, -34, -74, 49, 78, -10, 4, 15, 978, 953, 38,O
2025-03-19 18:31:46.407,891, 598, 458, -103, 40, 77, -10, 4, 15, 979, 957, 26,O
2025-03-19 18:31:46.413,672, 389, 114, -59, 32, 68, -8, 4, 15, 979, 962, 29,O
2025-03-19 18:31:46.424,433, 569, 451, -88, 18, 48, -8, 7, 14, 978, 966, 38,O
2025-03-19 18:31:46.432,556, 702, 542, -100, 11, 38, -7, 4, 15, 978, 969, 45,O
2025-03-19 18:31:46.442,533, 593, 617, -109, -8, 30, -8, 6, 11, 975, 970, 46,O
2025-03-19 18:31:46.450,351, 63, 493, -101, -12, 5, -7, 6, 13, 975, 972, 47,O
2025-03-19 18:31:46.461,520, 147, 899, -49, -27, -17, -10, 7, 12, 976, 972, 67,O
2025-03-19 18:31:46.469,470, 72, 955, -35, -36, -38, -7, 6, 14, 973, 974, 65,O
2025-03-19 18:31:46.477,545, 145, 540, -20, -42, -55, -8, 5, 12, 972, 974, 48,O
2025-03-19 18:31:46.484,572, 173, 780, 19, -53, -60, -9, 6, 15, 970, 973, 40,O
2025-03-19 18:31:46.493,727, 400, 545, 57, -41, -55, -8, 6, 13, 968, 969, 42,O
2025-03-19 18:31:46.501,672, 503, 569, 66, -34, -52, -8, 6, 13, 965, 964, 40,O
2025-03-19 18:31:46.513,555, 388, 257, 78, -22, -52, -9, 4, 17, 961, 958, 181,O
2025-03-19 18:31:46.522,753, 535, 289, 74, -13, -49, -8, 4, 14, 956, 948, 328,O
2025-03-19 18:31:46.531,866, 626, 206, 65, 1, -39, -9, 4, 18, 947, 942, 420,O
2025-03-19 18:31:46.539,976, 745, 158, 35, 19, -29, -8, 5, 15, 944, 938, 448,O
2025-03-19 18:31:46.547,1073, 678, 83, 7, 43, -26, -8, 3, 16, 944, 938, 455,O
2025-03-19 18:31:46.559,1015, 625, 141, -17, 65, -29, -9, 5, 14, 944, 938, 430,O
2025-03-19 18:31:46.565,844, 598, 288, -26, 74, -31, -7, 5, 15, 946, 935, 418,O
2025-03-19 18:31:46.576,691, 586, 375, -33, 76, -30, -9, 4, 12, 944, 935, 392,O
2025-03-19 18:31:46.580,606, 614, 444, -37, 73, -25, -7, 4, 14, 946, 928, 299,O
2025-03-19 18:31:46.593,562, 642, 571, -33, 64, -18, -7, 6, 11, 945, 924, 271,O
2025-03-19 18:31:46.598,512, 643, 709, -32, 48, -12, -7, 6, 11, 942, 921, 234,O
2025-03-19 18:31:46.607,455, 586, 796, -28, 30, -7, -7, 3, 11, 944, 919, 213,O
2025-03-19 18:31:46.619,416, 543, 795, -19, 13, -5, -7, 5, 9, 943, 916, 213,O
2025-03-19 18:31:46.629,413, 539, 791, -5, -3, -4, -7, 4, 10, 943, 912, 234,O
2025-03-19 18:31:46.630,455, 570, 724, 5, -13, -2, -8, 5, 10, 943, 911, 264,O
2025-03-19 18:31:46.646,506, 607, 640, 12, -18, 3, -6, 4, 10, 944, 908, 288,O
2025-03-19 18:31:46.928,516, 741, 436, -26, 40, 58, -8, 3, 16, 967, 930, 31,P
2025-03-19 18:31:46.928,610, 614, 338, -7, 47, 59, -9, 5, 15, 970, 930, 42,P
2025-03-19 18:31:46.944,562, 758, 310, 2, 48, 53, -9, 5, 15, 969, 932, 51,P
2025-03-19 18:31:46.953,622, 647, 458, -16, 38, 43, -7, 4, 15, 971, 935, 68,P
2025-03-19 18:31:46.961,738, 541, 269, -6, 28, 42, -8, 5, 14, 972, 937, 61,P
2025-03-19 18:31:46.968,680, 673, 276, -6, 25, 35, -8, 4, 16, 972, 939, 65,P
2025-03-19 18:31:46.978,615, 656, 282, -18, 21, 28, -8, 7, 14, 971, 939, 62,P
2025-03-19 18:31:46.989,708, 595, 347, -22, 18, 21, -8, 5, 15, 972, 940, 45,P
2025-03-19 18:31:46.998,706, 657, 326, -30, 17, 17, -7, 8, 13, 969, 943, 64,P
2025-03-19 18:31:47.006,695, 550, 484, -37, 11, 8, -7, 6, 15, 968, 945, 49,P
2025-03-19 18:31:47.014,467, 104, 686, -16, -11, -27, -7, 6, 13, 966, 946, 38,P
2025-03-19 18:31:47.023,744, -176, 603, 39, -38, -63, -8, 5, 14, 964, 946, 27,P
2025-03-19 18:31:47.031,777, 218, 606, 49, -53, -85, -8, 5, 14, 962, 952, 145,P
2025-03-19 18:31:47.042,766, 504, 613, 54, -62, -85, -8, 5, 14, 964, 953, 353,P
2025-03-19 18:31:47.051,1147, 817, 290, 40, -47, -61, -7, 4, 16, 966, 959, 401,P
2025-03-19 18:31:47.060,979, 966, 436, -10, -35, -35, -9, 7, 14, 967, 966, 434,P
2025-03-19 18:31:47.068,872, 750, 608, -49, -46, -15, -7, 2, 17, 970, 969, 343,P
2025-03-19 18:31:47.078,966, 334, 473, -45, -42, -11, -9, 5, 16, 973, 973, 260,P
2025-03-19 18:31:47.088,731, 538, 637, -44, -40, -5, -7, 4, 16, 975, 974, 214,P
2025-03-19 18:31:47.095,596, 433, 381, -32, -32, 0, -9, 5, 15, 977, 974, 72,P
2025-03-19 18:31:47.102,553, 475, 698, -10, -22, 3, -9, 4, 16, 978, 974, 49,P
2025-03-19 18:31:47.113,554, 507, 641, -5, -21, 0, -8, 4, 16, 980, 974, 53,P
2025-03-19 18:31:47.120,587, 591, 465, 10, -17, -1, -8, 4, 16, 982, 973, 40,P
2025-03-19 18:31:47.129,537, 607, 513, 21, -13, -1, -8, 4, 16, 981, 973, 33,P
2025-03-19 18:31:47.141,549, 806, 303, 19, 0, 7, -9, 5, 17, 983, 972, 51,P
2025-03-19 18:31:47.149,409, 774, 142, 22, 14, 18, -9, 5, 18, 981, 972, 38,P
2025-03-19 18:31:47.158,429, 773, 263, 4, 28, 27, -10, 5, 16, 982, 971, 42,P
2025-03-19 18:31:47.164,893, 475, 279, 3, 42, 27, -9, 5, 17, 981, 970, 36,P
2025-03-19 18:31:47.174,677, 516, 290, 6, 40, 18, -10, 4, 16, 979, 967, 41,P
2025-03-19 18:31:47.182,944, 599, 384, 7, 38, 19, -9, 3, 18, 980, 962, 44,P
2025-03-19 18:31:47.189,770, 280, 370, 4, 35, 7, -8, 5, 14, 977, 958, 40,P
2025-03-19 18:31:47.198,872, 460, 282, 17, 32, 1, -8, 4, 17, 975, 953, 92,P
2025-03-19 18:31:47.210,1006, 430, 318, 15, 31, -9, -10, 5, 15, 973, 950, 177,P
2025-03-19 18:31:47.217,1125, 295, 275, 4, 38, -31, -10, 5, 15, 971, 950, 230,P
2025-03-19 18:31:47.226,1115, 442, 274, -21, 49, -46, -9, 4, 15, 971, 952, 262,P
2025-03-19 18:31:47.234,894, 591, 301, -35, 56, -43, -8, 4, 15, 969, 953, 275,P
2025-03-19 18:31:47.247,660, 660, 395, -49, 56, -31, -8, 5, 14, 970, 953, 220,P
2025-03-19 18:31:47.256,505, 592, 604, -47, 48, -19, -7, 4, 12, 969, 952, 201,P
2025-03-19 18:31:47.263,480, 573, 852, -39, 31, -12, -7, 4, 12, 970, 953, 189,P
2025-03-19 18:31:47.272,447, 503, 978, -28, 13, -10, -7, 3, 11, 970, 954, 164,P
2025-03-19 18:31:47.279,393, 479, 960, -13, -5, -8, -6, 5, 13, 969, 951, 153,P
2025-03-19 18:31:47.561,922, 150, 407, 80, -7, -28, -10, 4, 14, 971, 947, 383,Q
2025-03-19 18:31:47.571,854, 592, 300, 85, 8, -11, -9, 4, 17, 974, 944, 361,Q
2025-03-19 18:31:47.579,826, 838, 229, 47, 20, 8, -9, 2, 17, 976, 945, 345,Q
2025-03-19 18:31:47.587,1184, 1125, -43, -3, 35, 35, -8, 3, 18, 977, 951, 292,Q
2025-03-19 18:31:47.596,907, 1113, -210, -18, 60, 78, -10, 4, 16, 979, 956, 39,Q
2025-03-19 18:31:47.603,758, 847, 117, -84, 64, 78, -8, 2, 17, 980, 959, 37,Q
2025-03-19 18:31:47.615,633, 640, 98, -77, 55, 78, -8, 5, 13, 981, 963, 49,Q
2025-03-19 18:31:47.624,770, 671, 272, -85, 41, 67, -7, 3, 15, 981, 964, 46,Q
2025-03-19 18:31:47.632,647, 109, 471, -61, 23, 36, -9, 5, 14, 981, 966, 40,Q
2025-03-19 18:31:47.641,495, 899, 485, -90, 18, 37, -8, 5, 14, 980, 970, 40,Q
2025-03-19 18:31:47.649,718, 621, 731, -93, 0, 30, -8, 5, 14, 982, 972, 50,Q
2025-03-19 18:31:47.658,538, 335, 686, -71, -11, 13, -9, 7, 12, 980, 973, 68,Q
2025-03-19 18:31:47.667,578, 205, 1051, -42, -25, -7, -7, 6, 12, 979, 974, 61,Q
2025-03-19 18:31:47.677,473, -154, 880, -10, -47, -37, -7, 8, 13, 979, 974, 67,Q
2025-03-19 18:31:47.684,639, 181, 473, 24, -45, -44, -8, 7, 15, 979, 974, 59,Q
2025-03-19 18:31:47.692,653, 345, 453, 45, -40, -44, -8, 7, 15, 976, 970, 65,Q
2025-03-19 18:31:47.701,717, 457, 399, 53, -32, -37, -9, 7, 16, 974, 966, 55,Q
2025-03-19 18:31:47.709,754, 495, 257, 60, -13, -31, -10, 5, 15, 973, 962, 48,Q
2025-03-19 18:31:47.722,750, 443, 221, 63, 0, -34, -8, 5, 15, 970, 959, 56,Q
2025-03-19 18:31:47.730,810, 414, 155, 63, 16, -44, -9, 5, 15, 969, 954, 159,Q
2025-03-19 18:31:47.739,805, 524, 170, 52, 30, -51, -9, 5, 15, 969, 951, 267,Q
2025-03-19 18:31:47.746,673, 715, 355, 40, 31, -44, -8, 4, 16, 968, 946, 394,Q
2025-03-19 18:31:47.756,542, 786, 496, 17, 21, -31, -9, 4, 15, 965, 943, 430,Q
2025-03-19 18:31:47.763,410, 723, 570, 16, 8, -18, -6, 3, 15, 968, 943, 441,Q
2025-03-19 18:31:47.775,496, 686, 710, 16, -9, -2, -7, 3, 16, 968, 946, 461,Q
2025-03-19 18:31:47.781,544, 771, 809, 12, -28, 18, -8, 3, 15, 970, 943, 463,Q
2025-03-19 18:31:47.792,1068, 485, 667, -9, -31, 9, -10, 2, 13, 974, 953, 409,Q
2025-03-19 18:31:47.797,1026, 372, 473, -13, -20, -6, -8, 5, 16, 978, 959, 328,Q
2025-03-19 18:31:47.809,893, 966, 545, -40, -26, 16, -8, 3, 15, 981, 963, 71,Q
2025-03-19 18:31:47.814,962, 847, 35, -83, -10, 31, -9, 4, 15, 983, 968, 42,Q
2025-03-19 18:31:47.828,910, 796, 225, -80, 4, 39, -9, 4, 16, 985, 971, 39,Q
2025-03-19 18:31:47.828,908, 999, 211, -98, 11, 66, -9, 4, 16, 986, 974, 36,Q
2025-03-19 18:31:47.845,561, 130, 362, -87, 15, 57, -10, 5, 16, 986, 974, 54,Q
2025-03-19 18:31:47.853,765, 306, 352, -37, 24, 53, -9, 5, 16, 986, 974, 65,Q
2025-03-19 18:31:47.862,575, 735, 421, -52, 19, 57, -10, 7, 15, 986, 973, 48,Q
2025-03-19 18:31:47.870,648, 92, 496, -21, 21, 31, -8, 5, 15, 986, 972, 53,Q
2025-03-19 18:31:47.881,639, 464, 523, -9, 19, 19, -10, 6, 15, 985, 969, 42,Q
2025-03-19 18:31:47.890,625, 394, 609, 5, 12, 5, -9, 7, 15, 984, 966, 51,Q
2025-03-19 18:31:47.897,702, 144, 612, 18, 9, -30, -9, 7, 13, 983, 961, 42,Q
2025-03-19 18:31:47.906,876, -3, 397, 28, 23, -69, -9, 6, 15, 982, 956, 53,Q
2025-03-19 18:31:47.914,742, 403, 420, 33, 31, -81, -9, 7, 13, 980, 952, 23,Q
2025-03-19 18:31:47.924,595, 684, 387, 40, 33, -70, -9, 7, 13, 975, 949, 40,Q
2025-03-19 18:31:47.932,540, 633, 336, 42, 33, -61, -8, 5, 13, 971, 943, 230,Q
2025-03-19 18:31:47.943,604, 543, 444, 41, 31, -59, -7, 6, 13, 968, 935, 394,Q
2025-03-19 18:31:48.227,743, 543, 627, 10, -17, -7, -8, 3, 15, 953, 915, 565,R
2025-03-19 18:31:48.242,727, 469, 409, 21, -11, -2, -7, 3, 17, 959, 914, 526,R
2025-03-19 18:31:48.251,826, 411, 443, 41, 2, 3, -9, 4, 15, 962, 914, 502,R
2025-03-19 18:31:48.258,874, 675, 666, 32, 9, 12, -8, 4, 17, 966, 915, 485,R
2025-03-19 18:31:48.267,880, 1085, 298, 2, 19, 31, -7, 3, 16, 969, 916, 405,R
2025-03-19 18:31:48.275,668, 709, 275, 14, 40, 44, -7, 3, 16, 971, 915, 358,R
2025-03-19 18:31:48.288,724, 844, 260, 11, 46, 59, -7, 3, 16, 972, 916, 149,R
2025-03-19 18:31:48.295,816, 558, 394, -16, 46, 46, -9, 2, 15, 973, 919, 47,R
2025-03-19 18:31:48.297,584, 866, 185, -13, 46, 53, -9, 4, 16, 972, 923, 69,R
2025-03-19 18:31:48.312,813, 553, 410, -36, 41, 37, -8, 3, 17, 972, 928, 75,R
2025-03-19 18:31:48.320,736, 445, 255, 1, 28, 28, -9, 4, 16, 972, 928, 64,R
2025-03-19 18:31:48.329,674, 621, 371, -17, 20, 17, -9, 4, 14, 971, 929, 68,R
2025-03-19 18:31:48.341,704, 709, 183, -18, 21, 18, -8, 4, 15, 970, 934, 69,R
2025-03-19 18:31:48.349,677, 730, 400, -31, 22, 18, -8, 4, 16, 966, 936, 58,R
2025-03-19 18:31:48.357,556, 443, 727, -32, 3, -5, -7, 4, 13, 963, 933, 138,R
2025-03-19 18:31:48.366,766, -1, 674, 3, -19, -37, -6, 3, 14, 960, 935, 285,R
2025-03-19 18:31:48.375,460, 36, 735, 20, -40, -68, -6, 3, 14, 954, 936, 412,R
2025-03-19 18:31:48.382,665, 227, 683, 52, -62, -80, -8, 4, 14, 954, 942, 493,R
2025-03-19 18:31:48.393,825, 658, 512, 13, -56, -67, -8, 3, 16, 957, 947, 542,R
2025-03-19 18:31:48.402,923, 866, 320, -18, -43, -40, -8, 3, 15, 959, 953, 560,R
2025-03-19 18:31:48.409,902, 873, 442, -50, -32, -17, -6, 3, 17, 965, 958, 500,R
2025-03-19 18:31:48.417,895, 594, 429, -62, -25, -2, -8, 5, 15, 969, 963, 495,R
2025-03-19 18:31:48.428,754, 552, 623, -64, -29, 7, -7, 3, 16, 971, 967, 431,R
2025-03-19 18:31:48.435,776, 469, 593, -49, -34, 13, -10, 3, 15, 975, 968, 345,R
2025-03-19 18:31:48.447,614, 464, 330, -31, -20, 10, -8, 3, 17, 976, 969, 303,R
2025-03-19 18:31:48.456,692, 875, 417, -5, -10, 21, -9, 3, 15, 977, 968, 212,R
2025-03-19 18:31:48.464,710, 811, 324, -12, -1, 23, -8, 3, 16, 980, 967, 165,R
2025-03-19 18:31:48.472,524, 485, 379, 2, 3, 21, -8, 3, 16, 980, 966, 146,R
2025-03-19 18:31:48.481,608, 680, 382, -7, 20, 38, -10, 5, 17, 981, 965, 71,R
2025-03-19 18:31:48.489,626, 703, 530, -9, 30, 39, -8, 3, 16, 980, 965, 62,R
2025-03-19 18:31:48.498,557, 555, 347, 27, 32, 34, -9, 6, 15, 981, 962, 69,R
2025-03-19 18:31:48.509,476, 824, 352, -8, 32, 34, -9, 4, 17, 980, 962, 65,R
2025-03-19 18:31:48.513,635, 454, 376, -5, 24, 23, -9, 6, 16, 980, 960, 54,R
2025-03-19 18:31:48.525,600, 487, 224, 1, 22, 16, -8, 3, 16, 979, 959, 59,R
2025-03-19 18:31:48.531,892, 672, 313, -17, 25, 22, -9, 6, 14, 980, 958, 39,R
2025-03-19 18:31:48.544,901, 483, 347, -23, 20, 22, -7, 4, 16, 981, 961, 26,R
2025-03-19 18:31:48.553,883, 436, 332, -19, 22, 22, -10, 6, 15, 981, 962, 31,R
2025-03-19 18:31:48.562,898, 712, 391, -32, 21, 33, -10, 6, 15, 982, 963, 23,R
2025-03-19 18:31:48.568,731, 541, 408, -45, 20, 34, -8, 6, 16, 980, 963, 41,R
2025-03-19 18:31:48.579,776, 582, 416, -33, 18, 36, -9, 5, 14, 980, 961, 46,R
2025-03-19 18:31:48.586,702, 355, 583, -29, 13, 21, -8, 6, 16, 979, 957, 47,R
2025-03-19 18:31:48.596,786, 290, 540, -6, 10, 8, -9, 6, 15, 978, 959, 67,R
2025-03-19 18:31:48.597,851, 200, 436, -5, 14, -20, -9, 4, 16, 976, 958, 74,R
2025-03-19 18:31:48.615,905, 211, 239, -8, 34, -49, -9, 5, 13, 975, 956, 73,R
2025-03-19 18:31:48.626,806, 543, 274, -20, 51, -56, -7, 5, 14, 973, 955, 69,R
2025-03-19 18:31:48.632,633, 691, 435, -33, 52, -48, -7, 5, 13, 973, 953, 70,R
2025-03-19 18:31:48.641,533, 647, 496, -36, 46, -44, -8, 5, 12, 970, 951, 50,R
2025-03-19 18:31:48.649,500, 509, 619, -23, 40, -43, -8, 5, 12, 967, 947, 37,R
2025-03-19 18:31:48.658,483, 455, 796, -6, 30, -43, -8, 7, 11, 964, 940, 37,R
2025-03-19 18:31:48.668,458, 475, 857, 3, 16, -42, -6, 6, 12, 960, 933, 52,R
2025-03-19 18:31:48.922,913, 249, 435, 19, -14, -12, -9, 4, 17, 956, 936, 418,S
2025-03-19 18:31:48.928,734, 552, 483, 21, -9, -13, -9, 4, 17, 955, 936, 418,S
2025-03-19 18:31:48.943,761, 406, 423, 22, -11, -14, -8, 4, 15, 957, 933, 404,S
2025-03-19 18:31:48.951,726, 351, 323, 39, -1, -16, -7, 4, 16, 961, 935, 396,S
2025-03-19 18:31:48.960,648, 408, 437, 51, 5, -19, -8, 4, 14, 962, 935, 412,S
2025-03-19 18:31:48.968,743, 525, 438, 51, 5, -16, -9, 3, 16, 964, 937, 416,S
2025-03-19 18:31:48.975,801, 616, 399, 44, 8, -10, -9, 5, 15, 964, 937, 426,S
2025-03-19 18:31:48.988,826, 614, 312, 43, 13, 0, -8, 3, 17, 967, 942, 416,S
2025-03-19 18:31:48.996,739, 815, 300, 33, 24, 21, -8, 5, 14, 969, 948, 346,S
2025-03-19 18:31:49.004,843, 696, 292, 6, 32, 26, -9, 4, 17, 975, 950, 289,S
2025-03-19 18:31:49.013,790, 753, 346, -7, 31, 31, -9, 6, 14, 975, 953, 192,S
2025-03-19 18:31:49.021,562, 652, 545, 9, 23, 38, -7, 2, 16, 977, 956, 22,S
2025-03-19 18:31:49.029,770, 652, 397, -11, 25, 41, -7, 2, 16, 978, 960, 34,S
2025-03-19 18:31:49.041,572, 561, 393, 6, 32, 44, -9, 7, 15, 978, 961, 44,S
2025-03-19 18:31:49.050,234, 654, 521, -39, 24, 37, -9, 5, 15, 977, 960, 53,S
2025-03-19 18:31:49.058,510, 628, 607, -32, 22, 34, -10, 5, 15, 978, 963, 64,S
2025-03-19 18:31:49.063,548, 654, 409, -9, 22, 32, -8, 4, 14, 978, 961, 63,S
2025-03-19 18:31:49.075,697, 662, 498, -6, 20, 33, -9, 6, 14, 978, 962, 71,S
2025-03-19 18:31:49.081,516, 436, 472, -7, 17, 21, -9, 5, 15, 978, 962, 63,S
2025-03-19 18:31:49.094,655, 496, 581, -11, 10, 15, -8, 7, 14, 976, 960, 65,S
2025-03-19 18:31:49.101,597, 516, 362, -12, 14, 11, -9, 5, 16, 975, 957, 39,S
2025-03-19 18:31:49.110,787, 312, 434, 3, 15, -1, -8, 6, 14, 973, 952, 36,S
2025-03-19 18:31:49.118,737, 313, 386, 23, 17, -11, -8, 6, 14, 971, 946, 37,S
2025-03-19 18:31:49.127,683, 365, 420, 26, 17, -21, -7, 5, 15, 966, 939, 49,S
2025-03-19 18:31:49.134,792, 317, 433, 27, 10, -32, -7, 5, 13, 963, 931, 43,S
2025-03-19 18:31:49.144,988, 367, 398, 13, 10, -43, -7, 5, 15, 957, 926, 35,S
2025-03-19 18:31:49.155,1146, 407, 333, 6, 17, -51, -8, 5, 13, 955, 927, 46,S
2025-03-19 18:31:49.163,1105, 571, 221, -16, 35, -54, -6, 4, 14, 953, 927, 95,S
2025-03-19 18:31:49.172,892, 696, 188, -34, 51, -51, -7, 5, 12, 951, 931, 99,S
2025-03-19 18:31:49.181,731, 641, 332, -49, 54, -43, -7, 4, 13, 951, 933, 31,S
2025-03-19 18:31:49.189,592, 585, 510, -59, 47, -38, -8, 4, 11, 951, 933, 49,S
2025-03-19 18:31:49.197,550, 525, 712, -58, 32, -38, -4, 5, 10, 949, 938, 40,S
2025-03-19 18:31:49.208,518, 525, 823, -53, 21, -38, -6, 4, 10, 949, 940, 44,S
2025-03-19 18:31:49.218,461, 564, 812, -39, 4, -35, -6, 4, 10, 950, 939, 60,S
2025-03-19 18:31:49.225,371, 599, 817, -31, -12, -30, -5, 4, 10, 948, 941, 71,S
2025-03-19 18:31:49.232,327, 628, 765, -21, -24, -24, -5, 4, 8, 949, 942, 74,S
2025-03-19 18:31:49.243,348, 625, 706, -9, -31, -18, -6, 4, 10, 949, 942, 68,S
2025-03-19 18:31:49.251,389, 616, 688, 1, -35, -11, -7, 5, 9, 946, 941, 57,S
2025-03-19 18:31:49.258,414, 629, 684, 10, -40, -3, -8, 4, 9, 945, 941, 67,S
2025-03-19 18:31:49.269,508, 565, 651, 24, -42, 3, -7, 5, 9, 944, 939, 54,S
2025-03-19 18:31:49.522,833, 484, 425, -24, -2, 2, -7, 1, 17, 956, 946, 60,T
2025-03-19 18:31:49.528,976, 568, 525, -32, -10, 8, -8, 4, 17, 962, 954, 140,T
2025-03-19 18:31:49.544,1005, 844, 604, -66, -23, 24, -8, 2, 17, 968, 960, 181,T
2025-03-19 18:31:49.552,916, 831, 395, -82, -27, 37, -8, 5, 16, 972, 964, 160,T
2025-03-19 18:31:49.561,979, 755, 499, -64, -24, 53, -8, 3, 18, 974, 967, 23,T
2025-03-19 18:31:49.570,485, 442, 273, -34, -14, 47, -11, 5, 16, 975, 969, 34,T
2025-03-19 18:31:49.578,646, 628, 322, -39, -5, 38, -11, 5, 16, 976, 968, 39,T
2025-03-19 18:31:49.580,665, 346, 363, -24, 5, 34, -9, 3, 17, 976, 967, 44,T
2025-03-19 18:31:49.598,476, 414, 531, -24, 3, 26, -10, 4, 14, 974, 965, 63,T
2025-03-19 18:31:49.606,521, 477, 503, -8, 6, 17, -9, 2, 17, 975, 964, 69,T
2025-03-19 18:31:49.615,661, 455, 564, 10, 5, 11, -9, 6, 15, 971, 963, 64,T
2025-03-19 18:31:49.623,603, 540, 550, 20, 5, 7, -8, 4, 16, 968, 958, 63,T
2025-03-19 18:31:49.631,591, 438, 522, 22, 4, 1, -10, 6, 15, 967, 953, 69,T
2025-03-19 18:31:49.639,624, 401, 365, 16, 9, -16, -8, 3, 16, 966, 952, 61,T
2025-03-19 18:31:49.650,654, 273, 336, 21, 17, -40, -10, 5, 16, 966, 950, 183,T
2025-03-19 18:31:49.658,618, 436, 411, 25, 18, -49, -9, 3, 15, 963, 948, 321,T
2025-03-19 18:31:49.668,539, 647, 481, 23, 12, -44, -9, 3, 15, 962, 943, 393,T
2025-03-19 18:31:49.676,554, 681, 482, 9, 6, -34, -10, 4, 14, 962, 940, 435,T
2025-03-19 18:31:49.683,635, 643, 540, 10, 0, -20, -8, 2, 16, 961, 939, 453,T
2025-03-19 18:31:49.692,702, 674, 660, 5, -10, 0, -9, 4, 15, 962, 940, 451,T
2025-03-19 18:31:49.705,666, 690, 799, -4, -23, 22, -9, 4, 16, 967, 945, 415,T
2025-03-19 18:31:49.713,1134, 142, 576, -38, -18, 6, -8, 4, 14, 971, 953, 388,T
2025-03-19 18:31:49.722,812, 234, 586, 27, -10, -2, -10, 4, 17, 975, 955, 359,T
2025-03-19 18:31:49.730,708, 773, 548, 3, -2, 20, -9, 3, 15, 976, 958, 206,T
2025-03-19 18:31:49.739,601, 784, 372, -8, 20, 41, -8, 3, 16, 980, 960, 45,T
2025-03-19 18:31:49.746,966, 661, 331, 6, 31, 47, -9, 5, 15, 982, 960, 43,T
2025-03-19 18:31:49.755,463, 424, 367, -6, 31, 46, -9, 5, 15, 983, 962, 39,T
2025-03-19 18:31:49.764,690, 524, 181, -4, 41, 60, -8, 3, 17, 983, 960, 70,T
2025-03-19 18:31:49.775,458, 137, 484, -14, 29, 34, -8, 5, 17, 983, 959, 58,T
2025-03-19 18:31:49.780,669, 745, -76, 3, 43, 47, -8, 5, 17, 982, 960, 65,T
2025-03-19 18:31:49.792,764, 679, 306, -18, 36, 31, -8, 5, 15, 982, 958, 59,T
2025-03-19 18:31:49.799,809, 559, 283, -8, 36, 29, -8, 6, 16, 980, 957, 48,T
2025-03-19 18:31:49.809,687, 506, 360, -4, 32, 17, -8, 6, 15, 976, 951, 54,T
2025-03-19 18:31:49.818,719, 495, 436, -3, 28, 5, -8, 5, 16, 974, 945, 41,T
2025-03-19 18:31:49.827,760, 309, 620, -6, 16, -21, -7, 5, 15, 973, 938, 42,T
2025-03-19 18:31:49.835,884, 60, 523, 9, 14, -56, -8, 6, 15, 968, 934, 133,T
2025-03-19 18:31:49.844,872, 276, 463, 16, 20, -78, -8, 6, 15, 964, 932, 284,T
2025-03-19 18:31:49.852,723, 630, 395, 14, 24, -75, -7, 5, 14, 959, 930, 401,T
2025-03-19 18:31:49.860,639, 781, 364, -9, 25, -56, -8, 6, 12, 953, 928, 448,T
2025-03-19 18:31:49.872,545, 765, 465, -33, 24, -36, -7, 4, 13, 950, 928, 447,T
2025-03-19 18:31:49.881,529, 647, 656, -40, 18, -21, -7, 5, 13, 950, 930, 448,T
2025-03-19 18:31:49.889,531, 544, 808, -31, 7, -12, -8, 4, 13, 948, 931, 456,T
2025-03-19 18:31:49.897,531, 479, 815, -15, -5, -9, -7, 4, 11, 948, 932, 456,T
2025-03-19 18:31:50.172,925, 855, 361, 22, 27, 46, -10, 5, 16, 974, 940, 213,U
2025-03-19 18:31:50.177,754, 687, 394, 19, 26, 47, -9, 3, 16, 976, 940, 163,U
2025-03-19 18:31:50.189,754, 862, 324, -29, 32, 54, -9, 4, 16, 978, 945, 34,U
2025-03-19 18:31:50.196,818, 703, 269, -18, 32, 68, -9, 4, 16, 977, 947, 28,U
2025-03-19 18:31:50.205,864, 740, 439, -41, 21, 56, -9, 4, 18, 977, 949, 37,U
2025-03-19 18:31:50.212,264, 705, -68, -50, 29, 53, -8, 6, 16, 977, 953, 58,U
2025-03-19 18:31:50.224,601, 625, 331, -58, 22, 35, -7, 5, 17, 976, 956, 62,U
2025-03-19 18:31:50.229,821, 594, 359, -35, 13, 30, -8, 7, 14, 977, 959, 65,U
2025-03-19 18:31:50.242,699, 644, 419, -60, 10, 25, -8, 5, 15, 976, 962, 73,U
2025-03-19 18:31:50.249,657, 411, 516, -52, -1, 13, -9, 7, 13, 976, 965, 60,U
2025-03-19 18:31:50.259,458, 249, 593, -34, -7, 2, -8, 7, 14, 974, 965, 67,U
2025-03-19 18:31:50.263,685, 69, 764, 3, -29, -19, -8, 7, 15, 973, 965, 40,U
2025-03-19 18:31:50.278,588, 201, 665, 4, -31, -43, -9, 7, 14, 971, 967, 48,U
2025-03-19 18:31:50.280,675, 367, 682, 25, -44, -51, -9, 7, 14, 970, 967, 23,U
2025-03-19 18:31:50.295,535, 509, 575, 22, -37, -50, -8, 6, 14, 969, 966, 64,U
2025-03-19 18:31:50.298,653, 679, 498, -5, -34, -43, -8, 5, 15, 967, 967, 162,U
2025-03-19 18:31:50.312,780, 573, 621, -26, -27, -33, -8, 5, 15, 969, 968, 182,U
2025-03-19 18:31:50.319,833, 462, 476, 0, -15, -17, -8, 5, 15, 970, 968, 178,U
2025-03-19 18:31:50.329,733, 385, 755, 7, -16, -14, -9, 5, 15, 972, 967, 160,U
2025-03-19 18:31:50.340,705, 236, 698, 21, -22, -21, -9, 4, 16, 973, 967, 137,U
2025-03-19 18:31:50.347,731, 425, 520, 43, -18, -20, -8, 5, 17, 976, 967, 148,U
2025-03-19 18:31:50.356,769, 809, 386, 47, 0, 4, -8, 6, 16, 977, 965, 60,U
2025-03-19 18:31:50.362,708, 1038, 43, 29, 21, 42, -8, 6, 16, 980, 967, 55,U
2025-03-19 18:31:50.373,784, 737, 158, -1, 44, 45, -9, 6, 16, 981, 966, 41,U
2025-03-19 18:31:50.379,834, 668, 240, 2, 44, 37, -9, 6, 16, 981, 967, 55,U
2025-03-19 18:31:50.393,620, 636, 425, -10, 36, 35, -8, 5, 16, 980, 966, 67,U
2025-03-19 18:31:50.398,675, 705, 213, -11, 36, 35, -9, 6, 15, 980, 965, 61,U
2025-03-19 18:31:50.408,849, 376, 306, 3, 26, 20, -9, 5, 16, 978, 963, 53,U
2025-03-19 18:31:50.418,759, 643, 286, -6, 27, 17, -8, 4, 15, 978, 960, 60,U
2025-03-19 18:31:50.426,725, 635, 465, -20, 26, 15, -8, 6, 14, 978, 960, 48,U
2025-03-19 18:31:50.431,737, 456, 629, -23, 14, 2, -9, 6, 15, 976, 957, 44,U
2025-03-19 18:31:50.446,785, 145, 558, -16, 11, -26, -8, 6, 15, 975, 953, 55,U
2025-03-19 18:31:50.454,833, 175, 514, -7, 16, -48, -10, 7, 13, 973, 954, 32,U
2025-03-19 18:31:50.462,729, 502, 461, -2, 21, -51, -8, 6, 14, 971, 952, 34,U
2025-03-19 18:31:50.471,642, 691, 434, -12, 21, -41, -8, 6, 14, 967, 950, 27,U
2025-03-19 18:31:50.479,629, 607, 464, -26, 19, -36, -9, 6, 12, 965, 948, 71,U
2025-03-19 18:31:50.488,649, 454, 551, -24, 16, -36, -7, 5, 15, 961, 947, 175,U
2025-03-19 18:31:50.498,663, 416, 664, -11, 13, -29, -8, 6, 13, 960, 946, 201,U
2025-03-19 18:31:50.783,741, 456, 481, -17, 15, 49, -8, 3, 15, 975, 946, 245,V
2025-03-19 18:31:50.794,686, 690, 537, -8, 30, 62, -9, 4, 15, 976, 950, 123,V
2025-03-19 18:31:50.801,797, 791, 524, -12, 29, 79, -8, 3, 16, 978, 952, 44,V
2025-03-19 18:31:50.809,758, 530, 543, -5, 31, 78, -8, 5, 14, 979, 953, 63,V
2025-03-19 18:31:50.817,689, 755, 363, -37, 30, 79, -7, 5, 14, 980, 953, 63,V
2025-03-19 18:31:50.828,608, 176, 462, -19, 17, 66, -8, 5, 14, 980, 954, 71,V
2025-03-19 18:31:50.839,529, 335, 358, -36, 9, 41, -7, 7, 16, 979, 958, 72,V
2025-03-19 18:31:50.848,776, 605, 309, -43, 8, 35, -7, 5, 13, 979, 961, 65,V
2025-03-19 18:31:50.856,634, 682, 255, -52, 11, 29, -7, 7, 15, 981, 964, 55,V
2025-03-19 18:31:50.864,763, 737, 407, -74, 8, 27, -9, 5, 13, 980, 970, 36,V
2025-03-19 18:31:50.873,779, 553, 631, -78, -9, 19, -9, 7, 15, 981, 973, 33,V
2025-03-19 18:31:50.882,821, 34, 720, -53, -29, -6, -9, 7, 15, 981, 975, 31,V
2025-03-19 18:31:50.891,402, -196, 826, -24, -44, -46, -8, 7, 14, 980, 976, 46,V
2025-03-19 18:31:50.902,738, 216, 556, -13, -45, -59, -7, 7, 14, 979, 976, 43,V
2025-03-19 18:31:50.909,979, 449, 513, 13, -44, -47, -8, 7, 14, 977, 976, 44,V
2025-03-19 18:31:50.918,587, 556, 498, 1, -28, -31, -8, 9, 14, 978, 975, 45,V
2025-03-19 18:31:50.926,775, 313, 482, 31, -18, -28, -10, 5, 16, 976, 975, 45,V
