Timestamp,Acc_X,Acc_Y,Acc_Z,Gyro_X,Gyro_Y,Gyro_Z,Mag_X,Mag_Y,Mag_Z,Force,IR_A,Letter
2025-02-19 17:13:49.276,714, -12, 686, 0, -1, -1, 0, -4, 2, 189, 44,noise
2025-02-19 17:13:49.369,716, -11, 684, 0, -3, -1, -1, -4, 1, 142, 44,noise
2025-02-19 17:13:49.477,716, -10, 685, -2, 0, 0, -1, -2, 4, 92, 44,noise
2025-02-19 17:13:49.583,724, -11, 688, -2, 0, 0, 0, -3, 1, 91, 44,noise
2025-02-19 17:13:49.689,711, -8, 690, -2, 0, 0, -2, -3, 1, 55, 43,noise
2025-02-19 17:13:49.797,705, -17, 693, -4, 2, 0, -2, -3, 2, 0, 42,noise
2025-02-19 17:13:49.903,723, -11, 695, 0, 0, 1, -1, -3, 1, 0, 41,noise
2025-02-19 17:13:50.013,714, -21, 693, -3, 0, -1, 0, -1, 1, 0, 41,noise
2025-02-19 17:13:50.120,715, -16, 697, -2, -1, -1, -1, -3, 1, 0, 40,noise
2025-02-19 17:13:50.226,716, -16, 698, -1, -1, 0, -1, -3, 0, 2, 40,noise
2025-02-19 17:13:50.332,698, -32, 698, -1, -1, 0, 0, -3, 0, 0, 41,noise
2025-02-19 17:13:50.443,710, -17, 698, -1, -1, -1, -1, -1, 1, 10, 40,noise
2025-02-19 17:13:50.546,713, -25, 696, 0, -1, 0, 0, -2, 1, 17, 41,noise
2025-02-19 17:13:50.656,708, -22, 696, -1, -1, -1, -1, -3, 1, 19, 41,noise
2025-02-19 17:13:50.763,714, -23, 698, -1, -1, 0, 0, -1, 0, 19, 42,noise
2025-02-19 17:13:50.869,712, -21, 695, -1, 0, -1, -1, -3, 2, 18, 41,noise
2025-02-19 17:13:51.992,729, -83, 622, -3, -5, -15, -2, -5, 7, 432, 56,A
2025-02-19 17:13:52.086,773, -27, 609, 7, -7, -12, -2, -5, 7, 552, 65,A
2025-02-19 17:13:52.192,767, -28, 632, -3, -5, -13, 0, -7, 7, 656, 73,A
2025-02-19 17:13:52.303,738, -27, 618, -1, -9, -17, -2, -5, 5, 684, 82,A
2025-02-19 17:13:52.410,785, -14, 623, -6, -3, -15, -1, -9, 7, 701, 104,A
2025-02-19 17:13:52.512,878, 301, 454, 7, 9, 45, -2, -6, 7, 0, 98,A
2025-02-19 17:13:52.626,728, -104, 584, -17, 5, -63, -2, -7, 6, 499, 89,A
2025-02-19 17:13:52.728,738, -82, 644, -1, -28, 68, -1, -6, 5, 619, 97,A
2025-02-19 17:13:52.839,954, 148, 678, 14, 68, -46, -2, -4, 7, 631, 85,A
2025-02-19 17:13:52.942,776, 4, 574, 67, 6, -21, -5, -8, 7, 0, 97,A
2025-02-19 17:13:53.049,817, 47, 633, -14, 6, 15, -2, -7, 7, 786, 98,A
2025-02-19 17:13:53.159,603, -163, 742, -2, 29, 13, -1, -5, 3, 449, 39,A
2025-02-19 17:13:53.876,770, 16, 617, 0, -5, -6, -2, -6, 5, 350, 78,B
2025-02-19 17:13:53.974,764, 15, 624, -10, -3, -1, -3, -5, 5, 113, 83,B
2025-02-19 17:13:54.081,767, -42, 578, -7, -5, -16, -4, -8, 7, 86, 97,B
2025-02-19 17:13:54.187,855, 237, 529, -13, -11, 36, -2, -4, 7, 28, 99,B
2025-02-19 17:13:54.297,604, -158, 534, -34, 8, -58, -2, -6, 6, 241, 89,B
2025-02-19 17:13:54.400,637, -30, 777, 8, -12, -2, -4, -6, 6, 616, 99,B
2025-02-19 17:13:54.510,823, -86, 439, 35, 25, -5, -2, -7, 5, 256, 98,B
2025-02-19 17:13:54.617,752, 47, 616, -3, -1, 25, -2, -4, 8, 144, 100,B
2025-02-19 17:13:54.723,753, 28, 474, -57, 74, 24, -2, -4, 6, 272, 51,B
2025-02-19 17:13:55.543,772, -26, 605, 0, -5, -5, -2, -5, 7, 490, 87,C
2025-02-19 17:13:55.637,770, 6, 596, 2, -4, -3, -2, -7, 7, 572, 98,C
2025-02-19 17:13:55.747,696, -109, 632, 13, 13, -23, -4, -7, 8, 357, 100,C
2025-02-19 17:13:55.850,884, 221, 524, 10, -12, 59, -2, -6, 5, 0, 92,C
2025-02-19 17:13:55.956,814, 34, 676, 4, 3, 22, -3, -5, 6, 751, 90,C
2025-02-19 17:13:56.067,646, -99, 680, -20, 13, -1, -2, -4, 4, 561, 41,C
2025-02-19 17:13:56.173,774, -47, 640, -2, -8, -7, -3, -4, 4, 513, 48,C
2025-02-19 17:13:56.280,742, -49, 645, -10, 0, -3, -3, -4, 5, 469, 49,C
2025-02-19 17:13:56.386,740, -59, 645, -5, -2, -7, -2, -5, 4, 439, 51,C
2025-02-19 17:13:56.497,772, -41, 641, -2, -5, -6, -2, -4, 5, 444, 58,C
2025-02-19 17:13:56.604,754, -37, 631, -2, -3, -2, -3, -5, 5, 387, 61,C
2025-02-19 17:13:56.710,760, -28, 626, -1, -2, -2, -3, -5, 7, 418, 63,C
2025-02-19 17:13:56.816,767, -43, 624, -1, -2, -1, -2, -6, 6, 446, 63,C
2025-02-19 17:13:58.434,761, -39, 635, 0, 0, -4, -3, -5, 5, 463, 63,D
2025-02-19 17:13:58.529,765, -35, 632, 2, -2, -2, -2, -5, 7, 480, 65,D
2025-02-19 17:13:58.639,768, -20, 636, 0, -3, -3, -3, -6, 5, 489, 69,D
2025-02-19 17:13:58.742,765, 0, 631, 3, -3, -8, -1, -5, 4, 451, 77,D
2025-02-19 17:13:58.852,803, 8, 551, -3, -8, -14, -4, -8, 7, 326, 96,D
2025-02-19 17:13:58.963,816, 311, 531, -4, -12, 48, -2, -5, 7, 145, 94,D
2025-02-19 17:13:59.065,859, -64, 523, 13, 6, -73, -3, -8, 7, 419, 90,D
2025-02-19 17:13:59.172,706, 72, 757, 2, -17, 33, -2, -8, 6, 677, 93,D
2025-02-19 17:13:59.282,792, -65, 448, 32, 34, -13, -2, -4, 6, 248, 92,D
2025-02-19 17:13:59.389,496, -105, 721, -18, 6, -1, -3, -2, 2, 360, 38,D
2025-02-19 17:14:00.307,762, -8, 636, 2, -3, -3, -3, -6, 6, 190, 64,E
2025-02-19 17:14:00.400,751, -3, 627, 2, -4, -10, -4, -7, 6, 183, 72,E
2025-02-19 17:14:00.510,795, -39, 570, -4, -2, -11, -2, -8, 7, 86, 94,E
2025-02-19 17:14:00.618,809, 268, 544, 1, -9, 43, -2, -6, 6, 113, 93,E
2025-02-19 17:14:00.728,461, -124, 588, -33, 7, -64, -2, -7, 5, 367, 79,E
2025-02-19 17:14:00.830,763, 112, 641, 3, -19, 22, -2, -9, 7, 645, 94,E
2025-02-19 17:14:00.936,535, 49, 581, -6, 12, -1, -2, -7, 6, 480, 82,E
2025-02-19 17:14:01.047,765, 100, 611, 11, -20, 20, -2, -7, 5, 679, 92,E
2025-02-19 17:14:01.153,513, 15, 439, -31, 6, -20, -3, -4, 5, 331, 75,E
2025-02-19 17:14:01.260,825, 91, 590, 19, -29, 26, -3, -5, 5, 682, 92,E
2025-02-19 17:14:01.371,609, -117, 612, -30, 51, -3, -1, -4, 4, 525, 43,E
2025-02-19 17:14:02.186,773, -14, 634, -3, -2, -2, -2, -6, 7, 276, 64,F
2025-02-19 17:14:02.281,770, -1, 632, -1, -5, -4, -2, -6, 7, 173, 68,F
2025-02-19 17:14:02.387,762, 17, 624, 6, -2, -15, -2, -5, 5, 58, 78,F
2025-02-19 17:14:02.492,811, -41, 554, 1, 0, -16, -3, -6, 6, 0, 96,F
2025-02-19 17:14:02.600,804, 162, 536, -1, -7, 38, -2, -6, 7, 0, 96,F
2025-02-19 17:14:02.715,443, -294, 582, 1, -24, -61, -2, -9, 5, 122, 83,F
2025-02-19 17:14:02.821,729, 109, 667, -3, -20, 32, -2, -9, 7, 700, 94,F
2025-02-19 17:14:02.924,577, 67, 526, -12, 4, -21, -1, -7, 6, 69, 79,F
2025-02-19 17:14:03.034,735, 154, 609, 2, -30, 30, -3, -7, 7, 705, 90,F
2025-02-19 17:14:03.140,596, -94, 535, -51, 55, 2, -3, -6, 5, 527, 51,F
2025-02-19 17:14:03.247,821, 53, 629, 17, -20, -21, -1, -5, 4, 490, 58,F
2025-02-19 17:14:04.066,804, 41, 611, 1, -8, -4, -3, -6, 7, 514, 81,G
2025-02-19 17:14:04.160,775, 83, 579, 8, -3, -1, -2, -6, 5, 582, 92,G
2025-02-19 17:14:04.271,756, -30, 641, 21, 5, -23, -3, -7, 6, 469, 93,G
2025-02-19 17:14:04.377,859, 195, 528, -22, -14, 57, -2, -7, 5, 462, 88,G
2025-02-19 17:14:04.484,756, -65, 636, 6, 4, -39, -2, -6, 6, 722, 91,G
2025-02-19 17:14:04.590,791, 167, 559, -16, -14, 47, 0, -5, 6, 573, 93,G
2025-02-19 17:14:04.701,468, -108, 596, -18, -10, -59, -1, -6, 5, 453, 82,G
2025-02-19 17:14:04.803,718, 69, 616, 7, -28, 29, -2, -7, 7, 725, 95,G
2025-02-19 17:14:04.914,692, -66, 544, -51, 62, 3, -1, -5, 6, 603, 59,G
2025-02-19 17:14:05.020,784, 33, 636, 6, -18, -18, -1, -7, 6, 553, 60,G
2025-02-19 17:14:05.737,770, 30, 624, 21, -6, 4, -3, -6, 5, 511, 77,H
2025-02-19 17:14:05.832,768, 40, 627, 1, -1, -3, -2, -6, 5, 560, 78,H
2025-02-19 17:14:05.938,766, 60, 621, 2, 1, -7, -3, -7, 5, 476, 79,H
2025-02-19 17:14:06.052,790, -12, 593, -12, -13, -16, -1, -8, 5, 204, 92,H
2025-02-19 17:14:06.159,791, 231, 601, -12, -13, 62, -2, -8, 8, 397, 91,H
2025-02-19 17:14:06.266,616, -65, 603, -30, 12, -31, -3, -5, 5, 308, 78,H
2025-02-19 17:14:06.372,770, 174, 603, 5, -24, 35, -1, -7, 4, 723, 92,H
2025-02-19 17:14:06.483,640, -255, 667, 26, -48, -39, -2, -7, 7, 717, 92,H
2025-02-19 17:14:06.586,800, 212, 536, -11, -7, 63, -2, -5, 5, 548, 94,H
2025-02-19 17:14:06.692,645, -119, 696, -22, 32, -2, -2, -3, 7, 610, 49,H
2025-02-19 17:14:07.810,774, 2, 639, 3, -3, -6, -1, -5, 6, 608, 62,I
2025-02-19 17:14:07.904,780, 14, 630, 3, -4, -8, -2, -6, 6, 605, 71,I
2025-02-19 17:14:08.010,741, 22, 639, 5, 6, -10, -1, -7, 6, 470, 73,I
2025-02-19 17:14:08.121,679, 37, 641, 14, -8, -17, -2, -9, 5, 140, 82,I
2025-02-19 17:14:08.228,935, 383, 643, 12, -46, 10, -2, -8, 6, 520, 87,I
2025-02-19 17:14:08.337,791, 163, 646, -23, 45, -2, -1, -6, 7, 747, 75,I
2025-02-19 17:14:08.440,828, 86, 664, -7, -7, 30, -2, -7, 4, 536, 88,I
2025-02-19 17:14:08.547,865, 8, 699, 11, 56, 6, -1, -6, 5, 363, 76,I
2025-02-19 17:14:08.653,1151, 47, 598, 11, -29, 8, -2, -5, 6, 0, 86,I
2025-02-19 17:14:08.760,760, 62, 626, -16, 2, 19, 0, -5, 7, 698, 0,I
2025-02-19 17:14:08.870,588, -73, 685, -9, 10, -13, 0, -3, 2, 466, 38,I
2025-02-19 17:14:09.587,761, 20, 625, 1, -3, -4, -2, -7, 5, 524, 65,J
2025-02-19 17:14:09.685,771, 29, 630, 8, -7, -7, -1, -7, 6, 610, 72,J
2025-02-19 17:14:09.788,756, 34, 644, 7, 4, -5, -3, -7, 5, 589, 76,J
2025-02-19 17:14:09.898,676, 1, 599, 15, -16, -27, -2, -7, 5, 381, 85,J
2025-02-19 17:14:10.010,690, 111, 651, -2, -19, 26, -2, -9, 7, 811, 67,J
2025-02-19 17:14:10.116,686, -78, 516, -1, -9, -27, -2, -8, 6, 560, 81,J
2025-02-19 17:14:10.222,769, 338, 596, -18, -13, 49, -2, -5, 6, 521, 90,J
2025-02-19 17:14:10.329,1082, -59, 498, 33, 11, 17, -3, -6, 5, 428, 83,J
2025-02-19 17:14:10.439,544, -24, 681, -11, -16, -17, -1, -3, 2, 530, 38,J
2025-02-19 17:14:10.542,781, 31, 646, 1, -9, -15, -1, -6, 5, 420, 55,J
2025-02-19 17:14:11.263,715, 20, 632, 10, -6, -7, -1, -6, 5, 322, 72,K
2025-02-19 17:14:11.357,768, 76, 619, -3, -3, -10, -2, -9, 6, 22, 87,K
2025-02-19 17:14:11.467,725, 61, 701, -19, -13, 62, -2, -8, 6, 231, 86,K
2025-02-19 17:14:11.574,900, 95, 501, 32, 30, -55, -3, -6, 6, 565, 81,K
2025-02-19 17:14:11.681,799, 165, 583, -3, -9, -8, -2, -8, 7, 710, 87,K
2025-02-19 17:14:11.783,958, 145, 377, 4, 11, -3, 0, -8, 8, 0, 87,K
2025-02-19 17:14:11.893,746, 37, 592, 4, -7, 18, -2, -6, 7, 322, 96,K
2025-02-19 17:14:12.000,589, -137, 723, 5, 31, -4, -1, -4, 5, 370, 41,K
2025-02-19 17:14:12.820,768, 40, 627, 3, -4, -8, -3, -7, 7, 439, 72,L
2025-02-19 17:14:12.914,747, 66, 620, 2, 0, -15, -1, -7, 6, 326, 80,L
2025-02-19 17:14:13.020,772, 42, 609, 13, 1, -16, -2, -9, 5, 31, 89,L
2025-02-19 17:14:13.127,801, 184, 524, 3, 2, 20, -1, -7, 4, 0, 85,L
2025-02-19 17:14:13.233,736, 73, 635, 6, -6, 12, -2, -6, 7, 759, 0,L
2025-02-19 17:14:13.348,604, -100, 716, -43, 50, 3, -2, -4, 4, 611, 38,L
2025-02-19 17:14:14.163,751, 24, 642, 2, -4, -4, -1, -4, 5, 468, 56,M
2025-02-19 17:14:14.256,756, 31, 638, 0, 0, -3, -3, -6, 4, 485, 59,M
2025-02-19 17:14:14.363,756, 41, 636, 2, -3, -6, -2, -8, 5, 469, 63,M
2025-02-19 17:14:14.474,728, 53, 631, 10, -20, -34, -3, -8, 5, 75, 84,M
2025-02-19 17:14:14.580,812, 287, 611, -14, -10, 66, -2, -8, 5, 0, 84,M
2025-02-19 17:14:14.687,723, -21, 657, 5, 7, -59, -1, -6, 3, 454, 81,M
2025-02-19 17:14:14.793,745, 64, 610, -38, -25, 77, -2, -9, 6, 572, 85,M
2025-02-19 17:14:14.904,786, -61, 644, 37, 1, -42, -3, -8, 6, 728, 86,M
2025-02-19 17:14:15.010,812, 369, 493, -14, -13, 68, -2, -5, 7, 576, 89,M
2025-02-19 17:14:15.117,614, -96, 672, -38, 57, 11, -1, -5, 3, 674, 36,M
2025-02-19 17:14:15.936,756, 29, 643, 11, -7, -5, -3, -7, 5, 476, 60,N
2025-02-19 17:14:16.026,789, 54, 624, 1, 1, -1, -2, -7, 4, 526, 67,N
2025-02-19 17:14:16.136,695, 80, 631, 16, -8, -24, -2, -6, 4, 382, 68,N
2025-02-19 17:14:16.247,767, -11, 589, -2, -2, -27, -2, -9, 5, 51, 84,N
2025-02-19 17:14:16.349,820, 182, 639, 13, 2, 28, -1, -8, 7, 337, 85,N
2025-02-19 17:14:16.459,830, 67, 640, -19, -8, -14, -2, -8, 5, 309, 84,N
2025-02-19 17:14:16.567,726, 341, 537, -4, -16, 31, -2, -4, 7, 428, 91,N
2025-02-19 17:14:16.673,807, 53, 615, 16, 14, -9, -2, -9, 6, 743, 0,N
2025-02-19 17:14:16.783,529, -36, 697, -13, -1, 11, -1, -6, 4, 601, 44,N
2025-02-19 17:14:17.501,778, 41, 624, -2, -4, -3, -2, -7, 5, 573, 73,O
2025-02-19 17:14:17.595,785, 38, 613, 7, -13, 1, -3, -6, 8, 672, 78,O
2025-02-19 17:14:17.702,776, 77, 614, -3, -3, -14, -2, -7, 7, 713, 88,O
2025-02-19 17:14:17.812,768, -147, 538, 53, 24, -18, -3, -7, 5, 438, 89,O
2025-02-19 17:14:17.918,816, 227, 645, -30, -26, 12, -3, -6, 5, 566, 88,O
2025-02-19 17:14:18.025,905, 130, 542, 9, 35, -13, -2, -8, 7, 690, 84,O
2025-02-19 17:14:18.131,604, -32, 698, -32, 7, 19, -2, -6, 4, 552, 36,O
2025-02-19 17:14:18.950,767, 49, 636, 0, -3, -2, -1, -7, 3, 486, 62,P
2025-02-19 17:14:19.045,767, 57, 632, 3, -4, -4, -2, -8, 6, 486, 66,P
2025-02-19 17:14:19.155,723, 55, 610, 9, -12, -16, -2, -9, 6, 381, 83,P
2025-02-19 17:14:19.261,789, -143, 585, 11, 6, -4, -2, -7, 7, 195, 88,P
2025-02-19 17:14:19.368,780, 143, 684, 6, -1, -4, -1, -7, 5, 354, 89,P
2025-02-19 17:14:19.474,825, -48, 690, -6, -15, -20, 0, -9, 5, 670, 84,P
2025-02-19 17:14:19.580,844, 159, 499, -6, 15, 26, -2, -8, 5, 408, 86,P
2025-02-19 17:14:19.693,594, -46, 736, -15, 26, 14, -1, -7, 4, 470, 44,P
2025-02-19 17:14:20.506,751, 37, 641, 0, -5, -3, -2, -7, 3, 437, 61,Q
2025-02-19 17:14:20.601,760, 48, 623, 5, -7, 0, -2, -8, 6, 466, 68,Q
2025-02-19 17:14:20.708,766, 45, 616, 0, -3, -1, -2, -6, 7, 552, 73,Q
2025-02-19 17:14:20.818,758, 75, 583, -2, -2, -7, -2, -6, 6, 557, 87,Q
2025-02-19 17:14:20.925,745, 74, 636, -3, 0, -12, -2, -9, 6, 340, 88,Q
2025-02-19 17:14:21.035,948, 251, 483, 18, -5, 73, -1, -10, 5, 346, 84,Q
2025-02-19 17:14:21.142,750, -37, 668, 2, -3, -53, -3, -6, 7, 693, 86,Q
2025-02-19 17:14:21.248,523, 74, 627, 3, -16, -13, -2, -7, 4, 432, 72,Q
2025-02-19 17:14:21.359,731, 142, 647, -38, -45, 71, -1, -5, 6, 558, 87,Q
2025-02-19 17:14:21.462,679, 21, 516, -20, 91, 0, -1, -4, 6, 649, 51,Q
2025-02-19 17:14:22.382,808, 74, 616, 5, -12, -10, -3, -7, 6, 480, 74,R
2025-02-19 17:14:22.473,743, 84, 623, 0, 0, -12, -1, -7, 5, 434, 76,R
2025-02-19 17:14:22.579,842, 3, 572, -3, -4, -13, -3, -8, 5, 4, 87,R
2025-02-19 17:14:22.689,795, 273, 539, 4, -4, 34, -3, -6, 7, 111, 87,R
2025-02-19 17:14:22.800,838, -128, 531, 44, -5, -51, -2, -8, 5, 509, 83,R
2025-02-19 17:14:22.907,723, 206, 604, -19, 3, 33, -1, -8, 7, 498, 84,R
2025-02-19 17:14:23.014,724, 105, 573, -56, -42, 81, -2, -8, 5, 454, 86,R
2025-02-19 17:14:23.120,752, 116, 505, -36, 88, -7, -1, -5, 5, 479, 57,R
2025-02-19 17:14:23.227,729, 3, 644, 9, -16, -21, -2, -5, 4, 315, 42,R
2025-02-19 17:14:23.948,773, 46, 628, -1, -5, -3, -2, -8, 6, 634, 68,S
2025-02-19 17:14:24.042,783, 43, 612, -2, -8, -2, -1, -7, 6, 682, 74,S
2025-02-19 17:14:24.149,753, 39, 638, -6, -11, -10, -1, -7, 6, 728, 88,S
2025-02-19 17:14:24.254,841, 25, 527, 27, 14, -15, -2, -9, 7, 393, 91,S
2025-02-19 17:14:24.365,700, 166, 684, -3, -11, 31, -4, -6, 5, 596, 81,S
2025-02-19 17:14:24.468,930, 69, 483, 11, 23, 5, -3, -6, 6, 109, 88,S
2025-02-19 17:14:24.579,505, -164, 743, -17, 24, 10, -1, -4, 4, 437, 36,S
2025-02-19 17:14:25.397,744, -5, 643, -1, -7, -7, -2, -5, 5, 609, 53,T
2025-02-19 17:14:25.487,752, 9, 633, 2, -7, -8, -2, -5, 6, 644, 60,T
2025-02-19 17:14:25.598,746, 24, 651, 15, 7, -12, -2, -5, 6, 636, 67,T
2025-02-19 17:14:25.705,639, 6, 583, 11, -40, -36, 0, -8, 5, 124, 87,T
2025-02-19 17:14:25.815,683, 87, 679, -10, -25, 24, -1, -8, 6, 770, 83,T
2025-02-19 17:14:25.917,639, 1, 570, -8, 16, -17, 0, -7, 6, 611, 75,T
2025-02-19 17:14:26.032,770, 133, 614, -18, -16, 72, -3, -6, 6, 293, 89,T
2025-02-19 17:14:26.135,1117, 16, 666, -30, 81, 25, -2, -4, 5, 548, 62,T
2025-02-19 17:14:26.245,639, -44, 683, 10, -22, -16, -1, -3, 5, 525, 37,T
2025-02-19 17:14:26.352,751, -17, 656, -1, -9, -7, -1, -4, 4, 551, 48,T
2025-02-19 17:14:26.459,770, -32, 636, 0, -5, -2, -2, -4, 5, 539, 56,T
2025-02-19 17:14:26.562,753, 2, 638, -4, -2, -5, -2, -7, 6, 506, 58,T
2025-02-19 17:14:26.672,740, -10, 637, 0, -2, -2, -1, -5, 5, 540, 58,T
2025-02-19 17:14:26.778,771, 11, 643, -1, -3, -2, -2, -4, 5, 554, 61,T
2025-02-19 17:14:28.497,765, 75, 642, 3, -1, -4, -3, -8, 5, 381, 80,U
2025-02-19 17:14:28.592,760, 55, 646, 2, -6, -4, -1, -9, 6, 179, 86,U
2025-02-19 17:14:28.698,765, 86, 632, -3, -4, -8, -2, -8, 6, 116, 88,U
2025-02-19 17:14:28.805,887, 31, 542, 43, 3, 55, -2, -8, 5, 94, 82,U
2025-02-19 17:14:28.916,697, 69, 635, 12, -11, -30, -3, -6, 5, 698, 85,U
2025-02-19 17:14:29.018,797, -72, 652, 31, 7, 12, -2, -9, 4, 715, 0,U
2025-02-19 17:14:29.128,855, 10, 596, -7, -8, 15, -3, -7, 5, 674, 83,U
2025-02-19 17:14:29.235,537, -98, 726, -19, 11, -7, -1, -5, 4, 570, 34,U
2025-02-19 17:14:30.054,727, -7, 667, 2, -3, -5, -2, -6, 3, 519, 43,V
2025-02-19 17:14:30.149,742, 10, 665, 4, -4, -5, -1, -6, 3, 613, 48,V
2025-02-19 17:14:30.255,734, 7, 662, 7, -7, -4, -2, -5, 5, 655, 53,V
2025-02-19 17:14:30.362,738, 38, 661, 13, -8, -5, 0, -6, 4, 636, 61,V
2025-02-19 17:14:30.468,751, 72, 647, 3, 1, -8, -3, -7, 7, 465, 68,V
2025-02-19 17:14:30.579,774, 79, 629, 15, -5, -17, -4, -8, 3, 84, 81,V
2025-02-19 17:14:30.682,790, 31, 651, 18, 2, 7, -1, -7, 4, 50, 83,V
2025-02-19 17:14:30.792,756, 152, 571, 13, -4, 21, -1, -6, 4, 574, 85,V
2025-02-19 17:14:30.902,752, -32, 649, -4, -4, -40, -2, -8, 7, 779, 0,V
2025-02-19 17:14:31.009,609, -15, 622, -41, 46, 35, -3, -6, 5, 708, 48,V
2025-02-19 17:14:31.926,734, 39, 679, 0, 0, -3, -1, -6, 4, 228, 60,W
2025-02-19 17:14:32.020,754, 67, 673, -1, -4, -3, -2, -6, 3, 369, 64,W
2025-02-19 17:14:32.127,760, 72, 647, 2, -2, -3, -2, -7, 4, 405, 70,W
2025-02-19 17:14:32.238,669, 75, 640, -3, -7, -19, -3, -6, 4, 118, 78,W
2025-02-19 17:14:32.347,1036, -184, 713, -31, -11, 39, -3, -8, 5, 91, 84,W
2025-02-19 17:14:32.450,839, 83, 594, 1, -16, -6, -3, -6, 6, 192, 89,W
2025-02-19 17:14:32.561,826, -75, 735, -19, -25, 46, -1, -7, 5, 668, 88,W
2025-02-19 17:14:32.668,763, -42, 575, 56, -8, -68, -4, -5, 7, 700, 92,W
2025-02-19 17:14:32.775,1005, 177, 652, -26, 61, 30, -2, -6, 5, 746, 71,W
2025-02-19 17:14:33.491,785, 9, 617, 2, -6, -6, -2, -7, 5, 623, 75,X
2025-02-19 17:14:33.585,791, 21, 609, 1, -6, -5, -2, -5, 6, 664, 84,X
2025-02-19 17:14:33.696,808, -35, 655, 14, -3, -5, -1, -6, 6, 698, 91,X
2025-02-19 17:14:33.802,665, -180, 764, 57, 15, -1, -2, -7, 7, 522, 92,X
2025-02-19 17:14:33.904,913, 23, 601, -8, 5, 5, -2, -5, 6, 217, 86,X
2025-02-19 17:14:34.015,1644, -52, 953, 18, -4, -35, -2, -7, 4, 0, 88,X
2025-02-19 17:14:34.122,708, 162, 596, -9, -32, 54, -2, -7, 7, 16, 96,X
2025-02-19 17:14:34.232,648, -93, 536, -22, 77, 8, -2, -3, 7, 420, 46,X
2025-02-19 17:14:35.850,755, -18, 641, 1, -1, -2, -3, -5, 6, 461, 64,Y
2025-02-19 17:14:35.945,750, 11, 623, -3, -5, -4, -3, -6, 5, 471, 67,Y
2025-02-19 17:14:36.048,817, 33, 610, 4, 0, -6, -2, -7, 7, 496, 83,Y
2025-02-19 17:14:36.158,782, 20, 638, 13, -4, 4, -2, -7, 6, 584, 82,Y
2025-02-19 17:14:36.264,748, 5, 637, -1, -1, -2, -4, -7, 5, 647, 80,Y
2025-02-19 17:14:36.371,769, 13, 629, 1, -3, -3, -2, -6, 6, 593, 83,Y
2025-02-19 17:14:36.477,763, 41, 628, 3, 0, -2, -2, -6, 5, 587, 86,Y
2025-02-19 17:14:36.587,780, -1, 643, -11, -4, -9, -3, -7, 6, 392, 90,Y
2025-02-19 17:14:36.690,956, 3, 640, 38, -9, 4, -3, -8, 6, 395, 89,Y
2025-02-19 17:14:36.800,826, 72, 591, 15, -2, 17, -2, -7, 7, 695, 90,Y
2025-02-19 17:14:36.911,949, 81, 767, -10, -19, -17, -3, -5, 6, 782, 88,Y
2025-02-19 17:14:37.013,822, 98, 551, -33, 5, 18, -4, -6, 7, 525, 94,Y
2025-02-19 17:14:37.120,782, 62, 588, -2, -4, 30, -3, -5, 6, 0, 94,Y
2025-02-19 17:14:37.230,680, -81, 625, -34, 60, 23, -2, -3, 4, 476, 43,Y
2025-02-19 17:14:38.050,745, -46, 651, 2, -3, -3, -1, -5, 6, 564, 55,Z
2025-02-19 17:14:38.143,777, -9, 639, 6, -8, -6, -2, -6, 6, 604, 64,Z
2025-02-19 17:14:38.251,752, -17, 645, 0, 0, -2, -1, -8, 5, 621, 67,Z
2025-02-19 17:14:38.357,677, -4, 656, 8, -4, -16, -2, -6, 5, 489, 73,Z
2025-02-19 17:14:38.468,775, -151, 544, 98, 18, -15, -2, -7, 7, 0, 87,Z
2025-02-19 17:14:38.574,742, -15, 691, 9, -9, 25, -2, -8, 5, 781, 79,Z
2025-02-19 17:14:38.676,869, 41, 486, 6, 10, -1, -1, -4, 3, 15, 83,Z
2025-02-19 17:14:38.787,731, 49, 663, 23, -24, 11, 0, -6, 4, 732, 80,Z
2025-02-19 17:14:38.898,773, -19, 479, -60, 70, 25, -1, -5, 4, 677, 51,Z
2025-02-19 17:14:40.711,753, -3, 641, -1, -2, 1, -1, -4, 3, 558, 60,a
2025-02-19 17:14:40.806,777, 2, 665, -1, 1, 0, -3, -6, 3, 492, 62,a
2025-02-19 17:14:40.913,781, 8, 629, -1, -9, -4, -2, -5, 5, 408, 68,a
2025-02-19 17:14:41.023,762, 55, 657, -17, -8, 0, -2, -4, 6, 526, 87,a
2025-02-19 17:14:41.130,843, -27, 518, 28, 15, -9, -2, -7, 6, 0, 85,a
2025-02-19 17:14:41.237,731, -6, 629, 10, -15, -7, -3, -3, 5, 68, 90,a
2025-02-19 17:14:41.347,836, 56, 739, -14, -15, 66, -2, -7, 5, 329, 88,a
2025-02-19 17:14:41.453,886, -21, 576, -38, 81, 17, -2, -4, 4, 461, 57,a
2025-02-19 17:14:42.268,803, 12, 632, 4, -3, -7, -2, -6, 4, 410, 77,b
2025-02-19 17:14:42.367,787, 68, 655, -1, -1, -15, -3, -7, 4, 165, 90,b
2025-02-19 17:14:42.477,760, 183, 629, -18, -27, 74, -2, -6, 5, 182, 89,b
2025-02-19 17:14:42.583,858, -129, 576, 36, 10, -39, -3, -7, 7, 506, 88,b
2025-02-19 17:14:42.690,690, -9, 708, -35, -7, 50, -3, -5, 5, 273, 92,b
2025-02-19 17:14:42.797,1056, 34, 667, -8, 55, 14, -3, -3, 5, 185, 72,b
2025-02-19 17:14:42.903,684, -47, 650, 14, -23, -13, -1, -3, 6, 391, 48,b
2025-02-19 17:14:43.620,768, -25, 629, 0, -2, -2, -2, -5, 4, 358, 70,c
2025-02-19 17:14:43.718,775, -22, 651, 4, -8, -5, -3, -4, 7, 379, 76,c
2025-02-19 17:14:43.820,755, -40, 624, 1, -4, 1, -4, -4, 5, 435, 80,c
2025-02-19 17:14:43.931,776, 38, 689, 2, -3, -10, -4, -6, 5, 522, 90,c
2025-02-19 17:14:44.038,856, -13, 626, 28, 15, 14, -2, -8, 6, 0, 88,c
2025-02-19 17:14:44.144,739, -39, 673, 25, -9, 9, -2, -5, 7, 661, 89,c
2025-02-19 17:14:44.255,551, -145, 689, -39, 22, 5, -1, -4, 4, 500, 33,c
2025-02-19 17:14:45.074,768, -38, 626, 0, -3, -2, -2, -6, 4, 416, 66,d
2025-02-19 17:14:45.169,730, -45, 609, 9, -16, -6, -1, -5, 5, 470, 76,d
2025-02-19 17:14:45.274,771, -21, 640, -6, 4, -17, -3, -4, 7, 439, 91,d
2025-02-19 17:14:45.382,821, -47, 572, 42, 15, 11, -4, -5, 6, 3, 88,d
2025-02-19 17:14:45.488,764, 50, 578, 2, -16, -25, -2, -4, 6, 256, 91,d
2025-02-19 17:14:45.598,770, -99, 552, 17, 3, -36, -4, -6, 5, 640, 91,d
2025-02-19 17:14:45.701,877, 86, 623, -5, -8, 26, -2, -4, 6, 91, 90,d
2025-02-19 17:14:45.812,547, -125, 703, -22, 18, -3, -1, -4, 4, 486, 39,d
2025-02-19 17:14:46.630,759, -23, 629, 6, -3, -1, -1, -6, 5, 385, 64,e
2025-02-19 17:14:46.725,771, 14, 629, 16, -1, -3, -1, -4, 7, 551, 72,e
2025-02-19 17:14:46.831,761, 12, 560, 25, -5, -20, -2, -4, 5, 400, 84,e
2025-02-19 17:14:46.938,715, 75, 684, -7, -15, 1, -2, -6, 5, 547, 87,e
2025-02-19 17:14:47.049,915, -46, 464, 12, 15, -15, -1, -6, 6, 301, 85,e
2025-02-19 17:14:47.155,753, 25, 637, 18, -17, 7, -2, -5, 5, 286, 88,e
2025-02-19 17:14:47.260,669, -83, 680, -29, 26, 10, -1, -4, 5, 446, 48,e
2025-02-19 17:14:48.080,767, -25, 624, -2, -7, 1, -2, -5, 6, 283, 68,f
2025-02-19 17:14:48.174,769, -31, 616, -1, -4, 2, -1, -4, 5, 291, 76,f
2025-02-19 17:14:48.281,756, 60, 559, -20, 7, -3, -3, -4, 7, 28, 90,f
2025-02-19 17:14:48.392,750, 48, 615, 41, -15, -37, -2, -8, 6, 735, 87,f
2025-02-19 17:14:48.498,782, 137, 708, -5, 49, 18, -1, -7, 6, 683, 72,f
2025-02-19 17:14:48.608,1002, 44, 546, 47, -10, -19, -2, -9, 5, 440, 84,f
2025-02-19 17:14:48.710,749, 81, 665, -22, 0, 20, -1, -7, 6, 712, 84,f
2025-02-19 17:14:48.814,604, -31, 710, 6, 2, 4, 0, -4, 3, 649, 43,f
2025-02-19 17:14:49.538,781, 12, 621, 0, -5, -2, -1, -6, 4, 450, 78,g
2025-02-19 17:14:49.633,775, 14, 604, -1, -4, 0, -3, -4, 6, 496, 83,g
2025-02-19 17:14:49.739,768, 24, 646, -15, 4, -19, -2, -6, 6, 342, 89,g
2025-02-19 17:14:49.846,872, 276, 588, 17, -14, 64, -3, -5, 4, 0, 87,g
2025-02-19 17:14:49.957,797, -93, 599, 14, 2, -26, -3, -5, 7, 675, 84,g
2025-02-19 17:14:50.063,794, 178, 577, -39, -16, 51, -2, -5, 5, 0, 94,g
2025-02-19 17:14:50.170,656, -22, 542, 8, 62, 10, -2, -4, 4, 102, 41,g
2025-02-19 17:14:51.087,759, 11, 639, 2, -6, -6, -2, -6, 5, 421, 64,h
2025-02-19 17:14:51.185,723, 17, 633, 3, -6, -13, -2, -7, 4, 402, 74,h
2025-02-19 17:14:51.288,775, 39, 611, 2, 2, 0, -3, -6, 4, 362, 90,h
2025-02-19 17:14:51.398,745, -2, 693, 3, -17, 69, -2, -7, 5, 441, 88,h
2025-02-19 17:14:51.505,813, 50, 580, 6, -6, -16, -3, -5, 5, 158, 89,h
2025-02-19 17:14:51.610,698, 76, 642, -12, -17, 31, -1, -6, 7, 472, 0,h
2025-02-19 17:14:51.722,760, 14, 504, -30, 89, 27, -3, -3, 6, 506, 49,h
2025-02-19 17:14:52.537,779, -16, 619, 0, -2, 0, -2, -3, 6, 501, 70,i
2025-02-19 17:14:52.631,731, -35, 637, 2, -4, -2, 0, -4, 6, 523, 70,i
2025-02-19 17:14:52.741,739, -25, 610, 1, -4, -8, -2, -4, 5, 537, 79,i
2025-02-19 17:14:52.848,776, 19, 613, -2, 0, -6, -3, -4, 7, 548, 87,i
2025-02-19 17:14:52.954,775, 31, 660, -9, -19, 44, -2, -5, 6, 528, 89,i
2025-02-19 17:14:53.063,957, 31, 694, -8, 70, -48, -2, -4, 6, 641, 73,i
2025-02-19 17:14:53.163,806, 104, 517, 17, 10, 5, -4, -5, 7, 555, 92,i
2025-02-19 17:14:53.278,561, 16, 659, -33, 44, 35, 0, -4, 3, 636, 38,i
2025-02-19 17:14:54.097,770, -25, 641, 3, 0, -3, -2, -5, 5, 574, 56,j
2025-02-19 17:14:54.192,733, -37, 634, 6, -7, 0, -1, -5, 4, 602, 57,j
2025-02-19 17:14:54.298,770, -7, 630, 4, -7, -1, -2, -4, 5, 620, 65,j
2025-02-19 17:14:54.404,895, 99, 662, -6, -9, -12, -2, -6, 7, 595, 89,j
2025-02-19 17:14:54.515,719, 143, 700, -1, -23, 63, -1, -4, 7, 337, 90,j
2025-02-19 17:14:54.621,1028, 21, 484, 20, 34, -83, 0, -4, 6, 166, 87,j
2025-02-19 17:14:54.732,303, -206, 723, 52, -112, -57, -1, -7, 5, 665, 90,j
2025-02-19 17:14:54.838,1148, -24, 671, -15, 54, 34, -3, -7, 6, 709, 74,j
2025-02-19 17:14:54.944,654, -63, 703, 12, -30, -3, -3, -4, 5, 610, 42,j
2025-02-19 17:14:55.047,818, 19, 624, 0, 7, 4, -3, -4, 6, 589, 59,j
2025-02-19 17:14:55.970,761, -35, 627, 3, -5, -2, -3, -5, 5, 459, 63,k
2025-02-19 17:14:56.063,782, 3, 618, 4, -8, -6, -1, -6, 5, 458, 76,k
2025-02-19 17:14:56.165,777, 1, 610, 1, 3, -3, -1, -6, 5, 472, 81,k
2025-02-19 17:14:56.276,798, 33, 609, 0, 5, -6, -1, -5, 8, 442, 79,k
2025-02-19 17:14:56.386,776, 11, 623, 10, -7, -18, -2, -7, 7, 381, 82,k
2025-02-19 17:14:56.489,766, 27, 627, 1, 1, 0, -2, -7, 6, 293, 87,k
2025-02-19 17:14:56.600,779, 50, 621, -1, -1, -4, -1, -7, 6, 382, 87,k
2025-02-19 17:14:56.705,776, 51, 618, -3, 0, -5, -2, -8, 6, 466, 87,k
2025-02-19 17:14:56.813,781, 45, 602, -2, -2, -8, -2, -8, 6, 346, 89,k
2025-02-19 17:14:56.923,804, 147, 611, -3, -6, 53, -3, -8, 5, 145, 86,k
2025-02-19 17:14:57.030,878, 50, 520, 26, -25, -15, -2, -7, 7, 277, 87,k
2025-02-19 17:14:57.136,610, 50, 520, 5, 24, -10, -1, -4, 6, 707, 84,k
2025-02-19 17:14:57.243,824, -99, 551, 53, 13, -12, -2, -8, 6, 355, 85,k
2025-02-19 17:14:57.350,794, 64, 618, -1, -1, 22, -1, -4, 6, 445, 87,k
2025-02-19 17:14:57.460,583, -126, 697, -12, 15, 0, -2, -4, 4, 449, 43,k
2025-02-19 17:14:58.178,764, -7, 648, -1, -5, -2, -2, -6, 6, 501, 56,l
2025-02-19 17:14:58.272,780, -5, 629, 2, -5, -6, -3, -6, 5, 557, 64,l
2025-02-19 17:14:58.378,743, -30, 626, 3, -6, -6, -2, -5, 4, 577, 73,l
2025-02-19 17:14:58.484,763, 8, 614, 5, 2, -10, -2, -7, 5, 574, 82,l
2025-02-19 17:14:58.594,802, -18, 641, -1, -2, -10, -4, -6, 6, 466, 89,l
2025-02-19 17:14:58.701,771, 122, 666, 18, -10, 52, 0, -8, 6, 577, 87,l
2025-02-19 17:14:58.807,806, 101, 592, 10, -1, 19, -1, -6, 6, 545, 86,l
2025-02-19 17:14:58.918,589, -102, 700, -23, 25, 6, -1, -4, 5, 546, 41,l
2025-02-19 17:14:59.934,769, -12, 637, 2, -4, -2, -1, -5, 5, 521, 58,m
2025-02-19 17:15:00.028,770, 0, 633, 7, -9, -2, -2, -6, 4, 544, 67,m
2025-02-19 17:15:00.135,789, 27, 615, 1, -1, -4, -3, -6, 6, 546, 74,m
2025-02-19 17:15:00.245,832, -16, 676, 1, -1, -17, -2, -6, 6, 484, 86,m
2025-02-19 17:15:00.352,801, 207, 546, -11, -6, 29, -2, -4, 7, 42, 89,m
2025-02-19 17:15:00.459,776, -63, 649, -2, -9, -29, -1, -7, 5, 555, 86,m
2025-02-19 17:15:00.566,807, 109, 554, -4, -7, 32, -2, -6, 5, 492, 86,m
2025-02-19 17:15:00.675,699, -170, 701, 32, -6, -19, -2, -6, 6, 709, 83,m
2025-02-19 17:15:00.777,995, 13, 587, 0, 18, 12, -1, -4, 7, 763, 79,m
2025-02-19 17:15:00.888,607, -71, 709, 1, -11, -5, -1, -4, 3, 668, 0,m
2025-02-19 17:15:01.605,750, -2, 650, 5, 4, -5, -1, -5, 6, 276, 53,n
2025-02-19 17:15:01.699,779, 36, 638, 11, -3, -8, -1, -7, 5, 36, 58,n
2025-02-19 17:15:01.810,688, 11, 639, 15, -28, -24, -2, -6, 5, 63, 76,n
2025-02-19 17:15:01.916,760, 180, 619, -25, -16, 42, -2, -6, 4, 0, 82,n
2025-02-19 17:15:02.023,805, -57, 557, 3, -5, -59, -3, -7, 6, 0, 81,n
2025-02-19 17:15:02.133,786, 160, 585, -10, -10, 58, -1, -5, 7, 443, 88,n
2025-02-19 17:15:02.236,821, 22, 547, -24, 58, 4, -2, -2, 6, 389, 58,n
2025-02-19 17:15:03.054,760, -35, 633, 2, -3, -3, -3, -5, 6, 401, 57,o
2025-02-19 17:15:03.149,789, -15, 620, 2, -6, -3, -2, -4, 6, 454, 66,o
2025-02-19 17:15:03.256,772, -10, 624, 4, -8, 0, -2, -4, 5, 523, 72,o
2025-02-19 17:15:03.366,783, 93, 604, -6, -5, -14, -1, -5, 6, 571, 89,o
2025-02-19 17:15:03.473,831, -99, 540, 50, 23, 15, -1, -7, 7, 138, 87,o
2025-02-19 17:15:03.579,657, -65, 637, 2, -9, -68, -1, -5, 6, 499, 90,o
2025-02-19 17:15:03.690,993, 163, 625, -29, 67, 39, -1, -7, 5, 513, 67,o
2025-02-19 17:15:03.797,681, -73, 656, 11, -15, 1, -2, -4, 4, 185, 40,o
2025-02-19 17:15:04.514,775, -8, 611, 0, -3, -2, -1, -5, 6, 414, 74,p
2025-02-19 17:15:04.608,779, 10, 610, 2, -6, -5, -2, -4, 6, 431, 80,p
2025-02-19 17:15:04.718,804, -13, 603, -4, 2, -10, -3, -7, 6, 332, 89,p
2025-02-19 17:15:04.824,800, 250, 548, -10, -18, 51, -2, -2, 7, 0, 92,p
2025-02-19 17:15:04.931,918, -91, 530, -3, 4, -76, -1, -5, 6, 572, 86,p
2025-02-19 17:15:05.038,681, 40, 672, -16, 2, 58, -1, -6, 7, 314, 88,p
2025-02-19 17:15:05.144,949, 49, 590, -34, 66, 38, -3, -5, 5, 616, 58,p
2025-02-19 17:15:05.254,689, -42, 653, 14, -29, -18, 0, -2, 5, 575, 39,p
2025-02-19 17:15:05.361,770, -10, 632, -5, 3, -3, -1, -4, 4, 478, 50,p
2025-02-19 17:15:05.468,768, -7, 627, -6, -3, -3, -4, -4, 5, 441, 54,p
2025-02-19 17:15:05.574,765, -27, 627, -4, -3, -1, -1, -4, 6, 437, 55,p
2025-02-19 17:15:05.681,783, -14, 618, -1, -4, -3, 0, -6, 5, 390, 60,p
2025-02-19 17:15:07.392,773, -6, 618, 3, -3, 1, -2, -5, 7, 585, 72,q
2025-02-19 17:15:07.495,775, -10, 604, 3, -4, -2, -2, -7, 6, 619, 75,q
2025-02-19 17:15:07.602,766, 13, 631, -5, 3, -20, -1, -5, 6, 616, 88,q
2025-02-19 17:15:07.708,928, 153, 517, 8, -1, 48, -1, -8, 6, 165, 85,q
2025-02-19 17:15:07.815,742, -136, 642, 0, 1, -37, 1, -5, 7, 668, 84,q
2025-02-19 17:15:07.925,815, 296, 470, -4, -10, 42, -2, -3, 6, 44, 87,q
2025-02-19 17:15:08.032,1104, 30, 660, -1, 51, 25, -1, -5, 6, 749, 73,q
2025-02-19 17:15:08.950,770, -11, 634, 1, -5, -3, -3, -4, 6, 576, 59,r
2025-02-19 17:15:09.043,808, -9, 621, -5, -2, 0, -2, -4, 6, 566, 67,r
2025-02-19 17:15:09.154,723, 27, 608, 3, -14, -25, -1, -5, 5, 517, 81,r
2025-02-19 17:15:09.261,858, -223, 678, 20, -5, 32, -3, -4, 6, 522, 87,r
2025-02-19 17:15:09.367,813, -1, 501, 25, 5, -67, -2, -6, 5, 561, 90,r
2025-02-19 17:15:09.473,787, 56, 641, -4, -2, 38, -2, -7, 7, 752, 84,r
2025-02-19 17:15:09.584,594, -121, 686, -7, 11, 2, -1, -3, 4, 647, 39,r
2025-02-19 17:15:09.687,771, -14, 640, 1, -2, 1, -1, -5, 4, 568, 43,r
2025-02-19 17:15:09.791,751, -17, 652, 0, -2, 0, -2, -3, 3, 560, 43,r
2025-02-19 17:15:09.903,766, -26, 646, -2, -2, -2, -2, -3, 4, 557, 45,r
2025-02-19 17:15:10.010,749, -37, 650, -1, -1, -2, -1, -4, 3, 541, 44,r
2025-02-19 17:15:10.117,744, -35, 651, 0, -3, -2, 0, -5, 5, 539, 45,r
2025-02-19 17:15:10.223,750, -39, 655, 0, -2, -2, -2, -4, 4, 532, 46,r
2025-02-19 17:15:10.333,758, -27, 642, -1, -1, -1, -2, -5, 6, 526, 48,r
2025-02-19 17:15:11.349,762, -34, 641, 0, -3, -2, -2, -4, 5, 582, 51,s
2025-02-19 17:15:11.447,744, -21, 633, -1, -3, -1, -3, -5, 5, 587, 54,s
2025-02-19 17:15:11.554,784, -24, 632, 2, -6, -1, -3, -4, 7, 592, 60,s
2025-02-19 17:15:11.660,762, -35, 612, 7, -11, -2, -2, -3, 7, 631, 70,s
2025-02-19 17:15:11.767,807, -5, 629, 1, -1, 0, -2, -4, 5, 668, 85,s
2025-02-19 17:15:11.874,793, -4, 600, -1, 1, -2, -1, -6, 7, 656, 87,s
2025-02-19 17:15:11.980,853, 18, 602, -6, 8, 2, -2, -5, 6, 673, 82,s
2025-02-19 17:15:12.087,805, 20, 601, 1, -7, -3, -2, -5, 7, 661, 74,s
2025-02-19 17:15:12.193,785, -3, 604, 1, -7, -2, -1, -7, 7, 678, 81,s
2025-02-19 17:15:12.303,791, 2, 603, -1, -1, -1, -1, -6, 10, 687, 86,s
2025-02-19 17:15:12.410,789, -5, 607, 0, -3, -2, -2, -5, 6, 675, 87,s
2025-02-19 17:15:12.517,786, -42, 587, 3, 5, -18, -2, -4, 6, 520, 90,s
2025-02-19 17:15:12.627,750, 158, 649, 11, -17, 43, -1, -4, 5, 629, 84,s
2025-02-19 17:15:12.729,873, 57, 471, 4, 35, -20, -2, -3, 5, 312, 88,s
2025-02-19 17:15:12.839,452, -142, 790, -21, 14, 7, 0, -3, 3, 480, 30,s
2025-02-19 17:15:13.860,756, -28, 647, 0, -3, -1, -2, -5, 5, 507, 53,t
2025-02-19 17:15:13.954,756, -32, 645, -1, -2, 0, -3, -4, 5, 521, 55,t
2025-02-19 17:15:14.061,762, -28, 646, 0, -2, -1, -2, -4, 4, 532, 57,t
2025-02-19 17:15:14.167,760, -28, 630, 0, -1, -1, -2, -4, 4, 536, 57,t
2025-02-19 17:15:14.274,763, -18, 643, -1, -2, 0, -2, -3, 3, 545, 58,t
2025-02-19 17:15:14.380,773, -10, 631, -3, 0, 1, -2, -4, 5, 544, 60,t
2025-02-19 17:15:14.490,733, -13, 633, -10, 3, -6, -2, -5, 4, 633, 54,t
2025-02-19 17:15:14.593,758, -19, 638, 4, -3, 0, -3, -5, 6, 690, 57,t
2025-02-19 17:15:14.703,728, -25, 639, 2, -3, -7, -3, -4, 4, 706, 59,t
2025-02-19 17:15:14.811,767, -18, 639, -1, -4, -7, -1, -6, 5, 697, 67,t
2025-02-19 17:15:14.917,744, 15, 625, -5, -6, -14, -2, -6, 4, 708, 71,t
2025-02-19 17:15:15.027,740, -155, 573, 16, 7, -26, -2, -6, 6, 612, 89,t
2025-02-19 17:15:15.134,798, 108, 638, -2, -8, 28, -1, -5, 7, 668, 84,t
2025-02-19 17:15:15.240,697, 13, 497, -22, -26, -49, -2, -6, 4, 148, 83,t
2025-02-19 17:15:15.346,662, 41, 647, -7, -24, 18, -3, -6, 6, 700, 85,t
2025-02-19 17:15:15.457,686, -116, 565, -37, 58, 21, -3, -4, 5, 579, 46,t
2025-02-19 17:15:16.473,766, -6, 637, -1, -1, -1, -2, -5, 6, 548, 62,u
2025-02-19 17:15:16.567,765, -8, 628, -1, -1, -1, -2, -5, 5, 557, 63,u
2025-02-19 17:15:16.674,772, -3, 631, -1, -1, -1, -1, -4, 6, 565, 64,u
2025-02-19 17:15:16.780,769, -11, 631, -1, -1, 0, -2, -6, 5, 567, 64,u
2025-02-19 17:15:16.887,771, -16, 626, 1, 0, 3, -3, -5, 5, 574, 63,u
2025-02-19 17:15:16.997,694, -52, 656, -6, 5, 4, -2, -4, 5, 626, 53,u
2025-02-19 17:15:17.104,747, -30, 640, -2, -1, 2, -3, -4, 4, 626, 55,u
2025-02-19 17:15:17.209,744, -26, 637, 2, -3, 3, -2, -5, 6, 649, 56,u
2025-02-19 17:15:17.316,770, -11, 641, -1, 0, -1, -1, -4, 5, 688, 57,u
2025-02-19 17:15:17.423,741, -19, 641, 1, 3, -2, -2, -4, 5, 647, 57,u
2025-02-19 17:15:17.530,813, 18, 613, 1, 2, -6, -2, -5, 6, 484, 70,u
2025-02-19 17:15:17.640,801, -77, 597, -4, -1, -22, -4, -6, 5, 374, 85,u
2025-02-19 17:15:17.747,787, 153, 609, 0, -15, 32, -3, -3, 7, 538, 86,u
2025-02-19 17:15:17.858,780, -85, 609, 12, -3, -30, -2, -5, 6, 706, 86,u
2025-02-19 17:15:17.964,878, 49, 580, -10, -5, 11, -1, -3, 7, 690, 82,u
2025-02-19 17:15:18.070,540, -149, 714, -20, 20, 3, -1, -3, 3, 561, 30,u
2025-02-19 17:15:18.885,737, -48, 654, 1, -4, -2, 0, -3, 4, 496, 49,v
2025-02-19 17:15:18.984,768, -27, 641, 0, -6, -2, -2, -4, 5, 510, 56,v
2025-02-19 17:15:19.091,763, -14, 638, 5, -12, -5, -4, -4, 6, 534, 67,v
2025-02-19 17:15:19.197,815, 4, 631, -12, 0, -18, -1, -5, 5, 410, 86,v
2025-02-19 17:15:19.303,780, 250, 553, 3, -18, 39, -2, -6, 6, 239, 89,v
2025-02-19 17:15:19.409,772, -7, 627, 10, 2, -14, -4, -6, 6, 755, 87,v
2025-02-19 17:15:19.520,714, -40, 652, -33, 45, 32, -1, -5, 5, 684, 46,v
2025-02-19 17:15:20.438,754, -8, 640, 0, -2, -1, -3, -4, 4, 500, 61,w
2025-02-19 17:15:20.532,766, -1, 641, 1, -1, -2, 0, -4, 5, 492, 65,w
2025-02-19 17:15:20.643,729, 22, 648, 12, -9, -15, -2, -5, 4, 315, 74,w
2025-02-19 17:15:20.745,760, -51, 601, 6, 4, -17, -2, -5, 4, 0, 83,w
2025-02-19 17:15:20.856,825, 144, 612, -3, -16, 14, -1, -5, 6, 408, 85,w
2025-02-19 17:15:20.962,789, 6, 631, 9, -6, -20, -1, -6, 6, 691, 82,w
2025-02-19 17:15:21.072,862, 95, 593, -11, -16, 17, -2, -5, 5, 574, 87,w
2025-02-19 17:15:21.176,928, 31, 611, 13, 0, 19, -1, -5, 7, 769, 84,w
2025-02-19 17:15:21.286,508, -150, 701, -6, -4, -5, 0, -4, 5, 669, 33,w
2025-02-19 17:15:22.105,778, -35, 615, 2, -3, -2, -2, -4, 7, 603, 62,x
2025-02-19 17:15:22.195,799, 3, 592, 4, 3, 1, -2, -3, 5, 655, 69,x
2025-02-19 17:15:22.310,823, -16, 609, 15, -23, -13, -3, -4, 7, 737, 86,x
2025-02-19 17:15:22.412,697, -78, 695, 31, 18, 5, -2, -6, 6, 562, 86,x
2025-02-19 17:15:22.519,825, 86, 656, 40, 30, -75, -2, -4, 5, 416, 82,x
2025-02-19 17:15:22.629,778, 56, 671, -55, -45, 49, -2, -6, 5, 645, 80,x
2025-02-19 17:15:22.736,1076, 98, 512, 0, 47, -4, -1, -3, 7, 641, 79,x
2025-02-19 17:15:22.841,581, -106, 711, 3, -6, -17, -2, -3, 1, 506, 33,x
2025-02-19 17:15:23.662,739, -9, 631, 1, -4, -2, -2, -6, 6, 502, 60,y
2025-02-19 17:15:23.751,756, -8, 627, 1, -2, 1, -1, -7, 5, 516, 64,y
2025-02-19 17:15:23.862,758, -17, 636, 2, -4, -5, -1, -5, 4, 531, 69,y
2025-02-19 17:15:23.969,751, 10, 636, 2, -7, -8, -2, -6, 6, 491, 80,y
2025-02-19 17:15:24.075,859, -100, 604, 26, 5, 8, -2, -7, 5, 137, 84,y
2025-02-19 17:15:24.181,754, 23, 622, 12, 1, -24, 0, -4, 6, 735, 81,y
2025-02-19 17:15:24.292,800, -41, 610, 16, -4, 15, -2, -6, 4, 739, 81,y
2025-02-19 17:15:24.403,822, -10, 549, -15, 15, 16, -1, -3, 8, 303, 89,y
2025-02-19 17:15:24.505,705, -15, 671, -12, 36, 4, 1, -4, 3, 118, 49,y
2025-02-19 17:15:24.611,713, -25, 680, -13, -5, -3, 0, -4, 4, 0, 38,y
2025-02-19 17:15:25.533,745, -47, 645, 7, -14, -5, -2, -4, 6, 590, 56,z
2025-02-19 17:15:25.627,768, -31, 623, -1, -2, -4, -2, -4, 4, 641, 64,z
2025-02-19 17:15:25.734,763, -28, 632, -2, 4, -7, 0, -4, 6, 621, 68,z
2025-02-19 17:15:25.840,932, -8, 630, 30, 9, -27, -2, -5, 5, 231, 86,z
2025-02-19 17:15:25.951,633, -39, 745, 28, -10, -5, -2, -6, 6, 768, 83,z
2025-02-19 17:15:26.058,861, 99, 482, -29, 11, -2, -2, -7, 4, 295, 84,z
2025-02-19 17:15:26.164,750, 48, 641, -2, -26, 7, -1, -3, 5, 661, 84,z
2025-02-19 17:15:26.270,841, 80, 625, -11, 5, 29, -1, -4, 5, 739, 82,z
2025-02-19 17:15:26.377,766, 22, 632, -1, -1, -14, -2, -3, 5, 639, 59,z
2025-02-19 17:15:26.483,730, 7, 645, -10, 5, 1, -3, -4, 3, 567, 53,z
2025-02-19 17:15:28.106,757, -21, 635, -1, -1, 0, -2, -5, 6, 430, 54,0
2025-02-19 17:15:28.196,756, -14, 633, 0, 0, 0, -2, -5, 4, 430, 54,0
2025-02-19 17:15:28.306,755, -22, 637, -1, -1, 0, -2, -3, 5, 426, 54,0
2025-02-19 17:15:28.412,763, -21, 636, -2, 0, 0, -4, -3, 5, 411, 56,0
2025-02-19 17:15:28.519,763, -20, 637, -1, -1, 0, -1, -4, 4, 344, 55,0
2025-02-19 17:15:28.629,765, -26, 634, -3, -3, -2, 0, -4, 7, 429, 57,0
2025-02-19 17:15:28.732,775, 0, 625, -9, 2, -10, -2, -4, 4, 578, 57,0
2025-02-19 17:15:28.846,773, -38, 639, -12, -2, -11, -1, -3, 5, 617, 54,0
2025-02-19 17:15:28.949,798, 20, 618, 0, -8, -6, -2, -7, 5, 629, 63,0
2025-02-19 17:15:29.055,797, 55, 627, 8, -7, 1, -2, -6, 4, 740, 80,0
2025-02-19 17:15:29.162,749, 5, 655, -3, 2, -29, 0, -4, 7, 713, 89,0
2025-02-19 17:15:29.273,885, 310, 537, -15, -24, 92, -1, -7, 5, 544, 83,0
2025-02-19 17:15:29.379,780, -19, 604, -3, -2, -72, -2, -5, 7, 720, 91,0
2025-02-19 17:15:29.486,820, 161, 553, -37, 87, 50, -2, -7, 4, 652, 48,0
2025-02-19 17:15:30.403,766, -43, 644, -7, 1, -4, -3, -4, 5, 66, 57,1
2025-02-19 17:15:30.501,743, -70, 668, 0, -8, -6, -1, -6, 4, 268, 62,1
2025-02-19 17:15:30.608,770, -56, 644, -1, -3, -3, -2, -7, 4, 305, 70,1
2025-02-19 17:15:30.714,759, -45, 644, -2, -2, -4, -1, -7, 6, 304, 73,1
2025-02-19 17:15:30.820,743, -48, 642, 0, -3, -3, -3, -7, 4, 321, 77,1
2025-02-19 17:15:30.927,780, 14, 572, -10, -5, -7, -4, -6, 5, 143, 92,1
2025-02-19 17:15:31.037,664, -103, 712, 16, -3, -8, -3, -6, 6, 695, 92,1
2025-02-19 17:15:31.144,795, 107, 575, 3, -9, 49, -3, -6, 7, 410, 88,1
2025-02-19 17:15:31.247,447, -146, 509, 0, 11, -6, -2, -4, 4, 0, 66,1
2025-02-19 17:15:31.357,713, 11, 647, 35, -41, 21, -2, -4, 7, 349, 92,1
2025-02-19 17:15:31.467,1021, 96, 637, -40, 75, 17, -1, -3, 7, 503, 69,1
2025-02-19 17:15:31.574,744, -56, 642, -3, -12, -18, -3, -4, 5, 384, 47,1
2025-02-19 17:15:32.291,763, -41, 629, -1, -2, -4, -1, -5, 6, 456, 63,2
2025-02-19 17:15:32.386,760, -25, 636, -1, -1, -4, -3, -5, 5, 476, 67,2
2025-02-19 17:15:32.492,765, -11, 639, 0, 0, -6, -1, -6, 6, 402, 71,2
2025-02-19 17:15:32.603,825, 41, 682, -9, -3, -22, -3, -8, 5, 140, 90,2
2025-02-19 17:15:32.710,697, 20, 721, 25, -13, 7, -2, -6, 6, 695, 87,2
2025-02-19 17:15:32.812,957, 7, 376, -14, 10, 5, -2, -6, 5, 0, 86,2
2025-02-19 17:15:32.923,746, 83, 604, 17, -11, 21, 0, -5, 4, 617, 89,2
2025-02-19 17:15:33.033,669, -89, 645, -35, 67, 15, -1, -1, 3, 189, 37,2
2025-02-19 17:15:33.942,756, -23, 653, 0, -3, -2, -2, -6, 5, 349, 57,3
2025-02-19 17:15:34.044,752, -4, 649, 3, -4, -7, -1, -6, 4, 372, 63,3
2025-02-19 17:15:34.151,724, -2, 653, 0, 0, -10, -2, -6, 5, 269, 71,3
2025-02-19 17:15:34.257,799, -76, 487, 16, 9, -9, -1, -8, 5, 0, 88,3
2025-02-19 17:15:34.368,625, -43, 749, -19, -9, 21, -1, -9, 4, 714, 87,3
2025-02-19 17:15:34.470,865, 61, 649, 6, -14, 33, -1, -7, 7, 528, 85,3
2025-02-19 17:15:34.581,865, 188, 478, -10, 7, 24, -2, -5, 5, 114, 89,3
2025-02-19 17:15:34.687,500, -157, 743, -32, 31, 8, -1, -2, 3, 337, 32,3
2025-02-19 17:15:35.605,758, 15, 627, 1, -2, -4, -3, -6, 7, 503, 74,4
2025-02-19 17:15:35.699,752, -10, 630, 1, -2, -5, -3, -5, 5, 560, 75,4
2025-02-19 17:15:35.806,816, 53, 658, 4, -4, -2, -2, -7, 5, 612, 88,4
2025-02-19 17:15:35.916,737, 21, 623, 1, -3, -15, -3, -8, 7, 567, 90,4
2025-02-19 17:15:36.019,834, 125, 538, 21, 8, 4, -1, -6, 5, 0, 82,4
2025-02-19 17:15:36.129,707, 17, 667, 18, -14, 5, -2, -6, 6, 707, 85,4
2025-02-19 17:15:36.236,412, -259, 637, 7, 9, -41, 0, -6, 4, 573, 56,4
2025-02-19 17:15:36.347,773, 51, 673, -22, -13, 73, -1, -8, 5, 583, 86,4
2025-02-19 17:15:36.453,1290, -70, 711, -14, 68, 8, 0, -4, 6, 543, 70,4
2025-02-19 17:15:36.559,691, -58, 669, 9, -20, -14, -1, -2, 4, 503, 41,4
2025-02-19 17:15:37.379,763, -18, 641, -2, 0, -2, -1, -5, 4, 477, 63,5
2025-02-19 17:15:37.473,758, -18, 642, 0, 0, -3, -1, -6, 5, 493, 65,5
2025-02-19 17:15:37.579,723, 0, 677, 13, 7, -11, -2, -6, 5, 273, 67,5
2025-02-19 17:15:37.685,762, -37, 588, 60, 12, -14, -4, -8, 6, 1, 84,5
2025-02-19 17:15:37.792,744, 53, 657, -2, -3, 0, -2, -5, 5, 712, 80,5
2025-02-19 17:15:37.906,633, -159, 635, 34, -21, -19, -1, -7, 3, 273, 76,5
2025-02-19 17:15:38.005,762, 131, 623, 3, 1, 9, -4, -6, 4, 262, 81,5
2025-02-19 17:15:38.120,636, -20, 751, -3, -15, 15, -1, -7, 5, 714, 83,5
2025-02-19 17:15:38.222,925, -15, 447, 36, 23, 4, -4, -5, 5, 124, 86,5
2025-02-19 17:15:38.333,419, -187, 789, -29, 20, 18, 1, -2, 2, 273, 27,5
2025-02-19 17:15:39.754,785, -83, 637, -2, -10, -9, -2, -3, 4, 641, 49,6
2025-02-19 17:15:39.843,779, -10, 637, 2, -7, -7, -1, -3, 5, 711, 58,6
2025-02-19 17:15:39.954,744, -39, 625, 13, -17, -11, -1, -4, 5, 757, 70,6
2025-02-19 17:15:40.057,779, -6, 626, 2, -6, -14, 0, -4, 6, 763, 87,6
2025-02-19 17:15:40.164,790, 27, 605, 6, 4, -5, -1, -5, 4, 746, 83,6
2025-02-19 17:15:40.274,682, -38, 611, -2, -6, -1, -1, -4, 6, 765, 76,6
2025-02-19 17:15:40.380,754, -37, 632, -1, 2, -13, -2, -5, 5, 686, 77,6
2025-02-19 17:15:40.491,946, 182, 447, 19, -15, 77, -2, -3, 5, 410, 83,6
2025-02-19 17:15:40.597,666, -272, 647, 13, 7, -56, -1, -4, 7, 587, 83,6
2025-02-19 17:15:40.704,918, 157, 614, -46, 65, 37, -1, -4, 4, 590, 55,6
2025-02-19 17:15:41.523,773, -27, 634, -1, -2, -3, -1, -4, 5, 574, 64,7
2025-02-19 17:15:41.618,708, -30, 640, 7, -7, -8, -2, -4, 6, 322, 72,7
2025-02-19 17:15:41.724,970, -65, 476, 73, 3, -13, -1, -6, 7, 0, 81,7
2025-02-19 17:15:41.830,741, -73, 675, 26, -8, 38, 0, -4, 6, 695, 0,7
2025-02-19 17:15:41.938,829, 64, 618, -3, 8, 16, -1, -2, 4, 408, 87,7
2025-02-19 17:15:42.043,870, 7, 629, -18, 0, -22, -2, -4, 5, 0, 83,7
2025-02-19 17:15:42.154,693, -39, 680, 13, -15, 11, -1, -4, 5, 713, 85,7
2025-02-19 17:15:42.260,641, -59, 594, -24, 33, 0, 1, -4, 5, 532, 56,7
2025-02-19 17:15:43.182,807, -32, 687, -1, -5, -7, -3, -3, 6, 518, 89,8
2025-02-19 17:15:43.276,743, -99, 582, 4, 12, -21, -1, -4, 6, 96, 90,8
2025-02-19 17:15:43.383,787, 91, 653, 5, -16, 24, -2, -2, 7, 213, 89,8
2025-02-19 17:15:43.490,867, -150, 525, 3, 14, -59, -2, -4, 6, 604, 0,8
2025-02-19 17:15:43.596,751, 97, 712, -8, -15, 10, -1, -6, 6, 676, 75,8
2025-02-19 17:15:43.706,1278, -11, 544, 8, 53, 21, -2, -4, 5, 566, 76,8
2025-02-19 17:15:43.809,616, -85, 683, 7, -20, -5, 0, -2, 3, 553, 36,8
2025-02-19 17:15:45.230,763, -42, 633, -1, -4, -7, -1, -4, 4, 536, 54,9
2025-02-19 17:15:45.325,758, -50, 631, 2, -10, -9, -1, -4, 6, 612, 62,9
2025-02-19 17:15:45.432,794, -17, 609, 0, 0, -4, -2, -5, 5, 646, 71,9
2025-02-19 17:15:45.537,769, -21, 611, 3, -5, -2, 0, -4, 5, 675, 73,9
2025-02-19 17:15:45.648,795, 27, 590, -3, -4, -5, -1, -5, 4, 672, 85,9
2025-02-19 17:15:45.754,770, -9, 601, -6, 4, -17, -1, -4, 8, 483, 86,9
2025-02-19 17:15:45.861,794, 156, 549, 15, -10, 33, -2, -4, 5, 349, 83,9
2025-02-19 17:15:45.968,787, 34, 683, -10, 38, -6, -2, -5, 6, 723, 0,9
2025-02-19 17:15:46.074,841, -27, 652, 8, 2, 13, -2, -4, 5, 695, 81,9
2025-02-19 17:15:46.180,838, -48, 470, -39, 5, 30, 0, -2, 6, 3, 93,9
2025-02-19 17:15:46.292,509, -125, 721, -11, 57, 21, 1, -1, 4, 257, 28,9
2025-02-19 17:15:46.397,825, -53, 674, 8, -18, -6, 0, 0, 2, 145, 33,9
2025-02-19 17:15:46.504,685, -71, 686, -12, 2, -5, 1, -1, 2, 0, 30,9
