Timestamp,Acc_X,Acc_Y,Acc_Z,Gyro_X,Gyro_Y,Gyro_Z,Mag_X,Mag_Y,Mag_Z,Force,IR_A,Letter
2025-02-19 11:26:36.058,39, 136, 986, -34, -16, -3, -3, 4, 2, 0, 11,noise
2025-02-19 11:26:36.152,98, 107, 1025, -20, -9, -9, -3, 3, 4, 0, 10,noise
2025-02-19 11:26:36.259,104, 18, 959, -48, 6, 14, -1, 5, 3, 0, 11,noise
2025-02-19 11:26:36.369,104, -83, 952, -49, 18, -12, -2, 12, 5, 0, 14,noise
2025-02-19 11:26:36.480,119, -135, 1063, -29, -26, -30, -3, 12, 5, 0, 17,noise
2025-02-19 11:26:36.586,145, -157, 984, -24, -3, -18, -3, 12, 7, 0, 18,noise
2025-02-19 11:26:36.690,122, -175, 884, 0, 20, -14, -3, 16, 8, 0, 22,noise
2025-02-19 11:26:36.790,42, -207, 966, -12, 22, -39, -3, 14, 6, 0, 24,noise
2025-02-19 11:26:36.904,153, -24, 988, 0, -16, -28, -4, 14, 7, 0, 19,noise
2025-02-19 11:26:37.016,182, -232, 1036, -33, -27, -45, -8, 14, 8, 0, 17,noise
2025-02-19 11:26:37.118,133, -89, 997, 60, 54, 7, -5, 11, 6, 0, 20,noise
2025-02-19 11:26:37.225,104, -139, 999, 23, -69, -2, -7, 9, 7, 0, 16,noise
2025-02-19 11:26:37.335,143, -163, 971, -29, -2, 20, -7, 9, 8, 0, 13,noise
2025-02-19 11:26:37.440,276, -49, 1009, -36, 35, -22, -8, 11, 6, 126, 14,noise
2025-02-19 11:26:37.549,160, -89, 888, -37, 44, -24, -8, 13, 6, 0, 15,noise
2025-02-19 11:26:37.653,202, -108, 964, -6, -18, -9, -6, 11, 7, 0, 16,noise
2025-02-19 11:26:37.766,244, -128, 999, 13, -60, 31, -7, 12, 6, 0, 15,noise
2025-02-19 11:26:37.871,184, -172, 871, 31, -8, 20, -8, 11, 9, 0, 13,noise
2025-02-19 11:26:37.975,144, 20, 1030, 20, -28, 5, -4, 10, 6, 0, 16,noise
2025-02-19 11:26:38.085,125, 53, 1064, 28, -28, -23, -8, 9, 5, 0, 15,noise
2025-02-19 11:26:38.192,439, 114, 1017, 46, -35, -54, -8, 6, 7, 0, 14,noise
2025-02-19 11:26:38.295,281, 41, 958, -10, -24, 1, -9, 6, 7, 0, 11,noise
2025-02-19 11:26:38.405,395, -202, 841, 55, -33, 20, -11, 8, 8, 0, 9,noise
2025-02-19 11:26:38.510,319, 121, 963, -9, 9, 20, -10, 5, 10, 0, 11,noise
2025-02-19 11:26:38.620,188, -12, 983, -2, 0, 9, -10, 7, 9, 523, 14,noise
2025-02-19 11:26:38.729,376, 45, 990, -10, -13, -5, -10, 9, 8, 646, 12,noise
2025-02-19 11:26:38.839,344, -2, 917, -62, -7, -17, -10, 10, 10, 543, 14,noise
2025-02-19 11:26:38.945,480, 80, 939, 24, -35, 14, -12, 9, 11, 253, 15,noise
2025-02-19 11:26:39.052,532, 22, 894, -8, -40, 27, -11, 10, 14, 302, 16,noise
2025-02-19 11:26:39.160,599, -21, 852, -23, -26, 7, -13, 10, 17, 482, 19,noise
2025-02-19 11:26:39.268,423, -157, 743, -7, 10, 7, -14, 12, 20, 480, 19,noise
2025-02-19 11:26:39.370,573, -127, 755, -19, -4, -9, -15, 13, 17, 660, 20,noise
2025-02-19 11:26:39.486,574, -153, 807, -7, -6, -10, -14, 12, 21, 727, 19,noise
2025-02-19 11:26:39.589,500, -169, 829, 56, 4, 26, -14, 15, 19, 706, 18,noise
2025-02-19 11:26:39.699,492, -132, 811, 32, -19, -14, -14, 14, 18, 423, 17,noise
2025-02-19 11:26:39.803,488, -127, 805, -7, -1, -16, -15, 12, 18, 282, 18,noise
2025-02-19 11:26:39.912,579, -104, 810, 9, -17, -8, -15, 11, 19, 0, 20,noise
2025-02-19 11:26:40.018,592, -113, 817, -3, -3, -1, -14, 9, 18, 1, 24,noise
2025-02-19 11:26:40.120,619, -94, 817, -7, 12, 3, -17, 9, 19, 0, 24,noise
2025-02-19 11:26:40.231,477, -64, 833, 10, 5, 30, -15, 11, 18, 183, 20,noise
2025-02-19 11:26:40.342,621, -59, 848, 11, -2, 2, -15, 10, 16, 160, 21,noise
2025-02-19 11:26:40.448,479, -180, 799, -58, 15, -3, -14, 9, 17, 479, 18,noise
2025-02-19 11:26:40.557,563, -137, 794, -8, -16, -2, -16, 12, 18, 698, 20,noise
2025-02-19 11:26:40.660,523, -122, 832, -19, 7, 0, -16, 11, 18, 753, 20,noise
2025-02-19 11:26:40.770,556, -144, 799, -4, -19, -1, -16, 11, 19, 730, 22,noise
2025-02-19 11:26:40.879,629, -112, 811, 0, -7, -1, -15, 12, 22, 736, 26,noise
2025-02-19 11:26:40.989,614, -110, 760, -18, -10, -16, -16, 11, 19, 732, 27,noise
2025-02-19 11:26:41.090,604, -131, 773, -14, 0, -11, -16, 10, 21, 759, 29,noise
2025-02-19 11:26:41.198,618, -115, 760, -6, -5, -3, -17, 8, 21, 766, 30,noise
2025-02-19 11:26:41.302,616, -137, 764, 1, -1, -5, -18, 10, 23, 754, 31,noise
2025-02-19 11:26:41.410,644, -105, 750, 0, -8, -4, -16, 9, 23, 759, 34,noise
2025-02-19 11:26:41.521,652, -114, 759, -1, 2, -1, -17, 10, 23, 758, 36,noise
2025-02-19 11:26:41.621,633, -98, 754, -1, 1, -1, -17, 11, 23, 756, 34,noise
2025-02-19 11:26:41.735,637, -108, 760, -2, 1, 1, -17, 9, 22, 760, 34,noise
2025-02-19 11:26:41.841,629, -108, 759, 0, 0, -1, -18, 9, 23, 765, 34,noise
2025-02-19 11:26:41.952,634, -105, 756, -1, 1, 1, -17, 10, 22, 764, 33,noise
2025-02-19 11:26:42.051,625, -114, 762, -1, 0, 0, -16, 9, 22, 764, 33,noise
2025-02-19 11:26:42.165,624, -114, 763, -4, -1, 0, -16, 9, 24, 770, 33,noise
2025-02-19 11:26:42.271,625, -121, 768, -6, -2, 2, -17, 10, 22, 771, 32,noise
2025-02-19 11:26:42.370,631, -125, 761, -1, 0, 2, -17, 9, 24, 769, 32,noise
2025-02-19 11:26:42.486,618, -126, 750, -5, 0, -1, -17, 9, 21, 781, 31,noise
2025-02-19 11:26:42.594,630, -117, 755, -4, 2, 0, -17, 11, 22, 780, 30,noise
2025-02-19 11:26:42.701,619, -141, 774, -5, 4, -2, -17, 9, 22, 772, 30,noise
2025-02-19 11:26:42.808,619, -146, 765, -2, 0, -1, -17, 10, 22, 772, 29,noise
2025-02-19 11:26:42.910,624, -146, 761, -1, 0, 0, -16, 10, 23, 770, 29,noise
2025-02-19 11:26:58.830,579, -110, 795, -4, 0, -3, -17, 10, 20, 731, 23,A
2025-02-19 11:26:58.920,584, -109, 795, -2, -2, -1, -17, 11, 21, 731, 23,A
2025-02-19 11:26:59.031,596, -119, 799, -1, -2, 1, -17, 11, 22, 735, 23,A
2025-02-19 11:26:59.138,588, -115, 792, 0, -2, 0, -15, 12, 20, 733, 24,A
2025-02-19 11:26:59.247,592, -112, 786, -1, -1, -4, -17, 10, 20, 733, 24,A
2025-02-19 11:26:59.355,604, -92, 791, -9, -3, -13, -17, 9, 21, 754, 24,A
2025-02-19 11:26:59.464,612, -106, 772, -30, -12, -11, -17, 10, 22, 791, 26,A
2025-02-19 11:26:59.570,606, -166, 759, -30, -19, -16, -18, 9, 23, 806, 30,A
2025-02-19 11:26:59.681,701, -143, 720, -34, -22, -12, -19, 11, 25, 842, 37,A
2025-02-19 11:26:59.782,667, -165, 678, -50, -9, -13, -18, 9, 26, 855, 40,A
2025-02-19 11:26:59.894,637, -220, 676, -5, -32, -19, -20, 8, 27, 872, 51,A
2025-02-19 11:26:59.997,762, -204, 634, -21, 6, -5, -21, 7, 30, 879, 64,A
2025-02-19 11:27:00.101,715, -230, 649, -8, -5, -7, -20, 6, 30, 884, 63,A
2025-02-19 11:27:00.215,714, -249, 618, 3, -11, -13, -19, 6, 28, 896, 75,A
2025-02-19 11:27:00.322,727, -214, 619, 7, -11, -11, -21, 7, 30, 910, 99,A
2025-02-19 11:27:00.429,760, -189, 623, 3, 1, -3, -21, 6, 31, 914, 113,A
2025-02-19 11:27:00.530,466, -329, 622, -5, -3, 2, -21, 4, 31, 899, 117,A
2025-02-19 11:27:00.640,818, -94, 509, 2, 10, 29, -20, 8, 31, 619, 112,A
2025-02-19 11:27:00.750,398, -416, 645, -29, 14, -35, -21, 6, 30, 871, 72,A
2025-02-19 11:27:00.860,719, -354, 655, 20, -16, 32, -19, 5, 30, 879, 114,A
2025-02-19 11:27:00.964,844, -188, 631, 8, 5, -2, -20, 8, 33, 878, 114,A
2025-02-19 11:27:01.070,1041, -176, 672, 10, 0, -24, -20, 4, 31, 805, 111,A
2025-02-19 11:27:01.181,678, -204, 672, 42, -13, 3, -20, 5, 30, 920, 112,A
2025-02-19 11:27:01.281,668, -209, 588, -28, 44, 20, -19, 8, 29, 860, 77,A
2025-02-19 11:27:02.401,750, -168, 640, -2, 0, 0, -19, 6, 28, 850, 80,B
2025-02-19 11:27:02.501,755, -170, 636, -2, -1, 0, -21, 7, 30, 858, 80,B
2025-02-19 11:27:02.612,748, -162, 636, -2, -1, -1, -20, 7, 30, 859, 80,B
2025-02-19 11:27:02.714,750, -159, 631, -1, 0, -1, -21, 6, 29, 863, 80,B
2025-02-19 11:27:02.824,752, -167, 620, 10, -1, 5, -21, 6, 31, 882, 77,B
2025-02-19 11:27:02.930,730, -175, 643, 5, -2, -2, -19, 5, 31, 894, 73,B
2025-02-19 11:27:03.030,732, -153, 638, 4, -3, -2, -20, 7, 30, 906, 77,B
2025-02-19 11:27:03.147,790, -119, 614, 0, -5, -12, -20, 6, 30, 909, 95,B
2025-02-19 11:27:03.254,746, -164, 630, -2, -1, -4, -20, 5, 30, 910, 98,B
2025-02-19 11:27:03.361,802, -84, 611, -1, 2, -8, -21, 7, 31, 912, 109,B
2025-02-19 11:27:03.463,764, -170, 624, 7, 2, -16, -21, 6, 31, 910, 112,B
2025-02-19 11:27:03.570,818, 121, 524, 2, -12, 37, -18, 5, 29, 800, 111,B
2025-02-19 11:27:03.684,901, -91, 624, -30, 51, -41, -19, 8, 29, 895, 91,B
2025-02-19 11:27:03.790,827, -151, 557, 34, -5, -20, -21, 5, 31, 909, 108,B
2025-02-19 11:27:03.897,678, -114, 700, 0, -7, 27, -21, 4, 30, 913, 109,B
2025-02-19 11:27:04.008,916, -83, 585, 15, -31, 23, -20, 7, 29, 904, 107,B
2025-02-19 11:27:04.110,798, 36, 529, -29, 8, 26, -19, 8, 31, 837, 110,B
2025-02-19 11:27:04.220,603, -174, 672, -21, 76, 23, -19, 8, 26, 864, 41,B
2025-02-19 11:27:04.328,792, -114, 660, 13, -40, -21, -20, 8, 26, 879, 46,B
2025-02-19 11:27:05.446,750, -96, 645, -2, 0, -1, -20, 6, 29, 904, 64,C
2025-02-19 11:27:05.540,746, -96, 645, 0, -1, -1, -19, 7, 28, 908, 64,C
2025-02-19 11:27:05.647,746, -88, 639, 0, -2, -2, -19, 7, 29, 912, 67,C
2025-02-19 11:27:05.750,758, -85, 644, 1, -5, -3, -19, 6, 29, 915, 71,C
2025-02-19 11:27:05.862,740, -103, 642, 4, -9, -9, -21, 6, 28, 921, 78,C
2025-02-19 11:27:05.970,787, -51, 633, 10, -9, -7, -19, 5, 31, 931, 101,C
2025-02-19 11:27:06.080,802, -70, 629, -6, -2, -12, -21, 4, 29, 925, 104,C
2025-02-19 11:27:06.180,886, 107, 553, 23, -4, 43, -19, 5, 27, 869, 102,C
2025-02-19 11:27:06.290,717, -45, 681, 16, -7, -8, -18, 7, 28, 933, 96,C
2025-02-19 11:27:06.400,416, -295, 714, -51, 86, 28, -18, 8, 24, 867, 32,C
2025-02-19 11:27:06.500,774, -61, 674, 14, -31, -15, -18, 9, 25, 873, 37,C
2025-02-19 11:27:07.824,740, -84, 647, 3, -3, -2, -18, 9, 28, 890, 61,D
2025-02-19 11:27:07.920,748, -78, 650, 0, -3, -3, -17, 6, 27, 898, 65,D
2025-02-19 11:27:08.027,750, -71, 651, 1, -2, -3, -21, 6, 29, 900, 68,D
2025-02-19 11:27:08.134,756, -73, 654, 5, -5, -3, -21, 6, 30, 906, 74,D
2025-02-19 11:27:08.243,740, -50, 641, 0, -5, -7, -20, 5, 27, 910, 81,D
2025-02-19 11:27:08.345,781, 6, 578, 4, 1, -8, -20, 4, 31, 920, 100,D
2025-02-19 11:27:08.461,763, -92, 650, 11, -9, -32, -20, 4, 28, 924, 100,D
2025-02-19 11:27:08.561,819, 85, 553, 18, 9, 25, -19, 6, 28, 888, 99,D
2025-02-19 11:27:08.670,575, -213, 705, -12, -24, -53, -20, 4, 28, 918, 89,D
2025-02-19 11:27:08.780,679, -17, 734, 9, -10, 24, -18, 3, 28, 927, 95,D
2025-02-19 11:27:08.886,936, -67, 425, 10, 29, 18, -19, 5, 28, 842, 102,D
2025-02-19 11:27:08.993,318, -194, 822, -19, 24, 4, -18, 8, 25, 873, 34,D
2025-02-19 11:27:09.099,801, -52, 645, 1, -14, -3, -18, 9, 26, 867, 45,D
2025-02-19 11:27:10.420,740, -72, 653, -2, -1, -1, -19, 7, 27, 889, 58,E
2025-02-19 11:27:10.513,750, -62, 658, -1, -1, -1, -19, 5, 28, 890, 58,E
2025-02-19 11:27:10.623,741, -65, 655, -1, 0, -2, -19, 5, 28, 893, 59,E
2025-02-19 11:27:10.729,744, -62, 658, -1, -2, -2, -19, 6, 28, 893, 60,E
2025-02-19 11:27:10.836,742, -63, 655, 0, -2, -2, -20, 5, 28, 893, 62,E
2025-02-19 11:27:10.943,747, -67, 657, -1, -4, -4, -20, 5, 26, 898, 67,E
2025-02-19 11:27:11.046,756, -52, 646, 0, -2, -2, -20, 7, 29, 898, 70,E
2025-02-19 11:27:11.160,744, -47, 645, -1, -1, -2, -21, 5, 28, 898, 72,E
2025-02-19 11:27:11.264,755, -48, 652, -1, 0, 0, -19, 7, 28, 899, 72,E
2025-02-19 11:27:11.372,752, -45, 649, -1, 0, 0, -20, 6, 28, 899, 72,E
2025-02-19 11:27:11.479,741, -57, 650, 0, -1, -1, -19, 3, 27, 898, 71,E
2025-02-19 11:27:11.586,757, -47, 654, -1, -1, 0, -19, 5, 28, 897, 71,E
2025-02-19 11:27:11.692,742, -47, 642, -1, -1, 0, -19, 7, 29, 897, 71,E
2025-02-19 11:27:11.800,757, -44, 654, -1, -1, -1, -21, 5, 27, 896, 71,E
2025-02-19 11:27:11.908,746, -49, 647, 0, -1, -1, -18, 5, 30, 896, 72,E
2025-02-19 11:27:12.011,761, -45, 646, -1, -1, -1, -19, 6, 26, 898, 72,E
2025-02-19 11:27:12.120,757, -49, 647, -1, -1, -1, -20, 5, 26, 898, 72,E
2025-02-19 11:27:12.228,750, -55, 644, -1, 0, -1, -18, 5, 30, 898, 72,E
2025-02-19 11:27:12.339,752, -45, 645, -1, -1, -1, -20, 4, 28, 898, 73,E
2025-02-19 11:27:12.445,749, -48, 645, -2, -1, -1, -20, 6, 27, 901, 74,E
2025-02-19 11:27:12.550,743, -44, 639, -1, -5, -3, -20, 6, 29, 904, 78,E
2025-02-19 11:27:12.658,751, -45, 641, 0, -4, -3, -20, 5, 29, 908, 85,E
2025-02-19 11:27:12.769,700, -33, 630, 1, -12, -16, -20, 5, 27, 913, 96,E
2025-02-19 11:27:12.879,778, -148, 675, 11, -5, -26, -18, 5, 29, 916, 100,E
2025-02-19 11:27:12.982,818, 137, 538, 10, -7, 27, -19, 6, 29, 812, 102,E
2025-02-19 11:27:13.093,705, -29, 564, -45, 53, -24, -19, 5, 28, 898, 67,E
2025-02-19 11:27:13.194,760, -29, 653, 11, -26, -12, -20, 5, 29, 914, 71,E
2025-02-19 11:27:13.305,643, -51, 630, -17, -17, -23, -21, 5, 27, 899, 89,E
2025-02-19 11:27:13.411,711, 47, 618, 20, -21, 13, -21, 5, 29, 941, 96,E
2025-02-19 11:27:13.511,846, -49, 669, 10, 29, 25, -20, 4, 28, 918, 91,E
2025-02-19 11:27:13.625,1174, 8, 992, 27, -8, -19, -18, 9, 27, 889, 97,E
2025-02-19 11:27:13.732,741, -6, 663, 4, -2, 2, -19, 7, 27, 932, 96,E
2025-02-19 11:27:13.838,615, -30, 598, 5, -23, 5, -19, 5, 28, 796, 7,E
2025-02-19 11:27:13.945,775, 25, 625, 0, -7, 11, -18, 9, 29, 922, 95,E
2025-02-19 11:27:14.056,427, -148, 766, -18, 43, 8, -19, 8, 26, 808, 35,E
2025-02-19 11:27:15.070,745, -65, 652, 0, -3, -2, -19, 7, 26, 834, 58,F
2025-02-19 11:27:15.169,748, -56, 653, -1, -1, -1, -19, 8, 27, 834, 61,F
2025-02-19 11:27:15.276,747, -63, 652, -2, -1, -1, -19, 8, 28, 837, 62,F
2025-02-19 11:27:15.382,747, -60, 647, -2, -3, -1, -17, 6, 27, 839, 64,F
2025-02-19 11:27:15.493,760, -50, 652, -3, -3, -3, -19, 6, 29, 841, 66,F
2025-02-19 11:27:15.593,744, -54, 625, -5, -2, -6, -18, 6, 28, 854, 68,F
2025-02-19 11:27:15.705,738, -51, 637, -5, -3, -7, -19, 5, 27, 873, 71,F
2025-02-19 11:27:15.813,754, -44, 637, -3, -7, -8, -19, 6, 29, 887, 80,F
2025-02-19 11:27:15.919,808, -7, 605, -7, 4, -6, -21, 5, 29, 891, 92,F
2025-02-19 11:27:16.027,792, 18, 591, -6, 3, -15, -20, 5, 28, 900, 100,F
2025-02-19 11:27:16.136,708, -152, 719, 40, -21, 64, -19, 4, 29, 854, 100,F
2025-02-19 11:27:16.242,811, -4, 625, 22, 14, 28, -19, 6, 28, 833, 99,F
2025-02-19 11:27:16.353,440, -254, 765, 2, -66, -49, -19, 5, 27, 901, 98,F
2025-02-19 11:27:16.456,701, 21, 681, 19, -15, 10, -18, 3, 31, 933, 99,F
2025-02-19 11:27:16.561,749, 51, 610, -15, 66, 29, -20, 4, 29, 866, 76,F
2025-02-19 11:27:16.670,1009, 197, 656, 30, -37, 18, -19, 4, 28, 909, 96,F
2025-02-19 11:27:16.777,1105, 92, 566, -14, 59, 23, -19, 5, 29, 910, 86,F
2025-02-19 11:27:16.889,708, -38, 642, 18, -31, -13, -19, 5, 26, 875, 57,F
2025-02-19 11:27:18.000,756, -11, 633, -2, 0, -2, -20, 4, 28, 896, 74,G
2025-02-19 11:27:18.100,751, -16, 632, 0, -2, -2, -19, 5, 28, 903, 75,G
2025-02-19 11:27:18.208,767, -4, 628, -2, -3, -3, -19, 4, 28, 909, 78,G
2025-02-19 11:27:18.315,737, -53, 638, 5, -18, -6, -19, 5, 29, 920, 93,G
2025-02-19 11:27:18.420,734, -33, 656, 1, 0, -15, -19, 3, 29, 918, 102,G
2025-02-19 11:27:18.527,927, 227, 497, 21, -2, 49, -20, 4, 28, 829, 96,G
2025-02-19 11:27:18.636,703, -23, 619, -6, 2, -52, -20, 7, 29, 925, 97,G
2025-02-19 11:27:18.746,812, 139, 526, -1, -7, 33, -19, 5, 28, 867, 101,G
2025-02-19 11:27:18.850,488, -208, 556, -31, -10, -42, -20, 3, 28, 873, 91,G
2025-02-19 11:27:18.959,769, 58, 638, 7, -10, 15, -18, 6, 30, 936, 98,G
2025-02-19 11:27:19.062,513, -181, 761, -31, 65, 32, -19, 6, 23, 822, 39,G
2025-02-19 11:27:21.585,687, -90, 708, -1, -2, -1, -19, 10, 25, 586, 31,H
2025-02-19 11:27:21.680,694, -110, 702, -1, -3, 0, -17, 9, 25, 613, 33,H
2025-02-19 11:27:21.785,703, -93, 703, -3, -1, -2, -19, 9, 25, 640, 33,H
2025-02-19 11:27:21.892,695, -90, 694, -8, -3, -7, -17, 10, 25, 666, 34,H
2025-02-19 11:27:22.000,693, -87, 680, -5, -6, -11, -20, 11, 26, 729, 37,H
2025-02-19 11:27:22.112,715, -99, 666, -10, -7, -18, -20, 8, 25, 799, 43,H
2025-02-19 11:27:22.210,688, -122, 683, -15, 1, -15, -20, 8, 28, 830, 46,H
2025-02-19 11:27:22.325,708, -133, 675, 3, -27, -7, -21, 5, 28, 846, 63,H
2025-02-19 11:27:22.430,801, -76, 615, -3, 0, -1, -20, 5, 28, 866, 90,H
2025-02-19 11:27:22.542,749, -109, 646, -7, -4, -9, -20, 5, 29, 881, 94,H
2025-02-19 11:27:22.642,785, -21, 625, -5, 2, -9, -20, 3, 29, 882, 103,H
2025-02-19 11:27:22.750,549, -231, 714, 22, -7, 10, -20, 6, 29, 871, 103,H
2025-02-19 11:27:22.861,796, -16, 601, 33, 9, 29, -19, 6, 29, 781, 102,H
2025-02-19 11:27:22.972,926, -77, 597, 21, -17, -26, -19, 4, 28, 831, 101,H
2025-02-19 11:27:23.078,752, 67, 514, -37, 60, -20, -20, 6, 28, 909, 75,H
2025-02-19 11:27:23.185,797, -28, 586, 14, -10, 33, -19, 3, 30, 835, 106,H
2025-02-19 11:27:23.291,1066, -33, 525, 24, 48, 7, -22, 8, 28, 824, 95,H
2025-02-19 11:27:23.398,426, -237, 780, 0, -6, -9, -18, 9, 26, 816, 34,H
2025-02-19 11:27:24.410,744, -90, 659, -2, 0, 0, -18, 6, 27, 769, 50,I
2025-02-19 11:27:24.512,744, -102, 661, -1, -1, 0, -21, 8, 27, 776, 51,I
2025-02-19 11:27:24.620,737, -102, 660, -2, -2, -1, -20, 9, 28, 783, 51,I
2025-02-19 11:27:24.725,737, -86, 651, -3, -1, -2, -19, 7, 26, 788, 53,I
2025-02-19 11:27:24.831,746, -87, 641, -7, 0, -4, -20, 6, 28, 804, 53,I
2025-02-19 11:27:24.941,741, -81, 658, -1, 0, -6, -20, 8, 29, 848, 54,I
2025-02-19 11:27:25.053,738, -122, 668, -3, -1, -11, -20, 6, 27, 876, 57,I
2025-02-19 11:27:25.155,740, -85, 632, -6, -7, -10, -21, 7, 29, 864, 74,I
2025-02-19 11:27:25.260,757, -49, 634, -2, 1, -5, -21, 7, 29, 857, 86,I
2025-02-19 11:27:25.372,790, -219, 520, 27, 2, -19, -20, 5, 28, 806, 104,I
2025-02-19 11:27:25.474,780, -55, 605, 4, -5, 4, -20, 5, 30, 917, 102,I
2025-02-19 11:27:25.584,638, -29, 653, 0, 6, -10, -20, 4, 28, 897, 95,I
2025-02-19 11:27:25.692,736, -254, 736, 5, -10, 39, -18, 4, 29, 858, 102,I
2025-02-19 11:27:25.800,717, -68, 647, 23, 18, 25, -19, 8, 30, 824, 100,I
2025-02-19 11:27:25.909,771, 1, 500, 11, -9, -10, -18, 6, 28, 753, 101,I
2025-02-19 11:27:26.015,729, -13, 649, 1, -2, 6, -19, 5, 30, 878, 105,I
2025-02-19 11:27:26.126,576, -168, 687, -11, 24, -5, -18, 8, 28, 797, 58,I
2025-02-19 11:27:27.342,770, -24, 632, -2, -1, -1, -18, 4, 29, 842, 80,J
2025-02-19 11:27:27.431,766, -21, 637, 0, -1, 0, -20, 5, 28, 845, 81,J
2025-02-19 11:27:27.543,769, -21, 635, -2, 1, 0, -19, 5, 28, 838, 82,J
2025-02-19 11:27:27.650,766, -33, 639, 0, 0, -2, -19, 5, 28, 829, 83,J
2025-02-19 11:27:27.756,775, -12, 629, 0, 0, -2, -20, 5, 28, 827, 85,J
2025-02-19 11:27:27.860,763, -25, 629, -2, -1, -1, -18, 3, 28, 825, 85,J
2025-02-19 11:27:27.974,770, -16, 636, -1, -1, -1, -19, 2, 28, 827, 86,J
2025-02-19 11:27:28.080,754, -20, 633, -3, 0, -2, -21, 5, 29, 822, 84,J
2025-02-19 11:27:28.186,754, -17, 635, -2, -1, -4, -19, 2, 29, 814, 86,J
2025-02-19 11:27:28.291,763, -13, 637, -1, -1, 0, -21, 3, 27, 816, 87,J
2025-02-19 11:27:28.399,762, -18, 636, -1, 0, 0, -21, 5, 29, 819, 87,J
2025-02-19 11:27:28.505,752, -13, 635, 2, -1, 1, -18, 4, 29, 831, 86,J
2025-02-19 11:27:28.612,772, 6, 633, 5, -1, 2, -20, 5, 29, 856, 84,J
2025-02-19 11:27:28.718,756, -6, 644, 1, -1, 0, -20, 5, 29, 863, 83,J
2025-02-19 11:27:28.824,739, -15, 647, -9, 2, -5, -19, 5, 27, 843, 83,J
2025-02-19 11:27:28.940,824, -88, 483, -9, -3, -23, -21, 4, 30, 785, 103,J
2025-02-19 11:27:29.042,679, -24, 705, 7, -7, 6, -21, 5, 31, 909, 101,J
2025-02-19 11:27:29.152,588, -100, 613, -7, 25, -13, -20, 4, 27, 801, 76,J
2025-02-19 11:27:29.260,671, -125, 698, 4, -14, 57, -19, 6, 29, 833, 101,J
2025-02-19 11:27:29.370,725, -121, 608, 21, 72, -65, -19, 8, 31, 759, 101,J
2025-02-19 11:27:29.476,497, -98, 767, -24, 41, 40, -17, 8, 23, 775, 38,J
2025-02-19 11:27:29.583,791, -39, 657, 0, -14, -11, -19, 10, 26, 742, 43,J
2025-02-19 11:27:33.801,643, -131, 755, 5, 1, -1, -14, 15, 22, 227, 22,K
2025-02-19 11:27:33.891,637, -152, 786, 14, 0, 6, -15, 14, 20, 278, 22,K
2025-02-19 11:27:34.002,628, -129, 785, 3, 3, -1, -15, 13, 19, 432, 22,K
2025-02-19 11:27:34.106,577, -124, 750, 1, -2, -1, -15, 13, 21, 415, 22,K
2025-02-19 11:27:34.215,617, -95, 782, 4, -10, 3, -14, 13, 20, 511, 23,K
2025-02-19 11:27:34.323,678, -88, 752, -24, -23, -1, -15, 13, 21, 621, 28,K
2025-02-19 11:27:34.432,721, -138, 633, -29, 6, -7, -16, 11, 23, 687, 28,K
2025-02-19 11:27:34.540,808, -118, 882, 3, 22, -17, -17, 12, 24, 778, 33,K
2025-02-19 11:27:34.650,707, -222, 782, -6, -27, -19, -16, 9, 24, 861, 30,K
2025-02-19 11:27:34.760,736, -141, 688, -23, -4, -30, -18, 10, 24, 891, 37,K
2025-02-19 11:27:34.867,604, -231, 686, -26, -19, -15, -20, 10, 26, 900, 39,K
2025-02-19 11:27:34.968,815, -116, 620, -5, -19, -7, -20, 6, 28, 911, 61,K
2025-02-19 11:27:35.073,728, -163, 630, -7, -2, -7, -19, 6, 28, 911, 67,K
2025-02-19 11:27:35.180,771, -129, 611, -5, -8, -11, -20, 8, 30, 913, 79,K
2025-02-19 11:27:35.292,777, -118, 611, -2, -7, -10, -21, 7, 28, 913, 94,K
2025-02-19 11:27:35.399,767, -120, 592, 0, -1, 0, -20, 5, 30, 914, 107,K
2025-02-19 11:27:35.505,783, -127, 591, 3, 1, -1, -21, 9, 32, 910, 109,K
2025-02-19 11:27:35.610,786, -112, 606, -1, 0, -1, -22, 6, 29, 914, 107,K
2025-02-19 11:27:35.722,647, -460, 747, 31, -11, 58, -20, 7, 31, 873, 111,K
2025-02-19 11:27:35.829,874, -115, 588, 43, 11, 29, -20, 10, 31, 828, 109,K
2025-02-19 11:27:35.931,536, -200, 721, 8, -38, -21, -19, 7, 29, 906, 89,K
2025-02-19 11:27:36.040,671, -137, 688, -10, 17, -1, -21, 7, 33, 856, 113,K
2025-02-19 11:27:36.153,728, -237, 624, -11, -54, 54, -20, 7, 31, 667, 114,K
2025-02-19 11:27:36.259,824, -210, 347, 21, 57, -37, -20, 8, 31, 838, 116,K
2025-02-19 11:27:36.366,568, -155, 685, 5, 1, -19, -20, 10, 28, 832, 47,K
2025-02-19 11:27:37.483,780, -79, 612, -1, -1, -1, -19, 7, 30, 853, 81,L
2025-02-19 11:27:37.572,770, -86, 621, -2, -1, 0, -21, 6, 28, 853, 80,L
2025-02-19 11:27:37.684,767, -74, 621, -2, 0, 0, -19, 7, 30, 853, 81,L
2025-02-19 11:27:37.791,777, -82, 614, -1, 0, -1, -19, 5, 29, 855, 81,L
2025-02-19 11:27:37.901,780, -74, 617, -2, 0, -2, -20, 8, 30, 858, 81,L
2025-02-19 11:27:38.007,780, -67, 624, 0, -2, -1, -19, 7, 29, 866, 80,L
2025-02-19 11:27:38.110,770, -89, 617, -2, -1, -1, -19, 6, 29, 867, 81,L
2025-02-19 11:27:38.221,776, -84, 617, -2, -6, -7, -21, 8, 30, 872, 87,L
2025-02-19 11:27:38.327,780, -68, 614, 1, -5, -4, -20, 5, 30, 877, 96,L
2025-02-19 11:27:38.434,776, -68, 619, -3, 2, -1, -20, 5, 30, 878, 94,L
2025-02-19 11:27:38.544,823, -82, 639, -4, -10, -6, -21, 7, 30, 881, 105,L
2025-02-19 11:27:38.655,665, -332, 726, 40, -10, 45, -18, 5, 29, 821, 109,L
2025-02-19 11:27:38.761,1046, -109, 557, 40, -22, 28, -19, 6, 30, 744, 110,L
2025-02-19 11:27:38.868,1001, -21, 570, 2, 33, 30, -18, 8, 32, 875, 101,L
2025-02-19 11:27:38.975,649, -144, 680, -6, -2, -15, -17, 9, 28, 740, 49,L
2025-02-19 11:27:39.790,770, -78, 622, -1, 0, -1, -21, 6, 28, 805, 68,M
2025-02-19 11:27:39.888,760, -89, 618, -5, -1, 2, -18, 7, 29, 811, 67,M
2025-02-19 11:27:39.994,769, -83, 627, -4, 1, 1, -18, 8, 27, 818, 66,M
2025-02-19 11:27:40.101,755, -100, 624, -3, 1, -1, -20, 6, 28, 823, 64,M
2025-02-19 11:27:40.207,763, -87, 630, -5, 1, -3, -18, 6, 30, 815, 64,M
2025-02-19 11:27:40.318,767, -87, 615, -4, 1, -4, -20, 7, 28, 817, 67,M
2025-02-19 11:27:40.424,781, -95, 639, -15, 17, -1, -21, 7, 27, 847, 60,M
2025-02-19 11:27:40.530,718, -97, 655, 0, -8, -11, -20, 5, 29, 858, 57,M
2025-02-19 11:27:40.638,789, -60, 616, 3, -11, -8, -21, 8, 27, 860, 79,M
2025-02-19 11:27:40.748,764, -33, 618, 0, -5, -16, -21, 7, 28, 877, 96,M
2025-02-19 11:27:40.854,775, -182, 617, -6, -4, -35, -20, 4, 31, 878, 105,M
2025-02-19 11:27:40.960,822, 64, 531, 31, 12, 29, -19, 7, 29, 683, 107,M
2025-02-19 11:27:41.070,754, -280, 755, -19, -8, -24, -20, 3, 30, 872, 102,M
2025-02-19 11:27:41.178,833, 189, 539, 19, -18, 32, -20, 7, 30, 729, 110,M
2025-02-19 11:27:41.285,597, -417, 705, 6, 1, -16, -20, 7, 31, 899, 108,M
2025-02-19 11:27:41.391,897, 145, 446, 25, 0, 30, -18, 6, 31, 710, 113,M
2025-02-19 11:27:41.501,501, -247, 719, -32, 56, 12, -18, 8, 27, 802, 45,M
2025-02-19 11:28:22.399,599, -95, 758, 21, -1, 5, -16, 10, 22, 361, 31,N
2025-02-19 11:28:22.495,669, -16, 735, 0, 4, 3, -16, 10, 22, 250, 29,N
2025-02-19 11:28:22.608,608, -75, 774, 1, -18, -14, -17, 12, 23, 568, 30,N
2025-02-19 11:28:22.715,675, -50, 744, -23, -14, -7, -17, 10, 23, 803, 37,N
2025-02-19 11:28:22.820,664, -113, 695, -11, 9, -13, -17, 10, 25, 874, 36,N
2025-02-19 11:28:22.930,619, -124, 762, -10, 6, -8, -17, 11, 25, 899, 32,N
2025-02-19 11:28:23.036,671, -134, 732, -7, 1, -13, -18, 9, 23, 902, 33,N
2025-02-19 11:28:23.145,646, -111, 702, -17, -21, -31, -17, 10, 26, 909, 37,N
2025-02-19 11:28:23.251,634, -121, 704, -21, -8, -12, -18, 9, 28, 914, 45,N
2025-02-19 11:28:23.357,712, -158, 701, 4, -21, -12, -19, 5, 24, 918, 59,N
2025-02-19 11:28:23.464,743, -111, 663, -2, -7, -5, -20, 7, 29, 912, 76,N
2025-02-19 11:28:23.574,707, -112, 673, -1, -4, -8, -20, 5, 30, 911, 84,N
2025-02-19 11:28:23.677,741, -95, 644, 2, 1, -6, -19, 5, 29, 905, 94,N
2025-02-19 11:28:23.788,738, -128, 654, -2, 0, -8, -20, 4, 31, 897, 95,N
2025-02-19 11:28:23.894,924, 297, 516, 15, -23, 44, -20, 8, 31, 851, 99,N
2025-02-19 11:28:24.005,561, -189, 615, -24, 37, -32, -20, 7, 28, 892, 77,N
2025-02-19 11:28:24.106,756, -96, 673, -7, 0, -3, -19, 6, 28, 881, 95,N
2025-02-19 11:28:24.211,724, -95, 617, -2, 3, -9, -19, 5, 26, 880, 95,N
2025-02-19 11:28:24.320,754, -61, 660, 2, 2, -6, -21, 5, 27, 883, 96,N
2025-02-19 11:28:24.435,704, -255, 591, -12, -48, 71, -18, 5, 30, 874, 98,N
2025-02-19 11:28:24.541,1112, 34, 381, 18, 10, -54, -20, 8, 30, 893, 101,N
2025-02-19 11:28:24.643,769, -66, 627, 21, 20, 1, -19, 6, 29, 914, 96,N
2025-02-19 11:28:24.754,598, -155, 715, 23, -26, -5, -19, 8, 28, 847, 50,N
2025-02-19 11:28:25.676,705, -150, 771, 2, -10, -11, -18, 8, 25, 786, 47,O
2025-02-19 11:28:25.770,718, -101, 699, -18, 2, -2, -20, 9, 24, 817, 48,O
2025-02-19 11:28:25.877,700, -118, 688, -14, -5, -9, -18, 7, 27, 838, 49,O
2025-02-19 11:28:25.980,731, -124, 691, -16, -3, -5, -19, 9, 26, 856, 51,O
2025-02-19 11:28:26.093,660, -159, 688, -4, -13, -11, -21, 9, 28, 870, 52,O
2025-02-19 11:28:26.193,726, -120, 668, -4, -6, -1, -18, 7, 27, 878, 62,O
2025-02-19 11:28:26.306,769, -115, 649, -1, -7, -13, -20, 7, 29, 884, 74,O
2025-02-19 11:28:26.413,744, -132, 637, 1, -8, -4, -20, 7, 31, 886, 80,O
2025-02-19 11:28:26.520,720, -124, 653, 10, -13, -12, -20, 5, 29, 902, 91,O
2025-02-19 11:28:26.626,729, -113, 666, 2, 6, -14, -19, 5, 31, 890, 100,O
2025-02-19 11:28:26.737,946, -27, 588, 15, -38, 104, -20, 6, 29, 816, 96,O
2025-02-19 11:28:26.843,654, -181, 743, -8, 13, -61, -19, 6, 29, 914, 99,O
2025-02-19 11:28:26.949,1102, -15, 745, 11, 47, 52, -18, 6, 29, 876, 87,O
2025-02-19 11:28:27.050,683, -53, 677, 15, -26, -2, -18, 6, 26, 840, 54,O
2025-02-19 11:28:28.273,731, -65, 655, 0, -1, 0, -21, 5, 28, 844, 77,P
2025-02-19 11:28:28.367,734, -49, 659, 1, -1, -1, -19, 6, 29, 843, 75,P
2025-02-19 11:28:28.478,735, -64, 659, -1, 0, -1, -19, 4, 28, 847, 77,P
2025-02-19 11:28:28.584,744, -53, 656, -3, 0, 0, -19, 6, 28, 846, 77,P
2025-02-19 11:28:28.690,741, -55, 649, -4, 1, -1, -20, 6, 29, 853, 73,P
2025-02-19 11:28:28.797,729, -67, 672, -3, -2, 0, -20, 5, 28, 859, 71,P
2025-02-19 11:28:28.900,716, -72, 663, 3, -10, -2, -20, 8, 29, 862, 78,P
2025-02-19 11:28:29.013,741, -41, 650, -4, -1, -5, -19, 5, 30, 862, 89,P
2025-02-19 11:28:29.120,770, -84, 640, -7, -4, -5, -20, 4, 28, 847, 97,P
2025-02-19 11:28:29.226,654, 50, 588, 9, -34, 91, -19, 7, 29, 678, 100,P
2025-02-19 11:28:29.333,936, 0, 643, -9, 41, -57, -18, 6, 30, 838, 91,P
2025-02-19 11:28:29.443,951, 101, 561, -12, -19, -11, -18, 5, 29, 867, 97,P
2025-02-19 11:28:29.550,654, -9, 686, 28, -7, 35, -20, 7, 31, 857, 101,P
2025-02-19 11:28:29.657,1074, 14, 620, -34, 82, 41, -19, 6, 26, 845, 0,P
2025-02-19 11:28:29.767,578, -121, 730, 12, -26, -10, -17, 7, 26, 830, 40,P
2025-02-19 11:28:30.679,715, -87, 675, 0, -2, 0, -18, 8, 29, 812, 51,Q
2025-02-19 11:28:30.779,720, -94, 682, -1, -3, 0, -19, 8, 26, 815, 51,Q
2025-02-19 11:28:30.884,718, -90, 667, -1, -2, -3, -19, 7, 27, 817, 53,Q
2025-02-19 11:28:30.993,732, -67, 689, -3, -1, -2, -19, 9, 28, 820, 0,Q
2025-02-19 11:28:31.099,742, -84, 669, -6, 1, -6, -19, 8, 28, 840, 0,Q
2025-02-19 11:28:31.210,722, -88, 669, -6, -1, -4, -18, 7, 27, 847, 52,Q
2025-02-19 11:28:31.312,697, -92, 665, 7, -16, -3, -18, 8, 29, 861, 57,Q
2025-02-19 11:28:31.422,747, -78, 644, 3, -9, -7, -20, 6, 29, 870, 72,Q
2025-02-19 11:28:31.527,762, -75, 642, -1, -3, -4, -20, 7, 29, 873, 80,Q
2025-02-19 11:28:31.639,757, -17, 607, -1, -3, -18, -18, 5, 30, 874, 100,Q
2025-02-19 11:28:31.746,977, 44, 498, 27, -20, 98, -19, 6, 27, 762, 106,Q
2025-02-19 11:28:31.855,651, -242, 751, -22, 5, -46, -19, 7, 30, 898, 101,Q
2025-02-19 11:28:31.958,701, -69, 643, -23, 51, 74, -18, 7, 28, 832, 62,Q
2025-02-19 11:28:32.069,797, -54, 621, 19, -38, -34, -17, 8, 28, 854, 94,Q
2025-02-19 11:28:32.170,711, 43, 635, -4, -30, 42, -18, 6, 30, 874, 99,Q
2025-02-19 11:28:32.282,708, -69, 631, -30, 119, 10, -18, 9, 28, 809, 48,Q
2025-02-19 11:28:33.293,701, -77, 689, 3, -1, 1, -19, 10, 26, 418, 44,R
2025-02-19 11:28:33.397,701, -58, 693, 9, -1, -3, -19, 10, 24, 521, 43,R
2025-02-19 11:28:33.501,684, -48, 700, -3, -1, -4, -18, 8, 25, 653, 44,R
2025-02-19 11:28:33.608,691, -68, 690, -9, 0, -1, -19, 9, 26, 724, 44,R
2025-02-19 11:28:33.715,705, -53, 689, -12, 0, -6, -19, 9, 26, 781, 46,R
2025-02-19 11:28:33.825,707, -51, 698, -19, 3, -12, -17, 7, 25, 809, 46,R
2025-02-19 11:28:33.930,686, -80, 717, -22, 7, -6, -18, 9, 26, 836, 44,R
2025-02-19 11:28:34.039,661, -97, 700, -4, -16, -9, -18, 9, 28, 854, 47,R
2025-02-19 11:28:34.145,743, -36, 674, -9, -13, -3, -18, 6, 27, 861, 68,R
2025-02-19 11:28:34.253,711, -88, 672, -6, -3, -8, -18, 7, 28, 863, 73,R
2025-02-19 11:28:34.360,666, -126, 699, 2, -17, -26, -20, 6, 27, 873, 86,R
2025-02-19 11:28:34.470,594, -159, 739, 42, -26, 68, -19, 4, 27, 816, 97,R
2025-02-19 11:28:34.576,754, -206, 601, 25, 26, -85, -18, 7, 30, 872, 94,R
2025-02-19 11:28:34.683,625, 16, 722, -10, -20, 17, -20, 5, 28, 891, 92,R
2025-02-19 11:28:34.788,1109, -18, 368, -3, 6, -7, -19, 7, 28, 825, 98,R
2025-02-19 11:28:34.892,713, 90, 666, 9, -6, 32, -16, 8, 31, 894, 93,R
2025-02-19 11:28:35.000,479, -251, 773, 3, 28, 4, -18, 9, 23, 840, 39,R
2025-02-19 11:28:35.723,706, -59, 700, 2, -1, -5, -17, 9, 26, 788, 40,S
2025-02-19 11:28:35.810,696, -84, 706, 0, -4, 7, -17, 7, 26, 693, 40,S
2025-02-19 11:28:35.927,810, -90, 726, -6, -15, 17, -19, 9, 26, 624, 47,S
2025-02-19 11:28:36.034,770, -67, 604, 10, 13, -3, -17, 11, 28, 703, 45,S
2025-02-19 11:28:36.140,949, -70, 949, -2, 7, -23, -17, 9, 24, 785, 38,S
2025-02-19 11:28:36.250,767, -90, 766, -13, -19, -15, -17, 10, 27, 825, 38,S
2025-02-19 11:28:36.357,719, -126, 697, -17, -4, -1, -20, 11, 25, 854, 44,S
2025-02-19 11:28:36.464,706, -84, 692, 1, -22, -15, -19, 7, 28, 880, 58,S
2025-02-19 11:28:36.571,807, -57, 629, -6, 2, -8, -18, 8, 28, 889, 80,S
2025-02-19 11:28:36.674,737, -76, 655, 1, -4, -8, -19, 9, 28, 890, 74,S
2025-02-19 11:28:36.783,800, -73, 619, 9, -12, -1, -18, 4, 28, 902, 87,S
2025-02-19 11:28:36.890,774, -63, 657, 9, 3, -12, -19, 8, 29, 903, 95,S
2025-02-19 11:28:37.000,822, -140, 548, 60, 12, 14, -16, 6, 27, 880, 94,S
2025-02-19 11:28:37.108,757, 64, 668, -18, -29, 37, -17, 8, 28, 898, 93,S
2025-02-19 11:28:37.214,751, 31, 546, -41, 82, 36, -17, 9, 27, 868, 52,S
2025-02-19 11:28:37.324,637, -84, 720, 12, -27, -8, -17, 8, 24, 836, 38,S
2025-02-19 11:28:38.237,716, -73, 676, 1, 0, -7, -18, 9, 26, 850, 59,T
2025-02-19 11:28:38.336,724, -58, 675, -3, 0, -6, -19, 7, 27, 857, 62,T
2025-02-19 11:28:38.442,723, -36, 679, -4, 3, -5, -19, 9, 26, 860, 63,T
2025-02-19 11:28:38.541,708, -40, 676, -4, -2, -5, -18, 8, 26, 856, 64,T
2025-02-19 11:28:38.655,747, -49, 673, -2, 0, -5, -18, 5, 26, 850, 69,T
2025-02-19 11:28:38.763,725, -20, 672, 1, -1, 3, -18, 8, 26, 880, 63,T
2025-02-19 11:28:38.872,712, -35, 675, 2, -6, -6, -18, 7, 26, 884, 64,T
2025-02-19 11:28:38.973,708, -10, 666, 5, -4, -12, -18, 7, 27, 879, 73,T
2025-02-19 11:28:39.090,671, -43, 657, -2, -11, -22, -20, 6, 27, 845, 87,T
2025-02-19 11:28:39.196,986, 211, 663, 10, -37, -4, -20, 7, 25, 843, 83,T
2025-02-19 11:28:39.298,732, 10, 697, -2, 21, 23, -18, 4, 28, 890, 84,T
2025-02-19 11:28:39.410,805, -24, 729, -13, -15, 23, -19, 5, 27, 875, 87,T
2025-02-19 11:28:39.515,781, 100, 591, 16, 12, 38, -18, 9, 26, 843, 90,T
2025-02-19 11:28:39.622,494, -131, 780, -5, 7, 2, -18, 9, 27, 855, 42,T
2025-02-19 11:28:40.640,722, -41, 682, 1, 0, -1, -17, 6, 26, 832, 60,U
2025-02-19 11:28:40.737,714, -36, 679, 0, -1, -2, -18, 9, 26, 841, 60,U
2025-02-19 11:28:40.848,729, -26, 682, -1, -1, -3, -18, 6, 25, 845, 61,U
2025-02-19 11:28:40.953,721, -36, 681, -1, -1, -3, -18, 6, 25, 847, 61,U
2025-02-19 11:28:41.056,745, -29, 672, 1, 1, -7, -18, 7, 28, 837, 66,U
2025-02-19 11:28:41.160,767, -13, 671, -1, 5, 3, -18, 7, 25, 854, 65,U
2025-02-19 11:28:41.274,655, -64, 710, 0, -3, -3, -18, 8, 25, 878, 56,U
2025-02-19 11:28:41.380,701, -21, 682, 3, -6, -5, -19, 7, 27, 872, 65,U
2025-02-19 11:28:41.482,734, -6, 679, -3, 1, -3, -19, 7, 25, 860, 74,U
2025-02-19 11:28:41.597,636, -22, 676, -1, -15, -23, -18, 5, 26, 844, 83,U
2025-02-19 11:28:41.702,778, -359, 744, 49, 8, 31, -18, 5, 28, 815, 89,U
2025-02-19 11:28:41.813,785, 126, 624, -3, -16, -18, -19, 6, 27, 892, 87,U
2025-02-19 11:28:41.920,750, -96, 630, -4, -6, -43, -18, 5, 28, 895, 90,U
2025-02-19 11:28:42.022,862, 75, 633, 11, 5, 28, -18, 7, 27, 866, 88,U
2025-02-19 11:28:43.241,730, -44, 664, -4, -1, 0, -20, 9, 27, 832, 59,V
2025-02-19 11:28:43.341,729, -45, 664, -2, 0, -1, -19, 12, 27, 834, 60,V
2025-02-19 11:28:43.444,742, -39, 679, -1, 0, 0, -18, 6, 26, 836, 60,V
2025-02-19 11:28:43.554,723, -45, 669, -2, -1, 0, -18, 9, 26, 836, 59,V
2025-02-19 11:28:43.661,730, -41, 667, -1, -1, -2, -20, 8, 27, 839, 58,V
2025-02-19 11:28:43.760,750, -48, 633, -7, 3, -3, -18, 6, 26, 834, 59,V
2025-02-19 11:28:43.873,727, -26, 662, -11, 8, 1, -18, 9, 28, 863, 55,V
2025-02-19 11:28:43.983,704, -52, 675, 10, -17, -10, -18, 9, 28, 871, 58,V
2025-02-19 11:28:44.090,736, -53, 654, 4, -1, -10, -19, 6, 24, 858, 75,V
2025-02-19 11:28:44.190,769, 19, 638, -2, 9, -7, -19, 6, 28, 854, 84,V
2025-02-19 11:28:44.304,712, 27, 674, 11, 2, -18, -20, 6, 27, 811, 83,V
2025-02-19 11:28:44.411,738, 10, 625, 6, 1, -8, -19, 4, 25, 730, 90,V
2025-02-19 11:28:44.521,678, 115, 637, -17, -38, 89, -19, 6, 28, 815, 86,V
2025-02-19 11:28:44.632,747, -186, 661, -15, -9, -87, -18, 5, 25, 887, 89,V
2025-02-19 11:28:44.734,793, 181, 652, -54, 59, 42, -19, 6, 27, 876, 65,V
2025-02-19 11:28:44.841,761, -8, 675, 12, -11, 1, -18, 7, 26, 834, 54,V
2025-02-19 11:28:44.940,719, -26, 674, 0, -6, 1, -19, 7, 25, 821, 58,V
2025-02-19 11:28:45.053,743, -14, 651, 0, -4, 0, -19, 8, 25, 819, 64,V
2025-02-19 11:28:45.165,735, -10, 674, -4, 0, -3, -18, 7, 28, 817, 66,V
2025-02-19 11:28:45.270,734, -23, 665, -3, 0, 0, -18, 6, 26, 813, 66,V
2025-02-19 11:28:45.374,725, -23, 662, -1, 0, 1, -19, 6, 26, 814, 65,V
2025-02-19 11:28:45.483,742, -20, 670, -3, 1, 0, -18, 7, 28, 811, 63,V
2025-02-19 11:28:45.590,724, -39, 671, -2, 0, -1, -20, 5, 27, 811, 61,V
2025-02-19 11:28:45.700,728, -37, 672, -1, -1, 0, -19, 7, 26, 809, 61,V
2025-02-19 11:28:45.802,720, -41, 666, -4, 0, 0, -17, 5, 27, 800, 61,V
2025-02-19 11:28:45.913,725, -28, 672, -1, 0, 0, -19, 6, 26, 804, 61,V
2025-02-19 11:28:46.933,720, -41, 675, -1, -1, -1, -20, 8, 26, 816, 57,W
2025-02-19 11:28:47.027,721, -45, 673, 0, -1, 0, -18, 6, 25, 818, 58,W
2025-02-19 11:28:47.133,716, -44, 679, 0, -1, 0, -18, 9, 27, 818, 58,W
2025-02-19 11:28:47.241,725, -35, 680, -1, 0, -2, -20, 5, 26, 819, 59,W
2025-02-19 11:28:47.347,713, -44, 674, -4, 2, -3, -17, 6, 25, 821, 59,W
2025-02-19 11:28:47.455,698, -72, 673, -9, -1, -3, -20, 8, 26, 839, 58,W
2025-02-19 11:28:47.559,688, -34, 688, -5, -3, -1, -18, 7, 26, 850, 61,W
2025-02-19 11:28:47.671,741, -23, 662, 8, -2, -8, -19, 5, 26, 842, 72,W
2025-02-19 11:28:47.777,739, -10, 684, 7, 2, -7, -18, 5, 28, 813, 77,W
2025-02-19 11:28:47.887,750, -34, 708, 16, -14, -14, -20, 6, 28, 783, 92,W
2025-02-19 11:28:47.990,729, 9, 676, 12, 0, -18, -20, 5, 26, 755, 89,W
2025-02-19 11:28:48.100,783, 271, 593, 7, -18, 36, -18, 8, 29, 814, 90,W
2025-02-19 11:28:48.211,721, -30, 702, -9, -7, -53, -18, 7, 28, 893, 88,W
2025-02-19 11:28:48.313,707, -93, 674, 8, -11, 62, -19, 5, 26, 867, 89,W
2025-02-19 11:28:48.422,783, 112, 622, -8, -5, -50, -18, 7, 29, 889, 90,W
2025-02-19 11:28:48.522,853, 81, 668, 0, -2, 60, -20, 6, 28, 907, 88,W
2025-02-19 11:28:48.630,651, -62, 712, 15, -19, -3, -17, 9, 26, 855, 46,W
2025-02-19 11:28:49.455,733, -26, 669, 0, -1, -1, -20, 7, 27, 798, 56,X
2025-02-19 11:28:49.550,737, -20, 659, -1, -2, -1, -19, 6, 27, 804, 57,X
2025-02-19 11:28:49.657,745, -9, 661, -2, -1, 0, -18, 9, 26, 808, 58,X
2025-02-19 11:28:49.764,742, -21, 660, -4, 0, -2, -18, 5, 26, 819, 59,X
2025-02-19 11:28:49.871,739, -29, 661, -7, -2, 1, -19, 6, 27, 831, 59,X
2025-02-19 11:28:49.980,727, -29, 662, -8, -3, -1, -18, 8, 27, 853, 61,X
2025-02-19 11:28:50.088,769, -33, 632, -4, -8, -3, -18, 7, 27, 866, 70,X
2025-02-19 11:28:50.191,797, -11, 621, -1, -9, -5, -18, 7, 28, 876, 86,X
2025-02-19 11:28:50.304,764, -14, 627, -1, -4, -1, -20, 7, 30, 894, 91,X
2025-02-19 11:28:50.410,777, -18, 615, -2, -1, -2, -20, 5, 29, 898, 93,X
2025-02-19 11:28:50.509,779, -16, 618, -3, -5, -6, -19, 6, 31, 894, 94,X
2025-02-19 11:28:50.620,773, -25, 631, -2, -5, -4, -20, 8, 29, 900, 96,X
2025-02-19 11:28:50.730,820, 197, 503, 17, 7, 40, -19, 6, 28, 784, 95,X
2025-02-19 11:28:50.840,867, 131, 568, -12, 26, -56, -19, 7, 27, 830, 88,X
2025-02-19 11:28:50.947,832, 18, 442, -10, -5, -5, -18, 7, 29, 803, 96,X
2025-02-19 11:28:51.053,788, 169, 569, 4, -26, 49, -19, 7, 28, 762, 99,X
2025-02-19 11:28:51.159,794, -65, 561, -37, 90, 4, -18, 10, 30, 819, 59,X
2025-02-19 11:28:52.078,752, -42, 649, -1, 0, -2, -18, 8, 28, 782, 68,Y
2025-02-19 11:28:52.170,761, -48, 646, -1, -3, -2, -18, 8, 27, 782, 70,Y
2025-02-19 11:28:52.282,752, -50, 645, -3, 0, -2, -19, 9, 28, 792, 72,Y
2025-02-19 11:28:52.389,750, -40, 643, -2, 0, -1, -19, 8, 27, 795, 73,Y
2025-02-19 11:28:52.490,769, -31, 641, -3, 0, -2, -19, 8, 27, 802, 73,Y
2025-02-19 11:28:52.602,756, -42, 646, -8, 5, -1, -19, 8, 27, 824, 68,Y
2025-02-19 11:28:52.704,677, -76, 675, 2, -3, -3, -18, 6, 28, 853, 60,Y
2025-02-19 11:28:52.820,713, -44, 662, 0, -7, -9, -19, 9, 27, 858, 74,Y
2025-02-19 11:28:52.921,784, -38, 620, 2, 8, -5, -18, 4, 26, 843, 88,Y
2025-02-19 11:28:53.031,691, -28, 657, 8, -4, -18, -17, 6, 27, 843, 84,Y
2025-02-19 11:28:53.138,747, -91, 642, 10, 4, -17, -20, 8, 28, 814, 95,Y
2025-02-19 11:28:53.248,819, 120, 570, 13, -6, 24, -19, 6, 28, 880, 94,Y
2025-02-19 11:28:53.354,500, 13, 873, 1, -20, -29, -18, 6, 27, 907, 94,Y
2025-02-19 11:28:53.458,820, 82, 551, 5, 7, 7, -19, 7, 30, 816, 97,Y
2025-02-19 11:28:53.569,721, 15, 613, -1, -14, 50, -19, 6, 28, 764, 97,Y
2025-02-19 11:28:53.671,785, -25, 556, -40, 95, 18, -17, 9, 26, 824, 52,Y
2025-02-19 11:28:54.598,728, -70, 666, -2, 0, 0, -17, 10, 26, 755, 50,Z
2025-02-19 11:28:54.690,710, -64, 673, -1, -1, -1, -20, 8, 25, 769, 48,Z
2025-02-19 11:28:54.800,725, -73, 674, -1, -2, -2, -18, 11, 27, 782, 49,Z
2025-02-19 11:28:54.905,729, -70, 674, -2, -1, -4, -16, 8, 26, 801, 50,Z
2025-02-19 11:28:55.010,730, -70, 671, -3, -2, -2, -19, 9, 26, 809, 53,Z
2025-02-19 11:28:55.121,746, -57, 659, -3, -1, -3, -19, 9, 26, 818, 55,Z
2025-02-19 11:28:55.227,745, -82, 669, 2, -6, -2, -18, 8, 28, 833, 58,Z
2025-02-19 11:28:55.333,721, -58, 666, 0, -7, -9, -18, 9, 27, 852, 64,Z
2025-02-19 11:28:55.440,785, -30, 645, -1, -5, -9, -19, 9, 25, 861, 80,Z
2025-02-19 11:28:55.547,744, -49, 660, 3, 0, -9, -19, 7, 27, 869, 82,Z
2025-02-19 11:28:55.653,711, -2, 666, 5, 1, -11, -18, 7, 28, 870, 86,Z
2025-02-19 11:28:55.764,768, -105, 557, 42, 9, -16, -18, 5, 28, 831, 92,Z
2025-02-19 11:28:55.870,712, -22, 735, 18, -14, 9, -18, 6, 27, 907, 89,Z
2025-02-19 11:28:55.977,796, 59, 522, 12, 13, -7, -18, 8, 28, 739, 92,Z
2025-02-19 11:28:56.083,658, 24, 691, 4, -10, 13, -18, 9, 29, 866, 93,Z
2025-02-19 11:28:56.194,652, -53, 636, -17, 33, -4, -17, 8, 27, 856, 72,Z
2025-02-19 11:28:56.296,809, 9, 625, -5, 1, -4, -18, 10, 28, 833, 71,Z
2025-02-19 11:28:56.407,708, -36, 650, -7, 5, 5, -17, 8, 26, 769, 56,Z
2025-02-19 11:28:56.514,783, -53, 645, -1, 2, 3, -18, 8, 25, 771, 56,Z
2025-02-19 11:28:57.530,743, -51, 657, -1, 0, -1, -16, 9, 28, 775, 54,a
2025-02-19 11:28:57.627,738, -32, 650, -1, 0, 2, -17, 9, 28, 770, 35,a
2025-02-19 11:28:57.737,750, -57, 660, -4, -1, -3, -17, 8, 25, 774, 55,a
2025-02-19 11:28:57.845,740, -61, 665, -3, 0, -3, -17, 8, 27, 776, 56,a
2025-02-19 11:28:57.951,750, -46, 656, -7, -1, -2, -20, 11, 27, 789, 57,a
2025-02-19 11:28:58.058,777, -50, 641, -3, -2, 0, -18, 9, 27, 820, 63,a
2025-02-19 11:28:58.164,743, -26, 654, -4, -1, 0, -19, 9, 27, 850, 63,a
2025-02-19 11:28:58.271,763, -36, 637, -4, -8, -7, -19, 8, 27, 841, 71,a
2025-02-19 11:28:58.377,781, -50, 622, 3, -3, 2, -19, 8, 28, 858, 79,a
2025-02-19 11:28:58.483,787, 10, 625, -8, -2, 3, -18, 7, 29, 872, 97,a
2025-02-19 11:28:58.594,813, 0, 503, 27, 17, 16, -18, 6, 28, 796, 96,a
2025-02-19 11:28:58.700,643, -83, 673, 0, -4, -44, -19, 9, 29, 886, 99,a
2025-02-19 11:28:58.808,873, 257, 506, 4, -7, 39, -16, 7, 30, 862, 99,a
2025-02-19 11:28:58.919,499, -243, 742, -21, 45, 6, -17, 8, 27, 852, 46,a
2025-02-19 11:28:59.019,798, -12, 615, 5, -17, -9, -17, 9, 28, 836, 59,a
2025-02-19 11:28:59.131,739, -26, 640, -1, 0, -6, -18, 7, 29, 830, 67,a
2025-02-19 11:28:59.236,771, -36, 642, -1, 0, -3, -19, 8, 28, 824, 70,a
2025-02-19 11:28:59.344,763, -28, 640, 0, -1, 1, -17, 9, 28, 823, 71,a
2025-02-19 11:28:59.449,747, -32, 635, -2, 0, 1, -17, 7, 28, 818, 68,a
2025-02-19 11:28:59.556,759, -38, 646, -1, 0, 1, -20, 8, 27, 812, 67,a
2025-02-19 11:28:59.667,739, -29, 645, -2, -1, -1, -19, 10, 28, 799, 66,a
2025-02-19 11:29:00.784,735, -47, 644, -1, 0, 0, -17, 8, 26, 803, 63,b
2025-02-19 11:29:00.879,752, -43, 648, -1, -1, 0, -18, 9, 25, 802, 63,b
2025-02-19 11:29:00.989,757, -42, 650, -1, -1, -1, -20, 10, 28, 804, 63,b
2025-02-19 11:29:01.096,753, -43, 652, -1, 0, -1, -18, 7, 27, 798, 62,b
2025-02-19 11:29:01.202,744, -47, 651, -1, -1, -2, -18, 8, 25, 798, 61,b
2025-02-19 11:29:01.310,785, -30, 655, -11, 12, 1, -18, 9, 28, 809, 60,b
2025-02-19 11:29:01.416,732, -49, 665, -1, -6, -5, -18, 8, 26, 828, 56,b
2025-02-19 11:29:01.523,722, -64, 664, 1, -9, -8, -20, 8, 27, 833, 62,b
2025-02-19 11:29:01.628,762, -28, 643, 2, -6, -9, -18, 7, 28, 842, 75,b
2025-02-19 11:29:01.740,742, -44, 644, 6, -7, -12, -20, 7, 27, 847, 87,b
2025-02-19 11:29:01.842,743, 5, 639, -2, 2, -8, -20, 5, 30, 839, 94,b
2025-02-19 11:29:01.950,738, -204, 787, 17, -13, 67, -18, 5, 29, 829, 94,b
2025-02-19 11:29:02.063,717, -19, 597, 17, 18, -47, -18, 7, 27, 852, 92,b
2025-02-19 11:29:02.170,726, 149, 700, -4, -17, 17, -18, 5, 29, 875, 96,b
2025-02-19 11:29:02.276,1097, 78, 581, -7, 77, 28, -18, 7, 27, 813, 69,b
2025-02-19 11:29:02.385,594, -52, 713, 18, -40, -12, -18, 10, 24, 818, 43,b
2025-02-19 11:29:03.501,741, -35, 667, -1, 0, -1, -18, 9, 26, 811, 62,c
2025-02-19 11:29:03.600,744, -31, 668, -1, -1, -1, -18, 7, 26, 810, 63,c
2025-02-19 11:29:03.702,742, -29, 668, 0, -1, -1, -17, 8, 27, 809, 65,c
2025-02-19 11:29:03.810,732, -36, 666, 0, -1, -1, -19, 8, 28, 811, 65,c
2025-02-19 11:29:03.917,736, -29, 666, -1, -4, -3, -20, 7, 27, 815, 65,c
2025-02-19 11:29:04.025,753, -29, 648, -3, -1, -2, -19, 9, 27, 821, 68,c
2025-02-19 11:29:04.134,738, -22, 658, -2, -6, -3, -18, 8, 27, 836, 68,c
2025-02-19 11:29:04.238,757, -24, 655, 0, -5, -1, -18, 8, 26, 832, 76,c
2025-02-19 11:29:04.349,753, -33, 634, -2, -6, 0, -18, 8, 28, 845, 83,c
2025-02-19 11:29:04.455,777, 18, 654, -4, -6, 0, -17, 8, 27, 851, 94,c
2025-02-19 11:29:04.560,732, -173, 585, 21, 18, -17, -19, 7, 26, 784, 97,c
2025-02-19 11:29:04.673,756, -50, 657, 19, -16, -10, -19, 9, 28, 873, 94,c
2025-02-19 11:29:04.778,464, -121, 744, -6, 5, 6, -16, 11, 25, 798, 38,c
2025-02-19 11:29:04.885,788, -38, 663, -2, -2, 0, -18, 10, 24, 767, 45,c
2025-02-19 11:29:05.700,735, -61, 669, -1, 0, -2, -17, 7, 27, 784, 52,d
2025-02-19 11:29:05.800,725, -66, 669, -1, -1, -1, -17, 7, 27, 782, 37,d
2025-02-19 11:29:05.901,725, -68, 671, -1, -1, -1, -19, 9, 26, 780, 51,d
2025-02-19 11:29:06.010,734, -63, 672, -1, -2, -2, -18, 9, 27, 780, 52,d
2025-02-19 11:29:06.120,734, -65, 664, -1, -2, -3, -18, 9, 27, 793, 53,d
2025-02-19 11:29:06.230,738, -48, 662, 0, -3, -1, -19, 11, 28, 805, 55,d
2025-02-19 11:29:06.334,738, -46, 656, -1, -5, -5, -18, 8, 26, 818, 59,d
2025-02-19 11:29:06.440,747, -37, 652, 1, -8, -5, -19, 7, 28, 830, 68,d
2025-02-19 11:29:06.549,731, -34, 643, 7, -12, -2, -18, 10, 28, 851, 76,d
2025-02-19 11:29:06.660,710, -28, 644, -5, 5, -19, -18, 6, 26, 852, 96,d
2025-02-19 11:29:06.766,937, 171, 565, 3, -18, 58, -18, 8, 28, 749, 96,d
2025-02-19 11:29:06.876,663, -237, 703, -15, 2, -58, -18, 9, 28, 891, 97,d
2025-02-19 11:29:06.970,841, 235, 512, 14, -11, 51, -17, 7, 27, 782, 98,d
2025-02-19 11:29:07.089,734, -135, 613, -26, 54, 0, -18, 9, 28, 838, 59,d
2025-02-19 11:29:07.196,746, -52, 669, 5, -15, -2, -18, 9, 26, 826, 52,d
2025-02-19 11:29:08.110,743, -35, 644, 0, -1, -2, -17, 8, 27, 804, 65,e
2025-02-19 11:29:08.207,750, -35, 652, -1, -1, -1, -18, 8, 27, 806, 65,e
2025-02-19 11:29:08.313,758, -35, 654, 0, 1, -1, -18, 8, 29, 804, 65,e
2025-02-19 11:29:08.420,694, -57, 669, 0, -3, -3, -18, 8, 27, 813, 64,e
2025-02-19 11:29:08.531,747, -39, 655, -2, -2, -2, -18, 8, 28, 814, 67,e
2025-02-19 11:29:08.637,747, -28, 645, -1, -2, -1, -18, 8, 28, 818, 69,e
2025-02-19 11:29:08.743,735, -34, 657, -2, 0, 0, -17, 8, 27, 825, 68,e
2025-02-19 11:29:08.850,753, -34, 641, -2, -2, 3, -18, 6, 27, 832, 69,e
2025-02-19 11:29:08.957,777, -49, 637, -1, 0, 2, -17, 7, 27, 839, 75,e
2025-02-19 11:29:09.067,741, -37, 652, -3, 0, -4, -18, 8, 27, 839, 78,e
2025-02-19 11:29:09.174,786, -1, 557, 17, 11, -9, -17, 8, 28, 837, 93,e
2025-02-19 11:29:09.280,726, -138, 681, -3, 1, -28, -19, 8, 28, 871, 96,e
2025-02-19 11:29:09.387,782, 187, 590, 4, -13, 42, -21, 9, 28, 826, 94,e
2025-02-19 11:29:09.497,694, -66, 600, -14, 57, 4, -18, 6, 27, 849, 66,e
2025-02-19 11:29:09.604,793, -54, 645, 3, -15, -6, -18, 8, 25, 800, 62,e
2025-02-19 11:29:10.621,754, -36, 640, -2, -1, -1, -18, 9, 28, 794, 76,f
2025-02-19 11:29:10.718,757, -27, 639, 0, -1, 0, -18, 10, 30, 793, 77,f
2025-02-19 11:29:10.824,759, -32, 640, 0, 0, -1, -18, 7, 27, 794, 78,f
2025-02-19 11:29:10.931,758, -37, 639, -1, 0, -2, -17, 8, 29, 796, 77,f
2025-02-19 11:29:11.038,761, -42, 632, -3, -2, -2, -18, 7, 27, 798, 78,f
2025-02-19 11:29:11.144,832, -21, 647, -4, 15, 6, -17, 7, 28, 834, 78,f
2025-02-19 11:29:11.255,734, -47, 659, 1, -10, -4, -20, 9, 29, 855, 67,f
2025-02-19 11:29:11.357,750, -19, 642, 0, -7, 7, -18, 8, 27, 857, 77,f
2025-02-19 11:29:11.466,789, -43, 614, -6, -4, 4, -19, 9, 27, 869, 88,f
2025-02-19 11:29:11.573,764, -45, 634, -2, -2, 0, -18, 8, 29, 875, 91,f
2025-02-19 11:29:11.680,769, -42, 623, -2, 3, -4, -19, 9, 27, 877, 90,f
2025-02-19 11:29:11.790,786, -67, 635, -2, -3, -3, -18, 9, 26, 875, 94,f
2025-02-19 11:29:11.897,815, 177, 586, 30, 30, -94, -18, 9, 29, 875, 97,f
2025-02-19 11:29:12.004,757, 98, 622, -8, -14, -3, -19, 6, 28, 905, 96,f
2025-02-19 11:29:12.110,538, -8, 547, 19, 45, 1, -17, 8, 26, 884, 70,f
2025-02-19 11:29:12.221,1019, 114, 597, -4, -39, 10, -17, 6, 27, 859, 92,f
2025-02-19 11:29:12.323,840, 16, 653, 16, 19, 17, -20, 9, 29, 894, 89,f
2025-02-19 11:29:12.432,572, -114, 731, 21, -21, 2, -17, 9, 25, 805, 39,f
2025-02-19 11:29:12.541,724, -58, 676, -6, 2, 0, -16, 8, 25, 798, 47,f
2025-02-19 11:29:13.460,741, -45, 665, -1, -1, -2, -18, 10, 28, 793, 54,g
2025-02-19 11:29:13.556,730, -57, 664, -2, -2, -3, -18, 9, 27, 789, 53,g
2025-02-19 11:29:13.663,735, -50, 672, -1, -1, -1, -18, 8, 25, 799, 54,g
2025-02-19 11:29:13.769,726, -49, 666, -2, -2, -2, -18, 8, 27, 806, 56,g
2025-02-19 11:29:13.876,720, -58, 659, 4, -17, -4, -18, 9, 28, 824, 65,g
2025-02-19 11:29:13.982,760, -31, 648, -4, 3, 4, -18, 9, 27, 852, 73,g
2025-02-19 11:29:14.089,777, -22, 637, 1, -3, 0, -18, 9, 29, 868, 73,g
2025-02-19 11:29:14.199,769, -26, 640, 1, -5, -2, -19, 8, 29, 873, 78,g
2025-02-19 11:29:14.306,742, -34, 633, 1, -9, -6, -19, 7, 29, 881, 87,g
2025-02-19 11:29:14.412,699, -66, 640, -3, 8, -11, -17, 8, 29, 875, 97,g
2025-02-19 11:29:14.519,807, 206, 555, 5, -16, 44, -19, 8, 29, 795, 96,g
2025-02-19 11:29:14.630,765, -295, 637, 1, 3, -11, -18, 8, 27, 883, 96,g
2025-02-19 11:29:14.736,873, 135, 534, -4, -6, 42, -18, 9, 29, 750, 100,g
2025-02-19 11:29:14.847,550, -175, 683, -11, 61, 12, -16, 10, 24, 793, 44,g
2025-02-19 11:29:17.059,727, -72, 670, -1, -1, 0, -19, 9, 25, 747, 49,h
2025-02-19 11:29:17.156,730, -76, 672, -1, -1, -1, -18, 11, 25, 752, 51,h
2025-02-19 11:29:17.263,726, -67, 672, -1, 0, -1, -17, 9, 26, 753, 50,h
2025-02-19 11:29:17.370,727, -80, 666, -2, 0, 0, -17, 10, 26, 753, 50,h
2025-02-19 11:29:17.481,730, -69, 673, -1, 0, -1, -16, 11, 25, 757, 51,h
2025-02-19 11:29:17.582,736, -76, 673, -2, -1, -3, -17, 9, 25, 765, 50,h
2025-02-19 11:29:17.690,743, -69, 665, -1, -1, -3, -18, 11, 27, 777, 52,h
2025-02-19 11:29:17.800,732, -57, 663, -3, -2, -2, -19, 10, 28, 788, 54,h
2025-02-19 11:29:17.910,735, -71, 669, -3, -2, -3, -19, 10, 26, 798, 55,h
2025-02-19 11:29:18.013,747, -59, 667, -5, -2, -3, -18, 9, 27, 807, 58,h
2025-02-19 11:29:18.120,740, -50, 657, -7, -2, -7, -19, 10, 28, 838, 57,h
2025-02-19 11:29:18.229,714, -90, 679, -6, 1, -8, -19, 10, 26, 846, 55,h
2025-02-19 11:29:18.336,732, -42, 656, 4, -8, -1, -18, 8, 28, 861, 61,h
2025-02-19 11:29:18.442,757, -23, 643, 0, -4, -6, -18, 8, 29, 870, 74,h
2025-02-19 11:29:18.553,805, -2, 637, -1, -9, -17, -19, 8, 28, 865, 92,h
2025-02-19 11:29:18.660,785, -37, 628, -10, -7, -11, -18, 6, 28, 861, 97,h
2025-02-19 11:29:18.766,780, 230, 582, 20, -17, 53, -18, 8, 28, 787, 96,h
2025-02-19 11:29:18.877,782, -150, 688, -6, -15, -29, -19, 10, 28, 880, 96,h
2025-02-19 11:29:18.979,836, 46, 511, 14, 10, 28, -18, 9, 30, 850, 99,h
2025-02-19 11:29:19.089,546, -168, 720, -43, 64, 9, -18, 11, 26, 838, 38,h
2025-02-19 11:29:20.105,740, -99, 630, 0, -1, -2, -17, 8, 28, 820, 72,i
2025-02-19 11:29:20.199,738, -90, 649, -3, -3, 0, -19, 9, 27, 828, 73,i
2025-02-19 11:29:20.310,734, -92, 635, -1, -5, -3, -18, 9, 27, 831, 77,i
2025-02-19 11:29:20.416,750, -63, 632, -2, -5, -4, -19, 9, 28, 833, 83,i
2025-02-19 11:29:20.523,773, -86, 604, -12, 0, -7, -19, 8, 29, 843, 95,i
2025-02-19 11:29:20.630,759, 87, 622, 5, -18, 34, -18, 8, 28, 807, 99,i
2025-02-19 11:29:20.745,943, -214, 549, -49, 71, -35, -18, 10, 29, 858, 81,i
2025-02-19 11:29:20.846,772, 11, 572, 14, 13, 17, -21, 7, 27, 846, 98,i
2025-02-19 11:29:20.958,627, -108, 659, -32, 67, 34, -17, 10, 25, 850, 43,i
2025-02-19 11:29:22.070,772, -89, 624, -1, -3, 0, -19, 8, 30, 849, 85,j
2025-02-19 11:29:22.166,796, -38, 583, 0, -1, 0, -18, 10, 29, 853, 96,j
2025-02-19 11:29:22.270,768, -37, 601, -2, 4, -12, -18, 9, 28, 868, 95,j
2025-02-19 11:29:22.383,743, -405, 750, 9, -9, 46, -18, 9, 28, 851, 97,j
2025-02-19 11:29:22.490,638, -47, 542, 34, 51, -27, -19, 12, 29, 750, 0,j
2025-02-19 11:29:22.600,171, -312, 854, 6, -97, -51, -19, 8, 28, 866, 0,j
2025-02-19 11:29:22.702,1103, -3, 586, 8, 47, 32, -18, 6, 29, 864, 87,j
2025-02-19 11:29:22.813,645, -71, 692, 15, -27, -2, -18, 13, 27, 827, 48,j
2025-02-19 11:29:23.630,760, -62, 630, -2, -2, -1, -18, 8, 29, 796, 76,k
2025-02-19 11:29:23.727,761, -63, 631, -1, -2, -1, -19, 9, 27, 796, 76,k
2025-02-19 11:29:23.830,759, -65, 630, 0, -2, -1, -19, 9, 30, 794, 78,k
2025-02-19 11:29:23.940,762, -63, 634, -2, -2, -2, -17, 11, 29, 796, 80,k
2025-02-19 11:29:24.047,770, -60, 628, -4, 0, -4, -17, 7, 26, 800, 80,k
2025-02-19 11:29:24.150,773, -67, 621, -3, -2, -2, -20, 9, 29, 820, 81,k
2025-02-19 11:29:24.262,764, -67, 624, -2, -2, -1, -18, 8, 29, 836, 83,k
2025-02-19 11:29:24.370,789, -70, 636, 4, -9, -6, -19, 7, 29, 855, 96,k
2025-02-19 11:29:24.470,761, -93, 638, -7, 5, -17, -21, 7, 30, 860, 97,k
2025-02-19 11:29:24.579,681, -354, 783, 40, -4, 54, -19, 7, 31, 775, 99,k
2025-02-19 11:29:24.690,827, 13, 525, 3, -28, -21, -18, 10, 28, 863, 97,k
2025-02-19 11:29:24.801,846, 193, 666, -43, 57, 13, -17, 9, 30, 807, 81,k
2025-02-19 11:29:24.899,770, 33, 606, -8, -38, 49, -18, 10, 29, 810, 0,k
2025-02-19 11:29:25.013,741, -2, 538, -35, 88, 9, -17, 11, 29, 789, 63,k
2025-02-19 11:29:25.933,770, -73, 630, -2, -1, -2, -17, 9, 29, 774, 70,l
2025-02-19 11:29:26.028,765, -80, 626, -1, -2, -1, -17, 10, 28, 772, 71,l
2025-02-19 11:29:26.138,767, -81, 634, -3, -1, -1, -18, 11, 28, 779, 72,l
2025-02-19 11:29:26.241,766, -68, 629, -4, 0, -4, -18, 8, 29, 784, 74,l
2025-02-19 11:29:26.351,777, -72, 618, -8, -1, -6, -19, 9, 30, 794, 78,l
2025-02-19 11:29:26.459,772, -77, 624, -5, -2, -8, -18, 11, 29, 809, 81,l
2025-02-19 11:29:26.564,752, -80, 638, 1, -5, -13, -20, 6, 29, 826, 90,l
2025-02-19 11:29:26.667,768, -53, 614, 0, 6, 3, -20, 8, 29, 843, 99,l
2025-02-19 11:29:26.779,745, -30, 632, -6, 16, -7, -18, 10, 27, 851, 87,l
2025-02-19 11:29:26.888,798, -12, 659, -12, 1, -6, -19, 6, 28, 862, 97,l
2025-02-19 11:29:26.995,673, -285, 782, 17, -21, 58, -19, 6, 28, 832, 98,l
2025-02-19 11:29:27.102,948, -77, 622, 25, 1, 5, -19, 10, 28, 818, 97,l
2025-02-19 11:29:27.208,623, -104, 686, -1, -3, -4, -16, 8, 25, 840, 63,l
2025-02-19 11:29:27.314,774, -51, 635, -2, -3, -3, -19, 9, 27, 838, 72,l
2025-02-19 11:29:28.331,770, -49, 631, -1, 0, 0, -18, 9, 29, 835, 92,m
2025-02-19 11:29:28.428,765, -48, 632, -2, -1, 0, -18, 9, 27, 839, 90,m
2025-02-19 11:29:28.535,770, -49, 628, -2, 0, 1, -18, 9, 28, 841, 92,m
2025-02-19 11:29:28.645,770, -57, 628, -3, 2, -1, -18, 9, 30, 841, 90,m
2025-02-19 11:29:28.751,729, -78, 638, -7, 4, 0, -19, 8, 27, 843, 79,m
2025-02-19 11:29:28.858,754, -72, 639, 0, -2, 2, -20, 8, 27, 855, 80,m
2025-02-19 11:29:28.965,789, -63, 625, 1, -4, 0, -18, 7, 29, 855, 88,m
2025-02-19 11:29:29.072,766, -35, 619, -3, 2, -5, -18, 9, 27, 857, 91,m
2025-02-19 11:29:29.180,751, -61, 616, -5, -3, -8, -17, 9, 28, 864, 97,m
2025-02-19 11:29:29.287,757, -92, 687, 12, -11, 34, -18, 9, 28, 803, 98,m
2025-02-19 11:29:29.395,835, -96, 435, 4, 4, -48, -17, 10, 28, 852, 97,m
2025-02-19 11:29:29.506,711, 15, 634, -1, -10, 44, -18, 11, 27, 828, 99,m
2025-02-19 11:29:29.612,836, -214, 564, 2, -3, -40, -17, 10, 30, 889, 97,m
2025-02-19 11:29:29.719,830, 72, 542, 1, -5, 50, -18, 10, 30, 812, 101,m
2025-02-19 11:29:29.829,716, -100, 584, -23, 45, -1, -18, 11, 28, 866, 68,m
2025-02-19 11:29:30.740,772, -48, 618, 0, -2, -2, -20, 7, 29, 833, 96,n
2025-02-19 11:29:30.840,778, -40, 606, -1, 1, -3, -18, 10, 29, 832, 98,n
2025-02-19 11:29:30.945,790, -45, 607, -2, 1, -2, -18, 9, 30, 832, 97,n
2025-02-19 11:29:31.050,775, -41, 612, -3, 4, -2, -18, 8, 28, 834, 93,n
2025-02-19 11:29:31.161,833, -90, 625, -9, -6, -6, -18, 9, 31, 834, 100,n
2025-02-19 11:29:31.262,745, 73, 612, 1, -12, 36, -16, 9, 30, 762, 102,n
2025-02-19 11:29:31.377,817, -106, 619, 4, -10, -36, -18, 7, 28, 870, 0,n
2025-02-19 11:29:31.484,737, 49, 593, -1, -11, 51, -18, 9, 30, 803, 104,n
2025-02-19 11:29:31.595,1078, 12, 521, -24, 87, 23, -18, 10, 30, 843, 73,n
2025-02-19 11:29:31.701,601, -152, 672, 17, -39, -16, -17, 12, 27, 807, 44,n
2025-02-19 11:29:31.803,828, -41, 611, -3, 0, 4, -15, 10, 30, 807, 67,n
2025-02-19 11:29:31.914,786, -46, 609, -2, -2, -1, -17, 9, 30, 810, 70,n
2025-02-19 11:29:32.020,757, -76, 618, -2, -6, -3, -19, 11, 29, 814, 74,n
2025-02-19 11:29:32.127,782, -84, 622, 0, -2, -1, -18, 11, 30, 822, 80,n
2025-02-19 11:29:32.233,775, -69, 622, -3, 0, -1, -19, 10, 29, 816, 79,n
2025-02-19 11:29:32.340,769, -80, 619, -2, -1, 0, -19, 11, 29, 810, 77,n
2025-02-19 11:29:32.451,775, -87, 621, -2, -1, -1, -18, 9, 29, 807, 78,n
2025-02-19 11:29:32.557,769, -81, 611, 0, -2, 0, -18, 10, 28, 804, 77,n
2025-02-19 11:29:33.575,778, -77, 609, -2, 1, -1, -18, 11, 29, 809, 77,o
2025-02-19 11:29:33.667,768, -93, 619, 0, -1, 0, -17, 8, 29, 809, 78,o
2025-02-19 11:29:33.777,786, -80, 613, -1, 0, -2, -18, 10, 29, 809, 80,o
2025-02-19 11:29:33.884,766, -82, 613, -4, 0, -3, -16, 10, 31, 809, 79,o
2025-02-19 11:29:33.994,779, -78, 618, -2, -1, -3, -17, 10, 29, 821, 82,o
2025-02-19 11:29:34.097,769, -83, 624, -1, 1, 1, -17, 9, 30, 839, 78,o
2025-02-19 11:29:34.208,768, -96, 612, 3, -5, 0, -18, 11, 28, 840, 80,o
2025-02-19 11:29:34.314,785, -94, 603, 4, -3, 2, -18, 11, 29, 848, 84,o
2025-02-19 11:29:34.421,742, -75, 606, 2, -4, -2, -18, 11, 30, 869, 87,o
2025-02-19 11:29:34.532,811, -50, 624, -6, 13, -18, -19, 10, 30, 861, 101,o
2025-02-19 11:29:34.637,920, 70, 539, 28, -22, 63, -17, 9, 27, 736, 101,o
2025-02-19 11:29:34.744,754, -312, 688, -8, -1, -26, -20, 11, 31, 875, 104,o
2025-02-19 11:29:34.854,660, -47, 663, -20, 44, 33, -19, 12, 28, 798, 59,o
2025-02-19 11:29:35.669,776, -71, 608, -1, -2, -2, -18, 10, 29, 772, 84,p
2025-02-19 11:29:35.764,794, -64, 609, -1, -1, 0, -18, 10, 30, 778, 85,p
2025-02-19 11:29:35.875,786, -66, 607, -1, -1, 0, -18, 10, 30, 789, 86,p
2025-02-19 11:29:35.980,786, -72, 599, 0, -1, 1, -19, 10, 28, 799, 86,p
2025-02-19 11:29:36.087,770, -69, 607, -4, -1, -2, -20, 11, 30, 829, 86,p
2025-02-19 11:29:36.194,780, -72, 594, -4, -3, 0, -19, 9, 30, 836, 89,p
2025-02-19 11:29:36.301,768, -84, 599, -9, -1, 0, -16, 12, 28, 838, 92,p
2025-02-19 11:29:36.410,699, -79, 621, -2, -11, -16, -18, 9, 29, 846, 101,p
2025-02-19 11:29:36.519,770, -369, 748, 24, -11, 56, -17, 9, 29, 773, 104,p
2025-02-19 11:29:36.628,747, 137, 487, 24, 33, -105, -18, 12, 29, 838, 99,p
2025-02-19 11:29:36.734,725, -18, 630, -10, -19, 8, -17, 7, 30, 859, 108,p
2025-02-19 11:29:36.841,1028, -79, 275, 21, 32, 2, -18, 9, 31, 765, 101,p
2025-02-19 11:29:36.948,471, -127, 781, 0, -12, -6, -15, 14, 27, 787, 45,p
2025-02-19 11:29:37.965,778, -69, 607, -1, -2, -2, -18, 11, 30, 775, 82,q
2025-02-19 11:29:38.062,779, -59, 609, -2, 0, -3, -18, 9, 28, 792, 83,q
2025-02-19 11:29:38.168,774, -62, 616, -6, 2, -4, -18, 11, 30, 798, 84,q
2025-02-19 11:29:38.275,776, -85, 607, 0, -5, 0, -18, 11, 31, 820, 86,q
2025-02-19 11:29:38.381,775, -64, 619, 0, -2, 2, -18, 10, 29, 845, 84,q
2025-02-19 11:29:38.488,797, -65, 599, 2, -4, 2, -18, 11, 30, 854, 85,q
2025-02-19 11:29:38.593,757, -89, 622, 6, -11, 1, -16, 11, 31, 866, 90,q
2025-02-19 11:29:38.705,806, -42, 570, -1, 0, -5, -18, 9, 30, 874, 100,q
2025-02-19 11:29:38.810,851, -153, 603, -6, 4, -26, -17, 10, 31, 831, 105,q
2025-02-19 11:29:38.920,907, 77, 576, -2, -17, 22, -17, 9, 30, 813, 103,q
2025-02-19 11:29:39.026,726, -281, 768, 5, -2, 44, -17, 10, 30, 808, 104,q
2025-02-19 11:29:39.139,876, -40, 506, 14, -12, -7, -18, 13, 31, 786, 104,q
2025-02-19 11:29:39.246,496, -202, 738, -33, 42, 38, -16, 13, 28, 641, 42,q
2025-02-19 11:29:40.059,756, -62, 647, -3, 1, -2, -19, 8, 28, 791, 67,r
2025-02-19 11:29:40.156,779, -73, 640, -4, 6, -5, -18, 9, 29, 811, 67,r
2025-02-19 11:29:40.260,756, -59, 644, -1, 0, -3, -18, 10, 27, 827, 67,r
2025-02-19 11:29:40.365,737, -73, 655, 1, -2, -5, -18, 9, 26, 830, 68,r
2025-02-19 11:29:40.476,757, -51, 637, -3, -1, -3, -17, 10, 27, 851, 73,r
2025-02-19 11:29:40.582,754, -58, 654, -4, 1, 0, -19, 9, 27, 862, 75,r
2025-02-19 11:29:40.691,747, -58, 650, -1, -2, 1, -19, 12, 28, 866, 75,r
2025-02-19 11:29:40.798,758, -54, 645, 4, -4, 0, -18, 7, 28, 867, 77,r
2025-02-19 11:29:40.908,769, -50, 645, 4, -7, -6, -19, 11, 27, 870, 88,r
2025-02-19 11:29:41.015,768, -42, 636, -1, 3, -7, -19, 11, 29, 876, 85,r
2025-02-19 11:29:41.121,852, -113, 725, 13, -9, -6, -17, 6, 28, 889, 95,r
2025-02-19 11:29:41.228,711, -313, 825, 22, -3, 44, -17, 9, 26, 883, 95,r
2025-02-19 11:29:41.338,750, -72, 570, -4, 7, -37, -18, 11, 27, 896, 95,r
2025-02-19 11:29:41.445,687, -167, 679, -11, -8, -11, -16, 8, 29, 894, 0,r
2025-02-19 11:29:41.552,944, 61, 574, -31, 60, 28, -18, 9, 28, 896, 71,r
2025-02-19 11:29:41.661,719, -78, 644, 13, -21, -7, -18, 13, 28, 859, 55,r
2025-02-19 11:29:42.873,717, -71, 684, 9, -3, -1, -16, 10, 24, 658, 52,s
2025-02-19 11:29:42.972,722, -40, 621, 4, -2, -1, -16, 11, 24, 513, 54,s
2025-02-19 11:29:43.079,682, 3, 683, -6, 0, -4, -18, 10, 25, 544, 56,s
2025-02-19 11:29:43.186,739, -27, 661, -1, -1, 3, -18, 9, 24, 590, 58,s
2025-02-19 11:29:43.297,708, -48, 657, -11, -5, -4, -19, 10, 24, 797, 61,s
2025-02-19 11:29:43.403,744, -43, 660, -14, -1, -3, -17, 11, 26, 858, 67,s
2025-02-19 11:29:43.509,721, -37, 671, -7, 4, 0, -19, 10, 27, 874, 63,s
2025-02-19 11:29:43.610,751, -51, 667, -1, -6, 0, -18, 10, 28, 879, 66,s
2025-02-19 11:29:43.725,766, -36, 669, -4, -13, 0, -17, 11, 28, 885, 74,s
2025-02-19 11:29:43.833,731, -60, 659, -2, -1, -4, -18, 11, 27, 888, 74,s
2025-02-19 11:29:43.936,715, -53, 646, 2, -9, -3, -17, 9, 27, 886, 73,s
2025-02-19 11:29:44.046,755, -55, 641, -7, 1, -3, -18, 10, 28, 891, 81,s
2025-02-19 11:29:44.150,825, -49, 678, 1, -5, -3, -19, 9, 28, 897, 88,s
2025-02-19 11:29:44.258,783, -54, 548, 14, 9, -16, -18, 7, 28, 872, 91,s
2025-02-19 11:29:44.371,719, -21, 652, -14, -13, 28, -17, 9, 28, 878, 92,s
2025-02-19 11:29:44.475,667, -13, 655, -32, 69, 29, -17, 11, 24, 870, 44,s
2025-02-19 11:29:44.584,720, -103, 692, 15, -28, -8, -17, 10, 25, 829, 41,s
2025-02-19 11:29:45.599,735, -115, 613, -4, -10, 14, -17, 12, 27, 614, 46,t
2025-02-19 11:29:45.697,749, -166, 624, -1, 4, -4, -18, 13, 28, 696, 50,t
2025-02-19 11:29:45.807,770, -87, 625, -3, 31, -17, -16, 13, 25, 806, 50,t
2025-02-19 11:29:45.914,690, -91, 713, -10, 22, -15, -17, 12, 24, 845, 41,t
2025-02-19 11:29:46.020,703, -101, 704, -2, -3, -15, -17, 12, 25, 868, 41,t
2025-02-19 11:29:46.125,732, -101, 703, -6, -1, -8, -17, 11, 23, 877, 46,t
2025-02-19 11:29:46.233,672, -81, 695, 1, -8, -10, -18, 11, 23, 883, 49,t
2025-02-19 11:29:46.341,709, -70, 684, -3, -7, -4, -17, 12, 27, 889, 55,t
2025-02-19 11:29:46.450,751, -64, 664, -18, 2, -11, -19, 9, 27, 896, 59,t
2025-02-19 11:29:46.557,703, -92, 680, -11, -2, -11, -16, 9, 27, 902, 57,t
2025-02-19 11:29:46.660,782, -70, 669, -6, -2, -7, -18, 11, 27, 911, 68,t
2025-02-19 11:29:46.773,680, -112, 671, 0, -18, -17, -19, 8, 25, 917, 84,t
2025-02-19 11:29:46.880,742, -128, 662, 5, -7, -20, -20, 10, 26, 915, 90,t
2025-02-19 11:29:46.983,862, 92, 616, 18, -1, 39, -18, 10, 27, 900, 86,t
2025-02-19 11:29:47.089,565, -42, 652, 9, 20, -34, -19, 9, 25, 900, 70,t
2025-02-19 11:29:47.200,742, 77, 661, -46, -45, 14, -18, 9, 30, 877, 88,t
2025-02-19 11:29:47.309,1058, 65, 649, -17, 84, 35, -18, 10, 29, 867, 66,t
2025-02-19 11:29:48.323,710, -28, 660, -6, 1, 0, -17, 11, 27, 698, 49,u
2025-02-19 11:29:48.421,703, -71, 681, -5, 5, 0, -18, 11, 23, 732, 49,u
2025-02-19 11:29:48.524,722, -60, 686, -3, -1, 0, -16, 11, 25, 754, 49,u
2025-02-19 11:29:48.633,721, -84, 686, -13, 0, -4, -18, 13, 23, 770, 48,u
2025-02-19 11:29:48.740,732, -99, 671, -20, -6, -4, -18, 12, 24, 810, 49,u
2025-02-19 11:29:48.850,732, -103, 695, -2, -8, -8, -16, 9, 26, 846, 52,u
2025-02-19 11:29:48.957,746, -102, 659, -5, 3, -3, -18, 12, 27, 859, 54,u
2025-02-19 11:29:49.059,711, -89, 672, 4, -6, -4, -18, 11, 28, 863, 56,u
2025-02-19 11:29:49.170,788, -60, 628, 1, 0, -2, -17, 9, 27, 864, 64,u
2025-02-19 11:29:49.280,724, -79, 660, -3, 2, -6, -18, 12, 27, 871, 61,u
2025-02-19 11:29:49.387,737, -92, 666, 2, 0, -4, -19, 10, 26, 875, 63,u
2025-02-19 11:29:49.493,690, -74, 653, -1, -9, -10, -18, 8, 27, 878, 74,u
2025-02-19 11:29:49.604,857, -74, 607, 21, -21, 51, -19, 8, 25, 865, 90,u
2025-02-19 11:29:49.710,666, -355, 702, -8, 6, -37, -18, 8, 28, 913, 92,u
2025-02-19 11:29:49.817,844, 132, 539, 8, -8, 34, -17, 9, 28, 875, 93,u
2025-02-19 11:29:49.924,683, -163, 654, -28, 48, 7, -17, 11, 29, 887, 58,u
2025-02-19 11:29:51.239,748, -62, 652, -3, -1, -2, -18, 12, 28, 822, 71,v
2025-02-19 11:29:51.337,737, -70, 650, -6, -1, -4, -18, 9, 26, 831, 72,v
2025-02-19 11:29:51.440,749, -64, 639, -2, 2, -1, -17, 10, 28, 825, 75,v
2025-02-19 11:29:51.551,744, -56, 651, 2, 0, -2, -18, 10, 28, 826, 75,v
2025-02-19 11:29:51.656,742, -62, 646, 1, 2, 0, -19, 10, 25, 826, 75,v
2025-02-19 11:29:51.760,748, -42, 668, -10, 22, 5, -19, 10, 27, 834, 61,v
2025-02-19 11:29:51.873,678, -97, 704, 3, -6, -1, -17, 10, 27, 848, 51,v
2025-02-19 11:29:51.980,735, -42, 662, 4, -12, 1, -19, 12, 26, 852, 61,v
2025-02-19 11:29:52.089,762, -29, 658, -1, 3, -12, -18, 9, 26, 853, 73,v
2025-02-19 11:29:52.196,711, -39, 672, -1, 5, -13, -17, 7, 26, 843, 71,v
2025-02-19 11:29:52.303,674, -41, 678, 7, -23, -24, -19, 8, 27, 852, 89,v
2025-02-19 11:29:52.414,744, -15, 641, -1, -3, -14, -19, 8, 26, 841, 89,v
2025-02-19 11:29:52.516,772, 167, 616, 19, 5, 16, -18, 10, 28, 806, 90,v
2025-02-19 11:29:52.622,761, -15, 691, -3, 6, -3, -18, 9, 28, 906, 91,v
2025-02-19 11:29:52.734,637, -71, 679, -11, 33, 23, -16, 11, 26, 800, 50,v
2025-02-19 11:29:53.850,738, -58, 674, -1, -1, -2, -18, 8, 25, 788, 54,w
2025-02-19 11:29:53.949,729, -56, 665, -2, -2, -2, -18, 10, 27, 793, 55,w
2025-02-19 11:29:54.056,742, -46, 664, -2, -3, -3, -17, 8, 26, 815, 59,w
2025-02-19 11:29:54.163,717, -47, 673, -1, -2, -1, -17, 8, 26, 832, 63,w
2025-02-19 11:29:54.269,774, -23, 629, 3, 4, -1, -19, 10, 25, 842, 69,w
2025-02-19 11:29:54.376,728, -39, 685, -4, 0, 0, -17, 9, 24, 845, 63,w
2025-02-19 11:29:54.482,722, -40, 668, 0, -3, -3, -17, 7, 25, 850, 63,w
2025-02-19 11:29:54.589,718, -35, 664, 3, -7, -6, -18, 10, 26, 850, 68,w
2025-02-19 11:29:54.699,762, -55, 658, -2, 5, -10, -18, 8, 26, 851, 74,w
2025-02-19 11:29:54.805,616, -50, 656, 15, -31, -29, -17, 7, 26, 844, 89,w
2025-02-19 11:29:54.916,751, 137, 675, -13, -24, 47, -17, 9, 29, 836, 89,w
2025-02-19 11:29:55.023,735, -174, 672, -3, -2, -41, -18, 9, 26, 882, 90,w
2025-02-19 11:29:55.125,777, 202, 597, 7, 4, 20, -18, 8, 28, 851, 91,w
2025-02-19 11:29:55.236,1080, 72, 647, -1, 28, 43, -18, 9, 29, 902, 85,w
2025-02-19 11:29:55.342,605, -101, 735, 5, -11, -3, -17, 10, 25, 825, 40,w
2025-02-19 11:29:55.448,798, -40, 646, 0, -3, -1, -17, 11, 29, 815, 54,w
2025-02-19 11:29:55.555,744, -32, 664, -2, 1, -1, -18, 11, 27, 833, 53,w
2025-02-19 11:29:55.662,731, -58, 670, 1, 1, 1, -18, 11, 24, 831, 52,w
2025-02-19 11:29:55.769,735, -46, 671, 0, -1, 0, -18, 10, 27, 822, 52,w
2025-02-19 11:29:55.879,733, -42, 663, -2, -1, 1, -16, 9, 28, 824, 52,w
2025-02-19 11:29:55.985,743, -49, 668, -3, 1, -1, -18, 12, 27, 821, 51,w
2025-02-19 11:29:56.091,729, -70, 663, -3, 1, 1, -18, 10, 26, 818, 50,w
2025-02-19 11:29:56.199,733, -59, 667, -3, 0, -1, -18, 9, 28, 817, 49,w
2025-02-19 11:29:56.305,730, -53, 665, -2, 0, 0, -18, 11, 27, 819, 50,w
2025-02-19 11:29:57.222,736, -59, 664, -1, -1, -1, -16, 13, 25, 821, 49,x
2025-02-19 11:29:57.321,734, -61, 664, 0, 0, -1, -18, 8, 27, 821, 48,x
2025-02-19 11:29:57.422,732, -69, 667, -1, -1, 0, -17, 12, 26, 823, 49,x
2025-02-19 11:29:57.539,727, -65, 667, -1, -1, -3, -18, 11, 25, 829, 50,x
2025-02-19 11:29:57.645,734, -71, 667, -1, -5, -3, -17, 9, 27, 836, 53,x
2025-02-19 11:29:57.749,724, -58, 671, 3, -7, -2, -19, 12, 26, 855, 56,x
2025-02-19 11:29:57.855,748, -47, 653, -1, 0, 1, -17, 10, 27, 867, 57,x
2025-02-19 11:29:57.959,759, -47, 648, -1, -4, -8, -18, 9, 26, 863, 59,x
2025-02-19 11:29:58.071,752, -35, 624, 2, -9, -8, -18, 11, 29, 879, 67,x
2025-02-19 11:29:58.180,761, -29, 640, -1, -4, -2, -18, 9, 29, 889, 72,x
2025-02-19 11:29:58.287,761, -27, 639, -1, -2, -3, -17, 8, 27, 897, 74,x
2025-02-19 11:29:58.393,675, -42, 639, 1, -14, -8, -18, 10, 30, 908, 78,x
2025-02-19 11:29:58.504,761, -46, 684, -7, -11, -8, -18, 8, 28, 907, 96,x
2025-02-19 11:29:58.611,958, 140, 418, 25, 23, 21, -17, 6, 28, 743, 94,x
2025-02-19 11:29:58.720,479, -129, 732, -6, -19, -36, -18, 10, 27, 859, 78,x
2025-02-19 11:29:58.824,680, 16, 626, -16, -33, 57, -16, 8, 26, 832, 93,x
2025-02-19 11:29:58.930,972, 52, 604, -5, 92, 15, -18, 8, 27, 835, 64,x
2025-02-19 11:29:59.039,568, -119, 743, 12, -16, -4, -17, 12, 25, 496, 36,x
2025-02-19 11:30:00.659,738, -32, 665, -5, 0, -1, -18, 10, 26, 761, 61,y
2025-02-19 11:30:00.753,739, -33, 667, -10, -2, -4, -19, 9, 25, 762, 60,y
2025-02-19 11:30:00.859,732, -43, 668, -12, -2, -12, -18, 8, 27, 779, 61,y
2025-02-19 11:30:00.966,745, -23, 662, 0, -1, -2, -18, 7, 27, 802, 64,y
2025-02-19 11:30:01.077,765, -49, 651, -6, -2, -2, -21, 7, 26, 804, 69,y
2025-02-19 11:30:01.183,752, -48, 655, -6, -1, -2, -19, 9, 27, 818, 69,y
2025-02-19 11:30:01.289,727, -40, 662, 1, -2, -1, -18, 7, 27, 852, 67,y
2025-02-19 11:30:01.396,750, -33, 644, 0, -2, -3, -19, 8, 26, 872, 70,y
2025-02-19 11:30:01.502,762, -25, 649, 2, -11, -4, -21, 6, 27, 879, 81,y
2025-02-19 11:30:01.609,718, -20, 628, 1, -8, -11, -19, 7, 28, 881, 90,y
2025-02-19 11:30:01.720,762, -118, 629, -10, -3, -23, -18, 7, 28, 878, 95,y
2025-02-19 11:30:01.826,837, 102, 616, 5, -15, 4, -18, 7, 27, 909, 90,y
2025-02-19 11:30:01.933,730, -117, 667, 5, 3, -1, -19, 6, 28, 900, 90,y
2025-02-19 11:30:02.038,691, -82, 589, 10, 31, 21, -20, 10, 29, 815, 96,y
2025-02-19 11:30:02.149,500, -171, 830, -28, 25, 4, -16, 9, 24, 807, 36,y
2025-02-19 11:30:03.159,710, -91, 679, -1, -2, -1, -16, 8, 26, 767, 44,z
2025-02-19 11:30:03.263,728, -66, 679, 2, -7, -3, -19, 11, 26, 798, 47,z
2025-02-19 11:30:03.369,726, -74, 674, -1, -4, -5, -17, 8, 25, 821, 53,z
2025-02-19 11:30:03.477,744, -65, 669, -2, -4, -4, -17, 9, 25, 833, 57,z
2025-02-19 11:30:03.579,742, -62, 654, -2, -6, -5, -17, 9, 27, 841, 61,z
2025-02-19 11:30:03.689,745, -49, 655, 1, -10, 1, -18, 9, 26, 867, 66,z
2025-02-19 11:30:03.789,770, -35, 644, -3, 2, -4, -18, 8, 27, 878, 67,z
2025-02-19 11:30:03.903,737, -46, 659, -1, -6, -6, -18, 9, 27, 878, 69,z
2025-02-19 11:30:04.009,787, -33, 629, -10, 3, -13, -19, 7, 27, 851, 78,z
2025-02-19 11:30:04.119,871, 12, 554, -5, -7, -12, -18, 7, 28, 833, 96,z
2025-02-19 11:30:04.226,634, 18, 730, 15, -11, -5, -18, 8, 29, 917, 90,z
2025-02-19 11:30:04.334,901, 75, 430, 25, 10, -12, -17, 7, 28, 738, 94,z
2025-02-19 11:30:04.439,752, -5, 670, -7, -5, 12, -18, 8, 26, 879, 91,z
2025-02-19 11:30:04.553,545, -239, 602, 60, -108, -16, -18, 8, 28, 842, 92,z
2025-02-19 11:30:04.653,737, 44, 686, 2, -3, 11, -18, 8, 27, 898, 90,z
2025-02-19 11:30:04.763,488, -154, 738, 6, 10, 2, -18, 10, 28, 804, 48,z
2025-02-19 11:30:05.681,746, -38, 644, -3, -1, -2, -18, 8, 27, 772, 56,0
2025-02-19 11:30:05.779,732, -42, 648, -5, -1, -2, -17, 9, 25, 790, 56,0
2025-02-19 11:30:05.885,744, -42, 652, -5, 0, -2, -17, 9, 27, 806, 59,0
2025-02-19 11:30:05.992,733, -46, 663, -4, 2, -7, -17, 10, 27, 809, 61,0
2025-02-19 11:30:06.098,760, -43, 644, -14, 9, 3, -19, 7, 26, 780, 59,0
2025-02-19 11:30:06.203,764, 2, 661, 5, -12, 9, -18, 9, 26, 850, 61,0
2025-02-19 11:30:06.310,725, -62, 663, 2, -10, -4, -20, 9, 29, 854, 67,0
2025-02-19 11:30:06.419,775, -53, 628, -2, -1, 2, -18, 8, 26, 848, 74,0
2025-02-19 11:30:06.529,760, -44, 636, 7, -18, -2, -19, 7, 27, 872, 85,0
2025-02-19 11:30:06.639,752, -41, 621, -13, -4, -12, -16, 7, 29, 839, 99,0
2025-02-19 11:30:06.740,1005, 79, 497, 33, 0, 64, -17, 7, 29, 699, 103,0
2025-02-19 11:30:06.852,724, -150, 644, 3, -5, -41, -19, 8, 29, 869, 99,0
2025-02-19 11:30:06.958,673, -4, 600, -23, 49, 51, -18, 8, 28, 819, 55,0
2025-02-19 11:30:07.879,743, -68, 645, -2, -2, -1, -19, 9, 26, 734, 56,1
2025-02-19 11:30:07.970,747, -55, 640, 0, 0, -1, -19, 11, 27, 708, 63,1
2025-02-19 11:30:08.079,761, -66, 649, 1, -2, -1, -18, 7, 26, 728, 56,1
2025-02-19 11:30:08.187,745, -60, 636, -2, -3, -3, -19, 10, 27, 746, 59,1
2025-02-19 11:30:08.290,751, -57, 632, -3, -7, -2, -20, 11, 27, 784, 63,1
2025-02-19 11:30:08.400,779, -39, 618, -4, 0, -4, -19, 9, 26, 828, 67,1
2025-02-19 11:30:08.510,777, -78, 635, -2, -9, -1, -19, 11, 28, 826, 73,1
2025-02-19 11:30:08.610,786, -60, 610, -6, 2, -7, -18, 10, 28, 824, 79,1
2025-02-19 11:30:08.728,730, -59, 627, -1, -14, -19, -19, 8, 27, 842, 87,1
2025-02-19 11:30:08.830,783, -3, 640, 0, -3, -16, -20, 9, 30, 845, 100,1
2025-02-19 11:30:08.937,785, -32, 608, -2, -1, 1, -19, 9, 29, 842, 99,1
2025-02-19 11:30:09.047,751, -299, 717, 10, -4, 50, -17, 7, 28, 781, 100,1
2025-02-19 11:30:09.153,954, 17, 579, 9, 2, -12, -18, 12, 29, 819, 95,1
2025-02-19 11:30:09.264,554, -151, 724, 7, -14, -4, -18, 13, 27, 808, 42,1
2025-02-19 11:30:10.880,747, -74, 645, -1, -1, -1, -18, 10, 26, 776, 60,2
2025-02-19 11:30:10.976,750, -77, 640, -1, -1, 0, -19, 11, 25, 783, 61,2
2025-02-19 11:30:11.082,750, -83, 631, -2, -1, -2, -18, 9, 27, 791, 63,2
2025-02-19 11:30:11.189,754, -80, 643, -3, -2, -3, -18, 10, 27, 795, 64,2
2025-02-19 11:30:11.290,761, -75, 634, -5, -5, 0, -20, 11, 26, 800, 66,2
2025-02-19 11:30:11.401,750, -68, 645, 1, 0, -1, -17, 10, 29, 832, 68,2
2025-02-19 11:30:11.509,721, -60, 614, -4, 5, -11, -19, 9, 27, 829, 68,2
2025-02-19 11:30:11.615,781, -61, 643, 3, -1, -6, -20, 7, 27, 826, 63,2
2025-02-19 11:30:11.720,738, -47, 640, 1, 0, -4, -18, 7, 29, 821, 80,2
2025-02-19 11:30:11.833,846, 6, 568, -6, -3, -3, -20, 8, 28, 777, 113,2
2025-02-19 11:30:11.943,694, -102, 764, 16, -17, 30, -20, 9, 26, 871, 96,2
2025-02-19 11:30:12.045,783, -85, 664, 53, 13, -9, -18, 8, 28, 688, 95,2
2025-02-19 11:30:12.152,841, -3, 673, 6, 11, 12, -18, 10, 28, 849, 92,2
2025-02-19 11:30:13.173,725, -58, 676, 4, -11, 1, -19, 10, 28, 772, 83,3
2025-02-19 11:30:13.270,733, -46, 644, 0, -7, -1, -18, 8, 26, 808, 60,3
2025-02-19 11:30:13.373,766, -61, 643, 0, -4, -2, -18, 11, 28, 825, 67,3
2025-02-19 11:30:13.484,770, -63, 633, -3, 0, -3, -20, 10, 30, 836, 71,3
2025-02-19 11:30:13.594,654, -78, 630, -2, -23, -23, -19, 8, 26, 832, 85,3
2025-02-19 11:30:13.702,779, 83, 651, 10, -26, 34, -18, 9, 28, 869, 97,3
2025-02-19 11:30:13.801,875, 91, 459, -14, 5, -6, -18, 12, 28, 809, 100,3
2025-02-19 11:30:13.909,767, 39, 703, -3, -15, 5, -18, 9, 28, 828, 99,3
2025-02-19 11:30:14.019,1134, 0, 596, -7, 55, 27, -19, 8, 29, 778, 0,3
2025-02-19 11:30:14.130,632, -104, 713, 8, -23, -5, -17, 12, 26, 809, 47,3
2025-02-19 11:30:15.048,747, -74, 646, -2, -1, -2, -18, 9, 25, 766, 63,4
2025-02-19 11:30:15.142,754, -53, 631, -3, 1, -7, -19, 9, 26, 772, 64,4
2025-02-19 11:30:15.249,770, -60, 648, -1, -1, -3, -20, 9, 29, 790, 65,4
2025-02-19 11:30:15.352,761, -52, 643, -2, 0, -4, -20, 9, 26, 795, 67,4
2025-02-19 11:30:15.465,746, -61, 640, -4, -2, -3, -18, 10, 29, 797, 67,4
2025-02-19 11:30:15.567,768, -52, 629, 0, -3, 0, -19, 8, 27, 820, 56,4
2025-02-19 11:30:15.678,759, -65, 625, -1, -3, 0, -20, 9, 26, 833, 72,4
2025-02-19 11:30:15.785,772, -53, 632, 2, -8, -4, -18, 10, 29, 832, 81,4
2025-02-19 11:30:15.892,788, -21, 614, -5, 7, -4, -16, 9, 28, 831, 85,4
2025-02-19 11:30:16.001,848, -28, 626, 1, -10, -7, -19, 9, 27, 855, 98,4
2025-02-19 11:30:16.108,758, -85, 666, 7, 4, -17, -18, 7, 29, 837, 102,4
2025-02-19 11:30:16.214,824, 20, 614, 4, -31, 27, -17, 9, 28, 793, 98,4
2025-02-19 11:30:16.318,823, -3, 605, 16, 2, 3, -18, 9, 27, 874, 96,4
2025-02-19 11:30:16.432,843, 121, 378, -35, -16, -14, -19, 8, 29, 849, 100,4
2025-02-19 11:30:16.539,845, 59, 502, 31, 15, 23, -18, 9, 30, 747, 100,4
2025-02-19 11:30:16.643,416, -243, 771, -9, 13, 10, -18, 13, 26, 813, 37,4
2025-02-19 11:30:17.460,769, -69, 630, -2, 0, -2, -17, 10, 28, 791, 71,5
2025-02-19 11:30:17.549,756, -65, 630, -3, 0, -2, -17, 10, 28, 784, 70,5
2025-02-19 11:30:17.667,766, -77, 628, -4, -1, -2, -18, 11, 28, 777, 71,5
2025-02-19 11:30:17.771,760, -78, 630, -4, -1, -3, -18, 8, 27, 775, 71,5
2025-02-19 11:30:17.882,761, -74, 623, -3, -2, -4, -18, 6, 27, 791, 73,5
2025-02-19 11:30:17.988,762, -64, 634, 6, -4, 0, -19, 11, 29, 851, 76,5
2025-02-19 11:30:18.095,761, -56, 633, 0, 0, -1, -18, 9, 25, 856, 74,5
2025-02-19 11:30:18.201,761, -64, 632, -4, 1, -5, -17, 9, 27, 851, 78,5
2025-02-19 11:30:18.312,731, -71, 630, -1, -1, -10, -19, 10, 29, 830, 91,5
2025-02-19 11:30:18.418,1035, 183, 594, 0, -34, 6, -18, 9, 27, 846, 97,5
2025-02-19 11:30:18.525,733, -28, 659, -7, 18, -20, -18, 7, 27, 845, 99,5
2025-02-19 11:30:18.631,688, 126, 734, -4, -15, 27, -17, 10, 29, 805, 99,5
2025-02-19 11:30:18.738,1372, -21, 492, 7, 63, 19, -19, 9, 27, 772, 87,5
2025-02-19 11:30:18.848,571, -34, 726, 24, -50, -9, -17, 11, 24, 805, 50,5
2025-02-19 11:30:19.764,758, -55, 635, -1, 0, 0, -19, 11, 28, 764, 70,6
2025-02-19 11:30:19.860,761, -64, 638, -1, -1, -1, -18, 9, 26, 764, 69,6
2025-02-19 11:30:19.967,747, -60, 634, -2, -1, -2, -18, 8, 28, 765, 71,6
2025-02-19 11:30:20.078,757, -59, 630, -2, -2, -2, -19, 9, 29, 770, 73,6
2025-02-19 11:30:20.179,790, -41, 622, -5, 0, 0, -18, 12, 28, 778, 74,6
2025-02-19 11:30:20.290,762, -33, 642, 1, -5, 1, -19, 11, 27, 829, 74,6
2025-02-19 11:30:20.397,765, -64, 627, -1, -1, -1, -18, 9, 29, 837, 76,6
2025-02-19 11:30:20.500,788, -45, 617, 5, -7, -1, -20, 10, 28, 847, 83,6
2025-02-19 11:30:20.610,779, -14, 581, -6, -3, -11, -19, 8, 29, 866, 98,6
2025-02-19 11:30:20.720,754, -222, 570, 41, 15, -19, -17, 8, 28, 789, 101,6
2025-02-19 11:30:20.831,722, -39, 733, -12, -23, 10, -17, 10, 29, 825, 98,6
2025-02-19 11:30:20.932,876, 78, 539, -26, 69, 46, -17, 11, 26, 807, 64,6
2025-02-19 11:30:21.849,766, -64, 645, -3, 0, -3, -18, 10, 27, 687, 58,7
2025-02-19 11:30:21.948,755, -67, 645, -2, -1, -1, -18, 10, 27, 710, 58,7
2025-02-19 11:30:22.056,747, -65, 647, -2, -2, -4, -18, 13, 28, 720, 60,7
2025-02-19 11:30:22.162,758, -72, 645, -3, -3, -3, -19, 10, 27, 735, 63,7
2025-02-19 11:30:22.272,754, -65, 640, -4, -2, -4, -19, 10, 28, 754, 64,7
2025-02-19 11:30:22.375,763, -46, 644, 3, -2, 0, -19, 13, 28, 812, 68,7
2025-02-19 11:30:22.486,767, -61, 624, 1, -4, -3, -17, 9, 28, 821, 72,7
2025-02-19 11:30:22.591,801, -21, 619, -11, 12, -6, -19, 10, 28, 810, 73,7
2025-02-19 11:30:22.699,674, -40, 611, 11, -35, -22, -18, 9, 28, 799, 91,7
2025-02-19 11:30:22.801,704, 27, 598, 8, -23, 31, -18, 8, 26, 875, 96,7
2025-02-19 11:30:22.909,864, 67, 521, 3, 0, 34, -17, 9, 28, 725, 100,7
2025-02-19 11:30:23.026,425, -244, 681, -22, 7, -34, -16, 11, 29, 788, 80,7
2025-02-19 11:30:23.129,625, 49, 530, 15, -31, 33, -18, 11, 29, 861, 96,7
2025-02-19 11:30:23.239,711, 13, 574, -65, 107, 19, -18, 11, 27, 801, 50,7
2025-02-19 11:30:24.449,770, -51, 622, -1, -8, 4, -18, 10, 28, 801, 73,8
2025-02-19 11:30:24.549,773, -67, 616, 3, -11, 5, -18, 12, 28, 818, 85,8
2025-02-19 11:30:24.661,755, -46, 599, -7, 11, -11, -19, 11, 28, 812, 102,8
2025-02-19 11:30:24.767,903, -100, 503, 23, 9, 27, -18, 9, 28, 712, 102,8
2025-02-19 11:30:24.874,622, -64, 646, 18, 8, -71, -19, 12, 28, 862, 101,8
2025-02-19 11:30:24.979,664, 5, 664, -17, -13, 6, -17, 8, 29, 865, 101,8
2025-02-19 11:30:25.086,995, -4, 447, 12, 23, 13, -17, 9, 29, 796, 99,8
2025-02-19 11:30:26.007,759, -63, 638, -3, -2, -4, -18, 12, 29, 669, 56,9
2025-02-19 11:30:26.102,762, -65, 642, -3, -3, -3, -18, 11, 29, 695, 59,9
2025-02-19 11:30:26.208,772, -73, 631, -3, -4, -4, -17, 10, 28, 747, 63,9
2025-02-19 11:30:26.319,770, -54, 625, -4, -3, -3, -19, 11, 29, 764, 66,9
2025-02-19 11:30:26.426,770, -83, 609, -1, -8, -7, -17, 10, 29, 783, 72,9
2025-02-19 11:30:26.532,771, -57, 623, -2, -2, 0, -18, 10, 29, 807, 77,9
2025-02-19 11:30:26.639,767, -47, 617, 1, -3, -2, -18, 11, 29, 834, 79,9
2025-02-19 11:30:26.745,802, -51, 606, 3, -5, -2, -18, 12, 28, 837, 90,9
2025-02-19 11:30:26.852,768, -24, 599, 2, -9, -4, -18, 9, 28, 853, 96,9
2025-02-19 11:30:26.960,798, -98, 633, -8, -1, -21, -18, 10, 31, 812, 104,9
2025-02-19 11:30:27.064,798, 133, 573, 4, -8, 28, -18, 8, 30, 753, 102,9
2025-02-19 11:30:27.175,795, -148, 595, 6, 2, -20, -18, 8, 28, 866, 102,9
2025-02-19 11:30:27.281,813, 9, 483, 5, 16, 18, -17, 11, 31, 762, 104,9
2025-02-19 11:30:27.391,532, -162, 763, -9, 37, 7, -17, 11, 25, 801, 42,9
