Timestamp,Acc_X,Acc_Y,Acc_Z,Gyro_X,Gyro_Y,Gyro_Z,Mag_X,Mag_Y,Mag_Z,Force,IR_A,Letter
2025-02-19 17:21:15.124,662, -77, 717, -7, 24, 9, -2, -2, 3, 450, 22,noise
2025-02-19 17:21:15.222,656, -72, 737, 22, -3, 11, -1, -2, 2, 393, 19,noise
2025-02-19 17:21:15.329,573, -105, 766, -9, -7, 1, -1, 1, 3, 216, 16,noise
2025-02-19 17:21:15.435,625, -103, 739, -11, -5, -11, -1, 0, 2, 68, 18,noise
2025-02-19 17:21:15.546,676, -91, 738, -13, -3, -2, -1, -1, 3, 110, 19,noise
2025-02-19 17:21:15.648,674, -112, 738, -14, 5, -1, -1, -1, 4, 0, 21,noise
2025-02-19 17:21:15.755,654, -108, 750, -20, -2, 2, -1, -3, 5, 1, 20,noise
2025-02-19 17:21:15.865,662, -155, 754, -5, -5, -2, -2, -2, 4, 0, 23,noise
2025-02-19 17:21:15.971,684, -144, 730, 5, -13, -4, -1, -2, 5, 5, 22,noise
2025-02-19 17:21:16.078,684, -125, 682, -6, -6, -1, -2, -2, 6, 147, 22,noise
2025-02-19 17:21:17.103,730, -127, 643, -24, -14, -22, -4, -2, 11, 686, 47,A
2025-02-19 17:21:17.196,747, -125, 647, -15, -10, -8, -5, -6, 11, 720, 58,A
2025-02-19 17:21:17.299,747, -129, 641, 1, -8, 0, -3, -5, 9, 753, 68,A
2025-02-19 17:21:17.409,762, -121, 615, -3, 2, -8, -5, -6, 11, 757, 74,A
2025-02-19 17:21:17.520,788, -120, 585, -6, -3, -16, -4, -6, 11, 765, 97,A
2025-02-19 17:21:17.622,1030, 292, 487, -5, -11, 46, -5, -7, 12, 4, 100,A
2025-02-19 17:21:17.733,772, -159, 631, -18, 20, -63, -5, -6, 12, 566, 94,A
2025-02-19 17:21:17.839,761, -146, 644, -9, -35, 64, -5, -5, 11, 682, 95,A
2025-02-19 17:21:17.946,898, -28, 644, 13, 50, -12, -4, -3, 12, 725, 92,A
2025-02-19 17:21:18.056,1070, 76, 553, 53, -27, -28, -4, -8, 11, 218, 95,A
2025-02-19 17:21:18.159,778, -5, 667, -12, 2, 33, -5, -6, 12, 831, 82,A
2025-02-19 17:21:18.979,741, -78, 650, 0, -10, -10, -3, -5, 9, 625, 63,B
2025-02-19 17:21:19.073,764, -60, 651, 0, -2, -4, -3, -6, 9, 640, 71,B
2025-02-19 17:21:19.183,800, -43, 535, -13, -6, -14, -4, -7, 9, 568, 96,B
2025-02-19 17:21:19.290,766, 221, 573, -6, -26, 74, -4, -5, 11, 520, 97,B
2025-02-19 17:21:19.399,686, -138, 521, -9, 15, -63, -5, -6, 10, 571, 80,B
2025-02-19 17:21:19.503,653, 14, 754, -8, -19, 23, -4, -6, 11, 752, 96,B
2025-02-19 17:21:19.613,884, -145, 452, 40, 22, -7, -4, -6, 11, 593, 97,B
2025-02-19 17:21:19.719,798, 43, 560, -16, -8, 32, -5, -6, 12, 480, 102,B
2025-02-19 17:21:19.826,651, -103, 515, -31, 69, 32, -3, -3, 8, 499, 43,B
2025-02-19 17:21:20.643,750, -104, 637, -1, -4, -6, -4, -5, 9, 637, 54,C
2025-02-19 17:21:20.739,753, -89, 634, -2, -3, -6, -4, -6, 11, 653, 58,C
2025-02-19 17:21:20.850,745, -86, 632, 10, -17, -5, -4, -4, 10, 723, 65,C
2025-02-19 17:21:20.956,773, -106, 621, -10, 4, -30, -6, -6, 11, 678, 92,C
2025-02-19 17:21:21.059,991, 171, 473, 22, -18, 76, -4, -7, 9, 205, 0,C
2025-02-19 17:21:21.169,721, -92, 699, 20, -7, 4, -3, -4, 11, 803, 93,C
2025-02-19 17:21:21.276,570, -189, 706, -27, 23, -1, -3, -3, 9, 713, 36,C
2025-02-19 17:21:22.091,750, -87, 646, -3, -3, -4, -3, -4, 8, 643, 56,D
2025-02-19 17:21:22.189,784, -68, 632, -3, 2, -2, -4, -5, 10, 634, 58,D
2025-02-19 17:21:22.300,684, -115, 670, -1, -11, -12, -4, -6, 9, 640, 58,D
2025-02-19 17:21:22.407,789, -37, 533, -16, 1, -20, -4, -8, 11, 526, 94,D
2025-02-19 17:21:22.512,786, 281, 532, -2, -14, 75, -5, -5, 11, 344, 94,D
2025-02-19 17:21:22.623,617, -305, 445, 13, -15, -59, -3, -6, 11, 616, 90,D
2025-02-19 17:21:22.726,647, -39, 772, 5, -20, 52, -4, -7, 10, 729, 90,D
2025-02-19 17:21:22.836,928, -113, 534, 42, 27, -16, -4, -4, 11, 258, 82,D
2025-02-19 17:21:22.939,465, -225, 737, -15, 9, 1, -2, -2, 6, 571, 31,D
2025-02-19 17:21:23.762,730, -119, 646, -3, -1, -1, -4, -6, 8, 486, 50,E
2025-02-19 17:21:23.856,737, -118, 648, 3, -3, -6, -5, -6, 9, 509, 53,E
2025-02-19 17:21:23.963,735, -98, 647, 5, -12, -10, -4, -5, 10, 579, 62,E
2025-02-19 17:21:24.069,749, -24, 630, -4, 1, -21, -5, -6, 11, 565, 76,E
2025-02-19 17:21:24.180,878, -266, 723, 22, -7, 37, -6, -8, 11, 446, 90,E
2025-02-19 17:21:24.286,804, 70, 621, -11, -10, -42, -4, -4, 10, 474, 92,E
2025-02-19 17:21:24.393,819, -121, 586, 69, 2, -27, -5, -8, 9, 471, 91,E
2025-02-19 17:21:24.499,638, -134, 736, -1, 0, 51, -3, -6, 11, 793, 0,E
2025-02-19 17:21:24.606,801, -214, 563, 71, 9, -10, -6, -7, 8, 225, 86,E
2025-02-19 17:21:24.717,619, -124, 809, -28, -4, 48, -4, -6, 10, 734, 90,E
2025-02-19 17:21:24.823,872, -135, 625, 94, -4, -3, -4, -4, 9, 458, 90,E
2025-02-19 17:21:24.929,1082, -11, 703, -33, 45, 26, -4, -4, 9, 766, 80,E
2025-02-19 17:21:25.036,554, -176, 711, 12, 5, -10, -2, -2, 8, 648, 30,E
2025-02-19 17:21:25.757,734, -77, 646, -1, -3, -3, -3, -7, 9, 478, 53,F
2025-02-19 17:21:25.850,750, -68, 646, -2, -9, -9, -5, -5, 9, 512, 62,F
2025-02-19 17:21:25.958,758, -70, 620, -5, -1, -9, -3, -6, 11, 509, 73,F
2025-02-19 17:21:26.068,806, -123, 747, -1, 3, -20, -6, -7, 10, 455, 92,F
2025-02-19 17:21:26.174,811, 267, 584, -4, -16, 58, -4, -7, 10, 174, 93,F
2025-02-19 17:21:26.281,635, -101, 561, -39, 40, -57, -4, -6, 11, 547, 74,F
2025-02-19 17:21:26.387,807, 119, 599, 7, -31, 23, -3, -8, 11, 714, 88,F
2025-02-19 17:21:26.494,511, 45, 563, -13, 47, 18, -3, -6, 11, 629, 68,F
2025-02-19 17:21:26.600,778, 117, 596, 13, -43, 19, -3, -7, 7, 669, 87,F
2025-02-19 17:21:26.711,903, 184, 584, -59, 89, 30, -4, -6, 10, 735, 60,F
2025-02-19 17:21:27.526,756, -52, 647, 8, -5, -2, -3, -6, 9, 669, 56,G
2025-02-19 17:21:27.624,765, -49, 639, -2, -5, -4, -4, -7, 10, 740, 61,G
2025-02-19 17:21:27.730,770, 59, 515, -7, -2, -9, -4, -8, 12, 766, 90,G
2025-02-19 17:21:27.837,914, 127, 549, 18, 3, 48, -4, -9, 7, 425, 89,G
2025-02-19 17:21:27.948,682, -84, 666, 12, -10, -28, -4, -5, 8, 764, 89,G
2025-02-19 17:21:28.054,814, 111, 584, -16, -9, 47, -3, -4, 11, 655, 90,G
2025-02-19 17:21:28.161,395, -247, 480, 5, 3, -58, -3, -7, 10, 670, 81,G
2025-02-19 17:21:28.267,748, 19, 656, 8, -21, 28, -3, -5, 10, 827, 89,G
2025-02-19 17:21:28.374,740, -76, 577, -30, 61, 18, -3, -4, 9, 770, 47,G
2025-02-19 17:21:29.292,757, -73, 646, 0, -1, -3, -4, -5, 9, 662, 51,H
2025-02-19 17:21:29.386,742, -66, 643, -3, 0, -8, -4, -5, 8, 627, 53,H
2025-02-19 17:21:29.496,684, -67, 626, 3, -14, -35, -4, -8, 9, 575, 69,H
2025-02-19 17:21:29.602,742, 83, 706, 3, -16, 63, -3, -7, 9, 605, 90,H
2025-02-19 17:21:29.713,745, -175, 576, -5, 19, -45, -4, -5, 10, 557, 89,H
2025-02-19 17:21:29.816,736, 78, 623, 14, -33, 32, -2, -7, 9, 742, 86,H
2025-02-19 17:21:29.927,456, -253, 661, -2, -30, -60, -4, -6, 9, 795, 74,H
2025-02-19 17:21:30.033,803, 71, 604, 2, -16, 102, -3, -6, 9, 620, 90,H
2025-02-19 17:21:30.140,683, -164, 573, -43, 80, 13, -2, -5, 8, 712, 44,H
2025-02-19 17:21:31.058,731, -88, 655, 2, -5, -6, -4, -5, 11, 591, 50,I
2025-02-19 17:21:31.150,764, -62, 652, 5, -3, -5, -5, -6, 8, 612, 57,I
2025-02-19 17:21:31.262,738, -44, 667, 6, -1, -10, -4, -5, 10, 584, 64,I
2025-02-19 17:21:31.368,929, -15, 691, 20, -6, -25, -4, -8, 10, 463, 91,I
2025-02-19 17:21:31.475,710, -29, 678, 3, -8, 13, -3, -8, 10, 800, 85,I
2025-02-19 17:21:31.585,1163, -93, 746, 22, 9, -31, -5, -9, 10, 672, 88,I
2025-02-19 17:21:31.687,773, 162, 590, -9, -3, 53, -4, -6, 9, 504, 90,I
2025-02-19 17:21:31.794,899, 35, 529, 13, 5, -8, -4, -6, 8, 85, 88,I
2025-02-19 17:21:31.904,694, 5, 658, 2, -14, 25, -3, -5, 10, 741, 89,I
2025-02-19 17:21:32.012,692, -129, 664, -24, 70, 11, -4, -3, 6, 623, 35,I
2025-02-19 17:21:32.929,735, -60, 658, 7, -8, -6, -5, -5, 8, 602, 52,J
2025-02-19 17:21:33.023,750, 3, 658, 1, 1, -11, -4, -5, 10, 579, 64,J
2025-02-19 17:21:33.137,886, -130, 359, 27, -2, -24, -6, -8, 10, 331, 86,J
2025-02-19 17:21:33.236,687, -48, 713, 8, -1, 2, -4, -7, 9, 825, 84,J
2025-02-19 17:21:33.346,890, -30, 568, 18, -6, 11, -4, -8, 10, 688, 86,J
2025-02-19 17:21:33.457,802, 95, 605, -46, -17, 32, -3, -5, 10, 433, 98,J
2025-02-19 17:21:33.563,770, 13, 561, -35, 58, 59, -4, -6, 11, 449, 50,J
2025-02-19 17:21:33.670,703, -121, 656, 12, -11, -20, -3, -3, 8, 501, 35,J
2025-02-19 17:21:34.685,723, -69, 665, 0, -4, -4, -4, -6, 9, 382, 49,K
2025-02-19 17:21:34.785,768, -39, 649, 5, -15, -12, -5, -6, 9, 400, 64,K
2025-02-19 17:21:34.895,805, -60, 561, -16, -5, -23, -5, -8, 10, 280, 90,K
2025-02-19 17:21:34.997,813, 218, 528, -3, -12, 58, -2, -7, 9, 164, 95,K
2025-02-19 17:21:35.107,454, -235, 633, 9, -34, -34, -5, -6, 9, 773, 74,K
2025-02-19 17:21:35.214,701, -36, 643, 1, 16, 24, -3, -7, 10, 659, 89,K
2025-02-19 17:21:35.321,766, 25, 661, -50, -64, 82, -3, -6, 10, 59, 91,K
2025-02-19 17:21:35.427,982, 61, 570, -12, 92, 15, -3, -5, 10, 496, 63,K
2025-02-19 17:21:36.345,742, -82, 650, 1, -2, -3, -5, -5, 7, 279, 50,L
2025-02-19 17:21:36.442,748, -83, 652, -1, -4, -8, -4, -6, 8, 332, 53,L
2025-02-19 17:21:36.549,764, -46, 646, 0, -6, -14, -4, -6, 10, 327, 64,L
2025-02-19 17:21:36.660,1570, -58, 623, 19, 9, -23, -4, -8, 10, 257, 90,L
2025-02-19 17:21:36.759,791, 133, 636, 5, -4, 54, -4, -7, 9, 0, 90,L
2025-02-19 17:21:36.873,788, -46, 575, 10, -39, 28, -3, -6, 11, 599, 90,L
2025-02-19 17:21:36.979,821, 29, 490, -52, 98, 43, -2, -3, 8, 689, 46,L
2025-02-19 17:21:37.090,650, -160, 685, 20, -27, -18, -3, -3, 7, 543, 31,L
2025-02-19 17:21:37.904,743, -67, 658, -1, -2, -4, -4, -5, 7, 553, 49,M
2025-02-19 17:21:38.003,817, -31, 641, -2, -16, -11, -5, -6, 10, 627, 67,M
2025-02-19 17:21:38.106,710, -42, 656, 0, 4, -16, -5, -5, 8, 647, 66,M
2025-02-19 17:21:38.215,736, -162, 522, -4, 3, -15, -4, -9, 8, 566, 88,M
2025-02-19 17:21:38.319,787, 164, 658, 6, 1, 30, -5, -6, 8, 431, 87,M
2025-02-19 17:21:38.429,772, -210, 625, -2, -8, -26, -5, -9, 9, 657, 86,M
2025-02-19 17:21:38.536,851, 148, 586, -7, -17, 8, -5, -6, 11, 762, 88,M
2025-02-19 17:21:38.646,777, -125, 667, 3, -14, 61, -5, -6, 11, 778, 86,M
2025-02-19 17:21:38.749,928, 0, 602, -26, 91, 20, -4, -4, 9, 762, 58,M
2025-02-19 17:21:39.671,748, -67, 647, 4, -7, -5, -3, -6, 10, 546, 51,N
2025-02-19 17:21:39.764,740, -56, 654, -1, 1, -5, -5, -6, 9, 476, 54,N
2025-02-19 17:21:39.871,704, -49, 654, 6, -11, -26, -4, -7, 9, 418, 64,N
2025-02-19 17:21:39.978,796, -239, 758, 8, -1, 42, -4, -8, 8, 407, 87,N
2025-02-19 17:21:40.088,707, 153, 550, 13, 8, -67, -3, -5, 9, 574, 88,N
2025-02-19 17:21:40.195,859, -129, 606, 13, -8, -8, -5, -8, 9, 594, 87,N
2025-02-19 17:21:40.305,871, 122, 703, -15, -15, 15, -3, -5, 11, 520, 94,N
2025-02-19 17:21:40.408,1130, 31, 642, -10, 55, 41, -5, -7, 9, 781, 72,N
2025-02-19 17:21:40.518,641, -124, 669, -1, -9, -4, -3, -5, 8, 647, 35,N
2025-02-19 17:21:40.621,790, -49, 637, -9, 4, -3, -3, -5, 9, 546, 41,N
2025-02-19 17:21:40.731,703, -89, 679, -1, -3, -2, -4, -6, 8, 511, 39,N
2025-02-19 17:21:40.838,738, -82, 665, -2, -2, 0, -5, -5, 7, 502, 40,N
2025-02-19 17:21:40.940,737, -90, 666, -6, 3, 0, -4, -5, 8, 497, 40,N
2025-02-19 17:21:41.050,733, -90, 669, -6, 0, -2, -2, -5, 9, 470, 40,N
2025-02-19 17:21:41.161,727, -92, 666, -2, -1, -1, -3, -6, 10, 461, 39,N
2025-02-19 17:21:41.264,726, -97, 665, 0, -1, 0, -2, -5, 8, 479, 39,N
2025-02-19 17:21:41.374,730, -92, 666, -1, -2, -1, -3, -5, 8, 485, 40,N
2025-02-19 17:21:41.481,737, -95, 669, -2, -1, -1, -5, -5, 8, 513, 41,N
2025-02-19 17:21:41.587,735, -93, 672, -1, -1, 0, -5, -6, 8, 523, 40,N
2025-02-19 17:21:41.694,732, -98, 667, -1, -1, -1, -5, -6, 8, 524, 41,N
2025-02-19 17:21:44.712,714, -116, 688, -2, 0, 0, -3, -5, 9, 394, 32,O
2025-02-19 17:21:44.811,707, -115, 688, -1, -1, -1, -2, -4, 6, 395, 31,O
2025-02-19 17:21:44.917,716, -120, 691, -1, -1, -1, -3, -5, 7, 395, 31,O
2025-02-19 17:21:45.024,710, -119, 690, -2, -1, -1, -3, -4, 8, 387, 32,O
2025-02-19 17:21:45.130,708, -115, 688, -2, -3, -2, -4, -4, 8, 390, 32,O
2025-02-19 17:21:45.237,713, -113, 678, -3, -4, 0, -4, -4, 8, 453, 35,O
2025-02-19 17:21:45.343,705, -112, 677, 0, -5, 1, -2, -5, 8, 561, 35,O
2025-02-19 17:21:45.454,713, -102, 665, 4, -14, -1, -4, -5, 8, 634, 40,O
2025-02-19 17:21:45.559,811, -61, 617, 6, -18, -8, -3, -5, 10, 628, 58,O
2025-02-19 17:21:45.665,717, -96, 637, 3, -11, 0, -4, -5, 10, 699, 62,O
2025-02-19 17:21:45.773,786, -54, 605, -3, -6, -10, -6, -5, 9, 744, 79,O
2025-02-19 17:21:45.884,750, -126, 645, -2, 3, -32, -4, -9, 11, 662, 91,O
2025-02-19 17:21:45.990,830, 342, 536, -27, -35, 86, -4, -4, 10, 425, 90,O
2025-02-19 17:21:46.097,749, -212, 474, -1, 11, -66, -5, -5, 11, 736, 93,O
2025-02-19 17:21:46.203,785, 17, 636, -47, 58, 65, -2, -6, 8, 580, 42,O
2025-02-19 17:21:47.223,741, -86, 639, 0, -5, -3, -5, -5, 10, 514, 54,P
2025-02-19 17:21:47.317,759, -75, 635, 4, -6, -7, -3, -6, 10, 549, 62,P
2025-02-19 17:21:47.423,709, -50, 639, 7, -6, -22, -4, -8, 10, 601, 73,P
2025-02-19 17:21:47.531,817, -375, 692, 37, 0, 38, -6, -7, 12, 557, 89,P
2025-02-19 17:21:47.637,723, 51, 532, 19, 4, -69, -4, -5, 10, 630, 92,P
2025-02-19 17:21:47.748,669, -91, 765, -13, -26, -3, -4, -8, 10, 794, 86,P
2025-02-19 17:21:47.849,911, 59, 462, 16, 26, 20, -4, -6, 9, 637, 90,P
2025-02-19 17:21:47.960,450, -196, 786, -25, 16, 12, -2, -3, 6, 597, 32,P
2025-02-19 17:21:48.780,741, -90, 654, -1, -1, -1, -3, -6, 9, 513, 52,Q
2025-02-19 17:21:48.873,746, -82, 654, -2, -1, -1, -3, -5, 7, 533, 52,Q
2025-02-19 17:21:48.980,732, -79, 649, 1, -7, -3, -5, -6, 9, 552, 54,Q
2025-02-19 17:21:49.087,755, -67, 636, -3, -1, -1, -4, -5, 9, 586, 59,Q
2025-02-19 17:21:49.197,754, -69, 641, -1, -1, -2, -4, -5, 10, 594, 60,Q
2025-02-19 17:21:49.304,737, -88, 650, 5, -6, -4, -4, -5, 10, 610, 62,Q
2025-02-19 17:21:49.410,713, -55, 628, 7, -17, -12, -3, -6, 8, 685, 77,Q
2025-02-19 17:21:49.517,766, -44, 636, 2, 1, -7, -3, -7, 11, 646, 90,Q
2025-02-19 17:21:49.624,754, -9, 632, -1, 2, -13, -4, -6, 12, 564, 90,Q
2025-02-19 17:21:49.734,985, 192, 505, 16, -25, 101, -4, -8, 9, 546, 85,Q
2025-02-19 17:21:49.840,739, -207, 567, -1, 1, -50, -4, -6, 11, 780, 89,Q
2025-02-19 17:21:49.947,563, 34, 654, -9, -6, 25, -4, -5, 11, 605, 70,Q
2025-02-19 17:21:50.053,980, -25, 679, -9, -42, 35, -4, -8, 9, 652, 87,Q
2025-02-19 17:21:50.164,1042, -13, 592, 0, 52, 18, -5, -4, 12, 711, 81,Q
2025-02-19 17:21:50.270,539, -201, 701, -2, -2, -13, -3, -3, 8, 374, 31,Q
2025-02-19 17:21:51.188,724, -109, 659, 0, -1, -3, -3, -4, 9, 514, 38,R
2025-02-19 17:21:51.286,722, -116, 663, -1, -7, -8, -5, -4, 11, 530, 40,R
2025-02-19 17:21:51.392,763, -83, 648, 11, -16, -14, -3, -7, 10, 559, 54,R
2025-02-19 17:21:51.499,698, -95, 626, 14, -27, -40, -4, -7, 8, 502, 85,R
2025-02-19 17:21:51.601,775, 94, 698, 9, -23, 84, -5, -7, 9, 440, 90,R
2025-02-19 17:21:51.712,713, -215, 604, 7, 18, -61, -5, -6, 9, 608, 87,R
2025-02-19 17:21:51.819,692, 27, 712, -14, -20, 37, -4, -7, 9, 669, 88,R
2025-02-19 17:21:51.925,961, -86, 604, 15, 5, 2, -4, -6, 10, 500, 89,R
2025-02-19 17:21:52.032,1080, -41, 562, 7, 45, 8, -4, -4, 12, 570, 85,R
2025-02-19 17:21:52.142,556, -191, 711, 4, -1, -14, -3, -2, 7, 476, 33,R
2025-02-19 17:21:52.863,738, -115, 636, -4, -9, -6, -4, -6, 9, 616, 60,S
2025-02-19 17:21:52.957,751, -87, 625, 5, -10, -4, -5, -6, 10, 685, 73,S
2025-02-19 17:21:53.064,936, -125, 662, 7, -3, -8, -5, -7, 11, 745, 92,S
2025-02-19 17:21:53.175,730, -167, 626, 23, 16, -23, -5, -6, 10, 474, 96,S
2025-02-19 17:21:53.277,742, 16, 652, 15, -24, 46, -5, -5, 10, 656, 90,S
2025-02-19 17:21:53.383,755, -10, 534, 6, 37, -5, -4, -4, 11, 263, 95,S
2025-02-19 17:21:53.493,627, -128, 688, -30, 62, 33, -2, -4, 7, 185, 35,S
2025-02-19 17:21:54.416,720, -103, 659, 10, -4, -2, -5, -6, 10, 507, 66,T
2025-02-19 17:21:54.506,748, -60, 656, 13, 4, -3, -4, -6, 10, 480, 75,T
2025-02-19 17:21:54.612,868, 36, 647, 6, 0, -19, -5, -7, 11, 0, 91,T
2025-02-19 17:21:54.723,694, -26, 703, -12, -33, 12, -4, -6, 9, 792, 88,T
2025-02-19 17:21:54.829,749, 86, 632, -16, 39, -2, -4, -7, 8, 684, 73,T
2025-02-19 17:21:54.936,853, -133, 714, -17, -9, 27, -4, -6, 9, 542, 88,T
2025-02-19 17:21:55.042,811, -1, 610, 3, 5, 24, -5, -5, 10, 357, 94,T
2025-02-19 17:21:55.152,482, -213, 739, -30, 37, 10, -3, -3, 6, 510, 28,T
2025-02-19 17:21:57.668,726, -83, 664, 0, -3, -5, -5, -8, 7, 560, 64,U
2025-02-19 17:21:57.763,764, -45, 650, 0, -1, -7, -5, -5, 10, 532, 73,U
2025-02-19 17:21:57.872,754, -47, 585, -2, 2, -14, -5, -8, 10, 293, 91,U
2025-02-19 17:21:57.979,747, 212, 626, -8, -28, 52, -4, -6, 7, 527, 89,U
2025-02-19 17:21:58.086,736, -91, 605, 0, 11, -68, -4, -7, 10, 743, 88,U
2025-02-19 17:21:58.192,750, 116, 582, -7, -24, 84, -3, -6, 9, 642, 87,U
2025-02-19 17:21:58.303,874, -11, 544, -22, 87, 17, -4, -3, 10, 689, 53,U
2025-02-19 17:21:58.409,559, -222, 715, -5, 0, -15, -2, -4, 7, 497, 28,U
2025-02-19 17:21:59.228,725, -106, 670, -1, 0, -2, -4, -4, 8, 431, 52,V
2025-02-19 17:21:59.322,731, -109, 660, 1, -3, -2, -5, -5, 8, 456, 54,V
2025-02-19 17:21:59.429,745, -76, 649, 3, 1, -1, -4, -5, 10, 458, 55,V
2025-02-19 17:21:59.537,710, -92, 645, 2, -1, -16, -4, -6, 8, 357, 61,V
2025-02-19 17:21:59.646,616, -96, 665, 13, -18, -35, -5, -7, 8, 286, 78,V
2025-02-19 17:21:59.752,810, -183, 662, -21, -43, 88, -5, -8, 9, 555, 90,V
2025-02-19 17:21:59.858,799, -117, 504, 29, 5, -83, -4, -6, 11, 666, 92,V
2025-02-19 17:21:59.964,822, 0, 657, -10, 9, -3, -3, -7, 11, 804, 86,V
2025-02-19 17:22:00.076,581, -121, 688, -10, 12, 19, -3, -6, 8, 592, 40,V
2025-02-19 17:22:00.993,719, -64, 669, -5, -3, -5, -5, -6, 9, 406, 58,W
2025-02-19 17:22:01.088,747, -59, 660, 1, -3, -4, -4, -6, 7, 405, 66,W
2025-02-19 17:22:01.194,747, -71, 662, -9, -2, -6, -4, -7, 10, 406, 71,W
2025-02-19 17:22:01.301,740, -40, 664, -1, 2, -7, -5, -7, 9, 377, 73,W
2025-02-19 17:22:01.407,835, 33, 627, -14, -1, -12, -4, -8, 8, 0, 91,W
2025-02-19 17:22:01.518,606, 68, 665, -60, -52, 82, -5, -8, 9, 288, 93,W
2025-02-19 17:22:01.624,732, -135, 608, 43, 10, -51, -5, -6, 10, 633, 93,W
2025-02-19 17:22:01.735,819, 151, 598, -12, -33, 64, -5, -6, 10, 606, 94,W
2025-02-19 17:22:01.841,699, -261, 648, 34, 9, -16, -5, -7, 11, 841, 89,W
2025-02-19 17:22:01.948,578, -144, 707, -30, 30, 20, -5, -4, 9, 751, 42,W
2025-02-19 17:22:02.767,761, -72, 628, -1, -2, -2, -3, -5, 10, 700, 66,X
2025-02-19 17:22:02.861,754, -78, 629, 5, -4, -2, -4, -7, 10, 716, 68,X
2025-02-19 17:22:02.969,732, -66, 620, 3, -8, -5, -4, -5, 10, 747, 73,X
2025-02-19 17:22:03.074,769, -58, 622, 0, 0, -5, -3, -7, 10, 766, 92,X
2025-02-19 17:22:03.181,837, 102, 582, 6, 9, 40, -2, -6, 10, 163, 88,X
2025-02-19 17:22:03.287,877, 0, 718, 10, 53, -27, -3, -6, 10, 208, 78,X
2025-02-19 17:22:03.398,833, -228, 606, 42, 0, -27, -1, -8, 11, 102, 86,X
2025-02-19 17:22:03.500,758, 3, 607, 10, -8, 23, -5, -4, 11, 546, 99,X
2025-02-19 17:22:03.612,578, -230, 694, -16, 39, -6, -3, -3, 8, 477, 38,X
2025-02-19 17:22:04.628,746, -86, 652, 1, 0, -2, -4, -6, 9, 585, 59,Y
2025-02-19 17:22:04.724,747, -88, 653, 3, -1, -4, -4, -8, 8, 596, 60,Y
2025-02-19 17:22:04.831,754, -71, 650, 4, 0, -6, -3, -6, 10, 582, 68,Y
2025-02-19 17:22:04.938,726, -57, 642, -6, 0, -13, -5, -6, 10, 488, 77,Y
2025-02-19 17:22:05.049,870, -73, 698, -6, -39, 54, -4, -8, 10, 642, 91,Y
2025-02-19 17:22:05.155,931, 16, 623, -24, 51, -9, -3, -6, 11, 787, 71,Y
2025-02-19 17:22:05.261,814, -17, 534, -5, -1, 2, -3, -8, 11, 798, 88,Y
2025-02-19 17:22:05.368,702, -147, 699, 5, 13, 17, -4, -8, 13, 667, 91,Y
2025-02-19 17:22:05.474,809, -233, 636, 13, 0, 18, -6, -6, 10, 303, 88,Y
2025-02-19 17:22:05.585,1002, -27, 622, 0, 13, -4, -4, -4, 11, 257, 91,Y
2025-02-19 17:22:05.691,455, -246, 707, -8, 9, -14, -3, -2, 7, 519, 28,Y
2025-02-19 17:22:06.507,746, -98, 653, 2, -3, -2, -5, -6, 8, 622, 54,Z
2025-02-19 17:22:06.605,745, -83, 643, 6, -3, -1, -3, -6, 9, 654, 58,Z
2025-02-19 17:22:06.710,749, -77, 649, 7, -6, -7, -4, -6, 7, 672, 65,Z
2025-02-19 17:22:06.818,769, -68, 646, 1, 5, -5, -5, -7, 11, 615, 72,Z
2025-02-19 17:22:06.924,712, -67, 676, 6, 6, -3, -3, -7, 9, 566, 71,Z
2025-02-19 17:22:07.035,806, -155, 482, 64, 8, -16, -5, -9, 9, 319, 88,Z
2025-02-19 17:22:07.141,712, -43, 750, 18, -16, 10, -4, -8, 9, 826, 81,Z
2025-02-19 17:22:07.244,874, 99, 523, 32, 9, -4, -4, -6, 9, 354, 87,Z
2025-02-19 17:22:07.354,720, 37, 665, 2, -10, 19, -2, -5, 10, 751, 87,Z
2025-02-19 17:22:07.465,555, -166, 695, -40, 66, 22, -2, -2, 7, 600, 30,Z
2025-02-19 17:22:08.682,722, -41, 676, 0, -2, -2, -3, -3, 8, 301, 0,a
2025-02-19 17:22:08.775,729, -45, 670, 1, -1, -1, -3, -4, 6, 317, 0,a
2025-02-19 17:22:08.882,723, -41, 671, -7, 1, -2, -2, -5, 6, 364, 0,a
2025-02-19 17:22:08.989,730, -53, 676, -13, -1, -3, -3, -5, 7, 371, 0,a
2025-02-19 17:22:09.098,725, -61, 675, -11, -2, -1, -2, -6, 7, 458, 42,a
2025-02-19 17:22:09.206,729, -78, 666, -12, -4, -3, -4, -5, 7, 504, 46,a
2025-02-19 17:22:09.312,719, -69, 666, 0, -6, -2, -4, -6, 8, 663, 49,a
2025-02-19 17:22:09.419,735, -85, 672, 0, -4, 3, -5, -4, 7, 755, 52,a
2025-02-19 17:22:09.525,766, -102, 653, -9, 1, 5, -4, -5, 9, 755, 51,a
2025-02-19 17:22:09.631,732, -114, 670, -5, -6, 1, -3, -5, 9, 705, 50,a
2025-02-19 17:22:09.738,790, -77, 626, 6, -8, 3, -4, -6, 9, 712, 64,a
2025-02-19 17:22:09.849,711, -108, 656, 5, -6, -2, -3, -6, 9, 752, 65,a
2025-02-19 17:22:09.951,732, -96, 644, 3, 1, 4, -4, -4, 9, 727, 65,a
2025-02-19 17:22:10.065,825, -9, 809, -12, -3, -20, -3, -5, 10, 730, 93,a
2025-02-19 17:22:10.168,927, 49, 591, 19, 1, 38, -4, -6, 10, 418, 90,a
2025-02-19 17:22:10.279,682, -278, 653, 3, 2, -44, -3, -5, 11, 732, 94,a
2025-02-19 17:22:10.385,910, 107, 610, -17, -8, 36, -6, -6, 10, 688, 93,a
2025-02-19 17:22:10.491,535, -243, 702, -21, 34, -7, -3, -3, 7, 648, 32,a
2025-02-19 17:22:12.511,705, -84, 647, 5, -14, -13, -4, -8, 10, 715, 80,b
2025-02-19 17:22:12.605,754, -34, 646, 0, -1, -2, -4, -7, 12, 694, 89,b
2025-02-19 17:22:12.712,760, -13, 642, 0, -1, -3, -4, -9, 11, 687, 89,b
2025-02-19 17:22:12.822,759, -133, 625, 6, -3, -20, -5, -8, 10, 666, 89,b
2025-02-19 17:22:12.925,806, 40, 584, 3, -5, 38, -5, -7, 9, 312, 93,b
2025-02-19 17:22:13.035,850, -176, 487, 19, 6, -27, -4, -6, 10, 617, 89,b
2025-02-19 17:22:13.142,616, -12, 751, -11, -8, 59, -3, -5, 11, 682, 93,b
2025-02-19 17:22:13.248,914, -27, 581, -47, 85, 43, -4, -5, 9, 626, 52,b
2025-02-19 17:22:13.358,606, -148, 683, 10, -30, -17, -2, -3, 7, 602, 33,b
2025-02-19 17:22:13.461,748, -79, 640, -12, 2, -3, -4, -4, 7, 530, 46,b
2025-02-19 17:22:13.571,756, -96, 648, -4, -1, -2, -4, -5, 9, 493, 48,b
2025-02-19 17:22:13.678,742, -89, 658, -8, 4, -4, -4, -5, 9, 474, 45,b
2025-02-19 17:22:13.784,743, -99, 651, -5, 0, -3, -3, -4, 7, 458, 45,b
2025-02-19 17:22:13.890,741, -92, 657, -2, 0, -2, -4, -4, 8, 468, 45,b
2025-02-19 17:22:14.911,740, -114, 657, 1, -6, -4, -4, -5, 9, 511, 45,c
2025-02-19 17:22:15.006,750, -79, 649, 0, -12, -7, -3, -6, 10, 562, 56,c
2025-02-19 17:22:15.112,803, -48, 629, -7, 8, -5, -4, -5, 9, 618, 58,c
2025-02-19 17:22:15.222,750, -46, 624, 2, -8, -13, -5, -6, 9, 682, 59,c
2025-02-19 17:22:15.329,730, -40, 631, 13, -21, -9, -4, -7, 9, 816, 73,c
2025-02-19 17:22:15.435,735, -134, 652, -7, 3, -33, -5, -8, 11, 722, 93,c
2025-02-19 17:22:15.542,821, 154, 566, 7, -19, 42, -2, -6, 10, 752, 80,c
2025-02-19 17:22:15.652,739, -25, 615, -42, 71, 30, -4, -5, 8, 797, 40,c
2025-02-19 17:22:15.755,704, -93, 663, 2, -21, -8, -3, -5, 7, 674, 29,c
2025-02-19 17:22:16.579,736, -75, 654, -1, -1, 0, -3, -5, 10, 587, 47,d
2025-02-19 17:22:16.668,747, -84, 647, -2, -2, 0, -5, -6, 9, 608, 50,d
2025-02-19 17:22:16.779,792, -65, 624, 4, -6, -1, -5, -5, 9, 628, 59,d
2025-02-19 17:22:16.885,815, 25, 802, 6, 5, -16, -4, -6, 10, 603, 80,d
2025-02-19 17:22:16.995,866, 103, 587, -11, -13, 54, -5, -6, 10, 414, 89,d
2025-02-19 17:22:17.103,647, -200, 663, 11, 4, -67, -6, -6, 9, 717, 78,d
2025-02-19 17:22:17.209,727, 72, 652, -27, -16, 97, -4, -6, 9, 304, 89,d
2025-02-19 17:22:17.315,815, -50, 560, -33, 106, 27, -3, -5, 8, 605, 47,d
2025-02-19 17:22:18.135,722, -78, 654, -1, -2, -1, -4, -6, 8, 496, 51,e
2025-02-19 17:22:18.228,771, -72, 635, 0, -3, -2, -3, -5, 10, 509, 58,e
2025-02-19 17:22:18.336,722, -58, 668, 9, -1, -8, -4, -6, 8, 409, 66,e
2025-02-19 17:22:18.446,806, -114, 468, 8, 13, -14, -5, -7, 9, 174, 87,e
2025-02-19 17:22:18.553,686, -35, 694, -7, -6, -34, -4, -4, 10, 738, 88,e
2025-02-19 17:22:18.659,938, -26, 565, 15, -3, 54, -4, -8, 9, 553, 87,e
2025-02-19 17:22:18.765,829, -68, 714, 11, 2, 0, -3, -5, 11, 763, 81,e
2025-02-19 17:22:18.872,479, -205, 730, -18, 7, 8, -1, -3, 6, 547, 24,e
2025-02-19 17:22:19.692,755, -94, 632, 1, -5, -2, -4, -5, 9, 567, 62,f
2025-02-19 17:22:19.786,762, -62, 631, 0, 1, 4, -3, -5, 9, 586, 64,f
2025-02-19 17:22:19.896,750, -78, 630, -1, -6, 1, -5, -5, 11, 598, 67,f
2025-02-19 17:22:20.003,786, -48, 607, -2, -2, 0, -3, -6, 11, 599, 83,f
2025-02-19 17:22:20.109,787, -79, 607, 1, 0, -3, -4, -4, 12, 541, 83,f
2025-02-19 17:22:20.215,818, -142, 583, 2, 3, -51, -5, -7, 10, 635, 86,f
2025-02-19 17:22:20.326,724, -89, 702, -16, -5, 33, -5, -8, 9, 809, 84,f
2025-02-19 17:22:20.433,938, 219, 553, -14, -6, -10, -5, -8, 9, 552, 65,f
2025-02-19 17:22:20.534,688, -6, 665, 6, -9, 16, -3, -6, 9, 816, 83,f
2025-02-19 17:22:20.645,611, -110, 658, -37, 51, 16, -3, -4, 8, 708, 42,f
2025-02-19 17:22:20.752,801, -16, 634, 12, -22, -7, -3, -6, 7, 609, 49,f
2025-02-19 17:22:20.859,753, -23, 655, -3, -1, 3, -4, -6, 8, 590, 54,f
2025-02-19 17:22:20.966,754, -30, 653, -5, -1, 0, -4, -6, 9, 532, 54,f
2025-02-19 17:22:21.071,739, -28, 651, -3, -1, 1, -4, -5, 8, 451, 54,f
2025-02-19 17:22:21.178,747, -48, 650, -2, -1, 2, -4, -6, 9, 445, 54,f
2025-02-19 17:22:21.288,762, -23, 639, 1, -6, -3, -4, -7, 9, 453, 58,f
2025-02-19 17:22:21.396,750, -40, 640, -1, 0, 0, -3, -5, 10, 456, 58,f
2025-02-19 17:22:23.014,757, -43, 638, -1, -1, -1, -4, -6, 7, 384, 54,g
2025-02-19 17:22:23.111,757, -40, 642, -1, -1, -1, -4, -6, 10, 408, 55,g
2025-02-19 17:22:23.213,760, -45, 651, -3, -2, 0, -6, -5, 9, 427, 56,g
2025-02-19 17:22:23.324,762, -47, 644, -1, -4, 2, -4, -5, 8, 530, 58,g
2025-02-19 17:22:23.430,799, -10, 635, 7, -7, 8, -5, -6, 10, 692, 62,g
2025-02-19 17:22:23.537,755, -50, 637, 1, -5, 0, -4, -7, 9, 731, 62,g
2025-02-19 17:22:23.644,785, -65, 610, 0, -7, -1, -3, -7, 11, 725, 71,g
2025-02-19 17:22:23.754,707, -58, 617, 5, -13, -6, -3, -6, 9, 759, 80,g
2025-02-19 17:22:23.860,722, -152, 601, -16, 8, -36, -4, -8, 10, 565, 90,g
2025-02-19 17:22:23.967,748, 29, 654, -8, -13, -3, -4, -6, 10, 727, 89,g
2025-02-19 17:22:24.073,814, -82, 741, 0, -8, 49, -5, -7, 9, 746, 86,g
2025-02-19 17:22:24.184,818, -118, 486, 19, 42, -38, -3, -4, 10, 146, 94,g
2025-02-19 17:22:24.290,475, -171, 789, -19, 27, -5, -2, -2, 6, 562, 27,g
2025-02-19 17:22:25.208,653, -97, 646, 7, -14, -11, -4, -7, 8, 561, 53,h
2025-02-19 17:22:25.298,778, -24, 638, 0, 1, 0, -4, -7, 9, 594, 66,h
2025-02-19 17:22:25.409,753, -29, 654, -2, 2, -7, -5, -6, 8, 616, 65,h
2025-02-19 17:22:25.520,661, -26, 635, 2, -14, -29, -4, -7, 10, 631, 72,h
2025-02-19 17:22:25.626,818, -253, 803, 3, -8, 46, -4, -9, 9, 605, 87,h
2025-02-19 17:22:25.732,943, -27, 517, 0, -10, -24, -4, -5, 10, 527, 92,h
2025-02-19 17:22:25.843,720, 86, 637, -17, -18, 46, -2, -7, 10, 655, 91,h
2025-02-19 17:22:25.950,749, -56, 542, -19, 83, 23, -2, -3, 10, 700, 48,h
2025-02-19 17:22:26.863,740, -89, 658, 0, -2, 0, -3, -3, 8, 376, 48,i
2025-02-19 17:22:26.956,749, -80, 653, 5, -4, 0, -4, -5, 8, 387, 50,i
2025-02-19 17:22:27.068,750, -48, 646, 5, -5, -3, -4, -5, 8, 355, 57,i
2025-02-19 17:22:27.174,747, -51, 639, 0, -1, -3, -3, -5, 8, 367, 63,i
2025-02-19 17:22:27.284,783, -85, 481, -10, 7, -15, -4, -6, 9, 361, 89,i
2025-02-19 17:22:27.387,822, 98, 641, 5, 3, 26, -4, -7, 10, 305, 92,i
2025-02-19 17:22:27.501,412, -765, 1389, 31, -38, -38, -5, -7, 11, 457, 89,i
2025-02-19 17:22:27.605,1075, -42, 711, -9, 55, 32, -5, -9, 11, 635, 74,i
2025-02-19 17:22:27.710,523, -163, 719, 0, -3, 9, -4, -5, 7, 504, 32,i
2025-02-19 17:22:28.529,742, -79, 654, 0, -2, 0, -2, -6, 9, 457, 51,j
2025-02-19 17:22:28.624,732, -77, 654, 1, -2, 1, -4, -5, 8, 484, 51,j
2025-02-19 17:22:28.730,737, -87, 653, 5, -2, 1, -4, -6, 7, 480, 52,j
2025-02-19 17:22:28.837,740, -72, 658, 2, -3, 0, -4, -5, 8, 480, 54,j
2025-02-19 17:22:28.951,748, -135, 583, 32, -33, -23, -4, -6, 9, 527, 90,j
2025-02-19 17:22:29.055,753, 185, 649, -34, -26, 48, -4, -6, 9, 0, 98,j
2025-02-19 17:22:29.165,1160, -25, 509, -25, 84, -81, -3, -6, 9, 255, 72,j
2025-02-19 17:22:29.267,815, 82, 488, 9, 7, 25, -6, -9, 11, 563, 94,j
2025-02-19 17:22:29.377,680, -66, 656, -23, 45, 46, -5, -6, 10, 650, 44,j
2025-02-19 17:22:29.484,797, -77, 652, 14, -21, -12, -4, -5, 8, 586, 48,j
2025-02-19 17:22:30.201,763, -53, 640, 1, 0, -7, -5, -7, 9, 500, 66,k
2025-02-19 17:22:30.299,773, -24, 634, -1, -1, -5, -3, -8, 11, 536, 73,k
2025-02-19 17:22:30.406,693, -35, 632, 7, -18, -29, -3, -8, 11, 446, 88,k
2025-02-19 17:22:30.516,712, -145, 709, 23, -17, 73, -4, -11, 9, 438, 90,k
2025-02-19 17:22:30.619,795, 47, 498, 16, -6, -46, -4, -6, 9, 585, 92,k
2025-02-19 17:22:30.725,690, 12, 630, -11, -4, 4, -4, -8, 11, 689, 90,k
2025-02-19 17:22:30.835,901, -150, 533, 29, 10, -5, -5, -7, 9, 110, 89,k
2025-02-19 17:22:30.942,835, -70, 636, 10, 0, -3, -4, -5, 11, 566, 93,k
2025-02-19 17:22:31.052,518, -188, 717, -1, -3, -19, -3, -4, 9, 368, 39,k
2025-02-19 17:22:31.771,750, -53, 658, -1, 0, -6, -4, -6, 9, 451, 61,l
2025-02-19 17:22:31.864,745, -50, 650, 6, -12, -8, -3, -8, 9, 451, 71,l
2025-02-19 17:22:31.970,750, -8, 641, -7, 3, -19, -5, -8, 9, 386, 80,l
2025-02-19 17:22:32.077,734, -178, 654, 21, 4, -6, -4, -8, 8, 427, 91,l
2025-02-19 17:22:32.183,797, 94, 575, 10, 2, 21, -4, -6, 9, 128, 90,l
2025-02-19 17:22:32.294,546, -232, 737, -31, 46, 10, -4, -5, 8, 542, 37,l
2025-02-19 17:22:33.310,738, -71, 659, 0, -1, 0, -4, -6, 8, 259, 60,m
2025-02-19 17:22:33.404,754, -55, 648, 2, -2, 1, -4, -6, 9, 257, 65,m
2025-02-19 17:22:33.514,713, -48, 642, 7, -3, -10, -3, -7, 7, 170, 71,m
2025-02-19 17:22:33.621,759, -115, 630, -13, 3, -21, -5, -8, 8, 0, 90,m
2025-02-19 17:22:33.723,769, 60, 628, 11, 1, 17, -5, -5, 9, 0, 92,m
2025-02-19 17:22:33.838,718, -102, 733, -20, -17, -4, -5, -8, 8, 575, 88,m
2025-02-19 17:22:33.940,775, -60, 587, 10, 0, 20, -5, -6, 9, 403, 93,m
2025-02-19 17:22:34.051,700, 11, 704, -14, -19, 35, -3, -8, 11, 693, 89,m
2025-02-19 17:22:34.158,1003, -62, 543, -25, 82, 29, -3, -4, 8, 731, 59,m
2025-02-19 17:22:34.976,735, -45, 672, 0, -1, -1, -5, -6, 8, 385, 60,n
2025-02-19 17:22:35.071,737, -38, 667, -1, -1, -2, -4, -6, 7, 375, 63,n
2025-02-19 17:22:35.177,660, -65, 650, 3, -9, -10, -4, -7, 9, 379, 69,n
2025-02-19 17:22:35.288,765, -122, 725, -1, -1, 26, -4, -7, 9, 232, 87,n
2025-02-19 17:22:35.395,854, 80, 549, 16, -11, -41, -3, -7, 10, 409, 89,n
2025-02-19 17:22:35.502,707, -25, 728, -19, -19, 31, -6, -7, 9, 696, 85,n
2025-02-19 17:22:35.612,1167, -19, 740, -5, 88, 22, -3, -5, 10, 711, 66,n
2025-02-19 17:22:35.718,452, -224, 741, 1, -13, -8, -2, -3, 5, 640, 26,n
2025-02-19 17:22:36.533,737, -72, 637, 11, -5, 6, -4, -6, 9, 507, 64,o
2025-02-19 17:22:36.632,761, -26, 627, 17, -19, -6, -4, -7, 9, 622, 84,o
2025-02-19 17:22:36.739,702, -107, 669, 2, 8, -34, -3, -5, 8, 400, 87,o
2025-02-19 17:22:36.845,805, 181, 622, -29, -26, 32, -5, -6, 8, 546, 88,o
2025-02-19 17:22:36.951,846, 32, 574, 5, 21, -5, -3, -6, 8, 678, 84,o
2025-02-19 17:22:37.061,548, -121, 711, -28, 21, 23, -3, -4, 9, 571, 35,o
2025-02-19 17:22:37.979,719, -93, 672, 6, -8, -3, -3, -4, 8, 575, 54,p
2025-02-19 17:22:38.073,781, -38, 645, -2, -1, -2, -5, -5, 9, 583, 65,p
2025-02-19 17:22:38.180,755, -48, 645, 7, -19, -12, -3, -7, 9, 574, 83,p
2025-02-19 17:22:38.290,764, -19, 642, -2, -2, -1, -4, -5, 10, 550, 87,p
2025-02-19 17:22:38.396,761, -101, 634, -2, 0, -11, -4, -8, 9, 528, 87,p
2025-02-19 17:22:38.499,836, 129, 554, 8, -5, 24, -4, -5, 11, 0, 93,p
2025-02-19 17:22:38.610,801, -235, 636, 8, 2, -44, -4, -6, 9, 683, 85,p
2025-02-19 17:22:38.716,618, -25, 713, -3, 6, 56, -3, -6, 10, 678, 87,p
2025-02-19 17:22:38.823,794, 9, 523, -50, 89, 36, -3, -4, 9, 618, 44,p
2025-02-19 17:22:39.843,768, -46, 626, 2, -3, 0, -4, -6, 9, 634, 79,q
2025-02-19 17:22:39.937,860, -18, 648, 2, -3, -2, -3, -6, 10, 661, 86,q
2025-02-19 17:22:40.048,734, -103, 644, -6, 3, -23, -2, -6, 10, 531, 87,q
2025-02-19 17:22:40.150,762, -41, 647, 8, 2, -5, -4, -7, 10, 450, 86,q
2025-02-19 17:22:40.257,851, 41, 590, 2, -9, 30, -4, -6, 8, 127, 85,q
2025-02-19 17:22:40.371,710, -158, 677, -5, -2, -26, -4, -6, 10, 699, 85,q
2025-02-19 17:22:40.473,831, 80, 614, -19, -16, 55, -4, -4, 9, 0, 89,q
2025-02-19 17:22:40.584,788, -115, 608, 24, -10, -20, -4, -4, 11, 567, 90,q
2025-02-19 17:22:40.691,454, -207, 708, -44, 79, 36, -1, -2, 5, 598, 23,q
2025-02-19 17:22:41.608,782, -59, 657, -1, -5, -2, -3, -5, 9, 590, 63,r
2025-02-19 17:22:41.702,754, -84, 647, -4, -3, 0, -3, -6, 8, 594, 68,r
2025-02-19 17:22:41.809,726, -71, 647, 0, -2, -6, -5, -6, 9, 574, 70,r
2025-02-19 17:22:41.920,778, -47, 666, -12, -4, -15, -4, -7, 9, 537, 91,r
2025-02-19 17:22:42.027,753, 130, 607, -8, -19, 51, -5, -5, 9, 404, 92,r
2025-02-19 17:22:42.133,803, -161, 676, 2, 0, -50, -3, -6, 10, 662, 88,r
2025-02-19 17:22:42.239,866, 82, 561, -40, 61, 30, -5, -5, 9, 742, 62,r
2025-02-19 17:22:44.458,775, -49, 618, -2, 0, 0, -4, -7, 11, 726, 75,s
2025-02-19 17:22:44.554,775, -65, 623, -2, -2, 1, -4, -5, 9, 734, 75,s
2025-02-19 17:22:44.660,787, -44, 609, 0, -4, -2, -3, -5, 9, 753, 84,s
2025-02-19 17:22:44.766,781, -46, 610, -5, 3, -8, -3, -6, 10, 735, 88,s
2025-02-19 17:22:44.876,815, -62, 549, 15, 8, -11, -5, -7, 11, 543, 88,s
2025-02-19 17:22:44.983,726, 67, 700, 15, -14, 31, -4, -6, 10, 738, 89,s
2025-02-19 17:22:45.090,885, -110, 481, 2, 35, -16, -3, -4, 8, 480, 91,s
2025-02-19 17:22:45.200,486, -145, 758, -23, 33, 17, -3, -4, 7, 609, 31,s
2025-02-19 17:22:46.416,774, -68, 637, -1, -2, -4, -3, -5, 9, 657, 64,t
2025-02-19 17:22:46.510,769, -68, 634, -3, 0, -6, -4, -6, 9, 674, 65,t
2025-02-19 17:22:46.618,756, -69, 647, 1, -6, -7, -4, -6, 8, 690, 68,t
2025-02-19 17:22:46.727,777, -50, 635, -1, -2, -1, -5, -7, 10, 701, 77,t
2025-02-19 17:22:46.834,722, -34, 621, -9, -2, -16, -4, -6, 8, 694, 77,t
2025-02-19 17:22:46.940,777, -73, 619, 2, 1, -16, -4, -9, 10, 676, 91,t
2025-02-19 17:22:47.047,865, 208, 543, 38, -2, 35, -3, -6, 9, 558, 86,t
2025-02-19 17:22:47.153,461, -106, 620, 9, 22, -33, -5, -6, 7, 624, 68,t
2025-02-19 17:22:47.264,811, 117, 597, -27, -42, 25, -4, -8, 8, 640, 84,t
2025-02-19 17:22:47.366,961, 39, 683, -3, 40, 26, -2, -9, 9, 747, 79,t
2025-02-19 17:22:47.473,602, -116, 680, 0, -9, 0, -3, -6, 7, 521, 40,t
2025-02-19 17:22:48.297,739, -59, 645, -1, -1, -1, -4, -6, 9, 527, 54,u
2025-02-19 17:22:48.391,750, -58, 656, 1, -4, -1, -4, -6, 10, 537, 59,u
2025-02-19 17:22:48.497,758, -62, 642, 0, -3, -3, -4, -8, 9, 541, 66,u
2025-02-19 17:22:48.604,758, -57, 649, -1, 1, -3, -3, -8, 11, 502, 70,u
2025-02-19 17:22:48.714,708, -42, 634, 5, -11, -16, -4, -6, 8, 478, 83,u
2025-02-19 17:22:48.821,915, -160, 632, 18, -15, 51, -5, -10, 9, 445, 89,u
2025-02-19 17:22:48.927,684, -138, 668, 6, 4, -40, -4, -6, 10, 722, 89,u
2025-02-19 17:22:49.034,799, 137, 595, -4, -17, 49, -5, -6, 9, 696, 89,u
2025-02-19 17:22:49.140,645, -81, 582, -26, 80, 15, -4, -4, 7, 702, 42,u
2025-02-19 17:22:49.959,744, -63, 666, -2, 1, -1, -5, -6, 8, 509, 53,v
2025-02-19 17:22:50.054,740, -56, 656, -1, -1, 0, -3, -6, 8, 525, 55,v
2025-02-19 17:22:50.160,708, -65, 645, 3, -9, -7, -5, -7, 9, 504, 62,v
2025-02-19 17:22:50.271,1461, -111, 685, 27, 7, -19, -5, -8, 9, 296, 88,v
2025-02-19 17:22:50.382,742, 178, 685, -17, -35, 72, -4, -6, 9, 560, 89,v
2025-02-19 17:22:50.488,729, -332, 642, 23, 7, -41, -4, -5, 10, 749, 87,v
2025-02-19 17:22:50.594,718, -31, 645, -37, 48, 35, -4, -6, 9, 685, 47,v
2025-02-19 17:22:51.507,740, -80, 647, 2, -4, 1, -4, -5, 7, 570, 61,w
2025-02-19 17:22:51.606,750, -37, 660, 10, -1, -3, -5, -6, 9, 559, 68,w
2025-02-19 17:22:51.713,717, -20, 656, 13, 6, -9, -4, -6, 7, 469, 72,w
2025-02-19 17:22:51.819,763, -4, 630, 0, -1, -12, -5, -6, 8, 404, 85,w
2025-02-19 17:22:51.929,733, 182, 629, -8, -21, 47, -3, -6, 8, 645, 85,w
2025-02-19 17:22:52.036,747, -174, 657, -3, 0, -34, -3, -7, 9, 750, 85,w
2025-02-19 17:22:52.142,802, 216, 580, 0, -8, 26, -3, -5, 8, 716, 88,w
2025-02-19 17:22:52.249,1012, 14, 675, -1, 1, 35, -4, -6, 10, 824, 82,w
2025-02-19 17:22:52.360,554, -126, 704, -1, -3, -5, -3, -4, 6, 710, 32,w
2025-02-19 17:22:53.175,746, -50, 645, 4, -8, -2, -2, -5, 9, 519, 58,x
2025-02-19 17:22:53.273,763, -32, 625, 7, -3, -2, -2, -7, 10, 514, 65,x
2025-02-19 17:22:53.376,768, -74, 619, 6, -5, 1, -4, -6, 9, 597, 67,x
2025-02-19 17:22:53.486,775, 50, 582, -7, -7, -9, -2, -6, 11, 730, 87,x
2025-02-19 17:22:53.592,823, 91, 600, -4, 16, 27, -4, -6, 8, 394, 86,x
2025-02-19 17:22:53.703,435, -183, 602, 7, -30, -34, -3, -5, 9, 567, 80,x
2025-02-19 17:22:53.809,820, 54, 605, -6, -16, 43, -3, -7, 10, 498, 92,x
2025-02-19 17:22:53.916,663, -126, 655, -31, 70, 9, -3, -5, 8, 609, 36,x
2025-02-19 17:22:54.936,769, -31, 632, -1, -1, -1, -4, -6, 9, 548, 69,y
2025-02-19 17:22:55.030,756, -42, 646, 5, -10, -4, -4, -6, 11, 561, 76,y
2025-02-19 17:22:55.133,761, -12, 629, 1, 0, -1, -4, -6, 9, 558, 85,y
2025-02-19 17:22:55.243,803, -49, 665, -6, 3, -14, -5, -7, 9, 473, 89,y
2025-02-19 17:22:55.350,793, 193, 552, 7, -17, 36, -5, -8, 9, 385, 88,y
2025-02-19 17:22:55.460,544, -250, 610, 29, -16, -11, -4, -6, 8, 743, 76,y
2025-02-19 17:22:55.567,809, 147, 604, -18, -14, 61, -4, -5, 10, 178, 95,y
2025-02-19 17:22:55.673,815, -84, 444, -42, 74, 12, -4, -5, 8, 0, 51,y
2025-02-19 17:22:55.784,681, -121, 694, 19, -31, -21, -4, -5, 7, 571, 44,y
2025-02-19 17:22:56.799,758, -43, 643, -1, 0, -1, -5, -6, 9, 594, 65,z
2025-02-19 17:22:56.894,751, -50, 647, 0, 0, -1, -4, -6, 8, 581, 66,z
2025-02-19 17:22:57.001,749, -50, 666, 1, -3, -3, -5, -7, 9, 566, 67,z
2025-02-19 17:22:57.107,736, -51, 640, 1, -2, -4, -3, -7, 9, 463, 74,z
2025-02-19 17:22:57.217,884, -17, 588, 58, 5, -11, -3, -7, 8, 429, 84,z
2025-02-19 17:22:57.324,636, -56, 695, 11, 3, 34, -4, -6, 9, 721, 87,z
2025-02-19 17:22:57.430,854, 67, 589, -3, -42, 16, -3, -6, 8, 594, 88,z
2025-02-19 17:22:57.537,705, 28, 609, -5, 19, -9, -2, -4, 9, 713, 85,z
2025-02-19 17:22:57.648,2333, -305, 826, 26, 54, -26, -5, -7, 10, 538, 87,z
2025-02-19 17:22:57.750,668, -2, 697, 3, -12, 5, -3, -6, 12, 701, 91,z
2025-02-19 17:22:57.860,745, -10, 512, -36, 64, 23, -4, -6, 8, 671, 53,z
2025-02-19 17:22:57.967,750, -37, 641, 8, -15, -11, -3, -5, 8, 543, 43,z
2025-02-19 17:22:58.786,756, -31, 646, 0, -3, -1, -4, -8, 9, 445, 59,0
2025-02-19 17:22:58.881,762, -21, 643, 1, -4, 0, -4, -8, 10, 475, 63,0
2025-02-19 17:22:58.987,739, -1, 629, 1, -7, -5, -5, -7, 11, 568, 69,0
2025-02-19 17:22:59.093,744, -7, 659, 1, 7, -15, -4, -8, 11, 516, 89,0
2025-02-19 17:22:59.204,986, 104, 513, 7, -23, 79, -6, -9, 9, 330, 85,0
2025-02-19 17:22:59.310,643, -218, 730, 19, -4, -72, -4, -6, 9, 743, 91,0
2025-02-19 17:22:59.417,749, 56, 609, -49, 68, 42, -4, -7, 7, 624, 47,0
2025-02-19 17:23:00.236,745, -24, 642, 2, -1, -1, -4, -7, 8, 461, 63,1
2025-02-19 17:23:00.330,817, 28, 646, 13, 2, -2, -5, -7, 7, 424, 78,1
2025-02-19 17:23:00.437,786, 49, 580, -5, -2, -9, -4, -9, 9, 304, 88,1
2025-02-19 17:23:00.547,713, -50, 677, -4, -11, -9, -3, -9, 10, 711, 87,1
2025-02-19 17:23:00.654,730, 126, 669, 22, 1, 66, -2, -7, 10, 642, 86,1
2025-02-19 17:23:00.764,661, -88, 670, 13, 30, -10, -2, -6, 10, 534, 85,1
2025-02-19 17:23:00.871,1091, 79, 619, -2, -36, -12, -4, -6, 10, 351, 84,1
2025-02-19 17:23:00.973,761, 24, 630, 12, -2, 12, -3, -5, 11, 587, 89,1
2025-02-19 17:23:01.084,557, -147, 686, -27, 24, 4, -3, -3, 6, 397, 34,1
2025-02-19 17:23:01.899,791, 40, 648, 8, -2, -4, -4, -8, 9, 423, 79,2
2025-02-19 17:23:01.994,906, 15, 698, 5, 5, -16, -5, -9, 8, 284, 88,2
2025-02-19 17:23:02.104,729, 34, 661, 3, -23, 1, -4, -8, 8, 738, 84,2
2025-02-19 17:23:02.211,717, 166, 645, -1, 11, 38, -2, -9, 9, 683, 84,2
2025-02-19 17:23:02.321,1050, 93, 712, 20, -13, 24, -3, -7, 9, 510, 82,2
2025-02-19 17:23:02.424,771, 21, 664, 7, -6, 20, -3, -6, 10, 703, 85,2
2025-02-19 17:23:02.534,478, -162, 738, -31, 23, 6, -3, -3, 6, 307, 27,2
2025-02-19 17:23:03.353,805, 18, 626, -2, 6, -3, -5, -8, 10, 420, 74,3
2025-02-19 17:23:03.447,692, 10, 645, 13, -15, -22, -4, -8, 8, 352, 85,3
2025-02-19 17:23:03.558,830, 157, 659, 10, -29, 10, -5, -11, 11, 642, 85,3
2025-02-19 17:23:03.660,784, 135, 553, -2, 7, 15, -4, -8, 8, 622, 86,3
2025-02-19 17:23:03.767,653, 35, 765, -2, -7, 7, -1, -7, 9, 663, 84,3
2025-02-19 17:23:03.874,881, 38, 565, 2, 17, 16, -3, -6, 9, 347, 86,3
2025-02-19 17:23:03.985,380, -187, 735, -32, 22, -2, -3, -3, 5, 472, 27,3
2025-02-19 17:23:04.803,742, -11, 637, -1, -2, -3, -4, -8, 9, 560, 63,4
2025-02-19 17:23:04.898,735, -20, 641, -1, -3, -2, -5, -9, 8, 569, 66,4
2025-02-19 17:23:05.007,739, -16, 638, -1, -2, -4, -4, -8, 10, 591, 72,4
2025-02-19 17:23:05.115,728, -31, 659, -1, 0, -7, -6, -8, 12, 602, 87,4
2025-02-19 17:23:05.216,843, 110, 475, 26, 8, 2, -5, -8, 8, 0, 88,4
2025-02-19 17:23:05.327,774, 43, 676, 0, -4, 14, -4, -8, 10, 797, 86,4
2025-02-19 17:23:05.438,977, 59, 779, -25, -11, -30, -5, -10, 9, 746, 85,4
2025-02-19 17:23:05.541,804, 149, 556, 8, 2, 24, -5, -6, 10, 419, 91,4
2025-02-19 17:23:05.651,554, -190, 721, -36, 46, 12, -3, -3, 7, 562, 35,4
2025-02-19 17:23:06.568,734, -64, 653, 1, -3, -2, -3, -6, 9, 471, 61,5
2025-02-19 17:23:06.662,746, -54, 656, 2, 0, -1, -5, -7, 9, 498, 63,5
2025-02-19 17:23:06.770,786, -26, 643, 2, -3, -7, -4, -6, 9, 381, 73,5
2025-02-19 17:23:06.877,688, -37, 647, 2, -4, -9, -3, -9, 8, 334, 77,5
2025-02-19 17:23:06.987,922, 193, 637, 22, -30, -9, -4, -8, 9, 550, 88,5
2025-02-19 17:23:07.093,677, -15, 651, 5, 5, 19, -3, -9, 10, 759, 88,5
2025-02-19 17:23:07.199,811, -86, 605, 21, 10, 6, -3, -11, 9, 405, 89,5
2025-02-19 17:23:07.306,875, 12, 541, 7, -15, 22, -3, -8, 9, 665, 85,5
2025-02-19 17:23:07.416,730, 27, 637, -13, -5, 37, -4, -4, 10, 389, 91,5
2025-02-19 17:23:07.523,598, -22, 571, -48, 65, 26, -4, -5, 8, 527, 44,5
2025-02-19 17:23:08.640,734, -49, 649, -5, -3, -4, -4, -6, 7, 508, 52,6
2025-02-19 17:23:08.735,738, -45, 656, 6, -14, -6, -5, -7, 9, 619, 59,6
2025-02-19 17:23:08.845,1141, -50, 682, 8, 1, -14, -5, -7, 10, 710, 87,6
2025-02-19 17:23:08.952,782, -250, 659, 63, 23, 15, -5, -8, 10, 420, 87,6
2025-02-19 17:23:09.059,692, 44, 748, -20, -16, 2, -4, -5, 9, 637, 91,6
2025-02-19 17:23:09.165,1064, 42, 611, -11, 35, 10, -4, -7, 9, 575, 81,6
2025-02-19 17:23:09.271,566, -88, 714, -14, 4, 3, -2, -5, 6, 423, 35,6
2025-02-19 17:23:10.189,748, -5, 653, 4, -1, -5, -6, -9, 9, 500, 72,7
2025-02-19 17:23:10.283,797, 16, 614, -9, 1, -13, -3, -9, 9, 310, 92,7
2025-02-19 17:23:10.394,681, -15, 684, -3, -24, 22, -2, -9, 9, 819, 87,7
2025-02-19 17:23:10.505,834, 251, 507, -13, -1, 56, -4, -8, 11, 576, 90,7
2025-02-19 17:23:10.611,455, -142, 613, -18, 37, -35, -3, -7, 9, 439, 66,7
2025-02-19 17:23:10.718,844, 179, 584, -29, -54, 32, -2, -8, 9, 610, 89,7
2025-02-19 17:23:10.824,992, 83, 618, -14, 64, 15, -4, -7, 10, 685, 73,7
2025-02-19 17:23:10.930,716, -55, 662, 9, -18, -5, -4, -5, 9, 481, 47,7
2025-02-19 17:23:11.748,773, -45, 617, -1, -4, -1, -4, -6, 10, 431, 69,8
2025-02-19 17:23:11.843,822, -19, 635, 7, -9, -7, -4, -6, 10, 456, 89,8
2025-02-19 17:23:11.954,746, -102, 629, 5, 8, -19, -4, -7, 10, 335, 91,8
2025-02-19 17:23:12.058,833, 121, 577, 7, -26, 44, -3, -5, 8, 105, 93,8
2025-02-19 17:23:12.168,807, -82, 503, 3, 20, -79, -5, -6, 10, 656, 90,8
2025-02-19 17:23:12.275,670, 33, 722, 0, -12, -1, -3, -8, 10, 769, 89,8
2025-02-19 17:23:12.380,850, 78, 489, 4, 24, 24, -3, -7, 9, 547, 90,8
2025-02-19 17:23:12.491,500, -178, 745, -34, 35, 27, -3, -6, 7, 415, 29,8
2025-02-19 17:23:13.208,823, -17, 616, 5, -11, -7, -5, -7, 9, 546, 72,9
2025-02-19 17:23:13.303,767, -21, 624, 2, -5, -2, -5, -7, 11, 557, 73,9
2025-02-19 17:23:13.413,712, -11, 630, 4, -14, -14, -6, -7, 9, 630, 85,9
2025-02-19 17:23:13.520,816, -86, 566, 29, 20, -10, -4, -10, 10, 427, 90,9
2025-02-19 17:23:13.625,709, 20, 684, -1, -11, -18, -3, -7, 9, 750, 88,9
2025-02-19 17:23:13.732,706, 27, 693, 0, -10, 59, -4, -7, 10, 716, 87,9
2025-02-19 17:23:13.843,741, -111, 535, 29, 46, -34, -3, -5, 9, 366, 93,9
2025-02-19 17:23:13.949,555, -148, 767, -27, 22, 21, -2, -5, 7, 458, 31,9
