Timestamp,Acc_X,Acc_Y,Acc_Z,Gyro_X,Gyro_Y,Gyro_Z,Mag_X,Mag_Y,Mag_Z,Force,IR_A,Letter
2025-02-19 11:56:08.411,668, -67, 738, -4, 3, 0, 0, -1, 2, 748, 31,noise
2025-02-19 11:56:08.509,654, -73, 745, -4, 2, -3, 1, 0, 1, 747, 31,noise
2025-02-19 11:56:08.611,645, -72, 742, -3, 0, -3, 1, -1, 1, 749, 31,noise
2025-02-19 11:56:08.722,658, -78, 739, 1, -6, -2, 1, -1, 0, 743, 31,noise
2025-02-19 11:56:08.827,662, -72, 738, 1, -5, -1, 0, 0, 2, 735, 33,noise
2025-02-19 11:56:08.939,662, -81, 737, -8, -1, -3, 1, 0, 2, 732, 33,noise
2025-02-19 11:56:09.042,676, -68, 724, -7, -13, -8, -1, -4, 2, 747, 38,noise
2025-02-19 11:56:09.151,695, -54, 709, -3, 2, 3, -2, -2, 3, 750, 39,noise
2025-02-19 11:56:09.258,677, -98, 718, 3, -1, 5, -2, -1, 3, 748, 38,noise
2025-02-19 11:56:09.362,674, -80, 725, -2, 1, 1, 1, -4, 2, 751, 36,noise
2025-02-19 11:56:09.472,675, -94, 724, -1, 0, 0, -1, 0, 4, 750, 36,noise
2025-02-19 11:56:09.581,680, -79, 724, -1, 0, 0, -1, -1, 2, 750, 36,noise
2025-02-19 11:56:09.683,671, -85, 728, 0, 1, -1, 0, -2, 1, 748, 36,noise
2025-02-19 11:56:09.792,673, -84, 726, -1, -1, 0, 0, -3, 4, 749, 36,noise
2025-02-19 11:56:09.901,675, -85, 726, 0, -1, 0, 0, 0, 2, 748, 36,noise
2025-02-19 11:56:10.008,675, -86, 727, -1, 0, 0, 0, -2, 2, 749, 35,noise
2025-02-19 11:56:10.111,677, -84, 729, -1, -1, -1, -1, 0, 2, 749, 35,noise
2025-02-19 11:56:10.225,667, -82, 724, -1, -1, -1, 0, 0, 3, 747, 36,noise
2025-02-19 11:56:10.331,667, -79, 729, -1, 0, -1, 0, -3, 1, 750, 36,noise
2025-02-19 11:56:10.434,670, -80, 725, -1, -1, -1, 1, 0, 3, 748, 36,noise
2025-02-19 11:56:12.161,727, -163, 624, -13, -8, -18, -4, -7, 9, 796, 66,A
2025-02-19 11:56:12.257,752, -129, 604, -5, -6, -3, -4, -7, 10, 795, 75,A
2025-02-19 11:56:12.359,787, -170, 604, 0, -3, -7, -4, -8, 9, 811, 89,A
2025-02-19 11:56:12.470,786, -105, 609, -3, 6, -8, -3, -9, 10, 823, 95,A
2025-02-19 11:56:12.581,714, -181, 604, 7, -22, -30, -4, -10, 10, 847, 118,A
2025-02-19 11:56:12.684,701, -407, 674, 34, 6, 7, -4, -9, 10, 776, 124,A
2025-02-19 11:56:12.795,1077, -16, 578, -14, -11, 40, -4, -7, 11, 693, 116,A
2025-02-19 11:56:12.904,779, -400, 773, -21, -5, -13, -3, -10, 10, 823, 121,A
2025-02-19 11:56:13.007,852, 47, 569, 31, -15, 48, -3, -6, 11, 560, 120,A
2025-02-19 11:56:13.117,604, -216, 596, -38, 3, -55, -5, -8, 9, 742, 121,A
2025-02-19 11:56:13.224,862, -36, 562, 10, -33, 15, -4, -7, 11, 780, 120,A
2025-02-19 11:56:13.324,1006, 73, 599, -23, 80, 30, -2, -7, 11, 820, 88,A
2025-02-19 11:56:14.241,751, -113, 648, 3, -6, -5, -3, -6, 9, 782, 71,B
2025-02-19 11:56:14.341,776, -82, 632, 3, -6, -5, -3, -6, 9, 791, 83,B
2025-02-19 11:56:14.448,765, -102, 631, -3, -2, -5, -3, -6, 9, 799, 89,B
2025-02-19 11:56:14.551,736, -65, 640, -6, 2, -9, -3, -7, 9, 801, 93,B
2025-02-19 11:56:14.661,870, -30, 530, -10, -8, -19, -4, -8, 11, 782, 117,B
2025-02-19 11:56:14.772,833, 303, 546, 9, -19, 60, -3, -5, 11, 343, 113,B
2025-02-19 11:56:14.874,494, -180, 558, -46, 2, -63, -2, -8, 8, 794, 96,B
2025-02-19 11:56:14.983,722, -64, 679, -7, -10, 1, -3, -8, 9, 839, 110,B
2025-02-19 11:56:15.092,902, 168, 388, 6, 5, 5, -3, -8, 10, 770, 114,B
2025-02-19 11:56:15.201,658, -27, 688, 2, -12, 31, -3, -9, 9, 720, 113,B
2025-02-19 11:56:15.308,1208, 62, 607, -43, 88, 48, -6, -5, 7, 747, 77,B
2025-02-19 11:56:15.411,423, -292, 762, 11, -25, -18, -1, -3, 7, 711, 36,B
2025-02-19 11:56:16.331,762, -91, 621, -2, -1, -2, -3, -8, 9, 758, 91,C
2025-02-19 11:56:16.431,776, -71, 624, 0, -2, -2, -3, -7, 11, 767, 97,C
2025-02-19 11:56:16.537,770, -67, 613, -3, 0, -3, -5, -7, 10, 780, 99,C
2025-02-19 11:56:16.641,767, -78, 614, -4, -2, -6, -4, -7, 9, 795, 101,C
2025-02-19 11:56:16.754,780, -57, 604, -6, -8, -3, -5, -7, 11, 811, 115,C
2025-02-19 11:56:16.861,875, -64, 563, 44, 19, -7, -3, -9, 10, 681, 117,C
2025-02-19 11:56:16.967,790, 25, 666, 14, -21, 10, -3, -8, 9, 755, 108,C
2025-02-19 11:56:17.073,711, 13, 524, -60, 84, 42, -1, -5, 10, 784, 55,C
2025-02-19 11:56:17.181,710, -124, 665, 7, -22, -20, -2, -5, 7, 668, 46,C
2025-02-19 11:56:18.092,756, -79, 632, -2, 0, -6, -3, -8, 7, 727, 81,D
2025-02-19 11:56:18.192,753, -59, 645, 2, 2, -4, -4, -9, 9, 785, 86,D
2025-02-19 11:56:18.298,751, -78, 648, 4, 1, -4, -3, -7, 8, 806, 88,D
2025-02-19 11:56:18.404,745, -38, 645, 4, 0, -2, -4, -7, 8, 814, 93,D
2025-02-19 11:56:18.520,758, -119, 655, 10, -19, -22, -3, -8, 8, 802, 116,D
2025-02-19 11:56:18.626,572, 63, 604, 42, -23, 94, -2, -9, 10, 708, 107,D
2025-02-19 11:56:18.732,813, -179, 664, -21, 48, -49, -3, -7, 9, 797, 102,D
2025-02-19 11:56:18.839,732, 0, 635, -18, -23, 0, -3, -12, 9, 829, 110,D
2025-02-19 11:56:18.941,864, 193, 471, 2, 9, 34, -2, -7, 8, 590, 111,D
2025-02-19 11:56:19.055,507, -134, 601, -37, 48, 27, -3, -6, 7, 725, 53,D
2025-02-19 11:56:19.158,753, -87, 681, 9, -20, -12, -1, -4, 8, 751, 52,D
2025-02-19 11:56:20.072,759, -95, 647, -2, -1, -4, -2, -7, 7, 755, 78,E
2025-02-19 11:56:20.173,749, -79, 636, 2, -3, -7, -4, -7, 9, 762, 83,E
2025-02-19 11:56:20.281,755, -83, 640, 0, -1, -4, -4, -7, 8, 770, 88,E
2025-02-19 11:56:20.388,740, -61, 643, 2, -1, -13, -3, -9, 8, 783, 97,E
2025-02-19 11:56:20.497,785, -109, 549, -8, 1, -21, -4, -9, 9, 721, 116,E
2025-02-19 11:56:20.604,845, 301, 519, 10, -4, 33, -3, -7, 8, 440, 109,E
2025-02-19 11:56:20.713,466, -236, 653, -44, -13, -53, -2, -9, 7, 756, 93,E
2025-02-19 11:56:20.817,735, 52, 644, 7, -24, 19, -2, -11, 10, 832, 110,E
2025-02-19 11:56:20.924,672, -20, 735, 5, 49, 24, -1, -8, 8, 793, 105,E
2025-02-19 11:56:21.034,834, 213, 703, -7, -47, 6, -1, -11, 7, 755, 105,E
2025-02-19 11:56:21.139,679, -79, 756, 2, 36, 42, -2, -7, 10, 820, 105,E
2025-02-19 11:56:21.248,769, 183, 461, -18, -6, 1, -3, -7, 7, 717, 102,E
2025-02-19 11:56:21.341,758, 2, 735, 8, 4, 23, -2, -7, 9, 829, 104,E
2025-02-19 11:56:21.461,506, -159, 721, 0, -9, -7, -3, -3, 5, 745, 44,E
2025-02-19 11:56:22.372,750, -71, 645, -3, 2, -4, -3, -7, 9, 687, 73,F
2025-02-19 11:56:22.472,742, -63, 647, 0, 3, -2, -4, -8, 8, 758, 71,F
2025-02-19 11:56:22.581,734, -61, 652, 1, -1, -5, -4, -7, 9, 782, 72,F
2025-02-19 11:56:22.689,707, -71, 655, 10, -8, -6, -2, -8, 7, 789, 79,F
2025-02-19 11:56:22.795,788, 47, 613, -3, 6, -27, -2, -9, 8, 769, 108,F
2025-02-19 11:56:22.905,857, -178, 645, 27, -5, -13, -3, -10, 8, 787, 110,F
2025-02-19 11:56:23.012,980, 125, 641, 9, -6, 16, -1, -7, 8, 720, 107,F
2025-02-19 11:56:23.123,639, -158, 655, 2, -35, -37, -2, -10, 7, 797, 107,F
2025-02-19 11:56:23.225,982, 149, 590, 8, -48, -1, -2, -9, 7, 785, 110,F
2025-02-19 11:56:23.337,677, -46, 668, 12, 27, 38, -3, -10, 9, 850, 107,F
2025-02-19 11:56:23.438,752, 33, 660, 26, 8, -9, -4, -11, 6, 626, 103,F
2025-02-19 11:56:23.541,795, 49, 705, 7, 5, 17, -2, -7, 11, 840, 106,F
2025-02-19 11:56:23.652,554, -96, 711, -7, 3, 4, -2, -6, 6, 764, 46,F
2025-02-19 11:56:25.971,779, 12, 619, -1, -1, -1, -3, -10, 8, 832, 108,G
2025-02-19 11:56:26.061,773, 9, 618, -1, -1, -1, -4, -8, 10, 834, 107,G
2025-02-19 11:56:26.174,775, 15, 622, -1, 0, -1, -2, -9, 9, 830, 107,G
2025-02-19 11:56:26.281,777, 18, 621, -2, 0, 0, -3, -9, 10, 832, 108,G
2025-02-19 11:56:26.388,773, 9, 619, -1, 0, -1, -2, -9, 8, 831, 108,G
2025-02-19 11:56:26.498,777, 14, 619, 0, -1, 0, -3, -11, 10, 829, 108,G
2025-02-19 11:56:26.604,777, 17, 619, -1, -1, 0, -3, -9, 8, 831, 108,G
2025-02-19 11:56:26.711,776, 11, 618, -1, 0, -1, -3, -9, 9, 832, 107,G
2025-02-19 11:56:26.822,739, -14, 642, -3, -3, -6, -2, -10, 8, 828, 108,G
2025-02-19 11:56:26.928,870, 15, 562, 23, -6, 67, -3, -9, 7, 735, 104,G
2025-02-19 11:56:27.031,738, 44, 600, 9, -5, -40, -2, -6, 9, 828, 107,G
2025-02-19 11:56:27.142,820, 260, 547, -4, -9, 33, -1, -9, 8, 743, 107,G
2025-02-19 11:56:27.252,439, -167, 617, -16, -7, -48, -3, -6, 9, 788, 99,G
2025-02-19 11:56:27.354,823, 71, 614, 5, -26, 19, -1, -9, 9, 825, 109,G
2025-02-19 11:56:27.461,673, -79, 607, -49, 80, 25, -2, -7, 7, 773, 51,G
2025-02-19 11:56:28.581,759, -36, 642, -1, -1, -2, -3, -7, 9, 755, 72,H
2025-02-19 11:56:28.677,756, -30, 641, -2, 0, -3, -3, -7, 8, 773, 73,H
2025-02-19 11:56:28.784,755, -36, 645, -1, 0, -2, -1, -9, 7, 793, 73,H
2025-02-19 11:56:28.886,722, -15, 650, 3, 0, -3, -3, -7, 10, 804, 74,H
2025-02-19 11:56:29.001,731, 0, 636, 8, -17, -24, -3, -9, 10, 803, 101,H
2025-02-19 11:56:29.104,772, -120, 608, 11, 5, -31, -2, -10, 7, 772, 110,H
2025-02-19 11:56:29.214,780, 123, 610, 11, 11, 30, -4, -7, 8, 644, 106,H
2025-02-19 11:56:29.321,792, -169, 508, 15, 4, -17, -3, -8, 9, 734, 106,H
2025-02-19 11:56:29.431,840, 58, 678, -6, 37, -27, -2, -9, 8, 860, 105,H
2025-02-19 11:56:29.537,902, -35, 663, 10, -15, 20, -1, -10, 8, 821, 109,H
2025-02-19 11:56:29.643,819, 104, 610, 25, 13, 35, -3, -6, 10, 708, 108,H
2025-02-19 11:56:29.751,520, -183, 721, -20, 12, -7, -2, -6, 6, 783, 50,H
2025-02-19 11:56:30.661,762, -29, 630, -2, 0, -2, -2, -7, 9, 785, 86,I
2025-02-19 11:56:30.766,768, -31, 627, -2, -3, -3, -4, -8, 11, 785, 88,I
2025-02-19 11:56:30.871,760, -28, 629, 0, -1, -3, -3, -9, 8, 782, 92,I
2025-02-19 11:56:30.975,756, -7, 640, 6, 2, -6, -2, -9, 12, 789, 96,I
2025-02-19 11:56:31.089,908, 11, 645, 13, 9, -15, -3, -10, 10, 655, 112,I
2025-02-19 11:56:31.196,843, 329, 618, -29, -67, -8, -3, -11, 8, 729, 110,I
2025-02-19 11:56:31.303,657, -37, 656, 6, 35, 21, -2, -9, 10, 833, 107,I
2025-02-19 11:56:31.403,733, 15, 635, 6, -14, 39, -1, -8, 10, 765, 107,I
2025-02-19 11:56:31.515,562, 31, 537, -12, 41, 3, -2, -9, 7, 723, 88,I
2025-02-19 11:56:31.622,804, 59, 546, 10, -44, 4, -3, -7, 10, 720, 108,I
2025-02-19 11:56:31.731,811, 144, 576, -54, 83, 19, -2, -6, 9, 726, 74,I
2025-02-19 11:56:32.741,768, 1, 627, -1, -3, -5, -3, -8, 8, 757, 85,J
2025-02-19 11:56:32.843,762, 27, 620, 2, -3, -5, -2, -8, 9, 777, 96,J
2025-02-19 11:56:32.949,773, 28, 625, 0, 4, -3, -2, -11, 8, 789, 102,J
2025-02-19 11:56:33.054,768, 45, 615, 2, 1, -8, -2, -10, 10, 757, 109,J
2025-02-19 11:56:33.168,743, 280, 621, -9, -49, -10, -1, -10, 10, 808, 109,J
2025-02-19 11:56:33.271,703, 103, 677, -10, 34, -3, -2, -12, 10, 824, 101,J
2025-02-19 11:56:33.383,686, -19, 694, 18, -10, 54, -2, -12, 8, 770, 106,J
2025-02-19 11:56:33.486,920, -81, 539, 13, 46, -44, -1, -9, 9, 582, 110,J
2025-02-19 11:56:33.596,539, -51, 770, -24, 18, 33, 0, -6, 7, 719, 50,J
2025-02-19 11:56:33.702,763, -1, 648, -5, -10, -14, -2, -6, 5, 705, 50,J
2025-02-19 11:56:33.809,697, -39, 682, 6, -18, -9, -3, -9, 7, 667, 57,J
2025-02-19 11:56:33.916,775, -26, 642, -2, -5, -3, -2, -7, 8, 686, 72,J
2025-02-19 11:56:34.023,766, -12, 632, -3, -3, -4, -2, -8, 9, 721, 77,J
2025-02-19 11:56:34.131,749, -30, 646, -3, -3, -2, -2, -9, 8, 729, 79,J
2025-02-19 11:56:34.239,765, -13, 634, -2, 0, -1, -2, -10, 8, 731, 81,J
2025-02-19 11:56:34.346,755, -18, 632, -4, -1, -3, -2, -6, 8, 716, 81,J
2025-02-19 11:56:34.452,756, -32, 638, -3, -1, -2, -2, -8, 8, 718, 79,J
2025-02-19 11:56:34.558,738, -23, 640, -1, -2, 1, -2, -8, 7, 707, 77,J
2025-02-19 11:56:34.661,753, -25, 644, -2, -1, -1, -3, -7, 9, 709, 78,J
2025-02-19 11:56:34.772,752, -29, 639, -1, 0, 0, -1, -9, 10, 709, 78,J
2025-02-19 11:56:34.878,766, -26, 636, 0, 0, -1, -3, -7, 8, 674, 80,J
2025-02-19 11:56:36.403,761, -23, 636, 0, -1, -1, -5, -8, 10, 646, 84,K
2025-02-19 11:56:36.492,763, -26, 639, 0, -1, -1, -2, -7, 9, 651, 85,K
2025-02-19 11:56:36.602,756, -26, 632, 0, -2, -1, -3, -9, 7, 658, 87,K
2025-02-19 11:56:36.709,767, -26, 623, -1, -2, -2, -3, -8, 10, 665, 90,K
2025-02-19 11:56:36.815,786, -27, 622, 2, -2, 0, -3, -8, 9, 725, 91,K
2025-02-19 11:56:36.921,757, -23, 632, 0, -2, 0, -2, -7, 8, 754, 89,K
2025-02-19 11:56:37.032,779, -22, 632, 1, -4, -2, -3, -7, 11, 767, 93,K
2025-02-19 11:56:37.135,784, 3, 622, 2, -5, -6, -4, -8, 9, 781, 104,K
2025-02-19 11:56:37.245,757, 10, 635, -3, 4, -8, -3, -9, 9, 776, 104,K
2025-02-19 11:56:37.352,708, -22, 638, 4, -12, -11, -2, -9, 10, 767, 108,K
2025-02-19 11:56:37.463,761, -74, 672, -3, -3, -11, -1, -10, 9, 716, 110,K
2025-02-19 11:56:37.568,830, 355, 520, 0, -11, 41, 0, -9, 7, 210, 107,K
2025-02-19 11:56:37.679,457, -184, 639, -2, -43, -44, -3, -8, 9, 835, 105,K
2025-02-19 11:56:37.785,565, -134, 770, 17, 28, 23, -2, -11, 8, 745, 111,K
2025-02-19 11:56:37.893,670, 23, 687, -47, -46, 53, -1, -9, 8, 327, 107,K
2025-02-19 11:56:37.999,791, 48, 565, 41, 40, -22, -3, -7, 9, 683, 107,K
2025-02-19 11:56:38.106,558, -141, 719, -4, -13, -21, -2, -7, 7, 674, 53,K
2025-02-19 11:56:38.208,860, 27, 606, 1, -6, -3, -2, -8, 9, 707, 82,K
2025-02-19 11:56:38.318,779, -5, 630, -3, -4, -1, -1, -6, 9, 676, 83,K
2025-02-19 11:56:38.425,761, -22, 621, -1, -2, -4, -3, -8, 7, 667, 87,K
2025-02-19 11:56:38.532,755, -23, 627, -4, 0, -2, -2, -8, 7, 689, 86,K
2025-02-19 11:56:38.643,786, -16, 627, -1, -1, -1, -3, -7, 10, 701, 89,K
2025-02-19 11:56:38.745,780, -14, 629, -1, 0, 0, -3, -10, 7, 691, 89,K
2025-02-19 11:56:38.851,776, -18, 627, -2, 0, 0, -2, -7, 8, 676, 88,K
2025-02-19 11:56:38.961,777, -16, 623, -2, 0, -1, -2, -6, 10, 670, 89,K
2025-02-19 11:56:39.067,778, -18, 623, -1, -1, 0, -2, -8, 7, 649, 89,K
2025-02-19 11:56:39.171,770, -27, 622, -1, -2, -1, -2, -7, 8, 644, 90,K
2025-02-19 11:56:40.991,771, -23, 626, -2, -1, -1, -3, -9, 8, 655, 92,L
2025-02-19 11:56:41.091,771, -23, 618, -1, 0, -1, -2, -8, 10, 655, 92,L
2025-02-19 11:56:41.194,765, -33, 619, 0, 1, -5, -3, -9, 10, 679, 91,L
2025-02-19 11:56:41.301,772, -17, 627, 1, 4, -6, -2, -8, 10, 702, 92,L
2025-02-19 11:56:41.411,751, 5, 638, 4, -1, -7, -3, -10, 8, 737, 97,L
2025-02-19 11:56:41.522,800, -74, 668, 1, -7, -17, -3, -10, 7, 726, 114,L
2025-02-19 11:56:41.621,753, -142, 652, 26, 5, -31, -2, -11, 9, 677, 113,L
2025-02-19 11:56:41.731,893, 0, 594, 1, -29, 26, -1, -7, 8, 399, 105,L
2025-02-19 11:56:41.841,775, 25, 609, 14, 8, 15, -2, -6, 10, 802, 107,L
2025-02-19 11:56:41.947,624, -113, 675, -34, 37, 14, -1, -6, 6, 708, 52,L
2025-02-19 11:56:42.058,804, -45, 642, 10, -22, -11, -1, -6, 7, 708, 57,L
2025-02-19 11:56:43.074,754, -44, 646, -2, -1, -2, -3, -8, 8, 724, 75,M
2025-02-19 11:56:43.169,750, -32, 641, -2, -1, -2, -2, -8, 8, 735, 77,M
2025-02-19 11:56:43.275,757, -35, 643, -1, -1, -2, -2, -9, 8, 740, 79,M
2025-02-19 11:56:43.382,743, -36, 648, 2, -5, -7, -2, -7, 9, 746, 82,M
2025-02-19 11:56:43.483,760, 2, 625, 5, 0, -14, -1, -9, 10, 744, 98,M
2025-02-19 11:56:43.600,779, -47, 561, 1, 2, -21, -1, -10, 10, 675, 113,M
2025-02-19 11:56:43.702,804, 232, 562, 15, 5, 32, -2, -7, 10, 474, 106,M
2025-02-19 11:56:43.811,680, -39, 654, -21, -2, -40, -3, -10, 8, 773, 99,M
2025-02-19 11:56:43.917,766, 7, 630, 4, 3, -6, -2, -10, 9, 769, 110,M
2025-02-19 11:56:44.021,755, 159, 614, 8, -5, 15, -2, -8, 10, 676, 110,M
2025-02-19 11:56:44.133,679, -274, 691, 11, 5, -18, -1, -9, 10, 845, 112,M
2025-02-19 11:56:44.242,823, 156, 540, 10, -2, 29, -1, -7, 9, 585, 111,M
2025-02-19 11:56:44.351,628, -117, 662, -50, 59, 17, -3, -6, 8, 719, 54,M
2025-02-19 11:56:45.261,770, 2, 627, -2, -1, -2, -3, -7, 9, 747, 89,N
2025-02-19 11:56:45.355,774, 8, 622, 2, 0, -2, -2, -10, 7, 759, 91,N
2025-02-19 11:56:45.465,777, 17, 639, 14, -2, -4, -3, -8, 10, 791, 96,N
2025-02-19 11:56:45.576,735, 57, 634, 9, 5, -10, 0, -11, 8, 810, 101,N
2025-02-19 11:56:45.683,812, -19, 587, -10, 0, -18, 0, -11, 7, 791, 108,N
2025-02-19 11:56:45.792,832, 303, 523, 12, -2, 23, -2, -7, 9, 580, 104,N
2025-02-19 11:56:45.904,738, -106, 700, -3, -17, -27, -1, -11, 8, 829, 106,N
2025-02-19 11:56:46.011,672, 295, 617, 16, -23, 63, -2, -9, 8, 449, 108,N
2025-02-19 11:56:46.117,730, -317, 688, 2, 1, -32, -2, -9, 10, 830, 114,N
2025-02-19 11:56:46.221,658, 23, 614, -32, 59, 52, -2, -6, 7, 791, 62,N
2025-02-19 11:56:46.331,780, 17, 640, 12, -23, -8, -2, -6, 7, 660, 59,N
2025-02-19 11:56:46.433,755, -2, 643, -10, 4, 3, -2, -7, 7, 622, 61,N
2025-02-19 11:56:46.541,750, -16, 637, -8, 1, 1, -1, -6, 8, 558, 58,N
2025-02-19 11:56:46.650,762, -22, 642, -1, -1, -2, -2, -8, 7, 535, 60,N
2025-02-19 11:56:46.761,750, -26, 645, -2, -2, -2, -3, -6, 10, 528, 61,N
2025-02-19 11:56:46.866,737, -30, 644, -5, -1, -1, -3, -6, 10, 516, 62,N
2025-02-19 11:56:46.973,768, -24, 645, -4, -1, -1, -2, -7, 9, 495, 64,N
2025-02-19 11:56:47.079,750, -53, 648, 0, -2, -3, -1, -7, 11, 453, 64,N
2025-02-19 11:56:47.182,769, -31, 636, 0, -3, -1, -1, -7, 9, 463, 66,N
2025-02-19 11:56:47.292,751, -38, 642, 0, -2, -1, -2, -6, 9, 481, 68,N
2025-02-19 11:56:47.403,753, -29, 630, -2, -1, -1, -2, -6, 10, 466, 68,N
2025-02-19 11:56:47.506,770, -24, 634, -2, 0, 0, -3, -8, 7, 463, 68,N
2025-02-19 11:56:47.616,756, -37, 631, -2, -1, -1, -2, -6, 8, 458, 68,N
2025-02-19 11:56:47.719,762, -25, 628, -2, 0, 0, -2, -7, 8, 445, 68,N
2025-02-19 11:56:47.829,760, -29, 626, -1, -2, 0, -2, -8, 8, 451, 69,N
2025-02-19 11:56:49.042,765, -28, 633, -3, 0, -3, -2, -7, 8, 506, 73,O
2025-02-19 11:56:49.141,759, -28, 634, -3, 0, -5, -2, -7, 9, 541, 74,O
2025-02-19 11:56:49.248,754, -34, 645, -4, 0, -8, -3, -8, 9, 640, 75,O
2025-02-19 11:56:49.351,770, -19, 636, -2, -4, -7, -3, -7, 7, 678, 77,O
2025-02-19 11:56:49.464,788, 19, 622, 8, -11, -3, -3, -9, 8, 762, 89,O
2025-02-19 11:56:49.570,751, -14, 619, 4, -10, -7, -2, -10, 9, 809, 100,O
2025-02-19 11:56:49.681,768, -18, 638, 3, 3, -18, -3, -9, 9, 821, 112,O
2025-02-19 11:56:49.785,1013, 197, 512, 5, -27, 95, -2, -9, 10, 553, 105,O
2025-02-19 11:56:49.894,729, -32, 692, -3, -8, -67, -3, -8, 9, 832, 0,O
2025-02-19 11:56:50.004,762, 227, 520, -50, 79, 73, -1, -8, 9, 798, 63,O
2025-02-19 11:56:50.111,692, -63, 658, 15, -39, -17, -1, -7, 7, 760, 54,O
2025-02-19 11:56:51.121,755, -6, 640, 1, 0, -2, -3, -9, 8, 790, 78,P
2025-02-19 11:56:51.221,751, 0, 642, 2, -1, -1, -3, -9, 8, 799, 81,P
2025-02-19 11:56:51.328,763, 17, 642, 1, -1, -2, -2, -9, 7, 806, 87,P
2025-02-19 11:56:51.431,702, 24, 641, 5, -14, -16, -2, -10, 7, 806, 101,P
2025-02-19 11:56:51.541,795, -208, 666, 8, 7, 5, -5, -8, 7, 765, 109,P
2025-02-19 11:56:51.654,852, 72, 625, 16, -8, -28, -1, -9, 10, 761, 109,P
2025-02-19 11:56:51.761,868, -21, 624, -6, -14, -35, -4, -9, 8, 829, 107,P
2025-02-19 11:56:51.867,683, 21, 648, 18, 13, 43, -2, -9, 8, 783, 109,P
2025-02-19 11:56:51.970,568, -101, 625, -53, 64, 30, -2, -9, 5, 802, 53,P
2025-02-19 11:56:52.081,811, 10, 667, 22, -31, -12, -3, -5, 7, 811, 55,P
2025-02-19 11:56:52.187,696, -45, 688, -9, 1, -2, -3, -4, 8, 764, 56,P
2025-02-19 11:56:53.401,745, -35, 658, 2, -3, -1, -4, -10, 7, 750, 67,Q
2025-02-19 11:56:53.501,747, -21, 646, 3, -6, -2, -3, -7, 5, 767, 72,Q
2025-02-19 11:56:53.609,755, -11, 638, 1, -2, -1, -2, -5, 8, 779, 76,Q
2025-02-19 11:56:53.714,753, -21, 617, 5, -9, -1, -1, -8, 8, 801, 80,Q
2025-02-19 11:56:53.825,758, 10, 596, 4, 13, -30, -4, -10, 8, 784, 111,Q
2025-02-19 11:56:53.936,902, 321, 541, -21, -42, 120, -3, -8, 7, 555, 102,Q
2025-02-19 11:56:54.038,728, -197, 564, 10, 12, -60, -1, -9, 8, 832, 0,Q
2025-02-19 11:56:54.145,510, 177, 557, -22, 16, 47, -1, -8, 7, 690, 0,Q
2025-02-19 11:56:54.256,784, -80, 565, -8, 10, -20, -2, -8, 11, 608, 0,Q
2025-02-19 11:56:54.358,867, 8, 631, 27, -2, 11, -2, -7, 9, 785, 0,Q
2025-02-19 11:56:54.469,495, -170, 734, -18, 6, 10, -1, -6, 4, 590, 40,Q
2025-02-19 11:56:58.084,744, 26, 646, -1, 0, -1, -3, -9, 9, 779, 85,R
2025-02-19 11:56:58.180,749, 29, 650, 0, -1, -1, -3, -10, 7, 782, 86,R
2025-02-19 11:56:58.281,746, 28, 651, -2, 0, -1, -1, -10, 9, 780, 85,R
2025-02-19 11:56:58.392,737, 31, 650, -1, -2, -2, -3, -6, 8, 782, 86,R
2025-02-19 11:56:58.503,754, 34, 648, -3, -3, -4, -2, -10, 8, 783, 90,R
2025-02-19 11:56:58.610,758, 26, 648, -2, -1, -2, -2, -10, 6, 794, 92,R
2025-02-19 11:56:58.716,758, 35, 647, 1, -4, -3, -3, -10, 9, 814, 94,R
2025-02-19 11:56:58.821,765, 33, 636, 2, -1, -4, -2, -11, 7, 819, 101,R
2025-02-19 11:56:58.929,747, 58, 646, 5, 2, -3, -2, -12, 7, 820, 102,R
2025-02-19 11:56:59.039,779, 45, 601, -9, -4, -8, -3, -9, 8, 798, 109,R
2025-02-19 11:56:59.146,840, 333, 541, -4, -13, 53, -1, -9, 8, 418, 105,R
2025-02-19 11:56:59.257,473, -79, 594, 5, -11, -52, -1, -10, 6, 821, 99,R
2025-02-19 11:56:59.359,656, 88, 759, 6, -8, 30, -3, -9, 8, 826, 107,R
2025-02-19 11:56:59.463,1241, -129, 560, -10, -15, 2, -2, -9, 7, 704, 104,R
2025-02-19 11:56:59.572,895, 67, 656, 19, 26, 0, -1, -6, 9, 794, 0,R
2025-02-19 11:56:59.680,568, -155, 710, -3, -4, 0, -2, -4, 6, 646, 48,R
2025-02-19 11:57:00.801,760, 5, 646, -1, -1, -3, -2, -8, 8, 715, 79,S
2025-02-19 11:57:00.895,760, 7, 645, -1, -1, -3, -3, -9, 6, 738, 81,S
2025-02-19 11:57:01.002,758, -1, 644, -3, -1, -3, -3, -6, 8, 763, 82,S
2025-02-19 11:57:01.108,750, 9, 640, -3, -2, -2, -3, -7, 8, 775, 84,S
2025-02-19 11:57:01.219,692, -33, 649, -1, -13, -12, -2, -10, 7, 809, 92,S
2025-02-19 11:57:01.325,757, 12, 666, -6, 4, -17, -3, -7, 10, 801, 110,S
2025-02-19 11:57:01.432,1034, 16, 546, 33, 6, 59, -1, -11, 8, 716, 106,S
2025-02-19 11:57:01.538,720, -8, 631, 13, 10, 14, -2, -8, 8, 722, 108,S
2025-02-19 11:57:01.645,605, -37, 663, -35, 49, 24, -3, -5, 5, 712, 51,S
2025-02-19 11:57:01.756,725, -57, 686, 11, -30, -15, -2, -7, 5, 769, 51,S
2025-02-19 11:57:02.972,745, -20, 650, -3, 0, -5, -2, -7, 6, 740, 72,T
2025-02-19 11:57:03.066,733, -18, 649, 0, 1, -11, -1, -8, 7, 772, 73,T
2025-02-19 11:57:03.172,735, 23, 650, 4, -5, -8, -3, -8, 8, 792, 79,T
2025-02-19 11:57:03.278,743, 33, 650, 15, -4, -9, 0, -9, 7, 784, 96,T
2025-02-19 11:57:03.393,798, -147, 491, 15, 6, -13, -2, -10, 9, 354, 108,T
2025-02-19 11:57:03.495,706, 49, 682, 11, 3, 4, -2, -9, 10, 866, 108,T
2025-02-19 11:57:03.606,925, -27, 656, 13, -7, -29, -3, -11, 8, 816, 106,T
2025-02-19 11:57:03.712,820, 341, 515, 0, -6, 47, -1, -6, 10, 494, 105,T
2025-02-19 11:57:03.820,521, -92, 639, -34, 59, 25, -2, -6, 8, 771, 52,T
2025-02-19 11:57:03.926,791, -9, 682, 8, -21, -13, -1, -5, 6, 698, 49,T
2025-02-19 11:57:06.042,746, -14, 651, -1, -2, -5, -3, -7, 9, 718, 72,U
2025-02-19 11:57:06.137,740, -7, 656, 2, -3, -3, -2, -10, 7, 746, 74,U
2025-02-19 11:57:06.244,771, 3, 649, 7, -4, -6, -2, -9, 8, 758, 85,U
2025-02-19 11:57:06.351,712, 26, 657, 7, 2, -20, -3, -8, 8, 752, 92,U
2025-02-19 11:57:06.464,673, -95, 613, 15, 14, -10, 0, -11, 6, 580, 110,U
2025-02-19 11:57:06.573,816, 177, 651, -1, -24, 12, -1, -8, 8, 702, 108,U
2025-02-19 11:57:06.678,786, -222, 620, -1, 2, -27, -4, -9, 10, 832, 0,U
2025-02-19 11:57:06.782,838, 157, 565, 20, 1, 39, -1, -8, 11, 648, 0,U
2025-02-19 11:57:06.891,496, -164, 724, -36, 27, 4, -1, -8, 7, 734, 47,U
2025-02-19 11:57:08.507,768, 27, 639, 0, -1, -1, -2, -8, 10, 754, 90,V
2025-02-19 11:57:08.601,765, 27, 633, 0, -1, -1, -3, -8, 8, 757, 90,V
2025-02-19 11:57:08.710,758, 32, 636, 0, 0, -1, -2, -9, 8, 770, 92,V
2025-02-19 11:57:08.817,746, 42, 648, 5, 2, -2, -3, -8, 8, 778, 94,V
2025-02-19 11:57:08.923,766, 51, 636, 1, 3, -4, -2, -7, 8, 777, 97,V
2025-02-19 11:57:09.029,755, 44, 643, 0, 1, -4, -2, -11, 5, 775, 96,V
2025-02-19 11:57:09.136,745, 57, 653, 4, 3, -4, -3, -8, 8, 758, 94,V
2025-02-19 11:57:09.244,754, 60, 643, -1, 0, -1, -2, -8, 9, 759, 94,V
2025-02-19 11:57:09.353,748, 59, 649, 0, 0, -2, -3, -9, 7, 764, 95,V
2025-02-19 11:57:09.459,756, 61, 654, -1, -1, -2, -1, -8, 9, 762, 97,V
2025-02-19 11:57:09.566,748, 75, 650, 1, 0, -3, -3, -9, 8, 763, 97,V
2025-02-19 11:57:09.681,667, 60, 620, -3, -12, -10, -3, -11, 6, 753, 105,V
2025-02-19 11:57:09.783,750, 50, 653, 7, 5, -13, -1, -10, 9, 730, 108,V
2025-02-19 11:57:09.893,782, 222, 614, -3, -12, 39, -3, -8, 9, 449, 104,V
2025-02-19 11:57:10.000,869, 77, 527, -8, -18, -77, -2, -9, 10, 736, 0,V
2025-02-19 11:57:10.107,792, 124, 559, -6, 8, -13, -2, -11, 10, 812, 0,V
2025-02-19 11:57:10.211,625, 68, 617, -45, 61, 51, -1, -7, 9, 741, 0,V
2025-02-19 11:57:10.320,740, 0, 680, 18, -28, -15, -2, -7, 6, 707, 51,V
2025-02-19 11:57:11.236,752, 24, 637, 1, 2, -2, -1, -8, 8, 716, 78,W
2025-02-19 11:57:11.331,752, 26, 640, 1, 0, -2, -2, -9, 8, 744, 79,W
2025-02-19 11:57:11.438,750, 42, 642, 4, 3, -2, -1, -9, 7, 761, 80,W
2025-02-19 11:57:11.543,730, 51, 661, 11, 6, -5, -1, -10, 8, 756, 83,W
2025-02-19 11:57:11.659,937, 112, 656, 14, 3, -26, -1, -10, 7, 612, 106,W
2025-02-19 11:57:11.761,936, -11, 775, -31, -31, 68, -1, -10, 7, 767, 101,W
2025-02-19 11:57:11.873,759, 74, 540, 22, -15, -43, -2, -9, 10, 779, 106,W
2025-02-19 11:57:11.976,884, 20, 742, -17, -24, 77, 0, -9, 9, 781, 0,W
2025-02-19 11:57:12.089,803, -21, 600, -6, -11, -53, -3, -7, 10, 724, 0,W
2025-02-19 11:57:12.192,1052, 116, 557, 5, 41, 45, 0, -9, 9, 831, 0,W
2025-02-19 11:57:12.301,534, -84, 714, -1, -11, -10, -1, -7, 7, 533, 0,W
2025-02-19 11:57:13.111,774, 43, 624, -3, 0, -3, -3, -7, 8, 736, 81,X
2025-02-19 11:57:13.212,770, 58, 618, 3, -9, -8, -2, -7, 9, 757, 90,X
2025-02-19 11:57:13.321,805, 86, 597, 1, -7, -7, -2, -9, 8, 774, 106,X
2025-02-19 11:57:13.431,693, 65, 588, -6, -12, -20, -3, -9, 11, 808, 103,X
2025-02-19 11:57:13.539,451, -64, 727, 21, 39, 28, 0, -10, 10, 716, 112,X
2025-02-19 11:57:13.643,824, 87, 597, 24, 30, 48, -2, -10, 7, 531, 104,X
2025-02-19 11:57:13.751,855, -80, 751, 22, -26, -29, -3, -8, 8, 716, 109,X
2025-02-19 11:57:13.859,605, 208, 688, -40, -43, 78, -2, -11, 8, 400, 0,X
2025-02-19 11:57:13.961,938, 154, 600, -11, 87, 11, -3, -8, 9, 739, 0,X
2025-02-19 11:57:14.071,685, -25, 656, 5, -23, -13, -2, -6, 8, 564, 60,X
2025-02-19 11:57:15.091,739, 41, 651, 3, -6, -5, -4, -9, 7, 688, 82,Y
2025-02-19 11:57:15.186,773, 63, 631, 2, 0, -5, -2, -10, 8, 732, 93,Y
2025-02-19 11:57:15.292,711, 82, 637, 5, 1, -12, -3, -10, 10, 738, 99,Y
2025-02-19 11:57:15.403,771, 12, 570, -4, 9, -12, -3, -10, 9, 646, 109,Y
2025-02-19 11:57:15.509,818, 118, 573, 12, -4, 37, -2, -10, 8, 633, 0,Y
2025-02-19 11:57:15.620,561, -68, 714, 19, -52, -36, 0, -10, 11, 829, 90,Y
2025-02-19 11:57:15.725,642, -152, 761, -1, 22, 36, -3, -11, 10, 742, 114,Y
2025-02-19 11:57:15.825,793, -8, 585, 7, 14, 5, -2, -10, 9, 309, 111,Y
2025-02-19 11:57:15.933,797, 126, 573, 1, -3, 40, -2, -6, 11, 0, 0,Y
2025-02-19 11:57:16.043,573, -162, 702, -17, 39, -2, -1, -5, 7, 674, 0,Y
2025-02-19 11:57:16.959,759, 1, 606, 5, -4, -5, -2, -9, 8, 769, 0,Z
2025-02-19 11:57:17.058,770, 29, 628, 4, 1, -6, 0, -8, 10, 829, 96,Z
2025-02-19 11:57:17.163,787, 61, 618, 6, -1, -5, -2, -9, 10, 841, 102,Z
2025-02-19 11:57:17.271,715, 55, 646, 6, 6, -7, -2, -9, 8, 833, 100,Z
2025-02-19 11:57:17.383,771, 51, 645, -3, 1, -13, -3, -10, 10, 767, 108,Z
2025-02-19 11:57:17.486,760, 72, 642, -3, -2, -3, -1, -10, 9, 669, 0,Z
2025-02-19 11:57:17.595,830, 300, 577, 5, -42, -5, -1, -11, 7, 792, 0,Z
2025-02-19 11:57:17.701,786, 107, 607, 15, -5, -11, -2, -13, 10, 837, 0,Z
2025-02-19 11:57:17.807,940, 80, 531, -4, 8, 9, -1, -9, 11, 181, 0,Z
2025-02-19 11:57:17.913,653, -11, 647, 5, -19, 2, -1, -8, 9, 497, 0,Z
2025-02-19 11:57:18.024,890, 98, 583, -24, 48, 12, -1, -6, 10, 639, 0,Z
2025-02-19 11:57:18.125,770, 57, 621, -5, -3, -3, 1, -7, 9, 637, 0,Z
2025-02-19 11:57:18.233,757, 24, 626, -4, 4, 2, -1, -8, 9, 653, 0,Z
2025-02-19 11:57:19.451,774, 36, 614, 1, -2, -2, -3, -6, 9, 774, 0,a
2025-02-19 11:57:19.543,790, 40, 617, 2, -5, -1, -1, -9, 8, 789, 0,a
2025-02-19 11:57:19.658,795, 52, 606, -1, -3, -1, -1, -7, 9, 795, 0,a
2025-02-19 11:57:19.765,764, 41, 624, -2, -1, -1, -2, -7, 10, 791, 0,a
2025-02-19 11:57:19.872,918, -12, 525, 16, 14, 2, -1, -10, 8, 653, 0,a
2025-02-19 11:57:19.982,726, 15, 629, 22, -13, -48, -4, -6, 10, 765, 0,a
2025-02-19 11:57:20.088,746, -9, 721, -37, -22, 70, -2, -7, 8, 664, 0,a
2025-02-19 11:57:20.191,703, 49, 568, -19, 78, 1, -1, -7, 7, 756, 0,a
2025-02-19 11:57:21.411,765, 30, 627, 0, -2, -2, -1, -9, 9, 764, 0,b
2025-02-19 11:57:21.506,758, 30, 630, 2, -2, -2, -3, -7, 9, 771, 0,b
2025-02-19 11:57:21.613,772, 39, 625, 0, -1, -1, -2, -9, 8, 780, 0,b
2025-02-19 11:57:21.722,750, 43, 624, 7, -4, -7, -2, -10, 8, 797, 0,b
2025-02-19 11:57:21.829,808, -1, 586, 5, -3, -18, -3, -9, 8, 801, 109,b
2025-02-19 11:57:21.932,762, 10, 612, 5, 1, -25, -2, -11, 8, 788, 0,b
2025-02-19 11:57:22.043,785, 119, 651, 11, 6, 28, -3, -9, 7, 702, 0,b
2025-02-19 11:57:22.149,733, 55, 687, -4, -24, 2, -2, -9, 9, 815, 0,b
2025-02-19 11:57:22.258,846, 127, 459, 11, 29, 13, -2, -8, 7, 724, 0,b
2025-02-19 11:57:22.360,299, -103, 826, -13, -10, 2, 0, -6, 3, 719, 42,b
2025-02-19 11:57:23.484,760, 21, 626, -2, -1, -1, -2, -7, 10, 742, 82,c
2025-02-19 11:57:23.581,770, 32, 625, -1, -1, -1, -1, -6, 8, 754, 86,c
2025-02-19 11:57:23.689,774, 26, 626, -1, -1, -1, -1, -8, 9, 776, 89,c
2025-02-19 11:57:23.791,763, 24, 626, 0, -3, 1, -3, -7, 9, 792, 90,c
2025-02-19 11:57:23.901,672, 5, 606, 1, -19, -6, -1, -9, 8, 806, 99,c
2025-02-19 11:57:24.008,739, -25, 646, -3, 8, -15, -2, -9, 8, 788, 0,c
2025-02-19 11:57:24.119,868, 235, 545, -2, -18, 44, -2, -9, 10, 630, 0,c
2025-02-19 11:57:24.223,935, 102, 618, -30, 78, 25, -1, -6, 8, 830, 0,c
2025-02-19 11:57:24.331,677, -30, 669, 1, -14, -5, -2, -6, 6, 694, 48,c
2025-02-19 11:57:25.441,749, -5, 641, -1, 0, -1, -2, -6, 8, 708, 63,d
2025-02-19 11:57:25.540,762, 1, 644, 0, -2, -1, -2, -7, 8, 720, 64,d
2025-02-19 11:57:25.651,762, -4, 638, 0, -3, -1, -3, -8, 7, 726, 66,d
2025-02-19 11:57:25.756,760, -4, 629, 1, -5, -1, -2, -8, 7, 736, 71,d
2025-02-19 11:57:25.868,670, -5, 641, 21, -48, -28, -1, -8, 8, 790, 110,d
2025-02-19 11:57:25.973,688, -9, 646, 2, 10, -24, -3, -7, 8, 648, 0,d
2025-02-19 11:57:26.080,726, 247, 583, -10, -16, 37, -3, -9, 9, 347, 0,d
2025-02-19 11:57:26.190,761, -120, 664, -7, 2, -41, -2, -10, 9, 818, 0,d
2025-02-19 11:57:26.297,829, 353, 542, -9, -12, 55, -1, -7, 7, 434, 0,d
2025-02-19 11:57:26.400,764, 8, 535, -31, 63, 16, 0, -6, 8, 730, 0,d
2025-02-19 11:57:26.511,703, -5, 652, 10, -25, -10, -1, -7, 7, 644, 0,d
2025-02-19 11:57:27.531,766, 12, 627, -1, -2, -1, -3, -5, 8, 667, 75,e
2025-02-19 11:57:27.621,777, 33, 625, 1, -1, -3, -2, -7, 9, 682, 79,e
2025-02-19 11:57:27.731,708, -22, 633, 1, -1, -7, -2, -7, 7, 707, 84,e
2025-02-19 11:57:27.838,820, 63, 592, 4, -1, -9, -3, -7, 8, 688, 108,e
2025-02-19 11:57:27.945,702, 106, 648, -3, -26, 10, -3, -6, 8, 780, 0,e
2025-02-19 11:57:28.055,660, -14, 641, -18, 34, -32, -2, -11, 9, 727, 0,e
2025-02-19 11:57:28.161,846, 172, 592, -3, -27, 37, -1, -6, 8, 477, 0,e
2025-02-19 11:57:28.268,807, 129, 529, -46, 94, 37, -3, -6, 10, 681, 0,e
2025-02-19 11:57:28.374,669, -47, 645, 8, -26, -13, -1, -6, 7, 425, 0,e
2025-02-19 11:57:29.394,791, 16, 613, 5, -7, -1, -2, -6, 10, 625, 79,f
2025-02-19 11:57:29.488,764, 6, 612, 3, -6, 0, -1, -6, 10, 670, 89,f
2025-02-19 11:57:29.591,767, 6, 608, 2, -6, 2, -2, -8, 7, 646, 97,f
2025-02-19 11:57:29.705,770, 36, 520, -5, 21, -38, -2, -6, 12, 517, 0,f
2025-02-19 11:57:29.812,766, 12, 622, 13, -16, -42, 0, -10, 12, 849, 0,f
2025-02-19 11:57:29.910,730, 1, 674, 13, 29, 60, -1, -9, 6, 836, 0,f
2025-02-19 11:57:30.022,971, 182, 646, -11, -8, -8, -2, -8, 8, 692, 0,f
2025-02-19 11:57:30.132,701, 37, 626, -6, -20, 6, 0, -7, 8, 721, 0,f
2025-02-19 11:57:30.238,819, 55, 504, -52, 77, 35, -3, -8, 8, 609, 0,f
2025-02-19 11:57:30.344,684, -4, 667, 14, -29, -9, -1, -6, 8, 604, 0,f
2025-02-19 11:57:31.360,779, 23, 615, 0, -4, 0, -2, -7, 10, 621, 82,g
2025-02-19 11:57:31.459,737, -6, 620, 5, -15, -7, -2, -7, 9, 656, 91,g
2025-02-19 11:57:31.561,810, 55, 590, -3, 2, -2, -1, -7, 10, 654, 0,g
2025-02-19 11:57:31.672,754, 55, 605, 0, -1, -9, -2, -8, 10, 681, 2,g
2025-02-19 11:57:31.781,839, -68, 553, 14, 25, -9, -3, -8, 9, 354, 0,g
2025-02-19 11:57:31.888,796, 112, 619, 3, -17, -6, -2, -6, 10, 653, 0,g
2025-02-19 11:57:31.995,678, -5, 609, 18, 15, 30, -2, -8, 9, 749, 0,g
2025-02-19 11:57:32.104,748, -18, 563, 30, 47, -10, -2, -4, 8, 250, 0,g
2025-02-19 11:57:32.212,532, -106, 748, -18, 29, 22, 0, -3, 3, 607, 39,g
2025-02-19 11:57:33.631,733, -11, 642, -1, -5, -23, -2, -8, 7, 764, 67,h
2025-02-19 11:57:33.724,790, 73, 626, 6, -7, -22, -2, -10, 9, 809, 86,h
2025-02-19 11:57:33.830,743, 81, 641, 1, 2, -13, -2, -7, 8, 817, 94,h
2025-02-19 11:57:33.940,800, 56, 592, -8, 1, -6, -2, -11, 8, 802, 107,h
2025-02-19 11:57:34.052,771, 237, 622, -14, -12, 68, -2, -9, 8, 640, 105,h
2025-02-19 11:57:34.154,837, -4, 557, 5, -5, -47, -1, -8, 10, 770, 0,h
2025-02-19 11:57:34.264,802, 151, 553, -2, -5, 31, -3, -10, 10, 572, 0,h
2025-02-19 11:57:34.371,723, -23, 645, -47, 60, 20, -1, -7, 7, 715, 0,h
2025-02-19 11:57:35.487,797, 34, 606, 5, -11, -6, -2, -6, 11, 683, 96,i
2025-02-19 11:57:35.582,770, 27, 607, 0, -3, -4, -4, -7, 10, 695, 102,i
2025-02-19 11:57:35.687,794, 15, 572, -8, 2, -6, -3, -8, 9, 663, 0,i
2025-02-19 11:57:35.796,787, 30, 605, -1, -1, 0, -2, -6, 9, 670, 0,i
2025-02-19 11:57:35.904,773, 101, 628, -14, -13, 33, -1, -10, 10, 297, 0,i
2025-02-19 11:57:36.013,996, 37, 640, -29, 79, -41, -3, -8, 7, 748, 0,i
2025-02-19 11:57:36.120,814, 159, 485, -16, -3, 7, -3, -9, 11, 750, 0,i
2025-02-19 11:57:36.221,628, -8, 641, -27, 58, 26, -2, -7, 5, 770, 0,i
2025-02-19 11:57:36.333,798, 11, 642, 24, -36, -10, -1, -8, 7, 779, 0,i
2025-02-19 11:57:36.435,731, 0, 642, -2, 0, 5, -3, -5, 9, 783, 0,i
2025-02-19 11:57:38.951,775, 5, 614, 2, -5, 1, -2, -6, 9, 773, 0,j
2025-02-19 11:57:39.053,788, 15, 605, 2, -4, -1, -2, -7, 10, 779, 0,j
2025-02-19 11:57:39.158,789, 27, 598, 3, -6, 1, -2, -7, 8, 798, 0,j
2025-02-19 11:57:39.266,787, 21, 599, 0, -2, -1, -2, -7, 10, 808, 0,j
2025-02-19 11:57:39.370,799, 33, 596, 0, -3, -3, -2, -7, 9, 795, 0,j
2025-02-19 11:57:39.478,775, 39, 593, 0, -1, -6, -2, -7, 9, 802, 0,j
2025-02-19 11:57:39.586,805, -17, 558, -3, -3, -7, -1, -9, 10, 816, 0,j
2025-02-19 11:57:39.699,778, 198, 581, -3, -18, 60, -1, -6, 11, 214, 0,j
2025-02-19 11:57:39.806,1126, 94, 610, -22, 47, -56, -2, -6, 9, 742, 0,j
2025-02-19 11:57:39.912,337, -33, 682, 16, -59, -35, 0, -10, 8, 801, 0,j
2025-02-19 11:57:40.020,955, 97, 658, 6, -20, 32, -2, -10, 10, 837, 0,j
2025-02-19 11:57:40.126,473, -96, 730, 1, -7, 7, -2, -7, 7, 751, 0,j
2025-02-19 11:57:40.231,898, 110, 560, 9, -13, 2, 1, -9, 10, 741, 0,j
2025-02-19 11:57:41.241,773, 29, 618, 0, 0, -6, -3, -8, 8, 707, 0,k
2025-02-19 11:57:41.346,775, 41, 612, -1, 1, -3, -3, -7, 8, 750, 0,k
2025-02-19 11:57:41.452,788, 51, 616, 2, 1, -6, -3, -10, 8, 774, 0,k
2025-02-19 11:57:41.559,766, 54, 623, 6, 2, -8, -3, -9, 9, 778, 0,k
2025-02-19 11:57:41.669,811, 55, 568, -11, -3, -21, -2, -7, 10, 748, 0,k
2025-02-19 11:57:41.771,829, 420, 504, 0, -10, 24, 0, -9, 7, 325, 0,k
2025-02-19 11:57:41.882,680, -28, 677, 4, -10, -10, -1, -9, 9, 803, 0,k
2025-02-19 11:57:41.988,702, 98, 456, -9, 28, -6, 0, -9, 9, 632, 0,k
2025-02-19 11:57:42.096,708, 99, 610, -16, -32, 35, 0, -9, 8, 637, 0,k
2025-02-19 11:57:42.205,870, -9, 408, -33, 78, 15, -2, -8, 8, 710, 0,k
2025-02-19 11:57:43.221,750, 23, 634, 0, -3, -2, -2, -9, 8, 708, 0,l
2025-02-19 11:57:43.311,755, 37, 624, 2, -3, -3, -2, -8, 10, 734, 0,l
2025-02-19 11:57:43.422,775, 44, 623, 0, -1, -2, -1, -7, 8, 746, 0,l
2025-02-19 11:57:43.533,764, 65, 620, 0, -1, -6, -4, -7, 10, 756, 0,l
2025-02-19 11:57:43.644,808, 176, 481, -9, -1, -9, -3, -10, 10, 765, 0,l
2025-02-19 11:57:43.746,729, 218, 613, -6, -18, 90, 0, -10, 7, 386, 0,l
2025-02-19 11:57:43.852,802, 82, 541, 17, 0, -29, -3, -6, 11, 744, 0,l
2025-02-19 11:57:43.953,705, 39, 652, -5, -8, -3, -2, -6, 8, 761, 0,l
2025-02-19 11:57:44.067,785, 31, 622, -6, 3, -1, -2, -8, 7, 752, 0,l
2025-02-19 11:57:44.171,754, 16, 608, -4, 0, -1, -2, -6, 10, 710, 0,l
2025-02-19 11:57:45.491,776, 61, 623, 3, -2, -1, -3, -7, 10, 736, 0,m
2025-02-19 11:57:45.586,770, 50, 626, 0, -1, -6, -2, -7, 7, 744, 0,m
2025-02-19 11:57:45.691,771, 70, 614, -6, 4, -9, -2, -9, 7, 685, 0,m
2025-02-19 11:57:45.803,796, 147, 561, 5, -3, 8, -1, -7, 9, 346, 0,m
2025-02-19 11:57:45.911,701, -32, 692, -9, -8, -17, -2, -9, 8, 697, 0,m
2025-02-19 11:57:46.018,814, 126, 558, 1, -5, 16, -4, -9, 9, 421, 0,m
2025-02-19 11:57:46.126,708, -95, 687, -2, -18, -12, -1, -9, 10, 714, 0,m
2025-02-19 11:57:46.231,932, 69, 575, 11, -9, 22, -3, -8, 10, 592, 0,m
2025-02-19 11:57:46.341,488, -165, 742, -23, 31, 7, -3, -4, 7, 673, 0,m
2025-02-19 11:57:47.350,752, 56, 624, 1, 4, -2, 0, -8, 7, 707, 70,n
2025-02-19 11:57:47.453,773, 42, 628, 5, -9, -6, -1, -7, 7, 759, 82,n
2025-02-19 11:57:47.551,758, 57, 635, 0, -2, -1, -3, -6, 7, 783, 89,n
2025-02-19 11:57:47.666,765, 64, 626, -1, -1, -4, -2, -8, 8, 801, 0,n
2025-02-19 11:57:47.776,954, 32, 635, -15, -6, -12, -1, -9, 7, 814, 0,n
2025-02-19 11:57:47.883,784, 189, 597, -7, -9, 29, -2, -6, 8, 288, 0,n
2025-02-19 11:57:47.985,832, -24, 605, 4, -18, -52, -1, -9, 8, 723, 0,n
2025-02-19 11:57:48.096,829, 266, 503, -5, -5, 33, 0, -9, 8, 184, 0,n
2025-02-19 11:57:48.207,664, -12, 629, -32, 49, 21, -3, -6, 9, 651, 0,n
2025-02-19 11:57:49.121,783, 43, 597, -2, 0, -3, -1, -9, 8, 579, 0,o
2025-02-19 11:57:49.215,786, 52, 600, -3, 0, 0, -2, -9, 8, 636, 0,o
2025-02-19 11:57:49.326,800, 52, 600, 0, -1, -2, -2, -6, 10, 679, 0,o
2025-02-19 11:57:49.427,782, 47, 602, 0, 0, 1, -2, -8, 9, 699, 0,o
2025-02-19 11:57:49.542,760, 57, 601, 6, -15, -3, -3, -10, 10, 731, 0,o
2025-02-19 11:57:49.648,720, 4, 606, 0, 16, -23, -3, -7, 11, 669, 0,o
2025-02-19 11:57:49.754,839, 274, 541, -23, -23, 45, -2, -8, 8, 235, 0,o
2025-02-19 11:57:49.861,765, 9, 502, 8, 15, -32, -2, -8, 9, 717, 0,o
2025-02-19 11:57:49.968,636, 39, 661, -46, 59, 43, -3, -5, 6, 603, 0,o
2025-02-19 11:57:50.079,749, -5, 649, 20, -43, -18, -1, -7, 6, 634, 0,o
2025-02-19 11:57:50.991,752, 41, 620, 0, -2, -2, -1, -7, 8, 598, 0,p
2025-02-19 11:57:51.090,770, 50, 610, 2, -2, -3, -3, -6, 10, 668, 0,p
2025-02-19 11:57:51.197,781, 40, 608, 2, -2, -4, -1, -7, 10, 678, 0,p
2025-02-19 11:57:51.303,775, 44, 616, 5, -5, -4, -2, -9, 8, 696, 0,p
2025-02-19 11:57:51.402,799, 75, 572, -4, 1, -3, -2, -8, 10, 679, 0,p
2025-02-19 11:57:51.520,765, 178, 600, -24, -16, 65, -1, -6, 10, 0, 0,p
2025-02-19 11:57:51.626,779, -59, 526, 19, 32, -84, -1, -7, 8, 721, 0,p
2025-02-19 11:57:51.733,691, 191, 676, -7, -15, 12, -1, -8, 8, 424, 0,p
2025-02-19 11:57:51.839,1111, 39, 497, 1, 28, 6, 0, -8, 10, 312, 0,p
2025-02-19 11:57:51.947,526, -32, 741, -17, 13, 7, -2, -5, 7, 304, 0,p
2025-02-19 11:57:52.053,825, 44, 621, 7, -20, -8, -1, -5, 8, 404, 0,p
2025-02-19 11:57:53.071,750, 33, 640, 0, -2, -1, -1, -6, 7, 460, 0,q
2025-02-19 11:57:53.168,717, 28, 643, 3, -12, -5, -2, -6, 6, 442, 0,q
2025-02-19 11:57:53.271,797, 63, 607, 0, -2, -1, -1, -6, 7, 503, 0,q
2025-02-19 11:57:53.383,748, 57, 617, 5, -14, -6, -1, -9, 9, 630, 0,q
2025-02-19 11:57:53.491,751, 33, 612, -3, 5, -18, -1, -10, 8, 433, 0,q
2025-02-19 11:57:53.600,837, 194, 552, -6, -13, 33, -1, -8, 10, 27, 0,q
2025-02-19 11:57:53.700,785, -118, 599, 12, -5, -32, -1, -8, 9, 640, 0,q
2025-02-19 11:57:53.800,932, 70, 601, -6, -22, 11, -3, -6, 9, 0, 0,q
2025-02-19 11:57:53.919,761, 65, 557, -37, 70, 35, -1, -5, 10, 401, 0,q
2025-02-19 11:57:54.027,764, -10, 625, -3, -12, -16, -1, -5, 7, 115, 0,q
2025-02-19 11:57:54.941,760, 41, 601, -3, 7, -4, -3, -6, 8, 226, 0,r
2025-02-19 11:57:55.032,768, 62, 626, 10, 0, -10, -2, -6, 8, 469, 0,r
2025-02-19 11:57:55.145,789, 86, 619, 0, 0, -3, -2, -8, 8, 645, 0,r
2025-02-19 11:57:55.256,775, 75, 616, -1, -4, -1, -2, -6, 8, 686, 0,r
2025-02-19 11:57:55.362,785, 66, 611, 1, -5, -2, -2, -8, 9, 712, 0,r
2025-02-19 11:57:55.469,780, 79, 612, -2, 0, -1, -2, -9, 8, 709, 0,r
2025-02-19 11:57:55.575,782, 75, 608, -1, 1, 0, -1, -7, 8, 689, 0,r
2025-02-19 11:57:55.682,783, 77, 610, -2, 0, -1, -2, -6, 10, 671, 0,r
2025-02-19 11:57:55.787,786, 69, 612, -2, 0, -1, -2, -8, 7, 660, 0,r
2025-02-19 11:57:55.899,776, 74, 608, -1, -2, -1, -3, -7, 11, 640, 0,r
2025-02-19 11:57:56.005,773, 74, 604, -2, 0, -2, -2, -8, 10, 648, 0,r
2025-02-19 11:57:56.111,777, 75, 607, -1, -1, -1, 0, -9, 8, 645, 0,r
2025-02-19 11:57:56.218,780, 71, 609, -1, 0, -1, -1, -7, 10, 629, 0,r
2025-02-19 11:57:56.325,778, 69, 610, 0, -1, 0, -2, -7, 10, 632, 0,r
2025-02-19 11:57:56.431,786, 69, 612, -1, -1, -1, -2, -9, 6, 644, 0,r
2025-02-19 11:57:56.537,780, 72, 610, -1, -1, 0, -3, -6, 9, 652, 0,r
2025-02-19 11:57:56.644,786, 72, 606, -1, -1, 0, -3, -7, 9, 661, 0,r
2025-02-19 11:57:56.751,803, 73, 589, -3, 4, 3, -3, -8, 9, 693, 0,r
2025-02-19 11:57:56.861,755, 40, 629, -9, 5, 5, -2, -7, 10, 746, 0,r
2025-02-19 11:57:56.967,791, 60, 618, 0, -5, 1, -1, -7, 7, 757, 0,r
2025-02-19 11:57:57.074,796, 80, 611, 2, -13, -6, 1, -8, 9, 736, 0,r
2025-02-19 11:57:57.182,809, 53, 641, -7, 2, -19, -1, -8, 10, 745, 0,r
2025-02-19 11:57:57.292,736, 97, 627, -11, -13, 50, -1, -7, 9, 307, 0,r
2025-02-19 11:57:57.398,826, -64, 582, 10, 0, -64, -2, -10, 7, 665, 0,r
2025-02-19 11:57:57.508,822, 130, 617, -4, -17, 24, -3, -8, 10, 764, 0,r
2025-02-19 11:57:57.610,627, -25, 655, -7, 22, 19, -2, -7, 6, 541, 0,r
2025-02-19 11:57:57.715,820, 34, 615, 4, -8, -5, 0, -6, 7, 315, 0,r
2025-02-19 11:57:58.733,771, 24, 620, 0, -1, -2, -3, -6, 10, 405, 0,s
2025-02-19 11:57:58.832,780, 34, 612, 0, -2, -1, -1, -7, 9, 440, 0,s
2025-02-19 11:57:58.938,781, 27, 607, 1, -3, -1, -3, -7, 8, 462, 0,s
2025-02-19 11:57:59.049,794, 46, 598, 5, -9, -3, -2, -8, 10, 518, 0,s
2025-02-19 11:57:59.155,708, 57, 610, 8, -26, -17, -1, -6, 11, 686, 0,s
2025-02-19 11:57:59.261,813, 36, 556, 6, 10, -10, -2, -7, 9, 537, 0,s
2025-02-19 11:57:59.371,792, 188, 650, -3, -18, 16, -1, -6, 8, 240, 0,s
2025-02-19 11:57:59.478,1164, 143, 568, -21, 71, 27, -1, -6, 8, 529, 0,s
2025-02-19 11:57:59.585,518, -94, 741, 16, -30, -8, -2, -3, 4, 572, 0,s
2025-02-19 11:58:00.600,780, 24, 625, -2, -3, -3, -3, -7, 8, 613, 0,t
2025-02-19 11:58:00.699,794, 31, 616, 13, -11, -10, -1, -8, 8, 685, 0,t
2025-02-19 11:58:00.805,773, 35, 606, -2, -1, -4, -3, -6, 8, 723, 0,t
2025-02-19 11:58:00.912,802, 55, 597, 0, -5, -7, -2, -8, 10, 750, 0,t
2025-02-19 11:58:01.018,791, 61, 599, -1, 0, -4, -1, -7, 8, 755, 0,t
2025-02-19 11:58:01.125,791, 60, 603, -1, 0, -1, -3, -7, 10, 758, 0,t
2025-02-19 11:58:01.231,777, 54, 600, -1, 0, 0, -3, -7, 10, 758, 0,t
2025-02-19 11:58:01.331,787, 62, 601, -2, 0, -2, -2, -9, 7, 759, 0,t
2025-02-19 11:58:01.445,778, 56, 600, -2, 0, 0, -3, -7, 10, 759, 0,t
2025-02-19 11:58:01.551,786, 53, 601, -2, 0, 0, -3, -8, 11, 757, 0,t
2025-02-19 11:58:01.661,790, 62, 598, -1, -1, 0, -1, -9, 10, 752, 0,t
2025-02-19 11:58:01.768,793, 61, 599, -2, 0, 0, -3, -6, 11, 743, 0,t
2025-02-19 11:58:01.874,791, 61, 600, -1, -1, -1, -2, -9, 8, 719, 0,t
2025-02-19 11:58:01.981,788, 60, 599, -2, 0, 0, -3, -9, 9, 707, 0,t
2025-02-19 11:58:02.088,801, 55, 603, -1, 0, 0, 0, -7, 10, 700, 0,t
2025-02-19 11:58:02.194,785, 58, 601, -1, -1, 0, -2, -9, 9, 698, 0,t
2025-02-19 11:58:02.304,785, 61, 600, -1, 0, -2, -2, -8, 8, 706, 0,t
2025-02-19 11:58:02.411,796, 62, 601, 0, -1, -1, -3, -7, 9, 708, 0,t
2025-02-19 11:58:02.521,799, 61, 598, -1, -1, -1, -1, -10, 10, 708, 0,t
2025-02-19 11:58:02.624,797, 61, 595, -1, -1, -1, 0, -9, 8, 715, 0,t
2025-02-19 11:58:02.731,791, 57, 600, 0, -1, 0, -4, -7, 10, 727, 0,t
2025-02-19 11:58:02.830,784, 61, 592, 1, -1, 1, -2, -7, 8, 754, 0,t
2025-02-19 11:58:02.943,765, 50, 605, -2, 2, 1, -2, -10, 7, 766, 0,t
2025-02-19 11:58:03.054,781, 63, 604, -2, -1, -3, -3, -7, 12, 778, 0,t
2025-02-19 11:58:03.161,778, 70, 599, -2, -2, -5, 0, -7, 7, 789, 0,t
2025-02-19 11:58:03.267,794, 59, 602, -3, -1, -6, -2, -8, 9, 816, 0,t
2025-02-19 11:58:03.374,798, 57, 599, -8, -2, -8, -3, -8, 9, 790, 0,t
2025-02-19 11:58:03.481,862, 357, 462, 16, -7, 26, -1, -7, 7, 362, 0,t
2025-02-19 11:58:03.591,807, -30, 631, 2, 26, -17, -1, -6, 10, 819, 0,t
2025-02-19 11:58:03.698,771, 53, 668, -6, 2, -22, -2, -8, 9, 540, 0,t
2025-02-19 11:58:03.804,821, 137, 610, 22, -4, 17, -3, -9, 9, 820, 0,t
2025-02-19 11:58:03.914,508, -86, 708, -13, 22, 17, -1, -7, 6, 503, 0,t
2025-02-19 11:58:05.131,790, 43, 614, -1, -2, 1, -2, -8, 9, 646, 0,u
2025-02-19 11:58:05.224,778, 35, 617, -1, -1, 0, 0, -8, 11, 721, 0,u
2025-02-19 11:58:05.332,770, 34, 608, 2, -2, 0, -2, -6, 8, 738, 0,u
2025-02-19 11:58:05.441,771, 37, 608, -1, -2, -1, -1, -6, 10, 744, 0,u
2025-02-19 11:58:05.544,820, 85, 613, 3, -5, -8, -3, -9, 10, 731, 0,u
2025-02-19 11:58:05.651,792, -4, 547, 0, 4, -25, -3, -8, 6, 636, 0,u
2025-02-19 11:58:05.762,829, 39, 567, 1, -22, -8, -2, -5, 10, 483, 0,u
2025-02-19 11:58:05.868,801, 55, 581, 8, 2, -31, -1, -8, 10, 737, 0,u
2025-02-19 11:58:05.979,1012, 130, 576, -12, 65, 13, -3, -6, 10, 775, 0,u
2025-02-19 11:58:06.085,621, -55, 683, 4, -11, -10, -1, -5, 7, 685, 0,u
2025-02-19 11:58:07.001,781, 41, 608, -1, -1, -2, -2, -7, 9, 696, 0,v
2025-02-19 11:58:07.093,764, 31, 611, 3, 1, -2, -3, -6, 9, 719, 0,v
2025-02-19 11:58:07.199,779, 31, 610, 0, 0, 0, -2, -7, 9, 750, 0,v
2025-02-19 11:58:07.310,762, 41, 615, 6, -3, -2, -3, -8, 7, 766, 0,v
2025-02-19 11:58:07.420,829, 114, 557, 4, 10, -14, -2, -5, 10, 791, 0,v
2025-02-19 11:58:07.527,780, 63, 602, -2, 3, -17, -2, -8, 10, 747, 0,v
2025-02-19 11:58:07.631,806, 178, 613, -16, -5, 22, -2, -7, 9, 334, 0,v
2025-02-19 11:58:07.738,810, 71, 572, 3, 0, -15, -2, -5, 12, 707, 0,v
2025-02-19 11:58:07.850,731, 35, 592, -27, 62, 34, -1, -8, 10, 598, 0,v
2025-02-19 11:58:07.956,826, 37, 624, 18, -24, -11, -2, -6, 8, 589, 0,v
2025-02-19 11:58:08.871,785, 43, 600, 0, -1, -1, -1, -6, 10, 635, 0,w
2025-02-19 11:58:08.968,785, 37, 598, -1, 0, -1, -2, -6, 9, 705, 0,w
2025-02-19 11:58:09.075,781, 32, 609, -1, 1, 0, -2, -9, 8, 757, 0,w
2025-02-19 11:58:09.181,780, 25, 617, 2, 2, -1, -1, -5, 9, 788, 0,w
2025-02-19 11:58:09.292,738, 16, 615, 10, -10, -14, -2, -7, 10, 786, 0,w
2025-02-19 11:58:09.398,782, -2, 616, -7, 2, -15, -3, -9, 8, 610, 0,w
2025-02-19 11:58:09.501,835, 134, 602, -2, -11, 12, -2, -4, 11, 235, 0,w
2025-02-19 11:58:09.612,796, -49, 605, 1, 0, -14, -3, -8, 13, 562, 0,w
2025-02-19 11:58:09.713,772, 122, 553, 1, -1, 10, -2, -6, 10, 293, 0,w
2025-02-19 11:58:09.829,775, -70, 563, 9, -4, -11, -2, -5, 12, 684, 127,w
2025-02-19 11:58:09.936,684, -36, 593, -24, 59, 35, -1, -5, 10, 242, 60,w
2025-02-19 11:58:11.050,804, 23, 575, -1, -1, -1, -2, -5, 9, 650, 89,x
2025-02-19 11:58:11.143,805, 25, 582, 0, -1, 0, 0, -5, 8, 661, 91,x
2025-02-19 11:58:11.254,811, 39, 568, 0, -2, -2, -2, -6, 12, 679, 0,x
2025-02-19 11:58:11.360,807, 36, 574, 0, -3, -3, -1, -7, 10, 683, 0,x
2025-02-19 11:58:11.472,1459, 69, 559, -8, -11, -17, 0, -7, 10, 750, 0,x
2025-02-19 11:58:11.578,696, -125, 367, 30, 72, 13, -2, -5, 11, 334, 0,x
2025-02-19 11:58:11.688,980, 100, 608, 15, 20, -30, 0, -6, 10, 487, 110,x
2025-02-19 11:58:11.795,822, 56, 498, -7, 0, -32, -1, -8, 10, 626, 112,x
2025-02-19 11:58:11.897,841, 17, 558, 23, -7, 21, -2, -4, 12, 456, 0,x
2025-02-19 11:58:12.008,534, -140, 722, -30, 48, 23, 0, -3, 6, 377, 0,x
2025-02-19 11:58:13.721,762, 6, 621, 4, -3, -4, -1, -5, 8, 693, 0,y
2025-02-19 11:58:13.819,743, 28, 615, 9, -16, -7, -2, -8, 8, 734, 0,y
2025-02-19 11:58:13.924,747, 16, 613, -9, 13, 3, 0, -7, 9, 746, 0,y
2025-02-19 11:58:14.035,763, 18, 603, 12, -28, -21, -2, -6, 11, 801, 0,y
2025-02-19 11:58:14.141,865, 156, 601, -7, -11, 28, 0, -7, 11, 432, 0,y
2025-02-19 11:58:14.244,716, -7, 615, 13, 3, -38, -2, -7, 11, 824, 0,y
2025-02-19 11:58:14.359,767, -5, 660, -15, -13, 46, -1, -6, 10, 583, 0,y
2025-02-19 11:58:14.464,931, 39, 478, 38, 47, -41, -3, -6, 9, 632, 0,y
2025-02-19 11:58:14.572,503, -74, 754, -6, -10, -4, 0, -4, 8, 661, 0,y
2025-02-19 11:58:15.587,790, 25, 599, 1, -6, -3, -2, -4, 9, 729, 0,z
2025-02-19 11:58:15.686,791, 30, 599, 1, -3, -3, -2, -5, 11, 744, 0,z
2025-02-19 11:58:15.789,798, 31, 595, -1, 1, -4, -1, -7, 7, 774, 0,z
2025-02-19 11:58:15.895,776, 35, 606, 0, 7, -5, 0, -5, 9, 761, 0,z
2025-02-19 11:58:16.005,744, 26, 609, 10, 4, -14, -2, -6, 9, 724, 0,z
2025-02-19 11:58:16.112,859, 240, 556, 0, -48, 0, 0, -9, 8, 780, 0,z
2025-02-19 11:58:16.222,654, -36, 619, 0, 21, 46, -1, -5, 10, 574, 0,z
2025-02-19 11:58:16.328,740, 111, 587, -16, -37, 16, -1, -6, 10, 205, 0,z
2025-02-19 11:58:16.435,718, 121, 617, 15, 20, -8, 0, -7, 9, 449, 0,z
2025-02-19 11:58:16.545,766, 286, 673, -18, -14, -14, -2, -7, 9, 589, 0,z
2025-02-19 11:58:16.647,755, 147, 604, 13, 1, 10, -2, -6, 10, 757, 0,z
2025-02-19 11:58:16.754,675, -33, 674, -9, 31, 20, -1, -6, 7, 571, 0,z
2025-02-19 11:58:18.474,779, 41, 606, 0, -2, -6, -1, -6, 8, 644, 0,0
2025-02-19 11:58:18.569,777, 32, 606, 3, 0, -6, -2, -6, 10, 696, 0,0
2025-02-19 11:58:18.676,772, 46, 594, 5, -4, -6, -3, -7, 8, 742, 0,0
2025-02-19 11:58:18.783,797, 47, 599, 1, -5, 3, -3, -7, 9, 786, 0,0
2025-02-19 11:58:18.893,772, 56, 591, 6, -9, -5, -2, -9, 10, 808, 0,0
2025-02-19 11:58:18.999,810, 29, 603, -12, 14, -24, -2, -9, 9, 677, 0,0
2025-02-19 11:58:19.110,761, 189, 602, -12, -17, 29, -2, -7, 10, 372, 0,0
2025-02-19 11:58:19.212,879, 73, 550, 21, 8, -7, -1, -8, 11, 784, 0,0
2025-02-19 11:58:19.321,470, -65, 754, -33, 50, 43, 1, -4, 7, 634, 0,0
2025-02-19 11:58:19.425,851, 12, 629, 5, -13, -1, -2, -4, 7, 692, 0,0
2025-02-19 11:58:20.640,811, 8, 611, -1, -5, -6, -2, -7, 9, 724, 81,1
2025-02-19 11:58:20.732,778, 4, 615, -4, -1, -2, -3, -6, 8, 742, 0,1
2025-02-19 11:58:20.850,792, -1, 606, -1, -1, -3, -3, -6, 10, 757, 0,1
2025-02-19 11:58:20.950,791, 1, 597, 1, -3, -2, 0, -8, 9, 770, 0,1
2025-02-19 11:58:21.063,793, -10, 606, -2, 0, -2, -1, -6, 8, 776, 0,1
2025-02-19 11:58:21.170,757, 0, 609, -2, -2, -2, -3, -4, 11, 771, 0,1
2025-02-19 11:58:21.276,799, 11, 554, -10, 7, 6, 0, -8, 9, 741, 0,1
2025-02-19 11:58:21.380,763, -4, 637, -1, -11, -13, -1, -9, 10, 850, 0,1
2025-02-19 11:58:21.486,800, 16, 613, -2, 1, -9, -3, -6, 11, 831, 0,1
2025-02-19 11:58:21.596,861, 247, 487, -9, -2, 32, 0, -8, 9, 521, 0,1
2025-02-19 11:58:21.706,791, -40, 686, -4, 32, 12, -2, -7, 8, 799, 0,1
2025-02-19 11:58:21.811,795, -122, 626, 4, 7, -14, -2, -5, 10, 480, 0,1
2025-02-19 11:58:21.910,795, -1, 586, 23, 0, 11, -1, -5, 9, 533, 0,1
2025-02-19 11:58:22.031,685, -69, 605, -11, 35, 14, -2, -6, 10, 638, 0,1
2025-02-19 11:58:23.050,768, 28, 607, 4, -13, -14, -3, -6, 10, 765, 0,2
2025-02-19 11:58:23.140,824, 67, 569, -3, 5, -5, 0, -6, 10, 780, 0,2
2025-02-19 11:58:23.247,782, 40, 603, 0, 6, -9, -3, -8, 7, 784, 0,2
2025-02-19 11:58:23.353,738, 32, 608, 1, 0, -8, -2, -9, 11, 778, 0,2
2025-02-19 11:58:23.464,844, -23, 514, 17, 5, -14, -1, -8, 10, 774, 0,2
2025-02-19 11:58:23.571,756, 81, 608, 14, -7, -4, 0, -11, 10, 840, 0,2
2025-02-19 11:58:23.680,933, 197, 448, -19, 12, 18, 0, -5, 11, 374, 0,2
2025-02-19 11:58:23.785,756, 123, 600, -13, -39, 16, -1, -7, 8, 324, 0,2
2025-02-19 11:58:23.893,1124, 75, 432, -3, 51, 7, -2, -8, 9, 619, 108,2
2025-02-19 11:58:23.992,637, -56, 682, -16, 2, 1, 0, -4, 9, 436, 0,2
2025-02-19 11:58:25.212,776, 35, 614, 0, -6, -11, -1, -7, 9, 793, 0,3
2025-02-19 11:58:25.312,791, 73, 589, -3, 5, -7, -2, -6, 9, 802, 0,3
2025-02-19 11:58:25.422,692, 8, 631, 3, -17, -18, -1, -9, 10, 801, 0,3
2025-02-19 11:58:25.530,1029, 79, 612, 5, -16, -14, -1, -9, 10, 825, 0,3
2025-02-19 11:58:25.634,674, 5, 662, 8, 17, 36, -2, -8, 9, 798, 0,3
2025-02-19 11:58:25.745,723, 35, 543, -10, -23, 31, -2, -9, 9, 706, 0,3
2025-02-19 11:58:25.852,829, 117, 517, -7, 12, 27, -2, -7, 9, 313, 0,3
2025-02-19 11:58:25.958,742, 36, 570, -43, 60, 22, -3, -4, 7, 615, 0,3
2025-02-19 11:58:26.065,706, -59, 662, 19, -37, -27, 0, -4, 7, 701, 0,3
2025-02-19 11:58:27.980,746, 14, 602, -8, 7, -6, -3, -9, 9, 801, 0,4
2025-02-19 11:58:28.075,789, 37, 620, 3, -7, -2, -1, -8, 10, 813, 0,4
2025-02-19 11:58:28.186,808, 54, 595, 1, -2, -3, -2, -7, 10, 816, 0,4
2025-02-19 11:58:28.292,749, 59, 582, 0, -17, -14, 0, -10, 10, 829, 0,4
2025-02-19 11:58:28.399,794, 28, 618, -7, -3, -5, 0, -11, 10, 826, 0,4
2025-02-19 11:58:28.506,866, 252, 504, 1, 7, 20, -2, -9, 12, 573, 0,4
2025-02-19 11:58:28.616,765, 58, 583, -5, -27, 2, -2, -8, 10, 502, 0,4
2025-02-19 11:58:28.722,878, 183, 571, -3, 25, -8, -3, -10, 10, 773, 0,4
2025-02-19 11:58:28.824,807, -11, 591, -13, 2, -18, -1, -8, 10, 783, 0,4
2025-02-19 11:58:28.936,866, 194, 467, 23, 7, 30, -2, -8, 9, 427, 0,4
2025-02-19 11:58:29.047,649, -117, 641, -49, 55, 15, -2, -6, 8, 666, 0,4
2025-02-19 11:58:31.659,789, 86, 601, -3, 1, 0, -3, -9, 8, 728, 0,5
2025-02-19 11:58:31.758,792, 82, 604, -2, 0, 1, -2, -10, 10, 740, 0,5
2025-02-19 11:58:31.859,745, 58, 613, -3, 0, 1, -1, -9, 10, 756, 0,5
2025-02-19 11:58:31.971,772, 64, 604, 0, -2, -1, -2, -7, 9, 767, 0,5
2025-02-19 11:58:32.077,775, 85, 602, -1, -1, -2, -2, -9, 9, 768, 0,5
2025-02-19 11:58:32.184,785, 87, 605, -2, 1, -4, -2, -9, 9, 761, 0,5
2025-02-19 11:58:32.290,841, 100, 581, 2, -2, -3, -2, -9, 9, 743, 0,5
2025-02-19 11:58:32.401,819, 134, 598, 1, -7, -5, -3, -10, 10, 802, 0,5
2025-02-19 11:58:32.507,782, 71, 621, 8, -4, 3, -1, -10, 10, 804, 0,5
2025-02-19 11:58:32.614,763, 77, 600, -1, 2, 2, -2, -10, 10, 794, 0,5
2025-02-19 11:58:32.721,768, 77, 587, 0, -10, -4, -2, -11, 8, 768, 0,5
2025-02-19 11:58:32.831,836, 331, 515, -23, -52, -16, -1, -9, 10, 635, 0,5
2025-02-19 11:58:32.938,726, 36, 596, 10, 18, 33, -1, -9, 10, 782, 0,5
2025-02-19 11:58:33.044,843, 127, 579, -7, 0, -2, -2, -9, 10, 758, 0,5
2025-02-19 11:58:33.150,818, 216, 535, 0, -4, 16, -3, -7, 11, 689, 0,5
2025-02-19 11:58:33.258,720, 5, 675, -5, -12, 8, -2, -6, 10, 754, 0,5
2025-02-19 11:58:33.361,731, 140, 540, 28, 33, 18, -3, -7, 10, 369, 0,5
2025-02-19 11:58:33.474,649, -30, 683, -32, 46, 5, -2, -3, 6, 602, 46,5
2025-02-19 11:58:33.581,744, -11, 639, 8, -31, -22, 0, -4, 7, 569, 48,5
2025-02-19 11:58:34.590,777, 5, 643, 7, -15, -7, -3, -8, 7, 761, 67,6
2025-02-19 11:58:34.690,794, 41, 611, -3, -1, -5, -2, -7, 9, 780, 0,6
2025-02-19 11:58:34.801,769, 27, 617, 0, -7, -6, -3, -6, 10, 788, 0,6
2025-02-19 11:58:34.908,798, 52, 591, 0, -7, -5, -2, -9, 9, 792, 0,6
2025-02-19 11:58:35.010,792, 139, 514, -8, -6, -14, -3, -8, 8, 783, 0,6
2025-02-19 11:58:35.120,734, -127, 660, 32, 30, 30, 0, -8, 9, 562, 0,6
2025-02-19 11:58:35.231,783, 57, 668, 11, -16, 15, -3, -6, 8, 440, 0,6
2025-02-19 11:58:35.338,905, 73, 480, 12, 22, -9, -2, -7, 10, 709, 0,6
2025-02-19 11:58:35.440,639, 24, 691, -32, 33, 8, 0, -5, 7, 574, 0,6
2025-02-19 11:58:36.560,805, 51, 614, 2, -1, -4, -2, -9, 9, 756, 0,7
2025-02-19 11:58:36.657,776, 69, 619, 2, -3, -3, -2, -8, 9, 770, 0,7
2025-02-19 11:58:36.763,784, 59, 605, 3, -3, -3, -1, -9, 9, 774, 0,7
2025-02-19 11:58:36.873,757, 33, 602, 4, -15, -12, 0, -11, 9, 758, 0,7
2025-02-19 11:58:36.981,787, 42, 602, -5, -16, 5, -4, -9, 9, 784, 0,7
2025-02-19 11:58:37.082,767, 219, 529, 1, 2, 57, 0, -8, 10, 110, 0,7
2025-02-19 11:58:37.191,800, 78, 602, 13, 15, -24, -1, -4, 10, 524, 0,7
2025-02-19 11:58:37.300,806, -48, 552, 4, 8, -15, -2, -7, 10, 124, 0,7
2025-02-19 11:58:37.406,749, -13, 631, 23, -7, 7, 0, -9, 11, 369, 0,7
2025-02-19 11:58:37.511,797, 2, 525, -23, 50, 31, -2, -8, 10, 415, 0,7
2025-02-19 11:58:38.434,816, 33, 579, 1, -1, 1, -2, -6, 12, 477, 0,8
2025-02-19 11:58:38.528,820, 43, 569, -1, -1, 0, -1, -7, 11, 479, 0,8
2025-02-19 11:58:38.635,811, 38, 563, -1, 0, 0, -1, -7, 9, 543, 0,8
2025-02-19 11:58:38.742,790, 35, 598, -1, 5, -7, -2, -6, 10, 503, 0,8
2025-02-19 11:58:38.852,786, 19, 589, -3, 3, -6, -1, -8, 10, 415, 0,8
2025-02-19 11:58:38.958,964, 125, 561, 5, -14, 44, 0, -7, 10, 163, 0,8
2025-02-19 11:58:39.060,758, 43, 641, 13, 5, -56, -2, -6, 11, 716, 0,8
2025-02-19 11:58:39.172,864, 123, 594, -23, -33, 1, -1, -11, 10, 766, 0,8
2025-02-19 11:58:39.281,761, 147, 415, 14, 27, 42, -1, -10, 9, 407, 0,8
2025-02-19 11:58:39.389,680, -42, 685, -57, 67, 43, -2, -4, 8, 391, 0,8
2025-02-19 11:58:40.803,776, 24, 603, -1, -2, -3, -2, -6, 10, 528, 0,9
2025-02-19 11:58:40.900,774, 31, 604, 0, -2, -3, -2, -7, 8, 608, 0,9
2025-02-19 11:58:41.006,810, 43, 598, -3, 0, -4, -2, -7, 10, 636, 0,9
2025-02-19 11:58:41.117,789, 45, 599, -2, -2, -4, -3, -6, 10, 655, 0,9
2025-02-19 11:58:41.223,791, 42, 601, -2, -1, -4, -1, -7, 8, 711, 0,9
2025-02-19 11:58:41.330,772, 21, 604, 1, -4, -2, -2, -8, 10, 744, 0,9
2025-02-19 11:58:41.436,792, 45, 589, 3, -7, -3, -1, -8, 11, 757, 0,9
2025-02-19 11:58:41.543,801, 54, 588, 1, -1, -3, -4, -8, 10, 764, 0,9
2025-02-19 11:58:41.649,802, 72, 581, -3, 2, -2, -2, -10, 10, 778, 0,9
2025-02-19 11:58:41.760,798, 67, 585, 3, -10, -13, -1, -9, 10, 808, 0,9
2025-02-19 11:58:41.866,824, 51, 533, 6, 12, -13, -2, -10, 9, 670, 0,9
2025-02-19 11:58:41.973,799, 111, 604, -4, -9, 23, -2, -8, 10, 602, 0,9
2025-02-19 11:58:42.080,786, -26, 576, 6, 6, -20, -1, -9, 13, 822, 0,9
2025-02-19 11:58:42.190,854, 221, 519, -2, -6, 40, -2, -6, 10, 389, 0,9
2025-02-19 11:58:42.295,742, 71, 552, -50, 97, 42, -2, -5, 7, 597, 0,9
2025-02-19 11:58:42.403,545, -112, 729, 24, -32, -4, 0, -3, 5, 398, 31,9
2025-02-19 11:58:42.505,823, -1, 663, 4, -2, 6, -2, -3, 5, 301, 41,9
