Timestamp,Acc_X,Acc_Y,Acc_Z,Gyro_X,Gyro_Y,Gyro_Z,Mag_X,Mag_Y,Mag_Z,Force,IR_A,Letter
2025-02-19 13:31:26.426,575, -319, 806, 2, -16, -23, -5, 8, 12, 0, 16,noise
2025-02-19 13:31:26.521,486, -323, 831, 30, -9, -7, -5, 7, 9, 0, 17,noise
2025-02-19 13:31:26.623,511, -258, 798, 7, 5, -5, -7, 5, 8, 0, 18,noise
2025-02-19 13:31:26.733,637, -226, 745, 18, -33, 1, -7, 4, 12, 0, 20,noise
2025-02-19 13:31:26.838,559, -177, 739, -19, 6, 17, -7, 6, 7, 0, 18,noise
2025-02-19 13:31:26.950,491, -278, 839, -36, -9, 12, -6, 6, 10, 0, 16,noise
2025-02-19 13:31:27.057,581, -370, 767, 3, -30, -28, -5, 7, 13, 0, 19,noise
2025-02-19 13:31:27.161,491, -305, 677, 5, 17, 3, -6, 5, 11, 1, 17,noise
2025-02-19 13:31:27.268,492, -278, 745, 2, 5, -5, -6, 5, 10, 0, 17,noise
2025-02-19 13:31:27.381,628, -239, 803, -2, -3, -27, -7, 6, 10, 1, 19,noise
2025-02-19 13:31:27.487,517, -288, 781, -13, -10, 3, -8, 5, 10, 0, 19,noise
2025-02-19 13:31:27.592,627, -243, 760, -1, -22, -12, -7, 5, 13, 0, 22,noise
2025-02-19 13:31:27.692,590, -274, 735, 0, 12, 6, -7, 5, 13, 0, 22,noise
2025-02-19 13:31:27.807,482, -145, 824, 5, 2, -3, -8, 6, 11, 0, 21,noise
2025-02-19 13:31:27.913,605, -266, 767, 6, -1, -2, -7, 4, 11, 0, 20,noise
2025-02-19 13:31:28.018,585, -234, 748, 2, -33, -8, -8, 5, 11, 1, 22,noise
2025-02-19 13:31:28.125,644, -206, 695, 5, -6, 1, -8, 5, 13, 0, 27,noise
2025-02-19 13:31:28.236,661, -204, 713, -11, 14, 1, -7, 4, 15, 0, 28,noise
2025-02-19 13:31:28.343,584, -216, 753, -2, 14, 2, -7, 5, 12, 0, 26,noise
2025-02-19 13:31:28.448,578, -243, 734, 6, -6, 6, -7, 6, 13, 0, 25,noise
2025-02-19 13:31:28.556,632, -221, 741, -9, -10, -1, -7, 4, 11, 0, 27,noise
2025-02-19 13:31:28.659,659, -219, 731, 13, 7, -2, -8, 3, 12, 2, 28,noise
2025-02-19 13:31:28.768,586, -196, 763, 3, 3, 3, -7, 4, 13, 0, 24,noise
2025-02-19 13:31:28.879,669, -181, 727, 3, -14, -4, -9, 4, 12, 0, 27,noise
2025-02-19 13:31:28.986,568, -235, 770, -5, 6, -4, -8, 3, 10, 0, 25,noise
2025-02-19 13:31:29.093,598, -202, 772, -5, 4, 2, -8, 5, 11, 0, 24,noise
2025-02-19 13:31:29.198,587, -205, 750, 0, -16, -10, -8, 3, 11, 3, 26,noise
2025-02-19 13:31:29.306,621, -174, 791, 9, -2, -6, -9, 4, 11, 0, 27,noise
2025-02-19 13:31:29.409,655, -214, 738, 1, -16, -22, -10, 2, 13, 0, 30,noise
2025-02-19 13:31:29.523,833, -169, 772, -23, 26, -15, -8, 3, 11, 8, 28,noise
2025-02-19 13:31:29.628,512, -151, 790, -12, 2, -2, -8, 4, 11, 0, 23,noise
2025-02-19 13:31:29.734,631, -175, 772, -3, -4, -6, -9, 3, 13, 0, 26,noise
2025-02-19 13:31:29.842,666, -102, 809, -4, -3, 1, -9, 2, 11, 0, 25,noise
2025-02-19 13:31:29.948,628, -145, 743, -4, 7, 6, -8, 2, 12, 3, 26,noise
2025-02-19 13:31:30.058,612, -195, 767, -2, -7, -4, -9, 1, 12, 0, 26,noise
2025-02-19 13:31:30.165,635, -156, 758, -5, -2, -8, -8, 2, 11, 1, 25,noise
2025-02-19 13:31:30.268,637, -159, 754, 4, -7, -2, -9, 2, 12, 0, 26,noise
2025-02-19 13:31:30.378,657, -151, 747, -1, -3, -1, -8, 1, 12, 0, 30,noise
2025-02-19 13:31:30.486,625, -158, 754, -1, -10, -5, -9, 3, 11, 0, 32,noise
2025-02-19 13:31:30.591,648, -96, 742, -3, -1, 4, -10, 1, 14, 6, 35,noise
2025-02-19 13:31:30.698,700, -127, 724, 0, 6, 4, -9, 1, 13, 0, 34,noise
2025-02-19 13:31:30.808,617, -150, 732, -3, -5, -3, -9, 1, 13, 0, 33,noise
2025-02-19 13:31:30.915,688, -137, 732, 0, -3, 0, -10, 0, 14, 0, 36,noise
2025-02-19 13:31:34.237,692, -211, 663, -13, -24, -5, -11, 0, 16, 159, 37,A
2025-02-19 13:31:34.328,635, -222, 642, 12, 1, 2, -11, 1, 19, 109, 38,A
2025-02-19 13:31:34.443,713, -169, 651, -14, 10, -2, -11, 0, 18, 117, 39,A
2025-02-19 13:31:34.548,641, -233, 694, -24, 0, -5, -12, -1, 15, 240, 36,A
2025-02-19 13:31:34.655,751, -193, 671, -29, -4, -6, -12, 2, 18, 393, 39,A
2025-02-19 13:31:34.765,668, -272, 662, -18, -3, -14, -11, -2, 18, 602, 40,A
2025-02-19 13:31:34.872,708, -247, 620, -18, -9, -19, -13, -1, 19, 583, 43,A
2025-02-19 13:31:34.979,704, -308, 632, -2, -12, -25, -11, -2, 20, 485, 51,A
2025-02-19 13:31:35.085,788, -203, 607, 1, -6, -12, -13, -4, 21, 509, 69,A
2025-02-19 13:31:35.190,741, -202, 606, 6, -1, -8, -15, -5, 19, 503, 71,A
2025-02-19 13:31:35.302,733, -218, 618, 10, -13, -14, -12, -4, 22, 576, 85,A
2025-02-19 13:31:35.404,781, -156, 587, -2, 0, -4, -12, -6, 21, 614, 104,A
2025-02-19 13:31:35.512,796, -137, 563, 4, 0, -6, -14, -5, 21, 651, 120,A
2025-02-19 13:31:35.622,700, -363, 665, 14, 9, -7, -11, -7, 20, 471, 122,A
2025-02-19 13:31:35.724,819, -119, 574, 15, 8, 30, -13, -4, 23, 0, 119,A
2025-02-19 13:31:35.839,451, -384, 674, -18, -8, -42, -12, -6, 20, 493, 117,A
2025-02-19 13:31:35.939,684, -358, 643, 7, -50, 68, -14, -7, 21, 506, 120,A
2025-02-19 13:31:36.048,559, -166, 458, 23, 42, -27, -13, -2, 22, 475, 120,A
2025-02-19 13:31:36.158,795, -258, 540, 33, 9, -21, -14, -7, 21, 139, 117,A
2025-02-19 13:31:36.265,733, -141, 642, 38, -2, 8, -12, -5, 20, 643, 110,A
2025-02-19 13:31:36.375,606, -217, 664, -18, 62, 34, -13, -3, 19, 447, 50,A
2025-02-19 13:31:37.292,772, -104, 618, -2, -6, -6, -13, -3, 21, 568, 79,B
2025-02-19 13:31:37.378,767, -108, 612, -1, -6, -5, -12, -4, 20, 572, 86,B
2025-02-19 13:31:37.493,754, -105, 610, -3, -5, -9, -13, -5, 21, 546, 95,B
2025-02-19 13:31:37.604,740, -64, 602, -1, -4, -12, -11, -6, 20, 545, 109,B
2025-02-19 13:31:37.710,738, -402, 610, 30, 12, 6, -13, -8, 21, 473, 116,B
2025-02-19 13:31:37.818,998, -27, 697, 13, -16, 27, -13, -4, 21, 45, 119,B
2025-02-19 13:31:37.923,852, -287, 546, 22, 1, -35, -12, -6, 20, 454, 114,B
2025-02-19 13:31:38.034,678, -113, 699, 0, -10, 35, -13, -8, 23, 514, 117,B
2025-02-19 13:31:38.139,834, -56, 590, -5, -26, 31, -13, -7, 20, 357, 116,B
2025-02-19 13:31:38.239,815, -96, 530, -23, 3, 39, -12, -6, 21, 19, 122,B
2025-02-19 13:31:38.354,822, -47, 469, -47, 77, 37, -11, -2, 20, 205, 63,B
2025-02-19 13:31:38.464,738, -133, 648, 27, -45, -24, -11, -4, 19, 416, 57,B
2025-02-19 13:31:39.378,803, -89, 600, 6, -3, -4, -13, -5, 21, 567, 87,C
2025-02-19 13:31:39.472,787, -82, 596, -3, 1, -4, -12, -4, 22, 599, 89,C
2025-02-19 13:31:39.582,783, -80, 595, -1, -2, -6, -13, -6, 20, 623, 89,C
2025-02-19 13:31:39.690,687, -90, 621, 13, -27, -28, -12, -6, 23, 687, 113,C
2025-02-19 13:31:39.799,756, -217, 571, 2, 22, -20, -14, -7, 22, 487, 117,C
2025-02-19 13:31:39.905,842, 62, 589, 36, -18, 46, -13, -6, 18, 420, 115,C
2025-02-19 13:31:40.012,1072, 51, 567, -41, 76, 28, -12, -4, 20, 707, 23,C
2025-02-19 13:31:40.122,651, -148, 670, -2, -13, -10, -10, -4, 18, 590, 45,C
2025-02-19 13:31:40.225,783, -87, 614, -3, 1, -2, -13, -5, 18, 605, 54,C
2025-02-19 13:31:41.139,773, -68, 613, 0, -5, -7, -14, -7, 19, 621, 75,D
2025-02-19 13:31:41.241,780, -70, 605, -2, -7, -10, -12, -6, 20, 620, 86,D
2025-02-19 13:31:41.347,810, -42, 589, -4, -1, -8, -14, -5, 22, 587, 101,D
2025-02-19 13:31:41.458,770, -34, 586, -10, 3, -19, -12, -8, 20, 567, 110,D
2025-02-19 13:31:41.565,775, -317, 798, 20, 3, 34, -13, -9, 21, 394, 112,D
2025-02-19 13:31:41.672,879, -69, 642, 22, -6, 30, -12, -4, 21, 147, 117,D
2025-02-19 13:31:41.780,837, -183, 583, 16, -9, -41, -12, -8, 18, 511, 110,D
2025-02-19 13:31:41.888,724, 17, 688, -10, -11, 63, -13, -9, 19, 364, 115,D
2025-02-19 13:31:41.988,1326, 0, 584, 29, 44, 12, -13, -6, 20, 160, 105,D
2025-02-19 13:31:42.088,512, -164, 708, 3, -4, 3, -11, -4, 18, 324, 44,D
2025-02-19 13:31:43.018,794, -62, 614, -1, -6, -7, -13, -4, 20, 553, 77,E
2025-02-19 13:31:43.113,783, -62, 614, -1, -4, -6, -12, -6, 19, 572, 82,E
2025-02-19 13:31:43.219,802, -42, 599, 1, -4, -4, -13, -6, 20, 583, 94,E
2025-02-19 13:31:43.330,771, -53, 606, -4, -5, -15, -13, -6, 20, 568, 106,E
2025-02-19 13:31:43.440,813, -91, 606, -10, -5, -16, -11, -8, 20, 535, 113,E
2025-02-19 13:31:43.543,835, 227, 475, -7, -19, 37, -13, -4, 22, 0, 120,E
2025-02-19 13:31:43.653,674, -165, 585, -61, 43, -67, -13, -6, 21, 476, 97,E
2025-02-19 13:31:43.760,883, 169, 582, 36, -44, 3, -13, -11, 20, 611, 110,E
2025-02-19 13:31:43.867,785, -120, 567, 14, 30, 34, -12, -8, 21, 667, 108,E
2025-02-19 13:31:43.970,837, 24, 401, 7, 6, -5, -13, -8, 20, 345, 109,E
2025-02-19 13:31:44.079,748, 29, 635, 13, -4, 10, -11, -7, 20, 698, 110,E
2025-02-19 13:31:44.188,665, -41, 525, 12, -22, 10, -11, -5, 19, 315, 106,E
2025-02-19 13:31:44.293,792, -13, 543, 12, -18, 13, -12, -6, 19, 548, 111,E
2025-02-19 13:31:44.403,583, -171, 707, -22, 58, 4, -11, -4, 15, 427, 45,E
2025-02-19 13:31:45.222,778, -41, 612, -3, -3, -5, -12, -7, 20, 581, 87,F
2025-02-19 13:31:45.316,792, -5, 607, -2, -3, -3, -12, -8, 22, 592, 98,F
2025-02-19 13:31:45.421,775, 8, 604, -7, 3, -16, -14, -7, 21, 582, 104,F
2025-02-19 13:31:45.534,790, -123, 593, 0, -1, -24, -10, -10, 21, 586, 109,F
2025-02-19 13:31:45.638,851, 189, 498, 16, 2, 31, -13, -4, 20, 116, 115,F
2025-02-19 13:31:45.748,507, -277, 655, -14, -32, -66, -13, -7, 19, 575, 107,F
2025-02-19 13:31:45.857,726, 73, 660, 18, -21, 30, -13, -10, 20, 747, 107,F
2025-02-19 13:31:45.964,645, -45, 466, -32, 18, -6, -13, -6, 19, 533, 98,F
2025-02-19 13:31:46.071,786, 58, 578, 18, -29, 17, -12, -5, 20, 656, 109,F
2025-02-19 13:31:46.171,617, -89, 582, -52, 72, 27, -12, -6, 19, 557, 54,F
2025-02-19 13:31:47.088,778, -41, 615, -1, -4, -4, -11, -6, 18, 567, 69,G
2025-02-19 13:31:47.188,779, -34, 614, 0, -6, -5, -13, -7, 21, 601, 75,G
2025-02-19 13:31:47.298,775, -29, 607, 20, -13, 2, -13, -7, 18, 657, 82,G
2025-02-19 13:31:47.405,811, -16, 574, -8, 1, -13, -13, -7, 20, 715, 110,G
2025-02-19 13:31:47.508,936, 169, 496, 5, -6, 45, -13, -8, 21, 486, 110,G
2025-02-19 13:31:47.619,682, -40, 653, 7, -7, -39, -12, -6, 20, 723, 110,G
2025-02-19 13:31:47.728,839, 168, 520, -8, -15, 39, -13, -7, 22, 518, 113,G
2025-02-19 13:31:47.838,436, -295, 545, -26, -24, -63, -11, -6, 20, 578, 108,G
2025-02-19 13:31:47.942,770, 63, 604, 19, -21, 24, -12, -7, 19, 727, 113,G
2025-02-19 13:31:48.053,610, -212, 709, -21, 43, 15, -11, -6, 17, 624, 54,G
2025-02-19 13:31:48.863,788, -42, 604, -2, -1, -3, -13, -5, 19, 637, 78,H
2025-02-19 13:31:48.962,784, -36, 601, -3, 2, -2, -13, -6, 21, 644, 81,H
2025-02-19 13:31:49.070,786, -20, 606, -3, -1, -6, -13, -6, 19, 643, 85,H
2025-02-19 13:31:49.179,722, -24, 611, -7, -1, -19, -11, -8, 19, 609, 92,H
2025-02-19 13:31:49.285,753, -175, 666, 4, -18, 60, -12, -8, 21, 484, 110,H
2025-02-19 13:31:49.396,864, -23, 656, -14, -9, -27, -13, -6, 21, 223, 112,H
2025-02-19 13:31:49.502,859, 22, 445, 50, -5, -23, -11, -7, 20, 403, 110,H
2025-02-19 13:31:49.608,938, 142, 625, -26, 55, -12, -13, -6, 22, 717, 95,H
2025-02-19 13:31:49.708,855, -44, 624, -5, -15, 44, -12, -8, 19, 650, 111,H
2025-02-19 13:31:49.822,1332, 86, 432, 12, 75, 1, -13, -4, 21, 602, 99,H
2025-02-19 13:31:49.929,416, -262, 757, 1, -27, -24, -12, -1, 17, 546, 39,H
2025-02-19 13:31:50.748,763, -60, 611, 7, -7, -5, -13, -5, 20, 625, 71,I
2025-02-19 13:31:50.841,778, -52, 608, 1, -1, -2, -12, -5, 21, 658, 77,I
2025-02-19 13:31:50.948,781, -31, 605, 1, 0, -5, -13, -7, 18, 652, 81,I
2025-02-19 13:31:51.060,743, -23, 635, 2, 10, -9, -14, -5, 21, 633, 84,I
2025-02-19 13:31:51.166,913, 39, 449, -9, 2, -13, -14, -8, 20, 390, 107,I
2025-02-19 13:31:51.272,685, 23, 673, 7, -23, 11, -13, -9, 20, 753, 107,I
2025-02-19 13:31:51.383,548, -165, 629, -11, 0, -31, -13, -7, 21, 650, 96,I
2025-02-19 13:31:51.488,742, 56, 641, -9, -21, 59, -13, -9, 19, 460, 111,I
2025-02-19 13:31:51.595,768, -77, 647, -24, 56, 8, -12, -5, 18, 386, 90,I
2025-02-19 13:31:51.705,842, 231, 598, -15, -69, 36, -13, -5, 20, 328, 109,I
2025-02-19 13:31:51.809,1132, 25, 484, 0, 62, 11, -12, -5, 20, 635, 101,I
2025-02-19 13:31:51.918,554, -160, 695, 0, -8, -10, -11, -3, 16, 342, 40,I
2025-02-19 13:31:52.837,770, -61, 621, 0, -4, -7, -12, -6, 19, 617, 67,J
2025-02-19 13:31:52.931,792, -42, 614, 1, -1, -7, -13, -6, 19, 616, 75,J
2025-02-19 13:31:53.038,757, -38, 618, 0, 5, -9, -13, -6, 20, 617, 78,J
2025-02-19 13:31:53.144,716, 4, 633, 4, 0, -23, -12, -8, 18, 456, 93,J
2025-02-19 13:31:53.253,584, 90, 604, -4, -69, 28, -11, -11, 20, 683, 107,J
2025-02-19 13:31:53.363,839, 113, 658, -16, 51, -19, -12, -6, 20, 661, 105,J
2025-02-19 13:31:53.469,691, -207, 621, -15, -26, 56, -12, -9, 19, 601, 107,J
2025-02-19 13:31:53.578,618, -288, 563, 21, 77, -48, -14, -6, 20, 111, 115,J
2025-02-19 13:31:53.685,556, -107, 745, -17, 38, 29, -12, -4, 18, 333, 49,J
2025-02-19 13:31:53.788,893, -26, 602, -1, -11, -12, -11, -3, 17, 410, 56,J
2025-02-19 13:31:54.610,761, -62, 627, -4, -1, -4, -12, -5, 18, 436, 69,K
2025-02-19 13:31:54.704,779, -45, 629, 2, -1, -2, -12, -5, 18, 484, 74,K
2025-02-19 13:31:54.811,760, -49, 620, 2, -3, -6, -11, -7, 19, 519, 78,K
2025-02-19 13:31:54.921,743, -18, 622, -1, -1, -24, -13, -7, 20, 469, 90,K
2025-02-19 13:31:55.028,814, -184, 723, 4, -2, 23, -12, -8, 20, 496, 107,K
2025-02-19 13:31:55.135,826, 63, 595, 32, 10, 31, -14, -5, 19, 192, 111,K
2025-02-19 13:31:55.245,431, -220, 788, 8, -49, -24, -11, -7, 19, 671, 74,K
2025-02-19 13:31:55.351,664, -146, 684, 0, 20, -2, -14, -8, 20, 596, 112,K
2025-02-19 13:31:55.462,1116, -33, 669, -24, -39, 59, -13, -5, 20, 123, 109,K
2025-02-19 13:31:55.558,806, -65, 545, 30, 3, 18, -11, -5, 20, 189, 117,K
2025-02-19 13:31:55.668,556, -172, 708, -13, 18, -5, -11, -4, 18, 425, 52,K
2025-02-19 13:31:56.588,775, -34, 619, 1, -2, -5, -13, -4, 20, 539, 84,L
2025-02-19 13:31:56.686,777, -40, 610, 2, -2, -7, -12, -6, 19, 542, 93,L
2025-02-19 13:31:56.793,771, -19, 616, -5, 4, -9, -13, -8, 18, 524, 99,L
2025-02-19 13:31:56.900,798, -71, 583, -5, -2, -15, -13, -5, 20, 462, 109,L
2025-02-19 13:31:57.002,822, 146, 548, -7, -6, 31, -13, -7, 19, 0, 110,L
2025-02-19 13:31:57.117,804, -70, 576, 14, -24, 6, -12, -7, 19, 359, 112,L
2025-02-19 13:31:57.221,854, -17, 483, -40, 83, 25, -12, -4, 19, 586, 69,L
2025-02-19 13:31:57.328,691, -109, 660, 12, -23, -19, -11, -5, 17, 340, 51,L
2025-02-19 13:31:58.348,790, -32, 621, -7, -4, -5, -12, -5, 19, 493, 84,M
2025-02-19 13:31:58.438,783, -26, 625, -4, -2, -2, -12, -6, 20, 517, 91,M
2025-02-19 13:31:58.551,751, -29, 619, -5, 0, -10, -12, -8, 19, 490, 98,M
2025-02-19 13:31:58.658,804, -97, 629, -11, -2, -13, -12, -6, 21, 469, 109,M
2025-02-19 13:31:58.768,879, 258, 502, -18, -16, 38, -15, -7, 20, 0, 113,M
2025-02-19 13:31:58.878,767, -123, 636, -2, 12, -50, -14, -7, 21, 543, 108,M
2025-02-19 13:31:58.980,759, 54, 611, -6, -31, 63, -13, -8, 21, 403, 112,M
2025-02-19 13:31:59.091,809, -166, 645, 23, 9, -37, -13, -8, 20, 711, 112,M
2025-02-19 13:31:59.197,895, 261, 457, -1, -16, 49, -13, -5, 21, 148, 117,M
2025-02-19 13:31:59.301,567, -170, 594, -39, 71, 19, -11, -5, 19, 581, 53,M
2025-02-19 13:31:59.408,792, -39, 619, 11, -31, -21, -12, -4, 16, 499, 55,M
2025-02-19 13:32:00.228,794, -35, 598, -1, -7, -7, -12, -7, 20, 526, 86,N
2025-02-19 13:32:00.324,773, -56, 618, -6, 2, -3, -12, -6, 20, 524, 93,N
2025-02-19 13:32:00.431,781, -20, 609, 0, 4, -8, -15, -5, 20, 504, 97,N
2025-02-19 13:32:00.538,831, -25, 666, -2, -3, -13, -13, -8, 20, 486, 108,N
2025-02-19 13:32:00.647,837, 197, 540, -3, -15, 39, -12, -8, 18, 1, 112,N
2025-02-19 13:32:00.758,612, -201, 612, -2, -5, -64, -13, -5, 20, 535, 109,N
2025-02-19 13:32:00.864,802, 125, 659, 0, -57, 89, -12, -6, 20, 182, 114,N
2025-02-19 13:32:00.968,913, -239, 525, 44, 25, -97, -13, -7, 21, 549, 116,N
2025-02-19 13:32:01.077,705, 21, 566, -46, 63, 51, -14, -7, 18, 629, 64,N
2025-02-19 13:32:01.187,888, -28, 585, 11, -27, -27, -12, -6, 19, 574, 74,N
2025-02-19 13:32:02.000,785, -25, 607, 3, -4, -2, -12, -6, 20, 638, 85,O
2025-02-19 13:32:02.097,799, -28, 594, 4, -3, -2, -12, -6, 20, 656, 91,O
2025-02-19 13:32:02.208,787, -23, 595, 4, -8, -6, -11, -8, 18, 675, 100,O
2025-02-19 13:32:02.315,736, -19, 646, -9, 5, -16, -13, -8, 20, 621, 113,O
2025-02-19 13:32:02.418,986, 140, 527, 6, -48, 83, -13, -7, 21, 429, 110,O
2025-02-19 13:32:02.532,729, -26, 651, -22, 5, -84, -11, -8, 20, 708, 112,O
2025-02-19 13:32:02.638,920, 157, 540, -69, 84, 75, -12, -8, 17, 594, 64,O
2025-02-19 13:32:02.744,688, -93, 638, 28, -43, -20, -11, -4, 18, 524, 52,O
2025-02-19 13:32:02.847,803, -28, 613, -5, 8, 2, -13, -7, 17, 600, 68,O
2025-02-19 13:32:03.670,779, -27, 616, -1, -2, -2, -12, -6, 20, 564, 79,P
2025-02-19 13:32:03.764,771, -17, 619, -1, -1, -4, -13, -8, 20, 575, 81,P
2025-02-19 13:32:03.872,791, -17, 613, 0, -2, -6, -12, -7, 19, 555, 90,P
2025-02-19 13:32:03.982,833, -47, 620, 3, -8, -18, -13, -7, 19, 524, 109,P
2025-02-19 13:32:04.088,767, 96, 646, -13, -36, 87, -11, -8, 20, 191, 111,P
2025-02-19 13:32:04.191,834, -28, 638, 20, 34, -69, -13, -5, 20, 587, 111,P
2025-02-19 13:32:04.301,670, 80, 708, 15, -17, -3, -12, -7, 21, 720, 103,P
2025-02-19 13:32:04.407,936, 46, 484, -2, 27, 15, -12, -7, 18, 505, 109,P
2025-02-19 13:32:04.513,452, -166, 786, 5, -9, 4, -13, -4, 18, 608, 49,P
2025-02-19 13:32:04.620,873, 13, 584, 0, -7, -2, -11, -6, 19, 647, 76,P
2025-02-19 13:32:05.538,770, -31, 612, 1, -4, -3, -13, -6, 19, 633, 81,Q
2025-02-19 13:32:05.636,783, -11, 606, 4, -5, -3, -12, -7, 20, 655, 88,Q
2025-02-19 13:32:05.748,785, -11, 610, 9, -14, -16, -14, -7, 21, 667, 107,Q
2025-02-19 13:32:05.854,775, -9, 643, -7, 5, -23, -12, -9, 18, 551, 109,Q
2025-02-19 13:32:05.964,906, 326, 553, -8, -44, 91, -13, -7, 20, 384, 106,Q
2025-02-19 13:32:06.070,749, -250, 584, -12, -2, -41, -12, -7, 19, 723, 109,Q
2025-02-19 13:32:06.171,605, 38, 564, -13, 4, 27, -12, -7, 18, 448, 82,Q
2025-02-19 13:32:06.286,1051, 110, 792, -13, -58, 55, -11, -7, 20, 551, 107,Q
2025-02-19 13:32:06.391,1070, 102, 586, -32, 71, 15, -13, -4, 19, 674, 88,Q
2025-02-19 13:32:06.501,664, -112, 669, -2, -17, -17, -13, -4, 15, 423, 50,Q
2025-02-19 13:32:07.408,781, 3, 616, -1, 0, -3, -14, -9, 19, 606, 89,R
2025-02-19 13:32:07.508,776, 9, 613, -3, 3, -6, -11, -9, 20, 566, 91,R
2025-02-19 13:32:07.619,769, 3, 605, 8, -11, -17, -12, -8, 20, 452, 104,R
2025-02-19 13:32:07.728,792, -108, 572, -3, -1, -20, -10, -9, 20, 416, 105,R
2025-02-19 13:32:07.835,822, 122, 520, 18, -1, 25, -12, -6, 20, 167, 111,R
2025-02-19 13:32:07.938,822, -218, 578, 29, 3, -38, -13, -8, 18, 607, 102,R
2025-02-19 13:32:08.049,759, 151, 624, -31, -3, 46, -14, -8, 20, 618, 106,R
2025-02-19 13:32:08.159,667, 83, 632, -20, -55, 65, -12, -6, 20, 426, 108,R
2025-02-19 13:32:08.266,888, 89, 476, -63, 108, 23, -12, -3, 21, 417, 69,R
2025-02-19 13:32:08.372,625, -132, 680, 28, -35, -22, -12, -5, 16, 206, 45,R
2025-02-19 13:32:09.892,750, -70, 642, -5, -3, -7, -12, -5, 18, 389, 59,S
2025-02-19 13:32:09.983,720, -72, 635, -8, -16, -14, -11, -6, 18, 548, 69,S
2025-02-19 13:32:10.092,801, -24, 601, -5, -1, -6, -13, -5, 18, 638, 90,S
2025-02-19 13:32:10.199,786, -27, 622, 3, -5, -5, -15, -7, 20, 665, 97,S
2025-02-19 13:32:10.308,776, -18, 607, -1, -1, -3, -12, -8, 19, 690, 101,S
2025-02-19 13:32:10.411,808, -8, 583, 4, -10, -5, -14, -8, 20, 702, 104,S
2025-02-19 13:32:10.518,768, -25, 642, -11, 3, -20, -14, -7, 20, 687, 112,S
2025-02-19 13:32:10.630,897, 160, 599, 15, -25, 69, -11, -9, 21, 665, 109,S
2025-02-19 13:32:10.732,804, -73, 502, -4, 16, 18, -12, -5, 21, 517, 117,S
2025-02-19 13:32:10.841,566, -114, 634, -18, 49, 18, -13, -4, 17, 618, 53,S
2025-02-19 13:32:10.953,844, -48, 623, 4, -26, -14, -12, -4, 18, 609, 58,S
2025-02-19 13:32:11.055,757, -64, 641, -4, 2, -3, -11, -3, 18, 510, 61,S
2025-02-19 13:32:12.068,765, -40, 632, 0, -3, -6, -13, -4, 20, 610, 79,T
2025-02-19 13:32:12.173,785, -33, 621, 7, -3, -6, -11, -8, 18, 634, 89,T
2025-02-19 13:32:12.279,760, -8, 631, 0, 10, -7, -13, -7, 20, 587, 95,T
2025-02-19 13:32:12.386,808, 9, 623, -6, -3, -13, -13, -9, 20, 418, 106,T
2025-02-19 13:32:12.497,689, -6, 657, 11, -20, 11, -13, -8, 19, 808, 106,T
2025-02-19 13:32:12.598,651, -39, 510, -37, 31, -11, -12, -7, 21, 634, 91,T
2025-02-19 13:32:12.713,738, -48, 629, -10, -26, 64, -13, -7, 22, 457, 112,T
2025-02-19 13:32:12.814,853, -43, 612, 14, 9, -1, -12, -7, 19, 483, 111,T
2025-02-19 13:32:12.923,545, -163, 678, -14, 4, -6, -11, -5, 18, 339, 51,T
2025-02-19 13:32:13.843,768, -61, 631, -4, -1, -2, -13, -5, 18, 480, 70,U
2025-02-19 13:32:13.934,761, -75, 625, 0, 0, -3, -11, -4, 18, 391, 70,U
2025-02-19 13:32:14.041,769, -60, 622, -2, -1, -3, -13, -6, 18, 425, 74,U
2025-02-19 13:32:14.152,765, -50, 623, -1, 0, -4, -14, -7, 19, 437, 78,U
2025-02-19 13:32:14.259,770, -12, 612, -1, 3, -18, -13, -9, 20, 302, 88,U
2025-02-19 13:32:14.364,797, -117, 576, 6, 9, 1, -11, -8, 20, 230, 108,U
2025-02-19 13:32:14.475,885, 131, 611, 14, -25, 6, -13, -6, 19, 546, 110,U
2025-02-19 13:32:14.587,743, -138, 616, -15, 3, -26, -13, -7, 20, 706, 106,U
2025-02-19 13:32:14.692,833, 229, 502, -2, -16, 47, -10, -8, 19, 500, 109,U
2025-02-19 13:32:14.798,744, -52, 565, -39, 83, 21, -11, -5, 19, 617, 53,U
2025-02-19 13:32:14.909,728, -112, 666, 10, -32, -23, -12, -4, 18, 464, 45,U
2025-02-19 13:32:16.018,743, -66, 668, 2, -4, -2, -12, -5, 18, 81, 49,V
2025-02-19 13:32:16.118,742, -55, 657, -4, -5, -4, -12, -6, 17, 76, 52,V
2025-02-19 13:32:16.228,741, -58, 641, -8, -13, -5, -12, -6, 18, 249, 60,V
2025-02-19 13:32:16.334,755, -71, 636, -12, 0, -2, -13, -5, 20, 306, 67,V
2025-02-19 13:32:16.440,777, -62, 620, -1, 0, -9, -13, -5, 19, 270, 73,V
2025-02-19 13:32:16.548,798, -43, 619, 4, -12, -9, -13, -6, 20, 305, 90,V
2025-02-19 13:32:16.658,756, -55, 604, 0, -10, -14, -13, -10, 20, 364, 109,V
2025-02-19 13:32:16.763,740, -102, 663, -14, -37, 56, -12, -6, 19, 199, 112,V
2025-02-19 13:32:16.867,856, -10, 583, 2, -22, 2, -11, -6, 20, 72, 119,V
2025-02-19 13:32:16.977,819, 129, 560, 17, 7, -12, -12, -9, 22, 694, 114,V
2025-02-19 13:32:17.080,614, -173, 660, -15, 5, 15, -12, -6, 20, 519, 69,V
2025-02-19 13:32:17.180,862, 1, 577, -6, 4, 4, -12, -5, 20, 431, 80,V
2025-02-19 13:32:18.008,782, -73, 609, -2, 0, -1, -12, -7, 20, 214, 74,W
2025-02-19 13:32:18.108,784, -66, 612, -1, -1, -1, -12, -5, 20, 235, 75,W
2025-02-19 13:32:18.210,777, -77, 613, 1, 0, 0, -11, -7, 23, 244, 75,W
2025-02-19 13:32:18.317,782, -81, 622, 0, -1, 1, -11, -5, 20, 294, 75,W
2025-02-19 13:32:18.428,740, -84, 617, -1, 0, -1, -12, -5, 21, 186, 72,W
2025-02-19 13:32:18.534,798, 5, 593, -1, -2, -21, -13, -6, 20, 165, 102,W
2025-02-19 13:32:18.638,768, -142, 631, 10, 6, -12, -13, -9, 20, 255, 107,W
2025-02-19 13:32:18.751,782, 173, 555, -2, -25, 46, -14, -6, 21, 0, 114,W
2025-02-19 13:32:18.858,773, -29, 635, 25, 0, -52, -11, -7, 20, 547, 114,W
2025-02-19 13:32:18.964,847, 209, 521, -23, -32, 50, -12, -5, 21, 0, 118,W
2025-02-19 13:32:19.068,779, -163, 579, 11, -2, -28, -14, -7, 23, 746, 119,W
2025-02-19 13:32:19.180,694, -77, 619, -47, 59, 43, -11, -7, 18, 516, 60,W
2025-02-19 13:32:19.288,851, -10, 585, 11, -19, -6, -12, -5, 20, 429, 64,W
2025-02-19 13:32:20.198,804, -10, 582, 0, -3, -3, -11, -7, 21, 620, 92,X
2025-02-19 13:32:20.299,804, -11, 588, 0, -3, -3, -13, -5, 19, 634, 98,X
2025-02-19 13:32:20.410,816, -5, 575, -1, -1, -4, -11, -8, 22, 644, 100,X
2025-02-19 13:32:20.515,793, 5, 571, 5, -10, -6, -11, -8, 21, 684, 109,X
2025-02-19 13:32:20.618,813, -9, 579, -1, -2, -7, -14, -7, 23, 693, 117,X
2025-02-19 13:32:20.728,626, -212, 712, 12, 25, 1, -13, -8, 21, 596, 118,X
2025-02-19 13:32:20.828,866, -8, 531, -22, 16, 33, -11, -6, 20, 0, 116,X
2025-02-19 13:32:20.948,639, -147, 670, 12, -13, -50, -14, -7, 19, 350, 102,X
2025-02-19 13:32:21.048,750, -60, 681, -24, -64, 84, -12, -9, 19, 514, 111,X
2025-02-19 13:32:21.159,873, 5, 549, 29, -1, 17, -11, -7, 20, 317, 117,X
2025-02-19 13:32:21.265,528, -151, 711, -5, 8, -8, -12, -4, 18, 354, 52,X
2025-02-19 13:32:22.382,769, 37, 611, -2, 1, -5, -13, -8, 19, 557, 86,Y
2025-02-19 13:32:22.482,742, -1, 624, 10, -10, -11, -11, -9, 19, 492, 100,Y
2025-02-19 13:32:22.589,780, -13, 629, 2, 0, -15, -14, -8, 20, 460, 105,Y
2025-02-19 13:32:22.695,792, 97, 567, -3, -10, 25, -13, -7, 20, 589, 111,Y
2025-02-19 13:32:22.802,560, -149, 652, 4, 4, -16, -12, -7, 19, 711, 76,Y
2025-02-19 13:32:22.911,804, -35, 566, -11, -2, -4, -13, -8, 24, 740, 111,Y
2025-02-19 13:32:23.019,882, 126, 488, -6, 8, 13, -15, -9, 21, 327, 114,Y
2025-02-19 13:32:23.128,795, -39, 603, -10, -13, 30, -11, -8, 20, 247, 114,Y
2025-02-19 13:32:23.228,798, -50, 603, 3, -1, 10, -13, -6, 21, 229, 115,Y
2025-02-19 13:32:23.338,840, -16, 561, 1, -2, 10, -12, -5, 21, 0, 118,Y
2025-02-19 13:32:23.448,1150, 93, 469, 26, 49, -7, -12, -5, 19, 343, 100,Y
2025-02-19 13:32:23.548,524, -176, 724, 2, -21, -5, -12, -6, 19, 205, 44,Y
2025-02-19 13:32:23.658,855, -32, 585, -5, 4, 2, -9, -5, 20, 150, 62,Y
2025-02-19 13:32:25.078,788, -48, 600, -1, 0, -4, -11, -5, 21, 374, 74,Z
2025-02-19 13:32:25.168,780, -40, 602, -1, 0, -3, -12, -6, 20, 455, 76,Z
2025-02-19 13:32:25.280,779, -36, 609, 0, 1, -7, -12, -7, 17, 496, 78,Z
2025-02-19 13:32:25.391,780, -40, 613, 0, 0, -11, -14, -6, 21, 539, 81,Z
2025-02-19 13:32:25.501,717, -18, 627, -5, 14, -26, -12, -8, 19, 426, 83,Z
2025-02-19 13:32:25.612,804, -99, 436, 106, 22, -14, -11, -11, 20, 155, 103,Z
2025-02-19 13:32:25.712,676, -34, 672, 4, -8, 42, -14, -7, 21, 751, 104,Z
2025-02-19 13:32:25.816,832, 32, 479, 37, 17, -3, -13, -7, 19, 4, 108,Z
2025-02-19 13:32:25.928,770, 30, 597, -2, -6, 11, -12, -5, 21, 556, 110,Z
2025-02-19 13:32:26.037,624, -92, 646, -6, 34, -10, -12, -6, 20, 417, 72,Z
2025-02-19 13:32:26.141,857, -14, 585, -5, 3, -2, -11, -5, 17, 470, 81,Z
2025-02-19 13:32:26.244,800, -4, 610, -4, 7, 2, -12, -6, 19, 489, 73,Z
2025-02-19 13:32:26.358,730, -46, 643, -16, 19, 9, -12, -5, 20, 422, 52,Z
2025-02-19 13:32:26.461,791, -18, 616, 1, -4, 0, -13, -5, 16, 413, 54,Z
2025-02-19 13:32:31.780,782, -84, 619, 1, -5, 3, -12, -6, 20, 482, 70,a
2025-02-19 13:32:31.878,750, -72, 622, -3, -8, -1, -12, -3, 20, 417, 76,a
2025-02-19 13:32:31.982,816, -56, 596, 2, -8, -5, -12, -7, 19, 459, 94,a
2025-02-19 13:32:32.091,767, -64, 615, 2, -4, 0, -12, -6, 21, 501, 96,a
2025-02-19 13:32:32.198,806, -45, 592, 0, -3, -2, -14, -5, 22, 552, 105,a
2025-02-19 13:32:32.309,784, -56, 622, -11, 7, -19, -11, -8, 19, 457, 114,a
2025-02-19 13:32:32.415,974, 102, 634, -11, -32, 68, -13, -7, 21, 296, 109,a
2025-02-19 13:32:32.522,734, -157, 574, 1, 9, -50, -13, -7, 20, 621, 113,a
2025-02-19 13:32:32.632,829, 204, 527, -2, -20, 41, -12, -5, 18, 287, 115,a
2025-02-19 13:32:32.738,780, -105, 532, -27, 65, -3, -13, -6, 20, 571, 62,a
2025-02-19 13:32:32.843,758, -68, 640, 12, -34, -21, -12, -4, 18, 606, 61,a
2025-02-19 13:32:33.860,775, -23, 616, 0, -1, -2, -13, -7, 20, 599, 85,b
2025-02-19 13:32:33.956,771, -30, 615, 2, -3, -3, -11, -7, 18, 602, 88,b
2025-02-19 13:32:34.060,775, 5, 606, 1, -2, -7, -11, -8, 20, 607, 94,b
2025-02-19 13:32:34.168,802, -48, 555, -5, 1, -13, -13, -8, 20, 577, 107,b
2025-02-19 13:32:34.278,864, 245, 500, 8, -11, 30, -12, -6, 20, 260, 114,b
2025-02-19 13:32:34.390,854, -146, 560, 16, -4, -25, -12, -9, 20, 654, 104,b
2025-02-19 13:32:34.495,615, 30, 649, -10, 6, 49, -13, -5, 21, 444, 112,b
2025-02-19 13:32:34.602,703, -21, 553, -30, 59, 23, -11, -5, 18, 422, 58,b
2025-02-19 13:32:34.712,749, -65, 653, 12, -30, -19, -12, -3, 18, 508, 54,b
2025-02-19 13:32:34.815,780, -59, 635, -10, 8, -2, -12, -4, 18, 483, 60,b
2025-02-19 13:32:35.628,760, -57, 623, 1, -5, -3, -13, -5, 18, 560, 65,c
2025-02-19 13:32:35.728,758, -47, 628, 2, -7, -3, -12, -6, 18, 578, 71,c
2025-02-19 13:32:35.834,781, -28, 594, 0, -7, -4, -12, -6, 19, 584, 80,c
2025-02-19 13:32:35.949,804, -38, 630, 15, -24, -13, -13, -6, 19, 659, 112,c
2025-02-19 13:32:36.052,853, -53, 520, 11, 14, 22, -12, -7, 18, 312, 111,c
2025-02-19 13:32:36.162,766, -33, 626, 44, -15, 10, -12, -4, 21, 664, 113,c
2025-02-19 13:32:36.268,473, -190, 716, -40, 37, 11, -12, -3, 17, 370, 37,c
2025-02-19 13:32:36.376,793, -58, 631, 9, -22, -17, -11, -4, 17, 275, 46,c
2025-02-19 13:32:37.188,786, -33, 599, 1, -1, 0, -12, -6, 21, 531, 78,d
2025-02-19 13:32:37.289,801, -40, 591, 1, -5, -2, -11, -5, 20, 541, 85,d
2025-02-19 13:32:37.398,754, -54, 613, 7, -16, -11, -13, -5, 20, 588, 96,d
2025-02-19 13:32:37.506,773, -51, 622, -3, 1, -14, -12, -5, 21, 505, 112,d
2025-02-19 13:32:37.613,861, 150, 576, 0, -32, 52, -13, -4, 20, 152, 109,d
2025-02-19 13:32:37.719,775, -98, 622, -12, 9, -73, -12, -6, 21, 699, 113,d
2025-02-19 13:32:37.825,796, 10, 646, 0, -12, 91, -11, -10, 20, 516, 109,d
2025-02-19 13:32:37.932,1072, 70, 577, 5, 59, -9, -12, -5, 20, 535, 98,d
2025-02-19 13:32:38.042,623, -86, 689, -8, -11, -13, -12, -6, 20, 521, 53,d
2025-02-19 13:32:38.759,800, -91, 564, -9, 7, -8, -12, -5, 20, 360, 64,e
2025-02-19 13:32:38.858,829, -104, 719, 2, -11, -27, -12, -2, 21, 508, 74,e
2025-02-19 13:32:38.958,829, -41, 603, -6, 3, -3, -11, -3, 20, 575, 84,e
2025-02-19 13:32:39.068,699, -86, 624, 2, -8, -6, -13, -5, 19, 569, 89,e
2025-02-19 13:32:39.181,909, 103, 616, -11, -37, 28, -13, -5, 21, 628, 112,e
2025-02-19 13:32:39.289,731, -135, 640, -6, 17, -35, -12, -7, 20, 652, 113,e
2025-02-19 13:32:39.391,796, 77, 545, 9, -27, 43, -12, -5, 20, 537, 116,e
2025-02-19 13:32:39.501,740, -134, 495, -35, 78, 28, -12, -4, 19, 655, 64,e
2025-02-19 13:32:39.608,670, -156, 659, 17, -21, -9, -13, -4, 17, 445, 45,e
2025-02-19 13:32:40.425,769, -85, 615, -4, 2, 0, -13, -2, 20, 578, 79,f
2025-02-19 13:32:40.517,769, -79, 605, 1, 1, 2, -12, -5, 19, 574, 76,f
2025-02-19 13:32:40.627,773, -77, 599, 4, -17, -3, -12, -4, 18, 586, 90,f
2025-02-19 13:32:40.734,793, -7, 579, -2, -2, 9, -12, -2, 21, 510, 113,f
2025-02-19 13:32:40.848,744, -142, 639, 10, -9, -38, -13, -9, 20, 707, 108,f
2025-02-19 13:32:40.950,869, 139, 649, -8, 48, 33, -13, -7, 20, 667, 97,f
2025-02-19 13:32:41.061,782, -107, 553, 41, 7, -13, -13, -7, 19, 222, 104,f
2025-02-19 13:32:41.164,780, 29, 659, 7, 0, 16, -12, -8, 20, 727, 109,f
2025-02-19 13:32:41.274,617, -157, 690, -1, 10, 8, -12, -3, 18, 525, 56,f
2025-02-19 13:32:41.380,817, -53, 576, -2, -3, -1, -12, -4, 18, 519, 66,f
2025-02-19 13:32:41.487,795, -32, 618, -1, -6, -3, -11, -6, 17, 495, 69,f
2025-02-19 13:32:43.408,787, -33, 596, -1, -2, -1, -11, -5, 19, 570, 85,g
2025-02-19 13:32:43.498,791, -34, 602, 0, -2, 0, -10, -6, 19, 572, 86,g
2025-02-19 13:32:43.609,787, -42, 602, -1, -1, -1, -13, -6, 20, 573, 86,g
2025-02-19 13:32:43.717,786, -33, 605, -1, -1, -1, -11, -6, 19, 569, 86,g
2025-02-19 13:32:43.822,786, -30, 595, -3, -1, 0, -11, -7, 18, 580, 87,g
2025-02-19 13:32:43.928,774, -47, 598, -1, -2, 0, -11, -7, 20, 606, 86,g
2025-02-19 13:32:44.035,785, -40, 594, -2, -2, 0, -13, -6, 19, 607, 88,g
2025-02-19 13:32:44.145,805, -38, 592, 1, -2, -1, -14, -6, 20, 611, 90,g
2025-02-19 13:32:44.256,734, -40, 604, 7, -20, -22, -10, -7, 18, 640, 109,g
2025-02-19 13:32:44.358,857, -24, 569, 11, 10, 33, -11, -8, 21, 135, 109,g
2025-02-19 13:32:44.468,725, -70, 581, 26, 3, -46, -11, -6, 20, 572, 113,g
2025-02-19 13:32:44.576,731, 0, 730, -10, -23, 73, -12, -5, 20, 330, 111,g
2025-02-19 13:32:44.678,1088, -125, 564, 25, 63, -28, -13, -3, 20, 0, 107,g
2025-02-19 13:32:44.788,468, -162, 769, 8, -15, -3, -12, -4, 15, 258, 40,g
2025-02-19 13:32:45.706,789, -36, 608, 5, -9, -5, -14, -7, 18, 620, 89,h
2025-02-19 13:32:45.804,768, -27, 610, 1, -2, -3, -13, -8, 21, 638, 91,h
2025-02-19 13:32:45.908,765, -12, 611, -5, 1, -13, -13, -7, 19, 628, 95,h
2025-02-19 13:32:46.013,745, -73, 604, 9, 8, -9, -11, -9, 19, 601, 105,h
2025-02-19 13:32:46.128,915, 219, 421, 11, -6, 11, -12, -4, 21, 314, 112,h
2025-02-19 13:32:46.234,662, -257, 744, -2, -9, -28, -13, -6, 20, 694, 110,h
2025-02-19 13:32:46.340,916, -50, 617, 17, -5, 35, -11, -5, 21, 485, 114,h
2025-02-19 13:32:46.448,556, -165, 704, -8, 16, -2, -11, -2, 20, 608, 54,h
2025-02-19 13:32:47.258,779, -73, 606, 1, -3, -2, -14, -3, 19, 579, 77,i
2025-02-19 13:32:47.358,787, -45, 595, 3, -1, -4, -13, -4, 18, 578, 83,i
2025-02-19 13:32:47.458,771, -53, 598, 5, -1, -8, -11, -6, 20, 538, 89,i
2025-02-19 13:32:47.578,789, -84, 594, -9, 0, -17, -12, -6, 20, 584, 108,i
2025-02-19 13:32:47.682,916, 154, 437, 12, 0, 35, -12, -5, 22, 122, 113,i
2025-02-19 13:32:47.790,324, -417, 774, 8, -69, -70, -12, -8, 20, 571, 104,i
2025-02-19 13:32:47.899,901, -86, 560, 2, 2, 35, -13, -6, 20, 665, 100,i
2025-02-19 13:32:48.004,583, -135, 717, -8, 6, 3, -11, -5, 17, 566, 44,i
2025-02-19 13:32:48.111,852, -55, 594, 8, -8, -3, -11, -6, 16, 586, 58,i
2025-02-19 13:32:48.830,777, -45, 605, 2, -5, -2, -13, -6, 19, 486, 82,j
2025-02-19 13:32:48.925,806, -37, 598, 0, -2, -1, -12, -5, 21, 502, 89,j
2025-02-19 13:32:49.036,793, -42, 604, 3, -3, -3, -12, -7, 19, 512, 93,j
2025-02-19 13:32:49.138,866, -41, 587, -2, -3, -7, -13, -5, 21, 519, 109,j
2025-02-19 13:32:49.249,724, 81, 576, -12, -30, 62, -12, -5, 21, 0, 118,j
2025-02-19 13:32:49.358,1208, -111, 465, -34, 74, -57, -12, -5, 19, 281, 84,j
2025-02-19 13:32:49.458,845, 213, 432, 21, -9, 9, -13, -8, 21, 615, 113,j
2025-02-19 13:32:49.572,625, -64, 616, -26, 58, 49, -11, -5, 17, 375, 49,j
2025-02-19 13:32:49.683,808, -62, 621, 28, -42, -19, -11, -5, 18, 416, 59,j
2025-02-19 13:32:50.498,750, -39, 614, 5, 2, -7, -11, -6, 20, 259, 75,k
2025-02-19 13:32:50.592,771, -11, 620, -2, 1, -8, -12, -8, 18, 378, 79,k
2025-02-19 13:32:50.703,761, -13, 617, -2, -3, -12, -12, -7, 20, 394, 87,k
2025-02-19 13:32:50.809,783, -88, 657, -1, 0, 13, -13, -9, 19, 445, 106,k
2025-02-19 13:32:50.908,832, 119, 478, 24, 9, 24, -12, -7, 20, 34, 114,k
2025-02-19 13:32:51.026,400, -210, 773, 30, -66, -18, -12, -5, 19, 648, 106,k
2025-02-19 13:32:51.133,899, -68, 508, -35, 24, -21, -12, -8, 20, 90, 115,k
2025-02-19 13:32:51.231,774, 56, 598, 7, -27, 32, -12, -4, 22, 0, 116,k
2025-02-19 13:32:51.339,665, -131, 555, -29, 71, 10, -12, -2, 19, 250, 60,k
2025-02-19 13:32:51.448,795, -80, 626, 15, -27, -12, -11, -5, 16, 179, 59,k
2025-02-19 13:32:52.371,767, -62, 625, 2, -3, -4, -14, -5, 19, 219, 67,l
2025-02-19 13:32:52.468,777, -47, 624, 3, -3, -10, -13, -5, 19, 242, 72,l
2025-02-19 13:32:52.575,702, -83, 633, 6, -21, -30, -12, -8, 18, 403, 88,l
2025-02-19 13:32:52.681,785, -31, 622, 3, 2, -8, -13, -7, 18, 422, 106,l
2025-02-19 13:32:52.788,745, 113, 549, -5, -16, 60, -13, -6, 20, 6, 108,l
2025-02-19 13:32:52.894,922, 12, 604, 7, 1, 10, -13, -5, 19, 271, 105,l
2025-02-19 13:32:53.005,535, -196, 715, -9, 3, -2, -10, -2, 17, 252, 46,l
2025-02-19 13:32:53.921,774, -51, 620, -1, 0, -1, -12, -5, 20, 346, 84,m
2025-02-19 13:32:54.008,770, -42, 618, 0, 0, -7, -12, -5, 19, 364, 87,m
2025-02-19 13:32:54.131,704, -109, 628, 15, -19, -16, -12, -6, 18, 362, 106,m
2025-02-19 13:32:54.233,791, 67, 600, -2, -13, 38, -12, -6, 19, 118, 109,m
2025-02-19 13:32:54.340,804, 28, 503, 6, 8, -51, -13, -5, 19, 125, 107,m
2025-02-19 13:32:54.448,718, -25, 663, -13, -22, 31, -14, -6, 20, 313, 107,m
2025-02-19 13:32:54.553,822, -63, 560, 25, 2, -9, -12, -6, 21, 208, 111,m
2025-02-19 13:32:54.664,731, -16, 701, -26, -24, 39, -12, -6, 20, 151, 112,m
2025-02-19 13:32:54.770,1084, 73, 554, 7, 76, 16, -13, -4, 19, 330, 90,m
2025-02-19 13:32:54.881,542, -165, 707, 4, -15, -12, -12, -4, 17, 300, 44,m
2025-02-19 13:32:55.790,765, -75, 627, 5, -1, -3, -11, -4, 19, 358, 68,n
2025-02-19 13:32:55.892,796, -54, 618, 2, -3, -5, -12, -3, 20, 368, 79,n
2025-02-19 13:32:55.999,762, -76, 616, 5, -2, -16, -13, -8, 19, 314, 86,n
2025-02-19 13:32:56.109,665, -46, 602, -1, -12, -15, -11, -6, 19, 383, 94,n
2025-02-19 13:32:56.217,813, 46, 643, -16, -20, 49, -12, -6, 21, 149, 110,n
2025-02-19 13:32:56.323,834, -163, 468, 30, 17, -54, -12, -5, 18, 408, 108,n
2025-02-19 13:32:56.429,767, 38, 627, -14, -18, 53, -13, -7, 21, 120, 111,n
2025-02-19 13:32:56.536,1106, -64, 559, 0, 61, 13, -13, -5, 18, 518, 91,n
2025-02-19 13:32:56.642,659, -93, 668, 4, -19, -8, -12, -3, 17, 454, 55,n
2025-02-19 13:32:57.458,781, -41, 600, 1, -2, -1, -12, -6, 18, 375, 83,o
2025-02-19 13:32:57.555,783, -32, 612, 5, -6, 3, -13, -8, 18, 516, 85,o
2025-02-19 13:32:57.658,704, -44, 619, 4, -17, -15, -13, -4, 20, 565, 100,o
2025-02-19 13:32:57.777,737, -109, 641, -12, 15, -26, -13, -8, 19, 237, 108,o
2025-02-19 13:32:57.883,803, 110, 640, -5, -27, 26, -13, -6, 18, 149, 111,o
2025-02-19 13:32:57.989,792, -10, 576, 1, 40, -32, -13, -5, 20, 497, 108,o
2025-02-19 13:32:58.096,696, -11, 630, -31, 33, 36, -12, -5, 17, 378, 54,o
2025-02-19 13:32:58.203,722, -101, 671, 9, -15, -9, -13, -2, 17, 404, 47,o
2025-02-19 13:32:59.120,772, -43, 623, -1, -2, 0, -11, -5, 19, 292, 71,p
2025-02-19 13:32:59.213,774, -31, 618, -5, 1, 0, -13, -6, 18, 323, 72,p
2025-02-19 13:32:59.320,760, -40, 618, -4, 0, -1, -12, -6, 16, 372, 75,p
2025-02-19 13:32:59.431,991, 21, 596, 0, 0, -12, -12, -7, 20, 377, 107,p
2025-02-19 13:32:59.538,738, -47, 642, 9, -26, 76, -11, -6, 18, 174, 109,p
2025-02-19 13:32:59.648,812, 35, 549, 17, 37, -75, -14, -3, 19, 456, 108,p
2025-02-19 13:32:59.753,658, -65, 659, -1, -26, 3, -13, -7, 18, 613, 106,p
2025-02-19 13:32:59.861,1014, 58, 376, 2, 20, 21, -12, -4, 17, 208, 111,p
2025-02-19 13:32:59.968,491, -181, 756, -10, 20, 13, -11, -3, 18, 398, 47,p
2025-02-19 13:33:00.071,861, -30, 581, 8, -23, -9, -11, -4, 18, 383, 63,p
2025-02-19 13:33:00.788,769, -65, 621, -1, -2, -2, -11, -4, 19, 223, 70,q
2025-02-19 13:33:00.889,783, -55, 609, 2, -5, 0, -12, -4, 18, 280, 76,q
2025-02-19 13:33:00.996,790, -54, 605, 3, -4, 0, -10, -6, 19, 363, 81,q
2025-02-19 13:33:01.106,692, -71, 654, 14, -32, -24, -12, -5, 22, 538, 107,q
2025-02-19 13:33:01.213,691, -234, 563, 4, 17, -24, -13, -6, 20, 237, 109,q
2025-02-19 13:33:01.319,801, 24, 579, -3, -17, 6, -12, -7, 19, 211, 109,q
2025-02-19 13:33:01.420,794, -76, 586, 5, -1, -28, -12, -6, 20, 528, 107,q
2025-02-19 13:33:01.528,813, 14, 542, 15, 7, 24, -11, -4, 19, 0, 112,q
2025-02-19 13:33:01.639,824, 97, 520, -38, 84, 39, -11, -4, 18, 498, 66,q
2025-02-19 13:33:01.749,704, -133, 604, 3, -29, -26, -11, -3, 18, 131, 49,q
2025-02-19 13:33:02.568,778, -57, 614, -1, -7, -8, -11, -5, 21, 194, 72,r
2025-02-19 13:33:02.664,781, -43, 622, -7, 2, -1, -12, -6, 17, 296, 79,r
2025-02-19 13:33:02.769,782, -66, 611, -4, 1, -9, -12, -4, 20, 324, 86,r
2025-02-19 13:33:02.879,746, -29, 613, 6, -7, -19, -12, -6, 20, 372, 104,r
2025-02-19 13:33:02.986,800, 101, 613, -18, -30, 43, -13, -7, 18, 302, 110,r
2025-02-19 13:33:03.098,825, -198, 595, 16, 13, -60, -13, -5, 21, 498, 109,r
2025-02-19 13:33:03.199,985, 90, 544, -4, 28, 9, -13, -6, 20, 637, 102,r
2025-02-19 13:33:03.307,763, -47, 616, 11, -14, -1, -14, -5, 19, 593, 75,r
2025-02-19 13:33:04.228,775, -71, 604, -1, -1, -2, -13, -5, 19, 489, 80,s
2025-02-19 13:33:04.321,778, -57, 602, 1, -3, -1, -12, -5, 19, 498, 83,s
2025-02-19 13:33:04.428,753, -77, 598, 5, -11, -6, -12, -5, 20, 532, 91,s
2025-02-19 13:33:04.535,771, -26, 620, -2, 3, -7, -11, -7, 20, 525, 111,s
2025-02-19 13:33:04.645,974, 16, 641, 10, -15, 63, -13, -7, 19, 392, 107,s
2025-02-19 13:33:04.748,829, 24, 437, 2, 19, 14, -11, -3, 20, 200, 114,s
2025-02-19 13:33:04.858,567, -70, 685, -19, 43, 11, -12, -3, 17, 348, 46,s
2025-02-19 13:33:04.968,824, -81, 631, 15, -34, -26, -13, -3, 16, 496, 55,s
2025-02-19 13:33:05.785,786, -21, 613, -2, -1, -2, -13, -4, 18, 577, 81,t
2025-02-19 13:33:05.878,780, -23, 616, -3, 1, -3, -12, -7, 18, 588, 80,t
2025-02-19 13:33:05.989,788, -23, 612, -2, -1, -3, -12, -8, 20, 605, 81,t
2025-02-19 13:33:06.093,941, -41, 693, -4, 3, -20, -13, -7, 20, 605, 107,t
2025-02-19 13:33:06.202,909, 200, 544, 14, -16, 70, -13, -7, 18, 293, 106,t
2025-02-19 13:33:06.312,913, -90, 760, -18, 55, -25, -12, -6, 19, 648, 97,t
2025-02-19 13:33:06.419,843, -82, 319, -3, 8, -24, -13, -7, 18, 146, 103,t
2025-02-19 13:33:06.521,764, 32, 642, 23, -7, 9, -12, -9, 20, 621, 112,t
2025-02-19 13:33:06.632,622, -161, 686, -2, 16, 16, -13, -5, 19, 409, 53,t
2025-02-19 13:33:07.451,763, -51, 621, -1, 0, -1, -11, -5, 18, 282, 70,u
2025-02-19 13:33:07.541,766, -58, 622, 0, 0, 1, -12, -7, 20, 353, 70,u
2025-02-19 13:33:07.651,736, -52, 637, 2, 1, -1, -12, -7, 18, 393, 73,u
2025-02-19 13:33:07.762,711, -21, 622, 6, -2, -25, -12, -5, 20, 326, 91,u
2025-02-19 13:33:07.868,864, -159, 604, 15, 5, 22, -12, -8, 19, 181, 104,u
2025-02-19 13:33:07.979,761, -10, 563, 19, -16, -22, -13, -6, 20, 367, 111,u
2025-02-19 13:33:08.082,782, -78, 561, -1, 7, -27, -12, -7, 21, 592, 108,u
2025-02-19 13:33:08.192,891, -14, 566, 15, -11, 15, -11, -5, 20, 400, 110,u
2025-02-19 13:33:08.299,523, -183, 705, -16, 16, 5, -11, -3, 17, 343, 46,u
2025-02-19 13:33:08.405,863, -17, 586, 3, -13, -5, -12, -5, 19, 146, 64,u
2025-02-19 13:33:09.322,759, -45, 643, 0, 0, -2, -13, -4, 19, 144, 71,v
2025-02-19 13:33:09.417,757, -40, 641, 0, -2, 0, -13, -4, 16, 228, 72,v
2025-02-19 13:33:09.518,754, -41, 636, 0, -3, -3, -11, -6, 17, 267, 76,v
2025-02-19 13:33:09.633,694, -24, 645, 7, -7, -21, -14, -5, 17, 277, 88,v
2025-02-19 13:33:09.740,764, -49, 615, 1, 6, -18, -12, -5, 18, 212, 102,v
2025-02-19 13:33:09.851,865, 96, 623, -11, -13, 17, -13, -7, 20, 291, 112,v
2025-02-19 13:33:09.951,811, -10, 583, 13, 9, -8, -11, -5, 21, 602, 112,v
2025-02-19 13:33:10.058,573, -194, 706, -15, 25, 19, -12, -2, 19, 346, 50,v
2025-02-19 13:33:10.170,866, -22, 582, 12, -11, -8, -11, -5, 19, 339, 68,v
2025-02-19 13:33:10.988,770, -62, 623, -6, 0, 1, -11, -4, 20, 132, 77,w
2025-02-19 13:33:11.084,754, -59, 629, 5, -1, -1, -12, -6, 21, 183, 80,w
2025-02-19 13:33:11.191,754, -59, 623, 6, 1, -4, -12, -5, 18, 223, 82,w
2025-02-19 13:33:11.298,753, -37, 646, 7, -3, -8, -13, -5, 19, 136, 90,w
2025-02-19 13:33:11.400,793, -46, 613, -5, 2, -10, -12, -5, 21, 0, 105,w
2025-02-19 13:33:11.510,772, -21, 626, 2, -1, -4, -13, -7, 18, 0, 104,w
2025-02-19 13:33:11.618,769, -51, 636, -6, 0, -11, -12, -6, 18, 0, 103,w
2025-02-19 13:33:11.727,746, 44, 592, 10, -8, 11, -12, -5, 19, 154, 110,w
2025-02-19 13:33:11.838,706, -195, 649, 2, -1, -24, -13, -7, 19, 366, 109,w
2025-02-19 13:33:11.943,815, 28, 577, -10, -20, 46, -13, -6, 20, 0, 111,w
2025-02-19 13:33:12.050,796, -135, 585, -9, -9, -29, -13, -4, 22, 179, 119,w
2025-02-19 13:33:12.157,805, -4, 516, -30, 70, 42, -13, -4, 20, 213, 68,w
2025-02-19 13:33:12.268,674, -124, 641, 23, -26, -16, -11, -3, 18, 157, 53,w
2025-02-19 13:33:13.078,794, -57, 602, 1, -5, -3, -11, -5, 19, 281, 82,x
2025-02-19 13:33:13.177,797, -45, 588, 0, -1, -2, -12, -4, 20, 344, 89,x
2025-02-19 13:33:13.288,797, -43, 592, 0, -1, -1, -11, -6, 18, 381, 89,x
2025-02-19 13:33:13.394,793, -42, 584, 0, -3, -2, -12, -5, 20, 435, 92,x
2025-02-19 13:33:13.501,816, -24, 465, -9, -1, -5, -12, -5, 18, 347, 113,x
2025-02-19 13:33:13.607,923, 105, 593, 7, 16, 15, -13, -7, 21, 0, 112,x
2025-02-19 13:33:13.717,822, 22, 639, -10, 34, -32, -11, -6, 17, 149, 99,x
2025-02-19 13:33:13.820,785, 61, 601, 0, -6, -8, -14, -7, 17, 0, 104,x
2025-02-19 13:33:13.926,780, -34, 581, -5, 0, -7, -13, -8, 18, 1, 103,x
2025-02-19 13:33:14.037,702, 63, 602, -13, -46, 52, -12, -5, 20, 0, 115,x
2025-02-19 13:33:14.149,770, -36, 530, -33, 93, 19, -13, -2, 18, 146, 61,x
2025-02-19 13:33:14.254,725, -118, 658, 20, -25, -13, -12, -3, 16, 290, 47,x
2025-02-19 13:33:14.361,714, -125, 642, -6, 6, -1, -11, -2, 18, 299, 47,x
2025-02-19 13:33:14.463,738, -99, 637, 3, 0, -5, -13, -3, 18, 303, 47,x
2025-02-19 13:33:14.568,754, -78, 651, -1, -5, -4, -11, -3, 18, 296, 50,x
2025-02-19 13:33:14.681,777, -64, 647, -2, 0, -1, -13, -4, 17, 282, 52,x
2025-02-19 13:33:14.787,743, -88, 647, -3, 1, -2, -12, -3, 18, 178, 51,x
2025-02-19 13:33:14.891,735, -90, 652, 0, -2, -1, -12, -5, 19, 184, 51,x
2025-02-19 13:33:15.003,760, -76, 652, 0, -2, -2, -14, -2, 18, 199, 52,x
2025-02-19 13:33:15.111,761, -86, 640, -1, -3, 0, -12, -3, 20, 200, 54,x
2025-02-19 13:33:15.217,746, -97, 639, -1, 0, -1, -11, -5, 17, 205, 54,x
2025-02-19 13:33:15.324,753, -83, 637, -1, -1, -1, -12, -4, 18, 199, 55,x
2025-02-19 13:33:15.430,750, -76, 636, 0, -1, 0, -12, -4, 18, 204, 56,x
2025-02-19 13:33:15.537,754, -81, 634, 0, -2, -1, -10, -5, 17, 206, 56,x
2025-02-19 13:33:15.648,758, -84, 631, 0, -2, -1, -11, -4, 20, 222, 57,x
2025-02-19 13:33:16.758,759, -69, 626, -1, -1, -3, -12, -5, 18, 273, 62,y
2025-02-19 13:33:16.859,757, -72, 628, -1, -2, -3, -13, -4, 17, 339, 65,y
2025-02-19 13:33:16.966,791, -50, 615, 2, -2, 0, -12, -6, 19, 420, 70,y
2025-02-19 13:33:17.076,764, -54, 630, 4, -1, -5, -12, -5, 19, 446, 72,y
2025-02-19 13:33:17.182,743, -59, 627, 13, -29, -25, -12, -6, 18, 454, 105,y
2025-02-19 13:33:17.289,766, -118, 660, 19, 12, 6, -13, -8, 20, 263, 108,y
2025-02-19 13:33:17.398,794, -4, 573, 18, -12, -12, -13, -5, 19, 604, 109,y
2025-02-19 13:33:17.506,802, -77, 520, -6, 2, -15, -14, -5, 19, 630, 107,y
2025-02-19 13:33:17.613,802, 80, 481, -15, -13, 41, -11, -3, 21, 26, 118,y
2025-02-19 13:33:17.718,506, -140, 592, -33, 71, 29, -13, -3, 17, 4, 47,y
2025-02-19 13:33:17.826,776, -83, 658, 19, -37, -12, -12, -2, 15, 0, 50,y
2025-02-19 13:33:19.338,751, -100, 627, -1, 0, -4, -13, -4, 18, 533, 67,z
2025-02-19 13:33:19.440,751, -79, 620, 8, -9, -10, -11, -6, 18, 530, 73,z
2025-02-19 13:33:19.546,793, -45, 611, 3, 2, -5, -12, -5, 20, 564, 86,z
2025-02-19 13:33:19.661,601, -106, 616, 20, -19, -29, -12, -5, 18, 555, 101,z
2025-02-19 13:33:19.767,828, 120, 638, -4, -52, 25, -13, -8, 18, 629, 106,z
2025-02-19 13:33:19.869,760, 11, 565, -9, 20, 17, -10, -5, 20, 586, 110,z
2025-02-19 13:33:19.976,709, 24, 632, 4, -32, 16, -12, -3, 20, 298, 112,z
2025-02-19 13:33:20.088,876, 66, 698, -18, 61, -14, -12, -6, 19, 342, 102,z
2025-02-19 13:33:20.193,818, -90, 455, 1, 4, -8, -13, -5, 21, 175, 106,z
2025-02-19 13:33:20.298,775, 37, 595, 15, -1, 2, -11, -7, 20, 484, 119,z
2025-02-19 13:33:20.410,613, -136, 667, -11, 30, 16, -11, -5, 17, 448, 60,z
2025-02-19 13:33:20.513,827, -10, 609, -1, -3, -4, -11, -3, 20, 373, 62,z
2025-02-19 13:33:25.628,743, -84, 642, -6, -1, -5, -11, -3, 20, 406, 60,0
2025-02-19 13:33:25.726,753, -96, 635, -1, -4, -8, -12, -4, 19, 483, 63,0
2025-02-19 13:33:25.831,746, -67, 624, -3, -2, -8, -11, -6, 18, 530, 66,0
2025-02-19 13:33:25.939,765, -54, 629, -2, -2, -7, -13, -5, 18, 558, 72,0
2025-02-19 13:33:26.048,797, -45, 620, 2, -5, -6, -13, -7, 17, 599, 78,0
2025-02-19 13:33:26.148,771, -41, 632, -2, -2, -7, -13, -6, 16, 641, 78,0
2025-02-19 13:33:26.263,761, -29, 624, 0, -7, -9, -11, -6, 19, 659, 84,0
2025-02-19 13:33:26.369,780, -7, 612, -1, -2, -7, -12, -8, 19, 669, 92,0
2025-02-19 13:33:26.480,783, -19, 615, 7, -11, -10, -14, -7, 18, 664, 105,0
2025-02-19 13:33:26.586,781, -3, 609, -2, -2, -3, -12, -8, 21, 649, 105,0
2025-02-19 13:33:26.696,762, -15, 644, -2, -1, -14, -13, -10, 17, 599, 106,0
2025-02-19 13:33:26.798,903, -21, 579, 46, 13, 33, -13, -10, 17, 396, 103,0
2025-02-19 13:33:26.911,733, 21, 667, 12, -31, -5, -11, -6, 20, 685, 111,0
2025-02-19 13:33:27.018,907, 11, 505, -14, 27, -35, -14, -10, 20, 614, 110,0
2025-02-19 13:33:27.123,581, -68, 692, -51, 53, 55, -11, -7, 17, 570, 45,0
2025-02-19 13:33:27.235,827, -39, 657, 19, -37, -21, -13, -5, 20, 515, 53,0
2025-02-19 13:33:28.248,762, -33, 639, -1, -1, -1, -12, -7, 19, 550, 72,1
2025-02-19 13:33:28.344,763, -41, 629, 2, -2, -2, -13, -7, 21, 545, 74,1
2025-02-19 13:33:28.448,751, -29, 632, 2, 0, -2, -13, -8, 19, 561, 75,1
2025-02-19 13:33:28.557,735, -45, 643, 5, 1, -2, -12, -6, 20, 529, 77,1
2025-02-19 13:33:28.668,937, 133, 675, 0, 0, -17, -12, -8, 20, 331, 106,1
2025-02-19 13:33:28.775,754, 3, 632, -2, -14, -11, -12, -10, 18, 656, 106,1
2025-02-19 13:33:28.880,789, 13, 615, 4, -3, -17, -13, -8, 20, 691, 105,1
2025-02-19 13:33:28.987,880, 220, 481, 1, -6, 31, -13, -7, 21, 311, 112,1
2025-02-19 13:33:29.096,894, -58, 679, -5, 51, 19, -13, -6, 19, 581, 94,1
2025-02-19 13:33:29.204,1408, 191, 585, 20, 7, -18, -12, -7, 18, 128, 107,1
2025-02-19 13:33:29.311,608, 0, 664, -1, -46, 13, -12, -6, 20, 189, 118,1
2025-02-19 13:33:29.418,1186, 65, 599, -8, 78, 25, -12, -8, 20, 520, 97,1
2025-02-19 13:33:29.528,611, -125, 689, 6, -14, -8, -13, -4, 19, 423, 50,1
2025-02-19 13:33:30.540,774, -20, 630, -7, 5, -10, -11, -7, 18, 568, 67,2
2025-02-19 13:33:30.638,781, -19, 630, 1, 3, -7, -11, -8, 17, 576, 68,2
2025-02-19 13:33:30.744,758, 4, 644, -2, 0, -5, -12, -8, 17, 591, 70,2
2025-02-19 13:33:30.851,754, 18, 638, 0, 1, -3, -11, -7, 18, 594, 72,2
2025-02-19 13:33:30.962,765, 20, 634, 4, -2, -9, -11, -9, 16, 534, 77,2
2025-02-19 13:33:31.068,759, 28, 640, 1, -2, -8, -13, -8, 17, 449, 83,2
2025-02-19 13:33:31.174,740, 30, 635, 3, -8, -7, -13, -9, 19, 455, 93,2
2025-02-19 13:33:31.281,783, 36, 587, 5, 1, -13, -14, -10, 18, 403, 99,2
2025-02-19 13:33:31.391,713, 54, 656, 0, -12, 1, -12, -11, 20, 730, 97,2
2025-02-19 13:33:31.498,739, -18, 612, 17, 5, 50, -13, -10, 20, 683, 101,2
2025-02-19 13:33:31.604,776, 4, 618, 15, 5, -7, -13, -8, 19, 581, 102,2
2025-02-19 13:33:31.711,727, 16, 628, 18, -9, 10, -11, -8, 19, 633, 112,2
2025-02-19 13:33:31.822,636, -96, 666, -29, 55, 15, -12, -5, 18, 577, 54,2
2025-02-19 13:33:32.841,739, -24, 638, -8, 4, -12, -14, -7, 17, 578, 64,3
2025-02-19 13:33:32.936,768, -3, 624, -2, -4, -5, -14, -10, 17, 595, 69,3
2025-02-19 13:33:33.038,764, 23, 629, 2, 1, -7, -13, -10, 18, 599, 75,3
2025-02-19 13:33:33.148,679, -27, 626, 14, -26, -23, -13, -9, 18, 527, 95,3
2025-02-19 13:33:33.255,802, 97, 673, 1, -26, 8, -13, -10, 18, 731, 98,3
2025-02-19 13:33:33.362,730, 41, 671, 18, 4, 21, -12, -9, 19, 716, 102,3
2025-02-19 13:33:33.468,994, -2, 599, 36, -6, 4, -15, -9, 17, 620, 102,3
2025-02-19 13:33:33.578,693, -74, 688, -5, -4, 35, -13, -9, 20, 672, 106,3
2025-02-19 13:33:33.686,833, -3, 483, 53, 25, 16, -12, -10, 19, 279, 104,3
2025-02-19 13:33:33.796,371, -218, 763, -24, 13, -1, -12, -4, 16, 241, 39,3
2025-02-19 13:33:34.808,766, -8, 628, -1, -3, -6, -14, -6, 19, 273, 70,4
2025-02-19 13:33:34.905,762, -17, 627, 1, -2, -7, -11, -9, 17, 377, 72,4
2025-02-19 13:33:35.012,770, 4, 625, 0, -3, -7, -12, -8, 19, 487, 79,4
2025-02-19 13:33:35.122,754, 15, 598, -4, -6, -17, -12, -10, 19, 562, 83,4
2025-02-19 13:33:35.233,781, 32, 615, -1, -2, -11, -13, -10, 18, 623, 102,4
2025-02-19 13:33:35.336,866, 186, 491, -3, 5, 10, -13, -10, 20, 212, 103,4
2025-02-19 13:33:35.445,843, 113, 610, -6, -39, 11, -12, -11, 19, 423, 105,4
2025-02-19 13:33:35.549,807, 60, 550, 10, 1, 6, -12, -9, 20, 590, 108,4
2025-02-19 13:33:35.659,645, -35, 636, -16, 18, -10, -14, -7, 20, 665, 78,4
2025-02-19 13:33:35.770,953, 37, 624, -12, -4, -10, -13, -13, 20, 666, 102,4
2025-02-19 13:33:35.876,892, -24, 646, 14, -8, 29, -13, -11, 20, 687, 102,4
2025-02-19 13:33:35.978,814, 79, 546, 9, 3, 15, -12, -8, 23, 198, 112,4
2025-02-19 13:33:36.089,588, -74, 607, -39, 72, 26, -12, -6, 18, 474, 52,4
2025-02-19 13:33:36.195,796, -65, 632, 18, -32, -21, -11, -7, 18, 444, 53,4
2025-02-19 13:33:36.298,729, -86, 656, -7, 2, -5, -12, -6, 19, 449, 59,4
2025-02-19 13:33:37.120,746, -43, 634, -6, 0, -10, -14, -7, 17, 537, 63,5
2025-02-19 13:33:37.216,760, -23, 637, -1, -5, -6, -12, -7, 18, 586, 68,5
2025-02-19 13:33:37.321,775, -6, 635, -2, 1, -1, -14, -8, 18, 589, 72,5
2025-02-19 13:33:37.429,745, -2, 631, 2, 2, -4, -14, -9, 19, 609, 73,5
2025-02-19 13:33:37.540,670, -32, 654, 16, -6, -26, -13, -10, 17, 361, 81,5
2025-02-19 13:33:37.644,862, -131, 493, 61, 3, -30, -13, -9, 18, 97, 97,5
2025-02-19 13:33:37.748,796, 87, 602, 3, -6, 1, -14, -10, 20, 691, 104,5
2025-02-19 13:33:37.863,684, -14, 622, 15, 1, -5, -11, -10, 19, 391, 93,5
2025-02-19 13:33:37.969,770, 186, 599, -7, -7, 21, -12, -10, 20, 356, 99,5
2025-02-19 13:33:38.076,720, 7, 666, -6, -17, 14, -12, -8, 18, 566, 102,5
2025-02-19 13:33:38.182,812, 83, 507, -15, 15, 18, -13, -7, 20, 136, 108,5
2025-02-19 13:33:38.293,681, -38, 614, -24, 40, 17, -12, -7, 18, 237, 62,5
2025-02-19 13:33:38.399,736, -35, 642, 14, -26, -18, -11, -5, 17, 257, 56,5
2025-02-19 13:33:39.413,764, -8, 616, -2, -1, -3, -13, -7, 18, 420, 71,6
2025-02-19 13:33:39.513,765, -20, 640, -2, -5, -5, -14, -8, 18, 473, 73,6
2025-02-19 13:33:39.620,762, -9, 630, -1, -3, -4, -13, -6, 19, 568, 80,6
2025-02-19 13:33:39.726,793, 11, 616, 1, -5, -5, -13, -7, 19, 600, 88,6
2025-02-19 13:33:39.837,779, 46, 567, -7, -6, -11, -11, -10, 19, 661, 104,6
2025-02-19 13:33:39.943,782, 28, 632, -3, 6, -25, -12, -8, 19, 578, 105,6
2025-02-19 13:33:40.050,917, 91, 549, 23, 4, 53, -12, -11, 17, 284, 102,6
2025-02-19 13:33:40.148,692, 29, 725, 10, -17, -9, -11, -7, 17, 619, 107,6
2025-02-19 13:33:40.260,951, 50, 483, 4, 22, 4, -12, -9, 20, 493, 99,6
2025-02-19 13:33:40.374,515, -80, 701, -25, 14, 26, -12, -8, 16, 448, 47,6
2025-02-19 13:33:40.480,844, 47, 613, 7, -24, -13, -12, -8, 18, 441, 68,6
2025-02-19 13:33:41.488,758, 3, 637, -2, -1, -4, -13, -7, 18, 338, 68,7
2025-02-19 13:33:41.590,767, 20, 636, 0, 0, -6, -13, -9, 19, 423, 70,7
2025-02-19 13:33:41.692,780, 28, 624, 1, 2, -6, -13, -10, 19, 426, 74,7
2025-02-19 13:33:41.807,705, 28, 659, 11, -2, -15, -11, -8, 18, 332, 81,7
2025-02-19 13:33:41.913,946, 61, 510, 31, 1, -13, -13, -10, 20, 208, 96,7
2025-02-19 13:33:42.024,775, 12, 638, -2, -13, -20, -12, -9, 19, 691, 102,7
2025-02-19 13:33:42.127,842, 184, 507, 7, 2, 33, -13, -8, 20, 306, 108,7
2025-02-19 13:33:42.237,550, -191, 648, -9, 0, -40, -13, -9, 18, 408, 90,7
2025-02-19 13:33:42.344,707, 93, 611, -8, -37, 20, -12, -9, 19, 602, 109,7
2025-02-19 13:33:42.450,974, 69, 567, -9, 55, 3, -13, -7, 21, 621, 100,7
2025-02-19 13:33:42.557,649, -63, 668, 1, -6, -4, -11, -9, 18, 379, 56,7
2025-02-19 13:33:43.376,790, 9, 608, -2, -1, 0, -13, -7, 19, 302, 84,8
2025-02-19 13:33:43.470,783, 6, 611, -2, 0, 1, -13, -7, 21, 371, 86,8
2025-02-19 13:33:43.576,802, 10, 609, -1, 0, 1, -13, -7, 20, 458, 87,8
2025-02-19 13:33:43.683,792, 20, 596, 0, -3, 0, -13, -7, 20, 479, 92,8
2025-02-19 13:33:43.792,805, 24, 593, -3, 0, -1, -11, -9, 20, 514, 98,8
2025-02-19 13:33:43.898,790, 2, 590, 1, -2, -2, -12, -8, 20, 552, 98,8
2025-02-19 13:33:44.011,713, 3, 603, 4, -13, -10, -13, -7, 17, 589, 105,8
2025-02-19 13:33:44.110,807, -45, 567, 4, 10, -21, -12, -9, 20, 366, 111,8
2025-02-19 13:33:44.228,804, 116, 580, 14, -19, 21, -12, -6, 19, 375, 112,8
2025-02-19 13:33:44.334,888, -86, 424, -11, 15, -65, -13, -10, 20, 652, 109,8
2025-02-19 13:33:44.441,712, 137, 734, 2, -14, -8, -13, -10, 20, 750, 107,8
2025-02-19 13:33:44.543,952, 65, 503, 7, 23, 24, -14, -7, 19, 612, 106,8
2025-02-19 13:33:44.648,511, -108, 739, 0, -5, 4, -13, -7, 17, 589, 49,8
2025-02-19 13:33:45.472,776, 2, 611, -1, -2, -2, -13, -9, 19, 462, 79,9
2025-02-19 13:33:45.567,781, 10, 612, -1, -2, -2, -13, -8, 20, 492, 81,9
2025-02-19 13:33:45.672,781, 15, 615, -1, -2, -2, -14, -6, 20, 503, 82,9
2025-02-19 13:33:45.780,775, 7, 609, -1, -2, -4, -12, -9, 18, 547, 83,9
2025-02-19 13:33:45.887,767, -6, 620, -6, 0, -6, -15, -7, 19, 592, 83,9
2025-02-19 13:33:45.996,774, 18, 622, -1, -3, -3, -14, -7, 18, 623, 83,9
2025-02-19 13:33:46.104,777, 10, 605, -2, -2, -1, -13, -10, 19, 648, 86,9
2025-02-19 13:33:46.210,792, 39, 588, -1, -4, -5, -12, -8, 21, 658, 90,9
2025-02-19 13:33:46.321,677, -9, 619, 5, -21, -19, -14, -7, 21, 677, 101,9
2025-02-19 13:33:46.427,784, -57, 555, 2, 5, -25, -14, -12, 17, 502, 105,9
2025-02-19 13:33:46.534,849, 154, 590, 14, -13, 19, -14, -7, 20, 654, 108,9
2025-02-19 13:33:46.640,794, 9, 533, 13, 2, -24, -12, -11, 21, 703, 102,9
2025-02-19 13:33:46.746,854, 177, 465, 17, 1, 27, -13, -7, 18, 534, 113,9
2025-02-19 13:33:46.858,510, -206, 752, -50, 66, 45, -13, -2, 15, 481, 35,9
