Timestamp,Acc_X,Acc_Y,Acc_Z,Gyro_X,Gyro_Y,Gyro_Z,Mag_X,Mag_Y,Mag_Z,Force,IR_A,Letter
2025-02-18 16:17:05.304,381, -107, 645, -24, 18, 10, -7, 6, 8, 0, 11,noise
2025-02-18 16:17:05.398,589, -124, 757, -12, -1, 11, -7, 5, 8, 71, 12,noise
2025-02-18 16:17:05.496,527, -159, 812, -20, -7, 3, -6, 7, 11, 283, 11,noise
2025-02-18 16:17:05.616,557, -206, 779, -8, -20, -2, -5, 8, 12, 320, 12,noise
2025-02-18 16:17:05.721,628, -148, 762, 7, -10, -3, -6, 6, 11, 212, 15,noise
2025-02-18 16:17:05.828,668, -169, 711, 6, -16, 16, -7, 7, 12, 0, 17,noise
2025-02-18 16:17:05.930,710, -154, 719, -12, -28, -7, -7, 6, 13, 0, 18,noise
2025-02-18 16:17:06.030,605, -204, 646, 4, 15, -9, -8, 5, 12, 0, 21,noise
2025-02-18 16:17:06.146,463, -141, 629, -42, 24, 0, -7, 6, 14, 96, 16,noise
2025-02-18 16:17:06.255,613, -200, 749, -3, -16, -15, -8, 5, 13, 139, 19,noise
2025-02-18 16:17:06.363,682, -159, 708, -1, -5, -3, -8, 4, 14, 151, 24,noise
2025-02-18 16:17:06.471,661, -191, 729, 12, -3, -8, -7, 5, 15, 141, 24,noise
2025-02-18 16:17:06.579,677, -145, 725, 11, -4, -6, -6, 2, 13, 147, 27,noise
2025-02-18 16:17:06.687,674, -133, 726, -2, -1, 0, -8, 2, 14, 133, 27,noise
2025-02-18 16:17:06.794,667, -144, 720, -3, -1, 2, -9, 4, 14, 131, 28,noise
2025-02-18 16:17:06.897,664, -150, 721, 0, 3, 1, -8, 4, 12, 132, 27,noise
2025-02-18 16:17:07.007,663, -142, 731, 1, -1, 0, -7, 3, 13, 103, 27,noise
2025-02-18 16:17:07.114,674, -143, 721, 1, 0, 1, -8, 4, 14, 119, 28,noise
2025-02-18 16:17:07.220,665, -144, 732, 0, 0, 1, -7, 4, 13, 116, 26,noise
2025-02-18 16:17:07.326,668, -145, 730, 1, 0, 0, -8, 4, 13, 120, 27,noise
2025-02-18 16:17:07.429,661, -147, 731, 0, -1, -1, -8, 6, 13, 118, 27,noise
2025-02-18 16:17:07.544,666, -139, 727, 0, -1, -2, -9, 4, 12, 97, 27,noise
2025-02-18 16:17:07.650,662, -136, 727, -1, -1, 0, -9, 3, 12, 107, 26,noise
2025-02-18 16:17:07.757,660, -137, 730, -1, 0, 0, -7, 3, 13, 115, 26,noise
2025-02-18 16:17:07.864,665, -142, 729, 1, 1, -1, -9, 5, 13, 127, 27,noise
2025-02-18 16:17:07.969,630, -124, 684, 0, -1, -4, -8, 4, 14, 96, 26,noise
2025-02-18 16:17:08.079,620, -130, 703, -2, -2, -1, -6, 4, 14, 100, 26,noise
2025-02-18 16:17:08.187,675, -130, 744, -3, -4, 0, -8, 5, 12, 110, 26,noise
2025-02-18 16:17:08.293,714, -137, 769, 5, 0, -3, -7, 2, 13, 74, 27,noise
2025-02-18 16:17:08.400,711, -152, 762, 3, 0, 0, -8, 4, 13, 75, 27,noise
2025-02-18 16:17:08.507,649, -133, 711, 0, 4, 3, -8, 6, 12, 55, 23,noise
2025-02-18 16:17:08.612,652, -127, 721, 1, 0, 1, -7, 3, 15, 55, 22,noise
2025-02-18 16:17:08.723,675, -134, 746, -1, 0, -1, -7, 4, 14, 58, 23,noise
2025-02-18 16:17:08.830,660, -133, 724, -3, 0, -1, -6, 4, 13, 52, 22,noise
2025-02-18 16:17:08.936,656, -138, 738, -1, 0, -2, -7, 2, 11, 56, 21,noise
2025-02-18 16:17:09.043,663, -127, 739, -1, -1, 0, -8, 3, 13, 65, 21,noise
2025-02-18 16:17:09.150,658, -140, 731, -4, 0, 2, -7, 5, 14, 63, 21,noise
2025-02-18 16:17:09.255,647, -149, 742, -1, 0, -1, -9, 2, 13, 55, 21,noise
2025-02-18 16:17:09.362,653, -129, 745, 0, 0, 0, -8, 3, 13, 41, 21,noise
2025-02-18 16:17:09.473,661, -129, 745, -1, 2, -1, -8, 5, 12, 38, 21,noise
2025-02-18 16:17:09.580,643, -140, 740, -3, -2, -1, -8, 3, 12, 37, 22,noise
2025-02-18 16:17:09.678,651, -137, 739, 1, -1, -2, -9, 3, 13, 29, 20,noise
2025-02-18 16:17:09.793,659, -136, 738, 1, 0, -2, -8, 3, 12, 31, 21,noise
2025-02-18 16:17:09.898,645, -125, 736, 1, -1, 0, -9, 4, 12, 19, 21,noise
2025-02-18 16:17:09.995,650, -126, 734, -3, 0, 1, -8, 4, 13, 24, 21,noise
2025-02-18 16:17:10.112,651, -121, 745, 0, -1, -1, -8, 4, 13, 16, 21,noise
2025-02-18 16:17:10.222,650, -128, 738, 0, -1, -1, -7, 3, 12, 25, 22,noise
2025-02-18 16:17:10.329,648, -114, 747, 0, -1, -2, -7, 5, 13, 26, 21,noise
2025-02-18 16:17:10.440,636, -124, 718, -1, -1, -1, -8, 4, 12, 22, 22,noise
2025-02-18 16:17:10.541,647, -98, 736, 4, 2, -3, -8, 4, 12, 32, 22,noise
2025-02-18 16:17:10.645,650, -111, 745, -1, -1, -1, -7, 4, 14, 16, 22,noise
2025-02-18 16:17:10.759,663, -114, 744, -2, 0, 0, -8, 4, 11, 30, 21,noise
2025-02-18 16:17:10.865,688, -122, 774, -1, 1, -1, -8, 1, 11, 28, 21,noise
2025-02-18 16:17:10.971,690, -133, 769, -1, 0, -1, -8, 4, 12, 25, 21,noise
2025-02-18 16:17:11.079,653, -116, 750, -2, 0, -1, -8, 5, 13, 30, 21,noise
2025-02-18 16:17:11.189,668, -121, 757, -1, -1, -1, -9, 2, 11, 27, 21,noise
2025-02-18 16:17:11.295,646, -112, 752, 0, -1, -2, -9, 3, 13, 24, 21,noise
2025-02-18 16:17:11.402,631, -120, 731, 1, 0, -1, -7, 4, 14, 25, 21,noise
2025-02-18 16:17:11.508,643, -120, 739, -1, 1, 1, -8, 2, 11, 20, 21,noise
2025-02-18 16:17:11.615,645, -105, 741, -3, 0, 1, -7, 4, 11, 34, 21,noise
2025-02-18 16:17:11.722,640, -111, 731, -1, 0, -1, -8, 3, 11, 19, 21,noise
2025-02-18 16:17:11.828,650, -111, 743, -1, -1, 0, -7, 2, 11, 24, 21,noise
2025-02-18 16:17:11.935,650, -121, 750, 0, 0, -1, -8, 6, 14, 25, 21,noise
2025-02-18 16:17:12.045,642, -115, 745, 0, -1, -2, -8, 2, 12, 28, 21,noise
2025-02-18 16:17:12.145,646, -117, 740, -1, -1, -1, -8, 2, 13, 20, 21,noise
2025-02-18 16:17:12.248,655, -113, 758, 0, -1, 0, -8, 3, 12, 21, 21,noise
2025-02-18 16:17:12.364,654, -111, 749, -1, 0, -1, -8, 2, 11, 26, 20,noise
2025-02-18 16:17:12.471,640, -115, 746, 0, -1, 0, -8, 1, 10, 23, 20,noise
2025-02-18 16:17:12.581,645, -123, 745, 0, -1, -1, -8, 4, 13, 33, 21,noise
2025-02-18 16:17:12.688,648, -114, 751, 0, -1, -1, -10, 3, 11, 33, 20,noise
2025-02-18 16:17:12.795,638, -108, 738, 0, -2, -1, -9, 3, 11, 20, 20,noise
2025-02-18 16:17:12.901,654, -109, 746, -1, 0, 0, -8, 4, 13, 23, 21,noise
2025-02-18 16:17:13.008,650, -111, 749, -1, 0, -1, -7, 4, 10, 28, 22,noise
2025-02-18 16:17:13.117,641, -117, 746, -1, -1, -1, -9, 2, 11, 24, 22,noise
2025-02-18 16:17:16.128,728, -104, 674, -4, 0, 1, -11, 0, 16, 246, 51,A
2025-02-18 16:17:16.232,715, -105, 677, 0, -1, -2, -10, -2, 16, 269, 50,A
2025-02-18 16:17:16.342,722, -102, 677, -1, -1, -1, -11, 2, 16, 216, 49,A
2025-02-18 16:17:16.444,721, -116, 689, -2, -6, -1, -10, -1, 16, 259, 51,A
2025-02-18 16:17:16.560,700, -129, 668, -3, -17, -10, -11, -1, 16, 343, 63,A
2025-02-18 16:17:16.666,754, -90, 656, -11, -10, -4, -11, -3, 18, 481, 84,A
2025-02-18 16:17:16.772,767, -104, 619, -3, -2, -5, -10, -2, 19, 420, 87,A
2025-02-18 16:17:16.877,773, -105, 651, -8, -5, -10, -9, -4, 18, 261, 89,A
2025-02-18 16:17:16.985,713, -142, 628, 8, -7, 26, -10, -2, 20, 243, 95,A
2025-02-18 16:17:17.087,833, -20, 565, 7, 5, 14, -10, 1, 20, 0, 98,A
2025-02-18 16:17:17.194,909, 9, 522, 7, -3, -7, -9, -1, 17, 240, 93,A
2025-02-18 16:17:17.309,532, -223, 703, -8, -23, -31, -11, 0, 19, 673, 70,A
2025-02-18 16:17:17.415,749, -195, 650, -2, 1, -6, -11, -3, 20, 452, 89,A
2025-02-18 16:17:17.521,739, -239, 602, 0, -29, 36, -10, -3, 18, 634, 94,A
2025-02-18 16:17:17.628,786, -129, 573, 18, -8, 24, -10, 1, 21, 710, 103,A
2025-02-18 16:17:17.735,590, -179, 645, 4, 47, -30, -11, -1, 19, 531, 73,A
2025-02-18 16:17:17.841,787, -81, 640, 6, 7, -6, -10, -3, 18, 79, 85,A
2025-02-18 16:17:17.952,807, -52, 630, -46, -46, 17, -10, -1, 20, 563, 89,A
2025-02-18 16:17:18.054,816, -98, 574, 4, 8, 8, -10, -2, 20, 768, 96,A
2025-02-18 16:17:18.165,655, -141, 656, 2, 11, 3, -10, -1, 16, 556, 51,A
2025-02-18 16:17:19.780,747, -71, 645, -2, 0, 0, -9, -2, 18, 273, 63,B
2025-02-18 16:17:19.877,755, -75, 650, -5, -1, 0, -11, -3, 18, 320, 64,B
2025-02-18 16:17:19.983,740, -86, 654, -7, 1, 0, -10, -2, 16, 247, 62,B
2025-02-18 16:17:20.090,755, -91, 648, -5, 0, 0, -11, -3, 20, 255, 64,B
2025-02-18 16:17:20.200,758, -82, 641, -4, 3, -1, -10, -4, 19, 264, 63,B
2025-02-18 16:17:20.308,732, -106, 661, -1, -1, 0, -10, -4, 17, 390, 59,B
2025-02-18 16:17:20.409,735, -99, 643, -3, -4, -2, -10, -3, 17, 513, 62,B
2025-02-18 16:17:20.524,765, -98, 640, -7, -6, -1, -10, -3, 18, 606, 70,B
2025-02-18 16:17:20.630,771, -90, 632, -2, -6, -16, -12, -3, 18, 622, 80,B
2025-02-18 16:17:20.737,779, -83, 620, -3, -4, -7, -11, -3, 20, 596, 83,B
2025-02-18 16:17:20.847,769, -119, 625, -2, -6, -29, -10, -5, 20, 552, 86,B
2025-02-18 16:17:20.950,827, 0, 551, 9, -3, 26, -11, -2, 18, 586, 97,B
2025-02-18 16:17:21.058,831, -4, 563, -8, 26, -38, -10, -2, 20, 714, 89,B
2025-02-18 16:17:21.167,671, -145, 653, 9, -34, -43, -12, -2, 18, 662, 84,B
2025-02-18 16:17:21.273,769, -110, 657, -16, -33, 7, -11, -5, 19, 746, 88,B
2025-02-18 16:17:21.375,901, 42, 487, 35, 4, 12, -9, -4, 21, 628, 97,B
2025-02-18 16:17:21.490,801, -65, 639, -19, -25, 21, -11, -3, 18, 777, 94,B
2025-02-18 16:17:21.593,842, 12, 448, 24, 16, 21, -11, -2, 20, 544, 97,B
2025-02-18 16:17:21.703,782, -51, 614, -39, 62, 26, -9, -2, 18, 488, 45,B
2025-02-18 16:17:21.810,694, -139, 673, 9, -20, -15, -9, 2, 15, 527, 32,B
2025-02-18 16:17:22.827,756, -101, 653, -1, -2, -2, -11, -1, 16, 480, 50,C
2025-02-18 16:17:22.924,740, -108, 653, -1, -2, -2, -10, 0, 17, 492, 52,C
2025-02-18 16:17:23.031,754, -94, 651, 2, -2, -3, -11, 0, 18, 535, 53,C
2025-02-18 16:17:23.125,732, -99, 644, -3, -2, -2, -11, 0, 18, 567, 53,C
2025-02-18 16:17:23.248,766, -114, 633, -4, -5, 1, -10, -3, 18, 621, 56,C
2025-02-18 16:17:23.354,744, -108, 644, -5, -2, -2, -10, -1, 18, 675, 56,C
2025-02-18 16:17:23.461,767, -103, 632, -4, -1, -2, -11, -1, 18, 701, 61,C
2025-02-18 16:17:23.567,793, -87, 624, -4, -4, -4, -11, -3, 17, 729, 68,C
2025-02-18 16:17:23.678,757, -116, 631, -4, -10, 1, -11, -2, 19, 763, 71,C
2025-02-18 16:17:23.780,780, -94, 616, 1, -13, -12, -9, 0, 20, 799, 86,C
2025-02-18 16:17:23.891,797, -106, 607, -2, -4, -7, -10, -2, 20, 810, 94,C
2025-02-18 16:17:23.997,807, -101, 563, 5, -2, -15, -12, -2, 22, 766, 99,C
2025-02-18 16:17:24.107,767, -140, 583, 45, 23, -15, -12, -3, 19, 354, 90,C
2025-02-18 16:17:24.210,836, 59, 596, 14, -21, 46, -9, -3, 19, 671, 96,C
2025-02-18 16:17:24.316,927, -88, 551, 8, 34, -1, -10, 0, 20, 825, 89,C
2025-02-18 16:17:24.423,551, -183, 716, 2, -5, -5, -8, 1, 15, 635, 27,C
2025-02-18 16:17:25.537,745, -101, 630, -1, 0, -2, -10, -2, 17, 605, 51,D
2025-02-18 16:17:25.639,749, -95, 635, -1, 0, -2, -9, 1, 20, 609, 50,D
2025-02-18 16:17:25.741,769, -112, 638, -1, -1, -2, -10, -1, 18, 613, 51,D
2025-02-18 16:17:25.858,762, -100, 635, -2, 0, -3, -10, -1, 16, 623, 53,D
2025-02-18 16:17:25.958,760, -92, 625, -6, -2, -6, -10, -2, 19, 634, 55,D
2025-02-18 16:17:26.069,770, -87, 630, -8, 0, -6, -9, -1, 21, 671, 58,D
2025-02-18 16:17:26.174,752, -106, 643, 1, -1, 1, -12, -3, 18, 673, 58,D
2025-02-18 16:17:26.274,750, -87, 627, -3, -5, -7, -12, -2, 19, 650, 64,D
2025-02-18 16:17:26.392,723, -95, 648, 0, -17, -34, -11, -5, 19, 615, 86,D
2025-02-18 16:17:26.500,559, -295, 686, 30, -8, 28, -10, -5, 20, 582, 88,D
2025-02-18 16:17:26.606,803, 23, 582, 19, 9, 23, -11, -1, 20, 647, 94,D
2025-02-18 16:17:26.717,560, -291, 683, -15, -38, -46, -11, -5, 17, 665, 75,D
2025-02-18 16:17:26.824,679, -168, 729, -3, -21, 26, -11, -3, 20, 803, 95,D
2025-02-18 16:17:26.926,1036, 3, 290, 31, 28, 19, -11, -2, 20, 478, 97,D
2025-02-18 16:17:27.037,525, -194, 784, -48, 50, 24, -9, 1, 15, 640, 28,D
2025-02-18 16:17:27.143,805, -90, 632, 7, -14, -8, -9, 0, 15, 583, 30,D
2025-02-18 16:17:28.456,753, -76, 641, -2, -3, -6, -11, -2, 18, 525, 56,E
2025-02-18 16:17:28.557,745, -70, 636, -3, -3, -7, -11, -3, 19, 509, 62,E
2025-02-18 16:17:28.657,709, -99, 637, -2, -17, -16, -13, -4, 19, 486, 79,E
2025-02-18 16:17:28.773,735, -256, 700, 17, -11, 10, -11, -5, 19, 516, 87,E
2025-02-18 16:17:28.875,805, 21, 581, 8, -4, 18, -10, 0, 17, 470, 96,E
2025-02-18 16:17:28.990,720, -35, 564, -55, 56, -18, -10, -1, 17, 625, 60,E
2025-02-18 16:17:29.097,790, -58, 619, -1, -33, -35, -11, -6, 19, 603, 87,E
2025-02-18 16:17:29.199,812, 25, 582, 1, -30, 9, -12, -5, 19, 620, 91,E
2025-02-18 16:17:29.307,632, -132, 626, 30, 17, 30, -12, -4, 19, 773, 92,E
2025-02-18 16:17:29.420,688, -84, 571, 21, -43, -17, -11, -4, 18, 544, 88,E
2025-02-18 16:17:29.523,713, -75, 635, -6, -19, 4, -11, -3, 18, 786, 95,E
2025-02-18 16:17:29.629,611, -75, 572, 13, 50, 27, -11, -1, 18, 667, 61,E
2025-02-18 16:17:29.739,1003, 96, 616, -8, -28, 15, -10, -3, 20, 683, 92,E
2025-02-18 16:17:29.846,1031, 70, 577, -21, 77, 26, -11, 0, 18, 774, 69,E
2025-02-18 16:17:29.953,723, -69, 637, 9, -15, -18, -9, -2, 15, 542, 42,E
2025-02-18 16:17:31.169,758, -50, 638, -2, -1, -2, -12, -5, 17, 516, 69,F
2025-02-18 16:17:31.267,755, -46, 636, 0, -2, -3, -13, -4, 18, 462, 71,F
2025-02-18 16:17:31.374,766, -65, 647, 3, -13, -6, -11, -1, 19, 489, 81,F
2025-02-18 16:17:31.480,775, -33, 626, -4, -4, -7, -11, -4, 18, 415, 83,F
2025-02-18 16:17:31.590,842, 17, 588, 14, -15, 55, -10, -3, 20, 441, 91,F
2025-02-18 16:17:31.689,809, 9, 583, 17, 7, 9, -10, 0, 19, 498, 93,F
2025-02-18 16:17:31.807,496, -258, 754, -28, -3, -44, -10, -4, 18, 655, 56,F
2025-02-18 16:17:31.907,776, -131, 617, -2, 2, -1, -11, -3, 20, 410, 85,F
2025-02-18 16:17:32.016,721, -51, 662, 1, -17, 13, -11, -4, 20, 744, 94,F
2025-02-18 16:17:32.124,640, -10, 605, 3, 53, 14, -10, -4, 19, 586, 68,F
2025-02-18 16:17:32.230,775, -24, 657, 11, 1, -2, -10, -3, 17, 272, 83,F
2025-02-18 16:17:32.336,748, -2, 634, 0, -10, 5, -11, -3, 19, 778, 96,F
2025-02-18 16:17:32.447,902, 77, 570, -21, 61, 24, -10, -3, 16, 738, 65,F
2025-02-18 16:17:32.554,718, -53, 631, 4, -8, -5, -12, -2, 17, 592, 45,F
2025-02-18 16:17:32.656,736, -71, 648, 0, -5, -2, -10, -3, 16, 564, 48,F
2025-02-18 16:17:33.674,751, -69, 637, -2, -4, -3, -10, -4, 18, 687, 65,G
2025-02-18 16:17:33.774,770, -54, 613, 1, -8, -3, -13, -3, 20, 718, 73,G
2025-02-18 16:17:33.885,791, -35, 603, -4, -5, -2, -10, -3, 19, 754, 84,G
2025-02-18 16:17:33.991,822, -30, 613, -6, -4, -5, -12, -5, 19, 784, 94,G
2025-02-18 16:17:34.098,766, -94, 631, 7, 1, -18, -11, -4, 21, 721, 96,G
2025-02-18 16:17:34.204,883, 91, 499, 3, -11, 53, -11, -3, 19, 556, 93,G
2025-02-18 16:17:34.306,810, -11, 594, -11, -10, -12, -10, -2, 18, 790, 98,G
2025-02-18 16:17:34.421,776, -108, 685, 9, -3, 39, -10, -2, 20, 769, 99,G
2025-02-18 16:17:34.527,752, -110, 649, -5, 30, -29, -11, -4, 19, 772, 93,G
2025-02-18 16:17:34.635,793, 27, 524, -10, -33, 9, -12, -4, 19, 762, 100,G
2025-02-18 16:17:34.739,1040, 23, 610, 13, 63, 18, -10, -2, 20, 791, 82,G
2025-02-18 16:17:34.848,579, -116, 719, 16, 35, 9, -10, 0, 15, 1, 24,G
2025-02-18 16:17:34.955,695, -167, 687, 44, -20, -24, -10, -1, 14, 0, 24,G
2025-02-18 16:17:35.055,829, 46, 651, 36, -29, 23, -9, -2, 15, 0, 53,G
2025-02-18 16:17:36.274,732, -62, 646, 1, -6, -9, -11, -4, 17, 692, 58,H
2025-02-18 16:17:36.375,766, 9, 646, -8, -7, -8, -11, -4, 17, 674, 84,H
2025-02-18 16:17:36.486,715, -88, 662, 24, -11, 46, -10, -2, 19, 615, 89,H
2025-02-18 16:17:36.592,843, -85, 649, 13, 7, 17, -11, -4, 18, 631, 93,H
2025-02-18 16:17:36.692,643, -113, 657, -11, -16, -32, -11, -2, 17, 703, 83,H
2025-02-18 16:17:36.809,806, -23, 629, 0, -30, 14, -11, -5, 18, 821, 97,H
2025-02-18 16:17:36.916,739, -20, 564, -20, 41, -28, -12, -2, 20, 828, 76,H
2025-02-18 16:17:37.026,779, -142, 601, -14, -2, -22, -10, -3, 20, 798, 93,H
2025-02-18 16:17:37.129,823, 71, 520, 27, 17, 30, -9, -4, 19, 683, 99,H
2025-02-18 16:17:37.239,560, -199, 757, -19, 35, 8, -10, 0, 15, 752, 35,H
2025-02-18 16:17:37.341,780, -89, 633, 0, -4, -12, -9, -1, 17, 703, 38,H
2025-02-18 16:17:38.562,734, -56, 643, 5, -7, -8, -11, -5, 17, 373, 69,I
2025-02-18 16:17:38.656,771, -47, 607, 6, 1, -8, -10, -5, 18, 55, 82,I
2025-02-18 16:17:38.771,684, -16, 652, -13, -32, 15, -12, -4, 21, 789, 100,I
2025-02-18 16:17:38.869,936, 5, 658, 23, 52, 2, -10, -5, 19, 766, 89,I
2025-02-18 16:17:38.980,726, 74, 661, -18, -8, -19, -12, -5, 18, 665, 86,I
2025-02-18 16:17:39.086,763, 34, 569, 29, -7, 47, -11, -2, 22, 617, 96,I
2025-02-18 16:17:39.195,917, -17, 677, 11, 48, 14, -11, -1, 17, 593, 77,I
2025-02-18 16:17:39.303,841, -20, 427, -5, -6, -5, -10, 0, 18, 288, 90,I
2025-02-18 16:17:39.410,689, -46, 650, 2, -20, 14, -9, -3, 20, 814, 103,I
2025-02-18 16:17:39.516,651, -80, 562, -17, 54, 8, -10, -3, 16, 698, 56,I
2025-02-18 16:17:40.825,738, -68, 651, -1, -4, -6, -12, -1, 17, 593, 60,J
2025-02-18 16:17:40.929,763, -94, 651, 3, -2, -4, -10, -2, 19, 605, 66,J
2025-02-18 16:17:41.036,714, -48, 649, 6, 2, -14, -12, -4, 17, 488, 66,J
2025-02-18 16:17:41.151,1134, -144, 468, 28, -16, -31, -11, -4, 17, 285, 81,J
2025-02-18 16:17:41.253,777, -17, 624, 8, -1, 2, -10, -3, 20, 828, 101,J
2025-02-18 16:17:41.364,642, -169, 639, 7, -20, -14, -11, -4, 17, 684, 77,J
2025-02-18 16:17:41.469,736, -45, 665, 20, -12, 61, -11, -2, 19, 664, 99,J
2025-02-18 16:17:41.577,950, -160, 520, 34, 39, -44, -10, -1, 18, 175, 93,J
2025-02-18 16:17:41.683,498, -186, 787, -18, 32, 30, -10, 0, 15, 570, 32,J
2025-02-18 16:17:41.790,761, -61, 659, 4, -12, -12, -9, -1, 16, 525, 36,J
2025-02-18 16:17:43.109,738, -84, 641, 4, -12, -10, -12, -5, 19, 681, 84,K
2025-02-18 16:17:43.208,651, -244, 708, 26, 4, 15, -12, -5, 19, 617, 88,K
2025-02-18 16:17:43.303,794, 79, 597, 2, 0, 11, -11, -1, 19, 375, 94,K
2025-02-18 16:17:43.422,687, -210, 704, -22, -16, -30, -8, -4, 18, 830, 103,K
2025-02-18 16:17:43.522,810, -58, 610, 4, 6, -2, -9, -1, 21, 827, 0,K
2025-02-18 16:17:43.632,699, -27, 613, 1, 0, -12, -10, -1, 18, 622, 61,K
2025-02-18 16:17:43.743,867, -95, 608, -15, -24, -2, -10, -4, 19, 742, 95,K
2025-02-18 16:17:43.850,826, -68, 559, 14, -5, 26, -10, -1, 21, 784, 105,K
2025-02-18 16:17:43.956,548, -257, 713, -19, 34, 3, -10, 2, 17, 683, 43,K
2025-02-18 16:17:44.058,856, -28, 591, 2, 7, -2, -9, -2, 18, 577, 49,K
2025-02-18 16:17:45.382,746, -53, 617, 0, -5, -4, -10, -3, 17, 616, 86,L
2025-02-18 16:17:45.480,791, -72, 620, -14, -7, -5, -11, -2, 18, 639, 92,L
2025-02-18 16:17:45.587,717, -184, 697, 4, -4, 17, -11, -3, 17, 559, 95,L
2025-02-18 16:17:45.689,853, 18, 565, 5, -5, 17, -10, 0, 19, 486, 100,L
2025-02-18 16:17:45.786,820, -33, 576, -1, -30, 14, -9, 1, 20, 713, 104,L
2025-02-18 16:17:45.905,859, -63, 513, 6, 43, -16, -9, 1, 19, 790, 94,L
2025-02-18 16:17:46.003,621, -149, 688, -1, -4, -12, -8, 2, 17, 689, 41,L
2025-02-18 16:17:46.119,775, -90, 634, 2, -4, -8, -10, 1, 18, 688, 53,L
2025-02-18 16:17:47.539,769, -52, 621, -1, -1, -5, -11, -3, 17, 618, 88,M
2025-02-18 16:17:47.635,784, -53, 608, -4, -2, -8, -12, -2, 19, 578, 91,M
2025-02-18 16:17:47.745,854, 51, 581, 23, -14, 49, -11, -2, 18, 456, 98,M
2025-02-18 16:17:47.852,847, 96, 509, -5, 18, -45, -8, -1, 17, 628, 91,M
2025-02-18 16:17:47.953,778, -91, 536, -20, -9, -10, -13, -2, 18, 702, 90,M
2025-02-18 16:17:48.065,814, 97, 621, 9, -21, 35, -11, -5, 20, 742, 100,M
2025-02-18 16:17:48.175,731, -203, 659, -19, -6, -23, -12, -2, 20, 828, 105,M
2025-02-18 16:17:48.282,921, 67, 540, 25, -16, 64, -9, -3, 22, 592, 107,M
2025-02-18 16:17:48.387,866, -44, 524, -43, 93, 22, -10, -1, 20, 719, 53,M
2025-02-18 16:17:48.499,730, -174, 659, 11, -26, -18, -10, 2, 16, 662, 39,M
2025-02-18 16:17:48.597,773, -80, 624, -4, 5, 4, -9, -2, 17, 658, 47,M
2025-02-18 16:17:49.819,760, -60, 617, -2, -1, -7, -10, -5, 18, 506, 77,N
2025-02-18 16:17:49.916,778, -66, 605, -6, -3, -11, -13, -4, 19, 508, 90,N
2025-02-18 16:17:50.026,834, 109, 557, 16, -12, 37, -10, -1, 20, 368, 97,N
2025-02-18 16:17:50.133,920, -58, 642, -27, 45, -29, -9, -2, 19, 551, 78,N
2025-02-18 16:17:50.235,802, -112, 551, -8, -1, -5, -13, -3, 18, 636, 93,N
2025-02-18 16:17:50.335,784, 170, 562, 17, -24, 32, -10, 1, 20, 719, 103,N
2025-02-18 16:17:50.456,848, -207, 601, -47, -6, -81, -10, -2, 19, 803, 108,N
2025-02-18 16:17:50.559,880, 61, 611, -23, 48, 35, -10, -2, 21, 828, 76,N
2025-02-18 16:17:50.669,748, -120, 620, 7, -4, -4, -10, -2, 18, 719, 54,N
2025-02-18 16:17:50.772,758, -87, 629, -3, 8, 3, -11, -1, 17, 688, 48,N
2025-02-18 16:17:52.588,783, -75, 602, -1, -2, -1, -12, -2, 19, 738, 83,O
2025-02-18 16:17:52.688,789, -63, 608, -2, 0, -1, -11, -1, 20, 753, 83,O
2025-02-18 16:17:52.796,788, -79, 607, -2, -2, 0, -10, -3, 18, 762, 83,O
2025-02-18 16:17:52.901,783, -85, 593, -1, -4, 1, -12, -2, 21, 781, 84,O
2025-02-18 16:17:53.001,806, -54, 626, -3, -10, -3, -9, -2, 20, 811, 98,O
2025-02-18 16:17:53.118,705, -71, 620, 1, 9, -12, -11, -2, 20, 646, 102,O
2025-02-18 16:17:53.218,968, 151, 520, 9, -17, 61, -10, -1, 20, 579, 97,O
2025-02-18 16:17:53.336,760, -45, 613, -16, -3, -65, -9, -1, 21, 789, 110,O
2025-02-18 16:17:53.438,1237, 93, 612, 6, 67, 29, -11, -2, 19, 755, 83,O
2025-02-18 16:17:53.545,553, -119, 705, 2, -3, 7, -8, 1, 16, 618, 28,O
2025-02-18 16:17:53.651,828, -66, 636, 4, -15, -1, -9, -2, 16, 636, 40,O
2025-02-18 16:17:55.174,766, -61, 617, -2, -1, -1, -11, -3, 17, 686, 83,P
2025-02-18 16:17:55.269,788, -61, 618, -2, -1, -1, -12, -2, 20, 705, 84,P
2025-02-18 16:17:55.376,779, -58, 617, -3, 0, -4, -11, -4, 18, 717, 82,P
2025-02-18 16:17:55.482,767, -51, 615, -2, -2, -3, -11, -1, 18, 723, 85,P
2025-02-18 16:17:55.593,770, -71, 614, -6, -1, -6, -10, -2, 18, 694, 95,P
2025-02-18 16:17:55.700,901, 108, 555, 14, -16, 43, -10, -4, 18, 477, 101,P
2025-02-18 16:17:55.800,918, 24, 573, -5, 6, -18, -11, 0, 20, 664, 95,P
2025-02-18 16:17:55.916,602, -105, 672, -6, -25, -50, -10, 0, 17, 760, 74,P
2025-02-18 16:17:56.023,725, -49, 646, 4, -27, 26, -10, -5, 18, 833, 100,P
2025-02-18 16:17:56.127,974, 20, 335, 10, 29, 13, -12, -1, 22, 682, 102,P
2025-02-18 16:17:56.236,477, -199, 792, -23, 41, 24, -9, -1, 15, 755, 31,P
2025-02-18 16:17:56.342,799, -83, 618, 9, -21, -8, -8, -1, 18, 743, 37,P
2025-02-18 16:17:56.434,720, -97, 656, 1, -12, -7, -10, 1, 18, 716, 44,P
2025-02-18 16:17:57.764,817, -52, 595, -1, -5, -1, -9, -2, 20, 806, 84,Q
2025-02-18 16:17:57.866,807, -52, 592, 2, -10, -5, -10, -4, 18, 825, 97,Q
2025-02-18 16:17:57.967,803, -59, 622, -3, -2, -10, -10, -2, 20, 825, 103,Q
2025-02-18 16:17:58.076,834, -257, 621, 61, 31, 5, -10, -2, 18, 501, 93,Q
2025-02-18 16:17:58.191,816, 150, 682, -37, -41, 22, -9, -1, 17, 735, 102,Q
2025-02-18 16:17:58.283,958, -117, 517, 8, 27, -33, -10, -2, 20, 757, 0,Q
2025-02-18 16:17:58.398,590, -32, 668, -3, -2, 24, -9, -1, 17, 702, 56,Q
2025-02-18 16:17:58.509,1184, -103, 599, 2, -4, -4, -10, -3, 16, 758, 93,Q
2025-02-18 16:17:58.616,734, -2, 611, -3, -39, 44, -11, 2, 19, 735, 107,Q
2025-02-18 16:17:58.726,1081, 37, 619, -23, 101, 12, -10, -2, 18, 736, 71,Q
2025-02-18 16:17:58.828,720, -120, 668, 5, -10, -10, -9, 0, 15, 630, 35,Q
2025-02-18 16:17:58.935,708, -103, 674, -2, -1, -3, -8, 0, 17, 606, 36,Q
2025-02-18 16:18:01.054,784, -52, 605, -1, 0, -1, -12, -3, 19, 687, 85,R
2025-02-18 16:18:01.150,785, -49, 609, -1, -1, -2, -11, -2, 17, 685, 84,R
2025-02-18 16:18:01.257,769, -52, 614, -3, -1, -4, -12, -3, 18, 638, 88,R
2025-02-18 16:18:01.368,797, -62, 605, -11, -2, -6, -12, -4, 20, 564, 94,R
2025-02-18 16:18:01.475,720, -12, 666, 21, -11, 52, -11, -3, 18, 519, 98,R
2025-02-18 16:18:01.581,772, -66, 560, -2, 28, -52, -10, -1, 19, 682, 90,R
2025-02-18 16:18:01.691,839, -40, 622, -16, -28, -5, -10, -4, 19, 797, 94,R
2025-02-18 16:18:01.798,784, -36, 512, 18, 12, 10, -10, -3, 18, 714, 100,R
2025-02-18 16:18:01.904,722, -29, 659, -16, -48, 45, -9, -3, 20, 712, 103,R
2025-02-18 16:18:02.007,1140, 42, 554, 17, 81, 5, -9, -1, 20, 755, 87,R
2025-02-18 16:18:02.116,565, -177, 713, 2, -7, -15, -10, 2, 16, 503, 28,R
2025-02-18 16:18:03.838,785, -84, 621, -2, -5, -1, -10, 0, 18, 727, 61,S
2025-02-18 16:18:03.933,747, -81, 614, 1, -17, -4, -12, -3, 17, 787, 67,S
2025-02-18 16:18:04.043,781, -75, 589, 2, -20, -16, -13, -2, 20, 815, 100,S
2025-02-18 16:18:04.149,790, -28, 616, 1, -1, -11, -11, -2, 20, 803, 104,S
2025-02-18 16:18:04.252,855, 5, 482, 27, 19, -4, -10, -3, 19, 681, 100,S
2025-02-18 16:18:04.362,780, 62, 666, 19, -21, 36, -10, 0, 20, 771, 101,S
2025-02-18 16:18:04.469,711, -71, 577, -6, 46, -8, -10, 2, 19, 622, 102,S
2025-02-18 16:18:04.575,540, -161, 707, -21, 66, 31, -9, -1, 15, 655, 34,S
2025-02-18 16:18:04.682,702, -108, 699, 8, -24, -3, -8, 1, 15, 603, 27,S
2025-02-18 16:18:04.781,738, -98, 676, -5, -5, -5, -9, 1, 16, 539, 32,S
2025-02-18 16:18:04.895,735, -83, 678, -2, 3, -4, -8, -1, 14, 506, 33,S
2025-02-18 16:18:05.005,736, -103, 663, -3, -1, -2, -10, 2, 16, 494, 34,S
2025-02-18 16:18:06.624,751, -63, 629, -2, 1, -4, -11, -2, 18, 646, 59,T
2025-02-18 16:18:06.717,765, -36, 639, 9, -8, -10, -11, -2, 17, 573, 70,T
2025-02-18 16:18:06.823,836, -57, 656, -3, 0, -14, -12, -4, 17, 413, 88,T
2025-02-18 16:18:06.934,1072, -30, 564, 2, -26, -19, -12, -4, 19, 400, 89,T
2025-02-18 16:18:07.041,748, -11, 618, 8, -15, 2, -12, -4, 21, 811, 109,T
2025-02-18 16:18:07.147,735, 24, 549, -21, 59, 9, -11, -2, 19, 733, 71,T
2025-02-18 16:18:07.254,804, 15, 429, -15, -5, -7, -11, -4, 19, 741, 94,T
2025-02-18 16:18:07.364,791, 126, 552, 23, -15, 46, -11, -2, 17, 599, 101,T
2025-02-18 16:18:07.466,908, -25, 561, -6, 22, 2, -9, 0, 20, 723, 89,T
2025-02-18 16:18:07.573,705, -118, 670, 0, -3, -6, -10, -1, 16, 685, 49,T
2025-02-18 16:18:07.684,761, -62, 634, -3, -1, -3, -10, -1, 16, 638, 52,T
2025-02-18 16:18:07.781,780, -50, 627, -5, 5, -2, -9, 0, 18, 649, 53,T
2025-02-18 16:18:09.506,780, -47, 622, -1, -1, -2, -10, -4, 19, 686, 74,U
2025-02-18 16:18:09.606,779, -44, 620, -1, -1, -1, -11, -2, 18, 694, 75,U
2025-02-18 16:18:09.712,777, -44, 615, -2, 0, 0, -11, -3, 18, 695, 74,U
2025-02-18 16:18:09.822,788, -40, 618, -1, -2, -1, -10, -3, 19, 693, 73,U
2025-02-18 16:18:09.929,802, -48, 624, -3, -2, -4, -11, -2, 19, 706, 74,U
2025-02-18 16:18:10.030,768, -50, 613, -1, -1, 1, -11, -2, 18, 752, 72,U
2025-02-18 16:18:10.141,781, -64, 630, -1, -3, 1, -10, -4, 20, 766, 73,U
2025-02-18 16:18:10.248,774, -45, 612, -3, -2, -2, -11, -2, 19, 764, 78,U
2025-02-18 16:18:10.359,887, -68, 645, -15, -7, -8, -11, -3, 19, 752, 95,U
2025-02-18 16:18:10.463,764, -223, 662, 24, -3, 22, -11, -4, 20, 676, 97,U
2025-02-18 16:18:10.571,810, 40, 588, 10, -23, 28, -12, 1, 20, 668, 105,U
2025-02-18 16:18:10.681,741, -171, 617, -20, -2, -41, -11, -1, 20, 831, 111,U
2025-02-18 16:18:10.784,742, -337, 805, 17, 13, 73, -10, -3, 20, 730, 0,U
2025-02-18 16:18:10.891,921, -14, 509, 23, 10, -25, -10, 0, 20, 706, 0,U
2025-02-18 16:18:10.998,555, -179, 701, -9, 8, -1, -9, 1, 17, 698, 36,U
2025-02-18 16:18:11.098,780, -107, 627, -4, -1, -8, -10, -1, 19, 688, 42,U
2025-02-18 16:18:12.420,744, -42, 649, -1, -1, -1, -10, -2, 17, 425, 69,V
2025-02-18 16:18:12.521,747, -45, 645, -2, 1, 0, -11, -2, 18, 426, 69,V
2025-02-18 16:18:12.628,756, -36, 655, -3, 0, -1, -11, -3, 16, 439, 68,V
2025-02-18 16:18:12.738,750, -38, 651, -2, -1, -2, -12, -2, 17, 446, 68,V
2025-02-18 16:18:12.844,750, -35, 650, -1, -1, -1, -12, -2, 19, 452, 68,V
2025-02-18 16:18:12.951,756, -38, 650, -3, 0, 0, -12, -5, 15, 455, 68,V
2025-02-18 16:18:13.057,746, -43, 646, -1, -2, 0, -11, -2, 17, 504, 69,V
2025-02-18 16:18:13.164,750, -35, 649, -1, 0, 0, -11, -2, 18, 547, 67,V
2025-02-18 16:18:13.263,750, -40, 652, 1, -3, 1, -11, -5, 16, 599, 68,V
2025-02-18 16:18:13.380,770, -18, 651, 0, -2, -2, -11, -3, 16, 645, 71,V
2025-02-18 16:18:13.482,775, -21, 642, -4, 3, -6, -11, -4, 19, 609, 70,V
2025-02-18 16:18:13.594,759, -9, 641, 1, -1, -1, -11, -4, 16, 585, 72,V
2025-02-18 16:18:13.696,811, -30, 611, -4, -3, -6, -11, -3, 17, 394, 83,V
2025-02-18 16:18:13.796,757, -99, 662, -2, -27, 61, -9, -5, 17, 693, 92,V
2025-02-18 16:18:13.914,796, 37, 583, 13, -2, 8, -10, -2, 17, 622, 101,V
2025-02-18 16:18:14.024,708, -215, 707, 0, -6, -33, -10, -1, 19, 784, 108,V
2025-02-18 16:18:14.130,758, -29, 592, -32, 66, 48, -10, -3, 18, 794, 0,V
2025-02-18 16:18:14.237,764, -84, 639, 13, -16, -8, -11, 0, 17, 649, 47,V
2025-02-18 16:18:15.547,767, -68, 636, 0, -1, -2, -10, -2, 20, 536, 58,W
2025-02-18 16:18:15.651,767, -66, 636, -1, -1, -1, -9, -3, 18, 549, 57,W
2025-02-18 16:18:15.762,764, -68, 634, -3, 0, -1, -11, -2, 18, 591, 58,W
2025-02-18 16:18:15.864,769, -64, 634, -2, 0, -1, -12, -3, 20, 615, 57,W
2025-02-18 16:18:15.972,768, -58, 632, -1, 0, -2, -9, -2, 19, 651, 58,W
2025-02-18 16:18:16.079,813, -50, 637, -1, 3, 1, -9, -2, 17, 714, 58,W
2025-02-18 16:18:16.187,666, -133, 676, 0, -2, 0, -10, -3, 17, 751, 49,W
2025-02-18 16:18:16.294,805, -18, 611, 5, -7, -5, -10, -2, 19, 743, 70,W
2025-02-18 16:18:16.402,724, -73, 641, 3, -3, -15, -12, -3, 19, 663, 81,W
2025-02-18 16:18:16.510,782, -56, 637, 0, 2, -20, -11, -3, 17, 415, 87,W
2025-02-18 16:18:16.617,854, -169, 635, 2, -11, 5, -12, -4, 16, 565, 88,W
2025-02-18 16:18:16.723,791, 61, 605, 16, -6, 14, -9, 1, 18, 585, 100,W
2025-02-18 16:18:16.829,693, -236, 681, -21, -1, -51, -9, -4, 20, 808, 105,W
2025-02-18 16:18:16.941,731, -91, 621, 22, -11, 61, -10, 0, 19, 690, 104,W
2025-02-18 16:18:17.046,900, 100, 462, -3, -25, -18, -10, -1, 21, 610, 111,W
2025-02-18 16:18:17.154,843, 28, 580, 26, 5, -8, -10, -3, 21, 827, 0,W
2025-02-18 16:18:17.262,607, -144, 658, -5, 12, 14, -10, 0, 19, 650, 52,W
2025-02-18 16:18:17.362,880, -39, 581, -3, 2, 5, -10, -1, 18, 684, 0,W
2025-02-18 16:18:17.470,775, -66, 618, -2, 7, 0, -11, -2, 20, 590, 65,W
2025-02-18 16:18:18.991,768, -72, 626, -1, -2, -1, -10, -2, 18, 682, 67,X
2025-02-18 16:18:19.090,771, -82, 625, -3, 1, 2, -11, -3, 20, 703, 68,X
2025-02-18 16:18:19.197,753, -76, 632, -2, -2, 3, -10, -1, 20, 751, 64,X
2025-02-18 16:18:19.303,772, -83, 613, 0, -3, -1, -10, -3, 18, 771, 65,X
2025-02-18 16:18:19.412,769, -101, 615, 4, -12, -9, -11, 0, 20, 796, 76,X
2025-02-18 16:18:19.521,802, -62, 597, -1, -8, -10, -11, -3, 19, 816, 97,X
2025-02-18 16:18:19.627,802, -80, 596, -3, -4, -6, -10, -2, 21, 808, 103,X
2025-02-18 16:18:19.734,954, 131, 560, 23, 9, 43, -11, -1, 17, 262, 101,X
2025-02-18 16:18:19.844,882, 129, 535, -18, 32, -51, -10, -3, 16, 581, 85,X
2025-02-18 16:18:19.951,804, -77, 543, -7, -1, -11, -11, -2, 20, 540, 93,X
2025-02-18 16:18:20.057,820, -6, 543, 6, -16, 30, -10, -1, 21, 554, 108,X
2025-02-18 16:18:20.164,924, -85, 514, -41, 80, 7, -10, -1, 17, 609, 56,X
2025-02-18 16:18:20.274,689, -123, 645, 10, -27, -14, -10, 1, 17, 531, 39,X
2025-02-18 16:18:20.377,744, -113, 648, -3, 5, 2, -10, -1, 17, 524, 46,X
2025-02-18 16:18:22.590,756, -75, 632, 1, 0, -1, -10, -2, 20, 527, 74,Y
2025-02-18 16:18:22.691,752, -67, 625, 3, 0, -2, -11, -4, 18, 531, 77,Y
2025-02-18 16:18:22.794,807, 2, 587, 4, 4, -3, -11, -4, 18, 501, 90,Y
2025-02-18 16:18:22.908,771, -24, 608, -3, -2, -4, -12, -3, 18, 470, 91,Y
2025-02-18 16:18:23.010,768, -8, 634, -1, 0, -1, -12, -4, 18, 446, 92,Y
2025-02-18 16:18:23.121,774, -30, 621, -1, 0, -2, -9, -4, 19, 448, 92,Y
2025-02-18 16:18:23.227,740, -175, 578, -10, -36, 48, -10, -4, 18, 721, 97,Y
2025-02-18 16:18:23.334,840, 22, 577, 17, 7, 14, -11, -2, 17, 782, 99,Y
2025-02-18 16:18:23.445,531, -94, 718, 10, -48, -16, -10, -3, 20, 830, 80,Y
2025-02-18 16:18:23.551,645, -92, 672, -5, 10, -15, -12, -4, 19, 754, 105,Y
2025-02-18 16:18:23.658,810, -71, 607, 0, -5, 28, -11, -2, 19, 584, 103,Y
2025-02-18 16:18:23.760,838, -41, 530, 14, -1, 13, -10, 0, 19, 378, 107,Y
2025-02-18 16:18:23.869,556, -207, 645, -38, 62, 7, -11, 0, 17, 663, 47,Y
2025-02-18 16:18:23.981,804, -100, 624, 9, -11, -14, -10, 1, 16, 607, 44,Y
2025-02-18 16:18:24.088,741, -123, 652, -2, -1, -1, -10, -1, 17, 599, 44,Y
2025-02-18 16:18:26.692,754, -82, 631, -1, -1, -1, -10, -2, 18, 571, 61,Z
2025-02-18 16:18:26.804,765, -86, 632, -1, -1, -1, -10, -1, 18, 572, 61,Z
2025-02-18 16:18:26.909,775, -73, 625, -2, -1, -1, -13, -2, 20, 585, 63,Z
2025-02-18 16:18:27.016,766, -85, 617, 0, -3, -1, -11, -3, 18, 603, 62,Z
2025-02-18 16:18:27.123,781, -56, 640, 4, -9, -1, -10, -2, 20, 732, 68,Z
2025-02-18 16:18:27.226,763, -83, 621, 4, -3, -2, -10, -2, 18, 766, 71,Z
2025-02-18 16:18:27.336,734, -85, 631, -4, 7, -8, -10, -3, 18, 737, 72,Z
2025-02-18 16:18:27.442,799, -56, 642, 4, 4, -10, -10, -2, 17, 574, 79,Z
2025-02-18 16:18:27.543,804, -132, 532, 32, 7, -13, -10, -4, 17, 375, 93,Z
2025-02-18 16:18:27.659,738, -70, 633, 20, -18, 10, -10, -4, 18, 777, 108,Z
2025-02-18 16:18:27.762,929, 27, 483, 5, 19, -1, -11, -1, 19, 624, 99,Z
2025-02-18 16:18:27.876,837, 65, 575, -2, -44, 15, -10, -2, 19, 590, 105,Z
2025-02-18 16:18:27.976,860, -28, 535, -5, 15, 9, -10, -1, 19, 682, 0,Z
2025-02-18 16:18:28.075,758, -93, 604, -5, 4, -7, -9, 0, 18, 688, 0,Z
2025-02-18 16:18:28.192,769, -32, 621, -21, 26, 7, -10, 0, 16, 653, 0,Z
2025-02-18 16:18:28.298,774, -56, 619, 2, -8, -4, -9, 0, 17, 522, 45,Z
2025-02-18 16:18:28.409,775, -75, 638, -3, -3, -3, -9, -1, 17, 531, 49,Z
2025-02-18 16:18:29.725,790, -75, 618, -1, -4, 1, -10, -2, 18, 671, 63,a
2025-02-18 16:18:29.822,823, -78, 592, 14, -17, 2, -13, 0, 17, 733, 84,a
2025-02-18 16:18:29.933,787, -71, 592, -9, 0, -8, -10, -3, 20, 748, 102,a
2025-02-18 16:18:30.042,838, -105, 520, 18, 13, -7, -10, -1, 18, 449, 101,a
2025-02-18 16:18:30.149,800, -15, 583, 3, -13, -11, -11, 0, 19, 555, 108,a
2025-02-18 16:18:30.256,757, -251, 713, 3, -4, 61, -10, -2, 21, 614, 106,a
2025-02-18 16:18:30.362,1007, -24, 524, 23, 53, -14, -10, 1, 20, 708, 95,a
2025-02-18 16:18:30.469,726, -86, 653, 0, -13, -17, -11, -2, 17, 714, 48,a
2025-02-18 16:18:31.685,754, -217, 657, 11, 2, 18, -10, -5, 21, 646, 99,b
2025-02-18 16:18:31.780,861, 18, 549, 13, 0, 18, -9, -2, 19, 409, 102,b
2025-02-18 16:18:31.891,800, -147, 697, 7, -7, -19, -10, -1, 19, 594, 95,b
2025-02-18 16:18:31.992,746, 61, 716, 2, -19, 14, -10, -2, 21, 689, 107,b
2025-02-18 16:18:32.108,1124, 0, 610, -20, 74, 33, -8, -2, 20, 688, 444,b
2025-02-18 16:18:32.208,638, -123, 679, 9, -26, -6, -9, 1, 17, 713, 515,b
2025-02-18 16:18:32.321,750, -62, 639, -3, -8, -3, -9, -1, 17, 698, 606,b
2025-02-18 16:18:34.428,792, -62, 600, -1, -2, 0, -10, -1, 19, 747, 651,c
2025-02-18 16:18:34.536,894, -31, 621, 2, -8, -7, -10, -1, 21, 785, 681,c
2025-02-18 16:18:34.643,819, -64, 575, -6, 3, -11, -10, -1, 19, 751, 696,c
2025-02-18 16:18:34.750,920, -34, 534, 16, -8, 42, -10, -2, 17, 484, 618,c
2025-02-18 16:18:34.856,882, -110, 626, 43, 7, -11, -9, 0, 20, 758, 637,c
2025-02-18 16:18:34.962,475, -189, 720, -14, 8, 10, -8, 2, 18, 482, 537,c
2025-02-18 16:18:35.067,774, -94, 624, 0, -12, -10, -9, 0, 16, 459, 541,c
2025-02-18 16:18:36.985,797, -70, 608, 4, -7, 0, -11, -1, 18, 647, 521,d
2025-02-18 16:18:37.084,860, 55, 549, -6, -9, -2, -12, -2, 20, 709, 606,d
2025-02-18 16:18:37.195,797, -85, 583, -14, 11, -15, -12, -2, 18, 527, 605,d
2025-02-18 16:18:37.296,797, 144, 555, -6, -23, 24, -10, 0, 20, 532, 504,d
2025-02-18 16:18:37.408,745, -320, 664, -3, 6, -29, -10, -3, 20, 767, 643,d
2025-02-18 16:18:37.508,855, 110, 493, 10, -13, 58, -10, 0, 18, 514, 617,d
2025-02-18 16:18:37.623,719, -36, 542, -21, 64, 12, -10, 1, 19, 648, 567,d
2025-02-18 16:18:37.731,799, -123, 648, 3, -16, -9, -9, -1, 18, 575, 564,d
2025-02-18 16:18:37.838,779, -84, 634, -2, 0, -1, -11, -1, 17, 565, 591,d
2025-02-18 16:18:37.939,766, -78, 616, 0, -4, -2, -10, 0, 18, 506, 495,d
2025-02-18 16:18:38.051,783, -63, 597, 0, -7, -3, -9, -2, 18, 513, 540,d
2025-02-18 16:18:39.773,865, -140, 617, 3, -10, -10, -10, -2, 19, 610, 571,e
2025-02-18 16:18:39.865,776, -15, 626, 5, -16, 9, -10, 0, 19, 717, 586,e
2025-02-18 16:18:39.972,806, -106, 617, -19, 17, -21, -10, -2, 19, 693, 650,e
2025-02-18 16:18:40.073,843, 100, 529, 12, -23, 33, -10, 0, 19, 541, 605,e
2025-02-18 16:18:40.189,828, 7, 496, -24, 101, 35, -10, 1, 18, 652, 585,e
2025-02-18 16:18:40.290,668, -133, 638, 1, -23, -13, -9, 1, 15, 417, 522,e
2025-02-18 16:18:41.815,802, -96, 595, -3, -7, 0, -11, 0, 17, 545, 509,f
2025-02-18 16:18:41.914,832, -131, 579, -3, -2, -1, -9, -1, 20, 519, 465,f
2025-02-18 16:18:42.016,932, 97, 385, 5, 24, -78, -9, 0, 18, 544, 540,f
2025-02-18 16:18:42.124,798, 53, 651, -8, -33, -1, -11, -3, 20, 828, 679,f
2025-02-18 16:18:42.223,803, 38, 594, 3, 72, 21, -9, -2, 20, 737, 671,f
2025-02-18 16:18:42.339,819, -82, 595, 10, -2, -12, -11, -2, 17, 676, 714,f
2025-02-18 16:18:42.440,841, 49, 588, 9, 11, 10, -9, -2, 20, 781, 689,f
2025-02-18 16:18:42.555,549, -161, 683, -1, 10, 6, -11, -1, 16, 635, 646,f
2025-02-18 16:18:42.659,813, -58, 612, -1, 1, 3, -9, -1, 15, 567, 654,f
2025-02-18 16:18:44.578,782, -37, 599, -1, -2, -1, -11, -1, 18, 523, 494,g
2025-02-18 16:18:44.672,804, -41, 608, 0, -1, 1, -10, -1, 19, 611, 528,g
2025-02-18 16:18:44.781,784, -42, 604, -2, -2, 1, -10, -1, 17, 686, 658,g
2025-02-18 16:18:44.891,791, -35, 606, 4, -7, 1, -11, -1, 19, 745, 648,g
2025-02-18 16:18:44.988,810, -41, 595, 0, -6, -1, -11, -4, 18, 771, 703,g
2025-02-18 16:18:45.104,877, -24, 600, -3, -5, -3, -10, -2, 19, 788, 798,g
2025-02-18 16:18:45.205,795, -63, 624, -10, -6, -6, -11, 1, 18, 780, 715,g
2025-02-18 16:18:45.321,770, -180, 575, 7, 24, -16, -11, -4, 20, 541, 607,g
2025-02-18 16:18:45.427,844, 23, 576, -4, -22, 22, -10, -2, 18, 595, 649,g
2025-02-18 16:18:45.534,825, -144, 568, -3, 3, -11, -11, 0, 20, 734, 629,g
2025-02-18 16:18:45.640,855, -14, 535, -8, -4, 40, -10, -1, 20, 195, 389,g
2025-02-18 16:18:45.750,931, 30, 490, -45, 105, 37, -10, 1, 15, 564, 509,g
2025-02-18 16:18:45.858,684, -109, 655, 10, -29, -11, -8, 2, 15, 524, 465,g
2025-02-18 16:18:45.955,702, -121, 655, -7, 4, -7, -8, 0, 15, 308, 415,g
2025-02-18 16:18:48.581,755, -86, 651, -1, 1, -2, -8, 0, 15, 358, 399,h
2025-02-18 16:18:48.672,741, -76, 641, -4, 0, -2, -9, 0, 17, 410, 345,h
2025-02-18 16:18:48.786,775, -78, 639, -3, -4, -3, -10, -1, 17, 460, 411,h
2025-02-18 16:18:48.887,775, -71, 643, -2, -3, 0, -12, -1, 18, 549, 536,h
2025-02-18 16:18:48.987,781, -73, 625, -4, -4, -5, -10, -1, 17, 618, 517,h
2025-02-18 16:18:49.104,814, -64, 608, -8, 8, -4, -10, -1, 18, 707, 637,h
2025-02-18 16:18:49.204,675, -140, 669, -9, -1, -7, -11, 0, 18, 729, 691,h
2025-02-18 16:18:49.321,750, -71, 629, -4, -8, -9, -8, -4, 19, 755, 676,h
2025-02-18 16:18:49.430,843, -52, 592, 2, -19, -15, -10, -4, 20, 791, 772,h
2025-02-18 16:18:49.535,777, -27, 590, -3, 1, -3, -11, -1, 20, 777, 729,h
2025-02-18 16:18:49.642,813, -19, 588, -5, 1, -8, -11, -3, 19, 790, 736,h
2025-02-18 16:18:49.737,790, -45, 610, -13, 2, -20, -11, -5, 18, 817, 825,h
2025-02-18 16:18:49.859,813, -39, 581, -12, -5, -6, -11, -5, 20, 834, 760,h
2025-02-18 16:18:49.966,908, 174, 540, 25, -12, 66, -10, -2, 20, 583, 652,h
2025-02-18 16:18:50.071,798, -125, 602, -11, -7, -39, -11, -2, 20, 740, 759,h
2025-02-18 16:18:50.178,911, 11, 445, 16, 9, 35, -10, -1, 21, 665, 639,h
2025-02-18 16:18:50.287,494, -215, 750, -44, 69, 20, -9, 0, 16, 662, 639,h
2025-02-18 16:18:50.396,742, -106, 633, 12, -44, -26, -9, 1, 17, 655, 675,h
2025-02-18 16:18:51.611,793, -94, 553, -2, -3, -14, -11, -2, 23, 676, 595,i
2025-02-18 16:18:51.710,885, 57, 492, 20, 10, 15, -10, -4, 19, 487, 533,i
2025-02-18 16:18:51.820,825, 44, 605, -49, -33, -17, -11, -4, 21, 691, 650,i
2025-02-18 16:18:51.921,1092, 16, 496, 12, 28, 22, -11, -2, 22, 754, 655,i
2025-02-18 16:18:52.030,619, -146, 680, 11, -19, -2, -10, -2, 16, 641, 676,i
2025-02-18 16:18:52.136,843, -36, 594, -3, 2, 3, -9, -1, 20, 660, 639,i
2025-02-18 16:18:52.247,791, -65, 602, -2, -1, 2, -10, -2, 19, 644, 612,i
2025-02-18 16:18:52.353,787, -83, 616, -2, 0, -1, -9, -2, 19, 612, 656,i
2025-02-18 16:18:53.864,825, -37, 565, -2, -1, -5, -11, -3, 20, 772, 655,j
2025-02-18 16:18:53.967,814, -51, 560, -5, -1, -2, -10, -4, 21, 765, 672,j
2025-02-18 16:18:54.074,732, 3, 645, 7, -24, 76, -10, -1, 19, 440, 578,j
2025-02-18 16:18:54.184,973, 80, 372, 27, 60, -106, -11, -2, 18, 616, 553,j
2025-02-18 16:18:54.294,1015, 454, 854, -24, -46, -38, -11, -4, 22, 776, 664,j
2025-02-18 16:18:54.401,834, 113, 465, -25, 83, 50, -11, -4, 19, 742, 749,j
2025-02-18 16:18:54.508,660, -87, 622, 20, -40, -9, -10, -1, 17, 656, 624,j
2025-02-18 16:18:54.610,830, -25, 580, -5, 6, 5, -9, -2, 20, 659, 638,j
2025-02-18 16:18:54.717,803, -46, 594, -3, 0, 1, -11, -2, 18, 581, 654,j
2025-02-18 16:18:57.436,790, -55, 613, 2, -7, -1, -11, -2, 18, 608, 527,k
2025-02-18 16:18:57.535,786, -57, 621, -5, -1, 0, -10, -1, 19, 597, 542,k
2025-02-18 16:18:57.641,785, -74, 603, -3, -2, -1, -9, -2, 18, 584, 612,k
2025-02-18 16:18:57.748,791, -76, 597, -2, -3, -2, -11, -1, 20, 586, 536,k
2025-02-18 16:18:57.853,784, -65, 605, -1, -2, -1, -11, -1, 20, 557, 540,k
2025-02-18 16:18:57.960,801, -63, 601, 0, -3, -2, -11, -1, 18, 562, 605,k
2025-02-18 16:18:58.068,793, -66, 594, -1, -1, -1, -12, -1, 20, 559, 512,k
2025-02-18 16:18:58.178,787, -65, 590, -2, -1, -2, -10, -3, 18, 558, 532,k
2025-02-18 16:18:58.285,803, -51, 592, -1, 0, -3, -10, -3, 18, 584, 606,k
2025-02-18 16:18:58.386,805, -41, 585, -3, 5, -1, -10, -1, 20, 672, 578,k
2025-02-18 16:18:58.486,695, -134, 653, -7, -5, -6, -11, -1, 18, 782, 700,k
2025-02-18 16:18:58.608,806, -48, 595, 0, -9, -8, -10, -3, 19, 806, 764,k
2025-02-18 16:18:58.702,806, -40, 591, -3, 5, -5, -10, -2, 20, 807, 738,k
2025-02-18 16:18:58.819,805, -13, 586, -3, 6, -15, -11, -3, 18, 818, 810,k
2025-02-18 16:18:58.927,721, -189, 610, 30, 9, 1, -11, -5, 17, 784, 754,k
2025-02-18 16:18:59.033,815, -47, 610, 38, 2, 20, -9, -3, 20, 497, 582,k
2025-02-18 16:18:59.144,813, -27, 591, 10, -1, -9, -11, -2, 20, 766, 737,k
2025-02-18 16:18:59.250,784, 16, 582, -6, 35, 6, -10, -2, 20, 767, 684,k
2025-02-18 16:18:59.357,742, -30, 623, 2, 0, -8, -11, -2, 19, 760, 713,k
2025-02-18 16:18:59.467,858, -115, 553, -17, 3, -13, -11, -3, 17, 694, 752,k
2025-02-18 16:18:59.571,825, 18, 560, 13, 3, 16, -10, -3, 21, 692, 646,k
2025-02-18 16:18:59.681,480, -234, 759, -20, 60, 25, -10, 0, 17, 724, 677,k
2025-02-18 16:18:59.788,845, -32, 618, 9, -20, -9, -9, 2, 15, 678, 706,k
2025-02-18 16:19:00.989,782, -69, 627, 0, -1, -1, -8, -1, 17, 509, 509,l
2025-02-18 16:19:01.098,775, -61, 630, -3, 0, 0, -9, -3, 18, 511, 510,l
2025-02-18 16:19:01.209,771, -72, 628, -1, -1, -1, -11, 1, 17, 514, 543,l
2025-02-18 16:19:01.315,768, -73, 627, -1, 0, -1, -10, 0, 18, 513, 476,l
2025-02-18 16:19:01.419,766, -65, 626, -1, -1, -2, -10, -2, 18, 500, 515,l
2025-02-18 16:19:01.532,759, -65, 621, -2, -3, -4, -10, 0, 18, 526, 510,l
2025-02-18 16:19:01.639,769, -73, 638, -1, -4, -4, -11, -3, 18, 698, 583,l
2025-02-18 16:19:01.745,780, -67, 620, -5, -3, -6, -10, -3, 17, 782, 731,l
2025-02-18 16:19:01.851,763, -79, 636, -3, -4, -11, -13, -2, 19, 815, 721,l
2025-02-18 16:19:01.958,873, -17, 591, 2, -7, -6, -10, -4, 19, 815, 758,l
2025-02-18 16:19:02.065,769, -38, 605, -5, 3, -8, -10, -3, 17, 812, 833,l
2025-02-18 16:19:02.175,772, -64, 617, 0, -1, -1, -11, -3, 19, 808, 748,l
2025-02-18 16:19:02.282,811, -36, 606, -2, 5, 5, -11, -6, 19, 782, 756,l
2025-02-18 16:19:02.389,792, -73, 619, 0, 0, 1, -11, -4, 19, 778, 815,l
2025-02-18 16:19:02.498,721, -29, 621, -1, 3, -19, -11, -3, 19, 788, 730,l
2025-02-18 16:19:02.605,797, -31, 591, -11, 0, -7, -11, -5, 18, 796, 762,l
2025-02-18 16:19:02.711,822, 174, 528, 4, -18, 76, -10, -4, 18, 449, 604,l
2025-02-18 16:19:02.817,904, -60, 535, 18, 21, -9, -10, -1, 19, 753, 643,l
2025-02-18 16:19:02.925,600, -152, 721, 2, -17, -8, -10, 0, 15, 690, 698,l
2025-02-18 16:19:04.044,797, -27, 600, 0, -1, -2, -11, -4, 18, 746, 681,m
2025-02-18 16:19:04.141,806, -36, 558, -8, -6, -6, -8, -2, 21, 763, 679,m
2025-02-18 16:19:04.249,760, -79, 635, 13, -8, 37, -12, -3, 18, 634, 685,m
2025-02-18 16:19:04.352,813, -5, 424, 2, 0, -55, -10, -2, 19, 701, 656,m
2025-02-18 16:19:04.451,837, 26, 616, -8, -16, 25, -10, -3, 20, 726, 668,m
2025-02-18 16:19:04.567,816, -69, 573, 16, 3, 12, -12, -2, 20, 626, 689,m
2025-02-18 16:19:04.670,743, -6, 634, -5, -27, 38, -11, -2, 20, 730, 645,m
2025-02-18 16:19:04.783,895, -71, 548, 30, 15, -4, -11, -1, 21, 731, 683,m
2025-02-18 16:19:04.891,543, -165, 701, 0, -4, -5, -9, -2, 15, 692, 731,m
2025-02-18 16:19:07.305,760, -78, 605, -1, -2, -1, -10, 1, 20, 350, 406,n
2025-02-18 16:19:07.401,788, -58, 607, 0, -4, -5, -8, -3, 18, 349, 352,n
2025-02-18 16:19:07.501,780, -60, 618, 0, -2, -2, -11, -2, 17, 428, 444,n
2025-02-18 16:19:07.616,791, -52, 603, 0, -1, -1, -10, -1, 20, 423, 373,n
2025-02-18 16:19:07.722,777, -60, 603, -1, -2, 0, -11, -2, 18, 430, 402,n
2025-02-18 16:19:07.833,788, -56, 601, -1, 0, -1, -11, -3, 17, 430, 471,n
2025-02-18 16:19:07.933,783, -53, 596, -2, 1, -2, -10, -1, 20, 433, 387,n
2025-02-18 16:19:08.049,784, -58, 604, -2, -3, -2, -10, -2, 17, 441, 414,n
2025-02-18 16:19:08.155,787, -55, 606, -1, -2, -3, -12, -3, 17, 452, 482,n
2025-02-18 16:19:08.266,785, -23, 602, -5, -1, -8, -10, -1, 20, 512, 437,n
2025-02-18 16:19:08.372,808, -24, 612, -14, 11, -1, -10, -4, 18, 709, 597,n
2025-02-18 16:19:08.479,711, -65, 635, -4, 4, 2, -10, -2, 17, 757, 692,n
2025-02-18 16:19:08.585,748, -76, 643, 6, -1, 6, -10, -2, 18, 782, 694,n
2025-02-18 16:19:08.692,808, -23, 611, 6, -8, -10, -10, -4, 16, 789, 776,n
2025-02-18 16:19:08.802,751, -38, 643, -1, -8, -20, -11, -3, 18, 812, 755,n
2025-02-18 16:19:08.900,725, -166, 693, 5, -14, 42, -10, -4, 19, 766, 738,n
2025-02-18 16:19:09.015,823, -112, 456, 7, 3, -59, -11, -3, 18, 825, 829,n
2025-02-18 16:19:09.122,774, 98, 577, -14, -16, 62, -9, -2, 19, 619, 639,n
2025-02-18 16:19:09.228,824, 0, 536, -24, 85, 29, -10, -1, 20, 782, 710,n
2025-02-18 16:19:10.437,784, -37, 622, 3, -5, -2, -12, -2, 17, 635, 663,o
2025-02-18 16:19:10.543,783, -42, 609, -1, -1, 0, -10, -2, 18, 650, 592,o
2025-02-18 16:19:10.648,777, -45, 600, -1, -2, -4, -10, -5, 20, 681, 634,o
2025-02-18 16:19:10.749,769, -49, 604, 0, -2, -1, -11, 0, 18, 683, 709,o
2025-02-18 16:19:10.866,784, -38, 605, -1, -1, -1, -11, -1, 17, 700, 637,o
2025-02-18 16:19:10.966,798, -49, 591, 0, -1, 0, -11, -3, 19, 744, 690,o
2025-02-18 16:19:11.075,778, -42, 622, -4, 2, 3, -11, -1, 18, 820, 788,o
2025-02-18 16:19:11.183,808, -21, 606, -1, -4, -4, -12, -3, 19, 841, 759,o
2025-02-18 16:19:11.297,807, -48, 612, 4, -11, -3, -10, -3, 20, 835, 816,o
2025-02-18 16:19:11.399,754, -59, 604, -2, 3, -1, -12, -2, 20, 830, 808,o
2025-02-18 16:19:11.510,774, -92, 607, -1, -4, -1, -10, -5, 19, 845, 787,o
2025-02-18 16:19:11.616,809, -10, 595, -3, -6, -4, -11, -2, 20, 824, 837,o
2025-02-18 16:19:11.726,756, -94, 564, 3, 10, -17, -12, -3, 20, 731, 726,o
2025-02-18 16:19:11.833,749, 20, 663, -9, -28, 2, -11, -2, 20, 754, 725,o
2025-02-18 16:19:11.940,899, -17, 491, 15, 24, -12, -10, -3, 20, 829, 832,o
2025-02-18 16:19:12.046,565, -98, 674, -3, 11, 26, -9, 1, 15, 656, 660,o
2025-02-18 16:19:13.554,809, -7, 574, -1, -2, -2, -11, -3, 20, 730, 639,p
2025-02-18 16:19:13.661,821, -1, 575, -1, -3, -5, -10, -4, 20, 751, 749,p
2025-02-18 16:19:13.765,814, -12, 577, -3, 0, -2, -11, -3, 20, 763, 687,p
2025-02-18 16:19:13.873,811, -3, 577, -4, 0, -2, -11, -3, 21, 745, 709,p
2025-02-18 16:19:13.980,800, -93, 593, -3, -6, -26, -11, -4, 18, 733, 771,p
2025-02-18 16:19:14.081,860, 98, 512, 21, 5, 19, -9, 0, 20, 399, 488,p
2025-02-18 16:19:14.197,821, -154, 591, -5, -6, -31, -10, -5, 18, 820, 672,p
2025-02-18 16:19:14.303,688, 41, 637, 7, -9, 52, -10, -4, 19, 703, 714,p
2025-02-18 16:19:14.410,836, 76, 474, -44, 98, 37, -8, -2, 19, 713, 652,p
2025-02-18 16:19:14.520,694, -81, 674, 24, -48, -14, -9, -1, 17, 689, 701,p
2025-02-18 16:19:16.031,818, -8, 579, 2, -8, -2, -11, -2, 19, 810, 720,q
2025-02-18 16:19:16.130,806, 3, 576, 1, -7, -2, -10, -5, 19, 816, 716,q
2025-02-18 16:19:16.231,809, 5, 557, -3, -1, -4, -11, -4, 19, 809, 784,q
2025-02-18 16:19:16.347,785, -55, 566, 0, 3, -19, -12, -3, 20, 709, 728,q
2025-02-18 16:19:16.447,791, 139, 514, 2, -15, 26, -9, -4, 18, 603, 616,q
2025-02-18 16:19:16.564,801, -43, 543, -1, 1, -24, -10, -3, 19, 832, 776,q
2025-02-18 16:19:16.670,827, -5, 567, 2, -3, -8, -11, -5, 21, 815, 742,q
2025-02-18 16:19:16.777,905, 229, 414, -3, -2, 27, -9, -2, 18, 354, 509,q
2025-02-18 16:19:16.888,776, -68, 538, 27, -1, -13, -10, -2, 18, 742, 700,q
2025-02-18 16:19:16.994,612, -150, 725, -34, 48, 29, -8, 2, 17, 536, 529,q
2025-02-18 16:19:17.097,792, -58, 608, 2, -9, -10, -9, -1, 17, 431, 469,q
2025-02-18 16:19:17.207,779, -34, 627, -5, 5, -8, -9, -1, 17, 536, 556,q
2025-02-18 16:19:17.314,723, -54, 642, -1, -6, -4, -11, 2, 17, 537, 478,q
2025-02-18 16:19:17.420,799, -48, 596, -2, -5, -8, -10, -1, 17, 589, 547,q
2025-02-18 16:19:17.527,790, -37, 615, -3, 3, -8, -11, 0, 18, 635, 619,q
2025-02-18 16:19:17.629,749, -42, 620, 1, -7, -1, -10, 0, 18, 636, 577,q
2025-02-18 16:19:17.744,811, -18, 599, 2, -4, 1, -11, -2, 17, 642, 647,q
2025-02-18 16:19:17.846,795, -41, 612, 0, -1, 1, -9, -1, 20, 637, 612,q
2025-02-18 16:19:17.957,795, -28, 609, 0, -2, 0, -12, 0, 19, 583, 564,q
2025-02-18 16:19:18.063,783, -37, 605, 0, -2, 0, -11, -2, 17, 578, 620,q
2025-02-18 16:19:18.170,793, -36, 603, -1, -1, 2, -10, 0, 19, 567, 531,q
2025-02-18 16:19:19.686,824, 6, 552, -3, -3, -3, -10, -4, 20, 744, 617,r
2025-02-18 16:19:19.786,797, -8, 567, -3, -3, -4, -13, -3, 18, 751, 732,r
2025-02-18 16:19:19.895,844, -3, 566, -3, -2, -3, -12, -2, 19, 757, 690,r
2025-02-18 16:19:19.997,815, -14, 560, -9, -3, -4, -11, -3, 20, 747, 705,r
2025-02-18 16:19:20.097,811, -164, 586, 16, -4, -32, -11, -4, 20, 740, 771,r
2025-02-18 16:19:20.214,1045, 16, 562, -16, -27, -11, -11, -2, 19, 583, 592,r
2025-02-18 16:19:20.325,926, 134, 522, 10, -6, 4, -10, -3, 19, 810, 714,r
2025-02-18 16:19:20.430,793, -43, 566, -13, 37, 14, -9, -1, 20, 789, 798,r
2025-02-18 16:19:20.537,804, -36, 594, 5, -13, -8, -11, -1, 18, 667, 657,r
2025-02-18 16:19:21.749,795, -26, 571, 0, -4, -2, -10, -2, 19, 753, 668,s
2025-02-18 16:19:21.852,818, -17, 555, 0, -6, -3, -10, -1, 21, 765, 770,s
2025-02-18 16:19:21.962,849, -24, 581, -1, -11, -5, -12, -3, 21, 806, 724,s
2025-02-18 16:19:22.063,726, -53, 600, -2, -2, -15, -11, -4, 20, 732, 739,s
2025-02-18 16:19:22.171,733, 117, 631, 18, -17, 48, -10, 0, 20, 753, 763,s
2025-02-18 16:19:22.279,1146, -27, 306, 19, 56, -1, -11, -1, 20, 656, 642,s
2025-02-18 16:19:22.379,463, -77, 788, 4, -3, 12, -8, 0, 14, 669, 677,s
2025-02-18 16:19:22.496,845, -48, 568, 2, -13, -8, -11, 1, 18, 653, 620,s
2025-02-18 16:19:23.617,783, -41, 608, -1, -1, -1, -10, -1, 19, 667, 585,t
2025-02-18 16:19:23.712,784, -40, 604, 0, -1, -1, -11, -2, 17, 669, 669,t
2025-02-18 16:19:23.818,788, -40, 610, -1, -1, -1, -11, -2, 17, 668, 621,t
2025-02-18 16:19:23.924,783, -42, 603, -2, -1, -2, -9, -2, 18, 674, 633,t
2025-02-18 16:19:24.031,789, -41, 603, -4, 0, -7, -11, -3, 19, 685, 711,t
2025-02-18 16:19:24.141,793, -42, 614, -7, -2, -8, -10, -1, 19, 724, 652,t
2025-02-18 16:19:24.248,750, -23, 609, 3, -11, -7, -10, -4, 20, 750, 696,t
2025-02-18 16:19:24.350,837, 3, 575, 2, -7, -8, -11, -4, 18, 772, 787,t
2025-02-18 16:19:24.462,774, -12, 601, -5, -4, -13, -11, -3, 19, 811, 729,t
2025-02-18 16:19:24.572,859, -28, 608, 3, -9, -11, -10, -5, 20, 861, 796,t
2025-02-18 16:19:24.674,845, 98, 540, 31, 6, 68, -10, -4, 20, 679, 758,t
2025-02-18 16:19:24.784,720, 13, 617, 17, 6, -50, -10, -3, 20, 849, 753,t
2025-02-18 16:19:24.895,820, 75, 716, -26, -9, -22, -11, -6, 20, 724, 758,t
2025-02-18 16:19:24.997,777, 80, 577, 23, -8, 13, -11, -5, 21, 842, 785,t
2025-02-18 16:19:25.108,654, -116, 654, -32, 63, 26, -9, -2, 18, 672, 676,t
2025-02-18 16:19:26.320,806, 0, 579, -2, 0, -1, -11, -5, 19, 713, 681,u
2025-02-18 16:19:26.419,801, 2, 583, -2, 0, -3, -12, -2, 19, 726, 679,u
2025-02-18 16:19:26.529,807, -16, 580, -8, -2, -5, -10, -6, 20, 690, 652,u
2025-02-18 16:19:26.636,876, 176, 531, 6, -22, 34, -11, -4, 19, 615, 679,u
2025-02-18 16:19:26.742,787, -148, 570, 0, 4, -26, -10, -2, 21, 786, 679,u
2025-02-18 16:19:26.848,868, 132, 476, 11, -3, 27, -10, -2, 20, 627, 634,u
2025-02-18 16:19:26.959,649, -124, 666, -15, 27, 3, -10, -3, 19, 708, 727,u
2025-02-18 16:19:28.774,798, -6, 599, -2, 0, -2, -12, -4, 18, 794, 657,v
2025-02-18 16:19:28.872,800, -1, 594, -3, 4, -3, -12, -4, 19, 796, 712,v
2025-02-18 16:19:28.978,767, -16, 614, 0, -1, -1, -11, -4, 17, 800, 808,v
2025-02-18 16:19:29.078,769, -10, 606, -1, -1, 0, -13, -3, 17, 799, 733,v
2025-02-18 16:19:29.191,788, -7, 599, -2, -1, -2, -10, -4, 20, 802, 758,v
2025-02-18 16:19:29.298,794, 11, 593, -1, 0, -1, -11, -5, 19, 800, 828,v
2025-02-18 16:19:29.405,820, -15, 586, 4, 1, 1, -11, -4, 20, 822, 752,v
2025-02-18 16:19:29.511,820, 22, 581, -1, 6, 6, -10, -5, 20, 853, 797,v
2025-02-18 16:19:29.622,772, -4, 607, 3, -10, 0, -11, -3, 18, 851, 862,v
2025-02-18 16:19:29.728,787, -5, 591, -6, 2, -8, -11, -4, 19, 804, 761,v
2025-02-18 16:19:29.827,816, -7, 585, -6, -3, -7, -11, -5, 20, 769, 774,v
2025-02-18 16:19:29.944,824, 188, 584, 0, -20, 45, -10, -2, 20, 606, 687,v
2025-02-18 16:19:30.045,730, -215, 644, 10, -6, -34, -11, -3, 20, 807, 709,v
2025-02-18 16:19:30.162,714, -53, 570, -25, 47, 35, -10, -3, 20, 793, 785,v
2025-02-18 16:19:31.473,823, -3, 601, 0, 0, -2, -11, -3, 20, 708, 670,w
2025-02-18 16:19:31.572,774, 5, 594, 2, -3, -7, -12, -4, 20, 698, 638,w
2025-02-18 16:19:31.677,806, 8, 591, -1, 1, -3, -11, -5, 18, 643, 675,w
2025-02-18 16:19:31.788,801, 27, 584, -1, -1, -5, -11, -2, 20, 654, 629,w
2025-02-18 16:19:31.891,803, 9, 569, 4, 1, -12, -9, -4, 20, 644, 613,w
2025-02-18 16:19:31.993,816, 156, 560, 6, -8, 20, -10, -3, 20, 556, 625,w
2025-02-18 16:19:32.112,796, -80, 598, -7, -5, -27, -11, -2, 22, 769, 647,w
2025-02-18 16:19:32.218,794, 125, 529, 11, -9, 43, -10, -4, 20, 601, 603,w
2025-02-18 16:19:32.327,818, -55, 527, -21, -22, -35, -11, -5, 20, 707, 717,w
2025-02-18 16:19:32.428,745, 114, 489, -35, 103, 66, -10, -2, 18, 612, 580,w
2025-02-18 16:19:32.542,792, -37, 627, 16, -30, -8, -11, -1, 16, 478, 516,w
2025-02-18 16:19:32.644,746, -49, 617, -5, 6, 4, -9, -2, 16, 545, 566,w
2025-02-18 16:19:33.767,791, -18, 597, -2, -3, -3, -10, -3, 19, 633, 537,x
2025-02-18 16:19:33.860,794, -16, 593, -2, -3, -2, -9, -2, 19, 661, 600,x
2025-02-18 16:19:33.968,799, -18, 585, -2, -3, -2, -11, -3, 17, 680, 673,x
2025-02-18 16:19:34.077,806, -22, 589, -1, -2, -2, -10, -3, 21, 715, 640,x
2025-02-18 16:19:34.177,796, 2, 586, -1, -1, -2, -12, -3, 20, 746, 723,x
2025-02-18 16:19:34.276,815, -25, 586, 7, -4, 4, -11, -2, 18, 781, 740,x
2025-02-18 16:19:34.397,797, -15, 590, -3, 6, -1, -12, -4, 19, 832, 750,x
2025-02-18 16:19:34.504,779, -35, 587, -3, -4, -2, -11, -1, 18, 799, 810,x
2025-02-18 16:19:34.610,848, 17, 554, 0, -3, -7, -10, -2, 19, 807, 754,x
2025-02-18 16:19:34.721,804, -8, 572, 0, -10, -8, -10, -2, 20, 814, 768,x
2025-02-18 16:19:34.827,815, -11, 594, 0, -8, -11, -11, -2, 19, 829, 849,x
2025-02-18 16:19:34.934,751, 164, 465, 9, 10, 28, -12, -3, 19, 504, 585,x
2025-02-18 16:19:35.044,447, -100, 600, 1, -14, -41, -10, -4, 18, 725, 656,x
2025-02-18 16:19:35.147,800, 59, 534, 0, -18, 58, -11, -2, 20, 249, 481,x
2025-02-18 16:19:35.258,678, -108, 616, -30, 80, 10, -10, -1, 18, 675, 524,x
2025-02-18 16:19:35.368,804, -46, 630, 10, -25, -11, -10, -3, 16, 517, 527,x
2025-02-18 16:19:36.578,797, -33, 601, 1, -5, -3, -10, -2, 17, 700, 641,y
2025-02-18 16:19:36.679,792, -35, 585, -4, -2, -4, -12, -2, 18, 729, 620,y
2025-02-18 16:19:36.785,824, -25, 588, 4, -11, -8, -10, -5, 17, 785, 717,y
2025-02-18 16:19:36.892,798, -20, 584, -4, 8, -7, -11, -1, 20, 805, 778,y
2025-02-18 16:19:36.993,795, -15, 585, -3, 2, -7, -11, -3, 20, 823, 750,y
2025-02-18 16:19:37.109,796, 39, 672, -15, -6, -16, -11, -4, 18, 800, 808,y
2025-02-18 16:19:37.209,837, 143, 587, 7, -26, 46, -11, -2, 20, 640, 675,y
2025-02-18 16:19:37.318,764, -139, 609, 8, 5, -27, -10, -1, 20, 848, 743,y
2025-02-18 16:19:37.427,694, 3, 721, -12, -12, 88, -10, -5, 21, 495, 649,y
2025-02-18 16:19:37.539,1458, -52, 604, -33, 115, 29, -10, -2, 18, 738, 632,y
2025-02-18 16:19:37.645,654, -44, 676, 12, -25, -10, -10, 3, 17, 708, 665,y
2025-02-18 16:19:38.662,781, -34, 597, -1, -3, -4, -11, -1, 18, 667, 680,z
2025-02-18 16:19:38.759,799, -18, 593, 1, -5, -1, -9, -3, 18, 679, 612,z
2025-02-18 16:19:38.859,791, -22, 588, -1, -2, -2, -10, -1, 18, 684, 644,z
2025-02-18 16:19:38.973,797, -25, 586, -2, -2, -3, -11, -3, 19, 687, 714,z
2025-02-18 16:19:39.079,798, -35, 595, -2, 2, -1, -11, -2, 20, 670, 620,z
2025-02-18 16:19:39.186,792, 4, 583, 13, -12, 0, -10, -3, 20, 783, 717,z
2025-02-18 16:19:39.292,805, 4, 579, -5, 3, -5, -10, -3, 19, 791, 774,z
2025-02-18 16:19:39.403,786, -24, 588, -9, 4, -6, -11, -2, 20, 728, 695,z
2025-02-18 16:19:39.509,816, -2, 575, -1, 6, -5, -10, -3, 19, 728, 744,z
2025-02-18 16:19:39.616,747, 23, 592, -8, 0, -21, -13, -2, 19, 667, 666,z
2025-02-18 16:19:39.726,714, 94, 577, 21, -31, 25, -9, -4, 20, 822, 727,z
2025-02-18 16:19:39.832,886, 91, 467, -34, 16, 13, -10, -4, 19, 529, 660,z
2025-02-18 16:19:39.939,769, 15, 590, 21, -11, 9, -12, -3, 19, 659, 597,z
2025-02-18 16:19:40.050,591, -132, 606, 8, -63, -30, -9, -5, 17, 729, 662,z
2025-02-18 16:19:40.152,812, 65, 533, 18, -5, 14, -11, -2, 20, 784, 784,z
2025-02-18 16:19:40.259,585, -126, 695, -8, 36, 30, -10, -1, 18, 686, 651,z
2025-02-18 16:19:41.876,797, -16, 583, -3, -1, -2, -11, -3, 20, 511, 511,0
2025-02-18 16:19:41.975,799, -12, 583, -2, -2, -2, -12, -2, 19, 549, 591,0
2025-02-18 16:19:42.075,807, -48, 602, 1, -2, -5, -10, -3, 20, 580, 516,0
2025-02-18 16:19:42.175,793, 2, 575, -2, 0, 0, -11, -2, 21, 598, 558,0
2025-02-18 16:19:42.299,829, -4, 567, -2, -3, -5, -11, -3, 19, 676, 669,0
2025-02-18 16:19:42.405,786, -11, 575, 1, -2, -3, -11, -2, 21, 743, 644,0
2025-02-18 16:19:42.507,815, 3, 604, 2, -1, 0, -11, -2, 18, 808, 743,0
2025-02-18 16:19:42.618,818, -7, 554, 5, -11, -1, -11, -2, 18, 809, 783,0
2025-02-18 16:19:42.725,806, 7, 580, 4, -2, -3, -11, -3, 21, 826, 754,0
2025-02-18 16:19:42.831,786, -9, 569, 3, -3, 3, -12, -3, 20, 835, 831,0
2025-02-18 16:19:42.941,820, -1, 573, -7, -5, -3, -12, -4, 20, 832, 791,0
2025-02-18 16:19:43.048,807, -22, 581, -7, 1, -19, -11, -4, 20, 798, 762,0
2025-02-18 16:19:43.159,901, 221, 455, -1, -18, 62, -11, -3, 18, 606, 722,0
2025-02-18 16:19:43.265,823, -108, 526, 9, 3, -45, -10, -4, 21, 779, 690,0
2025-02-18 16:19:43.371,723, 43, 590, -23, 71, 62, -10, -2, 18, 727, 695,0
2025-02-18 16:19:43.478,772, -57, 619, 15, -40, -18, -11, 1, 17, 650, 723,0
2025-02-18 16:19:44.897,811, 22, 566, -2, -6, -5, -10, -3, 21, 705, 607,1
2025-02-18 16:19:44.990,809, 11, 562, -7, 0, -7, -12, -5, 20, 721, 660,1
2025-02-18 16:19:45.100,812, -4, 586, -4, -2, -8, -11, -5, 19, 716, 741,1
2025-02-18 16:19:45.206,846, 127, 468, -5, -6, 45, -11, -3, 20, 0, 267,1
2025-02-18 16:19:45.317,1014, 71, 555, -31, 96, 30, -11, -2, 18, 724, 529,1
2025-02-18 16:19:45.424,685, -42, 633, 8, -36, -11, -10, 0, 18, 645, 625,1
2025-02-18 16:19:46.638,796, -10, 585, -7, 3, -4, -12, -4, 19, 735, 603,2
2025-02-18 16:19:46.735,758, -15, 583, -1, 0, -2, -11, -4, 19, 700, 649,2
2025-02-18 16:19:46.845,866, -138, 424, 17, 3, -17, -13, -5, 20, 634, 677,2
2025-02-18 16:19:46.940,705, 33, 667, 14, -4, 36, -10, -2, 21, 822, 698,2
2025-02-18 16:19:47.057,821, -47, 602, 1, 10, -8, -11, -1, 19, 507, 609,2
2025-02-18 16:19:47.157,848, 68, 509, 18, -1, 19, -11, -3, 21, 572, 583,2
2025-02-18 16:19:47.274,681, -75, 652, -11, 44, 14, -10, 0, 20, 641, 575,2
2025-02-18 16:19:48.788,807, 12, 577, -2, 0, -1, -10, -4, 23, 573, 548,3
2025-02-18 16:19:48.885,810, 9, 572, -1, -1, -1, -11, -4, 20, 587, 578,3
2025-02-18 16:19:48.995,813, 19, 571, -2, -2, -2, -10, -5, 19, 612, 552,3
2025-02-18 16:19:49.097,829, 0, 569, 11, -5, 3, -10, -5, 20, 744, 696,3
2025-02-18 16:19:49.207,781, 5, 576, -2, 2, -4, -10, -2, 20, 845, 738,3
2025-02-18 16:19:49.315,810, 22, 569, -4, 2, -4, -11, -4, 21, 849, 768,3
2025-02-18 16:19:49.421,820, 6, 566, -6, 3, -9, -10, -5, 21, 831, 841,3
2025-02-18 16:19:49.528,824, 0, 516, -8, -5, -8, -12, -5, 20, 727, 708,3
2025-02-18 16:19:49.638,759, 27, 655, 14, -8, -4, -10, -5, 20, 860, 784,3
2025-02-18 16:19:49.744,859, 42, 457, 8, 17, -1, -10, -4, 20, 719, 802,3
2025-02-18 16:19:49.851,803, 39, 586, -1, -3, 19, -10, -2, 21, 562, 595,3
2025-02-18 16:19:49.961,774, 31, 535, -32, 82, 32, -10, -3, 17, 676, 632,3
2025-02-18 16:19:50.068,708, -69, 639, 19, -45, -16, -9, 1, 16, 651, 686,3
2025-02-18 16:19:51.475,812, 9, 571, -2, -2, -4, -11, -4, 21, 765, 633,4
2025-02-18 16:19:51.584,846, -12, 641, -8, -7, -6, -12, -3, 20, 813, 721,4
2025-02-18 16:19:51.690,775, -61, 633, 17, 10, 2, -10, -6, 21, 680, 747,4
2025-02-18 16:19:51.796,791, 49, 587, 6, -35, 14, -10, -4, 21, 695, 646,4
2025-02-18 16:19:51.903,869, 98, 518, 10, 23, -19, -11, -4, 19, 770, 719,4
2025-02-18 16:19:52.013,647, 17, 703, -29, -25, -27, -11, -6, 20, 799, 781,4
2025-02-18 16:19:52.120,912, 175, 373, 9, -1, 35, -11, -2, 22, 231, 416,4
2025-02-18 16:19:52.230,636, -107, 620, -36, 75, 17, -11, -2, 17, 710, 619,4
2025-02-18 16:19:52.333,838, -21, 596, 5, -27, -12, -10, -2, 17, 629, 586,4
2025-02-18 16:19:53.846,799, -19, 585, 3, 3, -9, -11, -4, 20, 805, 649,5
2025-02-18 16:19:53.948,781, 7, 593, 13, -12, -2, -10, -5, 18, 857, 792,5
2025-02-18 16:19:54.054,802, 31, 562, 1, 1, -4, -11, -5, 19, 865, 798,5
2025-02-18 16:19:54.160,799, 13, 604, -3, 4, -4, -9, -4, 20, 843, 787,5
2025-02-18 16:19:54.271,816, -51, 536, -1, -2, -14, -11, -5, 19, 723, 788,5
2025-02-18 16:19:54.377,843, 29, 528, 15, -3, -1, -11, -3, 22, 854, 768,5
2025-02-18 16:19:54.488,716, -53, 615, 8, -19, -11, -11, -7, 20, 797, 765,5
2025-02-18 16:19:54.589,819, 128, 554, -4, -9, 35, -10, -4, 20, 586, 719,5
2025-02-18 16:19:54.697,810, -5, 619, 18, -18, 0, -9, -3, 21, 732, 658,5
2025-02-18 16:19:54.805,865, 84, 394, -3, 20, 22, -11, -4, 21, 351, 475,5
2025-02-18 16:19:54.905,450, -125, 786, -17, 42, 24, -11, 1, 18, 621, 613,5
2025-02-18 16:19:55.021,837, -30, 598, 6, -9, -7, -10, -1, 17, 589, 528,5
2025-02-18 16:19:56.238,791, -18, 601, 1, -3, -3, -11, -4, 19, 489, 476,6
2025-02-18 16:19:56.335,799, -25, 600, 0, -3, -1, -11, -4, 18, 553, 573,6
2025-02-18 16:19:56.442,801, -20, 597, 1, -5, -3, -10, -2, 20, 644, 543,6
2025-02-18 16:19:56.548,803, -3, 588, 1, -6, -2, -10, -4, 18, 677, 625,6
2025-02-18 16:19:56.659,816, -10, 573, 5, -4, -2, -10, -2, 19, 726, 700,6
2025-02-18 16:19:56.765,788, -8, 577, 1, -3, -2, -11, -3, 19, 762, 679,6
2025-02-18 16:19:56.871,806, -20, 578, 3, -4, -1, -11, -2, 19, 784, 766,6
2025-02-18 16:19:56.979,792, 11, 562, 10, -21, -1, -11, -2, 20, 834, 767,6
2025-02-18 16:19:57.089,809, -4, 595, -10, -5, -11, -11, -3, 21, 843, 780,6
2025-02-18 16:19:57.195,752, -167, 563, 25, 21, 2, -10, -5, 19, 655, 750,6
2025-02-18 16:19:57.302,763, -9, 707, -2, -20, 6, -12, -2, 20, 609, 611,6
2025-02-18 16:19:57.408,1189, 42, 592, -6, 62, 44, -10, -4, 20, 718, 661,6
2025-02-18 16:19:57.514,659, -57, 671, -8, 10, 2, -11, 1, 15, 617, 686,6
2025-02-18 16:19:58.628,805, -12, 582, -1, -2, -2, -10, -3, 20, 608, 547,7
2025-02-18 16:19:58.732,807, -15, 579, -2, -2, -2, -10, -2, 20, 655, 598,7
2025-02-18 16:19:58.838,804, -10, 575, -1, -2, -2, -11, -3, 19, 670, 693,7
2025-02-18 16:19:58.938,816, -14, 581, -1, -1, -2, -12, -1, 21, 678, 611,7
2025-02-18 16:19:59.050,814, -4, 576, -1, 0, -1, -11, -4, 19, 713, 663,7
2025-02-18 16:19:59.154,811, -6, 572, 0, 0, -3, -12, -2, 21, 736, 727,7
2025-02-18 16:19:59.254,845, 11, 560, -2, 1, -7, -10, -1, 20, 756, 686,7
2025-02-18 16:19:59.374,1030, 68, 573, -8, 3, -13, -11, -5, 21, 700, 709,7
2025-02-18 16:19:59.481,775, 26, 588, 19, -20, 20, -11, -2, 18, 860, 784,7
2025-02-18 16:19:59.587,845, 129, 470, -4, 3, 43, -9, -3, 18, 530, 597,7
2025-02-18 16:19:59.698,627, -9, 584, -29, 46, -36, -10, 0, 18, 658, 675,7
2025-02-18 16:19:59.804,1170, 112, 625, 2, -37, 19, -11, -2, 21, 641, 602,7
2025-02-18 16:19:59.912,887, 36, 477, 22, 15, 9, -9, -3, 21, 812, 707,7
2025-02-18 16:20:00.020,478, -117, 747, -8, 22, 16, -10, -1, 17, 563, 672,7
2025-02-18 16:20:01.432,873, 64, 559, -8, -9, -3, -10, -1, 23, 763, 632,8
2025-02-18 16:20:01.536,872, -17, 599, -16, -3, -19, -11, -2, 22, 717, 661,8
2025-02-18 16:20:01.636,884, 117, 525, -2, -24, 65, -9, -3, 20, 590, 672,8
2025-02-18 16:20:01.737,758, -44, 523, 9, 15, -61, -10, -3, 23, 838, 698,8
2025-02-18 16:20:01.857,770, 132, 653, -4, -19, 8, -10, -5, 21, 870, 785,8
2025-02-18 16:20:01.962,880, 108, 337, 23, 40, 18, -9, -3, 18, 684, 768,8
2025-02-18 16:20:02.069,396, -129, 826, -29, 44, 43, -8, 1, 17, 648, 621,8
2025-02-18 16:20:02.175,833, -32, 583, 2, -11, -4, -10, 1, 17, 655, 649,8
2025-02-18 16:20:02.286,723, -45, 624, 1, -17, -10, -9, 0, 14, 666, 677,8
2025-02-18 16:20:02.389,790, -20, 580, 1, -3, -7, -10, 0, 17, 756, 670,8
2025-02-18 16:20:02.499,803, -22, 599, 1, -8, -7, -10, 0, 16, 809, 781,8
2025-02-18 16:20:02.605,778, -11, 604, 0, -8, -4, -10, -1, 16, 824, 765,8
2025-02-18 16:20:02.711,798, 19, 592, 2, -11, -3, -9, -2, 19, 828, 771,8
2025-02-18 16:20:02.819,840, 17, 550, 6, -14, -3, -11, -1, 20, 825, 842,8
2025-02-18 16:20:02.925,790, 8, 572, 3, -18, -6, -11, -2, 17, 840, 773,8
2025-02-18 16:20:03.037,836, -14, 588, -14, -2, -18, -11, -4, 20, 796, 781,8
2025-02-18 16:20:03.142,817, 231, 470, 2, -23, 44, -10, -2, 19, 659, 765,8
2025-02-18 16:20:03.253,933, -14, 473, 4, 22, -69, -12, -2, 20, 825, 724,8
2025-02-18 16:20:03.359,710, 66, 666, -4, -14, -16, -11, -4, 22, 879, 803,8
2025-02-18 16:20:03.466,931, 132, 361, 30, 47, 28, -11, -4, 19, 725, 797,8
2025-02-18 16:20:03.570,403, -114, 850, -19, 29, 27, -7, -2, 17, 697, 674,8
2025-02-18 16:20:05.092,787, -7, 594, -1, -3, -2, -11, -5, 19, 702, 625,9
2025-02-18 16:20:05.186,804, -3, 592, 0, -3, -2, -9, -2, 18, 722, 730,9
2025-02-18 16:20:05.292,807, 0, 584, 0, -3, -2, -9, -2, 19, 743, 662,9
2025-02-18 16:20:05.399,816, 8, 576, -1, -3, -3, -11, -4, 20, 754, 706,9
2025-02-18 16:20:05.510,808, -1, 574, -1, -1, -1, -11, -4, 20, 756, 758,9
2025-02-18 16:20:05.617,813, 3, 573, -1, -1, -1, -11, -2, 21, 760, 702,9
2025-02-18 16:20:05.717,813, -6, 576, -1, 1, -1, -11, -4, 19, 777, 758,9
2025-02-18 16:20:05.830,798, -6, 589, 0, -3, -1, -12, -1, 19, 800, 771,9
2025-02-18 16:20:05.936,842, 19, 556, 3, -9, -1, -11, -3, 20, 816, 753,9
2025-02-18 16:20:06.043,813, 29, 566, 2, -8, -2, -10, -4, 19, 831, 827,9
2025-02-18 16:20:06.148,821, 22, 549, 0, -2, 0, -11, -2, 21, 828, 780,9
2025-02-18 16:20:06.259,927, 51, 545, -4, -5, 0, -11, -2, 22, 840, 792,9
2025-02-18 16:20:06.368,853, -22, 589, -11, 4, -21, -11, -4, 19, 766, 814,9
2025-02-18 16:20:06.476,865, 135, 519, 1, -10, 23, -10, -1, 21, 760, 718,9
2025-02-18 16:20:06.583,838, -56, 541, 13, 3, -27, -10, -2, 22, 865, 792,9
2025-02-18 16:20:06.685,828, 41, 353, 0, 13, 28, -12, 0, 20, 423, 628,9
2025-02-18 16:20:06.796,534, -74, 670, -29, 114, 44, -8, 0, 15, 737, 628,9
2025-02-18 16:20:06.902,745, -61, 688, 15, -33, -7, -9, 1, 15, 577, 589,9
2025-02-18 16:20:07.009,721, -73, 694, -8, 1, -6, -11, 1, 13, 511, 588,9
