Timestamp,Acc_X,Acc_Y,Acc_Z,Gyro_X,Gyro_Y,Gyro_Z,Mag_X,Mag_Y,Mag_Z,Force,IR_A,Letter
2025-02-19 16:35:58.399,676, -92, 685, -6, 0, 0, -5, -2, 8, 0, 30,noise
2025-02-19 16:35:58.499,688, -23, 698, 14, -13, -11, -5, -2, 9, 0, 33,noise
2025-02-19 16:35:58.611,712, -22, 694, 11, -1, -10, -4, -4, 10, 3, 37,noise
2025-02-19 16:35:58.711,736, 2, 680, 10, 2, -15, -6, -4, 8, 0, 39,noise
2025-02-19 16:35:58.819,726, 33, 686, 0, 1, -7, -5, -4, 8, 0, 42,noise
2025-02-19 16:35:58.929,699, 50, 682, -3, -6, -7, -6, -3, 8, 40, 48,noise
2025-02-19 16:35:59.036,722, -3, 686, -17, -7, 20, -5, -3, 9, 278, 50,noise
2025-02-19 16:35:59.143,731, -6, 679, 5, 0, 8, -6, -5, 8, 180, 46,noise
2025-02-19 16:35:59.249,706, -7, 675, 8, 2, -4, -5, -4, 8, 26, 44,noise
2025-02-19 16:35:59.349,721, 18, 669, 3, 2, -4, -4, -4, 10, 0, 45,noise
2025-02-19 16:36:01.179,784, -95, 616, -2, -5, -9, -6, -5, 14, 720, 66,A
2025-02-19 16:36:01.270,794, -68, 614, -6, -6, -8, -6, -4, 14, 768, 67,A
2025-02-19 16:36:01.379,740, -35, 624, -8, -19, -9, -6, -6, 13, 722, 73,A
2025-02-19 16:36:01.491,874, 12, 561, -2, -6, -16, -7, -8, 14, 713, 104,A
2025-02-19 16:36:01.593,810, -26, 565, -2, 2, -12, -7, -9, 15, 731, 107,A
2025-02-19 16:36:01.707,809, -33, 574, -2, -2, -12, -7, -9, 17, 696, 112,A
2025-02-19 16:36:01.809,956, 356, 419, -8, 2, 44, -6, -9, 14, 252, 106,A
2025-02-19 16:36:01.919,574, -154, 541, -7, -19, -64, -8, -6, 14, 665, 101,A
2025-02-19 16:36:02.031,771, -100, 633, 13, -32, 75, -7, -8, 15, 682, 106,A
2025-02-19 16:36:02.129,930, -12, 607, 25, 62, -20, -7, -5, 13, 686, 99,A
2025-02-19 16:36:02.243,806, -142, 505, 50, 5, -21, -5, -7, 16, 249, 105,A
2025-02-19 16:36:02.343,817, 42, 574, 7, 2, 14, -4, -7, 16, 783, 102,A
2025-02-19 16:36:02.449,658, -163, 684, 6, 51, 24, -6, -5, 12, 422, 0,A
2025-02-19 16:36:03.269,778, 13, 623, 3, -6, -4, -6, -7, 14, 690, 77,B
2025-02-19 16:36:03.370,723, -22, 613, 9, -14, -20, -7, -8, 13, 622, 95,B
2025-02-19 16:36:03.481,786, -202, 773, -30, -14, 56, -7, -8, 15, 543, 99,B
2025-02-19 16:36:03.584,744, 83, 529, 20, 17, -67, -6, -6, 13, 660, 98,B
2025-02-19 16:36:03.692,836, 109, 638, -9, -25, 6, -5, -8, 15, 746, 100,B
2025-02-19 16:36:03.796,945, 84, 377, 10, 11, 9, -6, -8, 14, 607, 102,B
2025-02-19 16:36:03.907,687, 70, 757, -6, -18, 30, -7, -6, 15, 666, 99,B
2025-02-19 16:36:04.009,1004, 18, 492, 26, 31, -7, -6, -5, 14, 327, 96,B
2025-02-19 16:36:04.125,531, -157, 703, 13, -26, -22, -7, -5, 12, 553, 46,B
2025-02-19 16:36:04.841,801, 18, 597, 0, -3, -3, -7, -7, 14, 647, 80,C
2025-02-19 16:36:04.935,800, 20, 594, 2, -6, -4, -7, -8, 14, 664, 86,C
2025-02-19 16:36:05.042,768, 14, 583, 1, -10, -6, -7, -8, 15, 699, 96,C
2025-02-19 16:36:05.149,726, -82, 639, 17, 10, -24, -7, -9, 14, 495, 102,C
2025-02-19 16:36:05.259,906, 231, 504, 9, -15, 64, -5, -7, 12, 330, 95,C
2025-02-19 16:36:05.359,820, 60, 577, 10, 2, 4, -5, -5, 15, 803, 94,C
2025-02-19 16:36:05.469,541, -155, 714, -23, 17, 5, -5, -3, 11, 607, 0,C
2025-02-19 16:36:06.291,785, 14, 616, 2, -1, -5, -6, -7, 12, 586, 56,D
2025-02-19 16:36:06.385,761, 27, 622, 4, -10, -13, -7, -8, 14, 477, 62,D
2025-02-19 16:36:06.492,809, 54, 610, -1, -3, -13, -7, -9, 14, 366, 83,D
2025-02-19 16:36:06.602,827, 281, 639, -3, -16, 58, -7, -7, 15, 489, 89,D
2025-02-19 16:36:06.709,806, -60, 549, 34, 23, -75, -4, -6, 14, 549, 91,D
2025-02-19 16:36:06.809,660, 112, 731, -10, -20, 17, -6, -9, 13, 768, 0,D
2025-02-19 16:36:06.919,819, 27, 465, 13, 34, 19, -6, -7, 15, 229, 96,D
2025-02-19 16:36:07.029,570, -81, 730, -33, 20, 2, -6, -7, 11, 538, 43,D
2025-02-19 16:36:07.849,773, -11, 624, -1, -2, -2, -7, -7, 14, 605, 68,E
2025-02-19 16:36:07.942,781, 6, 610, -1, -2, -2, -6, -8, 13, 606, 71,E
2025-02-19 16:36:08.052,764, 12, 622, -2, -3, -5, -6, -7, 13, 573, 75,E
2025-02-19 16:36:08.159,712, -37, 615, -2, -11, -20, -7, -6, 14, 439, 84,E
2025-02-19 16:36:08.265,774, -75, 608, 10, 0, -19, -7, -8, 14, 288, 98,E
2025-02-19 16:36:08.371,818, 181, 532, 0, -6, 36, -5, -7, 14, 234, 99,E
2025-02-19 16:36:08.486,531, -164, 582, -23, -13, -75, -9, -7, 12, 476, 85,E
2025-02-19 16:36:08.589,724, 130, 615, 17, -21, 13, -6, -10, 15, 761, 0,E
2025-02-19 16:36:08.691,601, 38, 620, -49, 47, 17, -6, -8, 14, 500, 76,E
2025-02-19 16:36:08.806,797, 128, 570, 19, -21, 16, -7, -6, 14, 649, 89,E
2025-02-19 16:36:08.909,431, -5, 589, -46, 23, 15, -5, -7, 12, 404, 79,E
2025-02-19 16:36:09.019,805, 131, 561, 52, -41, 16, -6, -6, 14, 616, 89,E
2025-02-19 16:36:09.125,656, -36, 438, -83, 72, 9, -4, -5, 13, 607, 48,E
2025-02-19 16:36:09.843,799, 72, 599, -2, 3, -5, -5, -7, 14, 541, 76,F
2025-02-19 16:36:09.941,732, 2, 610, 5, -19, -22, -7, -7, 12, 496, 88,F
2025-02-19 16:36:10.041,909, -237, 755, 2, -13, 49, -6, -9, 14, 563, 93,F
2025-02-19 16:36:10.149,803, 109, 524, 19, 0, -37, -6, -6, 14, 651, 96,F
2025-02-19 16:36:10.263,836, -84, 522, 44, -7, -38, -6, -8, 14, 595, 95,F
2025-02-19 16:36:10.367,785, 97, 653, 0, -3, 30, -6, -9, 16, 811, 90,F
2025-02-19 16:36:10.477,1578, -2, 481, 51, 16, -33, -5, -8, 14, 390, 89,F
2025-02-19 16:36:10.584,753, 90, 626, -2, -5, 22, -5, -6, 14, 802, 89,F
2025-02-19 16:36:10.690,599, -54, 664, -15, 11, -7, -6, -6, 13, 696, 48,F
2025-02-19 16:36:10.797,793, 60, 613, 2, -4, -6, -6, -6, 13, 647, 57,F
2025-02-19 16:36:11.509,765, 49, 609, -2, -6, -4, -6, -8, 13, 588, 67,G
2025-02-19 16:36:11.612,792, 55, 582, 3, -7, -1, -6, -9, 13, 654, 76,G
2025-02-19 16:36:11.722,816, 73, 552, -5, -4, -12, -7, -10, 15, 735, 93,G
2025-02-19 16:36:11.829,828, 128, 585, 29, 13, 46, -6, -9, 14, 448, 91,G
2025-02-19 16:36:11.935,745, 90, 625, 6, -15, -22, -6, -7, 14, 705, 90,G
2025-02-19 16:36:12.040,808, 271, 576, 2, -9, 49, -6, -7, 14, 673, 90,G
2025-02-19 16:36:12.153,463, -146, 573, -35, 4, -55, -5, -6, 14, 540, 83,G
2025-02-19 16:36:12.259,763, 225, 627, 27, -17, 31, -6, -8, 13, 834, 87,G
2025-02-19 16:36:12.359,661, -69, 661, -36, 44, 9, -6, -7, 11, 689, 51,G
2025-02-19 16:36:13.079,765, 80, 610, 1, 3, -4, -7, -8, 12, 131, 76,H
2025-02-19 16:36:13.172,784, 71, 588, 2, -2, -10, -5, -10, 12, 0, 81,H
2025-02-19 16:36:13.282,769, 78, 594, 3, 0, -8, -6, -10, 12, 0, 91,H
2025-02-19 16:36:13.390,799, 263, 530, -4, -6, 41, -6, -8, 14, 0, 89,H
2025-02-19 16:36:13.499,692, -15, 693, -21, 9, -37, -6, -7, 13, 0, 84,H
2025-02-19 16:36:13.607,729, 189, 535, 4, -29, 25, -7, -8, 13, 640, 90,H
2025-02-19 16:36:13.717,536, -144, 591, -21, -3, -41, -8, -8, 14, 745, 81,H
2025-02-19 16:36:13.824,803, 290, 546, 1, -13, 76, -6, -8, 14, 653, 91,H
2025-02-19 16:36:13.929,968, 130, 614, -40, 56, 0, -6, -5, 14, 639, 71,H
2025-02-19 16:36:14.746,778, 53, 615, 3, -3, -3, -8, -9, 12, 287, 81,I
2025-02-19 16:36:14.841,777, 55, 620, 7, 1, -4, -7, -7, 12, 114, 87,I
2025-02-19 16:36:14.943,797, 71, 612, -1, -4, -9, -6, -8, 13, 0, 92,I
2025-02-19 16:36:15.061,712, 120, 640, -11, -19, 24, -6, -9, 14, 747, 88,I
2025-02-19 16:36:15.159,613, -160, 621, -9, -4, -25, -6, -7, 14, 327, 76,I
2025-02-19 16:36:15.274,799, 202, 577, 3, -3, 69, -6, -9, 14, 358, 89,I
2025-02-19 16:36:15.379,513, -141, 513, 20, -15, -27, -6, -8, 12, 0, 81,I
2025-02-19 16:36:15.486,775, 138, 615, 11, -21, 22, -5, -7, 13, 716, 89,I
2025-02-19 16:36:15.594,670, -36, 644, -24, 36, 5, -5, -5, 11, 559, 49,I
2025-02-19 16:36:16.409,784, 79, 623, 5, -1, -1, -6, -8, 11, 287, 72,J
2025-02-19 16:36:16.506,786, 95, 610, 8, 2, -4, -7, -10, 12, 167, 77,J
2025-02-19 16:36:16.616,665, 77, 612, 11, -11, -13, -7, -8, 13, 6, 81,J
2025-02-19 16:36:16.723,737, 126, 598, -42, -32, 19, -7, -9, 13, 691, 89,J
2025-02-19 16:36:16.830,614, 69, 588, -4, 24, -12, -6, -9, 12, 535, 77,J
2025-02-19 16:36:16.940,767, 220, 680, -19, -15, 71, -4, -7, 14, 620, 89,J
2025-02-19 16:36:17.040,1063, -105, 385, 42, 26, -13, -6, -8, 13, 0, 88,J
2025-02-19 16:36:17.153,474, -79, 745, -4, 1, -7, -6, -5, 11, 473, 41,J
2025-02-19 16:36:18.173,764, 56, 631, -1, -3, -5, -6, -8, 12, 166, 68,K
2025-02-19 16:36:18.264,781, 81, 624, 3, -1, -6, -5, -8, 12, 180, 75,K
2025-02-19 16:36:18.373,851, 203, 573, 2, -8, -17, -6, -8, 13, 0, 92,K
2025-02-19 16:36:18.482,780, 245, 636, -28, -19, 59, -6, -10, 14, 335, 90,K
2025-02-19 16:36:18.587,819, -38, 642, 5, 5, -39, -7, -9, 12, 677, 78,K
2025-02-19 16:36:18.698,725, 104, 616, -11, 4, 11, -5, -10, 12, 738, 89,K
2025-02-19 16:36:18.804,1051, 68, 634, -50, -17, 69, -6, -7, 13, 179, 90,K
2025-02-19 16:36:18.910,855, 66, 551, 15, -1, 8, -5, -6, 14, 602, 91,K
2025-02-19 16:36:19.017,591, -78, 702, -3, -5, -11, -6, -5, 12, 440, 47,K
2025-02-19 16:36:19.829,769, 74, 616, 0, -3, -3, -6, -8, 12, 0, 77,L
2025-02-19 16:36:19.926,773, 98, 625, 3, -3, -4, -6, -8, 12, 0, 81,L
2025-02-19 16:36:20.036,826, 113, 645, 1, -7, -18, -5, -10, 11, 0, 92,L
2025-02-19 16:36:20.139,726, 142, 675, 2, 1, 66, -5, -8, 13, 3, 87,L
2025-02-19 16:36:20.254,802, 104, 589, 23, -22, 0, -6, -7, 12, 376, 86,L
2025-02-19 16:36:20.359,899, 137, 601, -7, 26, 7, -6, -8, 11, 687, 81,L
2025-02-19 16:36:21.279,760, 65, 626, 2, -4, -2, -7, -9, 12, 85, 72,M
2025-02-19 16:36:21.372,751, 84, 625, 9, 2, -10, -6, -8, 12, 83, 74,M
2025-02-19 16:36:21.483,724, 48, 615, 12, -20, -24, -6, -10, 13, 3, 89,M
2025-02-19 16:36:21.586,768, 175, 630, 2, -4, 68, -7, -9, 12, 4, 86,M
2025-02-19 16:36:21.699,772, 110, 671, 25, 15, -56, -7, -7, 13, 250, 84,M
2025-02-19 16:36:21.805,881, 32, 570, 20, -9, -26, -6, -11, 12, 30, 90,M
2025-02-19 16:36:21.909,777, 192, 481, 2, -17, -28, -7, -10, 13, 705, 88,M
2025-02-19 16:36:22.015,768, 39, 601, 2, -2, 62, -6, -8, 14, 722, 86,M
2025-02-19 16:36:22.126,1043, 188, 643, -21, 76, 1, -7, -5, 14, 640, 69,M
2025-02-19 16:36:23.039,753, 76, 642, 4, -1, -4, -6, -7, 11, 1, 68,N
2025-02-19 16:36:23.142,787, 103, 624, 2, -11, -8, -6, -10, 12, 0, 81,N
2025-02-19 16:36:23.249,718, 101, 622, 2, -6, -14, -6, -8, 13, 0, 88,N
2025-02-19 16:36:23.354,933, -61, 795, -38, -11, 67, -7, -10, 11, 0, 87,N
2025-02-19 16:36:23.465,733, 153, 479, 56, 22, -68, -6, -6, 13, 360, 90,N
2025-02-19 16:36:23.571,904, -12, 581, -9, -13, -20, -8, -11, 12, 163, 89,N
2025-02-19 16:36:23.676,831, 231, 551, 23, 1, 26, -6, -6, 14, 382, 94,N
2025-02-19 16:36:23.781,836, 148, 500, 7, 12, -7, -5, -8, 13, 726, 90,N
2025-02-19 16:36:23.891,573, -64, 686, -5, 2, 4, -7, -7, 12, 560, 50,N
2025-02-19 16:36:24.709,781, 69, 602, -1, -2, -1, -6, -8, 14, 453, 77,O
2025-02-19 16:36:24.804,761, 57, 596, 6, -13, -7, -7, -9, 13, 613, 87,O
2025-02-19 16:36:24.915,784, 47, 599, -2, -2, -15, -6, -10, 15, 542, 91,O
2025-02-19 16:36:25.020,763, -78, 591, 29, 21, -10, -7, -10, 13, 222, 91,O
2025-02-19 16:36:25.121,778, 140, 626, -17, -29, 2, -9, -7, 14, 555, 91,O
2025-02-19 16:36:25.234,870, 195, 506, 0, 30, -8, -6, -10, 14, 633, 90,O
2025-02-19 16:36:25.345,558, -24, 702, -16, 11, 21, -5, -9, 11, 391, 43,O
2025-02-19 16:36:26.159,776, 66, 617, 1, -2, -1, -8, -8, 13, 411, 75,P
2025-02-19 16:36:26.256,758, 76, 622, 5, -1, -2, -7, -9, 11, 486, 79,P
2025-02-19 16:36:26.365,713, 55, 669, 14, -7, -17, -8, -11, 13, 431, 89,P
2025-02-19 16:36:26.470,823, -86, 748, -30, -14, 62, -5, -10, 14, 532, 88,P
2025-02-19 16:36:26.579,717, 163, 522, 58, 22, -75, -5, -7, 14, 548, 90,P
2025-02-19 16:36:26.688,686, 145, 675, -18, -21, 7, -6, -11, 12, 764, 86,P
2025-02-19 16:36:26.789,967, 192, 342, 3, 17, 20, -5, -11, 13, 497, 89,P
2025-02-19 16:36:26.901,456, -98, 779, -8, 3, -2, -6, -8, 12, 613, 45,P
2025-02-19 16:36:27.004,886, 112, 557, -2, 1, -3, -6, -9, 13, 520, 67,P
2025-02-19 16:36:27.721,763, 47, 627, 1, -4, -3, -7, -7, 13, 445, 63,Q
2025-02-19 16:36:27.819,796, 61, 600, 2, -3, 3, -7, -8, 12, 470, 67,Q
2025-02-19 16:36:27.933,709, 78, 628, 10, -23, -18, -6, -10, 12, 652, 79,Q
2025-02-19 16:36:28.036,755, 31, 615, -1, 4, -27, -6, -9, 14, 393, 91,Q
2025-02-19 16:36:28.139,813, 381, 478, -7, -15, 58, -5, -9, 14, 496, 87,Q
2025-02-19 16:36:28.253,819, 116, 483, 5, 12, -19, -6, -10, 14, 713, 89,Q
2025-02-19 16:36:28.359,611, 22, 619, 29, -38, -7, -6, -7, 13, 365, 76,Q
2025-02-19 16:36:28.470,659, 152, 607, -16, -39, 54, -7, -9, 14, 635, 89,Q
2025-02-19 16:36:28.569,837, 80, 610, -24, 69, 1, -7, -6, 15, 608, 68,Q
2025-02-19 16:36:28.679,732, -23, 628, 12, -15, -16, -6, -6, 11, 306, 53,Q
2025-02-19 16:36:28.786,771, 41, 611, 2, 3, -3, -5, -6, 11, 248, 63,Q
2025-02-19 16:36:28.889,791, 40, 615, 5, 5, -8, -6, -7, 11, 0, 62,Q
2025-02-19 16:36:28.999,763, 47, 633, 0, 2, -9, -4, -9, 13, 0, 61,Q
2025-02-19 16:36:29.106,768, 63, 635, 2, -1, -4, -6, -5, 11, 0, 63,Q
2025-02-19 16:36:29.209,770, 76, 617, -1, -4, -3, -5, -8, 11, 0, 66,Q
2025-02-19 16:36:30.535,765, 43, 635, -3, 1, -1, -6, -7, 11, 187, 55,R
2025-02-19 16:36:30.629,760, 56, 642, -3, -1, -2, -6, -8, 11, 189, 54,R
2025-02-19 16:36:30.739,753, 36, 626, -2, -2, -3, -8, -6, 12, 191, 53,R
2025-02-19 16:36:30.842,772, 56, 626, -2, -1, 0, -6, -6, 11, 204, 55,R
2025-02-19 16:36:30.952,781, 54, 641, -1, -2, 0, -6, -8, 13, 205, 57,R
2025-02-19 16:36:31.059,767, 44, 626, -1, -1, -1, -6, -7, 12, 203, 58,R
2025-02-19 16:36:31.165,770, 59, 627, -3, 1, -3, -6, -7, 11, 204, 58,R
2025-02-19 16:36:31.269,751, 54, 629, 0, -1, -7, -7, -7, 12, 178, 59,R
2025-02-19 16:36:31.379,761, 49, 619, -1, -5, -7, -6, -9, 14, 223, 65,R
2025-02-19 16:36:31.485,771, 51, 632, 9, -10, 3, -6, -8, 13, 493, 74,R
2025-02-19 16:36:31.589,767, 50, 631, 0, -6, -3, -6, -8, 13, 660, 80,R
2025-02-19 16:36:31.702,786, 80, 600, -5, 1, -5, -6, -9, 13, 566, 87,R
2025-02-19 16:36:31.809,785, 105, 610, 4, 2, -13, -6, -9, 13, 405, 88,R
2025-02-19 16:36:31.919,771, -89, 590, 16, 0, -22, -6, -8, 13, 451, 87,R
2025-02-19 16:36:32.019,782, 164, 666, 1, -1, 23, -7, -5, 14, 561, 89,R
2025-02-19 16:36:32.135,792, 39, 666, -22, -26, -14, -5, -10, 11, 753, 83,R
2025-02-19 16:36:32.239,949, 33, 343, 0, 5, -5, -5, -8, 14, 387, 90,R
2025-02-19 16:36:32.339,751, 172, 609, 12, -2, 26, -5, -7, 13, 689, 92,R
2025-02-19 16:36:32.453,561, -171, 714, -1, 36, 4, -5, -6, 10, 248, 33,R
2025-02-19 16:36:33.569,762, 29, 630, -16, -6, -4, -7, -6, 12, 0, 59,S
2025-02-19 16:36:33.659,770, 21, 638, -10, -4, -3, -7, -7, 13, 265, 66,S
2025-02-19 16:36:33.769,763, 33, 617, -10, -5, -3, -7, -7, 13, 380, 72,S
2025-02-19 16:36:33.879,783, 28, 612, -8, -4, -4, -6, -8, 14, 479, 76,S
2025-02-19 16:36:33.985,780, 27, 615, 0, -1, -1, -7, -8, 12, 677, 76,S
2025-02-19 16:36:34.094,764, 12, 610, 8, -3, -1, -8, -6, 12, 744, 79,S
2025-02-19 16:36:34.202,815, 50, 554, -1, 0, -3, -5, -7, 13, 746, 88,S
2025-02-19 16:36:34.309,786, 70, 587, -7, 5, -4, -6, -7, 13, 736, 82,S
2025-02-19 16:36:34.418,775, 66, 602, 0, -4, -3, -4, -8, 13, 755, 79,S
2025-02-19 16:36:34.519,756, 61, 606, 1, -11, -6, -4, -8, 14, 788, 84,S
2025-02-19 16:36:34.629,741, 6, 618, -7, 4, -24, -6, -8, 15, 666, 93,S
2025-02-19 16:36:34.741,705, 268, 667, 19, -7, 41, -6, -8, 13, 742, 88,S
2025-02-19 16:36:34.847,991, 101, 396, 10, 27, 4, -5, -8, 12, 272, 90,S
2025-02-19 16:36:34.951,515, -61, 766, -3, -1, 2, -6, -5, 11, 489, 41,S
2025-02-19 16:36:35.969,757, 44, 620, -1, -4, -5, -5, -6, 12, 387, 68,T
2025-02-19 16:36:36.067,797, 33, 614, 4, -5, -8, -6, -8, 13, 391, 79,T
2025-02-19 16:36:36.174,763, 37, 627, 2, 3, -8, -6, -8, 12, 389, 83,T
2025-02-19 16:36:36.279,785, 61, 617, -4, 2, -4, -7, -9, 13, 317, 82,T
2025-02-19 16:36:36.390,697, 31, 632, 23, -11, -17, -7, -9, 12, 117, 87,T
2025-02-19 16:36:36.499,703, 144, 626, 4, -26, 18, -6, -8, 14, 823, 89,T
2025-02-19 16:36:36.609,774, 91, 638, -32, 27, -20, -6, -9, 13, 619, 84,T
2025-02-19 16:36:36.715,742, 81, 698, -9, -12, 70, -6, -10, 13, 601, 88,T
2025-02-19 16:36:36.818,1163, 45, 607, 9, 56, 6, -6, -7, 13, 516, 78,T
2025-02-19 16:36:36.929,648, -32, 675, 6, -16, -8, -7, -7, 10, 274, 41,T
2025-02-19 16:36:37.639,765, 40, 630, 0, -2, -2, -6, -8, 12, 253, 61,U
2025-02-19 16:36:37.739,764, 45, 625, 0, -3, -2, -7, -7, 12, 248, 63,U
2025-02-19 16:36:37.846,758, 37, 626, -3, 0, -3, -6, -8, 11, 248, 64,U
2025-02-19 16:36:37.950,742, 53, 632, 2, 0, -5, -7, -8, 12, 132, 65,U
2025-02-19 16:36:38.062,760, 81, 618, 5, -6, -19, -6, -9, 12, 93, 76,U
2025-02-19 16:36:38.170,753, -111, 647, 25, 11, 4, -7, -8, 13, 111, 87,U
2025-02-19 16:36:38.269,749, 184, 601, 8, -20, 5, -5, -7, 13, 638, 87,U
2025-02-19 16:36:38.384,784, -23, 559, 12, -2, -33, -7, -9, 13, 683, 87,U
2025-02-19 16:36:38.493,910, 202, 584, -1, -7, 30, -7, -6, 14, 645, 89,U
2025-02-19 16:36:38.600,601, -77, 693, -26, 23, -4, -6, -7, 10, 526, 42,U
2025-02-19 16:36:39.517,759, 50, 631, 0, -1, -2, -6, -6, 12, 344, 60,V
2025-02-19 16:36:39.859,764, 63, 631, 0, -1, -2, -6, -8, 11, 317, 61,V
2025-02-19 16:36:39.869,766, 67, 625, 0, -6, -3, -6, -8, 14, 311, 67,V
2025-02-19 16:36:39.874,766, 71, 629, 0, -1, -2, -7, -10, 14, 269, 69,V
2025-02-19 16:36:39.934,775, 74, 625, 4, 1, -5, -7, -8, 12, 123, 71,V
2025-02-19 16:36:40.039,773, 85, 622, 1, 0, -6, -6, -8, 10, 116, 74,V
2025-02-19 16:36:40.147,771, 93, 624, 1, 0, -5, -6, -10, 11, 120, 76,V
2025-02-19 16:36:40.254,757, 100, 619, 0, 0, -4, -7, -8, 12, 118, 78,V
2025-02-19 16:36:40.359,755, 107, 624, -1, -1, -3, -6, -8, 11, 122, 79,V
2025-02-19 16:36:40.471,787, 109, 586, -2, -3, -7, -8, -8, 11, 110, 87,V
2025-02-19 16:36:40.579,767, 121, 614, 9, -1, -10, -6, -12, 12, 112, 86,V
2025-02-19 16:36:40.685,775, 216, 599, -3, -11, 29, -6, -8, 13, 510, 87,V
2025-02-19 16:36:40.793,748, -155, 656, -7, -8, -41, -6, -8, 13, 764, 90,V
2025-02-19 16:36:40.900,772, 132, 615, -30, 44, 26, -6, -8, 14, 761, 68,V
2025-02-19 16:36:41.819,763, 48, 628, 2, -4, -3, -5, -8, 12, 354, 60,W
2025-02-19 16:36:41.909,782, 80, 620, 2, 1, 1, -7, -7, 11, 293, 64,W
2025-02-19 16:36:42.020,771, 76, 618, 5, 2, -2, -7, -8, 13, 258, 66,W
2025-02-19 16:36:42.130,742, 112, 631, 15, 5, -10, -6, -9, 14, 103, 70,W
2025-02-19 16:36:42.237,847, 49, 570, 9, 3, -17, -7, -11, 13, 0, 89,W
2025-02-19 16:36:42.347,762, 155, 640, -63, -29, 90, -5, -10, 11, 433, 85,W
2025-02-19 16:36:42.450,781, 88, 631, 38, -8, -54, -6, -8, 13, 739, 88,W
2025-02-19 16:36:42.559,815, 178, 638, -8, -14, 82, -6, -8, 13, 718, 85,W
2025-02-19 16:36:42.666,813, -78, 633, 3, -16, -36, -6, -9, 15, 838, 88,W
2025-02-19 16:36:42.769,815, 217, 492, -34, 52, 20, -6, -8, 14, 749, 64,W
2025-02-19 16:36:42.880,775, 79, 608, 2, -9, -6, -4, -8, 12, 625, 54,W
2025-02-19 16:36:43.699,792, 95, 589, 0, -2, -2, -8, -9, 12, 623, 75,X
2025-02-19 16:36:43.793,777, 90, 603, -4, -3, 2, -8, -9, 14, 637, 78,X
2025-02-19 16:36:43.904,838, 115, 580, 1, -1, -5, -6, -10, 14, 672, 88,X
2025-02-19 16:36:44.009,802, 125, 561, -1, -3, -5, -6, -9, 15, 699, 89,X
2025-02-19 16:36:44.117,654, -68, 708, 26, 18, 8, -6, -8, 13, 580, 90,X
2025-02-19 16:36:44.219,847, 178, 519, -17, 13, 33, -7, -7, 13, 0, 89,X
2025-02-19 16:36:44.334,595, -191, 755, 22, -23, -29, -6, -9, 13, 0, 87,X
2025-02-19 16:36:44.440,700, 291, 588, -10, -25, 57, -6, -7, 14, 574, 88,X
2025-02-19 16:36:44.546,930, 93, 518, -22, 73, -1, -6, -6, 13, 234, 63,X
2025-02-19 16:36:44.650,747, 44, 625, 10, -20, -9, -6, -7, 11, 117, 52,X
2025-02-19 16:36:45.669,778, 104, 610, 1, 0, -3, -6, -9, 12, 126, 73,Y
2025-02-19 16:36:45.766,786, 114, 627, 3, 3, -8, -7, -10, 12, 0, 76,Y
2025-02-19 16:36:45.873,747, 23, 626, 22, -7, -20, -7, -9, 12, 0, 88,Y
2025-02-19 16:36:45.981,701, 178, 619, -39, -23, 36, -5, -11, 10, 299, 86,Y
2025-02-19 16:36:46.089,1057, 161, 641, 4, 53, -13, -7, -8, 14, 669, 69,Y
2025-02-19 16:36:46.197,893, 175, 446, -12, -7, -3, -6, -9, 14, 773, 85,Y
2025-02-19 16:36:46.299,887, 209, 419, -11, 11, 10, -6, -10, 14, 269, 89,Y
2025-02-19 16:36:46.414,776, 79, 584, -14, -11, 52, -6, -7, 13, 338, 90,Y
2025-02-19 16:36:46.517,982, 130, 605, -5, 67, 0, -6, -7, 12, 300, 72,Y
2025-02-19 16:36:46.619,712, 0, 642, 9, -17, -17, -4, -5, 11, 185, 51,Y
2025-02-19 16:36:46.734,734, 26, 635, -3, -2, -1, -5, -6, 12, 233, 55,Y
2025-02-19 16:36:46.839,761, 32, 628, -3, 1, -1, -7, -6, 11, 237, 54,Y
2025-02-19 16:36:47.759,765, 68, 623, -5, -1, -3, -6, -9, 14, 125, 70,Z
2025-02-19 16:36:47.852,769, 68, 617, 0, -2, -2, -5, -7, 13, 137, 71,Z
2025-02-19 16:36:47.963,771, 82, 609, 10, -4, -5, -7, -8, 12, 336, 76,Z
2025-02-19 16:36:48.069,750, 96, 645, 4, 6, -8, -6, -8, 13, 259, 78,Z
2025-02-19 16:36:48.176,847, 65, 482, 24, 2, -16, -5, -10, 14, 0, 89,Z
2025-02-19 16:36:48.282,700, 68, 662, 8, -10, -2, -6, -8, 14, 777, 83,Z
2025-02-19 16:36:48.392,890, 142, 425, -11, 15, 11, -7, -8, 12, 0, 86,Z
2025-02-19 16:36:48.499,755, 131, 575, 29, -32, 4, -5, -8, 12, 771, 84,Z
2025-02-19 16:36:48.599,911, 164, 562, -19, 23, 19, -6, -6, 14, 760, 80,Z
2025-02-19 16:36:48.712,670, 11, 674, -1, -6, -6, -4, -5, 10, 521, 43,Z
2025-02-19 16:36:49.732,785, 53, 613, 0, -2, -2, -6, -5, 13, 280, 60,a
2025-02-19 16:36:49.819,778, 56, 614, -2, -2, -2, -5, -8, 12, 279, 62,a
2025-02-19 16:36:49.933,762, 46, 610, -8, -14, 0, -6, -7, 12, 382, 69,a
2025-02-19 16:36:50.039,818, 91, 543, 3, 6, -11, -8, -8, 12, 468, 88,a
2025-02-19 16:36:50.150,884, 71, 483, 24, 19, -4, -6, -10, 13, 143, 86,a
2025-02-19 16:36:50.260,771, 122, 612, 12, -17, -12, -6, -7, 12, 584, 85,a
2025-02-19 16:36:50.364,915, 91, 697, -7, 4, 39, -7, -9, 12, 631, 82,a
2025-02-19 16:36:50.469,1012, 91, 607, -6, 37, -2, -6, -5, 14, 677, 77,a
2025-02-19 16:36:51.591,753, 84, 607, -3, -4, -14, -7, -10, 13, 261, 73,b
2025-02-19 16:36:51.686,797, 94, 578, 1, -1, -7, -8, -10, 13, 332, 88,b
2025-02-19 16:36:51.792,788, 134, 599, 3, 0, 0, -6, -10, 13, 358, 89,b
2025-02-19 16:36:51.899,756, 114, 615, -1, -1, -1, -6, -11, 13, 492, 88,b
2025-02-19 16:36:52.009,869, -40, 698, -4, -10, 39, -6, -11, 13, 578, 87,b
2025-02-19 16:36:52.114,804, 196, 600, 16, 5, 25, -6, -7, 13, 382, 87,b
2025-02-19 16:36:52.222,825, 92, 656, 1, -21, 2, -6, -8, 13, 634, 82,b
2025-02-19 16:36:52.329,882, 158, 405, 0, 15, 23, -7, -9, 13, 248, 89,b
2025-02-19 16:36:52.430,573, -27, 696, -16, 23, 5, -6, -5, 11, 324, 48,b
2025-02-19 16:36:53.454,767, 41, 621, 0, -4, -2, -5, -9, 12, 367, 55,c
2025-02-19 16:36:53.550,773, 39, 603, 0, -7, -2, -5, -8, 13, 416, 60,c
2025-02-19 16:36:53.650,790, 38, 607, -1, -1, 1, -7, -7, 13, 452, 65,c
2025-02-19 16:36:53.764,747, 22, 600, 9, -14, -3, -7, -8, 12, 475, 70,c
2025-02-19 16:36:53.869,775, -5, 634, 0, 3, -23, -6, -7, 14, 451, 88,c
2025-02-19 16:36:53.979,807, 254, 511, 19, -15, 50, -6, -7, 12, 398, 86,c
2025-02-19 16:36:54.089,729, 115, 468, -39, 72, 24, -6, -6, 12, 558, 51,c
2025-02-19 16:36:54.196,811, 45, 609, 13, -26, -7, -8, -5, 12, 428, 47,c
2025-02-19 16:36:54.302,770, 35, 620, -4, -2, -5, -6, -5, 13, 421, 54,c
2025-02-19 16:36:54.405,786, 49, 609, -3, 1, -1, -6, -7, 14, 364, 55,c
2025-02-19 16:36:55.319,779, 50, 602, -1, -1, -1, -6, -6, 15, 524, 67,d
2025-02-19 16:36:55.421,785, 41, 607, 0, -2, 0, -5, -8, 12, 529, 69,d
2025-02-19 16:36:55.527,793, 55, 590, 1, -6, -2, -5, -5, 12, 545, 73,d
2025-02-19 16:36:55.639,678, 21, 630, 10, -21, -19, -6, -7, 13, 605, 85,d
2025-02-19 16:36:55.745,845, -28, 557, 27, 20, -8, -6, -8, 13, 393, 86,d
2025-02-19 16:36:55.855,777, 104, 539, -5, -17, -31, -7, -7, 13, 635, 88,d
2025-02-19 16:36:55.961,802, -16, 522, 18, 2, -32, -6, -9, 13, 675, 85,d
2025-02-19 16:36:56.067,863, 213, 584, 5, -8, 25, -6, -6, 14, 666, 86,d
2025-02-19 16:36:56.175,573, -62, 695, -23, 16, -7, -6, -5, 11, 540, 36,d
2025-02-19 16:36:56.995,776, 76, 603, 0, -3, -2, -7, -8, 13, 486, 68,e
2025-02-19 16:36:57.088,790, 76, 596, -2, 0, -2, -6, -8, 14, 482, 71,e
2025-02-19 16:36:57.194,777, 61, 610, 0, 4, -1, -7, -8, 13, 438, 72,e
2025-02-19 16:36:57.301,695, 13, 592, 9, -16, -7, -8, -7, 13, 325, 85,e
2025-02-19 16:36:57.409,744, 145, 617, 4, -21, 3, -7, -8, 14, 625, 84,e
2025-02-19 16:36:57.519,781, -16, 542, -1, 21, -16, -7, -9, 13, 437, 85,e
2025-02-19 16:36:57.625,764, 130, 597, 17, -21, 12, -6, -7, 13, 629, 86,e
2025-02-19 16:36:57.731,673, 20, 636, -42, 44, 13, -6, -7, 11, 441, 45,e
2025-02-19 16:36:58.749,778, 13, 609, 3, -11, -5, -6, -5, 12, 123, 71,f
2025-02-19 16:36:58.845,772, -2, 620, -1, -2, 1, -8, -6, 11, 160, 73,f
2025-02-19 16:36:58.949,786, -3, 611, 0, -3, 0, -5, -5, 12, 245, 80,f
2025-02-19 16:36:59.059,790, 58, 611, -3, -2, 2, -6, -5, 13, 123, 85,f
2025-02-19 16:36:59.169,854, -85, 537, -14, -12, -87, -6, -6, 14, 215, 83,f
2025-02-19 16:36:59.275,693, 85, 657, 5, 10, 59, -5, -8, 13, 703, 82,f
2025-02-19 16:36:59.382,923, 234, 743, 18, 2, -24, -6, -6, 13, 71, 81,f
2025-02-19 16:36:59.489,708, 50, 671, 3, -11, 18, -5, -7, 12, 735, 84,f
2025-02-19 16:36:59.599,676, -43, 632, -23, 31, -1, -7, -6, 13, 291, 52,f
2025-02-19 16:37:00.312,789, 27, 602, -2, 0, -4, -5, -5, 14, 291, 70,g
2025-02-19 16:37:00.409,788, 19, 600, 1, -3, -2, -6, -6, 13, 288, 71,g
2025-02-19 16:37:00.520,771, 12, 603, 5, -14, -7, -8, -7, 14, 386, 86,g
2025-02-19 16:37:00.627,761, -78, 596, 4, 8, -31, -6, -7, 12, 122, 84,g
2025-02-19 16:37:00.729,839, 137, 594, 0, -7, 38, -5, -5, 12, 381, 84,g
2025-02-19 16:37:00.839,759, -67, 631, 29, 6, -3, -5, -6, 12, 499, 80,g
2025-02-19 16:37:00.945,804, -15, 470, -19, 12, 31, -6, -4, 13, 2, 92,g
2025-02-19 16:37:01.057,598, -149, 636, -34, 51, -7, -4, -3, 10, 0, 41,g
2025-02-19 16:37:01.969,811, 8, 676, -5, -2, -29, -6, -5, 12, 0, 46,h
2025-02-19 16:37:02.069,723, 30, 678, 1, -6, -11, -6, -7, 11, 218, 48,h
2025-02-19 16:37:02.175,777, 67, 642, 1, -5, -18, -6, -6, 10, 264, 58,h
2025-02-19 16:37:02.279,826, -40, 706, 22, -2, -20, -6, -9, 11, 207, 88,h
2025-02-19 16:37:02.389,795, 267, 645, -6, -6, 67, -6, -7, 12, 356, 85,h
2025-02-19 16:37:02.499,788, -46, 618, -7, -5, -43, -7, -8, 13, 482, 85,h
2025-02-19 16:37:02.599,836, 240, 455, 0, 7, 36, -6, -8, 13, 595, 88,h
2025-02-19 16:37:02.712,662, -44, 680, -19, 35, 3, -4, -5, 10, 494, 43,h
2025-02-19 16:37:03.630,780, 48, 613, 0, -2, -1, -7, -5, 14, 378, 66,i
2025-02-19 16:37:03.728,755, 35, 616, 1, -5, -3, -6, -7, 12, 383, 67,i
2025-02-19 16:37:03.829,775, 50, 597, 4, -9, -8, -5, -7, 13, 425, 79,i
2025-02-19 16:37:03.939,783, -8, 604, 1, 1, -21, -6, -8, 13, 450, 86,i
2025-02-19 16:37:04.045,931, 228, 638, -5, -9, 2, -7, -6, 13, 552, 88,i
2025-02-19 16:37:04.160,871, 174, 407, -23, -22, -27, -7, -9, 13, 452, 87,i
2025-02-19 16:37:04.261,801, 183, 545, -33, 59, 39, -5, -8, 11, 576, 59,i
2025-02-19 16:37:04.369,677, -6, 637, 17, -29, -10, -6, -7, 11, 524, 46,i
2025-02-19 16:37:05.189,788, 54, 593, 5, -7, -2, -5, -7, 13, 561, 68,j
2025-02-19 16:37:05.284,771, 40, 599, 2, -5, -3, -5, -7, 12, 582, 74,j
2025-02-19 16:37:05.389,811, 63, 565, 0, -3, -4, -4, -6, 12, 590, 86,j
2025-02-19 16:37:05.499,819, -23, 610, 13, -10, 12, -6, -7, 14, 631, 87,j
2025-02-19 16:37:05.608,845, 134, 448, -34, -3, 29, -6, -4, 14, 233, 98,j
2025-02-19 16:37:05.711,312, -318, 809, -9, -44, -57, -6, -7, 12, 612, 61,j
2025-02-19 16:37:05.825,880, 52, 574, -10, -20, 39, -6, -9, 14, 696, 86,j
2025-02-19 16:37:05.930,462, -92, 724, -3, -10, 1, -7, -7, 10, 558, 39,j
2025-02-19 16:37:06.845,792, 82, 609, 2, 0, 1, -7, -9, 13, 124, 75,k
2025-02-19 16:37:06.943,781, 110, 617, -2, 2, -11, -7, -7, 11, 108, 76,k
2025-02-19 16:37:07.049,789, 87, 558, 5, -1, -22, -7, -9, 12, 97, 88,k
2025-02-19 16:37:07.156,825, 264, 503, 1, -4, 37, -6, -8, 13, 122, 89,k
2025-02-19 16:37:07.266,566, -32, 667, 8, -28, -14, -5, -7, 13, 513, 83,k
2025-02-19 16:37:07.373,799, 103, 586, -4, 16, -12, -6, -8, 14, 140, 88,k
2025-02-19 16:37:07.479,744, 172, 621, -3, -29, 39, -5, -8, 14, 305, 90,k
2025-02-19 16:37:07.589,1063, 143, 586, -15, 73, 7, -6, -5, 12, 295, 70,k
2025-02-19 16:37:08.499,780, 99, 597, 0, -2, -3, -5, -8, 13, 176, 70,l
2025-02-19 16:37:08.599,779, 106, 602, 1, -2, -6, -6, -9, 14, 173, 73,l
2025-02-19 16:37:08.711,731, 74, 592, 0, -13, -17, -5, -10, 12, 186, 83,l
2025-02-19 16:37:08.819,780, -28, 638, 3, -5, 30, -8, -11, 14, 342, 87,l
2025-02-19 16:37:08.926,807, 110, 554, 18, 3, 15, -5, -7, 14, 112, 91,l
2025-02-19 16:37:09.030,669, -8, 601, -17, 25, 1, -4, -8, 13, 335, 64,l
2025-02-19 16:37:09.136,796, 67, 603, 0, -3, -4, -5, -7, 13, 215, 61,l
2025-02-19 16:37:10.154,771, 76, 618, 0, 2, -1, -7, -8, 13, 110, 66,m
2025-02-19 16:37:10.253,758, 80, 614, 5, -3, -9, -6, -9, 13, 107, 69,m
2025-02-19 16:37:10.360,803, 88, 599, -1, 3, -8, -6, -10, 12, 111, 85,m
2025-02-19 16:37:10.464,814, 202, 539, 4, 0, 16, -5, -8, 12, 61, 88,m
2025-02-19 16:37:10.576,758, -68, 662, -1, -12, -26, -5, -8, 13, 518, 82,m
2025-02-19 16:37:10.679,805, 153, 536, 0, -4, 21, -6, -10, 13, 355, 88,m
2025-02-19 16:37:10.789,756, 34, 710, 4, -14, 5, -5, -8, 13, 601, 86,m
2025-02-19 16:37:10.896,916, 55, 507, 5, 22, -10, -5, -6, 13, 599, 84,m
2025-02-19 16:37:11.810,763, 58, 630, 1, -3, -2, -6, -7, 12, 88, 62,n
2025-02-19 16:37:11.907,774, 82, 627, 5, -1, -4, -4, -7, 12, 0, 67,n
2025-02-19 16:37:12.013,805, 41, 698, 6, -3, -19, -6, -7, 12, 0, 84,n
2025-02-19 16:37:12.124,784, 198, 578, -4, -7, 33, -6, -6, 12, 69, 88,n
2025-02-19 16:37:12.234,805, -101, 649, 0, -11, -35, -5, -10, 13, 462, 82,n
2025-02-19 16:37:12.337,813, 170, 518, 8, 4, 28, -5, -7, 14, 390, 86,n
2025-02-19 16:37:12.448,611, -19, 708, -21, 34, 6, -7, -5, 10, 411, 42,n
2025-02-19 16:37:13.259,771, 63, 614, -2, -2, -2, -6, -7, 13, 217, 66,o
2025-02-19 16:37:13.360,773, 65, 609, 0, -3, -2, -7, -7, 12, 218, 68,o
2025-02-19 16:37:13.467,780, 55, 601, 1, -6, 0, -6, -5, 14, 238, 73,o
2025-02-19 16:37:13.579,768, 104, 626, -7, -10, -11, -6, -8, 13, 447, 85,o
2025-02-19 16:37:13.681,901, -39, 520, 38, 25, 1, -6, -8, 14, 126, 84,o
2025-02-19 16:37:13.789,711, -23, 607, 7, -18, -49, -6, -6, 12, 483, 91,o
2025-02-19 16:37:13.902,1020, 105, 588, -19, 34, 25, -5, -8, 14, 417, 75,o
2025-02-19 16:37:14.000,668, 1, 653, -3, 7, 9, -8, -6, 11, 366, 41,o
2025-02-19 16:37:14.725,781, 61, 614, -2, -1, -1, -6, -7, 13, 279, 66,p
2025-02-19 16:37:14.819,773, 52, 606, 1, -2, -1, -5, -7, 12, 272, 66,p
2025-02-19 16:37:14.926,746, 51, 593, 3, -7, -8, -5, -7, 12, 278, 71,p
2025-02-19 16:37:15.032,767, -33, 568, 5, 8, -16, -5, -8, 14, 248, 86,p
2025-02-19 16:37:15.139,828, 201, 555, 7, 0, 30, -5, -5, 12, 65, 91,p
2025-02-19 16:37:15.249,833, -83, 693, -5, -22, -29, -5, -8, 12, 581, 83,p
2025-02-19 16:37:15.356,800, 121, 479, 0, 11, 35, -6, -8, 14, 234, 88,p
2025-02-19 16:37:15.462,588, -37, 629, -24, 44, 15, -6, -5, 11, 245, 45,p
2025-02-19 16:37:16.679,770, 71, 606, 0, -1, -1, -6, -6, 13, 548, 69,q
2025-02-19 16:37:16.778,789, 70, 605, 0, -2, -1, -6, -6, 14, 555, 70,q
2025-02-19 16:37:16.883,771, 57, 609, 2, -4, 0, -5, -5, 12, 590, 71,q
2025-02-19 16:37:16.991,832, 164, 534, -5, -4, -7, -7, -6, 14, 562, 85,q
2025-02-19 16:37:17.092,841, 60, 541, 10, 13, 10, -6, -9, 12, 313, 84,q
2025-02-19 16:37:17.208,746, 11, 609, 1, -12, -35, -7, -7, 13, 577, 87,q
2025-02-19 16:37:17.309,855, 263, 568, -19, -13, 67, -7, -6, 14, 200, 88,q
2025-02-19 16:37:17.424,793, -59, 639, 23, -4, -16, -5, -4, 13, 624, 90,q
2025-02-19 16:37:17.529,466, -133, 721, -36, 36, 23, -5, -3, 10, 191, 29,q
2025-02-19 16:37:18.539,788, 29, 605, -2, -1, -2, -7, -4, 13, 182, 54,r
2025-02-19 16:37:18.640,790, 33, 607, -2, 0, -1, -6, -4, 13, 196, 53,r
2025-02-19 16:37:18.741,781, 33, 604, -2, 1, -2, -5, -5, 13, 210, 52,r
2025-02-19 16:37:18.857,778, 35, 611, -5, -1, -3, -5, -5, 11, 204, 52,r
2025-02-19 16:37:18.959,784, 31, 607, -7, 0, -4, -6, -5, 11, 160, 54,r
2025-02-19 16:37:19.069,792, 26, 601, -7, 0, -8, -7, -6, 14, 225, 54,r
2025-02-19 16:37:19.174,763, 20, 623, -4, -1, -6, -7, -6, 12, 422, 55,r
2025-02-19 16:37:19.283,788, 27, 605, 3, -13, 1, -6, -5, 12, 481, 64,r
2025-02-19 16:37:19.390,745, 7, 614, -2, 2, -3, -8, -7, 14, 444, 67,r
2025-02-19 16:37:19.490,753, 22, 621, 2, 0, -10, -6, -5, 14, 455, 70,r
2025-02-19 16:37:19.607,809, 27, 550, 0, 1, -13, -6, -10, 14, 445, 87,r
2025-02-19 16:37:19.714,816, 237, 524, -5, -2, 23, -6, -5, 12, 413, 90,r
2025-02-19 16:37:19.824,836, 143, 598, 5, -12, -10, -5, -6, 13, 649, 89,r
2025-02-19 16:37:19.931,658, -46, 625, -14, 53, 9, -6, -7, 13, 618, 52,r
2025-02-19 16:37:20.037,792, 48, 631, 7, -11, -1, -7, -6, 12, 503, 48,r
2025-02-19 16:37:21.356,934, 25, 837, -12, 2, -15, -5, -6, 12, 139, 47,s
2025-02-19 16:37:21.449,904, 62, 628, 4, -21, -3, -6, -5, 13, 348, 65,s
2025-02-19 16:37:21.557,755, -14, 628, 2, -19, 1, -6, -7, 13, 516, 84,s
2025-02-19 16:37:21.659,766, -56, 629, 4, 2, -24, -7, -5, 12, 249, 90,s
2025-02-19 16:37:21.773,735, 130, 666, -6, -9, 36, -5, -5, 13, 464, 90,s
2025-02-19 16:37:21.876,963, 56, 438, 42, 29, -2, -6, -5, 15, 3, 92,s
2025-02-19 16:37:21.987,458, -138, 798, -27, 44, 22, -5, -3, 9, 0, 25,s
2025-02-19 16:37:22.899,798, 69, 606, 0, -7, -9, -7, -7, 12, 339, 65,t
2025-02-19 16:37:23.003,738, 41, 623, 3, -11, -13, -5, -8, 14, 463, 72,t
2025-02-19 16:37:23.109,781, 69, 597, -2, -4, -12, -6, -8, 14, 416, 88,t
2025-02-19 16:37:23.216,954, 321, 482, 19, -8, 63, -6, -9, 11, 405, 83,t
2025-02-19 16:37:23.322,643, -46, 741, 7, 20, -29, -5, -5, 14, 577, 82,t
2025-02-19 16:37:23.429,916, 39, 598, 35, -4, -44, -6, -10, 12, 1, 80,t
2025-02-19 16:37:23.533,744, 175, 673, 4, -1, 25, -6, -8, 12, 665, 84,t
2025-02-19 16:37:24.349,768, 96, 622, 2, -4, -1, -6, -7, 10, 84, 63,u
2025-02-19 16:37:24.453,795, 125, 611, -1, -2, -1, -5, -8, 12, 69, 71,u
2025-02-19 16:37:24.559,706, 88, 633, 12, -19, -16, -6, -7, 10, 4, 83,u
2025-02-19 16:37:24.670,828, 165, 587, -18, -10, 52, -6, -9, 12, 134, 83,u
2025-02-19 16:37:24.777,723, -136, 726, 0, -2, -30, -5, -8, 13, 483, 84,u
2025-02-19 16:37:24.883,817, 322, 504, -6, -1, 40, -5, -7, 13, 469, 84,u
2025-02-19 16:37:24.989,659, -97, 640, -16, 50, -2, -4, -6, 12, 304, 44,u
2025-02-19 16:37:25.808,774, 69, 619, 5, -3, -1, -6, -7, 11, 148, 55,v
2025-02-19 16:37:25.902,750, 80, 633, 11, -3, -8, -5, -6, 11, 183, 63,v
2025-02-19 16:37:26.009,832, 134, 544, -2, 1, -12, -6, -7, 11, 39, 83,v
2025-02-19 16:37:26.119,788, 67, 603, -46, -22, 62, -5, -8, 11, 391, 80,v
2025-02-19 16:37:26.226,754, 38, 595, 18, -14, -51, -5, -6, 12, 464, 86,v
2025-02-19 16:37:26.332,881, 208, 565, -41, 65, 28, -5, -7, 11, 530, 59,v
2025-02-19 16:37:26.439,656, 19, 685, 6, -11, -5, -5, -7, 11, 252, 36,v
2025-02-19 16:37:27.355,767, 64, 629, 0, -2, 0, -6, -6, 11, 119, 58,w
2025-02-19 16:37:27.451,761, 66, 635, 2, -3, -1, -7, -7, 9, 117, 61,w
2025-02-19 16:37:27.558,737, 77, 633, 11, -4, -9, -6, -8, 11, 86, 67,w
2025-02-19 16:37:27.664,800, 88, 632, 5, 4, -18, -4, -7, 11, 0, 81,w
2025-02-19 16:37:27.771,697, 290, 591, -5, -15, 40, -6, -8, 11, 407, 81,w
2025-02-19 16:37:27.885,752, -79, 682, 1, -4, -35, -7, -8, 13, 579, 82,w
2025-02-19 16:37:27.987,764, 374, 503, 0, 1, 20, -6, -7, 13, 583, 83,w
2025-02-19 16:37:28.089,861, 121, 618, -1, -8, 5, -7, -7, 14, 684, 84,w
2025-02-19 16:37:28.205,582, -35, 680, -12, 22, 7, -5, -7, 10, 325, 35,w
2025-02-19 16:37:29.022,781, 68, 597, 1, -4, -2, -5, -8, 14, 371, 69,x
2025-02-19 16:37:29.118,791, 76, 595, 3, -4, -4, -5, -8, 12, 404, 72,x
2025-02-19 16:37:29.221,940, 72, 569, 19, -1, -4, -6, -7, 13, 524, 84,x
2025-02-19 16:37:29.330,663, -10, 687, 20, 9, -18, -6, -8, 14, 330, 85,x
2025-02-19 16:37:29.438,891, 135, 578, -11, 8, 9, -5, -7, 12, 1, 84,x
2025-02-19 16:37:29.549,798, 71, 584, 17, 2, -30, -7, -9, 11, 136, 80,x
2025-02-19 16:37:29.654,824, 123, 609, 9, -3, 2, -6, -6, 13, 523, 86,x
2025-02-19 16:37:29.765,590, -64, 700, -12, 17, -2, -5, -6, 10, 133, 34,x
2025-02-19 16:37:30.982,772, 50, 623, -2, -4, 0, -6, -8, 13, 331, 63,y
2025-02-19 16:37:31.077,792, 82, 606, -2, -3, -3, -6, -7, 11, 349, 71,y
2025-02-19 16:37:31.186,705, 40, 618, 7, -21, -25, -6, -8, 12, 368, 84,y
2025-02-19 16:37:31.293,825, 188, 591, 4, -11, 45, -6, -8, 11, 345, 86,y
2025-02-19 16:37:31.400,763, -36, 660, 8, 10, -28, -7, -7, 12, 614, 83,y
2025-02-19 16:37:31.506,750, 29, 698, -15, -11, 65, -6, -7, 13, 491, 88,y
2025-02-19 16:37:31.609,897, 85, 543, 28, 36, -41, -6, -5, 14, 5, 90,y
2025-02-19 16:37:31.721,523, -89, 765, -14, 18, 10, -5, -4, 10, 103, 32,y
2025-02-19 16:37:32.733,794, 56, 606, 0, 1, -3, -5, -5, 13, 536, 66,z
2025-02-19 16:37:32.833,702, 18, 628, 5, -2, -21, -7, -7, 12, 367, 70,z
2025-02-19 16:37:32.939,953, 219, 655, -3, -29, 5, -5, -8, 12, 580, 85,z
2025-02-19 16:37:33.049,804, 192, 546, -25, 15, 22, -6, -7, 13, 293, 86,z
2025-02-19 16:37:33.157,747, 113, 629, 15, -34, 5, -6, -6, 13, 459, 89,z
2025-02-19 16:37:33.267,690, 195, 662, -42, 73, -20, -6, -5, 11, 164, 66,z
2025-02-19 16:37:33.371,881, 183, 528, -2, -42, 11, -5, -9, 14, 506, 87,z
2025-02-19 16:37:33.471,827, 153, 577, 1, 8, 34, -5, -6, 15, 598, 90,z
2025-02-19 16:37:33.581,621, -43, 668, 0, 3, -2, -4, -6, 9, 162, 40,z
2025-02-19 16:37:34.799,879, 95, 597, -31, 16, -19, -6, -5, 12, 0, 55,0
2025-02-19 16:37:34.901,686, -74, 710, -48, 12, -5, -6, -5, 10, 207, 44,0
2025-02-19 16:37:35.004,851, 24, 619, 5, -12, -2, -5, -5, 12, 267, 59,0
2025-02-19 16:37:35.114,726, 14, 638, 6, -21, -18, -5, -6, 12, 497, 79,0
2025-02-19 16:37:35.221,774, -88, 550, 26, 9, -35, -8, -10, 12, 143, 88,0
2025-02-19 16:37:35.331,886, 427, 605, -32, -40, 27, -5, -6, 13, 472, 91,0
2025-02-19 16:37:35.437,859, 200, 443, -2, 35, -23, -5, -8, 14, 444, 89,0
2025-02-19 16:37:35.545,711, 30, 667, -66, 79, 53, -6, -5, 9, 122, 30,0
2025-02-19 16:37:36.359,813, 36, 623, 0, -9, -7, -7, -7, 12, 191, 64,1
2025-02-19 16:37:36.457,765, 24, 631, 0, -5, -3, -6, -7, 14, 224, 67,1
2025-02-19 16:37:36.565,747, 19, 625, 0, -2, -3, -6, -8, 13, 178, 72,1
2025-02-19 16:37:36.670,787, 59, 596, -2, -4, -5, -5, -8, 12, 124, 89,1
2025-02-19 16:37:36.782,828, 46, 559, 5, -12, -12, -6, -8, 14, 430, 89,1
2025-02-19 16:37:36.888,701, -102, 671, 21, -5, 70, -7, -8, 13, 622, 88,1
2025-02-19 16:37:36.994,811, -7, 647, 4, -2, 23, -5, -6, 12, 510, 88,1
2025-02-19 16:37:37.096,913, 59, 374, 1, 8, -21, -5, -6, 13, 0, 85,1
2025-02-19 16:37:37.203,757, 27, 618, 15, -6, 17, -5, -5, 13, 523, 92,1
2025-02-19 16:37:37.319,630, -43, 641, -39, 61, -1, -6, -3, 10, 129, 37,1
2025-02-19 16:37:37.425,810, 63, 631, 3, -19, -12, -5, -4, 10, 144, 38,1
2025-02-19 16:37:38.240,753, 39, 626, -2, -1, -2, -5, -7, 12, 8, 62,2
2025-02-19 16:37:38.334,770, 41, 630, -1, 0, -4, -5, -5, 13, 0, 62,2
2025-02-19 16:37:38.439,766, 47, 629, -1, -1, -5, -5, -7, 13, 0, 63,2
2025-02-19 16:37:38.547,722, 51, 649, 7, -3, -7, -6, -8, 11, 0, 68,2
2025-02-19 16:37:38.653,837, 71, 525, -1, 3, -27, -6, -9, 12, 5, 91,2
2025-02-19 16:37:38.759,708, -19, 780, 31, -9, 35, -6, -9, 13, 582, 85,2
2025-02-19 16:37:38.870,797, 17, 522, 19, 20, -2, -5, -6, 12, 0, 86,2
2025-02-19 16:37:38.980,780, 103, 577, 20, -11, 18, -6, -7, 13, 529, 89,2
2025-02-19 16:37:39.087,655, -83, 642, -39, 66, 14, -6, -3, 11, 2, 33,2
2025-02-19 16:37:40.199,764, 55, 626, 1, -3, -6, -6, -7, 13, 0, 59,3
2025-02-19 16:37:40.300,759, 48, 629, -5, -3, -9, -5, -8, 12, 0, 62,3
2025-02-19 16:37:40.406,780, 77, 624, 0, 2, -10, -5, -8, 13, 0, 69,3
2025-02-19 16:37:40.509,860, 270, 609, -21, -7, -16, -6, -10, 13, 0, 92,3
2025-02-19 16:37:40.619,909, 138, 531, 3, -22, -17, -6, -9, 12, 0, 88,3
2025-02-19 16:37:40.729,687, 51, 618, 10, 8, 30, -5, -8, 13, 476, 86,3
2025-02-19 16:37:40.840,727, 32, 585, -16, -14, 36, -6, -7, 12, 438, 84,3
2025-02-19 16:37:40.943,856, 105, 451, 4, 17, 28, -5, -7, 13, 0, 88,3
2025-02-19 16:37:41.052,627, -12, 593, -55, 54, 14, -6, -5, 10, 153, 39,3
2025-02-19 16:37:42.069,784, 81, 604, -4, 0, -3, -6, -9, 13, 195, 73,4
2025-02-19 16:37:42.167,786, 69, 605, 1, -6, -2, -6, -8, 14, 260, 77,4
2025-02-19 16:37:42.274,777, 70, 604, 0, -4, -6, -6, -10, 14, 308, 82,4
2025-02-19 16:37:42.380,787, 26, 587, -1, 0, -9, -6, -11, 14, 371, 91,4
2025-02-19 16:37:42.487,889, 217, 568, 1, 11, 30, -7, -8, 13, 0, 90,4
2025-02-19 16:37:42.593,757, 68, 622, 0, -33, 7, -5, -7, 14, 437, 88,4
2025-02-19 16:37:42.708,865, 191, 653, -25, 54, -35, -7, -8, 14, 461, 75,4
2025-02-19 16:37:42.809,820, -5, 667, -27, -11, 65, -7, -9, 14, 313, 89,4
2025-02-19 16:37:42.919,854, 186, 533, 39, 12, -40, -6, -5, 13, 298, 87,4
2025-02-19 16:37:43.023,582, -79, 709, -2, 0, -7, -5, -6, 10, 143, 37,4
2025-02-19 16:37:44.039,800, 81, 604, 1, -3, -3, -6, -6, 12, 137, 66,5
2025-02-19 16:37:44.137,784, 83, 619, 17, 2, -11, -5, -8, 12, 121, 75,5
2025-02-19 16:37:44.244,782, 122, 654, 12, 4, -21, -6, -9, 11, 0, 92,5
2025-02-19 16:37:44.359,646, 127, 630, -22, -31, 19, -6, -11, 13, 493, 92,5
2025-02-19 16:37:44.459,781, 144, 634, 7, 30, -12, -5, -8, 13, 293, 86,5
2025-02-19 16:37:44.569,749, 207, 658, -18, -7, 42, -8, -9, 12, 117, 88,5
2025-02-19 16:37:44.678,711, 30, 708, -4, -15, 15, -5, -6, 12, 400, 83,5
2025-02-19 16:37:44.781,847, 173, 475, 4, 19, 22, -6, -5, 11, 0, 91,5
2025-02-19 16:37:44.891,562, -84, 742, -40, 42, 17, -4, -3, 11, 126, 34,5
2025-02-19 16:37:45.809,763, 34, 630, -1, -3, -3, -6, -7, 13, 206, 62,6
2025-02-19 16:37:45.907,791, 51, 611, -1, -7, -4, -7, -8, 14, 340, 68,6
2025-02-19 16:37:46.009,693, 33, 627, 11, -32, -21, -6, -7, 13, 486, 87,6
2025-02-19 16:37:46.119,698, -57, 662, 28, 14, -24, -6, -7, 13, 234, 92,6
2025-02-19 16:37:46.219,828, 261, 545, 8, -16, 49, -7, -6, 11, 0, 87,6
2025-02-19 16:37:46.333,886, 10, 509, 21, 32, -29, -8, -6, 12, 0, 90,6
2025-02-19 16:37:46.439,577, 0, 694, -40, 37, 29, -5, -5, 10, 139, 36,6
2025-02-19 16:37:47.359,772, 62, 609, -2, 0, -5, -8, -9, 12, 355, 66,7
2025-02-19 16:37:47.456,737, 38, 633, 5, 1, -3, -6, -10, 12, 289, 69,7
2025-02-19 16:37:47.561,882, 47, 394, 11, 6, -3, -6, -8, 12, 62, 91,7
2025-02-19 16:37:47.672,745, -58, 736, 39, -10, 11, -5, -7, 12, 600, 88,7
2025-02-19 16:37:47.777,823, 175, 575, 1, 10, 23, -5, -6, 12, 294, 87,7
2025-02-19 16:37:47.884,902, 93, 686, -5, -1, -22, -7, -10, 12, 0, 88,7
2025-02-19 16:37:47.992,710, 33, 646, 6, -16, 15, -6, -8, 14, 515, 90,7
2025-02-19 16:37:48.099,693, 21, 546, -43, 62, 20, -5, -6, 11, 0, 47,7
2025-02-19 16:37:49.019,787, 38, 607, -1, -2, 1, -6, -5, 11, 268, 63,8
2025-02-19 16:37:49.114,750, 30, 613, 0, -12, -3, -5, -7, 13, 348, 69,8
2025-02-19 16:37:49.219,775, 85, 583, -9, 3, 0, -6, -8, 15, 347, 88,8
2025-02-19 16:37:49.319,887, -12, 513, 10, 24, 18, -7, -7, 12, 0, 88,8
2025-02-19 16:37:49.434,674, 34, 636, 25, -13, -54, -7, -5, 12, 443, 93,8
2025-02-19 16:37:49.542,936, 65, 631, -24, -22, -21, -6, -8, 12, 610, 90,8
2025-02-19 16:37:49.651,898, 118, 383, 22, 23, 27, -6, -8, 12, 279, 91,8
2025-02-19 16:37:49.759,531, -83, 712, -35, 33, 28, -5, -5, 11, 400, 38,8
2025-02-19 16:37:50.569,794, 61, 600, 0, -3, -2, -5, -9, 12, 384, 73,9
2025-02-19 16:37:50.669,792, 62, 595, -1, -4, -1, -6, -5, 12, 434, 75,9
2025-02-19 16:37:50.781,749, 60, 590, 4, -13, -11, -8, -8, 14, 500, 85,9
2025-02-19 16:37:50.887,812, -7, 573, 7, 4, -26, -8, -10, 14, 364, 92,9
2025-02-19 16:37:50.989,803, 224, 583, 10, -7, 34, -6, -7, 14, 541, 87,9
2025-02-19 16:37:51.104,804, -64, 509, 18, -1, -34, -6, -9, 14, 599, 88,9
2025-02-19 16:37:51.211,854, 237, 500, -14, -14, 47, -5, -6, 15, 258, 93,9
2025-02-19 16:37:51.314,820, -7, 468, -45, 76, 21, -5, -5, 12, 0, 46,9
2025-02-19 16:37:51.424,606, -75, 729, 15, -24, 0, -4, -3, 9, 221, 30,9
