Timestamp,Acc_X,Acc_Y,Acc_Z,Gyro_X,Gyro_Y,Gyro_Z,Mag_X,Mag_Y,Mag_Z,Force,IR_A,Letter
2025-02-19 14:27:05.839,30, 314, 942, -1, -1, -1, 0, 0, -1, 0, 14,noise
2025-02-19 14:27:05.933,28, 314, 945, -1, -1, -1, 0, 1, 1, 0, 15,noise
2025-02-19 14:27:06.038,30, 314, 942, -1, -1, -1, -1, 1, 1, 0, 14,noise
2025-02-19 14:27:06.146,30, 311, 944, -1, -1, 0, 0, 0, -1, 0, 15,noise
2025-02-19 14:27:06.248,28, 316, 945, -1, -1, -1, -2, -1, 1, 0, 14,noise
2025-02-19 14:27:06.359,29, 313, 946, -1, -1, -1, 2, -1, 0, 0, 14,noise
2025-02-19 14:27:06.466,29, 312, 947, -1, -1, -1, 1, 0, -2, 0, 14,noise
2025-02-19 14:27:06.566,32, 315, 945, -1, 0, -1, 0, -1, 1, 0, 14,noise
2025-02-19 14:27:06.679,28, 315, 954, -1, -1, -1, -1, -1, 1, 0, 14,noise
2025-02-19 14:27:06.789,31, 318, 954, -1, -1, -1, -1, 0, -1, 0, 13,noise
2025-02-19 14:27:06.896,28, 319, 947, -1, -1, -1, 1, 0, 1, 0, 11,noise
2025-02-19 14:27:06.996,32, 309, 944, -1, -1, 0, 0, 0, -1, 0, 10,noise
2025-02-19 14:27:07.113,28, 312, 942, -1, -1, -1, -1, 0, -1, 0, 11,noise
2025-02-19 14:27:07.214,31, 312, 946, -1, 0, 0, 1, 0, 2, 0, 11,noise
2025-02-19 14:27:07.322,31, 310, 945, 0, -1, -1, 1, 1, 0, 0, 12,noise
2025-02-19 14:27:07.428,31, 308, 946, 1, -1, 0, -1, 0, -1, 0, 11,noise
2025-02-19 14:27:07.539,30, 299, 952, -1, -1, -1, 0, 0, 2, 0, 13,noise
2025-02-19 14:27:07.645,26, 311, 941, -1, -1, 0, 2, 1, -1, 0, 12,noise
2025-02-19 14:27:07.746,35, 301, 953, -1, -1, -1, 0, 1, -2, 0, 12,noise
2025-02-19 14:27:07.857,27, 293, 961, 0, -1, -1, 0, -1, 1, 0, 12,noise
2025-02-19 14:27:07.963,34, 318, 939, 3, 0, -1, 1, -1, 0, 0, 13,noise
2025-02-19 14:27:08.066,32, 319, 946, -2, -1, 0, 1, 2, -1, 0, 12,noise
2025-02-19 14:27:08.177,34, 326, 948, -11, 0, 0, 0, -1, 1, 0, 12,noise
2025-02-19 14:27:08.284,32, 304, 950, 5, 0, -1, 0, 1, -3, 0, 11,noise
2025-02-19 14:27:08.396,34, 316, 945, -3, -1, -1, 0, 1, 0, 0, 12,noise
2025-02-19 14:27:18.516,747, -176, 628, 3, -1, -4, -20, 8, 31, 754, 80,A
2025-02-19 14:27:18.609,747, -175, 631, -5, 3, -3, -19, 5, 29, 769, 80,A
2025-02-19 14:27:18.717,772, -164, 633, 0, -3, -6, -20, 6, 31, 775, 86,A
2025-02-19 14:27:18.823,754, -153, 616, 0, 1, -1, -20, 6, 29, 780, 85,A
2025-02-19 14:27:18.934,758, -161, 625, -4, 3, 0, -20, 5, 30, 789, 79,A
2025-02-19 14:27:19.040,735, -172, 634, -5, -1, -2, -21, 7, 31, 799, 78,A
2025-02-19 14:27:19.146,803, -128, 623, -8, 0, 0, -20, 4, 31, 808, 82,A
2025-02-19 14:27:19.253,743, -142, 638, -7, 2, -2, -21, 5, 30, 830, 76,A
2025-02-19 14:27:19.359,772, -164, 614, 1, -18, -12, -21, 6, 31, 828, 91,A
2025-02-19 14:27:19.467,749, -158, 620, -9, 7, 0, -18, 5, 31, 821, 96,A
2025-02-19 14:27:19.576,775, -141, 604, -2, -1, -4, -19, 4, 30, 824, 101,A
2025-02-19 14:27:19.683,882, -188, 616, 1, -2, -6, -21, 7, 32, 827, 109,A
2025-02-19 14:27:19.791,781, -189, 590, 0, 0, -15, -21, 3, 31, 806, 111,A
2025-02-19 14:27:19.900,911, 200, 528, -6, -12, 37, -20, 5, 30, 0, 113,A
2025-02-19 14:27:20.007,878, -44, 577, 9, 43, -46, -19, 7, 31, 716, 104,A
2025-02-19 14:27:20.112,776, -174, 553, 2, 3, -17, -20, 4, 30, 740, 109,A
2025-02-19 14:27:20.220,854, 1, 559, 12, -20, 43, -20, 7, 32, 244, 117,A
2025-02-19 14:27:20.326,592, -325, 489, -31, -18, -55, -18, 7, 33, 452, 109,A
2025-02-19 14:27:20.437,736, -58, 638, 71, -40, 9, -20, 5, 31, 772, 115,A
2025-02-19 14:27:20.543,1031, -63, 619, -38, 74, 15, -20, 7, 32, 823, 93,A
2025-02-19 14:27:21.459,763, -163, 619, -3, 2, -5, -19, 5, 31, 770, 82,B
2025-02-19 14:27:21.559,748, -117, 625, -1, -1, -4, -22, 6, 28, 784, 87,B
2025-02-19 14:27:21.665,796, -100, 620, -4, 1, -9, -20, 5, 31, 787, 96,B
2025-02-19 14:27:21.766,791, -238, 511, 3, 4, -32, -20, 4, 31, 669, 105,B
2025-02-19 14:27:21.878,817, 107, 560, 13, -1, 26, -20, 6, 31, 0, 114,B
2025-02-19 14:27:21.993,613, -444, 661, -21, -22, -45, -20, 5, 31, 780, 102,B
2025-02-19 14:27:22.096,671, -139, 762, 15, -8, -9, -18, 3, 30, 798, 104,B
2025-02-19 14:27:22.202,921, -13, 444, -2, 13, 10, -21, 5, 30, 538, 90,B
2025-02-19 14:27:22.309,667, -77, 778, -10, -19, 26, -17, 5, 31, 493, 88,B
2025-02-19 14:27:22.419,896, -132, 500, 39, 31, -16, -21, 6, 30, 229, 103,B
2025-02-19 14:27:22.526,483, -262, 718, -10, 12, 6, -18, 9, 27, 487, 40,B
2025-02-19 14:27:22.626,953, -58, 649, 3, -9, -12, -18, 7, 28, 552, 42,B
2025-02-19 14:27:23.646,771, -110, 643, -5, -5, -4, -20, 5, 29, 712, 5,C
2025-02-19 14:27:23.746,749, -106, 621, 2, -7, -6, -20, 7, 29, 740, 5,C
2025-02-19 14:27:23.849,781, -86, 602, -3, 0, -3, -18, 3, 29, 757, 6,C
2025-02-19 14:27:23.960,688, -102, 625, 4, -22, -18, -20, 4, 30, 781, 5,C
2025-02-19 14:27:24.066,741, -230, 603, 34, 23, -9, -19, 4, 31, 446, 4,C
2025-02-19 14:27:24.176,970, 145, 569, 23, -30, 41, -18, 5, 30, 0, 105,C
2025-02-19 14:27:24.276,979, -22, 671, -28, 13, 31, -18, 5, 30, 724, 100,C
2025-02-19 14:27:24.389,566, -254, 648, -18, 26, 6, -18, 8, 30, 454, 39,C
2025-02-19 14:27:24.496,823, -135, 646, 12, -19, -13, -17, 7, 28, 637, 50,C
2025-02-19 14:27:24.606,721, -157, 646, -3, -3, -4, -20, 8, 30, 673, 54,C
2025-02-19 14:27:24.712,774, -117, 622, -2, -3, -3, -20, 8, 30, 717, 63,C
2025-02-19 14:27:24.816,753, -138, 635, 2, -6, -4, -19, 6, 29, 744, 66,C
2025-02-19 14:27:24.925,753, -128, 630, -1, 0, -1, -21, 7, 31, 747, 68,C
2025-02-19 14:27:25.032,769, -123, 632, -3, 1, -1, -20, 7, 30, 748, 69,C
2025-02-19 14:27:25.142,760, -136, 627, -1, -2, -1, -21, 5, 31, 751, 69,C
2025-02-19 14:27:26.458,752, -134, 629, -2, -1, -2, -19, 5, 29, 730, 67,D
2025-02-19 14:27:26.556,756, -132, 629, -2, -1, -2, -20, 7, 31, 734, 69,D
2025-02-19 14:27:26.663,754, -130, 627, -2, 0, -2, -21, 5, 29, 740, 70,D
2025-02-19 14:27:26.770,747, -120, 632, -2, 0, -1, -21, 5, 30, 736, 70,D
2025-02-19 14:27:26.880,743, -146, 632, -7, -2, -5, -20, 7, 31, 717, 72,D
2025-02-19 14:27:26.983,764, -129, 629, -1, -1, 0, -19, 5, 29, 729, 73,D
2025-02-19 14:27:27.091,737, -113, 607, -5, -3, 1, -22, 7, 31, 782, 72,D
2025-02-19 14:27:27.196,752, -155, 615, -3, -4, 0, -19, 5, 31, 737, 75,D
2025-02-19 14:27:27.306,772, -139, 616, -1, 0, -2, -21, 3, 31, 721, 81,D
2025-02-19 14:27:27.412,723, -134, 621, -3, -5, -7, -20, 5, 32, 716, 85,D
2025-02-19 14:27:27.523,812, -130, 606, -7, -4, -19, -21, 6, 32, 706, 109,D
2025-02-19 14:27:27.626,726, 25, 579, -25, -29, 50, -20, 3, 29, 0, 112,D
2025-02-19 14:27:27.736,741, -94, 489, 35, 28, -59, -20, 5, 33, 442, 109,D
2025-02-19 14:27:27.846,829, -53, 632, 4, -25, -10, -19, 3, 32, 717, 107,D
2025-02-19 14:27:27.953,862, 161, 560, -26, -21, 60, -19, 5, 33, 0, 101,D
2025-02-19 14:27:28.057,761, -132, 531, -41, 70, 45, -20, 7, 30, 221, 61,D
2025-02-19 14:27:28.166,593, -271, 678, 23, -23, -21, -20, 9, 28, 485, 42,D
2025-02-19 14:27:28.984,766, -120, 617, -1, 0, -2, -20, 5, 29, 760, 84,E
2025-02-19 14:27:29.080,774, -114, 629, -5, 0, -1, -18, 4, 30, 732, 85,E
2025-02-19 14:27:29.186,758, -135, 612, -10, 1, -3, -19, 5, 32, 630, 84,E
2025-02-19 14:27:29.296,643, -198, 619, -7, -25, -30, -21, 5, 30, 663, 104,E
2025-02-19 14:27:29.403,799, -173, 729, -24, -31, 83, -19, 3, 31, 0, 109,E
2025-02-19 14:27:29.513,674, -107, 551, 65, 29, -73, -20, 5, 31, 415, 110,E
2025-02-19 14:27:29.620,858, -100, 538, -23, -2, -20, -21, 3, 30, 155, 109,E
2025-02-19 14:27:29.726,741, -68, 656, 27, -14, 10, -20, 2, 32, 807, 109,E
2025-02-19 14:27:29.832,561, -66, 426, -28, 1, -10, -19, 6, 31, 272, 93,E
2025-02-19 14:27:29.939,708, -20, 628, 32, -27, 8, -20, 3, 31, 756, 6,E
2025-02-19 14:27:30.045,725, -18, 568, -61, 53, 24, -17, 5, 31, 446, 7,E
2025-02-19 14:27:30.152,888, 73, 587, 35, -54, 15, -18, 6, 31, 559, 105,E
2025-02-19 14:27:30.258,813, 57, 438, -98, 90, 45, -20, 8, 32, 573, 61,E
2025-02-19 14:27:30.366,666, -149, 646, 22, -30, -36, -18, 7, 29, 692, 6,E
2025-02-19 14:27:31.385,753, -88, 627, -1, 2, -4, -20, 5, 30, 744, 6,F
2025-02-19 14:27:31.479,785, -86, 617, -2, 0, -1, -21, 6, 32, 751, 5,F
2025-02-19 14:27:31.586,736, -66, 621, -7, 1, -9, -21, 4, 29, 747, 5,F
2025-02-19 14:27:31.696,772, -73, 614, -3, 2, -4, -20, 5, 30, 730, 4,F
2025-02-19 14:27:31.803,732, 70, 617, -43, -38, 57, -19, 5, 31, 0, 6,F
2025-02-19 14:27:31.910,751, -35, 536, 43, 29, -45, -19, 6, 32, 375, 6,F
2025-02-19 14:27:32.016,853, -96, 428, 2, -2, -20, -20, 5, 31, 265, 4,F
2025-02-19 14:27:32.123,728, -43, 679, 17, -8, 10, -19, 5, 31, 831, 6,F
2025-02-19 14:27:32.233,645, -145, 459, -17, -4, -7, -18, 5, 30, 264, 5,F
2025-02-19 14:27:32.340,738, 47, 608, 14, -28, 14, -19, 5, 30, 742, 103,F
2025-02-19 14:27:32.449,721, -44, 461, -68, 57, 23, -18, 6, 31, 535, 64,F
2025-02-19 14:27:32.556,754, -94, 645, 21, -32, -25, -18, 6, 27, 573, 6,F
2025-02-19 14:27:33.274,788, -63, 612, -6, -2, -10, -19, 4, 33, 709, 5,G
2025-02-19 14:27:33.368,777, -55, 607, -6, -3, -4, -21, 4, 32, 729, 5,G
2025-02-19 14:27:33.474,783, -76, 609, -2, -6, -5, -20, 4, 29, 743, 5,G
2025-02-19 14:27:33.584,764, -122, 627, -10, 5, -22, -22, 3, 32, 608, 5,G
2025-02-19 14:27:33.687,857, 153, 545, -3, -17, 49, -19, 4, 31, 0, 6,G
2025-02-19 14:27:33.796,750, -231, 559, 5, 10, -39, -19, 4, 30, 712, 6,G
2025-02-19 14:27:33.905,823, 97, 541, -16, -13, 40, -20, 5, 34, 99, 87,G
2025-02-19 14:27:34.006,503, -252, 537, -10, -5, -48, -19, 5, 31, 513, 6,G
2025-02-19 14:27:34.121,773, 42, 573, 31, -32, 20, -20, 3, 31, 697, 107,G
2025-02-19 14:27:34.228,854, 2, 564, -52, 68, 28, -18, 6, 31, 739, 61,G
2025-02-19 14:27:35.139,773, -84, 619, 2, -1, -3, -19, 4, 31, 743, 6,H
2025-02-19 14:27:35.239,764, -58, 617, 7, -4, -6, -20, 4, 29, 784, 5,H
2025-02-19 14:27:35.346,715, -53, 626, 4, 0, -14, -19, 3, 30, 807, 5,H
2025-02-19 14:27:35.456,799, -76, 605, 0, 5, -10, -19, 1, 29, 791, 4,H
2025-02-19 14:27:35.563,802, 206, 577, -23, -20, 46, -21, 4, 30, 211, 6,H
2025-02-19 14:27:35.672,644, -133, 541, -11, 49, -21, -19, 6, 30, 586, 6,H
2025-02-19 14:27:35.778,1040, 199, 615, 26, -44, 3, -21, 4, 30, 559, 100,H
2025-02-19 14:27:35.886,655, -19, 534, -24, 38, -18, -18, 5, 31, 830, 83,H
2025-02-19 14:27:35.996,817, -98, 687, -23, -15, 56, -18, 1, 31, 541, 103,H
2025-02-19 14:27:36.103,952, -57, 615, 30, 0, -10, -19, 7, 31, 477, 108,H
2025-02-19 14:27:36.210,543, -184, 690, -11, 13, -5, -19, 7, 28, 589, 43,H
2025-02-19 14:27:37.126,775, -74, 615, -1, -1, -7, -18, 5, 30, 663, 74,I
2025-02-19 14:27:37.222,759, -71, 620, 0, -4, -12, -20, 5, 28, 714, 80,I
2025-02-19 14:27:37.329,811, -28, 590, -1, 4, -6, -19, 5, 31, 706, 91,I
2025-02-19 14:27:37.436,768, -27, 629, -5, 7, -9, -21, 4, 30, 668, 91,I
2025-02-19 14:27:37.546,787, -18, 490, 75, 11, -19, -19, 1, 32, 315, 89,I
2025-02-19 14:27:37.646,798, 19, 649, 2, -6, 19, -19, 2, 31, 856, 95,I
2025-02-19 14:27:37.756,2547, -171, 541, 23, 9, -39, -18, 1, 30, 677, 96,I
2025-02-19 14:27:37.865,772, 86, 593, 2, -10, 39, -18, 4, 31, 226, 6,I
2025-02-19 14:27:37.971,911, -23, 665, 5, 6, -18, -19, 4, 32, 173, 100,I
2025-02-19 14:27:38.082,709, 10, 626, 13, -25, 13, -18, 2, 31, 585, 103,I
2025-02-19 14:27:38.188,763, -7, 585, -29, 59, 10, -18, 5, 30, 590, 57,I
2025-02-19 14:27:39.004,769, -11, 624, 2, 1, -3, -19, 3, 31, 806, 6,J
2025-02-19 14:27:39.096,780, -16, 624, 4, -4, -5, -19, 2, 30, 808, 6,J
2025-02-19 14:27:39.208,740, -13, 640, -5, 10, -7, -20, 2, 30, 767, 5,J
2025-02-19 14:27:39.306,792, 6, 626, -5, 3, -2, -20, 2, 30, 688, 83,J
2025-02-19 14:27:39.421,757, 1, 640, 0, 0, -1, -21, 2, 28, 701, 82,J
2025-02-19 14:27:39.527,742, -2, 649, 1, 0, -2, -19, 3, 29, 722, 81,J
2025-02-19 14:27:39.638,723, -20, 620, -1, -8, -8, -19, 2, 29, 665, 89,J
2025-02-19 14:27:39.737,928, 77, 566, 29, -39, -10, -21, 1, 28, 726, 4,J
2025-02-19 14:27:39.851,801, 52, 601, -12, 0, 2, -19, 1, 31, 832, 97,J
2025-02-19 14:27:39.962,696, -95, 568, 20, -30, -6, -19, 2, 29, 759, 96,J
2025-02-19 14:27:40.068,778, 35, 615, -4, -8, -1, -19, 1, 30, 761, 96,J
2025-02-19 14:27:40.171,778, 6, 606, -2, 1, 0, -17, 2, 29, 772, 95,J
2025-02-19 14:27:40.281,781, 28, 634, -3, -1, -1, -19, 2, 30, 781, 95,J
2025-02-19 14:27:40.384,789, 4, 623, -6, 1, 4, -19, 4, 29, 792, 95,J
2025-02-19 14:27:40.494,790, 20, 613, 2, -6, -5, -20, 3, 29, 793, 94,J
2025-02-19 14:27:40.601,790, 4, 611, -1, -3, -7, -21, 2, 31, 796, 96,J
2025-02-19 14:27:40.711,816, -105, 687, 6, -14, 35, -19, 2, 30, 784, 95,J
2025-02-19 14:27:40.817,777, 87, 583, -50, -13, 36, -20, 5, 32, 0, 111,J
2025-02-19 14:27:40.928,1110, 83, 639, -19, 74, 68, -20, 5, 28, 441, 62,J
2025-02-19 14:27:41.035,601, -143, 693, 18, -21, -9, -19, 8, 27, 495, 36,J
2025-02-19 14:27:41.953,704, -87, 675, -6, -10, -7, -19, 6, 26, 718, 43,K
2025-02-19 14:27:42.046,746, -66, 657, 0, -13, -10, -18, 6, 29, 779, 54,K
2025-02-19 14:27:42.157,733, -74, 657, -1, -3, -4, -19, 5, 29, 796, 60,K
2025-02-19 14:27:42.260,785, -25, 640, 0, -1, -7, -20, 4, 29, 789, 75,K
2025-02-19 14:27:42.370,691, -86, 586, -6, -14, -31, -19, 3, 29, 713, 85,K
2025-02-19 14:27:42.480,844, -279, 752, -7, -10, 51, -20, 4, 30, 449, 97,K
2025-02-19 14:27:42.587,871, -16, 634, 21, -17, 16, -18, 4, 30, 208, 102,K
2025-02-19 14:27:42.693,543, -209, 723, 22, -44, -38, -20, 4, 31, 722, 81,K
2025-02-19 14:27:42.796,760, -46, 639, -7, -1, -6, -19, 2, 31, 700, 100,K
2025-02-19 14:27:42.903,901, 94, 495, -21, 6, 21, -19, 3, 29, 0, 99,K
2025-02-19 14:27:43.013,731, -28, 674, -16, -29, 25, -20, 6, 32, 0, 110,K
2025-02-19 14:27:43.124,739, -129, 518, -21, 76, 10, -19, 6, 27, 449, 60,K
2025-02-19 14:27:43.937,757, -4, 636, -3, 3, -1, -18, 4, 29, 773, 78,L
2025-02-19 14:27:44.037,741, -10, 644, -1, -4, -4, -19, 4, 28, 770, 79,L
2025-02-19 14:27:44.144,764, 28, 643, -2, 1, -15, -19, 3, 29, 781, 88,L
2025-02-19 14:27:44.246,763, 9, 632, -4, 3, -9, -20, 3, 26, 648, 95,L
2025-02-19 14:27:44.356,783, 141, 573, -28, -10, 43, -19, 4, 30, 0, 99,L
2025-02-19 14:27:44.464,794, 6, 607, 20, -27, -1, -19, 5, 29, 413, 101,L
2025-02-19 14:27:44.571,784, 15, 548, -37, 72, 29, -20, 7, 29, 702, 63,L
2025-02-19 14:27:44.685,658, -117, 666, 11, -23, -11, -17, 6, 28, 646, 46,L
2025-02-19 14:27:45.496,762, -20, 652, -24, -9, -3, -19, 5, 29, 556, 67,M
2025-02-19 14:27:45.594,758, -36, 642, -20, -5, -3, -21, 6, 28, 632, 77,M
2025-02-19 14:27:45.703,757, -45, 637, -11, -2, -17, -20, 4, 30, 658, 86,M
2025-02-19 14:27:45.811,798, -82, 589, -7, 4, -13, -19, 4, 29, 589, 99,M
2025-02-19 14:27:45.917,791, 180, 583, -36, -18, 52, -22, 4, 29, 0, 102,M
2025-02-19 14:27:46.024,683, -70, 571, 6, 33, -54, -18, 4, 29, 639, 89,M
2025-02-19 14:27:46.134,913, -71, 683, -27, -23, 29, -20, 2, 30, 571, 100,M
2025-02-19 14:27:46.240,838, 33, 528, 45, -15, -16, -20, 5, 32, 542, 106,M
2025-02-19 14:27:46.351,772, -131, 636, -17, -22, 60, -19, 1, 31, 745, 102,M
2025-02-19 14:27:46.457,898, -148, 442, 31, 26, -35, -21, 5, 31, 644, 103,M
2025-02-19 14:27:46.560,542, -175, 682, -8, 5, -4, -18, 7, 28, 635, 43,M
2025-02-19 14:27:47.380,771, -47, 628, 2, -1, -3, -19, 3, 29, 732, 79,N
2025-02-19 14:27:47.474,764, -43, 629, 2, -1, -2, -20, 4, 31, 731, 81,N
2025-02-19 14:27:47.580,759, -31, 646, 7, 3, -5, -21, 5, 30, 730, 85,N
2025-02-19 14:27:47.691,791, -88, 580, -12, 0, -9, -20, 2, 30, 471, 97,N
2025-02-19 14:27:47.796,759, 95, 631, -41, -19, 52, -21, 5, 33, 0, 103,N
2025-02-19 14:27:47.906,676, -108, 599, 23, 39, -44, -22, 5, 30, 435, 86,N
2025-02-19 14:27:48.014,883, -103, 648, -18, -17, 6, -18, 2, 28, 443, 98,N
2025-02-19 14:27:48.117,794, 41, 671, 4, -9, 29, -20, 5, 32, 0, 111,N
2025-02-19 14:27:48.223,810, 0, 580, 23, 12, -4, -20, 3, 32, 789, 103,N
2025-02-19 14:27:48.334,610, -173, 670, 2, -7, -1, -20, 4, 29, 587, 59,N
2025-02-19 14:27:49.252,763, -90, 615, 2, -7, -4, -19, 4, 31, 635, 87,O
2025-02-19 14:27:49.346,792, -50, 602, 1, -4, -3, -21, 4, 31, 707, 98,O
2025-02-19 14:27:49.456,761, -55, 610, 1, 8, -11, -20, 3, 29, 694, 104,O
2025-02-19 14:27:49.556,809, -87, 600, 28, 18, 13, -18, 2, 32, 373, 99,O
2025-02-19 14:27:49.669,808, 44, 636, 6, -30, 13, -20, 5, 31, 419, 105,O
2025-02-19 14:27:49.780,788, -15, 604, -25, 13, -35, -20, 2, 31, 792, 101,O
2025-02-19 14:27:49.886,673, -31, 624, -51, 39, 50, -18, 5, 28, 481, 51,O
2025-02-19 14:27:49.993,715, -82, 670, 26, -32, -21, -18, 6, 29, 585, 51,O
2025-02-19 14:27:50.906,765, -45, 629, -2, 1, -1, -21, 4, 29, 624, 79,P
2025-02-19 14:27:51.003,769, -48, 619, 0, 0, -2, -20, 3, 31, 677, 81,P
2025-02-19 14:27:51.106,757, -42, 623, 2, 0, -2, -19, 4, 30, 685, 85,P
2025-02-19 14:27:51.221,690, -25, 617, 16, -1, -17, -19, 3, 29, 761, 94,P
2025-02-19 14:27:51.326,859, -289, 693, -4, -3, 38, -18, 2, 28, 500, 96,P
2025-02-19 14:27:51.436,840, -14, 665, 8, -11, 10, -19, 5, 30, 341, 101,P
2025-02-19 14:27:51.546,636, -167, 594, 14, -27, -57, -20, 3, 29, 692, 91,P
2025-02-19 14:27:51.648,670, -14, 714, 5, -6, 4, -21, 1, 29, 689, 96,P
2025-02-19 14:27:51.758,898, 14, 465, 23, 16, 15, -20, 2, 29, 525, 98,P
2025-02-19 14:27:51.856,514, -190, 720, -12, 4, 15, -18, 8, 28, 509, 43,P
2025-02-19 14:27:53.179,765, -41, 634, -3, -2, -2, -21, 5, 31, 707, 85,Q
2025-02-19 14:27:53.276,778, -53, 617, 0, -3, -1, -19, 2, 29, 746, 88,Q
2025-02-19 14:27:53.384,801, -13, 635, 11, -1, 0, -20, 5, 31, 793, 99,Q
2025-02-19 14:27:53.495,800, -46, 596, -17, 7, -35, -19, 1, 29, 713, 102,Q
2025-02-19 14:27:53.601,979, 242, 512, -12, -28, 81, -18, 2, 28, 2, 98,Q
2025-02-19 14:27:53.711,742, -203, 562, 20, 6, -38, -20, 5, 32, 721, 100,Q
2025-02-19 14:27:53.819,531, -147, 616, 19, -21, -17, -19, 4, 28, 403, 80,Q
2025-02-19 14:27:53.919,791, 37, 626, 0, -31, 43, -18, 5, 29, 435, 101,Q
2025-02-19 14:27:54.032,761, -81, 506, -18, 74, 15, -18, 9, 31, 622, 61,Q
2025-02-19 14:27:54.946,771, -25, 627, 1, 2, -2, -20, 5, 28, 762, 75,R
2025-02-19 14:27:55.043,788, -16, 618, 2, 3, -3, -20, 5, 28, 783, 76,R
2025-02-19 14:27:55.149,764, -6, 642, 0, 4, -9, -18, 3, 30, 794, 77,R
2025-02-19 14:27:55.260,826, -21, 535, -17, -2, -17, -20, 1, 30, 656, 95,R
2025-02-19 14:27:55.366,797, 234, 562, -11, -14, 38, -21, 5, 28, 0, 100,R
2025-02-19 14:27:55.477,547, -133, 554, 28, -6, -74, -19, 2, 28, 683, 86,R
2025-02-19 14:27:55.583,686, 51, 746, -6, -13, 44, -19, 3, 29, 651, 93,R
2025-02-19 14:27:55.690,791, -156, 503, 21, 18, -14, -21, 4, 28, 238, 97,R
2025-02-19 14:27:55.796,1137, -6, 618, -12, 56, 18, -18, 5, 31, 415, 90,R
2025-02-19 14:27:55.906,522, -207, 699, 14, -13, -8, -18, 7, 28, 389, 39,R
2025-02-19 14:27:56.818,743, -53, 636, 1, -4, -7, -20, 6, 28, 625, 66,S
2025-02-19 14:27:56.919,804, -26, 626, 1, -7, -8, -18, 4, 29, 764, 80,S
2025-02-19 14:27:57.025,772, -33, 611, 3, -12, -8, -20, 4, 31, 799, 90,S
2025-02-19 14:27:57.132,781, -17, 639, -3, 2, -14, -19, 4, 32, 795, 99,S
2025-02-19 14:27:57.238,975, -97, 533, 26, -1, 51, -19, 2, 30, 643, 95,S
2025-02-19 14:27:57.349,686, -76, 663, -6, -4, 31, -19, 6, 30, 652, 101,S
2025-02-19 14:27:57.455,654, -42, 579, -39, 80, 27, -19, 6, 28, 572, 47,S
2025-02-19 14:27:57.566,588, -137, 708, 23, -42, -28, -19, 7, 25, 597, 38,S
2025-02-19 14:27:59.079,757, 0, 663, -27, 0, -4, -19, 3, 26, 424, 61,T
2025-02-19 14:27:59.176,712, -66, 643, -43, -6, -7, -21, 5, 29, 536, 62,T
2025-02-19 14:27:59.286,726, -76, 642, -12, -8, -8, -21, 4, 28, 732, 71,T
2025-02-19 14:27:59.386,767, -81, 639, -2, 2, -4, -20, 3, 30, 791, 79,T
2025-02-19 14:27:59.500,734, -48, 662, -10, 9, -6, -20, 4, 31, 715, 81,T
2025-02-19 14:27:59.606,772, -42, 566, 28, 7, -12, -21, 2, 28, 268, 100,T
2025-02-19 14:27:59.706,763, -25, 631, 11, -8, 8, -19, 4, 32, 818, 106,T
2025-02-19 14:27:59.817,585, -189, 583, 14, -38, -20, -18, 0, 31, 638, 101,T
2025-02-19 14:27:59.926,792, 65, 607, -21, -22, 51, -21, 4, 30, 0, 109,T
2025-02-19 14:28:00.037,694, -125, 594, -12, 69, 29, -20, 7, 30, 380, 59,T
2025-02-19 14:28:00.147,714, -217, 662, 18, -25, -23, -18, 7, 31, 440, 49,T
2025-02-19 14:28:00.249,753, -106, 631, 0, 1, -1, -20, 6, 29, 476, 59,T
2025-02-19 14:28:00.967,760, -97, 641, 0, 1, -1, -20, 5, 29, 383, 63,U
2025-02-19 14:28:01.064,747, -96, 637, 1, 0, -3, -18, 5, 29, 486, 66,U
2025-02-19 14:28:01.170,751, -92, 631, 3, 0, -8, -21, 6, 29, 487, 70,U
2025-02-19 14:28:01.277,760, -78, 650, 1, 4, -17, -19, 4, 30, 366, 78,U
2025-02-19 14:28:01.386,793, -164, 539, 11, 14, -16, -20, 1, 31, 0, 99,U
2025-02-19 14:28:01.486,801, 90, 617, 5, -30, 25, -21, 6, 31, 0, 105,U
2025-02-19 14:28:01.599,793, -322, 566, -3, 3, -29, -19, 4, 31, 714, 102,U
2025-02-19 14:28:01.711,827, 228, 570, -14, -16, 44, -20, 4, 30, 0, 105,U
2025-02-19 14:28:01.817,638, -185, 648, -15, 48, 11, -20, 8, 28, 457, 48,U
2025-02-19 14:28:02.733,771, -90, 627, 0, 2, -1, -19, 5, 30, 479, 71,V
2025-02-19 14:28:02.829,759, -82, 642, 2, 2, -2, -19, 4, 29, 591, 71,V
2025-02-19 14:28:02.936,752, -83, 635, 3, 2, -3, -19, 6, 30, 606, 72,V
2025-02-19 14:28:03.046,748, -40, 671, -2, 9, -11, -18, 3, 27, 570, 75,V
2025-02-19 14:28:03.149,922, 32, 681, -2, 7, -23, -21, 0, 28, 0, 96,V
2025-02-19 14:28:03.260,666, -50, 641, -83, -66, 105, -20, 4, 28, 1, 98,V
2025-02-19 14:28:03.370,706, -88, 571, 76, 20, -80, -19, 4, 29, 433, 104,V
2025-02-19 14:28:03.476,1016, 21, 653, -23, 13, 41, -18, 2, 29, 659, 91,V
2025-02-19 14:28:03.582,695, -91, 657, 11, -20, -7, -19, 6, 30, 502, 57,V
2025-02-19 14:28:04.397,762, -65, 637, 0, 0, -1, -19, 4, 28, 552, 75,W
2025-02-19 14:28:04.492,751, -49, 636, 1, 1, -3, -20, 4, 28, 538, 73,W
2025-02-19 14:28:04.603,753, -61, 633, 4, 2, -2, -20, 5, 30, 506, 75,W
2025-02-19 14:28:04.709,770, -31, 649, 3, 0, -4, -20, 2, 28, 505, 78,W
2025-02-19 14:28:04.815,740, -32, 661, 3, 5, -8, -19, 3, 27, 407, 79,W
2025-02-19 14:28:04.922,760, -22, 643, 7, 5, -9, -20, 4, 30, 278, 82,W
2025-02-19 14:28:05.032,674, -23, 633, 7, -14, -19, -20, 2, 28, 252, 92,W
2025-02-19 14:28:05.134,745, -12, 658, 1, 4, -8, -20, 1, 27, 0, 93,W
2025-02-19 14:28:05.245,710, 1, 659, -37, -31, 72, -19, 5, 29, 0, 98,W
2025-02-19 14:28:05.356,806, 29, 614, 12, -16, -14, -20, 5, 28, 91, 102,W
2025-02-19 14:28:05.458,765, -78, 620, 21, 4, -19, -19, 3, 30, 552, 5,W
2025-02-19 14:28:05.566,804, -68, 597, -12, -12, 10, -19, 5, 30, 0, 7,W
2025-02-19 14:28:05.676,792, -248, 673, -16, -1, -37, -20, 4, 30, 567, 6,W
2025-02-19 14:28:05.782,894, 32, 610, -39, 44, 35, -20, 2, 30, 612, 77,W
2025-02-19 14:28:07.397,755, -69, 641, -1, 0, -1, -18, 4, 29, 564, 60,X
2025-02-19 14:28:07.492,765, -60, 636, 0, 0, -2, -19, 4, 30, 585, 61,X
2025-02-19 14:28:07.606,754, -68, 638, -2, -1, -2, -19, 6, 29, 591, 61,X
2025-02-19 14:28:07.712,755, -72, 634, -7, -1, 1, -19, 4, 31, 618, 61,X
2025-02-19 14:28:07.816,758, -80, 633, -4, -4, -2, -19, 7, 32, 625, 66,X
2025-02-19 14:28:07.924,798, -79, 618, 6, -7, -3, -19, 4, 30, 688, 73,X
2025-02-19 14:28:08.031,763, -63, 624, 0, -1, -2, -20, 3, 30, 737, 76,X
2025-02-19 14:28:08.141,786, -56, 616, 1, -3, -2, -21, 6, 31, 769, 81,X
2025-02-19 14:28:08.247,798, -41, 608, -3, 2, -4, -19, 6, 31, 800, 84,X
2025-02-19 14:28:08.354,927, 67, 559, -4, -6, -14, -20, 2, 29, 811, 101,X
2025-02-19 14:28:08.461,800, 214, 550, -13, -2, 49, -20, 5, 31, 0, 103,X
2025-02-19 14:28:08.572,645, -119, 677, -36, 48, -62, -20, 5, 31, 386, 81,X
2025-02-19 14:28:08.681,817, -115, 622, -56, -54, 84, -20, 2, 29, 208, 99,X
2025-02-19 14:28:08.784,848, -18, 631, 38, 7, -9, -21, 6, 32, 439, 105,X
2025-02-19 14:28:08.891,574, -172, 683, 1, 5, -12, -18, 5, 29, 482, 47,X
2025-02-19 14:28:09.706,755, -56, 630, -8, -1, -6, -20, 2, 30, 700, 83,Y
2025-02-19 14:28:09.801,759, -40, 630, 0, 0, -5, -18, 5, 31, 649, 89,Y
2025-02-19 14:28:09.914,697, -63, 635, 1, -4, -15, -20, 4, 31, 612, 97,Y
2025-02-19 14:28:10.021,770, -87, 647, -13, -20, 39, -19, 4, 28, 361, 98,Y
2025-02-19 14:28:10.128,873, 59, 505, 34, 9, -39, -19, 6, 32, 630, 96,Y
2025-02-19 14:28:10.238,1824, -21, 691, 5, -11, -28, -20, 1, 29, 776, 99,Y
2025-02-19 14:28:10.341,780, -32, 622, -3, 4, 31, -20, 4, 29, 243, 103,Y
2025-02-19 14:28:10.453,773, -142, 620, -31, -17, 28, -20, 6, 31, 0, 105,Y
2025-02-19 14:28:10.559,1019, -19, 617, 39, 35, 6, -21, 5, 31, 183, 100,Y
2025-02-19 14:28:11.376,766, -42, 640, 2, -3, -2, -20, 4, 29, 785, 80,Z
2025-02-19 14:28:11.468,718, -22, 642, 11, 0, -5, -19, 5, 29, 797, 84,Z
2025-02-19 14:28:11.578,741, -10, 632, 14, 1, -7, -18, 4, 29, 814, 91,Z
2025-02-19 14:28:11.683,807, -7, 598, -3, 3, -6, -20, 4, 30, 725, 93,Z
2025-02-19 14:28:11.790,707, 1, 675, 18, -11, 2, -19, 3, 29, 833, 90,Z
2025-02-19 14:28:11.901,776, 93, 588, -27, 12, 22, -19, 4, 28, 447, 96,Z
2025-02-19 14:28:12.006,843, 64, 592, 11, -43, -12, -19, 5, 29, 389, 91,Z
2025-02-19 14:28:12.114,798, 50, 618, 3, 1, 18, -18, 5, 30, 729, 95,Z
2025-02-19 14:28:12.226,568, -100, 715, -6, 24, 8, -19, 7, 26, 625, 41,Z
2025-02-19 14:28:13.141,761, -102, 638, -7, -2, 3, -21, 6, 30, 598, 79,a
2025-02-19 14:28:13.236,754, -98, 631, 1, -5, 2, -20, 3, 31, 594, 84,a
2025-02-19 14:28:13.343,866, -41, 689, 5, 3, -11, -21, 4, 32, 592, 104,a
2025-02-19 14:28:13.453,801, -219, 566, 29, 21, -18, -20, 5, 30, 0, 99,a
2025-02-19 14:28:13.564,710, -96, 662, -8, -26, -12, -19, 5, 30, 124, 106,a
2025-02-19 14:28:13.667,711, -213, 584, 5, 17, 10, -21, 5, 29, 316, 102,a
2025-02-19 14:28:13.776,1015, -84, 721, -2, 57, 16, -21, 6, 31, 291, 86,a
2025-02-19 14:28:13.885,643, -200, 682, 8, -17, -16, -20, 6, 28, 376, 51,a
2025-02-19 14:28:14.896,762, -113, 630, -2, 0, -3, -20, 3, 29, 473, 78,b
2025-02-19 14:28:14.994,765, -70, 638, -1, 0, -4, -20, 4, 31, 516, 82,b
2025-02-19 14:28:15.105,733, -85, 625, 6, -3, -14, -20, 2, 28, 519, 94,b
2025-02-19 14:28:15.215,773, -105, 643, -10, -3, -10, -21, 3, 28, 501, 100,b
2025-02-19 14:28:15.316,779, 112, 642, -15, -21, 54, -20, 4, 33, 0, 105,b
2025-02-19 14:28:15.428,849, -133, 528, 38, 17, -42, -20, 2, 28, 430, 100,b
2025-02-19 14:28:15.534,648, 4, 750, -30, -21, 43, -18, 4, 31, 233, 102,b
2025-02-19 14:28:15.637,1149, -6, 611, 4, 56, 21, -20, 6, 31, 87, 83,b
2025-02-19 14:28:15.752,583, -200, 707, 18, -28, -21, -20, 6, 25, 346, 47,b
2025-02-19 14:28:16.566,766, -87, 619, 0, -2, -2, -19, 6, 31, 388, 75,c
2025-02-19 14:28:16.662,750, -108, 622, 0, -7, -2, -19, 4, 30, 424, 81,c
2025-02-19 14:28:16.772,799, -61, 652, -2, -2, -10, -20, 3, 30, 491, 104,c
2025-02-19 14:28:16.878,790, -225, 593, 29, 24, 12, -19, 4, 32, 0, 100,c
2025-02-19 14:28:16.982,700, -96, 634, 29, -22, 11, -18, 7, 30, 397, 104,c
2025-02-19 14:28:17.094,570, -183, 671, -48, 40, 14, -19, 5, 28, 351, 45,c
2025-02-19 14:28:18.012,745, -94, 620, -3, -4, -3, -18, 5, 31, 492, 77,d
2025-02-19 14:28:18.106,760, -92, 616, -1, -9, -5, -19, 5, 30, 528, 92,d
2025-02-19 14:28:18.218,759, -130, 648, -8, 12, -24, -20, 3, 31, 385, 103,d
2025-02-19 14:28:18.316,809, 100, 579, -10, -30, 40, -19, 4, 30, 0, 103,d
2025-02-19 14:28:18.429,709, -307, 647, 10, 7, -51, -18, 3, 31, 746, 102,d
2025-02-19 14:28:18.537,765, 208, 574, -49, -25, 60, -19, 4, 31, 0, 104,d
2025-02-19 14:28:18.638,690, -135, 537, 0, 70, 17, -18, 5, 31, 404, 60,d
2025-02-19 14:28:19.462,725, -65, 647, 2, 1, -4, -19, 4, 30, 460, 75,e
2025-02-19 14:28:19.557,797, -50, 627, 2, -1, -2, -18, 6, 29, 405, 92,e
2025-02-19 14:28:19.662,784, -65, 597, -12, 4, -3, -19, 2, 30, 90, 100,e
2025-02-19 14:28:19.774,697, 17, 649, 6, -25, -1, -19, 3, 30, 230, 102,e
2025-02-19 14:28:19.884,694, -184, 585, -14, 30, -18, -20, 5, 30, 99, 100,e
2025-02-19 14:28:19.986,822, -30, 609, 30, -27, 19, -19, 4, 30, 0, 105,e
2025-02-19 14:28:20.096,600, -60, 621, -46, 57, 30, -19, 7, 29, 297, 46,e
2025-02-19 14:28:21.011,761, -90, 612, 3, 0, 0, -20, 7, 30, 470, 88,f
2025-02-19 14:28:21.110,772, -105, 597, -4, -10, 4, -19, 6, 30, 484, 100,f
2025-02-19 14:28:21.216,758, -34, 583, -5, 32, -49, -18, 5, 30, 0, 107,f
2025-02-19 14:28:21.326,787, -49, 613, 15, -8, -44, -20, 3, 29, 724, 96,f
2025-02-19 14:28:21.432,670, -24, 693, -26, 2, 69, -19, 2, 29, 453, 97,f
2025-02-19 14:28:21.535,844, -76, 519, 13, 6, 0, -20, 2, 27, 0, 97,f
2025-02-19 14:28:21.646,738, -16, 684, 8, -8, 17, -21, 5, 30, 710, 98,f
2025-02-19 14:28:21.756,638, -143, 632, -21, 27, 14, -20, 5, 26, 560, 50,f
2025-02-19 14:28:22.566,763, -55, 623, 2, -2, -1, -19, 5, 29, 612, 81,g
2025-02-19 14:28:22.666,771, -31, 611, 4, -6, -3, -19, 5, 30, 639, 90,g
2025-02-19 14:28:22.776,785, -30, 617, -7, 4, -10, -20, 5, 29, 598, 100,g
2025-02-19 14:28:22.883,928, -15, 567, -17, -21, 58, -20, 3, 29, 0, 98,g
2025-02-19 14:28:22.994,734, -157, 655, 26, 13, -32, -19, 4, 31, 743, 99,g
2025-02-19 14:28:23.099,701, -38, 689, -42, -26, 73, -20, 5, 31, 0, 102,g
2025-02-19 14:28:23.206,993, -67, 595, 56, 46, -26, -20, 8, 30, 182, 97,g
2025-02-19 14:28:23.312,615, -117, 719, -1, 3, -11, -18, 9, 26, 316, 42,g
2025-02-19 14:28:24.028,721, -21, 675, -24, -12, -14, -19, 5, 28, 554, 59,h
2025-02-19 14:28:24.127,777, -9, 634, -25, -8, -4, -21, 5, 29, 576, 79,h
2025-02-19 14:28:24.234,804, -58, 647, -3, 4, -19, -19, 0, 29, 603, 98,h
2025-02-19 14:28:24.342,772, -168, 728, -40, -8, 51, -20, 3, 30, 183, 97,h
2025-02-19 14:28:24.446,809, 27, 558, 19, -5, -58, -21, 4, 31, 0, 102,h
2025-02-19 14:28:24.546,711, 14, 683, -48, -22, 41, -17, 4, 31, 0, 104,h
2025-02-19 14:28:24.661,947, -101, 599, 20, 65, 25, -21, 7, 31, 313, 79,h
2025-02-19 14:28:24.766,641, -210, 653, 9, -9, -6, -20, 7, 28, 421, 45,h
2025-02-19 14:28:25.586,762, -111, 622, 0, 0, -2, -20, 6, 31, 452, 72,i
2025-02-19 14:28:25.684,777, -113, 627, 0, 0, -4, -21, 7, 31, 483, 75,i
2025-02-19 14:28:25.791,770, -115, 613, 3, -3, -2, -20, 6, 31, 574, 81,i
2025-02-19 14:28:25.900,816, -91, 627, 5, -13, -19, -20, 3, 31, 616, 103,i
2025-02-19 14:28:26.007,762, -120, 683, -28, -18, 38, -20, 4, 31, 0, 104,i
2025-02-19 14:28:26.114,827, -37, 565, 58, 33, -44, -19, 8, 33, 439, 103,i
2025-02-19 14:28:26.224,356, -346, 615, 26, -83, -60, -20, 4, 29, 650, 91,i
2025-02-19 14:28:26.327,1020, -132, 669, 12, 36, 23, -19, 3, 31, 646, 91,i
2025-02-19 14:28:26.438,560, -192, 706, 7, -14, -2, -20, 4, 29, 592, 48,i
2025-02-19 14:28:26.540,805, -76, 645, -1, 1, 0, -18, 4, 28, 598, 60,i
2025-02-19 14:28:26.650,742, -87, 643, -2, -5, 2, -19, 5, 30, 556, 59,i
2025-02-19 14:28:26.757,779, -111, 636, 6, -7, 3, -20, 5, 28, 600, 63,i
2025-02-19 14:28:26.860,773, -82, 632, 2, -4, 1, -20, 5, 29, 606, 66,i
2025-02-19 14:28:26.970,767, -96, 634, 3, -3, -3, -20, 6, 30, 612, 68,i
2025-02-19 14:28:27.077,771, -98, 622, -1, -2, 1, -19, 6, 29, 609, 68,i
2025-02-19 14:28:28.296,754, -103, 616, -4, 3, 0, -19, 5, 28, 416, 65,j
2025-02-19 14:28:28.387,769, -70, 625, -1, 1, -1, -20, 5, 30, 443, 64,j
2025-02-19 14:28:28.498,774, -78, 627, -1, 0, 1, -19, 5, 30, 448, 62,j
2025-02-19 14:28:28.609,763, -74, 627, -1, -1, 0, -19, 6, 29, 422, 62,j
2025-02-19 14:28:28.715,766, -96, 627, 0, -1, -1, -18, 6, 31, 480, 62,j
2025-02-19 14:28:28.822,761, -83, 620, 1, -1, -1, -20, 6, 29, 480, 63,j
2025-02-19 14:28:28.927,772, -71, 623, 2, -2, -2, -20, 5, 28, 544, 64,j
2025-02-19 14:28:29.033,779, -75, 634, 4, 4, 12, -19, 4, 30, 725, 60,j
2025-02-19 14:28:29.145,764, -61, 615, 3, -10, -1, -19, 6, 31, 782, 62,j
2025-02-19 14:28:29.252,761, -76, 607, 5, -13, -3, -20, 7, 30, 774, 75,j
2025-02-19 14:28:29.358,816, -27, 583, -1, -2, -5, -20, 4, 30, 765, 92,j
2025-02-19 14:28:29.469,793, -37, 539, 1, -1, -17, -19, 5, 31, 771, 105,j
2025-02-19 14:28:29.576,835, 76, 581, -65, -22, 46, -21, 6, 31, 0, 114,j
2025-02-19 14:28:29.686,592, -176, 496, -45, 26, -64, -19, 4, 31, 461, 70,j
2025-02-19 14:28:29.788,825, -2, 528, 27, 11, 23, -20, 3, 31, 644, 104,j
2025-02-19 14:28:29.899,592, -131, 666, -10, 31, 30, -18, 5, 28, 628, 54,j
2025-02-19 14:28:30.001,873, -6, 594, 12, -23, -9, -18, 4, 29, 598, 76,j
2025-02-19 14:28:31.516,747, -1, 649, 3, 2, -5, -19, 4, 28, 407, 5,k
2025-02-19 14:28:31.609,744, -16, 640, 4, -2, -2, -19, 7, 29, 418, 6,k
2025-02-19 14:28:31.725,752, -1, 656, -25, -9, -2, -19, 4, 27, 518, 5,k
2025-02-19 14:28:31.832,770, -63, 659, -37, -12, -3, -20, 5, 30, 588, 70,k
2025-02-19 14:28:31.942,752, -133, 632, -13, -7, -1, -21, 6, 30, 635, 82,k
2025-02-19 14:28:32.045,757, -103, 615, 3, -3, 0, -20, 3, 29, 694, 86,k
2025-02-19 14:28:32.152,774, -108, 609, 0, -2, 0, -21, 4, 33, 681, 89,k
2025-02-19 14:28:32.263,778, -105, 611, -5, 2, -4, -21, 6, 30, 651, 88,k
2025-02-19 14:28:32.366,780, -141, 596, 3, 3, -13, -20, 3, 30, 589, 90,k
2025-02-19 14:28:32.476,786, -187, 536, 8, 13, -27, -21, 2, 32, 497, 104,k
2025-02-19 14:28:32.582,843, 77, 530, 24, -1, 18, -22, 4, 32, 0, 112,k
2025-02-19 14:28:32.692,1156, -269, 727, 35, 1, -29, -19, 4, 29, 436, 107,k
2025-02-19 14:28:32.798,826, -58, 533, -27, 19, -6, -22, 3, 32, 0, 108,k
2025-02-19 14:28:32.904,712, -54, 633, 7, -22, 18, -21, 6, 31, 0, 115,k
2025-02-19 14:28:33.009,708, -189, 554, 0, 59, 10, -20, 6, 28, 258, 55,k
2025-02-19 14:28:33.926,762, -99, 620, 0, -1, -4, -20, 5, 30, 611, 77,l
2025-02-19 14:28:34.027,757, -64, 625, 3, -2, -8, -20, 5, 31, 673, 83,l
2025-02-19 14:28:34.138,882, -105, 671, -7, 4, -22, -20, 1, 28, 722, 102,l
2025-02-19 14:28:34.244,712, -185, 702, -17, -25, 71, -20, 4, 31, 0, 102,l
2025-02-19 14:28:34.347,841, -91, 610, 27, -11, -2, -20, 5, 32, 0, 108,l
2025-02-19 14:28:34.458,566, -211, 676, -18, 23, 2, -21, 6, 27, 288, 47,l
2025-02-19 14:28:34.559,792, -95, 637, 5, -9, -10, -19, 5, 30, 360, 55,l
2025-02-19 14:28:35.376,768, -88, 626, 0, -2, -3, -18, 6, 31, 597, 73,m
2025-02-19 14:28:35.477,788, -78, 615, 1, -7, -6, -21, 4, 29, 595, 83,m
2025-02-19 14:28:35.584,743, -66, 640, 2, 3, -3, -19, 4, 30, 608, 87,m
2025-02-19 14:28:35.692,793, -72, 552, -14, 6, -9, -19, 5, 29, 387, 101,m
2025-02-19 14:28:35.796,821, 14, 572, 7, -2, 11, -19, 6, 29, 0, 104,m
2025-02-19 14:28:35.909,736, -186, 618, -10, -7, -31, -20, 4, 31, 547, 102,m
2025-02-19 14:28:36.014,822, 25, 598, -2, -13, 21, -18, 2, 31, 0, 107,m
2025-02-19 14:28:36.124,718, -301, 621, 19, -8, -17, -20, 6, 31, 647, 104,m
2025-02-19 14:28:36.231,890, -36, 563, 18, -9, 30, -20, 2, 32, 385, 109,m
2025-02-19 14:28:36.337,518, -226, 673, -11, 26, 12, -18, 10, 30, 570, 44,m
2025-02-19 14:28:37.156,743, -112, 616, 2, 1, -5, -20, 6, 30, 417, 63,n
2025-02-19 14:28:37.250,821, -80, 618, 0, -1, -4, -19, 3, 29, 489, 76,n
2025-02-19 14:28:37.357,769, -99, 633, 1, 5, -3, -20, 5, 30, 377, 73,n
2025-02-19 14:28:37.464,682, -84, 604, 4, -8, -21, -21, 7, 30, 516, 76,n
2025-02-19 14:28:37.574,750, -213, 663, -19, -8, 42, -20, 4, 29, 0, 100,n
2025-02-19 14:28:37.677,853, 3, 531, 48, -2, -67, -20, 7, 32, 0, 103,n
2025-02-19 14:28:37.787,740, 8, 686, -32, -20, 27, -20, 4, 31, 238, 7,n
2025-02-19 14:28:37.894,1125, -34, 477, 34, 43, -5, -19, 4, 31, 497, 95,n
2025-02-19 14:28:38.000,527, -186, 695, -4, 0, 0, -18, 8, 29, 535, 39,n
2025-02-19 14:28:38.818,758, -84, 622, 0, -1, -2, -19, 7, 30, 603, 66,o
2025-02-19 14:28:38.917,764, -109, 639, -1, -7, -1, -20, 2, 29, 599, 74,o
2025-02-19 14:28:39.024,770, -96, 611, 22, -18, -1, -20, 4, 31, 628, 91,o
2025-02-19 14:28:39.131,785, -57, 663, 4, 9, -30, -20, 5, 32, 734, 101,o
2025-02-19 14:28:39.237,942, 85, 549, -8, -17, 60, -18, 4, 28, 118, 93,o
2025-02-19 14:28:39.348,732, -300, 690, 12, -2, -35, -18, 5, 32, 733, 97,o
2025-02-19 14:28:39.454,654, -56, 627, -47, 49, 48, -19, 6, 29, 448, 42,o
2025-02-19 14:28:39.561,666, -116, 675, 23, -30, -19, -18, 7, 26, 597, 7,o
2025-02-19 14:28:40.476,751, -57, 649, 3, -6, -4, -20, 5, 28, 644, 6,p
2025-02-19 14:28:40.573,737, -59, 630, -1, -2, -4, -18, 5, 28, 672, 7,p
2025-02-19 14:28:40.676,765, -15, 639, 1, -1, -9, -19, 4, 29, 662, 6,p
2025-02-19 14:28:40.789,722, -144, 577, -4, 9, -10, -21, 3, 28, 565, 6,p
2025-02-19 14:28:40.896,800, 65, 583, 17, -1, 21, -21, 6, 31, 1, 104,p
2025-02-19 14:28:41.007,844, -159, 552, 27, -1, -45, -21, 3, 28, 743, 95,p
2025-02-19 14:28:41.109,623, 16, 738, -29, 3, 54, -18, 4, 31, 401, 97,p
2025-02-19 14:28:41.216,895, -12, 566, -39, 77, 34, -19, 6, 28, 481, 6,p
2025-02-19 14:28:41.327,561, -119, 664, 17, -41, -20, -18, 7, 25, 565, 6,p
2025-02-19 14:28:42.140,770, -42, 633, 6, -12, -8, -20, 4, 28, 621, 7,q
2025-02-19 14:28:42.239,754, -47, 629, 0, -4, -1, -19, 4, 29, 649, 6,q
2025-02-19 14:28:42.346,759, -25, 621, 1, -3, -1, -20, 5, 29, 646, 7,q
2025-02-19 14:28:42.448,753, 0, 633, 0, 1, -8, -21, 4, 30, 644, 7,q
2025-02-19 14:28:42.554,891, 35, 586, -1, 6, 24, -20, 3, 29, 0, 6,q
2025-02-19 14:28:42.669,688, -105, 684, 18, -1, -35, -20, 4, 31, 679, 7,q
2025-02-19 14:28:42.776,766, -112, 654, -41, -17, 59, -18, 3, 31, 181, 7,q
2025-02-19 14:28:42.886,773, -82, 518, 51, -10, -25, -20, 6, 31, 307, 104,q
2025-02-19 14:28:42.993,631, -124, 649, -39, 60, 32, -20, 8, 28, 579, 44,q
2025-02-19 14:28:43.096,744, -114, 649, 5, -13, -22, -19, 8, 28, 390, 41,q
2025-02-19 14:28:43.915,755, -49, 635, 0, 0, -2, -20, 5, 29, 599, 62,r
2025-02-19 14:28:44.012,715, -84, 658, 6, -11, -10, -20, 5, 30, 626, 69,r
2025-02-19 14:28:44.120,764, -39, 631, -2, 3, -3, -19, 6, 29, 650, 81,r
2025-02-19 14:28:44.226,798, 37, 576, -9, 3, -10, -20, 4, 27, 601, 95,r
2025-02-19 14:28:44.333,796, 122, 604, -5, -10, 15, -20, 7, 29, 1, 99,r
2025-02-19 14:28:44.443,786, -254, 619, 5, -2, -29, -19, 3, 28, 722, 96,r
2025-02-19 14:28:44.550,750, -9, 575, -27, 49, 16, -19, 4, 29, 715, 69,r
2025-02-19 14:28:44.656,731, -42, 649, 4, -8, -6, -18, 5, 28, 658, 53,r
2025-02-19 14:28:44.762,751, -59, 642, 0, 1, 0, -19, 4, 26, 624, 55,r
2025-02-19 14:28:45.576,765, -51, 641, 5, -3, -1, -20, 5, 28, 756, 69,s
2025-02-19 14:28:45.676,754, -55, 634, 0, -3, -1, -19, 4, 31, 776, 74,s
2025-02-19 14:28:45.787,750, -39, 616, 3, -12, -1, -19, 4, 29, 784, 82,s
2025-02-19 14:28:45.893,727, -47, 669, -7, 4, -10, -22, 3, 30, 758, 98,s
2025-02-19 14:28:46.004,965, -48, 651, -12, -13, 43, -19, 4, 31, 524, 96,s
2025-02-19 14:28:46.106,752, -59, 629, 5, 7, 15, -19, 5, 29, 404, 103,s
2025-02-19 14:28:46.216,642, -36, 601, -28, 66, 25, -19, 6, 27, 379, 49,s
2025-02-19 14:28:46.323,629, -125, 688, 7, -27, -21, -19, 8, 27, 497, 39,s
2025-02-19 14:28:47.142,713, -2, 667, -33, -7, -13, -20, 6, 28, 462, 55,t
2025-02-19 14:28:47.241,743, -61, 650, -40, -9, -11, -21, 5, 28, 572, 63,t
2025-02-19 14:28:47.347,797, -33, 644, -12, -7, -11, -20, 4, 29, 612, 80,t
2025-02-19 14:28:47.453,733, -142, 653, -6, -14, -29, -20, 4, 30, 667, 97,t
2025-02-19 14:28:47.561,795, -147, 683, -3, -4, 64, -21, 3, 30, 0, 92,t
2025-02-19 14:28:47.671,675, -114, 678, 22, -5, -33, -18, 4, 30, 222, 102,t
2025-02-19 14:28:47.773,976, -7, 761, 26, 30, -27, -21, 4, 28, 0, 99,t
2025-02-19 14:28:47.884,692, -105, 675, 8, -18, 11, -20, 3, 29, 411, 102,t
2025-02-19 14:28:47.988,663, -140, 623, -20, 41, 16, -21, 5, 29, 268, 54,t
2025-02-19 14:28:48.907,742, -94, 645, -1, -2, 1, -20, 4, 28, 510, 64,u
2025-02-19 14:28:49.002,738, -79, 642, -5, -1, 1, -21, 6, 31, 481, 66,u
2025-02-19 14:28:49.112,697, -95, 640, -16, 0, -10, -19, 4, 30, 291, 67,u
2025-02-19 14:28:49.219,715, -176, 752, 12, -3, -22, -19, 4, 30, 0, 101,u
2025-02-19 14:28:49.325,851, 99, 668, -6, -28, 35, -20, 5, 31, 0, 104,u
2025-02-19 14:28:49.432,773, -245, 595, 0, 6, -21, -19, 2, 29, 464, 104,u
2025-02-19 14:28:49.538,856, 64, 575, 4, -13, 28, -20, 6, 32, 0, 105,u
2025-02-19 14:28:49.649,607, -230, 633, -20, 44, 17, -21, 8, 29, 355, 43,u
2025-02-19 14:28:50.566,747, -111, 638, 1, -1, -2, -20, 6, 29, 259, 59,v
2025-02-19 14:28:50.660,704, -152, 657, 7, -12, -7, -21, 4, 27, 352, 63,v
2025-02-19 14:28:50.771,768, -60, 611, 15, -5, -17, -20, 6, 30, 436, 87,v
2025-02-19 14:28:50.878,761, -204, 621, -14, 2, -6, -20, 1, 27, 292, 99,v
2025-02-19 14:28:50.980,760, 98, 619, 5, -10, 18, -22, 5, 30, 0, 105,v
2025-02-19 14:28:51.087,783, -102, 647, 25, 6, -9, -19, 4, 32, 569, 103,v
2025-02-19 14:28:51.201,575, -183, 655, -12, 20, 17, -18, 6, 27, 319, 50,v
2025-02-19 14:28:51.304,838, -68, 635, 6, -7, -8, -20, 5, 31, 359, 61,v
2025-02-19 14:28:52.316,739, -93, 635, 2, 1, -2, -21, 4, 30, 486, 67,w
2025-02-19 14:28:52.418,720, -76, 647, -2, 2, -6, -20, 5, 28, 428, 71,w
2025-02-19 14:28:52.525,807, 3, 575, 13, 15, -12, -22, 3, 29, 0, 98,w
2025-02-19 14:28:52.630,797, -149, 650, -11, 3, 9, -20, 2, 28, 0, 95,w
2025-02-19 14:28:52.741,826, 1, 591, 5, -18, -13, -21, 5, 29, 0, 102,w
2025-02-19 14:28:52.848,789, -109, 614, 15, 2, -9, -20, 3, 29, 485, 99,w
2025-02-19 14:28:52.958,828, -59, 532, 14, -17, -30, -20, 6, 29, 1, 106,w
2025-02-19 14:28:53.065,835, -11, 576, -44, 60, 49, -19, 6, 30, 482, 67,w
2025-02-19 14:28:53.172,680, -119, 657, 5, -15, -7, -18, 7, 29, 197, 44,w
2025-02-19 14:28:53.278,799, -95, 623, -2, -2, -5, -18, 6, 30, 258, 56,w
2025-02-19 14:28:53.384,785, -107, 641, 0, -3, -4, -19, 7, 29, 285, 58,w
2025-02-19 14:28:53.491,756, -125, 634, 0, -3, -1, -20, 7, 31, 335, 60,w
2025-02-19 14:28:53.601,772, -108, 625, 0, -2, -2, -18, 6, 29, 346, 64,w
2025-02-19 14:28:53.708,776, -102, 618, -1, -1, -1, -19, 7, 30, 362, 66,w
2025-02-19 14:28:53.806,768, -98, 623, -1, 0, -1, -18, 4, 31, 358, 66,w
2025-02-19 14:28:53.921,748, -99, 625, -1, -1, -1, -19, 5, 29, 272, 65,w
2025-02-19 14:28:54.026,760, -98, 618, -1, 1, -1, -20, 7, 32, 256, 65,w
2025-02-19 14:28:54.138,760, -100, 616, -1, -1, 0, -19, 6, 28, 261, 66,w
2025-02-19 14:28:54.241,769, -91, 625, 1, -1, -1, -18, 5, 30, 264, 67,w
2025-02-19 14:28:54.346,769, -91, 622, 0, -1, 0, -20, 6, 30, 266, 67,w
2025-02-19 14:28:54.456,769, -95, 621, 0, -1, -1, -20, 5, 29, 280, 67,w
2025-02-19 14:28:54.556,772, -101, 622, 0, -2, -1, -19, 7, 30, 288, 67,w
2025-02-19 14:28:55.486,777, -79, 623, -2, -1, 0, -21, 4, 32, 655, 74,x
2025-02-19 14:28:55.580,783, -81, 622, -2, -4, 0, -20, 4, 29, 679, 77,x
2025-02-19 14:28:55.686,803, -58, 616, 7, -20, -9, -20, 3, 31, 680, 97,x
2025-02-19 14:28:55.797,737, -117, 628, 4, -2, -1, -20, 5, 31, 720, 102,x
2025-02-19 14:28:55.903,792, -68, 597, 1, -1, -1, -18, 5, 30, 721, 103,x
2025-02-19 14:28:56.010,797, -69, 597, 0, -1, -2, -21, 4, 30, 725, 103,x
2025-02-19 14:28:56.120,697, -164, 680, -3, 14, -14, -21, 5, 31, 432, 106,x
2025-02-19 14:28:56.222,813, 31, 547, -21, 9, 32, -20, 6, 31, 0, 104,x
2025-02-19 14:28:56.329,562, -156, 708, 31, 6, -27, -21, 1, 31, 97, 99,x
2025-02-19 14:28:56.436,754, 24, 646, -2, -33, 39, -20, 6, 31, 0, 111,x
2025-02-19 14:28:56.546,671, -186, 588, -8, 65, 13, -19, 5, 29, 424, 51,x
2025-02-19 14:28:56.653,707, -119, 655, 12, -16, -9, -17, 6, 28, 342, 45,x
2025-02-19 14:28:57.575,722, -104, 648, -24, -11, -1, -20, 5, 27, 674, 62,y
2025-02-19 14:28:57.669,762, -137, 625, -7, -10, -4, -22, 5, 29, 671, 74,y
2025-02-19 14:28:57.776,732, -100, 638, -7, 3, -6, -20, 4, 29, 632, 79,y
2025-02-19 14:28:57.883,797, -95, 496, -8, 4, -4, -20, 3, 29, 456, 101,y
2025-02-19 14:28:57.986,790, -128, 675, -3, -13, 42, -19, 5, 31, 84, 100,y
2025-02-19 14:28:58.095,863, -82, 645, 18, 15, -8, -20, 5, 29, 660, 97,y
2025-02-19 14:28:58.206,833, -135, 465, 11, 9, -1, -17, 3, 30, 665, 101,y
2025-02-19 14:28:58.306,788, -26, 549, -51, -19, 39, -20, 5, 32, 0, 115,y
2025-02-19 14:28:58.419,538, -151, 578, -3, 64, 25, -20, 7, 26, 0, 52,y
2025-02-19 14:28:58.526,731, -147, 671, 11, -27, -15, -20, 8, 27, 203, 50,y
2025-02-19 14:28:59.343,747, -146, 636, -3, 0, -3, -20, 7, 31, 369, 58,z
2025-02-19 14:28:59.443,742, -139, 636, -2, -4, 1, -18, 3, 29, 433, 61,z
2025-02-19 14:28:59.548,750, -136, 632, -6, 0, -3, -19, 5, 29, 435, 64,z
2025-02-19 14:28:59.654,764, -129, 611, 8, -4, -3, -20, 6, 31, 529, 68,z
2025-02-19 14:28:59.761,770, -95, 642, 14, -2, 0, -19, 4, 29, 729, 74,z
2025-02-19 14:28:59.869,734, -150, 645, -11, 0, -7, -20, 5, 29, 647, 72,z
2025-02-19 14:28:59.974,803, -77, 608, 6, -1, 2, -20, 5, 31, 666, 81,z
2025-02-19 14:29:00.082,764, -73, 625, 1, 2, -3, -19, 5, 29, 740, 83,z
2025-02-19 14:29:00.187,764, -81, 632, -15, 10, -16, -19, 4, 28, 638, 83,z
2025-02-19 14:29:00.298,773, -29, 559, 67, 14, -7, -18, 6, 30, 502, 97,z
2025-02-19 14:29:00.406,656, -27, 721, -26, -7, 47, -19, 2, 29, 658, 99,z
2025-02-19 14:29:00.505,1130, -82, 562, 58, -25, -7, -19, 5, 29, 0, 7,z
2025-02-19 14:29:00.618,905, -70, 601, -10, 60, -16, -19, 5, 31, 514, 7,z
2025-02-19 14:29:00.729,929, 133, 682, 57, -31, -4, -17, 3, 28, 518, 6,z
2025-02-19 14:29:00.835,1045, 39, 617, -16, 27, 31, -20, 6, 32, 696, 90,z
2025-02-19 14:29:01.846,763, -83, 670, -6, 9, -4, -19, 4, 29, 659, 51,0
2025-02-19 14:29:01.949,802, -8, 629, 10, -13, 1, -21, 2, 28, 683, 62,0
2025-02-19 14:29:02.056,767, -37, 631, 1, -10, 3, -20, 4, 29, 697, 69,0
2025-02-19 14:29:02.166,625, -49, 641, 8, -19, -12, -18, 3, 31, 755, 80,0
2025-02-19 14:29:02.272,709, -93, 642, 7, 21, -31, -20, 3, 28, 620, 99,0
2025-02-19 14:29:02.379,937, 327, 519, -16, -42, 45, -20, 5, 29, 0, 101,0
2025-02-19 14:29:02.486,719, 69, 507, 8, 26, -37, -18, 1, 30, 701, 97,0
2025-02-19 14:29:02.592,617, 40, 596, -50, 53, 58, -18, 4, 28, 379, 5,0
2025-02-19 14:29:03.516,689, -78, 712, 10, -17, -28, -20, 5, 28, 723, 53,1
2025-02-19 14:29:03.607,816, -18, 667, -2, -8, -9, -19, 2, 29, 776, 73,1
2025-02-19 14:29:03.714,726, -33, 651, 1, -4, -8, -21, 3, 29, 777, 82,1
2025-02-19 14:29:03.818,936, 73, 578, 38, -1, -15, -20, 4, 29, 724, 100,1
2025-02-19 14:29:03.926,896, -145, 720, 1, -16, 35, -19, 0, 29, 832, 95,1
2025-02-19 14:29:04.038,864, -48, 708, 3, 31, 28, -20, 5, 30, 783, 99,1
2025-02-19 14:29:04.145,759, -16, 620, 37, 10, -5, -21, 4, 29, 202, 103,1
2025-02-19 14:29:04.251,764, 17, 656, 13, -3, 10, -19, 2, 31, 751, 102,1
2025-02-19 14:29:04.361,603, -160, 685, -18, 34, 3, -20, 7, 29, 664, 47,1
2025-02-19 14:29:05.275,771, -68, 652, 4, -4, -3, -21, 2, 31, 449, 80,2
2025-02-19 14:29:05.377,703, -59, 637, 9, -11, -13, -20, 1, 30, 373, 100,2
2025-02-19 14:29:05.484,914, -21, 618, 20, -21, -23, -21, 1, 29, 572, 101,2
2025-02-19 14:29:05.590,674, -94, 687, -16, 3, 61, -19, 3, 31, 444, 102,2
2025-02-19 14:29:05.696,1134, -8, 551, 51, -25, -25, -19, 2, 28, 0, 103,2
2025-02-19 14:29:05.806,771, -34, 688, -24, -9, 25, -20, 5, 30, 554, 102,2
2025-02-19 14:29:05.910,620, -133, 666, -8, 17, 3, -19, 7, 29, 412, 46,2
2025-02-19 14:29:06.826,727, -12, 642, 2, 1, -8, -20, 1, 29, 719, 79,3
2025-02-19 14:29:06.926,884, 18, 676, -9, -1, -16, -20, 1, 31, 517, 99,3
2025-02-19 14:29:07.032,605, -27, 757, 16, -12, 6, -18, 1, 29, 798, 97,3
2025-02-19 14:29:07.138,878, 44, 465, -2, 12, -3, -19, 2, 28, 402, 100,3
2025-02-19 14:29:07.250,683, -52, 715, -24, -11, 37, -19, 3, 31, 276, 101,3
2025-02-19 14:29:07.356,1112, -2, 695, -13, 57, 24, -17, 5, 29, 276, 79,3
2025-02-19 14:29:07.467,542, -164, 702, 13, -18, -24, -19, 6, 28, 377, 44,3
2025-02-19 14:29:08.176,741, -19, 645, 2, -6, -5, -20, 2, 29, 686, 73,4
2025-02-19 14:29:08.277,783, 18, 630, -1, -2, -4, -19, 2, 30, 704, 82,4
2025-02-19 14:29:08.384,722, -11, 619, 8, -13, -15, -21, 3, 30, 741, 90,4
2025-02-19 14:29:08.490,723, -131, 700, 9, 11, 3, -18, 2, 28, 680, 96,4
2025-02-19 14:29:08.596,846, -132, 580, 61, 3, 3, -19, 0, 29, 0, 98,4
2025-02-19 14:29:08.707,760, 117, 666, -8, -12, 25, -19, 4, 30, 745, 97,4
2025-02-19 14:29:08.815,545, -168, 677, 21, -48, -36, -20, 0, 28, 789, 96,4
2025-02-19 14:29:08.920,784, 156, 571, -12, -10, 47, -19, 2, 29, 2, 104,4
2025-02-19 14:29:09.031,577, -161, 659, -24, 48, 8, -19, 6, 27, 561, 49,4
2025-02-19 14:29:09.846,761, -15, 640, 1, -1, -3, -20, 1, 27, 748, 82,5
2025-02-19 14:29:09.941,775, 2, 638, 0, 1, -5, -19, 0, 29, 748, 85,5
2025-02-19 14:29:10.046,745, 1, 654, -2, 2, -4, -20, 4, 29, 729, 84,5
2025-02-19 14:29:10.156,805, -18, 659, -4, 3, -22, -21, 0, 28, 440, 97,5
2025-02-19 14:29:10.264,697, 38, 681, 17, -10, 3, -20, 1, 29, 832, 97,5
2025-02-19 14:29:10.374,611, -55, 526, -27, 8, -10, -18, 1, 31, 581, 84,5
2025-02-19 14:29:10.481,758, 150, 609, -1, -6, 19, -19, 2, 26, 480, 96,5
2025-02-19 14:29:10.586,642, -25, 761, -5, -5, -5, -19, 2, 27, 745, 96,5
2025-02-19 14:29:10.693,853, -73, 507, 5, 18, 12, -20, 3, 31, 0, 102,5
2025-02-19 14:29:10.800,600, -95, 707, -8, 15, -1, -19, 3, 26, 423, 51,5
2025-02-19 14:29:11.721,750, 9, 629, -4, -4, -4, -20, -1, 28, 738, 79,6
2025-02-19 14:29:11.816,740, 0, 618, 4, -13, -11, -19, 1, 31, 780, 93,6
2025-02-19 14:29:11.922,752, -9, 646, -1, 6, -12, -21, -1, 28, 730, 98,6
2025-02-19 14:29:12.028,966, 46, 520, 18, -8, 88, -19, 2, 29, 219, 94,6
2025-02-19 14:29:12.134,662, -50, 714, 18, 6, -44, -19, 3, 29, 732, 99,6
2025-02-19 14:29:12.246,955, 94, 623, -41, 41, 29, -20, 2, 27, 554, 74,6
2025-02-19 14:29:12.352,547, -76, 706, -1, -7, -11, -18, 4, 27, 578, 41,6
2025-02-19 14:29:13.266,746, 38, 648, -2, 5, 0, -20, 0, 29, 644, 87,7
2025-02-19 14:29:13.364,733, 25, 625, 3, -3, -15, -20, 0, 30, 490, 95,7
2025-02-19 14:29:13.474,730, 135, 650, 22, -20, 15, -18, 1, 29, 802, 88,7
2025-02-19 14:29:13.580,768, 22, 671, -19, 7, 76, -18, 1, 29, 574, 91,7
2025-02-19 14:29:13.688,796, 39, 645, 9, 47, -42, -20, 5, 29, 684, 90,7
2025-02-19 14:29:13.798,1152, 121, 560, 64, -27, -18, -20, 2, 28, 522, 94,7
2025-02-19 14:29:13.905,920, 89, 676, -29, 34, 23, -18, 2, 29, 789, 89,7
2025-02-19 14:29:14.011,677, 8, 662, 16, -25, -8, -19, 3, 28, 685, 61,7
2025-02-19 14:29:14.726,754, 4, 615, 5, -11, 3, -19, 4, 29, 668, 87,8
2025-02-19 14:29:14.822,801, 15, 623, -3, 4, -9, -18, 2, 27, 710, 98,8
2025-02-19 14:29:14.932,803, -82, 576, 0, 19, -16, -20, 3, 29, 357, 97,8
2025-02-19 14:29:15.040,770, 148, 612, 2, -23, 14, -19, 4, 29, 278, 100,8
2025-02-19 14:29:15.149,893, -86, 508, 13, -2, -35, -18, -1, 29, 787, 91,8
2025-02-19 14:29:15.252,654, 75, 729, -34, 7, 59, -20, 3, 30, 511, 93,8
2025-02-19 14:29:15.363,840, 59, 549, -37, 65, 41, -20, 3, 31, 556, 63,8
2025-02-19 14:29:16.280,794, 45, 616, 5, -5, -3, -20, 1, 29, 707, 82,9
2025-02-19 14:29:16.374,711, 67, 612, 3, -10, -10, -19, 1, 29, 759, 87,9
2025-02-19 14:29:16.485,712, 28, 633, -9, 12, -29, -20, 1, 30, 665, 95,9
2025-02-19 14:29:16.592,747, 273, 555, 0, -19, 42, -19, 1, 29, 370, 95,9
2025-02-19 14:29:16.698,688, -51, 563, 24, -3, -25, -19, 1, 29, 829, 90,9
2025-02-19 14:29:16.805,664, 212, 682, -43, -17, 87, -20, 1, 30, 85, 98,9
2025-02-19 14:29:16.914,1042, 15, 529, -24, 90, 36, -20, 5, 27, 377, 65,9
2025-02-19 14:29:17.022,514, -147, 691, 11, -20, 3, -17, 7, 26, 217, 36,9
