Timestamp,Acc_X,Acc_Y,Acc_Z,Gyro_X,Gyro_Y,Gyro_Z,Mag_X,Mag_Y,Mag_Z,Force,IR_A,Letter
2025-02-19 15:36:04.569,370, -24, 942, 21, 6, -10, -3, 1, 0, 0, 11,noise
2025-02-19 15:36:04.660,358, 2, 939, 20, 6, -5, -2, 2, -3, 0, 12,noise
2025-02-19 15:36:04.770,364, 61, 933, 21, -3, 0, -1, 2, -2, 0, 12,noise
2025-02-19 15:36:04.869,359, 49, 920, -13, -12, 3, -2, 1, -1, 0, 12,noise
2025-02-19 15:36:04.987,367, 46, 903, -8, -10, -2, -4, 1, -1, 0, 11,noise
2025-02-19 15:36:05.090,401, 30, 918, -13, -17, 1, -3, 1, 0, 0, 12,noise
2025-02-19 15:36:05.200,465, -20, 897, -19, -14, 6, -3, 1, 1, 0, 11,noise
2025-02-19 15:36:05.307,466, -11, 837, -31, -24, 10, -6, 4, 4, 0, 11,noise
2025-02-19 15:36:05.415,476, -219, 914, -98, -22, -52, -4, 6, 6, 0, 10,noise
2025-02-19 15:36:05.519,593, -189, 872, 8, 1, 20, -4, 6, 7, 138, 11,noise
2025-02-19 15:36:05.629,495, -204, 826, 49, 13, 31, -4, 7, 7, 0, 10,noise
2025-02-19 15:36:05.732,407, -148, 870, 18, -6, 5, -2, 7, 4, 0, 10,noise
2025-02-19 15:36:05.842,467, -132, 856, 15, -13, -12, -4, 7, 4, 0, 9,noise
2025-02-19 15:36:05.949,512, -89, 837, 3, -15, -9, -4, 6, 6, 0, 9,noise
2025-02-19 15:36:06.050,548, -71, 832, 0, -10, -4, -4, 5, 4, 0, 9,noise
2025-02-19 15:36:06.160,546, -80, 834, -2, -3, 0, -5, 5, 5, 0, 10,noise
2025-02-19 15:36:06.269,549, -76, 831, -2, -3, -2, -3, 4, 5, 0, 12,noise
2025-02-19 15:36:06.369,545, -59, 821, -6, -1, 1, -5, 6, 3, 0, 28,noise
2025-02-19 15:36:06.483,555, -80, 835, -3, 2, 0, -5, 5, 5, 0, 34,noise
2025-02-19 15:36:06.589,534, -74, 839, 0, 2, -1, -4, 6, 6, 0, 15,noise
2025-02-19 15:36:06.692,525, -73, 820, -2, 0, 0, -5, 6, 5, 0, 24,noise
2025-02-19 15:36:06.799,524, -79, 839, -2, -1, -1, -5, 6, 5, 0, 21,noise
2025-02-19 15:36:06.909,538, -88, 839, 4, 0, -3, -4, 5, 6, 0, 17,noise
2025-02-19 15:36:07.017,541, -54, 830, -5, -2, 0, -5, 4, 5, 0, 19,noise
2025-02-19 15:36:07.125,471, -232, 891, 29, -5, 1, -4, 6, 7, 0, 27,noise
2025-02-19 15:36:07.232,532, -68, 859, 3, 1, 1, -5, 5, 7, 1, 73,noise
2025-02-19 15:36:07.342,538, -83, 835, -1, -1, -1, -2, 6, 5, 0, 71,noise
2025-02-19 15:36:07.449,531, -89, 846, -1, -11, 6, -5, 5, 7, 0, 95,noise
2025-02-19 15:36:07.551,537, -84, 821, 2, 0, -3, -4, 5, 5, 0, 93,noise
2025-02-19 15:36:07.649,550, -83, 830, 1, 1, -1, -3, 5, 6, 3, 89,noise
2025-02-19 15:36:07.765,543, -84, 827, -2, 0, -1, -5, 6, 6, 0, 83,noise
2025-02-19 15:36:07.875,551, -91, 830, -2, 2, -2, -3, 5, 5, 1, 85,noise
2025-02-19 15:36:07.981,553, -79, 836, 1, 0, 0, -5, 6, 5, 0, 77,noise
2025-02-19 15:36:10.204,727, -74, 655, -26, -1, -14, -6, 1, 16, 790, 71,A
2025-02-19 15:36:10.301,763, -97, 647, -4, 3, -8, -8, 0, 14, 802, 80,A
2025-02-19 15:36:10.399,763, -71, 644, 2, -3, -6, -9, 0, 17, 827, 87,A
2025-02-19 15:36:10.509,719, -61, 631, 2, -3, -15, -8, 0, 16, 843, 91,A
2025-02-19 15:36:10.619,773, -47, 630, -6, -2, -7, -8, -2, 16, 846, 105,A
2025-02-19 15:36:10.730,643, -385, 688, 39, 13, 32, -8, -2, 19, 768, 111,A
2025-02-19 15:36:10.831,887, 21, 658, -25, -15, 26, -7, 0, 17, 777, 108,A
2025-02-19 15:36:10.947,745, -122, 643, 8, -3, -20, -8, -1, 18, 829, 111,A
2025-02-19 15:36:11.049,735, 26, 600, 12, -23, 80, -7, -1, 18, 791, 108,A
2025-02-19 15:36:11.159,764, -75, 698, -32, 66, -29, -7, 1, 16, 811, 88,A
2025-02-19 15:36:11.269,1132, 62, 626, 74, -34, -8, -8, -3, 17, 713, 112,A
2025-02-19 15:36:11.369,786, 67, 615, -18, 3, 15, -8, -1, 18, 870, 106,A
2025-02-19 15:36:11.480,671, -99, 685, -19, 57, 24, -8, 2, 15, 759, 49,A
2025-02-19 15:36:11.590,624, -120, 606, -6, -40, -12, -8, 3, 14, 503, 38,A
2025-02-19 15:36:12.304,764, -21, 658, -5, -1, -4, -8, -3, 15, 759, 88,B
2025-02-19 15:36:12.399,771, -27, 658, 3, -6, -6, -9, -2, 19, 765, 96,B
2025-02-19 15:36:12.511,740, -32, 644, -1, -3, -5, -8, -2, 17, 769, 100,B
2025-02-19 15:36:12.619,760, -53, 633, -12, -4, -16, -8, -1, 15, 732, 104,B
2025-02-19 15:36:12.728,813, 271, 584, -19, -19, 57, -7, 1, 20, 570, 104,B
2025-02-19 15:36:12.836,694, -105, 656, -15, 24, -57, -8, -1, 18, 779, 96,B
2025-02-19 15:36:12.937,691, 21, 676, 7, -19, 6, -9, -3, 18, 844, 100,B
2025-02-19 15:36:13.048,900, 142, 521, -5, 9, 13, -7, -2, 17, 754, 105,B
2025-02-19 15:36:13.155,575, -60, 796, 22, -22, 20, -7, 0, 17, 834, 101,B
2025-02-19 15:36:13.259,807, 32, 518, -36, 35, 5, -7, 2, 17, 621, 104,B
2025-02-19 15:36:13.367,573, -69, 638, -33, 27, -9, -8, 3, 17, 775, 53,B
2025-02-19 15:36:13.474,858, 2, 646, 15, -28, -25, -8, 1, 16, 806, 69,B
2025-02-19 15:36:14.790,784, -21, 615, -3, 0, -1, -8, 0, 19, 829, 92,C
2025-02-19 15:36:14.891,784, -20, 618, -2, -1, -2, -9, -2, 17, 832, 90,C
2025-02-19 15:36:14.997,774, -24, 614, 0, -2, -2, -7, -2, 17, 839, 89,C
2025-02-19 15:36:15.099,969, -56, 656, 18, -3, -10, -9, -1, 18, 865, 100,C
2025-02-19 15:36:15.211,770, -5, 604, 3, 1, -22, -7, -2, 19, 845, 103,C
2025-02-19 15:36:15.313,877, 80, 572, 12, 11, 57, -6, -3, 15, 741, 98,C
2025-02-19 15:36:15.427,759, 60, 666, 29, -16, 18, -7, 1, 17, 848, 97,C
2025-02-19 15:36:15.534,758, 42, 570, -41, 60, 14, -6, 1, 14, 854, 59,C
2025-02-19 15:36:15.645,682, -26, 673, -13, -18, -11, -6, 2, 13, 802, 44,C
2025-02-19 15:36:16.659,772, -44, 681, 11, -26, -17, -8, 3, 16, 710, 61,D
2025-02-19 15:36:16.754,752, -59, 654, -8, 7, 1, -10, 0, 17, 730, 70,D
2025-02-19 15:36:16.861,750, -63, 656, -4, -3, 1, -7, 1, 17, 740, 69,D
2025-02-19 15:36:16.963,770, -68, 651, -4, -3, -2, -8, 0, 17, 760, 75,D
2025-02-19 15:36:17.078,785, -60, 639, -5, -3, 10, -7, 1, 17, 818, 76,D
2025-02-19 15:36:17.180,668, -140, 688, -1, -5, -5, -8, 2, 17, 840, 67,D
2025-02-19 15:36:17.289,822, -41, 607, -11, 12, -4, -8, -1, 17, 839, 77,D
2025-02-19 15:36:17.398,672, -128, 668, -7, 0, -25, -9, 2, 16, 833, 64,D
2025-02-19 15:36:17.507,770, -43, 637, -3, -4, -2, -9, -1, 15, 828, 78,D
2025-02-19 15:36:17.613,756, -56, 670, 13, -3, -20, -9, -1, 17, 821, 92,D
2025-02-19 15:36:17.721,752, -250, 590, 21, 6, -48, -8, -3, 17, 786, 94,D
2025-02-19 15:36:17.827,860, 43, 672, -11, -1, 37, -9, 0, 17, 800, 99,D
2025-02-19 15:36:17.938,819, -115, 598, 19, -8, -38, -8, -2, 16, 795, 94,D
2025-02-19 15:36:18.044,683, -25, 729, -4, -5, 62, -8, -2, 18, 822, 93,D
2025-02-19 15:36:18.151,836, -121, 582, 19, 21, 5, -6, -1, 18, 675, 96,D
2025-02-19 15:36:18.249,682, -71, 696, -13, 2, -3, -7, -1, 16, 788, 68,D
2025-02-19 15:36:19.174,753, -6, 650, -2, 0, -1, -6, -2, 18, 829, 91,E
2025-02-19 15:36:19.269,741, -19, 648, -2, 2, -2, -7, -3, 16, 828, 84,E
2025-02-19 15:36:19.369,756, -2, 642, -5, -5, -8, -8, -1, 17, 818, 89,E
2025-02-19 15:36:19.486,757, -17, 645, 1, -1, -3, -8, -3, 17, 804, 93,E
2025-02-19 15:36:19.589,757, -71, 625, 9, -4, -17, -6, -3, 16, 775, 94,E
2025-02-19 15:36:19.703,821, 306, 527, -3, -11, 49, -7, -1, 18, 680, 96,E
2025-02-19 15:36:19.809,590, -64, 597, -39, 33, -51, -7, 0, 16, 844, 73,E
2025-02-19 15:36:19.915,974, 108, 577, 90, -9, -22, -6, -3, 16, 736, 91,E
2025-02-19 15:36:20.020,751, 6, 641, -14, -2, 5, -8, -2, 17, 895, 89,E
2025-02-19 15:36:20.132,664, -57, 486, 38, -52, -13, -6, -3, 16, 797, 92,E
2025-02-19 15:36:20.238,724, 91, 640, 20, -18, 14, -7, -2, 16, 885, 85,E
2025-02-19 15:36:20.343,640, -18, 520, -41, 14, 9, -7, -1, 16, 806, 84,E
2025-02-19 15:36:20.449,722, 61, 608, 28, -25, 19, -6, -1, 15, 877, 88,E
2025-02-19 15:36:20.559,672, -43, 554, -40, 54, -3, -7, 2, 16, 832, 58,E
2025-02-19 15:36:20.666,812, 17, 642, 3, -12, -21, -7, 1, 16, 819, 59,E
2025-02-19 15:36:21.885,759, 14, 640, -12, -4, -4, -7, -1, 17, 814, 77,F
2025-02-19 15:36:21.981,761, 27, 639, -5, -1, -11, -8, -1, 16, 819, 79,F
2025-02-19 15:36:22.087,797, -27, 634, 1, -6, -13, -8, -2, 17, 825, 92,F
2025-02-19 15:36:22.194,751, 113, 664, 20, -11, 69, -9, -3, 17, 803, 94,F
2025-02-19 15:36:22.304,756, 75, 626, -10, -2, -12, -6, 2, 17, 853, 94,F
2025-02-19 15:36:22.411,806, -141, 594, 12, -4, -26, -7, -3, 17, 788, 94,F
2025-02-19 15:36:22.518,701, 117, 673, 23, -9, 17, -6, -2, 17, 911, 87,F
2025-02-19 15:36:22.624,678, 79, 402, -45, 26, -2, -7, -1, 17, 834, 77,F
2025-02-19 15:36:22.729,751, 195, 601, 41, -23, 20, -8, -2, 17, 900, 85,F
2025-02-19 15:36:22.839,972, 169, 587, -57, 70, 8, -7, -1, 18, 865, 69,F
2025-02-19 15:36:23.959,782, 44, 620, -1, -1, -2, -7, -1, 17, 859, 84,G
2025-02-19 15:36:24.319,777, 49, 618, -1, 0, -3, -6, 0, 18, 867, 81,G
2025-02-19 15:36:24.319,781, 43, 611, 6, -8, 0, -7, -2, 17, 881, 87,G
2025-02-19 15:36:24.328,750, 22, 661, 0, -5, -26, -6, -2, 18, 864, 90,G
2025-02-19 15:36:24.369,948, 253, 490, 3, -7, 75, -8, -1, 16, 826, 90,G
2025-02-19 15:36:24.483,695, -94, 679, -7, -5, -28, -7, -1, 16, 898, 86,G
2025-02-19 15:36:24.579,824, 187, 544, -2, 0, 41, -6, 0, 17, 883, 89,G
2025-02-19 15:36:24.699,597, -251, 567, -6, -45, -44, -8, 1, 17, 855, 86,G
2025-02-19 15:36:24.799,743, 133, 661, 25, -16, 22, -6, 0, 16, 921, 86,G
2025-02-19 15:36:24.909,912, 51, 579, -31, 42, 7, -6, -2, 14, 882, 73,G
2025-02-19 15:36:25.010,759, 66, 613, 1, -8, -5, -7, 1, 17, 872, 62,G
2025-02-19 15:36:25.119,792, 54, 611, -8, 2, -1, -8, 0, 16, 863, 65,G
2025-02-19 15:36:25.943,769, 63, 625, -2, -1, -2, -6, -1, 15, 811, 76,H
2025-02-19 15:36:26.040,755, 67, 621, -2, -1, -4, -6, -3, 18, 805, 80,H
2025-02-19 15:36:26.147,775, 62, 619, -4, 1, -3, -8, -1, 16, 798, 84,H
2025-02-19 15:36:26.249,775, -13, 596, -1, -7, -16, -8, -2, 15, 784, 90,H
2025-02-19 15:36:26.361,809, 240, 544, -1, -2, 48, -6, -1, 16, 752, 92,H
2025-02-19 15:36:26.470,606, -8, 613, -35, 10, -39, -8, -1, 16, 774, 79,H
2025-02-19 15:36:26.577,773, 182, 571, 25, -18, 29, -8, -2, 16, 875, 84,H
2025-02-19 15:36:26.687,597, -87, 612, -18, -3, -49, -4, -5, 17, 860, 70,H
2025-02-19 15:36:26.790,762, 132, 609, 1, 0, 80, -6, -1, 16, 851, 85,H
2025-02-19 15:36:26.899,1038, 44, 639, -8, 41, -15, -6, 2, 16, 847, 79,H
2025-02-19 15:36:26.999,524, -96, 745, -7, -13, -25, -7, -2, 15, 819, 41,H
2025-02-19 15:36:27.110,842, 83, 609, -1, -1, -4, -7, -2, 17, 808, 61,H
2025-02-19 15:36:27.211,777, 67, 639, -3, 2, 0, -6, -2, 15, 800, 58,H
2025-02-19 15:36:27.832,752, 59, 648, 1, -2, -4, -7, -2, 16, 828, 67,I
2025-02-19 15:36:27.936,716, 56, 676, -5, 16, -10, -7, -2, 16, 772, 67,I
2025-02-19 15:36:28.044,800, 173, 500, 20, -3, -10, -7, -4, 16, 608, 85,I
2025-02-19 15:36:28.149,700, 99, 686, 0, -8, 10, -7, -2, 15, 885, 80,I
2025-02-19 15:36:28.260,565, -108, 595, 4, -10, -23, -8, -3, 17, 809, 72,I
2025-02-19 15:36:28.362,748, 184, 636, -8, -5, 65, -6, -3, 16, 802, 85,I
2025-02-19 15:36:28.469,764, 57, 701, -26, 50, -1, -7, 1, 16, 759, 75,I
2025-02-19 15:36:28.579,827, 153, 562, 23, -64, 22, -6, -2, 15, 798, 86,I
2025-02-19 15:36:28.687,953, 142, 634, -47, 66, 1, -7, 1, 15, 829, 71,I
2025-02-19 15:36:29.401,732, 65, 642, -1, 0, -5, -7, -2, 14, 727, 71,J
2025-02-19 15:36:29.496,753, 67, 650, 0, -1, -4, -8, -2, 15, 715, 77,J
2025-02-19 15:36:29.605,694, 61, 657, 0, 0, -10, -8, -3, 14, 577, 82,J
2025-02-19 15:36:29.710,888, 359, 642, 72, -54, 15, -6, -2, 15, 629, 82,J
2025-02-19 15:36:29.819,650, 140, 672, -31, 18, 28, -7, -1, 17, 841, 79,J
2025-02-19 15:36:29.929,839, 52, 573, -42, -15, 39, -8, -3, 16, 802, 83,J
2025-02-19 15:36:30.037,683, 124, 633, -46, -1, 24, -7, 0, 17, 774, 94,J
2025-02-19 15:36:30.148,1049, 131, 645, -11, 54, 38, -7, -1, 14, 730, 69,J
2025-02-19 15:36:30.249,702, 17, 655, -17, -11, -19, -4, 1, 14, 747, 48,J
2025-02-19 15:36:30.969,729, -8, 650, 0, -1, -9, -7, -4, 14, 597, 76,K
2025-02-19 15:36:31.066,772, 49, 639, 2, -1, -5, -7, -4, 16, 491, 89,K
2025-02-19 15:36:31.176,706, -12, 701, 15, -14, 82, -7, -2, 14, 709, 88,K
2025-02-19 15:36:31.279,865, 157, 600, -7, -17, -37, -6, -2, 16, 789, 91,K
2025-02-19 15:36:31.389,478, -158, 765, 28, -65, -30, -7, -1, 16, 867, 70,K
2025-02-19 15:36:31.496,687, -22, 743, 20, 25, -7, -6, -3, 17, 716, 85,K
2025-02-19 15:36:31.601,755, 34, 626, -51, -40, 100, -8, -5, 15, 768, 88,K
2025-02-19 15:36:31.709,796, 25, 577, 21, 30, -30, -8, 1, 16, 831, 88,K
2025-02-19 15:36:31.819,568, -82, 723, 7, -10, -20, -5, 0, 14, 722, 43,K
2025-02-19 15:36:32.535,740, 55, 655, -5, 0, -3, -7, -2, 13, 734, 65,L
2025-02-19 15:36:32.630,732, 55, 660, 1, -1, -4, -5, -3, 15, 656, 67,L
2025-02-19 15:36:32.737,693, 42, 659, 5, -8, -11, -7, -3, 13, 610, 74,L
2025-02-19 15:36:32.843,707, -86, 737, 15, 6, 8, -8, -2, 15, 645, 87,L
2025-02-19 15:36:32.949,853, 56, 519, 64, 4, 15, -7, -3, 15, 669, 86,L
2025-02-19 15:36:33.060,800, 157, 678, -19, 10, 38, -6, -2, 16, 891, 79,L
2025-02-19 15:36:33.167,570, -64, 740, -17, 8, -9, -6, 2, 13, 818, 34,L
2025-02-19 15:36:33.273,768, 56, 678, 4, -11, -5, -6, -1, 13, 802, 40,L
2025-02-19 15:36:33.993,736, 38, 659, 1, -4, -5, -8, -4, 14, 703, 59,M
2025-02-19 15:36:34.089,750, 63, 652, 5, -7, -5, -6, -1, 16, 736, 67,M
2025-02-19 15:36:34.199,708, 96, 643, 10, -2, -20, -7, -2, 15, 667, 74,M
2025-02-19 15:36:34.302,729, -36, 683, 1, 3, -27, -7, -4, 17, 678, 87,M
2025-02-19 15:36:34.412,940, 260, 626, 3, -7, 18, -6, -1, 16, 780, 88,M
2025-02-19 15:36:34.522,750, 20, 626, -31, -11, -10, -9, -4, 15, 731, 85,M
2025-02-19 15:36:34.625,718, 300, 610, 8, 0, 26, -7, -2, 16, 842, 84,M
2025-02-19 15:36:34.734,708, -147, 701, 13, -1, -17, -6, -3, 15, 864, 79,M
2025-02-19 15:36:34.838,861, 356, 479, 4, 6, 36, -8, 0, 16, 852, 83,M
2025-02-19 15:36:34.949,540, -71, 742, -32, 36, 5, -4, 0, 12, 840, 37,M
2025-02-19 15:36:35.766,726, 43, 659, -7, 0, -3, -6, -2, 14, 740, 66,N
2025-02-19 15:36:35.859,732, 76, 649, -2, -3, 0, -9, -2, 16, 745, 71,N
2025-02-19 15:36:35.969,693, 99, 631, -5, -7, -18, -7, -3, 15, 629, 81,N
2025-02-19 15:36:36.079,755, -189, 789, -2, -1, 61, -7, -5, 14, 661, 84,N
2025-02-19 15:36:36.184,769, 276, 592, -2, -2, -51, -5, 1, 14, 805, 87,N
2025-02-19 15:36:36.292,777, -42, 555, 14, -6, -22, -6, -5, 13, 725, 85,N
2025-02-19 15:36:36.399,732, 274, 616, 12, -5, 18, -7, -1, 15, 839, 87,N
2025-02-19 15:36:36.499,777, 73, 605, 2, 12, -7, -8, -1, 17, 860, 81,N
2025-02-19 15:36:36.609,545, -47, 728, -23, 15, 11, -5, 1, 13, 828, 39,N
2025-02-19 15:36:37.333,773, 46, 638, 1, -4, -2, -8, -1, 15, 832, 71,O
2025-02-19 15:36:37.426,714, 58, 654, 12, -13, -8, -6, -2, 16, 854, 80,O
2025-02-19 15:36:37.529,686, 19, 675, 12, 3, -22, -7, -3, 17, 794, 84,O
2025-02-19 15:36:37.643,893, 292, 515, -10, -22, 103, -7, 0, 15, 806, 81,O
2025-02-19 15:36:37.754,766, -126, 716, -1, -13, -60, -8, -2, 15, 864, 83,O
2025-02-19 15:36:37.856,751, 101, 574, -50, 63, 43, -6, -2, 13, 812, 52,O
2025-02-19 15:36:37.963,646, 14, 685, 13, -29, -11, -6, 1, 14, 800, 42,O
2025-02-19 15:36:38.879,772, 75, 637, 0, -2, -6, -7, -2, 13, 739, 77,P
2025-02-19 15:36:38.978,756, 82, 644, -2, -1, -11, -9, -2, 14, 658, 86,P
2025-02-19 15:36:39.085,771, -114, 791, 15, -3, 52, -6, -3, 16, 714, 83,P
2025-02-19 15:36:39.190,776, 215, 628, 7, 4, 21, -8, -1, 14, 751, 88,P
2025-02-19 15:36:39.302,845, 92, 653, 1, -10, -24, -6, -2, 15, 829, 81,P
2025-02-19 15:36:39.409,642, 106, 728, -12, -5, 42, -7, -3, 16, 874, 82,P
2025-02-19 15:36:39.508,1126, 207, 660, -31, 70, 25, -8, 0, 15, 826, 64,P
2025-02-19 15:36:39.622,599, -2, 704, 17, -41, -17, -5, -2, 13, 843, 43,P
2025-02-19 15:36:40.439,767, 63, 637, 5, -7, -2, -6, -3, 16, 843, 67,Q
2025-02-19 15:36:40.536,753, 65, 633, 3, -5, 0, -6, -2, 16, 851, 70,Q
2025-02-19 15:36:40.645,744, 125, 611, -3, -12, -3, -7, -1, 17, 858, 84,Q
2025-02-19 15:36:40.752,652, -29, 686, 3, 5, -41, -7, -4, 15, 695, 86,Q
2025-02-19 15:36:40.859,826, 371, 640, -26, -17, 44, -6, -2, 14, 831, 83,Q
2025-02-19 15:36:40.966,767, 85, 599, 12, 30, -12, -7, -2, 17, 855, 84,Q
2025-02-19 15:36:41.073,658, 303, 888, 19, 7, -32, -7, -2, 14, 820, 81,Q
2025-02-19 15:36:41.179,762, 58, 639, 0, -4, 37, -6, 2, 19, 893, 88,Q
2025-02-19 15:36:41.289,585, -71, 720, -16, 27, -4, -7, 1, 14, 830, 41,Q
2025-02-19 15:36:43.502,751, 27, 647, 0, -3, -4, -7, -1, 15, 755, 56,R
2025-02-19 15:36:43.599,757, 40, 643, 2, -7, -8, -6, 1, 15, 766, 61,R
2025-02-19 15:36:43.706,808, 73, 620, 0, 0, -2, -7, -1, 15, 763, 72,R
2025-02-19 15:36:43.812,770, 57, 631, 0, -1, 0, -6, -2, 16, 794, 70,R
2025-02-19 15:36:43.922,746, 35, 654, -1, 1, 0, -7, -2, 14, 801, 65,R
2025-02-19 15:36:44.024,739, 37, 644, 0, -2, 0, -7, 0, 15, 796, 63,R
2025-02-19 15:36:44.132,766, 46, 642, -2, 2, 1, -6, -2, 15, 795, 64,R
2025-02-19 15:36:44.239,768, 51, 636, -2, 0, 0, -7, -1, 15, 798, 64,R
2025-02-19 15:36:44.349,759, 48, 635, -1, 0, 0, -8, -1, 15, 794, 65,R
2025-02-19 15:36:44.459,753, 51, 640, 0, -1, -2, -7, -2, 16, 799, 66,R
2025-02-19 15:36:44.566,770, 45, 640, -3, 1, -2, -6, -3, 17, 802, 66,R
2025-02-19 15:36:44.672,734, 55, 640, 0, -1, -1, -6, 0, 15, 834, 63,R
2025-02-19 15:36:44.779,755, 45, 648, 2, -5, 2, -6, -2, 15, 850, 67,R
2025-02-19 15:36:44.882,786, 62, 616, 1, -12, 3, -8, -2, 17, 847, 83,R
2025-02-19 15:36:44.990,764, 48, 629, -6, 0, -3, -7, -1, 17, 845, 84,R
2025-02-19 15:36:45.099,709, 32, 628, -10, 3, -17, -8, -2, 14, 811, 74,R
2025-02-19 15:36:45.209,776, -113, 731, 10, 3, 35, -7, -4, 16, 840, 85,R
2025-02-19 15:36:45.314,861, 331, 663, 4, 6, 31, -7, 1, 17, 832, 88,R
2025-02-19 15:36:45.429,853, -73, 623, -15, -21, -22, -7, -2, 17, 865, 82,R
2025-02-19 15:36:45.529,714, 116, 608, 6, 8, 34, -7, -2, 18, 869, 87,R
2025-02-19 15:36:45.638,685, 106, 636, -1, -26, 48, -7, -1, 17, 877, 87,R
2025-02-19 15:36:45.744,881, 91, 522, -17, 77, 4, -7, 2, 15, 854, 60,R
2025-02-19 15:36:45.856,645, -39, 692, 11, -20, -17, -6, 0, 14, 749, 39,R
2025-02-19 15:36:46.572,755, 20, 648, -4, -2, -3, -6, -2, 15, 824, 62,S
2025-02-19 15:36:46.667,770, 36, 641, 0, -3, -2, -7, 0, 15, 843, 67,S
2025-02-19 15:36:46.772,729, 49, 622, 9, -18, -10, -7, -1, 17, 852, 82,S
2025-02-19 15:36:46.883,737, -31, 692, 13, -4, -22, -7, -3, 16, 817, 84,S
2025-02-19 15:36:46.990,701, 234, 646, 11, -9, 57, -6, 0, 16, 884, 81,S
2025-02-19 15:36:47.089,768, 291, 517, -7, 12, 3, -8, 1, 16, 823, 86,S
2025-02-19 15:36:47.204,607, 26, 624, -34, 46, 15, -6, -2, 12, 712, 46,S
2025-02-19 15:36:47.309,739, 29, 679, 3, -21, -7, -6, 2, 13, 676, 44,S
2025-02-19 15:36:47.409,735, 11, 666, -19, 5, -6, -8, 0, 13, 655, 46,S
2025-02-19 15:36:47.522,747, 28, 669, -2, -3, -2, -5, 1, 13, 644, 46,S
2025-02-19 15:36:48.244,724, 57, 655, 1, -9, -8, -7, -2, 15, 711, 67,T
2025-02-19 15:36:48.338,757, 50, 654, 0, 7, -3, -8, -3, 14, 651, 71,T
2025-02-19 15:36:48.444,720, 86, 673, 4, 4, -4, -5, -3, 15, 636, 74,T
2025-02-19 15:36:48.559,1196, 156, 494, 60, -19, -28, -6, -5, 14, 621, 80,T
2025-02-19 15:36:48.661,778, 119, 641, -3, -3, 2, -7, -3, 17, 878, 81,T
2025-02-19 15:36:48.773,875, 149, 684, 0, -5, -22, -5, -2, 15, 815, 82,T
2025-02-19 15:36:48.872,820, 274, 515, -4, -2, 33, -8, 0, 15, 790, 87,T
2025-02-19 15:36:48.986,591, -17, 632, -29, 49, 11, -6, 1, 14, 806, 45,T
2025-02-19 15:36:49.089,765, 13, 698, 4, -15, -13, -6, -1, 15, 773, 42,T
2025-02-19 15:36:49.709,746, 31, 657, 0, 0, -3, -6, -2, 14, 748, 58,U
2025-02-19 15:36:49.805,754, 53, 670, 2, -4, -4, -8, -2, 13, 749, 62,U
2025-02-19 15:36:49.909,729, 78, 660, -3, 4, -10, -6, -2, 14, 713, 66,U
2025-02-19 15:36:50.021,760, -1, 537, -7, -3, -16, -7, -4, 15, 516, 88,U
2025-02-19 15:36:50.128,781, 316, 611, 15, -7, 29, -7, -1, 15, 808, 84,U
2025-02-19 15:36:50.239,735, -172, 695, 1, -2, -30, -6, -1, 17, 862, 83,U
2025-02-19 15:36:50.341,839, 296, 514, 2, 6, 52, -7, -2, 15, 844, 84,U
2025-02-19 15:36:50.451,676, -125, 704, -55, 52, -5, -5, 1, 13, 795, 39,U
2025-02-19 15:36:51.265,740, 35, 662, 1, 0, -2, -7, -2, 13, 706, 58,V
2025-02-19 15:36:51.361,719, 61, 662, 2, 3, -6, -6, -2, 16, 680, 62,V
2025-02-19 15:36:51.471,672, 54, 641, 13, -16, -28, -7, -2, 14, 479, 71,V
2025-02-19 15:36:51.582,871, -203, 715, -20, -19, 76, -7, -3, 13, 719, 83,V
2025-02-19 15:36:51.689,842, 195, 511, 0, -20, -56, -7, 0, 17, 842, 86,V
2025-02-19 15:36:51.789,767, 93, 622, -7, 1, -22, -7, -3, 15, 872, 83,V
2025-02-19 15:36:51.901,627, -14, 686, -23, 27, 24, -6, -2, 12, 772, 47,V
2025-02-19 15:36:52.719,739, 61, 650, 1, -2, -1, -5, -3, 15, 292, 65,W
2025-02-19 15:36:52.815,738, 76, 654, 2, -2, -5, -7, -4, 16, 312, 70,W
2025-02-19 15:36:52.921,734, 121, 641, -3, -1, -14, -8, -1, 13, 82, 75,W
2025-02-19 15:36:53.027,750, 8, 596, -2, 7, -19, -7, -3, 15, 0, 85,W
2025-02-19 15:36:53.129,724, 202, 610, 24, 0, 11, -7, -2, 15, 702, 88,W
2025-02-19 15:36:53.239,723, -136, 699, 9, -4, -26, -7, -2, 16, 816, 87,W
2025-02-19 15:36:53.352,764, 317, 522, 0, -13, 42, -8, 0, 16, 833, 92,W
2025-02-19 15:36:53.459,751, -141, 659, 1, -14, -37, -6, -3, 16, 886, 88,W
2025-02-19 15:36:53.564,651, 34, 626, -49, 51, 26, -6, 1, 15, 843, 47,W
2025-02-19 15:36:54.383,764, 41, 621, 3, -8, -5, -7, -2, 17, 809, 71,X
2025-02-19 15:36:54.482,776, 28, 622, -1, -3, -3, -7, -2, 16, 828, 75,X
2025-02-19 15:36:54.587,797, 26, 576, 6, -10, -14, -8, -3, 17, 842, 90,X
2025-02-19 15:36:54.695,960, 247, 474, -13, 17, 26, -7, -1, 16, 314, 90,X
2025-02-19 15:36:54.801,763, 65, 681, -26, 30, -60, -8, 0, 15, 428, 75,X
2025-02-19 15:36:54.909,1010, 84, 703, -29, -35, 61, -7, -5, 14, 579, 82,X
2025-02-19 15:36:55.014,781, 82, 606, 10, 3, 19, -8, 2, 16, 834, 88,X
2025-02-19 15:36:55.120,557, -118, 715, -33, 27, -4, -6, 1, 13, 699, 42,X
2025-02-19 15:36:55.229,827, 59, 615, 1, -11, -11, -7, -1, 14, 634, 54,X
2025-02-19 15:36:55.949,760, 50, 638, -1, -2, -3, -7, -1, 15, 610, 67,Y
2025-02-19 15:36:56.046,754, 63, 630, 3, -3, -6, -7, -1, 14, 635, 74,Y
2025-02-19 15:36:56.153,743, 70, 628, -4, 5, -12, -7, -2, 16, 577, 79,Y
2025-02-19 15:36:56.263,923, -77, 759, -37, -16, 48, -6, -3, 16, 748, 86,Y
2025-02-19 15:36:56.370,811, 247, 518, 7, -1, -46, -7, -1, 16, 859, 84,Y
2025-02-19 15:36:56.476,807, 289, 712, 6, -24, -16, -7, -1, 16, 889, 84,Y
2025-02-19 15:36:56.580,872, 137, 456, -4, 5, 9, -7, -2, 16, 708, 88,Y
2025-02-19 15:36:56.689,692, 47, 655, -7, -2, 46, -7, 0, 18, 741, 91,Y
2025-02-19 15:36:56.789,764, 18, 502, -40, 78, 23, -7, 1, 14, 753, 48,Y
2025-02-19 15:36:57.609,748, 41, 642, 5, -6, -5, -7, -4, 16, 726, 78,Z
2025-02-19 15:36:57.709,712, 64, 631, 3, 2, -9, -9, -5, 15, 629, 82,Z
2025-02-19 15:36:57.819,954, 16, 532, 94, 3, -19, -7, -2, 15, 547, 82,Z
2025-02-19 15:36:57.927,664, 104, 704, 13, 5, 24, -5, -2, 15, 860, 80,Z
2025-02-19 15:36:58.033,987, 41, 607, 43, -3, 12, -7, -2, 14, 754, 82,Z
2025-02-19 15:36:58.140,736, 146, 644, -8, -11, 6, -8, 1, 16, 896, 84,Z
2025-02-19 15:36:58.249,750, 64, 538, -30, 54, 16, -6, -1, 14, 855, 60,Z
2025-02-19 15:36:58.353,752, 78, 618, -1, -5, -5, -6, 0, 12, 802, 49,Z
2025-02-19 15:36:59.469,750, 44, 628, -3, 0, -1, -7, -2, 15, 725, 65,a
2025-02-19 15:36:59.569,765, 40, 628, -1, -3, 1, -7, -2, 15, 758, 70,a
2025-02-19 15:36:59.670,754, 50, 637, 8, -20, -6, -6, -1, 15, 788, 86,a
2025-02-19 15:36:59.785,720, -19, 694, 11, 17, -29, -5, -2, 17, 475, 89,a
2025-02-19 15:36:59.889,748, 219, 641, -10, -16, 32, -7, -2, 15, 800, 87,a
2025-02-19 15:36:59.999,778, -103, 585, 10, -1, -28, -6, -1, 17, 827, 86,a
2025-02-19 15:37:00.104,932, 89, 605, -11, 22, -2, -6, 1, 16, 872, 81,a
2025-02-19 15:37:00.211,611, -44, 699, -17, 3, -19, -6, 2, 14, 776, 41,a
2025-02-19 15:37:00.932,703, 53, 632, 4, -7, -7, -8, -1, 15, 670, 64,b
2025-02-19 15:37:01.030,1297, -17, 709, 22, 3, -15, -8, -2, 15, 579, 85,b
2025-02-19 15:37:01.129,728, 84, 731, 9, -2, 85, -8, -2, 15, 708, 85,b
2025-02-19 15:37:01.239,774, 1, 574, 25, 1, -47, -6, 0, 16, 773, 85,b
2025-02-19 15:37:01.349,660, 156, 709, -11, -7, 37, -6, -1, 16, 842, 83,b
2025-02-19 15:37:01.456,1127, 35, 621, -6, 51, 3, -6, 0, 13, 677, 75,b
2025-02-19 15:37:01.563,570, -31, 733, 6, -25, -6, -5, 2, 14, 770, 41,b
2025-02-19 15:37:02.279,782, 32, 628, -3, -1, -2, -8, -1, 15, 723, 68,c
2025-02-19 15:37:02.374,756, 40, 630, -1, -5, 0, -7, 0, 15, 748, 71,c
2025-02-19 15:37:02.481,768, 85, 633, 1, 3, -5, -6, -2, 15, 750, 86,c
2025-02-19 15:37:02.589,904, 139, 517, 15, 14, 32, -7, -2, 15, 476, 83,c
2025-02-19 15:37:02.689,948, 15, 751, 5, 26, 1, -7, 1, 16, 874, 77,c
2025-02-19 15:37:02.802,527, -76, 735, -9, -4, 0, -6, 1, 13, 754, 31,c
2025-02-19 15:37:04.522,762, 27, 631, 1, -3, 0, -7, 1, 15, 831, 79,d
2025-02-19 15:37:04.619,743, 15, 638, 3, -7, -3, -7, -2, 15, 835, 84,d
2025-02-19 15:37:04.725,800, 23, 597, 1, 0, -14, -6, 1, 16, 807, 86,d
2025-02-19 15:37:04.835,777, -26, 617, 23, 11, 4, -7, -2, 16, 737, 84,d
2025-02-19 15:37:04.946,773, 193, 598, -19, -16, -15, -8, -1, 16, 867, 86,d
2025-02-19 15:37:05.049,780, -1, 615, 7, 0, -19, -6, -1, 16, 860, 83,d
2025-02-19 15:37:05.155,819, 297, 501, 4, 2, 25, -7, 1, 16, 857, 87,d
2025-02-19 15:37:05.263,642, -19, 673, -33, 49, 1, -7, 0, 13, 846, 45,d
2025-02-19 15:37:06.182,722, -5, 662, -1, -4, 0, -6, 0, 15, 831, 47,e
2025-02-19 15:37:06.278,727, -9, 664, 4, -5, 0, -6, -1, 15, 843, 51,e
2025-02-19 15:37:06.384,741, 26, 647, 7, -1, 1, -7, 1, 15, 832, 57,e
2025-02-19 15:37:06.495,662, -31, 614, 13, -44, -15, -6, -1, 14, 796, 83,e
2025-02-19 15:37:06.601,707, 69, 680, -8, -16, 8, -6, -2, 16, 871, 85,e
2025-02-19 15:37:06.709,789, -88, 579, 9, 17, -23, -7, 0, 16, 813, 85,e
2025-02-19 15:37:06.815,809, 96, 614, -1, -15, 25, -6, 1, 15, 876, 86,e
2025-02-19 15:37:06.921,645, -36, 683, -40, 45, 3, -5, 1, 13, 839, 42,e
2025-02-19 15:37:07.739,768, 6, 634, -1, -1, -1, -6, 2, 16, 829, 72,f
2025-02-19 15:37:07.834,769, 19, 625, -1, 0, 0, -5, 2, 16, 829, 72,f
2025-02-19 15:37:07.940,765, 5, 628, 0, -2, 1, -7, 1, 15, 833, 74,f
2025-02-19 15:37:08.051,770, 126, 582, -14, 2, -7, -7, 1, 17, 823, 88,f
2025-02-19 15:37:08.161,755, -121, 697, -11, -19, -19, -6, -2, 15, 889, 85,f
2025-02-19 15:37:08.268,952, 109, 700, 21, 92, 19, -6, -1, 13, 879, 65,f
2025-02-19 15:37:08.375,1071, 317, 614, 19, -17, 19, -7, -1, 15, 833, 83,f
2025-02-19 15:37:08.481,945, 228, 617, -13, 57, 13, -6, -1, 14, 875, 66,f
2025-02-19 15:37:08.586,720, 20, 659, 5, -16, -4, -6, 0, 13, 806, 45,f
2025-02-19 15:37:09.302,764, 32, 629, 1, -2, -1, -5, 1, 16, 834, 63,g
2025-02-19 15:37:09.399,781, 45, 621, 1, -4, 1, -6, 0, 14, 835, 68,g
2025-02-19 15:37:09.510,742, 80, 630, 5, -14, -2, -8, -1, 17, 846, 77,g
2025-02-19 15:37:09.616,785, -19, 595, 9, 5, -28, -7, -1, 14, 776, 87,g
2025-02-19 15:37:09.719,823, 145, 620, -16, -15, 2, -7, 1, 17, 870, 89,g
2025-02-19 15:37:09.833,749, -12, 719, -3, -6, 49, -8, 1, 16, 865, 86,g
2025-02-19 15:37:09.939,953, -12, 578, -4, 39, -38, -6, 3, 16, 670, 91,g
2025-02-19 15:37:10.046,517, -71, 795, -34, 20, -15, -4, 2, 13, 746, 34,g
2025-02-19 15:37:10.759,758, 44, 648, 5, -8, -4, -7, -1, 15, 748, 70,h
2025-02-19 15:37:10.861,766, 76, 628, -1, -1, -7, -7, 0, 15, 756, 78,h
2025-02-19 15:37:10.964,769, 6, 574, 3, 3, -12, -6, 0, 16, 685, 84,h
2025-02-19 15:37:11.069,818, 204, 535, 6, -3, 13, -6, 1, 17, 747, 87,h
2025-02-19 15:37:11.189,714, -139, 689, -12, -11, -18, -7, -1, 17, 864, 84,h
2025-02-19 15:37:11.289,970, 113, 576, -6, 15, 13, -6, 0, 16, 874, 86,h
2025-02-19 15:37:11.398,578, -64, 729, 0, -4, -11, -5, 2, 13, 833, 38,h
2025-02-19 15:37:12.114,762, 25, 636, 0, -2, -2, -6, 1, 16, 793, 68,i
2025-02-19 15:37:12.209,748, 20, 623, 3, -5, -5, -7, 0, 16, 768, 73,i
2025-02-19 15:37:12.319,802, 12, 615, -2, -2, -9, -6, -2, 15, 769, 86,i
2025-02-19 15:37:12.425,819, 196, 573, -2, -6, 37, -8, 0, 16, 690, 89,i
2025-02-19 15:37:12.532,364, -96, 575, -46, 11, -70, -7, 0, 16, 785, 58,i
2025-02-19 15:37:12.639,1052, 74, 654, 4, 5, 18, -7, -2, 14, 836, 83,i
2025-02-19 15:37:12.749,485, -70, 726, -26, 34, 18, -4, 0, 12, 845, 32,i
2025-02-19 15:37:12.856,821, 41, 638, 16, -27, -4, -7, 1, 13, 822, 47,i
2025-02-19 15:37:13.469,750, 22, 639, 1, -2, 2, -7, 1, 15, 834, 62,j
2025-02-19 15:37:13.565,707, 9, 632, 4, -8, -3, -7, 0, 16, 839, 65,j
2025-02-19 15:37:13.675,857, 6, 640, 6, -6, -16, -7, 1, 16, 847, 85,j
2025-02-19 15:37:13.782,794, 138, 581, -15, -6, 53, -6, 1, 18, 640, 95,j
2025-02-19 15:37:13.891,906, 11, 570, -43, 14, -60, -6, -1, 15, 811, 76,j
2025-02-19 15:37:13.999,805, 184, 537, 1, -3, 17, -7, -2, 15, 862, 90,j
2025-02-19 15:37:14.101,659, 24, 649, -28, 55, 25, -5, 0, 14, 856, 43,j
2025-02-19 15:37:14.209,778, -8, 657, 20, -32, -6, -6, 1, 13, 819, 46,j
2025-02-19 15:37:14.929,785, 80, 630, 1, -2, -14, -7, 0, 16, 633, 72,k
2025-02-19 15:37:15.027,797, 120, 588, -4, -2, -2, -6, -2, 17, 575, 86,k
2025-02-19 15:37:15.136,700, -111, 729, 27, 0, 44, -8, -2, 15, 580, 85,k
2025-02-19 15:37:15.244,815, 120, 553, 6, -34, -18, -7, -1, 15, 746, 87,k
2025-02-19 15:37:15.350,746, 96, 666, -2, 11, 17, -7, -1, 17, 841, 84,k
2025-02-19 15:37:15.461,1000, 77, 593, -30, -20, 38, -7, -1, 14, 761, 84,k
2025-02-19 15:37:15.559,961, 90, 601, 0, 31, 1, -7, 1, 17, 843, 82,k
2025-02-19 15:37:15.669,623, -78, 714, 9, -9, -13, -6, 1, 13, 644, 42,k
2025-02-19 15:37:16.489,767, 31, 635, -5, -1, -4, -7, -1, 15, 659, 71,l
2025-02-19 15:37:16.587,752, 56, 619, -2, -3, -16, -8, -2, 16, 655, 77,l
2025-02-19 15:37:16.691,748, -84, 629, -7, 4, -31, -10, -3, 16, 722, 89,l
2025-02-19 15:37:16.799,815, 185, 553, 16, 4, 15, -8, 1, 16, 669, 95,l
2025-02-19 15:37:16.906,587, -84, 709, -23, 37, 7, -6, 1, 14, 774, 44,l
2025-02-19 15:37:17.013,763, -3, 656, 7, -16, -13, -5, 0, 15, 737, 46,l
2025-02-19 15:37:17.729,751, -2, 646, -4, 2, 1, -8, 1, 17, 694, 65,m
2025-02-19 15:37:17.829,752, -2, 634, -4, 1, -1, -8, -1, 14, 632, 68,m
2025-02-19 15:37:17.939,718, 3, 638, 12, -15, -19, -8, -2, 15, 548, 78,m
2025-02-19 15:37:18.041,724, -159, 724, -11, 3, 23, -6, -2, 16, 497, 90,m
2025-02-19 15:37:18.151,864, 79, 551, 15, -8, -54, -6, -1, 15, 642, 93,m
2025-02-19 15:37:18.259,696, 35, 670, -20, -11, 53, -7, -2, 16, 801, 91,m
2025-02-19 15:37:18.364,812, -7, 520, 44, 3, -53, -7, 1, 15, 822, 94,m
2025-02-19 15:37:18.469,791, 186, 572, -1, -3, 51, -7, -2, 15, 851, 94,m
2025-02-19 15:37:18.581,685, -60, 626, -17, 57, -7, -7, 1, 15, 842, 49,m
2025-02-19 15:37:19.289,752, 12, 643, 2, 1, -3, -7, 1, 15, 629, 63,n
2025-02-19 15:37:19.393,741, 38, 634, 5, -3, -5, -6, -1, 15, 558, 64,n
2025-02-19 15:37:19.503,750, 35, 630, 2, -10, -10, -8, -1, 15, 509, 80,n
2025-02-19 15:37:19.610,762, -57, 700, -21, 0, 21, -6, -2, 16, 544, 88,n
2025-02-19 15:37:19.715,815, 45, 595, 8, -5, -15, -8, 0, 15, 600, 92,n
2025-02-19 15:37:19.827,670, -24, 714, -8, -19, 13, -7, -2, 16, 837, 90,n
2025-02-19 15:37:19.929,942, 62, 587, 12, 9, 15, -8, 0, 16, 856, 90,n
2025-02-19 15:37:20.036,489, -98, 739, -1, -7, -8, -5, 3, 13, 821, 39,n
2025-02-19 15:37:20.859,817, 38, 600, 13, -24, -6, -8, -1, 15, 799, 77,o
2025-02-19 15:37:20.950,784, 20, 620, 7, -3, 4, -6, 1, 18, 834, 87,o
2025-02-19 15:37:21.059,769, 97, 618, 3, -1, -15, -7, 1, 18, 838, 89,o
2025-02-19 15:37:21.165,987, 74, 451, 40, 10, 48, -7, -2, 16, 779, 88,o
2025-02-19 15:37:21.269,728, -114, 681, 2, -12, -51, -6, 0, 17, 876, 89,o
2025-02-19 15:37:21.379,741, 52, 616, -40, 83, 29, -7, 2, 13, 773, 44,o
2025-02-19 15:37:22.102,765, -12, 609, -25, 19, -20, -6, 3, 14, 523, 49,p
2025-02-19 15:37:22.195,665, -1, 619, -5, -7, -10, -5, 2, 16, 726, 49,p
2025-02-19 15:37:22.305,718, -14, 636, 7, -18, -19, -6, 0, 16, 678, 73,p
2025-02-19 15:37:22.411,783, -281, 755, 9, -2, 34, -6, 0, 15, 734, 88,p
2025-02-19 15:37:22.518,858, 181, 505, 1, 9, -56, -6, 2, 15, 796, 94,p
2025-02-19 15:37:22.622,601, -32, 737, 1, -24, 15, -8, -2, 14, 874, 84,p
2025-02-19 15:37:22.731,949, -30, 421, 13, 34, -15, -7, 2, 16, 752, 91,p
2025-02-19 15:37:22.842,498, -79, 774, -21, 24, 23, -4, 3, 12, 706, 30,p
2025-02-19 15:37:23.559,772, -22, 630, -2, -6, -6, -6, 1, 14, 762, 63,q
2025-02-19 15:37:23.653,742, -24, 632, 5, -11, -4, -7, 0, 14, 792, 72,q
2025-02-19 15:37:23.759,733, 8, 687, -1, 2, -24, -5, 1, 16, 748, 89,q
2025-02-19 15:37:23.874,854, 151, 527, -23, -13, 57, -6, -1, 14, 705, 90,q
2025-02-19 15:37:23.976,717, -251, 709, -2, -1, -18, -7, 0, 17, 837, 89,q
2025-02-19 15:37:24.083,834, 193, 489, 32, 2, 15, -7, 1, 16, 738, 93,q
2025-02-19 15:37:24.189,944, 3, 719, -19, 58, 18, -7, 3, 14, 869, 68,q
2025-02-19 15:37:25.009,753, -11, 633, 1, -3, 0, -6, 0, 14, 661, 66,r
2025-02-19 15:37:25.103,793, 35, 643, 3, -5, -4, -7, 1, 15, 669, 82,r
2025-02-19 15:37:25.213,804, -46, 621, -3, 2, -19, -7, -1, 15, 472, 86,r
2025-02-19 15:37:25.319,807, 238, 588, -9, -9, 28, -7, 1, 15, 678, 91,r
2025-02-19 15:37:25.430,699, -184, 727, -2, -11, -20, -7, 1, 15, 834, 84,r
2025-02-19 15:37:25.530,699, -5, 571, -27, 36, 6, -8, 2, 17, 847, 64,r
2025-02-19 15:37:26.349,764, -8, 631, -1, -2, -2, -7, 2, 15, 798, 72,s
2025-02-19 15:37:26.446,731, -16, 640, 2, -9, -3, -7, 1, 16, 822, 77,s
2025-02-19 15:37:26.549,751, 9, 639, -2, 3, -4, -7, -1, 15, 808, 88,s
2025-02-19 15:37:26.663,860, -20, 516, 29, 8, -3, -7, 0, 15, 464, 86,s
2025-02-19 15:37:26.769,676, -17, 702, -15, -7, 32, -7, 2, 17, 780, 87,s
2025-02-19 15:37:26.877,884, 64, 611, -44, 81, 16, -5, 1, 12, 668, 54,s
2025-02-19 15:37:26.980,647, -58, 687, 7, -34, -21, -6, 4, 13, 733, 39,s
2025-02-19 15:37:27.698,758, 16, 642, 1, -4, -3, -5, 0, 14, 693, 72,t
2025-02-19 15:37:27.797,738, 16, 629, -2, -5, -8, -7, 0, 16, 689, 80,t
2025-02-19 15:37:27.908,760, -89, 611, 5, -2, -22, -7, -1, 16, 616, 86,t
2025-02-19 15:37:28.011,833, 230, 513, 6, 0, 23, -7, 2, 17, 737, 89,t
2025-02-19 15:37:28.121,577, -144, 528, 4, -25, -40, -7, 1, 14, 465, 84,t
2025-02-19 15:37:28.227,726, 73, 656, 6, -25, 20, -7, 1, 16, 830, 83,t
2025-02-19 15:37:28.334,802, 77, 557, -37, 64, 12, -7, 1, 16, 794, 57,t
2025-02-19 15:37:29.248,734, 21, 666, 1, -3, -3, -7, 0, 15, 667, 65,u
2025-02-19 15:37:29.350,743, 21, 658, 1, -5, -5, -8, 1, 14, 632, 72,u
2025-02-19 15:37:29.456,730, 12, 669, 1, -3, -3, -5, 0, 15, 584, 74,u
2025-02-19 15:37:29.563,676, 21, 659, -1, -6, -7, -7, 0, 16, 594, 79,u
2025-02-19 15:37:29.669,790, 150, 626, 1, -16, 49, -6, 1, 13, 777, 83,u
2025-02-19 15:37:29.780,704, -129, 702, -1, -2, -29, -8, 1, 15, 825, 82,u
2025-02-19 15:37:29.887,811, 177, 542, -7, -1, 31, -6, 0, 16, 852, 83,u
2025-02-19 15:37:29.995,616, -103, 681, -16, 28, -4, -6, 2, 13, 822, 47,u
2025-02-19 15:37:30.807,759, 4, 646, 4, 0, -5, -7, 1, 14, 640, 74,v
2025-02-19 15:37:30.902,751, 9, 651, 2, -3, 0, -7, 2, 15, 552, 77,v
2025-02-19 15:37:31.011,777, 21, 634, 1, 5, -16, -8, -1, 14, 344, 85,v
2025-02-19 15:37:31.123,733, -47, 644, -10, -19, 59, -6, 2, 14, 734, 86,v
2025-02-19 15:37:31.229,747, -61, 584, 21, -10, -45, -7, 1, 14, 828, 85,v
2025-02-19 15:37:31.336,895, 16, 668, -19, 32, 8, -7, -1, 15, 859, 73,v
2025-02-19 15:37:31.443,676, -50, 668, 0, -6, 1, -5, 3, 14, 812, 48,v
2025-02-19 15:37:32.759,735, -2, 662, 1, -5, -2, -5, 0, 16, 742, 70,w
2025-02-19 15:37:32.856,745, 18, 663, 1, 1, -3, -7, 2, 15, 672, 77,w
2025-02-19 15:37:32.966,854, -42, 680, 0, 2, -8, -7, -1, 14, 555, 84,w
2025-02-19 15:37:33.077,798, -56, 724, -10, -18, 57, -7, -2, 14, 738, 85,w
2025-02-19 15:37:33.179,759, -6, 574, 27, -9, -41, -8, 1, 15, 833, 85,w
2025-02-19 15:37:33.286,727, -13, 645, 0, -10, 49, -6, 0, 15, 858, 83,w
2025-02-19 15:37:33.393,769, 9, 602, -3, -10, -31, -8, 1, 13, 872, 86,w
2025-02-19 15:37:33.503,686, -13, 615, -29, 54, 23, -7, 1, 15, 860, 50,w
2025-02-19 15:37:34.719,785, 15, 615, -2, -1, 1, -6, 1, 15, 840, 79,x
2025-02-19 15:37:34.814,808, 5, 613, 0, -5, -3, -8, 1, 17, 847, 83,x
2025-02-19 15:37:34.919,774, 25, 612, 7, -5, -3, -6, 1, 16, 856, 84,x
2025-02-19 15:37:35.028,729, -34, 645, -3, -15, -27, -6, -1, 16, 786, 88,x
2025-02-19 15:37:35.137,780, 108, 589, -11, 21, 34, -7, 1, 16, 279, 87,x
2025-02-19 15:37:35.248,896, -15, 621, 36, -8, -37, -6, -2, 14, 481, 80,x
2025-02-19 15:37:35.350,790, 29, 615, 5, 0, 20, -7, 3, 18, 847, 88,x
2025-02-19 15:37:35.461,623, -116, 720, -24, 31, -2, -6, 2, 15, 653, 40,x
2025-02-19 15:37:36.379,742, -57, 666, -1, -4, -2, -6, 3, 15, 752, 55,y
2025-02-19 15:37:36.473,764, -18, 641, 2, -6, -7, -7, 1, 14, 745, 64,y
2025-02-19 15:37:36.583,747, -13, 638, 0, -10, -11, -7, 1, 14, 759, 79,y
2025-02-19 15:37:36.689,739, -122, 598, 10, 8, -19, -7, -1, 15, 707, 89,y
2025-02-19 15:37:36.794,802, 47, 593, -6, -8, -30, -6, 1, 17, 875, 84,y
2025-02-19 15:37:36.899,751, -39, 704, 16, -7, 34, -7, 0, 16, 847, 85,y
2025-02-19 15:37:37.009,860, 67, 531, -3, 39, -38, -6, 4, 16, 573, 92,y
2025-02-19 15:37:37.119,481, -129, 773, -17, -3, -11, -6, 4, 13, 727, 38,y
2025-02-19 15:37:37.935,775, -9, 638, 4, -7, -5, -8, 1, 15, 747, 76,z
2025-02-19 15:37:38.028,688, -4, 640, 0, 9, -16, -7, 2, 16, 566, 79,z
2025-02-19 15:37:38.140,1039, 38, 638, 40, -25, -9, -7, -2, 16, 562, 82,z
2025-02-19 15:37:38.246,608, -11, 687, -16, 11, 27, -7, 0, 15, 706, 87,z
2025-02-19 15:37:38.357,820, 117, 625, 23, -40, 13, -5, 0, 16, 665, 85,z
2025-02-19 15:37:38.463,801, 64, 624, -21, -3, 14, -7, 1, 16, 816, 89,z
2025-02-19 15:37:38.574,667, -126, 729, 17, -16, -15, -6, -1, 15, 665, 85,z
2025-02-19 15:37:38.672,728, 45, 630, 11, -6, 9, -6, 1, 16, 834, 88,z
2025-02-19 15:37:38.783,725, -24, 583, -27, 36, 14, -6, 1, 15, 739, 59,z
2025-02-19 15:37:38.888,786, 22, 631, -2, -5, -4, -6, 1, 15, 636, 55,z
2025-02-19 15:37:38.993,745, -18, 630, -8, 2, -1, -6, 2, 15, 484, 53,z
2025-02-19 15:37:40.408,769, -23, 629, -2, -1, 0, -6, 1, 17, 606, 68,0
2025-02-19 15:37:40.511,770, -24, 628, -1, -1, 0, -7, 0, 16, 615, 70,0
2025-02-19 15:37:40.619,776, -28, 627, -1, 0, -2, -6, 0, 16, 641, 71,0
2025-02-19 15:37:40.725,784, -19, 639, -3, 1, -4, -8, 1, 15, 671, 70,0
2025-02-19 15:37:40.831,755, -38, 589, 9, -3, 2, -6, -1, 16, 719, 66,0
2025-02-19 15:37:40.942,811, 35, 625, -14, 16, 1, -3, 0, 15, 833, 59,0
2025-02-19 15:37:41.043,664, -90, 690, 3, -11, -6, -6, 3, 14, 845, 49,0
2025-02-19 15:37:41.150,803, 5, 627, -7, 2, -6, -7, 1, 15, 839, 62,0
2025-02-19 15:37:41.258,796, 1, 608, 4, -9, -4, -5, 0, 17, 850, 72,0
2025-02-19 15:37:41.369,648, -92, 657, -2, -24, -16, -8, 2, 16, 877, 85,0
2025-02-19 15:37:41.476,632, -175, 668, 36, 10, -36, -6, 0, 17, 813, 89,0
2025-02-19 15:37:41.584,800, 292, 619, -36, -19, 42, -7, 2, 15, 842, 92,0
2025-02-19 15:37:41.691,771, -52, 542, 34, 23, -50, -7, 1, 19, 855, 91,0
2025-02-19 15:37:41.801,581, -29, 713, -26, 21, 32, -4, 2, 13, 781, 42,0
2025-02-19 15:37:43.019,732, -8, 645, 1, -2, -2, -6, 1, 15, 783, 65,1
2025-02-19 15:37:43.112,751, -18, 654, 3, -1, -2, -6, 0, 14, 772, 69,1
2025-02-19 15:37:43.223,1064, 29, 745, 19, 3, -24, -8, -1, 16, 617, 90,1
2025-02-19 15:37:43.325,850, 43, 628, 1, -21, -5, -8, 0, 17, 832, 88,1
2025-02-19 15:37:43.436,719, -183, 767, 38, 1, 49, -7, -1, 15, 864, 89,1
2025-02-19 15:37:43.538,829, 2, 663, -7, 0, 21, -5, 2, 15, 832, 90,1
2025-02-19 15:37:43.649,869, 33, 412, -2, 5, -13, -5, 2, 16, 467, 90,1
2025-02-19 15:37:43.755,760, 39, 661, 12, -5, 13, -7, 1, 16, 848, 92,1
2025-02-19 15:37:43.866,643, -125, 667, -28, 37, 3, -6, 2, 14, 744, 46,1
2025-02-19 15:37:44.778,761, -18, 632, -4, -1, -4, -5, 1, 16, 743, 61,2
2025-02-19 15:37:44.874,782, -17, 638, -9, 1, -13, -7, 2, 16, 749, 62,2
2025-02-19 15:37:44.983,741, 1, 638, -2, 11, -18, -7, 0, 15, 737, 63,2
2025-02-19 15:37:45.093,694, -59, 641, 4, -15, -4, -6, -1, 15, 749, 69,2
2025-02-19 15:37:45.199,890, 61, 543, 10, -6, -22, -8, 0, 16, 770, 89,2
2025-02-19 15:37:45.307,736, 7, 655, 11, -12, 9, -6, -1, 17, 883, 89,2
2025-02-19 15:37:45.409,868, 83, 524, 13, 19, 12, -7, 0, 15, 803, 91,2
2025-02-19 15:37:45.524,773, 37, 620, -15, -51, 24, -6, 1, 17, 799, 94,2
2025-02-19 15:37:45.626,1139, 60, 586, 7, 85, 16, -6, 2, 16, 834, 77,2
2025-02-19 15:37:46.850,743, -61, 641, -11, -3, -12, -5, 4, 14, 761, 52,3
2025-02-19 15:37:46.946,797, -17, 641, -1, -6, -10, -6, 1, 14, 796, 64,3
2025-02-19 15:37:47.049,765, 3, 645, 2, 3, -8, -7, 1, 16, 817, 66,3
2025-02-19 15:37:47.159,1013, 2, 695, -7, -6, -29, -7, 2, 14, 688, 92,3
2025-02-19 15:37:47.265,640, -30, 710, 9, -17, 15, -6, 0, 16, 882, 92,3
2025-02-19 15:37:47.372,860, 140, 446, -2, 17, 4, -6, 0, 17, 752, 94,3
2025-02-19 15:37:47.479,666, -20, 783, 7, -12, 2, -8, 4, 16, 821, 93,3
2025-02-19 15:37:47.584,898, 25, 533, 24, 32, -4, -5, 1, 14, 742, 92,3
2025-02-19 15:37:47.695,487, -98, 738, -8, -8, -2, -5, 4, 12, 761, 40,3
2025-02-19 15:37:48.612,760, -46, 642, -2, 0, -2, -8, 3, 14, 738, 64,4
2025-02-19 15:37:48.707,753, -47, 645, -2, -1, -2, -7, 2, 15, 750, 64,4
2025-02-19 15:37:48.817,743, -34, 643, -2, -5, -7, -8, 3, 15, 746, 67,4
2025-02-19 15:37:48.923,758, -37, 646, -7, 3, -9, -6, 1, 16, 786, 70,4
2025-02-19 15:37:49.031,629, -78, 650, 10, -41, -25, -5, 1, 15, 835, 91,4
2025-02-19 15:37:49.141,782, -47, 620, 10, -11, -20, -7, 0, 16, 823, 96,4
2025-02-19 15:37:49.244,889, 244, 485, 6, 2, 0, -6, 0, 15, 389, 92,4
2025-02-19 15:37:49.350,724, 58, 678, 8, -3, 3, -8, 1, 16, 882, 92,4
2025-02-19 15:37:49.460,530, -253, 612, -11, -9, -36, -6, 2, 16, 866, 70,4
2025-02-19 15:37:49.567,732, -13, 686, 11, -2, 101, -7, 0, 17, 776, 95,4
2025-02-19 15:37:49.674,1107, -59, 665, -33, 80, 7, -6, 3, 16, 813, 67,4
2025-02-19 15:37:49.779,665, -93, 681, 3, -18, -8, -5, 6, 13, 763, 38,4
2025-02-19 15:37:49.887,757, -43, 648, 4, -5, -2, -5, 3, 12, 704, 46,4
2025-02-19 15:37:49.991,770, -45, 641, -6, -1, -5, -7, 5, 14, 635, 51,4
2025-02-19 15:37:50.100,746, -52, 649, -4, -1, -3, -5, 2, 14, 705, 53,4
2025-02-19 15:37:50.209,762, -39, 646, -3, -1, -5, -6, 3, 14, 696, 55,4
2025-02-19 15:37:50.317,744, -61, 643, -6, -1, -3, -6, 3, 15, 702, 55,4
2025-02-19 15:37:50.424,752, -45, 643, -1, -1, 0, -7, 1, 14, 698, 57,4
2025-02-19 15:37:50.530,768, -43, 648, 0, -1, -1, -7, 2, 15, 694, 57,4
2025-02-19 15:37:51.349,766, -42, 641, -2, -2, -2, -7, 2, 15, 685, 59,5
2025-02-19 15:37:51.447,758, -35, 638, -1, -1, -2, -6, 2, 14, 703, 60,5
2025-02-19 15:37:51.553,755, -31, 631, -2, -1, -1, -6, 4, 15, 719, 59,5
2025-02-19 15:37:51.661,752, -44, 636, 5, -5, 0, -6, 1, 15, 762, 61,5
2025-02-19 15:37:51.766,786, -56, 629, -1, -5, -2, -5, 1, 16, 825, 64,5
2025-02-19 15:37:51.873,750, -40, 647, 2, -2, -1, -6, 3, 15, 857, 62,5
2025-02-19 15:37:51.979,756, -59, 634, 2, -3, -2, -6, 4, 14, 863, 68,5
2025-02-19 15:37:52.089,716, -7, 637, -6, 4, -11, -6, 1, 14, 831, 71,5
2025-02-19 15:37:52.197,866, 27, 470, -10, -16, -17, -8, 0, 15, 529, 92,5
2025-02-19 15:37:52.299,664, -103, 697, 24, -5, 1, -6, 0, 17, 890, 91,5
2025-02-19 15:37:52.409,1547, -144, 717, 2, 6, -22, -5, 1, 16, 781, 88,5
2025-02-19 15:37:52.516,797, 98, 533, 15, 1, 9, -5, 2, 16, 763, 90,5
2025-02-19 15:37:52.623,649, 35, 852, 8, -20, 33, -6, 0, 17, 850, 94,5
2025-02-19 15:37:52.733,1106, -30, 591, 8, 30, -12, -7, 3, 15, 782, 87,5
2025-02-19 15:37:52.840,489, -79, 732, -8, -8, -11, -5, 5, 14, 784, 37,5
2025-02-19 15:37:54.359,764, -21, 639, -1, -1, -1, -6, 2, 13, 754, 64,6
2025-02-19 15:37:54.453,765, -39, 645, -1, -1, -1, -6, 3, 14, 766, 65,6
2025-02-19 15:37:54.561,760, -39, 640, -1, -1, -1, -6, 2, 15, 777, 65,6
2025-02-19 15:37:54.667,772, -3, 630, 1, -2, -1, -5, 2, 16, 812, 67,6
2025-02-19 15:37:54.772,777, -37, 637, -2, -1, 0, -6, 2, 16, 845, 65,6
2025-02-19 15:37:54.884,756, -34, 640, -2, -1, -1, -7, 2, 15, 866, 65,6
2025-02-19 15:37:54.990,764, -52, 621, 0, -9, -3, -7, 2, 15, 875, 73,6
2025-02-19 15:37:55.091,762, -80, 666, 18, -3, -21, -6, 2, 15, 856, 93,6
2025-02-19 15:37:55.199,900, 390, 456, 6, -18, 78, -5, 3, 14, 742, 92,6
2025-02-19 15:37:55.314,732, -170, 605, 23, 9, -57, -6, 3, 17, 841, 95,6
2025-02-19 15:37:55.420,925, 120, 630, -46, 43, 43, -5, 3, 14, 820, 64,6
2025-02-19 15:37:56.235,774, -8, 630, -2, 1, -5, -7, 4, 15, 842, 73,7
2025-02-19 15:37:56.333,750, 22, 643, 13, -5, -13, -5, 3, 15, 754, 77,7
2025-02-19 15:37:56.440,907, 35, 551, 24, -5, -12, -6, 1, 15, 769, 88,7
2025-02-19 15:37:56.551,753, -75, 673, 16, -13, -25, -7, 1, 16, 898, 89,7
2025-02-19 15:37:56.653,885, 257, 486, 14, 9, 26, -8, 2, 17, 838, 93,7
2025-02-19 15:37:56.769,858, -26, 520, -23, -13, -20, -7, 0, 16, 707, 91,7
2025-02-19 15:37:56.871,703, 5, 672, 14, -9, 12, -6, 2, 19, 899, 93,7
2025-02-19 15:37:56.978,606, -121, 632, -43, 53, 23, -5, 5, 15, 754, 42,7
2025-02-19 15:37:57.995,776, -17, 610, -1, 1, 1, -8, 3, 15, 828, 57,8
2025-02-19 15:37:58.089,768, -41, 626, 8, -7, 3, -5, 4, 15, 819, 59,8
2025-02-19 15:37:58.197,776, -3, 604, 4, -13, -3, -7, 3, 15, 836, 72,8
2025-02-19 15:37:58.304,828, -1, 680, 1, 11, -31, -7, 4, 17, 837, 95,8
2025-02-19 15:37:58.414,852, 234, 551, -9, -22, 69, -7, 2, 16, 805, 0,8
2025-02-19 15:37:58.517,759, 9, 489, 3, 11, -93, -7, 2, 15, 888, 0,8
2025-02-19 15:37:58.627,686, 49, 729, 12, -19, 8, -6, 1, 17, 898, 95,8
2025-02-19 15:37:58.732,898, 10, 484, 9, 36, 3, -5, 2, 16, 863, 90,8
2025-02-19 15:37:58.839,520, -73, 723, -6, -9, 3, -4, 4, 14, 836, 44,8
2025-02-19 15:37:59.864,767, -21, 622, -2, -2, -4, -6, 1, 16, 847, 69,9
2025-02-19 15:37:59.954,769, -22, 622, 0, -4, -2, -7, 2, 16, 850, 74,9
2025-02-19 15:38:00.065,764, 3, 621, 2, -15, -13, -6, 2, 17, 866, 91,9
2025-02-19 15:38:00.171,779, -99, 587, 22, 3, -31, -5, 1, 14, 777, 97,9
2025-02-19 15:38:00.271,845, 182, 596, -8, -13, 43, -6, 4, 16, 868, 92,9
2025-02-19 15:38:00.389,684, -154, 664, 22, -26, -21, -6, 3, 17, 898, 90,9
2025-02-19 15:38:00.490,840, 96, 551, 6, -9, 51, -5, 2, 15, 722, 99,9
2025-02-19 15:38:00.601,607, -78, 623, -34, 57, 34, -5, 7, 12, 782, 43,9
