Timestamp,Acc_X,Acc_Y,Acc_Z,Gyro_X,Gyro_Y,Gyro_Z,Mag_X,Mag_Y,Mag_Z,Force,IR_A,Letter
2025-02-19 17:32:56.136,499, -124, 801, -23, 17, -29, -6, 0, 2, 575, 10,noise
2025-02-19 17:32:56.230,604, -115, 837, -3, -6, -2, -7, -2, 4, 315, 11,noise
2025-02-19 17:32:56.332,538, -140, 822, 0, 8, -3, -7, -2, 4, 70, 10,noise
2025-02-19 17:32:56.442,560, -110, 819, 13, -5, -5, -7, -2, 4, 2, 10,noise
2025-02-19 17:32:56.544,554, -105, 803, 2, -7, 1, -8, -3, 5, 0, 12,noise
2025-02-19 17:32:56.656,607, -102, 816, -10, 3, 8, -6, -3, 6, 0, 10,noise
2025-02-19 17:32:56.758,476, -112, 790, -1, -5, -8, -5, -2, 4, 0, 10,noise
2025-02-19 17:32:56.873,595, -111, 817, -7, -19, -1, -6, -3, 4, 0, 10,noise
2025-02-19 17:32:56.980,629, -160, 789, -3, -25, -3, -7, -3, 7, 113, 13,noise
2025-02-19 17:32:57.083,589, -163, 772, 5, 8, -1, -8, -2, 6, 213, 12,noise
2025-02-19 17:32:57.192,555, -138, 793, -4, 10, 3, -8, -3, 5, 218, 12,noise
2025-02-19 17:32:57.299,565, -128, 794, 5, -6, 0, -7, -1, 5, 139, 14,noise
2025-02-19 17:32:57.401,585, -136, 791, 0, 5, -6, -9, -3, 5, 0, 16,noise
2025-02-19 17:32:57.508,584, -111, 807, 1, -3, -3, -7, -3, 5, 1, 17,noise
2025-02-19 17:32:57.618,598, -107, 796, 0, -5, -3, -7, -3, 6, 0, 20,noise
2025-02-19 17:32:57.725,599, -106, 796, 1, 0, -1, -7, -3, 6, 0, 29,noise
2025-02-19 17:32:57.832,587, -107, 797, 3, 0, -2, -8, -2, 6, 0, 31,noise
2025-02-19 17:32:57.938,603, -121, 792, -2, 0, 0, -8, -2, 6, 0, 28,noise
2025-02-19 17:32:58.048,581, -106, 792, 0, 2, -1, -6, -2, 5, 0, 23,noise
2025-02-19 17:32:58.150,587, -113, 793, -3, 0, 1, -7, -3, 6, 0, 22,noise
2025-02-19 17:32:58.262,592, -108, 801, -1, 0, 0, -6, -2, 5, 0, 20,noise
2025-02-19 17:32:58.368,591, -110, 796, -1, 1, 0, -8, -4, 5, 0, 20,noise
2025-02-19 17:32:58.470,575, -111, 800, 0, 1, 0, -7, -2, 5, 0, 20,noise
2025-02-19 17:32:58.582,578, -116, 802, 0, -1, 0, -6, -3, 6, 0, 20,noise
2025-02-19 17:32:58.692,575, -92, 801, -3, -2, 0, -6, -3, 5, 3, 21,noise
2025-02-19 17:32:59.818,686, -184, 674, -12, -19, -19, -11, -6, 13, 802, 35,A
2025-02-19 17:32:59.908,829, -95, 610, 3, -8, -11, -9, -9, 14, 809, 48,A
2025-02-19 17:33:00.018,783, -139, 643, -11, -4, -14, -11, -8, 15, 826, 52,A
2025-02-19 17:33:00.118,763, -75, 610, 4, -21, -11, -12, -7, 17, 827, 64,A
2025-02-19 17:33:00.232,767, -89, 592, 0, -2, -8, -13, -8, 17, 843, 80,A
2025-02-19 17:33:00.343,810, -77, 580, 0, -1, -11, -13, -11, 18, 844, 104,A
2025-02-19 17:33:00.448,932, 336, 493, 14, -6, 46, -11, -9, 16, 589, 103,A
2025-02-19 17:33:00.552,623, -184, 546, -7, 11, -63, -11, -9, 16, 786, 90,A
2025-02-19 17:33:00.658,748, 41, 615, 3, -20, 59, -12, -12, 17, 783, 99,A
2025-02-19 17:33:00.768,477, 19, 552, -11, 36, -53, -11, -7, 15, 715, 83,A
2025-02-19 17:33:00.875,811, 93, 512, 21, -56, 13, -11, -11, 16, 816, 97,A
2025-02-19 17:33:00.986,1013, 182, 554, -67, 124, 39, -11, -8, 16, 822, 59,A
2025-02-19 17:33:01.800,811, -10, 623, 1, -7, -7, -10, -10, 14, 819, 81,B
2025-02-19 17:33:01.899,720, -22, 626, 5, -6, -12, -11, -10, 14, 804, 81,B
2025-02-19 17:33:02.006,770, -44, 637, 1, -1, -16, -10, -11, 14, 754, 94,B
2025-02-19 17:33:02.108,862, 260, 485, 2, -2, 27, -11, -9, 15, 612, 94,B
2025-02-19 17:33:02.218,962, -211, 825, 15, 7, -58, -10, -9, 15, 768, 93,B
2025-02-19 17:33:02.329,680, 69, 755, -19, -15, 33, -12, -12, 15, 853, 90,B
2025-02-19 17:33:02.432,947, 61, 599, 0, -4, 4, -11, -9, 13, 805, 90,B
2025-02-19 17:33:02.541,842, 142, 431, -2, 7, 29, -12, -9, 14, 683, 96,B
2025-02-19 17:33:02.648,543, -24, 627, -44, 49, 4, -10, -7, 13, 744, 44,B
2025-02-19 17:33:02.759,768, -89, 670, 15, -27, -19, -11, -8, 12, 772, 46,B
2025-02-19 17:33:03.473,767, -37, 613, -3, -2, -1, -11, -9, 16, 795, 71,C
2025-02-19 17:33:03.570,789, -24, 606, 3, -11, -1, -10, -9, 16, 832, 77,C
2025-02-19 17:33:03.668,779, -24, 623, 3, 1, -23, -11, -11, 15, 825, 95,C
2025-02-19 17:33:03.787,906, 147, 543, 1, -2, 54, -12, -11, 14, 390, 93,C
2025-02-19 17:33:03.894,705, -83, 670, 38, -8, 0, -11, -9, 16, 829, 91,C
2025-02-19 17:33:04.001,574, -173, 696, -50, 59, 21, -10, -7, 13, 808, 0,C
2025-02-19 17:33:04.108,699, -123, 671, 1, -10, -15, -9, -6, 12, 754, 30,C
2025-02-19 17:33:04.918,776, -32, 630, 0, -3, -3, -12, -10, 13, 797, 63,D
2025-02-19 17:33:05.018,776, -26, 626, 0, -2, -3, -11, -10, 14, 803, 66,D
2025-02-19 17:33:05.130,772, -26, 628, -1, -3, -6, -11, -10, 15, 803, 68,D
2025-02-19 17:33:05.231,782, -12, 621, -1, -1, -3, -12, -8, 15, 799, 73,D
2025-02-19 17:33:05.341,788, -8, 620, 2, -2, -6, -10, -11, 15, 798, 77,D
2025-02-19 17:33:05.450,785, 1, 621, -1, -1, -3, -11, -11, 14, 797, 83,D
2025-02-19 17:33:05.558,767, 12, 614, -1, -1, -6, -10, -11, 15, 787, 85,D
2025-02-19 17:33:05.666,788, -5, 605, 1, -1, -10, -12, -12, 16, 735, 95,D
2025-02-19 17:33:05.768,779, 63, 635, 10, -12, 53, -10, -10, 16, 605, 93,D
2025-02-19 17:33:05.881,855, -15, 587, 13, -8, 4, -11, -9, 16, 734, 93,D
2025-02-19 17:33:05.991,581, -109, 683, -24, 9, -8, -11, -8, 15, 801, 47,D
2025-02-19 17:33:06.092,788, -26, 624, 6, -13, -11, -11, -8, 15, 842, 60,D
2025-02-19 17:33:06.204,724, 7, 645, -7, -1, -18, -11, -10, 15, 819, 68,D
2025-02-19 17:33:06.309,889, 82, 549, 5, -20, 13, -10, -12, 16, 827, 0,D
2025-02-19 17:33:06.415,757, 67, 693, 18, -7, 50, -12, -12, 16, 753, 91,D
2025-02-19 17:33:06.518,1221, -57, 542, -18, 92, 46, -11, -7, 14, 418, 62,D
2025-02-19 17:33:06.630,515, -129, 704, 2, 0, -3, -8, -7, 10, 611, 27,D
2025-02-19 17:33:07.348,760, -74, 636, 0, -3, -3, -9, -9, 15, 718, 53,E
2025-02-19 17:33:07.445,705, -95, 661, 6, -10, -9, -11, -9, 15, 789, 55,E
2025-02-19 17:33:07.555,743, -39, 633, 7, -9, -10, -13, -9, 14, 807, 70,E
2025-02-19 17:33:07.658,810, -45, 573, -1, 1, -14, -12, -11, 15, 760, 94,E
2025-02-19 17:33:07.768,820, 331, 546, -18, -16, 55, -12, -8, 16, 477, 83,E
2025-02-19 17:33:07.879,467, -111, 602, -31, 7, -69, -11, -10, 16, 671, 76,E
2025-02-19 17:33:07.981,762, 111, 620, -14, -25, 31, -10, -11, 16, 827, 89,E
2025-02-19 17:33:08.091,553, 77, 544, 19, 17, -17, -12, -11, 14, 678, 82,E
2025-02-19 17:33:08.198,773, 63, 602, -8, -23, 22, -11, -11, 16, 841, 89,E
2025-02-19 17:33:08.309,597, -51, 373, 4, -33, -18, -11, -10, 14, 546, 84,E
2025-02-19 17:33:08.414,789, -10, 608, -1, -22, 31, -11, -7, 16, 834, 91,E
2025-02-19 17:33:08.522,625, -200, 665, -22, 54, -12, -10, -5, 13, 792, 34,E
2025-02-19 17:33:09.238,773, -26, 632, 0, -3, -1, -12, -9, 12, 801, 71,F
2025-02-19 17:33:09.333,758, -17, 634, 3, -6, -4, -11, -10, 16, 796, 76,F
2025-02-19 17:33:09.439,952, -72, 663, 14, 1, -13, -11, -9, 15, 744, 91,F
2025-02-19 17:33:09.548,799, -255, 770, 32, -1, 49, -12, -12, 14, 544, 88,F
2025-02-19 17:33:09.648,681, 26, 537, 26, 9, -67, -11, -9, 16, 777, 89,F
2025-02-19 17:33:09.764,963, 92, 550, 3, -28, -35, -11, -12, 14, 756, 87,F
2025-02-19 17:33:09.868,871, 44, 707, 32, 56, 19, -11, -10, 16, 837, 77,F
2025-02-19 17:33:09.981,842, 170, 588, 0, -34, 14, -10, -11, 15, 790, 86,F
2025-02-19 17:33:10.087,710, 130, 505, -55, 79, 30, -10, -9, 14, 848, 51,F
2025-02-19 17:33:10.900,773, -8, 623, -6, -6, -3, -11, -8, 13, 824, 63,G
2025-02-19 17:33:11.000,713, -34, 622, 1, -19, -9, -13, -10, 14, 851, 73,G
2025-02-19 17:33:11.111,754, -23, 653, -2, -1, -18, -11, -11, 14, 852, 88,G
2025-02-19 17:33:11.214,822, 110, 583, 23, 1, 62, -11, -11, 15, 712, 89,G
2025-02-19 17:33:11.318,683, -34, 650, 11, -7, -38, -11, -9, 15, 847, 88,G
2025-02-19 17:33:11.429,816, 149, 544, 0, -6, 49, -10, -9, 16, 777, 90,G
2025-02-19 17:33:11.538,383, -148, 552, -22, -25, -50, -11, -8, 15, 821, 87,G
2025-02-19 17:33:11.647,763, 66, 616, -1, -13, 28, -12, -10, 16, 861, 92,G
2025-02-19 17:33:11.748,643, -153, 682, -32, 52, 13, -10, -8, 13, 816, 40,G
2025-02-19 17:33:12.568,762, -23, 638, 0, -2, -2, -11, -8, 14, 769, 66,H
2025-02-19 17:33:12.667,754, -35, 636, 0, -7, -5, -11, -9, 14, 746, 72,H
2025-02-19 17:33:12.774,742, -17, 633, -6, -3, -5, -12, -10, 16, 712, 79,H
2025-02-19 17:33:12.879,790, -24, 609, 9, 1, -9, -12, -10, 13, 635, 94,H
2025-02-19 17:33:12.989,823, 250, 556, -3, -11, 41, -11, -9, 15, 404, 91,H
2025-02-19 17:33:13.098,481, -157, 584, -24, 8, -28, -11, -10, 15, 667, 77,H
2025-02-19 17:33:13.207,794, 127, 576, -8, -18, 34, -11, -10, 15, 851, 89,H
2025-02-19 17:33:13.314,557, -400, 805, 25, -43, -29, -9, -11, 15, 877, 88,H
2025-02-19 17:33:13.413,838, 197, 468, 4, -5, 57, -11, -9, 16, 770, 95,H
2025-02-19 17:33:13.523,623, -122, 630, -44, 58, 0, -11, -7, 13, 814, 42,H
2025-02-19 17:33:14.238,761, -33, 628, 2, -1, -5, -11, -9, 15, 811, 68,I
2025-02-19 17:33:14.343,761, -19, 645, 5, -1, -4, -10, -11, 15, 794, 71,I
2025-02-19 17:33:14.448,619, -79, 615, 26, -24, -24, -12, -10, 14, 673, 93,I
2025-02-19 17:33:14.548,713, 114, 651, -11, -25, 26, -11, -9, 15, 840, 89,I
2025-02-19 17:33:14.661,628, 64, 627, -18, 25, -22, -9, -11, 14, 806, 79,I
2025-02-19 17:33:14.768,727, 14, 629, 15, -12, 65, -9, -11, 16, 718, 89,I
2025-02-19 17:33:14.878,500, -98, 564, -43, 32, -6, -10, -9, 15, 488, 65,I
2025-02-19 17:33:14.985,787, 85, 554, 7, -35, 23, -12, -9, 14, 726, 88,I
2025-02-19 17:33:15.092,647, 4, 553, -67, 85, 6, -10, -9, 12, 772, 39,I
2025-02-19 17:33:15.809,747, 10, 634, 0, 1, 0, -11, -11, 12, 796, 73,J
2025-02-19 17:33:15.898,746, 32, 643, 5, 3, -3, -10, -11, 15, 745, 75,J
2025-02-19 17:33:16.013,825, 2, 701, 7, -2, -24, -12, -13, 14, 571, 91,J
2025-02-19 17:33:16.118,661, 87, 684, -4, -19, 13, -11, -12, 15, 855, 87,J
2025-02-19 17:33:16.229,627, -142, 469, -1, -5, -10, -10, -11, 15, 780, 79,J
2025-02-19 17:33:16.337,709, 279, 599, -37, -26, 63, -12, -9, 15, 583, 94,J
2025-02-19 17:33:16.443,1227, -21, 533, 32, 44, 3, -11, -9, 14, 334, 83,J
2025-02-19 17:33:16.548,518, -97, 721, 14, -13, -1, -10, -8, 11, 648, 34,J
2025-02-19 17:33:17.368,731, -4, 644, 2, -5, -6, -11, -10, 13, 812, 73,K
2025-02-19 17:33:17.464,771, 23, 586, 4, 1, -11, -13, -12, 14, 794, 90,K
2025-02-19 17:33:17.568,769, -64, 592, 1, -2, -28, -10, -12, 16, 707, 91,K
2025-02-19 17:33:17.678,810, 191, 553, 11, 2, 26, -11, -10, 16, 491, 90,K
2025-02-19 17:33:17.791,511, -208, 765, -4, -37, -32, -9, -9, 14, 846, 69,K
2025-02-19 17:33:17.896,729, -55, 685, 20, 18, 16, -11, -11, 15, 720, 89,K
2025-02-19 17:33:17.998,692, -33, 654, -59, -36, 55, -11, -11, 16, 568, 91,K
2025-02-19 17:33:18.106,1106, 95, 690, 27, 81, 5, -11, -8, 14, 758, 75,K
2025-02-19 17:33:18.215,642, -92, 692, 10, -18, -22, -10, -7, 13, 702, 42,K
2025-02-19 17:33:18.938,736, -44, 635, -2, -7, -4, -10, -11, 13, 774, 70,L
2025-02-19 17:33:19.032,793, 13, 631, -6, 5, -1, -11, -10, 14, 774, 77,L
2025-02-19 17:33:19.139,732, -14, 625, 3, -6, -19, -11, -9, 14, 746, 79,L
2025-02-19 17:33:19.248,766, -15, 626, 11, 2, -14, -10, -13, 13, 592, 92,L
2025-02-19 17:33:19.348,834, 226, 547, -11, -4, 25, -10, -11, 14, 56, 91,L
2025-02-19 17:33:19.462,733, 32, 629, -10, -18, 7, -10, -9, 12, 676, 89,L
2025-02-19 17:33:19.568,650, -53, 535, -6, 65, 11, -11, -8, 13, 710, 47,L
2025-02-19 17:33:20.388,756, -36, 655, 1, -1, -1, -11, -10, 14, 790, 63,M
2025-02-19 17:33:20.482,746, -13, 654, 3, 0, -4, -12, -10, 12, 780, 66,M
2025-02-19 17:33:20.592,728, -40, 636, -1, -15, -19, -12, -12, 15, 712, 78,M
2025-02-19 17:33:20.698,748, -92, 736, 9, -7, 48, -11, -11, 14, 569, 90,M
2025-02-19 17:33:20.806,834, -40, 707, 35, 32, -55, -11, -9, 14, 784, 84,M
2025-02-19 17:33:20.916,916, -11, 644, -11, -16, 14, -12, -12, 14, 804, 88,M
2025-02-19 17:33:21.018,759, 4, 586, 26, -2, -43, -11, -10, 15, 864, 87,M
2025-02-19 17:33:21.128,812, 234, 602, -3, -10, 61, -10, -8, 14, 816, 89,M
2025-02-19 17:33:21.229,743, 87, 531, -27, 85, 14, -10, -7, 14, 805, 47,M
2025-02-19 17:33:22.048,750, -28, 654, 3, -5, -2, -12, -7, 13, 787, 55,N
2025-02-19 17:33:22.149,751, -37, 659, 6, -6, -5, -11, -9, 13, 795, 61,N
2025-02-19 17:33:22.256,768, 20, 641, 10, -4, -14, -12, -9, 13, 793, 73,N
2025-02-19 17:33:22.366,786, -57, 571, -10, 2, -25, -13, -12, 16, 622, 90,N
2025-02-19 17:33:22.468,804, 184, 642, 25, 1, 31, -10, -9, 15, 525, 91,N
2025-02-19 17:33:22.578,826, -143, 585, 3, -1, -31, -11, -11, 14, 718, 88,N
2025-02-19 17:33:22.678,851, 215, 665, -10, -15, 12, -12, -8, 14, 617, 92,N
2025-02-19 17:33:22.792,979, 38, 651, -7, 20, 13, -11, -11, 16, 852, 81,N
2025-02-19 17:33:22.898,545, -110, 708, 6, -14, -7, -11, -8, 13, 795, 38,N
2025-02-19 17:33:23.718,752, -42, 641, 1, -3, -2, -11, -11, 15, 824, 65,O
2025-02-19 17:33:23.812,765, -42, 636, 2, -7, -1, -11, -10, 15, 832, 73,O
2025-02-19 17:33:23.923,792, 26, 592, -6, -9, -9, -11, -11, 16, 825, 90,O
2025-02-19 17:33:24.029,755, -36, 632, 10, 6, -23, -10, -11, 14, 480, 93,O
2025-02-19 17:33:24.138,867, 108, 576, -15, -23, 70, -12, -10, 15, 285, 90,O
2025-02-19 17:33:24.244,717, 29, 640, 13, -12, -50, -10, -9, 17, 783, 92,O
2025-02-19 17:33:24.348,954, 125, 544, -6, 21, 19, -12, -11, 14, 801, 86,O
2025-02-19 17:33:24.460,485, -167, 742, -23, 18, 18, -10, -9, 12, 722, 32,O
2025-02-19 17:33:24.565,817, -10, 663, 11, -13, -4, -11, -9, 12, 746, 39,O
2025-02-19 17:33:26.178,725, -55, 671, 0, 0, 0, -10, -9, 13, 595, 42,P
2025-02-19 17:33:26.278,725, -58, 663, 10, 0, 0, -11, -9, 13, 508, 41,P
2025-02-19 17:33:26.384,700, -31, 679, 14, 5, 1, -10, -8, 12, 398, 39,P
2025-02-19 17:33:26.489,746, -84, 675, 3, 1, -6, -9, -9, 10, 342, 40,P
2025-02-19 17:33:26.601,736, -10, 679, 0, -2, 1, -11, -8, 12, 241, 40,P
2025-02-19 17:33:26.712,811, -42, 687, -51, -9, -4, -11, -9, 12, 526, 43,P
2025-02-19 17:33:26.818,655, -145, 689, -27, -5, 12, -12, -8, 12, 790, 39,P
2025-02-19 17:33:26.925,721, -156, 645, -7, -17, 0, -11, -8, 14, 831, 46,P
2025-02-19 17:33:27.031,790, -89, 616, 5, -15, -9, -11, -9, 15, 842, 66,P
2025-02-19 17:33:27.142,726, -126, 638, 5, -6, -10, -12, -8, 15, 847, 75,P
2025-02-19 17:33:27.244,810, -93, 603, -2, 7, 5, -11, -9, 16, 828, 85,P
2025-02-19 17:33:27.355,717, -157, 605, 12, -13, -33, -12, -9, 16, 820, 94,P
2025-02-19 17:33:27.459,811, 99, 641, -3, -17, 54, -12, -10, 16, 586, 96,P
2025-02-19 17:33:27.568,807, -167, 562, 45, 17, -50, -11, -9, 15, 762, 93,P
2025-02-19 17:33:27.678,712, 106, 780, -9, -19, -3, -11, -11, 15, 820, 81,P
2025-02-19 17:33:27.785,1016, -52, 480, 35, 23, 6, -12, -10, 15, 657, 91,P
2025-02-19 17:33:27.892,342, -248, 766, -14, 4, 0, -11, -6, 10, 673, 28,P
2025-02-19 17:33:30.608,748, -45, 645, 3, -7, -4, -10, -8, 14, 857, 0,Q
2025-02-19 17:33:30.698,767, -34, 635, 4, -6, -3, -11, -9, 15, 861, 59,Q
2025-02-19 17:33:30.817,724, -18, 629, 19, -27, -11, -11, -10, 14, 876, 75,Q
2025-02-19 17:33:30.923,715, -51, 692, -19, 0, -40, -10, -12, 15, 842, 83,Q
2025-02-19 17:33:31.029,858, 369, 511, -4, -20, 66, -10, -12, 14, 656, 91,Q
2025-02-19 17:33:31.131,772, -38, 559, -11, 10, -20, -11, -11, 15, 845, 88,Q
2025-02-19 17:33:31.243,919, -104, 591, 29, -2, 4, -10, -11, 15, 761, 88,Q
2025-02-19 17:33:31.348,811, 106, 615, 4, 6, 26, -10, -9, 16, 805, 92,Q
2025-02-19 17:33:31.455,474, -175, 735, -3, 34, 7, -9, -6, 11, 826, 26,Q
2025-02-19 17:33:32.278,760, -21, 634, -1, -4, -3, -12, -10, 14, 848, 65,R
2025-02-19 17:33:32.372,754, -21, 628, 2, -2, -2, -11, -10, 15, 854, 70,R
2025-02-19 17:33:32.479,748, -12, 628, 7, -10, -12, -11, -11, 16, 846, 81,R
2025-02-19 17:33:32.584,808, -265, 713, 23, -1, 8, -9, -11, 16, 831, 87,R
2025-02-19 17:33:32.691,732, 94, 532, 26, 15, -70, -9, -8, 14, 852, 88,R
2025-02-19 17:33:32.799,665, 72, 722, -9, -23, 11, -9, -12, 14, 881, 79,R
2025-02-19 17:33:32.909,990, -128, 384, 13, 7, -10, -10, -11, 15, 807, 89,R
2025-02-19 17:33:33.009,823, 105, 627, 7, 2, 14, -11, -8, 14, 837, 90,R
2025-02-19 17:33:33.122,429, -209, 762, -4, 35, 9, -8, -7, 11, 832, 23,R
2025-02-19 17:33:33.228,806, -9, 673, -9, -6, -8, -8, -8, 12, 782, 27,R
2025-02-19 17:33:33.942,706, -31, 667, 2, -9, -4, -9, -8, 12, 775, 40,S
2025-02-19 17:33:34.044,770, -13, 645, 4, -10, -4, -11, -9, 15, 810, 47,S
2025-02-19 17:33:34.150,749, -10, 639, 2, -8, -5, -11, -9, 13, 823, 54,S
2025-02-19 17:33:34.258,722, -15, 649, 20, -37, -16, -10, -11, 15, 857, 73,S
2025-02-19 17:33:34.363,770, -76, 577, 2, 4, -26, -10, -12, 16, 796, 86,S
2025-02-19 17:33:34.474,692, 178, 698, -5, -15, 33, -10, -10, 15, 802, 87,S
2025-02-19 17:33:34.580,1006, 90, 419, 3, 29, 0, -12, -10, 14, 566, 89,S
2025-02-19 17:33:34.688,336, -235, 789, -29, 30, 17, -8, -7, 11, 643, 24,S
2025-02-19 17:33:35.608,791, 12, 645, 19, -13, -10, -11, -11, 14, 853, 73,T
2025-02-19 17:33:35.701,766, 14, 648, 1, 11, -3, -11, -10, 15, 873, 0,T
2025-02-19 17:33:35.813,669, -19, 637, -4, -8, -20, -12, -11, 12, 786, 77,T
2025-02-19 17:33:35.919,748, 225, 623, -5, -45, 10, -12, -12, 15, 873, 79,T
2025-02-19 17:33:36.026,831, 130, 663, -6, 40, -6, -12, -12, 15, 875, 75,T
2025-02-19 17:33:36.132,855, -79, 698, -8, -4, 1, -10, -11, 14, 839, 84,T
2025-02-19 17:33:36.239,903, 107, 616, 4, 3, 22, -12, -9, 14, 691, 91,T
2025-02-19 17:33:36.345,483, -191, 751, -33, 44, 16, -10, -7, 12, 760, 0,T
2025-02-19 17:33:37.164,729, -54, 665, 2, -5, -4, -11, -11, 12, 706, 43,U
2025-02-19 17:33:37.258,753, -44, 650, 4, -10, -5, -11, -11, 14, 720, 50,U
2025-02-19 17:33:37.369,766, -10, 646, 3, -2, -5, -13, -9, 14, 733, 56,U
2025-02-19 17:33:37.478,668, -61, 656, 11, -22, -35, -12, -11, 13, 668, 73,U
2025-02-19 17:33:37.583,893, 187, 620, -4, -24, 70, -12, -10, 14, 563, 87,U
2025-02-19 17:33:37.693,698, -101, 686, 12, -3, -49, -11, -9, 14, 850, 0,U
2025-02-19 17:33:37.799,791, 263, 582, -19, -16, 73, -10, -11, 16, 717, 87,U
2025-02-19 17:33:37.906,761, 21, 549, -37, 91, 17, -11, -8, 15, 782, 0,U
2025-02-19 17:33:38.724,776, -27, 652, 11, -5, -5, -12, -9, 14, 745, 46,V
2025-02-19 17:33:38.820,714, -32, 665, 9, -7, -6, -10, -9, 13, 788, 52,V
2025-02-19 17:33:38.924,761, 0, 657, 9, -10, -10, -11, -9, 13, 781, 66,V
2025-02-19 17:33:39.036,661, -18, 612, 12, -19, -46, -11, -11, 13, 471, 81,V
2025-02-19 17:33:39.143,793, 31, 684, -37, -33, 94, -10, -12, 14, 772, 83,V
2025-02-19 17:33:39.248,756, 42, 615, 34, -10, -68, -11, -11, 14, 841, 0,V
2025-02-19 17:33:39.355,893, 55, 643, -13, 13, 16, -10, -13, 16, 878, 77,V
2025-02-19 17:33:39.458,543, -101, 684, -15, 14, 19, -10, -9, 14, 795, 32,V
2025-02-19 17:33:40.278,737, -38, 659, 4, 0, -2, -12, -10, 13, 724, 0,W
2025-02-19 17:33:40.376,717, -27, 652, 7, -1, 2, -11, -11, 14, 655, 0,W
2025-02-19 17:33:40.483,722, -2, 661, 5, 1, -6, -10, -9, 13, 542, 60,W
2025-02-19 17:33:40.593,686, 68, 621, 10, -15, -31, -13, -10, 13, 354, 75,W
2025-02-19 17:33:40.703,843, -223, 755, -2, -11, 63, -11, -14, 11, 566, 86,W
2025-02-19 17:33:40.808,735, 94, 521, 40, -8, -59, -10, -10, 14, 810, 82,W
2025-02-19 17:33:40.908,773, -54, 607, 16, 1, -27, -11, -12, 14, 846, 78,W
2025-02-19 17:33:41.022,871, 211, 600, -29, -25, -6, -11, -9, 15, 737, 87,W
2025-02-19 17:33:41.129,836, -17, 636, -15, 0, 14, -12, -11, 17, 887, 85,W
2025-02-19 17:33:41.240,529, -151, 704, -19, 19, 14, -11, -8, 14, 828, 33,W
2025-02-19 17:33:42.148,796, 3, 605, 0, -2, -2, -10, -11, 17, 793, 80,X
2025-02-19 17:33:42.252,797, -10, 605, 0, -1, -5, -10, -10, 15, 818, 87,X
2025-02-19 17:33:42.358,786, -1, 612, -2, -1, -4, -11, -11, 16, 833, 87,X
2025-02-19 17:33:42.465,793, 40, 590, 2, 0, -2, -10, -11, 15, 810, 87,X
2025-02-19 17:33:42.571,774, 12, 621, 0, 0, 2, -12, -12, 15, 832, 86,X
2025-02-19 17:33:42.680,729, -82, 651, 10, 0, -13, -12, -12, 15, 817, 87,X
2025-02-19 17:33:42.788,873, 143, 513, 1, 17, 33, -11, -9, 17, 125, 89,X
2025-02-19 17:33:42.895,751, 67, 616, 14, 33, -61, -11, -11, 13, 97, 69,X
2025-02-19 17:33:43.004,963, 132, 733, -74, -41, 69, -11, -13, 11, 625, 83,X
2025-02-19 17:33:43.108,827, -21, 628, 11, -3, 9, -11, -7, 16, 746, 89,X
2025-02-19 17:33:43.218,564, -196, 684, -15, 36, -2, -11, -9, 12, 657, 34,X
2025-02-19 17:33:44.132,743, -21, 649, 2, -3, -4, -11, -9, 13, 648, 60,Y
2025-02-19 17:33:44.229,752, 3, 658, 5, -8, -7, -11, -10, 13, 633, 69,Y
2025-02-19 17:33:44.339,714, -21, 644, 10, -1, -12, -11, -11, 14, 511, 74,Y
2025-02-19 17:33:44.439,806, -14, 623, -5, 3, -4, -11, -12, 14, 277, 85,Y
2025-02-19 17:33:44.553,756, 85, 598, 13, -2, 17, -12, -10, 15, 702, 90,Y
2025-02-19 17:33:44.658,483, -166, 735, 5, -32, -14, -10, -11, 14, 853, 68,Y
2025-02-19 17:33:44.770,727, -41, 631, -5, 4, 10, -10, -12, 16, 659, 90,Y
2025-02-19 17:33:44.872,751, -17, 597, -27, -22, 57, -12, -11, 16, 3, 94,Y
2025-02-19 17:33:44.983,843, -57, 490, -33, 80, 19, -11, -9, 14, 557, 51,Y
2025-02-19 17:33:45.088,648, -150, 712, -3, -14, -21, -10, -6, 13, 488, 33,Y
2025-02-19 17:33:45.908,750, -63, 647, 2, -2, -1, -11, -9, 15, 681, 65,Z
2025-02-19 17:33:46.003,710, -66, 654, 2, 2, -3, -12, -10, 16, 635, 66,Z
2025-02-19 17:33:46.108,813, 0, 735, 19, 8, -25, -13, -11, 16, 235, 90,Z
2025-02-19 17:33:46.221,650, 60, 687, 19, -21, 13, -11, -13, 16, 850, 85,Z
2025-02-19 17:33:46.321,785, 203, 567, 0, 18, 17, -12, -10, 15, 623, 89,Z
2025-02-19 17:33:46.430,765, 51, 635, -1, -37, 13, -10, -9, 15, 680, 86,Z
2025-02-19 17:33:46.538,799, 43, 615, 0, 11, 6, -10, -10, 15, 818, 85,Z
2025-02-19 17:33:46.648,712, -74, 672, -5, -4, -8, -10, -9, 14, 776, 50,Z
2025-02-19 17:33:46.757,707, -76, 651, -15, 7, 0, -10, -8, 13, 651, 44,Z
2025-02-19 17:33:47.771,756, -40, 640, 0, -3, 0, -10, -9, 14, 792, 58,a
2025-02-19 17:33:47.871,769, -41, 632, 0, -4, 0, -11, -10, 15, 799, 64,a
2025-02-19 17:33:47.978,767, -38, 626, 8, -11, 0, -11, -10, 15, 816, 72,a
2025-02-19 17:33:48.081,773, -2, 624, -1, 1, -4, -11, -11, 16, 835, 88,a
2025-02-19 17:33:48.191,816, -111, 574, 26, 15, -11, -11, -11, 14, 636, 83,a
2025-02-19 17:33:48.301,744, 43, 645, -6, -14, -7, -9, -8, 15, 810, 89,a
2025-02-19 17:33:48.408,854, -93, 728, 2, -4, 53, -11, -12, 15, 830, 87,a
2025-02-19 17:33:48.519,916, -11, 590, -21, 78, 11, -11, -6, 15, 833, 61,a
2025-02-19 17:33:49.331,726, -83, 661, 6, -6, 0, -11, -8, 14, 777, 48,b
2025-02-19 17:33:49.428,763, -45, 658, 3, -3, -5, -11, -9, 14, 794, 54,b
2025-02-19 17:33:49.540,652, -32, 641, 11, -20, -24, -10, -10, 14, 798, 66,b
2025-02-19 17:33:49.649,763, -125, 618, 15, 2, -21, -12, -10, 16, 689, 87,b
2025-02-19 17:33:49.751,792, 85, 672, 11, 1, 21, -10, -9, 15, 781, 88,b
2025-02-19 17:33:49.858,665, -16, 728, -9, -21, 8, -9, -11, 13, 857, 84,b
2025-02-19 17:33:49.968,787, 56, 512, 35, 41, -24, -11, -9, 15, 641, 90,b
2025-02-19 17:33:50.075,486, -115, 791, -41, 26, 13, -10, -7, 11, 716, 31,b
2025-02-19 17:33:50.889,760, -51, 645, 0, -3, -1, -13, -9, 14, 782, 63,c
2025-02-19 17:33:50.989,757, -61, 646, -2, -4, 1, -10, -9, 14, 800, 66,c
2025-02-19 17:33:51.098,791, 82, 607, -11, -5, -10, -11, -10, 16, 823, 88,c
2025-02-19 17:33:51.205,796, -141, 588, 26, 14, 1, -10, -11, 16, 490, 90,c
2025-02-19 17:33:51.308,747, -26, 652, 24, -13, 5, -11, -7, 14, 763, 91,c
2025-02-19 17:33:51.418,690, -70, 663, -53, 76, 35, -9, -7, 13, 799, 33,c
2025-02-19 17:33:52.338,756, -88, 641, -2, -4, -1, -11, -9, 13, 764, 58,d
2025-02-19 17:33:52.429,754, -81, 635, 1, -5, 0, -11, -9, 13, 776, 63,d
2025-02-19 17:33:52.539,744, -81, 637, 6, -16, -7, -10, -11, 15, 793, 76,d
2025-02-19 17:33:52.648,759, -146, 645, -15, -1, -28, -12, -10, 16, 702, 92,d
2025-02-19 17:33:52.758,801, 121, 586, -13, -22, 47, -12, -10, 15, 575, 95,d
2025-02-19 17:33:52.858,735, -402, 655, 26, 3, -47, -10, -12, 16, 830, 90,d
2025-02-19 17:33:52.974,779, 179, 507, -23, -18, 64, -11, -10, 14, 543, 86,d
2025-02-19 17:33:53.077,764, -79, 549, -26, 71, 13, -11, -9, 15, 786, 48,d
2025-02-19 17:33:53.888,766, -59, 625, -2, 0, -1, -10, -9, 15, 791, 62,e
2025-02-19 17:33:53.989,760, -61, 637, -3, 0, -3, -10, -8, 14, 776, 62,e
2025-02-19 17:33:54.101,713, -102, 636, -3, -2, -7, -12, -9, 14, 706, 64,e
2025-02-19 17:33:54.202,898, 88, 512, 6, -4, 0, -11, -9, 16, 681, 91,e
2025-02-19 17:33:54.308,711, -67, 695, -2, -3, -22, -11, -10, 15, 830, 91,e
2025-02-19 17:33:54.420,934, 94, 510, 8, -8, 48, -11, -10, 15, 481, 84,e
2025-02-19 17:33:54.529,1056, -23, 730, 16, 42, 11, -10, -9, 14, 848, 77,e
2025-02-19 17:33:54.633,511, -169, 707, -24, 4, 5, -8, -6, 12, 704, 25,e
2025-02-19 17:33:55.453,765, -86, 626, 3, -3, 1, -11, -9, 15, 739, 66,f
2025-02-19 17:33:55.551,768, -95, 618, 0, -5, 2, -10, -10, 15, 748, 69,f
2025-02-19 17:33:55.656,728, -110, 615, 5, -28, -12, -10, -9, 16, 734, 85,f
2025-02-19 17:33:55.764,823, 7, 578, 26, 12, -78, -11, -9, 16, 625, 87,f
2025-02-19 17:33:55.870,775, 125, 611, 4, -9, 3, -11, -12, 15, 867, 86,f
2025-02-19 17:33:55.981,512, -18, 530, -11, -1, -31, -11, -10, 12, 746, 70,f
2025-02-19 17:33:56.086,744, 113, 588, 23, -32, 29, -10, -11, 14, 848, 90,f
2025-02-19 17:33:56.194,792, 38, 498, -58, 76, 27, -10, -10, 15, 815, 53,f
2025-02-19 17:33:56.300,681, -45, 689, 3, -17, -6, -11, -8, 13, 734, 36,f
2025-02-19 17:33:57.119,771, -48, 630, 0, -2, -1, -11, -10, 15, 802, 58,g
2025-02-19 17:33:57.208,766, -53, 623, 2, -4, 0, -10, -8, 14, 811, 61,g
2025-02-19 17:33:57.325,720, -44, 617, 18, -41, -25, -12, -9, 17, 829, 92,g
2025-02-19 17:33:57.435,754, -146, 539, -12, 7, -35, -10, -12, 15, 491, 92,g
2025-02-19 17:33:57.535,792, 61, 607, 26, -10, 14, -12, -9, 15, 787, 93,g
2025-02-19 17:33:57.648,807, -103, 603, 28, 4, -3, -13, -10, 16, 851, 87,g
2025-02-19 17:33:57.755,765, -31, 500, -22, 6, 36, -10, -7, 16, 289, 101,g
2025-02-19 17:33:57.860,651, -110, 668, -16, 71, 9, -10, -5, 11, 513, 31,g
2025-02-19 17:33:57.967,623, -119, 750, -8, -8, -13, -9, -5, 11, 687, 22,g
2025-02-19 17:33:58.785,766, -107, 649, 5, -10, -9, -10, -9, 14, 663, 51,h
2025-02-19 17:33:58.885,760, -67, 646, 6, -6, -12, -11, -10, 14, 722, 62,h
2025-02-19 17:33:58.991,931, -17, 732, 2, -2, -18, -10, -11, 15, 670, 89,h
2025-02-19 17:33:59.098,825, 240, 518, 1, -20, 47, -10, -9, 14, 586, 0,h
2025-02-19 17:33:59.208,720, -198, 715, -18, -6, -34, -12, -11, 16, 835, 0,h
2025-02-19 17:33:59.311,932, 82, 583, -1, -1, 38, -13, -8, 16, 826, 82,h
2025-02-19 17:33:59.417,455, -247, 737, -16, 27, 2, -9, -6, 12, 811, 29,h
2025-02-19 17:34:00.338,763, -83, 637, 0, -1, -2, -10, -7, 14, 765, 59,i
2025-02-19 17:34:00.433,763, -74, 641, 2, -2, -3, -12, -8, 13, 763, 62,i
2025-02-19 17:34:00.543,687, -87, 631, 11, -15, -17, -11, -9, 14, 724, 72,i
2025-02-19 17:34:00.646,768, -80, 651, 2, 2, -9, -12, -10, 13, 660, 89,i
2025-02-19 17:34:00.751,759, 27, 625, -4, -14, 38, -11, -9, 16, 539, 81,i
2025-02-19 17:34:00.858,1113, 39, 645, 3, 67, -14, -11, -9, 16, 739, 63,i
2025-02-19 17:34:00.974,-958, -418, 424, 42, 14, -80, -11, -10, 15, 761, 88,i
2025-02-19 17:34:01.078,971, -64, 713, -5, 49, 28, -10, -11, 16, 833, 72,i
2025-02-19 17:34:01.185,619, -137, 699, 3, -10, 2, -11, -8, 13, 778, 36,i
2025-02-19 17:34:02.005,732, -103, 653, 8, -11, -2, -11, -8, 14, 861, 48,j
2025-02-19 17:34:02.100,783, -73, 628, 6, -9, -4, -10, -8, 13, 863, 61,j
2025-02-19 17:34:02.207,762, -38, 604, 5, -11, -8, -10, -8, 14, 864, 74,j
2025-02-19 17:34:02.314,775, -175, 593, 16, 4, -25, -11, -9, 15, 853, 86,j
2025-02-19 17:34:02.418,890, 102, 524, -32, -5, 39, -10, -7, 16, 534, 99,j
2025-02-19 17:34:02.534,501, -369, 701, -37, -46, -52, -11, -9, 15, 850, 81,j
2025-02-19 17:34:02.637,982, -15, 618, 13, 23, 25, -12, -11, 16, 859, 80,j
2025-02-19 17:34:02.738,559, -163, 715, 6, -16, -5, -9, -7, 13, 820, 36,j
2025-02-19 17:34:03.658,750, -51, 635, 1, 1, -6, -12, -9, 14, 592, 68,k
2025-02-19 17:34:03.759,698, -42, 631, 10, -21, -18, -11, -9, 15, 597, 87,k
2025-02-19 17:34:03.865,771, -10, 634, 2, -2, -8, -11, -11, 16, 490, 86,k
2025-02-19 17:34:03.968,764, 161, 636, -1, -5, 60, -11, -10, 15, 165, 0,k
2025-02-19 17:34:04.078,724, 8, 611, 2, -25, -36, -10, -10, 16, 765, 88,k
2025-02-19 17:34:04.185,820, 70, 737, -15, 43, 5, -11, -9, 13, 687, 82,k
2025-02-19 17:34:04.296,736, 10, 599, -24, -47, 55, -10, -10, 15, 685, 88,k
2025-02-19 17:34:04.401,900, 37, 636, -28, 88, 15, -11, -8, 15, 762, 62,k
2025-02-19 17:34:04.508,645, -128, 697, 6, -20, -19, -10, -8, 13, 603, 36,k
2025-02-19 17:34:05.228,770, -31, 638, -6, -3, -2, -11, -9, 14, 568, 67,l
2025-02-19 17:34:05.318,760, -48, 645, 1, -4, -6, -11, -11, 14, 602, 71,l
2025-02-19 17:34:05.433,728, -33, 659, -7, -6, -17, -12, -12, 14, 544, 77,l
2025-02-19 17:34:05.538,772, -81, 617, -2, 0, -11, -12, -11, 15, 370, 88,l
2025-02-19 17:34:05.648,810, 148, 535, -8, -20, 54, -10, -10, 16, 68, 95,l
2025-02-19 17:34:05.753,871, -2, 592, -26, 72, 25, -11, -9, 13, 639, 56,l
2025-02-19 17:34:05.858,711, -92, 659, 7, -22, -19, -9, -8, 12, 631, 42,l
2025-02-19 17:34:05.967,734, -95, 651, -2, 1, 0, -11, -7, 14, 633, 49,l
2025-02-19 17:34:06.784,731, -82, 658, 2, -3, 1, -10, -8, 14, 703, 57,m
2025-02-19 17:34:06.880,746, -65, 641, 3, -3, -3, -10, -8, 14, 695, 62,m
2025-02-19 17:34:06.988,717, -40, 638, 4, -1, -12, -11, -10, 14, 655, 68,m
2025-02-19 17:34:07.100,745, -170, 705, -23, -5, 18, -10, -9, 14, 607, 87,m
2025-02-19 17:34:07.199,889, 20, 561, 12, -5, -31, -12, -10, 14, 326, 92,m
2025-02-19 17:34:07.308,712, -38, 682, -10, -13, 20, -10, -9, 14, 759, 90,m
2025-02-19 17:34:07.420,814, -32, 519, 43, 2, -48, -10, -9, 16, 819, 91,m
2025-02-19 17:34:07.527,849, 189, 533, -7, -11, 47, -11, -9, 18, 683, 96,m
2025-02-19 17:34:07.634,548, -185, 655, -24, 51, 21, -8, -7, 14, 841, 40,m
2025-02-19 17:34:08.452,758, -42, 646, -1, -1, -1, -12, -9, 14, 612, 61,n
2025-02-19 17:34:08.547,757, -30, 645, -2, -1, -3, -11, -9, 14, 591, 64,n
2025-02-19 17:34:08.658,802, 96, 689, -13, -1, -16, -12, -10, 14, 401, 85,n
2025-02-19 17:34:08.764,759, -19, 680, -16, -14, 41, -11, -9, 14, 322, 80,n
2025-02-19 17:34:08.870,758, -12, 504, 35, 5, -59, -10, -11, 15, 610, 84,n
2025-02-19 17:34:08.978,724, 46, 656, -22, -17, 47, -10, -12, 14, 732, 81,n
2025-02-19 17:34:09.084,1023, -72, 641, 5, 52, 7, -11, -9, 15, 770, 0,n
2025-02-19 17:34:09.188,699, -76, 682, 0, -9, -8, -10, -9, 14, 729, 0,n
2025-02-19 17:34:09.296,744, -63, 649, -7, 0, -2, -12, -9, 14, 714, 0,n
2025-02-19 17:34:09.399,754, -61, 640, -2, -4, -3, -11, -9, 12, 723, 0,n
2025-02-19 17:34:09.514,760, -80, 635, 0, -1, -1, -11, -10, 15, 740, 56,n
2025-02-19 17:34:09.620,741, -67, 630, -1, 0, -2, -11, -10, 15, 744, 57,n
2025-02-19 17:34:09.731,754, -63, 647, -4, -2, -2, -11, -9, 15, 739, 58,n
2025-02-19 17:34:11.448,764, -36, 635, -2, 0, -1, -13, -9, 13, 792, 63,o
2025-02-19 17:34:11.538,759, -41, 635, -3, 0, 0, -11, -11, 15, 798, 64,o
2025-02-19 17:34:11.652,764, -50, 626, -1, -1, 0, -12, -10, 15, 802, 66,o
2025-02-19 17:34:11.752,789, -33, 621, 7, 4, 7, -11, -9, 14, 828, 66,o
2025-02-19 17:34:11.865,736, -53, 636, -3, 5, 6, -11, -9, 14, 839, 55,o
2025-02-19 17:34:11.968,682, -117, 670, -1, 4, 5, -12, -8, 14, 856, 42,o
2025-02-19 17:34:12.078,738, -62, 644, 1, -8, -1, -10, -8, 13, 860, 50,o
2025-02-19 17:34:12.188,813, -28, 609, 0, -12, -8, -10, -9, 14, 836, 68,o
2025-02-19 17:34:12.288,737, -48, 640, 6, -6, 1, -10, -9, 15, 842, 71,o
2025-02-19 17:34:12.399,704, -73, 656, 15, -25, -14, -11, -8, 16, 855, 87,o
2025-02-19 17:34:12.508,758, -216, 546, 1, 6, -32, -11, -9, 15, 675, 80,o
2025-02-19 17:34:12.614,733, 174, 694, 0, -25, -14, -12, -8, 17, 822, 0,o
2025-02-19 17:34:12.721,904, 24, 594, -5, 22, 8, -12, -10, 15, 834, 0,o
2025-02-19 17:34:12.831,564, -98, 695, -28, 19, 30, -9, -7, 12, 726, 31,o
2025-02-19 17:34:13.548,748, -63, 630, 0, -1, -2, -11, -8, 15, 710, 51,p
2025-02-19 17:34:13.643,755, -52, 639, 0, -2, -1, -11, -8, 15, 720, 53,p
2025-02-19 17:34:13.753,745, -41, 636, 3, -5, -5, -12, -8, 14, 718, 57,p
2025-02-19 17:34:13.859,782, -21, 614, 3, -7, -10, -12, -10, 16, 704, 71,p
2025-02-19 17:34:13.965,838, -307, 647, 34, 6, 35, -11, -9, 15, 681, 80,p
2025-02-19 17:34:14.068,780, 46, 630, 10, -2, 8, -9, -8, 16, 568, 93,p
2025-02-19 17:34:14.183,636, -85, 729, -3, -19, -12, -11, -10, 14, 860, 81,p
2025-02-19 17:34:14.285,888, 73, 430, 7, 26, 12, -9, -9, 16, 762, 85,p
2025-02-19 17:34:14.396,446, -171, 800, -21, 28, 13, -9, -6, 11, 788, 21,p
2025-02-19 17:34:15.216,756, -47, 648, 0, -1, 0, -11, -9, 15, 681, 41,q
2025-02-19 17:34:15.309,770, -38, 643, 0, -2, -1, -10, -8, 15, 689, 39,q
2025-02-19 17:34:15.414,762, -33, 640, 0, -3, -2, -10, -9, 14, 712, 46,q
2025-02-19 17:34:15.518,761, -28, 627, 1, -6, -3, -11, -8, 15, 729, 50,q
2025-02-19 17:34:15.631,664, -68, 666, 22, -31, -23, -12, -9, 16, 772, 68,q
2025-02-19 17:34:15.738,765, -83, 581, 17, 17, -8, -11, -10, 15, 405, 0,q
2025-02-19 17:34:15.847,746, 53, 598, -1, -12, -21, -10, -9, 15, 777, 0,q
2025-02-19 17:34:15.948,750, -5, 710, -16, -4, 55, -10, -9, 14, 682, 82,q
2025-02-19 17:34:16.058,792, 12, 543, 32, -8, -12, -9, -8, 15, 785, 0,q
2025-02-19 17:34:16.168,466, -175, 712, -44, 57, 25, -10, -5, 11, 769, 24,q
2025-02-19 17:34:17.087,730, -64, 654, 3, -9, -7, -11, -9, 13, 678, 57,r
2025-02-19 17:34:17.184,767, -39, 646, -1, -2, 0, -10, -10, 14, 667, 63,r
2025-02-19 17:34:17.289,723, -39, 643, 4, -4, -10, -11, -10, 15, 630, 68,r
2025-02-19 17:34:17.398,770, -58, 611, -1, 1, -19, -10, -11, 13, 518, 86,r
2025-02-19 17:34:17.505,781, 98, 628, -3, -2, 21, -11, -10, 16, 446, 90,r
2025-02-19 17:34:17.610,777, 93, 625, 0, -4, -2, -11, -11, 15, 824, 73,r
2025-02-19 17:34:17.721,573, -145, 705, -38, 44, 26, -10, -8, 12, 784, 36,r
2025-02-19 17:34:18.638,743, -61, 642, 0, -4, -2, -11, -9, 14, 751, 57,s
2025-02-19 17:34:18.732,763, -52, 629, 4, -4, 0, -10, -9, 15, 768, 63,s
2025-02-19 17:34:18.838,770, -17, 621, 4, -5, -1, -12, -9, 13, 785, 69,s
2025-02-19 17:34:18.950,697, -19, 610, 5, -14, -6, -12, -10, 14, 816, 73,s
2025-02-19 17:34:19.057,783, -81, 662, 2, 7, -18, -10, -10, 14, 634, 82,s
2025-02-19 17:34:19.163,724, 70, 636, 12, -13, 38, -11, -9, 14, 766, 0,s
2025-02-19 17:34:19.270,752, 15, 557, 32, 32, -18, -10, -8, 15, 350, 85,s
2025-02-19 17:34:19.380,538, -59, 692, -33, 45, 22, -10, -8, 11, 635, 34,s
2025-02-19 17:34:20.298,731, -48, 656, 1, -8, -5, -11, -10, 13, 737, 60,t
2025-02-19 17:34:20.393,839, -15, 711, 10, 0, -15, -11, -12, 17, 728, 86,t
2025-02-19 17:34:20.503,708, -186, 628, 36, 8, -23, -12, -11, 14, 527, 85,t
2025-02-19 17:34:20.606,776, 103, 663, 7, -5, 25, -10, -9, 13, 802, 0,t
2025-02-19 17:34:20.713,525, -118, 630, 15, 1, -35, -11, -10, 14, 473, 61,t
2025-02-19 17:34:20.818,832, 52, 550, -12, -42, 20, -11, -10, 13, 736, 80,t
2025-02-19 17:34:20.925,735, 51, 630, 1, 26, 13, -9, -9, 15, 856, 78,t
2025-02-19 17:34:21.030,594, -70, 688, -1, -3, 0, -10, -9, 12, 761, 36,t
2025-02-19 17:34:21.753,746, -46, 649, -3, -2, 1, -9, -8, 13, 579, 54,u
2025-02-19 17:34:21.851,747, -9, 639, 4, -4, -2, -12, -9, 12, 580, 61,u
2025-02-19 17:34:21.958,675, -36, 646, 3, -14, -11, -12, -10, 14, 484, 68,u
2025-02-19 17:34:22.063,755, -15, 639, 1, 2, -4, -10, -12, 13, 319, 79,u
2025-02-19 17:34:22.175,787, 173, 580, 18, -18, 45, -10, -10, 14, 631, 76,u
2025-02-19 17:34:22.280,718, -220, 666, -5, 0, -21, -11, -12, 16, 812, 83,u
2025-02-19 17:34:22.387,843, 173, 558, -6, -2, 34, -11, -8, 16, 795, 83,u
2025-02-19 17:34:22.498,547, -194, 732, -30, 44, 5, -10, -7, 13, 778, 31,u
2025-02-19 17:34:23.314,737, -45, 647, -1, -2, -2, -11, -8, 14, 635, 57,v
2025-02-19 17:34:23.411,766, -38, 658, 0, -5, -3, -13, -10, 13, 735, 65,v
2025-02-19 17:34:23.518,749, -17, 641, 11, -2, -9, -10, -10, 14, 712, 73,v
2025-02-19 17:34:23.618,761, 27, 647, -5, 5, -16, -14, -11, 15, 467, 83,v
2025-02-19 17:34:23.730,784, -79, 674, 1, -18, 57, -10, -12, 13, 676, 0,v
2025-02-19 17:34:23.841,729, -34, 561, 23, -8, -49, -11, -10, 14, 805, 84,v
2025-02-19 17:34:23.948,946, 103, 672, -34, 59, 32, -10, -10, 14, 848, 62,v
2025-02-19 17:34:24.054,678, -69, 687, -3, -5, -4, -10, -9, 12, 785, 35,v
2025-02-19 17:34:24.868,743, -49, 648, 9, -4, -2, -11, -10, 14, 650, 60,w
2025-02-19 17:34:24.968,750, -34, 642, 13, 5, -1, -12, -8, 13, 534, 60,w
2025-02-19 17:34:25.074,727, -5, 659, 8, 1, -9, -12, -10, 13, 238, 55,w
2025-02-19 17:34:25.179,746, 11, 642, 0, 4, -12, -11, -10, 13, 8, 80,w
2025-02-19 17:34:25.289,758, 176, 612, 11, -11, 20, -9, -9, 13, 678, 86,w
2025-02-19 17:34:25.398,658, -236, 724, 5, 3, -20, -11, -10, 14, 799, 81,w
2025-02-19 17:34:25.508,862, 144, 629, -9, -12, 22, -11, -9, 15, 674, 88,w
2025-02-19 17:34:25.612,1062, 34, 622, -11, 42, 21, -11, -9, 15, 860, 75,w
2025-02-19 17:34:26.630,749, -35, 648, 3, -8, -3, -12, -9, 14, 682, 62,x
2025-02-19 17:34:26.725,746, -42, 636, 0, -1, -2, -11, -8, 13, 707, 66,x
2025-02-19 17:34:26.831,757, -37, 631, 0, -2, -2, -11, -8, 14, 743, 69,x
2025-02-19 17:34:26.939,1094, -23, 658, 16, -6, -9, -9, -9, 15, 811, 84,x
2025-02-19 17:34:27.048,615, -10, 750, 31, 20, 22, -11, -9, 14, 302, 86,x
2025-02-19 17:34:27.158,896, 25, 683, 10, 17, -42, -10, -10, 12, 214, 80,x
2025-02-19 17:34:27.262,954, 138, 690, -75, -40, 46, -10, -10, 12, 532, 79,x
2025-02-19 17:34:27.368,1133, 59, 737, 16, 78, -8, -10, -9, 13, 791, 71,x
2025-02-19 17:34:27.478,496, -118, 729, -6, -8, 0, -8, -6, 9, 617, 26,x
2025-02-19 17:34:28.198,739, -38, 658, 1, -1, -1, -10, -10, 13, 652, 58,y
2025-02-19 17:34:28.293,750, -24, 646, 3, -2, -2, -10, -10, 13, 624, 60,y
2025-02-19 17:34:28.398,746, -21, 649, 0, -2, -4, -10, -9, 13, 585, 63,y
2025-02-19 17:34:28.506,731, -23, 644, 3, -7, -7, -9, -11, 14, 570, 72,y
2025-02-19 17:34:28.617,782, -59, 611, -11, 2, -18, -12, -10, 12, 155, 72,y
2025-02-19 17:34:28.718,832, 113, 610, 12, -8, 32, -9, -10, 15, 701, 85,y
2025-02-19 17:34:28.828,764, -28, 645, 6, -1, -13, -9, -9, 14, 801, 81,y
2025-02-19 17:34:28.940,763, 186, 636, -11, -14, 50, -11, -9, 14, 435, 90,y
2025-02-19 17:34:29.042,1262, -129, 599, 20, 75, 4, -12, -8, 14, 0, 72,y
2025-02-19 17:34:29.153,491, -136, 739, -2, -11, -13, -9, -5, 11, 206, 30,y
2025-02-19 17:34:29.968,751, -70, 654, 1, -3, 0, -10, -9, 12, 750, 61,z
2025-02-19 17:34:30.067,772, -66, 640, 5, -1, -3, -10, -9, 14, 765, 64,z
2025-02-19 17:34:30.173,778, -51, 651, 4, -3, -4, -10, -10, 16, 729, 69,z
2025-02-19 17:34:30.280,696, -44, 648, 16, -10, -9, -9, -10, 14, 583, 75,z
2025-02-19 17:34:30.386,776, -48, 586, 10, 3, -4, -9, -11, 12, 119, 87,z
2025-02-19 17:34:30.492,673, 4, 716, 16, -8, -2, -10, -12, 14, 835, 85,z
2025-02-19 17:34:30.603,921, 12, 443, 12, 8, -8, -10, -10, 13, 359, 86,z
2025-02-19 17:34:30.706,708, 19, 682, 1, -5, 10, -12, -7, 14, 798, 90,z
2025-02-19 17:34:30.820,672, -151, 580, 33, -15, -30, -10, -9, 13, 646, 65,z
2025-02-19 17:34:30.927,736, 76, 640, -14, -38, 22, -10, -11, 15, 807, 87,z
2025-02-19 17:34:31.029,1088, 87, 624, -27, 69, 24, -9, -9, 14, 813, 65,z
2025-02-19 17:34:31.138,719, -36, 649, -2, -14, -9, -9, -9, 12, 738, 43,z
2025-02-19 17:34:31.958,760, -13, 639, 0, -2, -3, -12, -10, 15, 796, 67,0
2025-02-19 17:34:32.050,748, 1, 642, 5, -3, -2, -8, -11, 14, 821, 69,0
2025-02-19 17:34:32.160,763, -6, 629, 1, -3, -2, -11, -10, 14, 828, 73,0
2025-02-19 17:34:32.260,762, 25, 613, 1, -2, -7, -12, -12, 14, 828, 82,0
2025-02-19 17:34:32.376,750, 11, 638, -1, 4, -21, -11, -11, 14, 651, 84,0
2025-02-19 17:34:32.483,866, 344, 436, 15, -22, 62, -10, -8, 13, 593, 85,0
2025-02-19 17:34:32.594,767, -162, 595, 16, 5, -64, -10, -11, 15, 823, 87,0
2025-02-19 17:34:32.700,757, 41, 617, -76, 82, 64, -10, -11, 13, 649, 39,0
2025-02-19 17:34:33.618,809, -32, 634, 1, -15, -12, -12, -11, 14, 556, 58,1
2025-02-19 17:34:33.712,728, -83, 656, 7, -4, -6, -11, -9, 14, 520, 66,1
2025-02-19 17:34:33.819,811, -40, 543, -9, 2, -5, -12, -11, 15, 238, 91,1
2025-02-19 17:34:33.930,667, -102, 731, 16, -1, -5, -11, -11, 16, 820, 87,1
2025-02-19 17:34:34.028,886, 269, 493, -5, -11, 48, -10, -9, 15, 618, 94,1
2025-02-19 17:34:34.147,389, -160, 547, 11, -23, -23, -10, -9, 14, 607, 80,1
2025-02-19 17:34:34.250,699, 41, 667, 23, -37, 18, -10, -9, 14, 728, 80,1
2025-02-19 17:34:34.360,1113, 53, 671, -18, 82, 13, -11, -9, 16, 760, 68,1
2025-02-19 17:34:34.466,605, -119, 691, -3, -7, -8, -9, -5, 12, 573, 33,1
2025-02-19 17:34:35.778,753, -50, 634, -4, -2, -9, -11, -9, 14, 747, 60,2
2025-02-19 17:34:35.880,779, -32, 637, 0, -2, -5, -10, -10, 16, 782, 66,2
2025-02-19 17:34:35.978,758, -36, 637, 4, 1, -3, -10, -11, 15, 790, 68,2
2025-02-19 17:34:36.093,722, -4, 611, 9, -2, -22, -13, -11, 15, 594, 72,2
2025-02-19 17:34:36.198,900, 135, 590, 54, -17, -19, -12, -12, 14, 645, 79,2
2025-02-19 17:34:36.306,694, 71, 722, -6, 8, 57, -11, -11, 14, 815, 80,2
2025-02-19 17:34:36.415,986, -50, 568, 66, -11, -14, -10, -9, 15, 708, 84,2
2025-02-19 17:34:36.518,797, 21, 636, -29, 2, 25, -10, -10, 16, 791, 85,2
2025-02-19 17:34:36.633,548, -141, 708, -10, 22, 6, -10, -7, 12, 704, 29,2
2025-02-19 17:34:37.450,749, -36, 649, -2, -1, -4, -11, -11, 14, 531, 51,3
2025-02-19 17:34:37.542,758, -26, 644, 0, -3, -7, -11, -9, 15, 602, 55,3
2025-02-19 17:34:37.652,751, -20, 647, -3, -1, -9, -10, -11, 14, 667, 59,3
2025-02-19 17:34:37.759,583, -60, 629, 2, -23, -45, -10, -13, 12, 633, 70,3
2025-02-19 17:34:37.862,697, 57, 673, 20, -12, 22, -11, -12, 14, 820, 78,3
2025-02-19 17:34:37.976,899, 134, 430, -22, 9, -1, -12, -11, 16, 699, 83,3
2025-02-19 17:34:38.078,670, -3, 722, -9, -11, 33, -12, -11, 14, 637, 87,3
2025-02-19 17:34:38.188,1198, 55, 676, -9, 61, 34, -11, -9, 15, 652, 68,3
2025-02-19 17:34:38.298,486, -140, 713, -4, -12, -29, -8, -7, 12, 642, 29,3
2025-02-19 17:34:39.115,750, -7, 652, -1, -3, -2, -12, -11, 14, 734, 63,4
2025-02-19 17:34:39.209,778, 3, 635, 1, -5, -2, -11, -13, 14, 727, 71,4
2025-02-19 17:34:39.319,747, -9, 613, -1, -4, -6, -12, -13, 14, 731, 77,4
2025-02-19 17:34:39.426,735, -44, 666, 5, 2, -13, -10, -13, 15, 651, 83,4
2025-02-19 17:34:39.528,795, 30, 533, 16, 10, 4, -11, -11, 14, 0, 79,4
2025-02-19 17:34:39.640,788, 83, 633, 6, -1, 16, -11, -10, 16, 833, 80,4
2025-02-19 17:34:39.749,589, -176, 649, 17, -50, -27, -11, -12, 13, 819, 65,4
2025-02-19 17:34:39.856,783, 178, 529, -20, -14, 65, -11, -9, 14, 563, 90,4
2025-02-19 17:34:39.959,442, -125, 548, -36, 63, 30, -9, -9, 14, 770, 36,4
2025-02-19 17:34:40.068,773, -50, 661, 9, -17, -20, -11, -7, 13, 727, 35,4
2025-02-19 17:34:40.789,722, -45, 666, -5, -2, -6, -10, -9, 13, 460, 52,5
2025-02-19 17:34:40.883,746, -27, 653, 6, -4, -6, -11, -11, 13, 543, 57,5
2025-02-19 17:34:40.990,720, 34, 654, 24, -5, -11, -11, -11, 12, 549, 66,5
2025-02-19 17:34:41.098,803, -234, 397, 75, 23, -31, -11, -13, 14, 487, 82,5
2025-02-19 17:34:41.204,726, 63, 674, -5, -4, 4, -11, -11, 14, 855, 77,5
2025-02-19 17:34:41.314,742, -134, 582, 20, -15, -3, -11, -13, 12, 555, 77,5
2025-02-19 17:34:41.418,807, 111, 619, 15, -3, 23, -10, -13, 13, 711, 78,5
2025-02-19 17:34:41.528,647, 33, 781, -16, -13, 34, -11, -10, 13, 798, 78,5
2025-02-19 17:34:41.633,1135, 43, 601, 32, 21, 0, -12, -9, 13, 497, 77,5
2025-02-19 17:34:41.747,432, -119, 758, -15, -10, -12, -11, -9, 11, 613, 24,5
2025-02-19 17:34:42.558,764, 32, 648, 6, -11, -6, -11, -11, 14, 608, 59,6
2025-02-19 17:34:42.658,712, -30, 663, 12, -22, -13, -10, -11, 15, 770, 76,6
2025-02-19 17:34:42.758,765, -6, 652, 0, 2, -16, -11, -12, 14, 682, 81,6
2025-02-19 17:34:42.870,906, 65, 576, 19, -6, 70, -10, -12, 13, 497, 0,6
2025-02-19 17:34:42.978,688, 52, 626, -4, -11, -37, -10, -9, 15, 790, 82,6
2025-02-19 17:34:43.091,1129, 281, 536, -18, 27, 33, -11, -10, 12, 668, 67,6
2025-02-19 17:34:43.190,494, -145, 728, -8, 1, 7, -9, -9, 10, 650, 28,6
2025-02-19 17:34:43.294,763, 4, 676, -5, -6, -5, -9, -9, 11, 651, 36,6
2025-02-19 17:34:44.118,755, -1, 656, 7, -9, -6, -12, -10, 16, 608, 66,7
2025-02-19 17:34:44.214,743, 1, 667, -3, 3, -8, -11, -11, 15, 570, 67,7
2025-02-19 17:34:44.324,811, 112, 551, -10, -3, -13, -11, -11, 14, 213, 74,7
2025-02-19 17:34:44.428,724, 101, 662, 14, -23, 19, -12, -11, 14, 819, 78,7
2025-02-19 17:34:44.538,740, 150, 633, 10, 5, 61, -10, -12, 16, 720, 81,7
2025-02-19 17:34:44.644,767, 95, 648, -2, 32, -46, -10, -9, 14, 755, 78,7
2025-02-19 17:34:44.748,866, -49, 637, 70, -2, -24, -11, -12, 14, 577, 77,7
2025-02-19 17:34:44.857,757, 43, 639, 9, 3, 8, -10, -10, 15, 815, 83,7
2025-02-19 17:34:44.968,636, -50, 696, -20, 18, 8, -10, -8, 13, 694, 46,7
2025-02-19 17:34:45.684,769, -28, 627, -2, 1, 1, -11, -9, 14, 506, 68,8
2025-02-19 17:34:45.784,767, -15, 622, 2, -4, -1, -11, -9, 14, 514, 70,8
2025-02-19 17:34:45.890,758, -17, 609, 5, -10, -3, -10, -9, 16, 599, 78,8
2025-02-19 17:34:45.992,741, 0, 628, -1, 6, -22, -10, -10, 14, 444, 85,8
2025-02-19 17:34:46.098,998, 81, 569, 19, -17, 79, -9, -11, 16, 150, 83,8
2025-02-19 17:34:46.213,766, -22, 645, 17, 7, -68, -10, -10, 14, 786, 85,8
2025-02-19 17:34:46.318,689, 102, 713, -9, -10, -5, -11, -11, 14, 787, 82,8
2025-02-19 17:34:46.425,941, 82, 497, 0, 31, 15, -11, -10, 14, 754, 79,8
2025-02-19 17:34:46.533,451, -158, 751, -4, -12, 7, -10, -6, 11, 647, 32,8
2025-02-19 17:34:47.351,750, -19, 640, 0, -2, -3, -9, -10, 14, 614, 58,9
2025-02-19 17:34:47.446,759, 1, 629, 6, -6, -2, -10, -11, 14, 618, 64,9
2025-02-19 17:34:47.552,776, 1, 626, 1, -5, -3, -10, -10, 14, 633, 72,9
2025-02-19 17:34:47.658,760, 20, 635, -2, 6, -16, -11, -11, 15, 535, 85,9
2025-02-19 17:34:47.768,771, 157, 568, 6, -15, 41, -10, -9, 15, 638, 83,9
2025-02-19 17:34:47.878,783, -58, 619, 15, 7, -26, -10, -11, 14, 817, 82,9
2025-02-19 17:34:47.986,652, 159, 669, -12, -18, 76, -9, -10, 15, 580, 88,9
2025-02-19 17:34:48.088,1253, -55, 555, 7, 68, 21, -9, -8, 14, 547, 66,9
2025-02-19 17:34:48.199,535, -109, 744, 0, -11, -9, -8, -7, 12, 659, 32,9
