Timestamp,Acc_X,Acc_Y,Acc_Z,Gyro_X,Gyro_Y,Gyro_Z,Mag_X,Mag_Y,Mag_Z,Force,IR_A,Letter
2025-02-19 16:28:41.851,625, -50, 754, 8, -5, 1, -2, -1, 2, 82, 23,noise
2025-02-19 16:28:41.947,627, -29, 749, 1, 5, -2, -2, 0, 0, 98, 23,noise
2025-02-19 16:28:42.050,676, -167, 684, 7, -8, -1, -1, -2, 2, 85, 22,noise
2025-02-19 16:28:42.161,648, -74, 781, 6, 0, -11, -2, -1, 1, 151, 23,noise
2025-02-19 16:28:42.266,605, -88, 745, 58, 14, 2, -2, -2, 2, 0, 21,noise
2025-02-19 16:28:42.376,630, -9, 753, -10, -7, -3, -1, -2, 0, 1, 21,noise
2025-02-19 16:28:42.482,644, -35, 764, -10, -9, -2, 0, -1, 3, 187, 23,noise
2025-02-19 16:28:42.582,659, -57, 726, -8, -5, 3, -2, 0, 2, 368, 26,noise
2025-02-19 16:28:42.696,653, -46, 755, 1, 3, 3, -1, -1, 2, 301, 26,noise
2025-02-19 16:28:42.800,645, -83, 743, -3, 3, 1, -1, -1, 2, 256, 24,noise
2025-02-19 16:28:42.913,652, -73, 758, 3, -1, 7, -2, -1, -1, 261, 24,noise
2025-02-19 16:28:43.016,640, -77, 764, -1, -1, 0, 0, -1, 2, 261, 23,noise
2025-02-19 16:28:43.126,658, -66, 752, 0, 0, -2, -1, -2, 1, 248, 25,noise
2025-02-19 16:28:43.232,646, -73, 756, 0, 0, 0, -1, -1, 2, 244, 28,noise
2025-02-19 16:28:43.339,644, -64, 750, 0, 0, 0, -2, -1, 2, 240, 41,noise
2025-02-19 16:28:43.448,634, -71, 753, -4, -3, -1, -2, -1, 1, 229, 31,noise
2025-02-19 16:28:43.556,652, -70, 749, -1, -1, 0, -1, -2, 3, 209, 31,noise
2025-02-19 16:28:43.663,650, -69, 755, -2, -1, -2, -1, -2, 2, 183, 30,noise
2025-02-19 16:28:43.765,647, -72, 746, -2, -2, -1, -2, 0, 3, 190, 29,noise
2025-02-19 16:28:43.876,654, -70, 751, -4, -1, 1, -2, 0, 2, 188, 31,noise
2025-02-19 16:28:43.982,651, -68, 744, 0, 1, -2, -2, 0, 3, 159, 33,noise
2025-02-19 16:28:44.082,648, -71, 751, 0, 0, -1, -2, 0, 1, 177, 35,noise
2025-02-19 16:28:44.191,655, -58, 753, 0, 0, 0, 0, -1, 1, 172, 39,noise
2025-02-19 16:28:44.300,648, -63, 754, 0, -1, -1, -2, 1, 1, 170, 40,noise
2025-02-19 16:28:44.413,642, -50, 751, -1, -1, -2, -1, -1, 1, 174, 38,noise
2025-02-19 16:28:45.731,816, -76, 607, 1, 4, -1, -3, -1, 8, 831, 72,A
2025-02-19 16:28:45.820,763, -100, 616, 3, -6, -10, -2, -4, 9, 856, 70,A
2025-02-19 16:28:45.936,769, -82, 629, 0, -1, -6, -2, -3, 10, 872, 74,A
2025-02-19 16:28:46.041,757, -88, 606, -1, -10, -18, -3, -4, 9, 877, 83,A
2025-02-19 16:28:46.147,712, -69, 594, 0, -15, -33, -3, -4, 10, 886, 99,A
2025-02-19 16:28:46.251,691, -327, 763, 37, 12, -2, -2, -6, 9, 814, 100,A
2025-02-19 16:28:46.366,867, 91, 562, -19, -7, -14, -4, -5, 9, 824, 98,A
2025-02-19 16:28:46.473,789, -45, 576, 12, -5, -29, -5, -6, 10, 817, 98,A
2025-02-19 16:28:46.575,799, 9, 601, 5, 3, 44, -2, -5, 9, 803, 101,A
2025-02-19 16:28:46.682,803, -159, 480, 21, 3, -27, -3, -5, 10, 533, 97,A
2025-02-19 16:28:46.792,752, -47, 637, 7, -4, 20, -3, -4, 8, 866, 95,A
2025-02-19 16:28:46.901,613, -141, 682, -25, 35, 13, -2, -2, 7, 675, 40,A
2025-02-19 16:28:47.614,768, -42, 633, 1, -4, -9, -3, -4, 8, 717, 75,B
2025-02-19 16:28:47.713,764, -23, 635, -1, 0, -5, -3, -5, 9, 724, 80,B
2025-02-19 16:28:47.819,808, -49, 719, 1, -6, -16, -3, -6, 8, 688, 92,B
2025-02-19 16:28:47.921,639, 81, 656, -8, -28, 65, -3, -4, 8, 598, 94,B
2025-02-19 16:28:48.031,766, -167, 704, 18, 35, -71, -4, -4, 8, 778, 90,B
2025-02-19 16:28:48.143,684, 13, 681, -4, -21, 11, -1, -7, 10, 833, 90,B
2025-02-19 16:28:48.246,878, 70, 427, 1, 14, 7, -3, -5, 8, 627, 94,B
2025-02-19 16:28:48.357,684, -30, 761, 5, -11, 4, -3, -5, 9, 763, 92,B
2025-02-19 16:28:48.464,897, -92, 457, 48, 33, -9, -3, -4, 9, 540, 93,B
2025-02-19 16:28:48.570,486, -149, 736, -27, 2, -15, -2, -2, 5, 591, 43,B
2025-02-19 16:28:49.391,767, -26, 614, -1, -3, -3, -4, -6, 10, 742, 89,C
2025-02-19 16:28:49.483,769, -18, 620, -3, 0, 0, -4, -5, 8, 763, 91,C
2025-02-19 16:28:49.594,773, 9, 618, 5, -3, -2, -3, -5, 10, 801, 91,C
2025-02-19 16:28:49.700,747, -48, 657, 3, -1, -23, -3, -7, 8, 739, 92,C
2025-02-19 16:28:49.800,861, 250, 510, 1, -12, 61, -5, -6, 7, 512, 90,C
2025-02-19 16:28:49.913,771, 29, 668, 23, -2, 5, -3, -7, 8, 878, 84,C
2025-02-19 16:28:50.021,508, -190, 709, -28, 13, 5, -2, -1, 6, 733, 35,C
2025-02-19 16:28:50.941,764, -20, 640, -6, -4, -7, -2, -4, 9, 675, 76,D
2025-02-19 16:28:51.036,749, -19, 635, -4, -2, -7, -3, -4, 8, 689, 82,D
2025-02-19 16:28:51.147,775, -41, 655, -3, 0, -14, -2, -5, 9, 635, 88,D
2025-02-19 16:28:51.250,783, 248, 601, -10, -17, 49, -3, -5, 8, 537, 92,D
2025-02-19 16:28:51.351,718, 7, 625, 33, 27, -62, -3, -4, 8, 704, 87,D
2025-02-19 16:28:51.466,814, -7, 675, -14, -30, 21, -2, -6, 8, 794, 84,D
2025-02-19 16:28:51.572,766, 5, 562, -10, 9, 31, -3, -5, 8, 602, 94,D
2025-02-19 16:28:51.678,854, 9, 615, -28, 58, 24, -3, -5, 7, 438, 59,D
2025-02-19 16:28:51.789,625, -77, 699, 16, -29, -13, -2, -4, 5, 586, 43,D
2025-02-19 16:28:52.809,755, -41, 657, -1, -5, -4, -2, -3, 7, 766, 64,E
2025-02-19 16:28:52.899,749, -26, 643, 2, -3, -3, -3, -2, 9, 791, 69,E
2025-02-19 16:28:53.005,767, -10, 654, 2, 1, -5, -4, -5, 6, 812, 73,E
2025-02-19 16:28:53.111,761, 5, 641, 1, -2, -5, -3, -4, 7, 818, 75,E
2025-02-19 16:28:53.221,716, -4, 647, 4, -8, -16, -3, -5, 7, 800, 83,E
2025-02-19 16:28:53.329,762, -68, 639, 2, -7, -22, -3, -7, 8, 705, 84,E
2025-02-19 16:28:53.435,836, 258, 518, -4, -9, 41, -3, -4, 8, 606, 92,E
2025-02-19 16:28:53.550,406, -189, 549, -16, -14, -62, -2, -4, 7, 771, 80,E
2025-02-19 16:28:53.654,732, 102, 612, 10, -24, 24, -5, -6, 8, 831, 83,E
2025-02-19 16:28:53.759,693, 104, 633, 6, 48, 13, -4, -4, 7, 797, 70,E
2025-02-19 16:28:53.863,912, 231, 647, -25, -39, 8, -2, -6, 7, 678, 82,E
2025-02-19 16:28:53.973,735, 16, 715, 12, 44, 16, -2, -3, 7, 790, 78,E
2025-02-19 16:28:54.080,881, 149, 631, 3, -46, 36, -3, -5, 8, 670, 83,E
2025-02-19 16:28:54.180,1090, 76, 697, -27, 71, 10, -4, -3, 7, 800, 70,E
2025-02-19 16:28:54.300,648, -16, 647, -6, -17, -29, -1, -3, 5, 676, 45,E
2025-02-19 16:28:55.013,747, 11, 662, -17, -6, -5, -3, -5, 7, 412, 63,F
2025-02-19 16:28:55.111,738, 12, 648, -9, -5, -7, -3, -5, 6, 534, 73,F
2025-02-19 16:28:55.212,762, -6, 624, -6, 0, -6, -5, -5, 7, 555, 86,F
2025-02-19 16:28:55.321,745, 28, 664, -11, -17, 54, -3, -5, 8, 500, 89,F
2025-02-19 16:28:55.429,794, 71, 593, 26, 35, -72, -5, -4, 9, 721, 86,F
2025-02-19 16:28:55.541,828, 90, 595, 92, -2, -17, -2, -6, 8, 654, 88,F
2025-02-19 16:28:55.645,651, -11, 728, -19, 11, 48, -3, -6, 7, 855, 87,F
2025-02-19 16:28:55.753,833, 57, 455, 16, 0, -19, -3, -6, 6, 443, 84,F
2025-02-19 16:28:55.860,721, 84, 686, -7, 3, 17, -2, -5, 10, 868, 85,F
2025-02-19 16:28:55.967,643, -84, 670, -8, 3, -7, -3, -4, 7, 767, 55,F
2025-02-19 16:28:56.784,774, 27, 628, 0, -1, -1, -3, -5, 8, 795, 86,G
2025-02-19 16:28:56.880,774, 29, 621, -2, -2, 0, -3, -7, 8, 806, 87,G
2025-02-19 16:28:56.987,768, 11, 636, -4, -4, -2, -3, -8, 8, 801, 88,G
2025-02-19 16:28:57.097,750, 27, 631, -3, 1, -13, -3, -8, 8, 690, 90,G
2025-02-19 16:28:57.201,958, 143, 498, 8, -9, 54, -2, -6, 8, 483, 88,G
2025-02-19 16:28:57.312,699, -44, 700, -10, -2, -26, -2, -3, 10, 849, 86,G
2025-02-19 16:28:57.411,796, 167, 541, 0, -6, 48, -3, -3, 9, 783, 90,G
2025-02-19 16:28:57.527,1369, -301, 565, -16, 2, -24, -3, -6, 8, 774, 89,G
2025-02-19 16:28:57.630,751, 102, 603, 17, -11, 23, -3, -4, 8, 868, 86,G
2025-02-19 16:28:57.740,669, -92, 649, -20, 59, 13, -3, -5, 7, 824, 47,G
2025-02-19 16:28:58.560,750, -18, 633, -8, -7, -5, -4, -4, 8, 537, 67,H
2025-02-19 16:28:58.653,768, -4, 635, -8, -2, -9, -5, -5, 8, 591, 78,H
2025-02-19 16:28:58.760,778, 0, 635, 10, 3, -5, -4, -7, 7, 591, 87,H
2025-02-19 16:28:58.870,752, -157, 681, 0, -3, -5, -3, -6, 8, 620, 87,H
2025-02-19 16:28:58.973,796, 68, 590, 8, 5, 22, -3, -4, 9, 545, 91,H
2025-02-19 16:28:59.084,1012, -106, 798, -9, 1, -20, -4, -4, 7, 543, 87,H
2025-02-19 16:28:59.190,731, 90, 685, 9, -9, 20, -3, -4, 8, 868, 89,H
2025-02-19 16:28:59.296,844, 57, 569, 3, -12, -22, -4, -5, 9, 843, 88,H
2025-02-19 16:28:59.400,825, 189, 517, 6, -3, 44, -3, -4, 8, 769, 93,H
2025-02-19 16:28:59.513,604, -94, 673, -37, 53, 4, -3, -3, 6, 790, 42,H
2025-02-19 16:29:00.328,751, 9, 643, 4, -1, -3, -2, -5, 8, 750, 75,I
2025-02-19 16:29:00.423,736, 17, 652, 5, 5, -6, -3, -6, 9, 699, 76,I
2025-02-19 16:29:00.532,811, 57, 601, -4, -4, -13, -2, -5, 7, 486, 84,I
2025-02-19 16:29:00.640,740, 120, 622, 13, -19, 20, -2, -8, 7, 847, 80,I
2025-02-19 16:29:00.750,599, 11, 585, -53, 18, -20, -3, -7, 8, 794, 70,I
2025-02-19 16:29:00.851,743, 95, 644, 5, -5, 55, -2, -5, 8, 692, 85,I
2025-02-19 16:29:00.960,830, 75, 761, 11, 54, -8, -2, -5, 8, 679, 72,I
2025-02-19 16:29:01.071,885, 166, 556, 40, -53, 15, -2, -5, 7, 729, 82,I
2025-02-19 16:29:01.176,1104, 113, 626, -29, 77, 4, -3, -5, 7, 837, 68,I
2025-02-19 16:29:01.281,672, -3, 680, -6, -12, -18, -3, -4, 4, 700, 36,I
2025-02-19 16:29:02.000,750, 35, 643, 0, -2, -2, -3, -6, 7, 705, 68,J
2025-02-19 16:29:02.094,743, 40, 647, 5, 3, -4, -2, -4, 8, 700, 70,J
2025-02-19 16:29:02.201,706, 79, 638, 13, -2, -17, -3, -7, 6, 578, 76,J
2025-02-19 16:29:02.311,811, 240, 644, -5, -52, 22, -3, -8, 7, 760, 77,J
2025-02-19 16:29:02.422,701, 83, 669, -6, 31, -17, -2, -6, 9, 827, 78,J
2025-02-19 16:29:02.528,814, 24, 677, -13, -8, 33, -2, -8, 7, 764, 80,J
2025-02-19 16:29:02.635,539, 17, 609, -3, 28, -11, -4, -3, 7, 591, 87,J
2025-02-19 16:29:02.741,654, 121, 565, -44, 48, 38, -2, -4, 5, 567, 49,J
2025-02-19 16:29:03.560,729, 20, 662, 5, -4, -5, -3, -5, 6, 453, 67,K
2025-02-19 16:29:03.655,743, 61, 648, 2, -2, -3, -3, -7, 7, 472, 75,K
2025-02-19 16:29:03.761,756, 45, 652, -2, -2, -8, -5, -7, 7, 397, 81,K
2025-02-19 16:29:03.871,750, -237, 777, 3, -2, 45, -1, -7, 5, 301, 84,K
2025-02-19 16:29:03.978,1069, 112, 516, 27, -9, 19, -3, -5, 6, 378, 86,K
2025-02-19 16:29:04.089,1390, -61, 1097, 8, -6, -26, -3, -7, 9, 807, 80,K
2025-02-19 16:29:04.192,711, 95, 605, 13, 21, 9, -3, -6, 8, 319, 84,K
2025-02-19 16:29:04.301,645, 115, 697, -16, -31, 53, -3, -4, 9, 646, 87,K
2025-02-19 16:29:04.408,869, 36, 552, -32, 100, -2, -2, -1, 6, 600, 53,K
2025-02-19 16:29:05.220,731, 17, 668, 5, -4, -3, -3, -5, 5, 566, 58,L
2025-02-19 16:29:05.322,764, 52, 650, 5, -5, -4, -3, -5, 6, 621, 68,L
2025-02-19 16:29:05.427,741, 41, 657, -2, 3, -2, -2, -7, 5, 624, 70,L
2025-02-19 16:29:05.536,646, 68, 646, -5, -17, -21, -3, -6, 7, 635, 75,L
2025-02-19 16:29:05.641,705, -55, 726, 25, 2, 37, -3, -8, 7, 461, 81,L
2025-02-19 16:29:05.752,892, 13, 602, 27, -11, 23, -3, -4, 6, 377, 82,L
2025-02-19 16:29:05.854,784, 39, 678, -11, 0, 9, -4, -2, 7, 829, 80,L
2025-02-19 16:29:05.969,533, -111, 723, -8, -4, -11, -1, -2, 5, 599, 37,L
2025-02-19 16:29:06.780,738, 18, 653, 4, -1, -2, -3, -6, 6, 590, 70,M
2025-02-19 16:29:06.878,743, 30, 649, 0, 0, -6, -3, -7, 7, 613, 73,M
2025-02-19 16:29:06.984,787, 40, 726, 9, 1, -11, -3, -6, 7, 633, 82,M
2025-02-19 16:29:07.091,700, -8, 711, 13, -2, 55, -3, -7, 6, 452, 81,M
2025-02-19 16:29:07.202,811, -5, 701, 11, 27, -56, -2, -5, 5, 693, 76,M
2025-02-19 16:29:07.308,840, -64, 641, 5, -7, -10, -3, -6, 5, 710, 78,M
2025-02-19 16:29:07.415,751, 74, 516, 23, -5, -39, -4, -5, 7, 839, 80,M
2025-02-19 16:29:07.521,770, 280, 602, 17, -3, 50, -1, -5, 7, 805, 79,M
2025-02-19 16:29:07.631,747, 10, 558, -41, 60, 13, -2, -3, 6, 784, 50,M
2025-02-19 16:29:08.543,734, 15, 655, 5, -6, -4, -3, -6, 6, 621, 64,N
2025-02-19 16:29:08.640,748, 50, 656, 9, 0, -1, -1, -7, 7, 644, 70,N
2025-02-19 16:29:08.750,685, 69, 646, 17, 0, -29, -2, -6, 6, 611, 70,N
2025-02-19 16:29:08.857,737, -100, 803, 7, 2, 51, -3, -6, 7, 525, 79,N
2025-02-19 16:29:08.964,748, 147, 562, 2, 8, -63, -2, -4, 6, 700, 79,N
2025-02-19 16:29:09.074,913, -74, 730, -35, -11, 63, -4, -7, 7, 710, 77,N
2025-02-19 16:29:09.181,604, 61, 571, 44, 4, -109, -3, -4, 8, 788, 82,N
2025-02-19 16:29:09.290,977, 175, 654, -30, 34, 43, -4, -6, 8, 829, 71,N
2025-02-19 16:29:09.392,686, 0, 642, 10, -16, -11, -4, -5, 7, 722, 53,N
2025-02-19 16:29:10.211,770, 40, 644, -1, -1, -2, -3, -5, 7, 734, 78,O
2025-02-19 16:29:10.307,765, 33, 636, 0, -3, 1, -4, -6, 8, 764, 78,O
2025-02-19 16:29:10.417,758, 47, 634, -1, -2, -3, -3, -7, 6, 772, 80,O
2025-02-19 16:29:10.524,741, 41, 657, 4, 1, -13, -2, -6, 7, 731, 81,O
2025-02-19 16:29:10.630,886, 62, 570, 30, 13, 51, -3, -6, 7, 438, 80,O
2025-02-19 16:29:10.730,637, 6, 726, -3, -10, -56, -1, -3, 8, 807, 81,O
2025-02-19 16:29:10.842,854, 90, 626, -7, 17, 3, -3, -7, 6, 720, 77,O
2025-02-19 16:29:10.954,583, -11, 711, -12, 6, 10, -2, -5, 5, 615, 40,O
2025-02-19 16:29:11.871,730, 41, 651, 1, -3, -1, -2, -5, 6, 643, 62,P
2025-02-19 16:29:11.963,748, 51, 662, 1, -3, -2, -3, -6, 7, 660, 65,P
2025-02-19 16:29:12.071,730, 80, 656, 1, -5, -9, -2, -5, 8, 667, 71,P
2025-02-19 16:29:12.180,773, -7, 586, -4, -1, -21, -3, -7, 6, 639, 81,P
2025-02-19 16:29:12.286,783, 253, 579, 11, 0, 20, -2, -6, 5, 707, 83,P
2025-02-19 16:29:12.393,854, -51, 590, -1, -9, -32, -3, -7, 7, 780, 76,P
2025-02-19 16:29:12.502,702, 189, 657, -1, 3, 41, -3, -7, 8, 733, 79,P
2025-02-19 16:29:12.609,785, 79, 612, -43, 59, 20, -3, -5, 5, 717, 53,P
2025-02-19 16:29:12.710,678, -11, 685, 21, -39, -11, -2, -4, 6, 740, 46,P
2025-02-19 16:29:13.535,746, 27, 649, -6, -1, -1, -2, -6, 6, 668, 56,Q
2025-02-19 16:29:13.631,724, 30, 655, 3, -12, -3, -2, -5, 6, 686, 61,Q
2025-02-19 16:29:13.733,886, 79, 667, 3, -4, -4, -3, -5, 8, 749, 80,Q
2025-02-19 16:29:13.844,718, 28, 672, 0, 1, -24, -2, -7, 8, 708, 81,Q
2025-02-19 16:29:13.951,871, 367, 475, 11, -7, 55, -3, -5, 7, 519, 78,Q
2025-02-19 16:29:14.061,744, -131, 650, 1, 0, -28, -3, -7, 7, 796, 80,Q
2025-02-19 16:29:14.160,527, 73, 649, 3, -6, -12, -1, -5, 5, 655, 60,Q
2025-02-19 16:29:14.275,756, 49, 639, -18, -35, 65, -4, -6, 7, 804, 80,Q
2025-02-19 16:29:14.382,898, 61, 611, -20, 71, 3, -3, -3, 7, 816, 62,Q
2025-02-19 16:29:14.491,669, -37, 683, 12, -17, -17, -2, -3, 3, 691, 39,Q
2025-02-19 16:29:15.400,735, 41, 660, 0, -4, -2, -3, -5, 6, 704, 61,R
2025-02-19 16:29:15.504,757, 59, 650, -1, -1, -5, -2, -4, 6, 709, 67,R
2025-02-19 16:29:15.610,848, 24, 767, 4, -1, -22, -3, -6, 6, 663, 80,R
2025-02-19 16:29:15.717,773, 367, 553, 3, -5, 55, -3, -5, 6, 631, 79,R
2025-02-19 16:29:15.823,807, -62, 668, 7, -6, -50, -1, -6, 7, 737, 76,R
2025-02-19 16:29:15.934,694, 181, 705, -19, -5, 48, -2, -8, 7, 765, 79,R
2025-02-19 16:29:16.040,688, 121, 644, -18, -27, 53, -2, -6, 6, 735, 80,R
2025-02-19 16:29:16.147,780, 69, 626, -17, 46, -25, -2, -3, 7, 796, 69,R
2025-02-19 16:29:16.251,671, 19, 695, -2, 2, -6, -1, -5, 6, 778, 46,R
2025-02-19 16:29:16.361,767, 51, 656, -3, 5, -3, -2, -5, 4, 638, 47,R
2025-02-19 16:29:17.081,749, 48, 639, 0, -5, -1, -3, -6, 6, 747, 67,S
2025-02-19 16:29:17.175,746, 46, 632, 2, -8, -4, -2, -4, 6, 763, 75,S
2025-02-19 16:29:17.282,749, 52, 652, -3, -4, -4, -2, -5, 7, 769, 80,S
2025-02-19 16:29:17.389,791, -7, 581, 38, 13, -5, -3, -7, 6, 589, 81,S
2025-02-19 16:29:17.499,675, 160, 739, 6, -11, 18, -1, -4, 6, 770, 80,S
2025-02-19 16:29:17.606,1062, 130, 512, 0, 26, -8, -4, -5, 8, 465, 78,S
2025-02-19 16:29:17.710,412, -88, 770, -9, -9, -8, -1, -1, 3, 643, 28,S
2025-02-19 16:29:18.530,746, 45, 647, -4, 0, -3, -2, -6, 7, 731, 64,T
2025-02-19 16:29:18.626,735, 38, 660, 4, -5, -7, -2, -6, 6, 723, 68,T
2025-02-19 16:29:18.732,742, 47, 643, 10, -1, -14, -3, -7, 6, 637, 77,T
2025-02-19 16:29:18.840,1096, 158, 542, 18, -42, -20, -3, -8, 8, 571, 77,T
2025-02-19 16:29:18.940,624, 95, 629, -8, 4, 13, -3, -5, 8, 852, 80,T
2025-02-19 16:29:19.055,813, -74, 638, -8, -3, 7, -4, -8, 7, 666, 79,T
2025-02-19 16:29:19.160,811, 206, 567, 12, 8, 25, -2, -6, 7, 569, 83,T
2025-02-19 16:29:19.260,588, -85, 721, -35, 36, 8, -2, -4, 5, 517, 37,T
2025-02-19 16:29:20.085,736, 11, 656, 1, -2, -3, -1, -6, 5, 658, 62,U
2025-02-19 16:29:20.181,740, 17, 656, -1, -1, -3, -3, -5, 7, 655, 62,U
2025-02-19 16:29:20.293,729, 50, 651, 9, -13, -17, -3, -5, 7, 630, 76,U
2025-02-19 16:29:20.390,725, -22, 655, 3, 0, -16, -4, -7, 7, 273, 84,U
2025-02-19 16:29:20.505,838, 293, 593, 1, -14, 34, -3, -5, 7, 655, 80,U
2025-02-19 16:29:20.612,772, -97, 628, 1, -8, -30, -4, -5, 9, 740, 79,U
2025-02-19 16:29:20.718,831, 189, 575, 4, 1, 45, -1, -5, 6, 762, 81,U
2025-02-19 16:29:20.829,622, -103, 699, -37, 34, -10, -3, -5, 5, 692, 39,U
2025-02-19 16:29:21.642,745, -14, 652, 2, -5, -2, -3, -5, 7, 685, 67,V
2025-02-19 16:29:21.736,760, 19, 650, 2, -2, -3, -3, -5, 6, 683, 74,V
2025-02-19 16:29:21.849,891, 29, 667, 13, 7, -21, -1, -5, 6, 606, 84,V
2025-02-19 16:29:21.959,750, -122, 601, 29, 2, -24, -3, -7, 7, 461, 80,V
2025-02-19 16:29:22.063,861, 250, 612, -17, -19, 13, -4, -4, 7, 753, 82,V
2025-02-19 16:29:22.168,793, 93, 593, 7, 15, 4, -2, -6, 8, 849, 79,V
2025-02-19 16:29:22.273,518, -102, 725, -8, 4, 3, -2, -5, 6, 750, 36,V
2025-02-19 16:29:23.091,726, 17, 678, -1, -4, -4, -2, -6, 6, 351, 52,W
2025-02-19 16:29:23.192,735, 29, 671, -1, -2, -4, -2, -5, 5, 364, 57,W
2025-02-19 16:29:23.299,707, 43, 666, 3, -8, -13, -3, -7, 5, 367, 65,W
2025-02-19 16:29:23.405,771, -12, 653, 1, 2, -10, -2, -6, 5, 274, 80,W
2025-02-19 16:29:23.510,737, 291, 586, -1, -11, 38, -2, -5, 8, 616, 84,W
2025-02-19 16:29:23.622,720, -167, 683, -1, -5, -41, -3, -6, 7, 771, 82,W
2025-02-19 16:29:23.729,769, 299, 536, -3, -11, 41, -3, -5, 7, 754, 86,W
2025-02-19 16:29:23.839,746, -220, 661, 12, -5, -30, -1, -6, 7, 856, 85,W
2025-02-19 16:29:23.942,541, -66, 710, -35, 30, 15, -2, -4, 6, 809, 43,W
2025-02-19 16:29:24.663,759, 22, 631, 2, -5, -3, -4, -5, 7, 769, 68,X
2025-02-19 16:29:24.757,778, 41, 628, 0, -3, -3, -2, -5, 8, 791, 72,X
2025-02-19 16:29:24.860,715, 1, 640, 9, -19, -13, -3, -5, 7, 818, 83,X
2025-02-19 16:29:24.969,658, -95, 748, 28, 9, 15, -4, -5, 7, 471, 85,X
2025-02-19 16:29:25.080,873, 117, 588, -6, 1, -17, -2, -5, 8, 379, 83,X
2025-02-19 16:29:25.187,1075, 97, 758, 8, -9, -33, -4, -7, 5, 472, 80,X
2025-02-19 16:29:25.290,742, 174, 596, 5, -17, 57, -2, -5, 7, 693, 89,X
2025-02-19 16:29:25.403,643, -45, 590, -16, 59, -6, -3, -3, 6, 614, 48,X
2025-02-19 16:29:26.711,720, 18, 652, 6, -15, -6, -5, -5, 4, 764, 59,Y
2025-02-19 16:29:26.810,757, 33, 641, 0, -3, -7, -3, -5, 7, 779, 70,Y
2025-02-19 16:29:26.919,712, 20, 651, 0, -1, -13, -1, -7, 6, 729, 75,Y
2025-02-19 16:29:27.030,767, -50, 596, 8, -2, -18, -5, -7, 6, 550, 81,Y
2025-02-19 16:29:27.137,770, 206, 586, 5, 1, 31, -3, -6, 7, 826, 81,Y
2025-02-19 16:29:27.246,494, -90, 715, 14, -42, -17, -2, -5, 5, 884, 66,Y
2025-02-19 16:29:27.349,636, -87, 733, 11, 11, 5, -2, -6, 8, 783, 82,Y
2025-02-19 16:29:27.460,733, -103, 699, -18, -6, 40, -2, -5, 7, 568, 86,Y
2025-02-19 16:29:27.562,956, 12, 668, 19, 10, 5, -3, -3, 7, 681, 85,Y
2025-02-19 16:29:27.671,477, -146, 714, -9, -1, -9, -2, -1, 3, 601, 31,Y
2025-02-19 16:29:28.390,729, 16, 649, 3, 3, -4, -2, -6, 6, 751, 63,Z
2025-02-19 16:29:28.488,648, 27, 672, 11, 9, -13, -3, -5, 6, 643, 63,Z
2025-02-19 16:29:28.599,1108, 253, 549, 24, -25, -7, -4, -7, 5, 485, 73,Z
2025-02-19 16:29:28.700,640, 76, 704, -4, 12, 33, -3, -7, 7, 783, 78,Z
2025-02-19 16:29:28.804,854, 55, 584, 11, -27, 37, -2, -4, 5, 657, 77,Z
2025-02-19 16:29:28.911,803, 123, 643, -22, 5, 1, -2, -4, 6, 840, 79,Z
2025-02-19 16:29:29.021,701, 52, 611, 32, -75, -33, -2, -5, 6, 553, 70,Z
2025-02-19 16:29:29.131,684, 100, 686, 6, -23, 11, -4, -6, 7, 838, 77,Z
2025-02-19 16:29:29.238,958, 123, 645, -18, 53, 3, -3, -5, 8, 798, 67,Z
2025-02-19 16:29:29.340,771, 90, 625, -2, 2, 0, -2, -5, 9, 787, 59,Z
2025-02-19 16:29:29.450,794, 71, 645, -6, 12, 6, -1, -4, 6, 748, 51,Z
2025-02-19 16:29:29.557,697, 34, 662, -12, 5, 2, -2, -3, 4, 609, 38,Z
2025-02-19 16:29:31.180,760, -25, 666, -5, -2, -2, -2, -3, 7, 668, 51,a
2025-02-19 16:29:31.273,749, -38, 657, 2, -3, -2, -2, -4, 7, 721, 53,a
2025-02-19 16:29:31.380,741, -25, 659, -1, -1, -2, -3, -3, 6, 743, 54,a
2025-02-19 16:29:31.487,750, -41, 656, 0, -3, -2, -2, -5, 8, 754, 56,a
2025-02-19 16:29:31.593,744, -34, 649, -3, 1, -1, -3, -4, 7, 765, 57,a
2025-02-19 16:29:31.703,786, -37, 642, -4, 6, 16, -3, -4, 6, 810, 51,a
2025-02-19 16:29:31.806,640, -122, 690, 10, -12, 7, -1, -1, 7, 856, 41,a
2025-02-19 16:29:31.911,755, -65, 643, -6, 2, -3, -2, -2, 5, 859, 48,a
2025-02-19 16:29:32.021,740, -88, 647, 6, -16, -6, -3, -1, 7, 862, 55,a
2025-02-19 16:29:32.129,754, -47, 640, -2, -1, 0, -2, -2, 7, 856, 65,a
2025-02-19 16:29:32.240,728, -71, 649, 4, -14, -3, -1, -3, 7, 859, 72,a
2025-02-19 16:29:32.340,708, -76, 643, -14, 9, -33, -3, -4, 9, 792, 91,a
2025-02-19 16:29:32.453,842, 252, 559, 3, -9, 39, -4, -4, 8, 740, 89,a
2025-02-19 16:29:32.559,752, -119, 567, 1, -4, -33, -2, -5, 6, 795, 88,a
2025-02-19 16:29:32.663,833, 2, 633, -10, 0, 10, -5, -4, 9, 809, 88,a
2025-02-19 16:29:32.771,595, -135, 688, -9, -1, -15, -1, -4, 7, 713, 44,a
2025-02-19 16:29:32.882,824, -18, 634, 1, -12, -7, -3, -3, 7, 724, 64,a
2025-02-19 16:29:32.986,775, -16, 639, -11, 16, -17, -2, -3, 6, 736, 53,a
2025-02-19 16:29:33.090,655, -54, 695, 6, -6, -2, -1, -4, 7, 691, 42,a
2025-02-19 16:29:33.203,815, 34, 617, -3, -13, 10, -2, -5, 7, 669, 59,a
2025-02-19 16:29:33.304,755, -40, 638, -2, 2, 8, -3, -5, 7, 645, 64,a
2025-02-19 16:29:33.410,770, -25, 625, -4, 1, 2, -3, -4, 7, 631, 63,a
2025-02-19 16:29:33.526,765, -26, 628, 0, -3, -2, -2, -4, 7, 608, 63,a
2025-02-19 16:29:34.640,775, -13, 630, -2, 1, -3, -3, -5, 8, 809, 75,b
2025-02-19 16:29:34.738,771, -20, 632, -1, 2, -7, -3, -4, 8, 797, 79,b
2025-02-19 16:29:34.846,811, -39, 625, 1, -3, -15, -4, -7, 8, 703, 89,b
2025-02-19 16:29:34.953,835, 265, 563, 0, -13, 44, -3, -4, 7, 671, 89,b
2025-02-19 16:29:35.062,825, -210, 587, 34, 5, -24, -3, -5, 7, 786, 84,b
2025-02-19 16:29:35.168,684, 50, 660, -19, -7, 45, -2, -4, 7, 723, 91,b
2025-02-19 16:29:35.271,827, 94, 609, -36, 59, 27, -4, -2, 7, 709, 54,b
2025-02-19 16:29:36.190,784, -19, 614, 1, -5, -2, -3, -5, 8, 779, 80,c
2025-02-19 16:29:36.290,770, -31, 608, -2, -2, -6, -2, -4, 9, 783, 90,c
2025-02-19 16:29:36.397,853, -101, 544, 26, 16, -5, -4, -4, 10, 460, 88,c
2025-02-19 16:29:36.503,737, -61, 633, 23, -17, 4, -2, -4, 8, 812, 86,c
2025-02-19 16:29:36.610,634, -76, 686, -32, 22, 3, 0, -3, 6, 775, 41,c
2025-02-19 16:29:36.720,798, -23, 626, -2, -8, -9, -4, -3, 6, 743, 50,c
2025-02-19 16:29:37.634,768, -33, 631, 1, -4, -1, -2, -3, 6, 785, 61,d
2025-02-19 16:29:37.732,715, -37, 637, 5, -19, -12, -1, -5, 8, 796, 81,d
2025-02-19 16:29:37.836,757, -47, 635, 6, 13, -19, -3, -5, 8, 527, 85,d
2025-02-19 16:29:37.940,814, 177, 615, -11, -17, 29, -3, -4, 7, 690, 83,d
2025-02-19 16:29:38.056,770, -219, 661, -3, 2, -29, -2, -5, 9, 816, 82,d
2025-02-19 16:29:38.161,837, 280, 474, 4, -12, 52, -2, -3, 8, 691, 88,d
2025-02-19 16:29:38.270,584, -126, 626, -32, 50, 6, -1, -2, 8, 791, 43,d
2025-02-19 16:29:39.186,759, -31, 631, 0, -1, -2, -1, -2, 7, 735, 59,e
2025-02-19 16:29:39.285,748, -24, 641, -1, 0, -3, -4, -4, 7, 713, 61,e
2025-02-19 16:29:39.385,747, -28, 640, 2, 1, 1, -3, -5, 8, 667, 63,e
2025-02-19 16:29:39.491,911, -24, 612, 9, 0, -19, -3, -4, 7, 590, 85,e
2025-02-19 16:29:39.603,693, 19, 695, 3, -10, -6, -2, -4, 7, 826, 80,e
2025-02-19 16:29:39.711,886, -64, 529, 13, 16, 3, -3, -5, 7, 565, 82,e
2025-02-19 16:29:39.818,743, 0, 633, 25, -14, 8, -2, -3, 8, 821, 83,e
2025-02-19 16:29:39.928,597, -102, 692, -27, 24, 4, 0, -2, 7, 696, 39,e
2025-02-19 16:29:41.044,761, -42, 634, -2, -3, 3, -3, -2, 6, 726, 76,f
2025-02-19 16:29:41.140,803, -20, 639, 0, -4, 0, -3, -4, 8, 729, 87,f
2025-02-19 16:29:41.246,859, 31, 583, 26, 7, -67, -3, -2, 7, 515, 83,f
2025-02-19 16:29:41.352,733, 83, 632, -15, -18, 6, -3, -6, 7, 833, 80,f
2025-02-19 16:29:41.464,471, 5, 555, 17, 17, -10, -3, -5, 7, 738, 64,f
2025-02-19 16:29:41.570,866, 104, 589, -19, -46, 9, -3, -6, 7, 651, 79,f
2025-02-19 16:29:41.670,912, 79, 661, -11, 24, 20, -3, -6, 8, 850, 77,f
2025-02-19 16:29:41.783,620, -58, 695, 4, -10, -8, -2, -4, 5, 644, 41,f
2025-02-19 16:29:42.602,760, -6, 634, -2, -2, -2, -3, -5, 6, 665, 68,g
2025-02-19 16:29:42.696,757, -11, 623, 5, -6, 1, -1, -3, 7, 744, 72,g
2025-02-19 16:29:42.801,766, 34, 616, -1, 2, -13, -2, -4, 8, 755, 84,g
2025-02-19 16:29:42.900,907, 90, 574, 8, 6, 26, -4, -5, 8, 452, 82,g
2025-02-19 16:29:43.020,650, -95, 674, 1, 4, -41, -2, -5, 7, 825, 80,g
2025-02-19 16:29:43.120,739, 174, 691, 4, -14, 63, -1, -4, 7, 732, 84,g
2025-02-19 16:29:43.235,995, -87, 481, 64, 29, -26, -2, -4, 6, 131, 81,g
2025-02-19 16:29:43.344,462, -90, 768, -20, 5, -5, -1, -1, 3, 554, 30,g
2025-02-19 16:29:44.261,766, 23, 651, 6, -1, -1, -2, -5, 7, 545, 58,h
2025-02-19 16:29:44.357,756, 17, 649, 4, -6, -12, -1, -5, 7, 509, 64,h
2025-02-19 16:29:44.462,818, -1, 790, 3, -3, -19, 0, -6, 7, 432, 81,h
2025-02-19 16:29:44.570,805, 233, 706, -7, -9, 64, -1, -5, 6, 436, 84,h
2025-02-19 16:29:44.674,824, -112, 624, 7, 4, -43, -1, -5, 7, 614, 82,h
2025-02-19 16:29:44.785,827, 194, 527, -4, -7, 42, -2, -4, 8, 704, 88,h
2025-02-19 16:29:44.890,596, -119, 677, -25, 51, 8, -2, -2, 4, 705, 40,h
2025-02-19 16:29:45.810,732, -34, 656, 0, -4, -2, -1, -4, 8, 557, 56,i
2025-02-19 16:29:45.908,763, -16, 655, 0, -5, -3, -4, -3, 7, 590, 62,i
2025-02-19 16:29:46.015,732, 0, 625, 3, -13, -15, -3, -3, 6, 594, 74,i
2025-02-19 16:29:46.120,774, -192, 746, -3, -1, 29, -2, -4, 8, 559, 84,i
2025-02-19 16:29:46.230,781, 192, 533, 31, 15, -70, -3, -5, 6, 698, 85,i
2025-02-19 16:29:46.333,823, 52, 512, 4, -9, -17, -3, -8, 8, 546, 84,i
2025-02-19 16:29:46.442,782, 86, 627, -41, 54, 39, -1, -5, 7, 760, 56,i
2025-02-19 16:29:46.550,643, -55, 670, 18, -28, -11, -1, -4, 6, 721, 43,i
2025-02-19 16:29:46.650,772, 10, 644, -5, 5, 2, -2, -3, 6, 694, 56,i
2025-02-19 16:29:46.764,737, -12, 655, -5, 5, 2, -3, -4, 8, 649, 51,i
2025-02-19 16:29:46.870,750, -26, 664, -3, 0, 0, -3, -3, 7, 640, 49,i
2025-02-19 16:29:46.977,740, -20, 665, -1, -3, 0, -3, -3, 7, 655, 50,i
2025-02-19 16:29:47.084,737, -27, 649, -1, -3, -1, -3, -3, 7, 655, 52,i
2025-02-19 16:29:47.190,749, -33, 659, 0, -1, 0, -3, -3, 7, 659, 54,i
2025-02-19 16:29:48.302,760, -4, 646, 0, 1, 0, -3, -5, 7, 637, 60,j
2025-02-19 16:29:48.407,750, -17, 641, -2, 3, -1, -2, -3, 8, 632, 56,j
2025-02-19 16:29:48.513,743, -13, 650, -1, -1, -2, -3, -1, 5, 624, 55,j
2025-02-19 16:29:48.620,750, -7, 650, -2, 2, -3, -2, -3, 6, 547, 54,j
2025-02-19 16:29:48.721,762, 2, 645, 2, -1, -2, -4, -5, 8, 544, 55,j
2025-02-19 16:29:48.833,747, -8, 651, 0, -1, -1, -2, -5, 6, 555, 55,j
2025-02-19 16:29:48.943,757, 3, 651, -1, -1, -1, -3, -6, 7, 553, 56,j
2025-02-19 16:29:49.049,751, -5, 647, -1, -1, -2, -1, -3, 7, 548, 56,j
2025-02-19 16:29:49.156,745, -6, 644, 0, -1, -1, -1, -3, 6, 541, 56,j
2025-02-19 16:29:49.261,757, -9, 644, 0, -1, -1, -3, -4, 6, 541, 56,j
2025-02-19 16:29:49.366,764, 1, 647, 0, -2, -2, -2, -4, 6, 517, 56,j
2025-02-19 16:29:49.476,754, -1, 644, 0, -2, -1, -2, -5, 7, 520, 58,j
2025-02-19 16:29:49.581,751, -1, 649, 0, -1, -1, -2, -4, 8, 551, 57,j
2025-02-19 16:29:50.705,714, -54, 656, 4, -11, -9, -2, -3, 9, 737, 57,k
2025-02-19 16:29:50.799,760, 1, 630, -1, 1, -3, -2, -3, 8, 742, 66,k
2025-02-19 16:29:50.905,879, -99, 726, 21, 2, -24, -4, -6, 6, 684, 83,k
2025-02-19 16:29:51.016,704, -103, 719, 30, -2, 43, -4, -7, 6, 536, 82,k
2025-02-19 16:29:51.120,830, 78, 563, 16, -28, -15, -3, -2, 7, 578, 81,k
2025-02-19 16:29:51.229,716, 65, 613, -13, 8, 12, -1, -4, 8, 810, 83,k
2025-02-19 16:29:51.339,802, -103, 470, 33, 8, -18, -3, -4, 8, 467, 79,k
2025-02-19 16:29:51.442,789, 85, 639, 0, -1, 26, -2, -3, 9, 777, 86,k
2025-02-19 16:29:51.551,518, -161, 738, -16, 20, -1, 0, -1, 5, 595, 33,k
2025-02-19 16:29:52.466,749, -18, 646, -3, -1, -4, -3, -3, 7, 577, 56,l
2025-02-19 16:29:52.563,778, 3, 645, 3, -7, -4, -1, -4, 7, 631, 65,l
2025-02-19 16:29:52.670,759, 29, 637, -2, 1, -10, -3, -5, 6, 663, 66,l
2025-02-19 16:29:52.780,813, 28, 571, -5, -8, -16, -4, -7, 7, 701, 84,l
2025-02-19 16:29:52.882,801, 176, 619, 12, -4, 46, -4, -4, 6, 537, 84,l
2025-02-19 16:29:52.994,1024, -3, 639, -3, 42, 9, -2, -4, 7, 644, 75,l
2025-02-19 16:29:53.099,525, -140, 709, -9, -8, -7, -3, -2, 5, 571, 33,l
2025-02-19 16:29:54.215,761, -35, 639, 4, -5, -1, -2, -3, 8, 548, 73,m
2025-02-19 16:29:54.310,752, 2, 654, 7, 2, -16, -2, -5, 9, 510, 83,m
2025-02-19 16:29:54.424,740, -132, 758, 2, -3, 48, -3, -5, 6, 429, 84,m
2025-02-19 16:29:54.530,761, 28, 479, 18, -2, -65, -3, -4, 6, 540, 86,m
2025-02-19 16:29:54.637,742, 135, 634, -10, -6, 34, -3, -6, 8, 685, 82,m
2025-02-19 16:29:54.741,857, -137, 571, 7, 2, -39, -3, -5, 9, 756, 82,m
2025-02-19 16:29:54.850,800, 149, 555, -2, -4, 60, -2, -5, 9, 716, 87,m
2025-02-19 16:29:54.956,695, -56, 628, -37, 56, 9, 0, -3, 7, 744, 44,m
2025-02-19 16:29:55.870,765, 12, 645, 3, -1, -5, -3, -6, 8, 432, 67,n
2025-02-19 16:29:55.971,683, 2, 632, 7, -12, -14, -1, -4, 5, 338, 74,n
2025-02-19 16:29:56.070,742, 10, 712, 1, -5, 33, -4, -6, 8, 385, 82,n
2025-02-19 16:29:56.182,784, 87, 520, 12, -5, -54, -3, -6, 7, 421, 83,n
2025-02-19 16:29:56.295,721, 121, 657, -10, -12, 54, -3, -5, 7, 714, 83,n
2025-02-19 16:29:56.400,1010, -24, 652, -18, 72, 16, -3, -3, 7, 713, 62,n
2025-02-19 16:29:56.512,579, -107, 723, 1, -21, -13, 0, -1, 5, 606, 33,n
2025-02-19 16:29:57.321,770, -11, 644, 0, -2, -2, -3, -5, 8, 603, 66,o
2025-02-19 16:29:57.422,765, -4, 627, 4, -7, 0, -2, -5, 8, 653, 72,o
2025-02-19 16:29:57.528,754, 40, 603, 4, 4, -8, -4, -3, 7, 686, 84,o
2025-02-19 16:29:57.631,723, -213, 600, 45, 20, 0, -4, -5, 6, 362, 82,o
2025-02-19 16:29:57.740,668, -3, 725, -8, -18, -37, -2, -3, 7, 770, 86,o
2025-02-19 16:29:57.850,958, 82, 580, -13, 19, 4, -2, -6, 7, 677, 78,o
2025-02-19 16:29:57.950,538, -99, 712, -5, 8, 13, -2, -3, 4, 650, 34,o
2025-02-19 16:29:58.880,733, -19, 647, 0, -2, -2, -3, -4, 9, 624, 56,p
2025-02-19 16:29:58.970,798, 21, 616, 1, -3, -3, -2, -3, 8, 651, 68,p
2025-02-19 16:29:59.081,747, -41, 656, 14, -20, -17, -3, -5, 8, 691, 82,p
2025-02-19 16:29:59.180,720, 48, 638, 0, -19, 93, -2, -3, 8, 405, 87,p
2025-02-19 16:29:59.297,760, 26, 649, 25, 25, -86, -3, -4, 8, 698, 82,p
2025-02-19 16:29:59.400,654, 130, 729, -3, -19, 32, -2, -5, 7, 748, 83,p
2025-02-19 16:29:59.510,950, 19, 482, 13, 32, -21, -3, -3, 8, 559, 82,p
2025-02-19 16:29:59.613,458, -120, 767, -17, 7, 5, -2, -2, 4, 635, 29,p
2025-02-19 16:30:00.532,747, -23, 657, -1, -1, -1, -3, -4, 7, 642, 54,q
2025-02-19 16:30:00.632,743, -28, 645, -1, -1, -1, -2, -4, 7, 659, 56,q
2025-02-19 16:30:00.740,726, -21, 634, 6, -13, -4, -3, -3, 6, 711, 64,q
2025-02-19 16:30:00.846,703, -69, 665, -2, 4, -25, -2, -4, 7, 641, 84,q
2025-02-19 16:30:00.950,813, 201, 565, -12, -15, 43, -2, -2, 7, 602, 81,q
2025-02-19 16:30:01.062,724, -112, 606, 15, -1, -28, -4, -5, 7, 773, 82,q
2025-02-19 16:30:01.163,808, 80, 596, 30, 8, 29, -2, -2, 5, 522, 85,q
2025-02-19 16:30:01.271,1033, 45, 723, -21, 68, 22, -2, -3, 7, 826, 64,q
2025-02-19 16:30:02.391,730, -8, 646, -1, -3, -1, -2, -4, 7, 547, 63,r
2025-02-19 16:30:02.484,748, 9, 649, 3, 0, -1, -4, -4, 6, 557, 69,r
2025-02-19 16:30:02.594,758, 14, 651, 4, 1, -5, -4, -4, 7, 467, 71,r
2025-02-19 16:30:02.700,768, 29, 641, -5, 0, -7, -3, -5, 7, 458, 81,r
2025-02-19 16:30:02.811,817, 242, 570, 2, -5, 21, -2, -5, 7, 465, 84,r
2025-02-19 16:30:02.920,759, -119, 720, -5, -6, -20, -3, -5, 8, 755, 79,r
2025-02-19 16:30:03.021,720, -52, 604, -15, 40, 6, -3, -4, 7, 846, 62,r
2025-02-19 16:30:03.130,738, -16, 669, 4, 6, 2, -3, -2, 6, 794, 45,r
2025-02-19 16:30:03.237,741, -21, 669, 2, -3, -2, -1, -2, 5, 712, 45,r
2025-02-19 16:30:04.350,762, -22, 642, 0, -2, 0, -3, -3, 7, 757, 65,s
2025-02-19 16:30:04.452,754, -30, 635, 1, -8, -1, -2, -2, 9, 764, 70,s
2025-02-19 16:30:04.560,775, -12, 663, -8, 0, 0, -3, -4, 8, 749, 84,s
2025-02-19 16:30:04.670,723, -108, 644, 17, 5, -23, -3, -5, 8, 440, 87,s
2025-02-19 16:30:04.773,714, 97, 695, 9, -12, 33, -4, -3, 7, 638, 86,s
2025-02-19 16:30:04.880,809, 4, 541, 48, 33, -16, -3, -1, 5, 102, 86,s
2025-02-19 16:30:04.990,589, -48, 732, -23, 23, 13, -1, -2, 4, 383, 41,s
2025-02-19 16:30:06.100,752, 2, 652, -1, -3, -3, -2, -4, 7, 663, 68,t
2025-02-19 16:30:06.200,732, -9, 646, 0, -2, -5, -3, -5, 7, 701, 71,t
2025-02-19 16:30:06.311,769, 41, 654, -2, -6, -11, -3, -7, 8, 718, 84,t
2025-02-19 16:30:06.415,733, -23, 679, 48, 5, 45, -3, -5, 7, 370, 82,t
2025-02-19 16:30:06.520,660, 75, 759, -20, -6, -12, -3, -4, 7, 786, 83,t
2025-02-19 16:30:06.630,890, 295, 506, -25, -8, -20, -3, -6, 5, 64, 80,t
2025-02-19 16:30:06.740,664, 52, 722, -6, -11, 18, -3, -6, 6, 799, 84,t
2025-02-19 16:30:06.850,653, -39, 571, -25, 48, 14, -3, -5, 5, 603, 49,t
2025-02-19 16:30:07.963,754, 4, 653, 1, -2, -1, -3, -4, 6, 501, 67,u
2025-02-19 16:30:08.050,762, 14, 653, 0, 1, -1, -3, -5, 7, 518, 70,u
2025-02-19 16:30:08.161,693, 4, 631, 5, -9, -12, -4, -5, 7, 436, 76,u
2025-02-19 16:30:08.276,780, -116, 690, 6, 3, 11, -4, -7, 8, 259, 82,u
2025-02-19 16:30:08.386,781, 70, 615, 14, -15, -12, -2, -2, 7, 681, 86,u
2025-02-19 16:30:08.493,667, -71, 635, 17, 10, -3, -2, -5, 9, 675, 83,u
2025-02-19 16:30:08.595,841, 23, 589, -6, 12, -12, -3, -2, 8, 806, 82,u
2025-02-19 16:30:08.703,533, -110, 728, -15, 4, -2, -2, 0, 5, 634, 31,u
2025-02-19 16:30:09.622,741, -24, 658, 1, -3, -1, -2, -3, 6, 554, 53,v
2025-02-19 16:30:09.712,740, -37, 666, 4, -5, 0, -3, -4, 7, 612, 57,v
2025-02-19 16:30:09.820,754, 4, 645, 3, -3, -2, -2, -4, 7, 568, 64,v
2025-02-19 16:30:09.938,595, -100, 664, 26, -27, -30, -3, -4, 8, 581, 77,v
2025-02-19 16:30:10.041,716, 96, 644, -4, -19, 53, -2, -4, 7, 681, 86,v
2025-02-19 16:30:10.151,755, -156, 686, 18, -1, -32, -2, -2, 8, 779, 81,v
2025-02-19 16:30:10.250,918, 83, 641, -36, 61, 28, -2, -3, 7, 812, 58,v
2025-02-19 16:30:11.270,744, 23, 657, 0, -1, -1, -3, -4, 6, 342, 61,w
2025-02-19 16:30:11.368,743, 13, 659, 8, -2, -3, -3, -4, 6, 349, 64,w
2025-02-19 16:30:11.474,814, 164, 645, -3, -4, -12, -2, -4, 6, 0, 76,w
2025-02-19 16:30:11.580,719, 42, 647, -16, -16, 50, -4, -6, 6, 367, 77,w
2025-02-19 16:30:11.690,714, 14, 608, 21, -6, -43, -3, -4, 6, 654, 77,w
2025-02-19 16:30:11.794,772, 29, 608, -13, -8, 45, -4, -4, 7, 790, 78,w
2025-02-19 16:30:11.900,764, 35, 588, 14, -7, -36, -3, -2, 8, 835, 80,w
2025-02-19 16:30:12.010,846, 98, 563, -55, 74, 40, -2, -3, 6, 835, 49,w
2025-02-19 16:30:12.120,716, -25, 662, 12, -22, -13, -1, -4, 5, 726, 38,w
2025-02-19 16:30:12.930,755, 4, 645, 2, -3, -2, -2, -3, 7, 671, 56,x
2025-02-19 16:30:13.030,754, 3, 639, 1, -1, -2, -3, -4, 7, 679, 58,x
2025-02-19 16:30:13.142,754, 19, 625, 4, -5, -4, -2, -3, 8, 722, 62,x
2025-02-19 16:30:13.245,763, 25, 657, 1, -3, -11, -2, -4, 8, 705, 81,x
2025-02-19 16:30:13.358,949, 215, 459, -19, 16, 19, -3, -4, 8, 14, 82,x
2025-02-19 16:30:13.464,713, -144, 872, 39, 2, -32, -2, -4, 7, 299, 76,x
2025-02-19 16:30:13.568,752, 93, 612, 3, -4, 27, -1, -3, 7, 755, 84,x
2025-02-19 16:30:13.677,613, -142, 750, -22, 40, 0, -1, -2, 4, 426, 30,x
2025-02-19 16:30:14.596,732, 25, 663, -1, -1, -1, -2, -3, 5, 561, 55,y
2025-02-19 16:30:14.688,729, 18, 656, 0, -2, -1, -2, -5, 4, 573, 56,y
2025-02-19 16:30:14.800,1430, -61, 780, 23, 2, -25, -2, -4, 7, 468, 80,y
2025-02-19 16:30:14.900,731, 205, 599, 5, -13, 34, -2, -3, 6, 690, 79,y
2025-02-19 16:30:15.013,536, -157, 647, 7, -3, -15, -3, -5, 5, 776, 69,y
2025-02-19 16:30:15.110,799, 200, 618, -8, -9, 59, -3, -1, 7, 605, 84,y
2025-02-19 16:30:15.230,1147, -64, 718, -17, 68, 10, -2, -1, 5, 0, 64,y
2025-02-19 16:30:15.337,614, -64, 740, 0, -19, -8, -1, -2, 3, 337, 35,y
2025-02-19 16:30:16.450,748, 14, 648, 5, -4, -2, -2, -5, 6, 687, 59,z
2025-02-19 16:30:16.545,724, 2, 661, 3, 2, -4, -3, -3, 6, 660, 59,z
2025-02-19 16:30:16.659,1048, -33, 685, 34, 3, -28, -3, -4, 7, 348, 78,z
2025-02-19 16:30:16.762,658, 63, 737, 15, -15, 6, -1, -5, 6, 787, 77,z
2025-02-19 16:30:16.870,979, 34, 422, -18, 13, -11, -2, -5, 7, 279, 82,z
2025-02-19 16:30:16.979,741, 88, 640, 6, -21, 18, -1, -4, 6, 769, 81,z
2025-02-19 16:30:17.085,879, -17, 577, -24, 50, 1, -1, -3, 6, 677, 62,z
2025-02-19 16:30:17.192,750, 48, 633, 2, -12, -5, -1, -5, 6, 576, 56,z
2025-02-19 16:30:17.299,630, 7, 625, 0, -18, -26, -2, -5, 5, 411, 68,z
2025-02-19 16:30:17.409,745, 114, 626, 4, -30, 19, -2, -5, 7, 795, 80,z
2025-02-19 16:30:17.511,916, 33, 659, -9, 49, 3, -3, -5, 7, 737, 73,z
2025-02-19 16:30:17.620,619, -16, 679, 2, -6, -1, -4, -4, 4, 459, 38,z
2025-02-19 16:30:18.740,753, 37, 647, -1, -2, -1, -3, -3, 7, 584, 56,0
2025-02-19 16:30:18.830,744, 21, 644, -3, -1, -3, -3, -5, 7, 602, 55,0
2025-02-19 16:30:18.942,740, 21, 634, -1, -8, -3, -3, -4, 7, 696, 58,0
2025-02-19 16:30:19.052,740, 43, 644, 0, -12, -4, -3, -5, 7, 780, 69,0
2025-02-19 16:30:19.154,710, 4, 675, 4, 2, -28, -3, -5, 8, 707, 80,0
2025-02-19 16:30:19.260,843, 357, 494, -11, -26, 77, -2, -6, 6, 617, 80,0
2025-02-19 16:30:19.375,711, -213, 661, 14, -5, -50, -2, -5, 8, 792, 83,0
2025-02-19 16:30:19.481,712, 72, 603, -51, 70, 41, -2, -5, 5, 624, 39,0
2025-02-19 16:30:20.491,713, -38, 683, 6, 0, -1, -3, -5, 7, 633, 55,1
2025-02-19 16:30:20.592,742, -6, 654, 5, -6, -1, -3, -6, 6, 605, 67,1
2025-02-19 16:30:20.692,789, 71, 604, 24, 5, 0, -3, -6, 8, 297, 79,1
2025-02-19 16:30:20.808,683, -52, 727, 6, -7, -20, -3, -6, 7, 751, 77,1
2025-02-19 16:30:20.915,814, 154, 534, 3, 5, 35, -3, -4, 7, 689, 81,1
2025-02-19 16:30:21.024,559, -48, 525, 8, -30, -16, -2, -4, 6, 410, 74,1
2025-02-19 16:30:21.128,773, 82, 636, -2, -40, 18, -3, -4, 6, 660, 81,1
2025-02-19 16:30:21.235,748, 70, 597, 2, 32, -8, -2, -3, 6, 765, 77,1
2025-02-19 16:30:21.342,655, -26, 698, -5, -8, -15, -2, -3, 4, 505, 40,1
2025-02-19 16:30:22.260,735, 44, 645, 0, -2, -1, -2, -5, 7, 588, 64,2
2025-02-19 16:30:22.356,749, 39, 657, 2, -3, -3, -3, -5, 7, 600, 67,2
2025-02-19 16:30:22.463,802, 67, 580, 3, 0, -6, -2, -6, 8, 529, 81,2
2025-02-19 16:30:22.574,812, 50, 645, 10, -18, -9, -4, -7, 6, 707, 76,2
2025-02-19 16:30:22.680,669, 41, 719, 30, 14, 58, -2, -5, 7, 771, 78,2
2025-02-19 16:30:22.787,897, -3, 618, 41, -11, -20, -2, -4, 5, 349, 74,2
2025-02-19 16:30:22.891,739, 116, 670, -16, 1, 19, -2, -4, 7, 820, 81,2
2025-02-19 16:30:23.005,574, -61, 716, -19, 38, 10, -1, -3, 4, 656, 32,2
2025-02-19 16:30:24.020,760, 66, 641, 1, -2, -2, -2, -7, 7, 657, 64,3
2025-02-19 16:30:24.118,597, -21, 667, 29, -29, -22, -3, -6, 6, 516, 78,3
2025-02-19 16:30:24.224,601, 80, 714, 4, -13, 28, -3, -7, 6, 750, 77,3
2025-02-19 16:30:24.331,959, 281, 386, -19, 8, 1, -2, -4, 7, 312, 79,3
2025-02-19 16:30:24.438,674, 95, 795, -7, -13, 20, -3, -4, 7, 670, 79,3
2025-02-19 16:30:24.544,1031, 61, 557, 29, 14, 6, -2, -2, 4, 374, 79,3
2025-02-19 16:30:24.650,414, -146, 745, -37, 14, -11, -2, 0, 5, 564, 26,3
2025-02-19 16:30:25.572,750, 45, 644, -1, -2, -2, -2, -5, 6, 667, 60,4
2025-02-19 16:30:25.666,720, 25, 634, 3, -8, -4, -2, -5, 8, 716, 64,4
2025-02-19 16:30:25.774,765, 60, 613, -2, -1, -5, -4, -6, 7, 726, 79,4
2025-02-19 16:30:25.874,826, 221, 534, 7, 5, 13, -1, -7, 7, 125, 77,4
2025-02-19 16:30:25.991,630, 128, 684, -1, -17, 18, 0, -5, 6, 753, 78,4
2025-02-19 16:30:26.096,795, 130, 691, -29, 48, -34, -3, -6, 8, 786, 65,4
2025-02-19 16:30:26.202,764, -57, 743, -9, -3, 55, -3, -6, 7, 700, 77,4
2025-02-19 16:30:26.310,828, 182, 592, 16, 3, -38, -2, -4, 7, 654, 78,4
2025-02-19 16:30:26.416,537, -78, 750, -1, -4, -7, 0, -2, 3, 585, 32,4
2025-02-19 16:30:27.436,744, 35, 664, 0, 1, -2, -3, -6, 7, 658, 65,5
2025-02-19 16:30:27.534,643, 7, 648, 16, -20, -17, -3, -6, 7, 465, 77,5
2025-02-19 16:30:27.640,827, 269, 642, -14, -40, 6, -2, -7, 7, 481, 77,5
2025-02-19 16:30:27.743,669, 90, 647, 14, 24, 4, -3, -6, 8, 699, 75,5
2025-02-19 16:30:27.854,784, 112, 680, -3, -4, 37, -3, -8, 6, 380, 76,5
2025-02-19 16:30:27.960,769, 15, 640, -5, -12, 22, -3, -5, 6, 642, 77,5
2025-02-19 16:30:28.060,858, 71, 499, 9, 13, 15, -2, -4, 7, 352, 83,5
2025-02-19 16:30:28.177,495, -15, 625, -37, 37, 7, -1, -4, 5, 472, 38,5
2025-02-19 16:30:29.093,756, 13, 651, 0, -2, -3, -1, -5, 7, 567, 56,6
2025-02-19 16:30:29.189,740, 23, 645, 2, -7, -4, -2, -5, 6, 645, 60,6
2025-02-19 16:30:29.296,1156, 48, 692, 6, 0, -11, -3, -3, 8, 691, 79,6
2025-02-19 16:30:29.405,724, -115, 637, 45, 13, -16, -2, -8, 6, 324, 79,6
2025-02-19 16:30:29.510,772, 183, 672, -9, -14, 33, -2, -1, 5, 604, 79,6
2025-02-19 16:30:29.620,825, 55, 580, 18, 27, -26, -1, -4, 6, 329, 75,6
2025-02-19 16:30:29.724,490, -73, 758, -37, 34, 20, -1, -4, 4, 462, 29,6
2025-02-19 16:30:30.745,741, 41, 660, -3, 0, -3, -2, -5, 7, 570, 56,7
2025-02-19 16:30:30.839,743, 34, 656, 1, -3, -2, -3, -5, 6, 585, 57,7
2025-02-19 16:30:30.946,700, 41, 653, 5, -1, -8, -2, -5, 4, 552, 61,7
2025-02-19 16:30:31.053,987, 82, 527, 39, 4, -3, -2, -7, 5, 429, 75,7
2025-02-19 16:30:31.163,640, -184, 741, 36, 2, 37, -2, -7, 7, 765, 77,7
2025-02-19 16:30:31.270,720, 162, 667, -26, -5, -41, -1, -5, 6, 756, 76,7
2025-02-19 16:30:31.376,769, 50, 533, 55, 10, -11, -3, -5, 7, 226, 73,7
2025-02-19 16:30:31.482,730, 100, 691, -2, -3, 10, -3, -7, 7, 796, 78,7
2025-02-19 16:30:31.590,601, -74, 701, -20, 15, 6, -2, -5, 4, 598, 41,7
2025-02-19 16:30:32.510,761, 32, 619, 4, -8, -1, -3, -4, 7, 741, 75,8
2025-02-19 16:30:32.605,738, 29, 656, -2, 4, -14, -2, -5, 8, 690, 80,8
2025-02-19 16:30:32.711,998, 150, 481, 14, 0, 64, -3, -4, 6, 458, 79,8
2025-02-19 16:30:32.815,680, 64, 560, 15, 2, -85, -3, -4, 7, 760, 80,8
2025-02-19 16:30:32.929,618, 130, 719, -19, -14, 22, -3, -5, 8, 811, 79,8
2025-02-19 16:30:33.034,904, 66, 525, 13, 23, 13, -1, -5, 6, 745, 78,8
2025-02-19 16:30:33.140,455, -70, 751, -22, 9, 10, -2, -3, 4, 662, 29,8
2025-02-19 16:30:34.257,761, 32, 639, 0, -2, -1, -3, -5, 7, 742, 60,9
2025-02-19 16:30:34.355,767, 35, 631, 6, -8, 1, -3, -5, 5, 768, 65,9
2025-02-19 16:30:34.465,780, 110, 548, -2, -3, -5, -3, -6, 7, 784, 80,9
2025-02-19 16:30:34.571,723, -107, 634, 56, 26, 6, -1, -5, 7, 575, 79,9
2025-02-19 16:30:34.674,652, 55, 699, -4, -9, -36, -3, -5, 7, 850, 77,9
2025-02-19 16:30:34.784,807, -60, 737, 16, 5, 37, -2, -8, 6, 816, 78,9
2025-02-19 16:30:34.891,720, -87, 493, 11, 26, 22, -2, -3, 7, 536, 86,9
2025-02-19 16:30:34.997,627, 8, 699, -24, 31, 15, 0, -1, 4, 188, 37,9
2025-02-19 16:30:35.103,807, -9, 677, 0, -11, 1, 0, 0, 5, 267, 38,9
