Timestamp,Acc_X,Acc_Y,Acc_Z,Gyro_X,Gyro_Y,Gyro_Z,Mag_X,Mag_Y,Mag_Z,Force,IR_A,Letter
2025-02-19 16:23:21.628,727, -38, 677, -2, 5, 2, -5, -3, 9, 725, 63,noise
2025-02-19 16:23:21.721,719, -52, 707, 8, 15, 9, -5, -2, 7, 753, 48,noise
2025-02-19 16:23:21.834,567, -171, 744, -18, 7, -18, -4, -1, 6, 674, 36,noise
2025-02-19 16:23:21.940,725, -42, 708, 0, -3, -16, -4, -3, 8, 599, 41,noise
2025-02-19 16:23:22.044,769, 11, 708, -1, 0, -12, -5, -5, 8, 445, 48,noise
2025-02-19 16:23:22.154,666, -31, 707, -5, -5, -7, -5, -4, 7, 391, 48,noise
2025-02-19 16:23:22.255,744, 5, 687, 6, -1, 0, -5, -5, 7, 401, 57,noise
2025-02-19 16:23:22.361,710, -21, 703, 0, 3, 2, -6, -3, 7, 398, 54,noise
2025-02-19 16:23:22.471,684, -36, 696, 2, 6, 4, -4, -4, 6, 304, 46,noise
2025-02-19 16:23:22.582,684, -40, 728, -8, 12, 12, -4, -3, 6, 49, 39,noise
2025-02-19 16:23:22.690,636, -100, 737, -10, -10, 8, -4, -3, 5, 0, 33,noise
2025-02-19 16:23:22.793,716, -22, 663, -3, -48, -14, -4, -4, 8, 150, 45,noise
2025-02-19 16:23:22.901,791, -50, 666, 7, 25, 6, -4, -3, 10, 245, 57,noise
2025-02-19 16:23:23.009,692, -70, 683, -2, 16, 6, -5, -3, 6, 240, 41,noise
2025-02-19 16:23:23.112,684, -96, 712, -2, 13, 7, -4, -1, 6, 239, 32,noise
2025-02-19 16:23:23.226,658, -101, 720, -8, 4, 2, -4, -3, 6, 261, 30,noise
2025-02-19 16:23:23.331,663, -105, 731, -1, -3, -3, -3, -1, 7, 386, 28,noise
2025-02-19 16:23:23.435,686, -92, 720, 2, -4, -3, -4, -2, 6, 367, 30,noise
2025-02-19 16:23:24.561,739, -106, 647, -14, -14, -10, -5, -4, 10, 768, 53,A
2025-02-19 16:23:24.651,778, -81, 647, 1, -14, -11, -7, -5, 11, 807, 66,A
2025-02-19 16:23:24.762,794, -60, 616, -10, 2, -3, -6, -5, 11, 834, 77,A
2025-02-19 16:23:24.866,765, -84, 618, -7, 3, -15, -7, -7, 13, 847, 75,A
2025-02-19 16:23:24.975,731, -214, 708, 26, -4, -16, -7, -9, 12, 855, 96,A
2025-02-19 16:23:25.084,702, -187, 738, 26, 9, 44, -7, -9, 12, 719, 97,A
2025-02-19 16:23:25.192,767, -101, 572, 23, 23, -65, -5, -8, 12, 821, 95,A
2025-02-19 16:23:25.302,778, -104, 679, -18, -26, 31, -7, -9, 11, 824, 99,A
2025-02-19 16:23:25.405,863, -4, 622, 9, 47, -8, -6, -5, 13, 815, 97,A
2025-02-19 16:23:25.512,878, -181, 528, 55, -1, -32, -7, -7, 11, 414, 100,A
2025-02-19 16:23:25.622,751, -34, 645, 11, 6, 16, -6, -8, 11, 867, 101,A
2025-02-19 16:23:25.726,707, -153, 697, -22, 41, 20, -4, -6, 10, 751, 43,A
2025-02-19 16:23:26.444,761, -23, 646, 4, -6, -8, -6, -7, 10, 778, 72,B
2025-02-19 16:23:26.543,729, -24, 643, 0, -5, -9, -6, -9, 11, 769, 77,B
2025-02-19 16:23:26.643,761, -39, 609, 4, -1, -17, -5, -8, 11, 703, 91,B
2025-02-19 16:23:26.761,872, 336, 482, -18, -15, 31, -9, -6, 13, 364, 101,B
2025-02-19 16:23:26.867,562, -163, 496, -8, -15, -64, -6, -8, 12, 782, 87,B
2025-02-19 16:23:26.961,672, -9, 725, 2, -11, 0, -7, -11, 13, 815, 96,B
2025-02-19 16:23:27.076,959, 40, 421, 1, 15, 6, -6, -8, 13, 579, 97,B
2025-02-19 16:23:27.184,628, -114, 712, -12, -9, 41, -6, -8, 14, 654, 99,B
2025-02-19 16:23:27.292,984, 52, 591, 28, 11, -6, -7, -6, 13, 348, 94,B
2025-02-19 16:23:27.404,526, -160, 676, -3, -12, -15, -5, -6, 11, 674, 45,B
2025-02-19 16:23:28.121,761, -42, 625, -1, -2, -2, -7, -8, 13, 773, 83,C
2025-02-19 16:23:28.215,779, -36, 623, 0, -4, -2, -6, -7, 12, 780, 88,C
2025-02-19 16:23:28.322,773, -9, 619, -4, -5, -3, -5, -8, 12, 786, 96,C
2025-02-19 16:23:28.431,715, -103, 669, 4, 9, -19, -6, -9, 14, 683, 98,C
2025-02-19 16:23:28.534,903, 86, 544, -4, -10, 62, -6, -8, 11, 0, 94,C
2025-02-19 16:23:28.645,733, -69, 628, 30, -4, 3, -5, -7, 13, 778, 96,C
2025-02-19 16:23:28.756,507, -229, 713, -48, 31, 10, -6, -4, 10, 702, 37,C
2025-02-19 16:23:29.661,775, -29, 627, 1, -3, -4, -5, -8, 13, 748, 81,D
2025-02-19 16:23:29.764,761, -18, 634, 1, 3, -4, -6, -7, 11, 777, 79,D
2025-02-19 16:23:29.875,770, -79, 683, 15, -2, -17, -6, -8, 12, 762, 91,D
2025-02-19 16:23:29.975,761, 83, 684, -19, -27, 78, -5, -8, 12, 560, 94,D
2025-02-19 16:23:30.090,728, -29, 653, 57, 36, -74, -6, -6, 12, 788, 92,D
2025-02-19 16:23:30.192,656, -28, 726, -17, -30, 19, -6, -9, 11, 816, 92,D
2025-02-19 16:23:30.302,852, 76, 446, -30, 22, 26, -7, -7, 14, 176, 99,D
2025-02-19 16:23:30.410,618, -63, 688, -30, 35, 11, -5, -7, 10, 615, 49,D
2025-02-19 16:23:31.225,744, -32, 636, 6, -3, -3, -4, -7, 11, 759, 78,E
2025-02-19 16:23:31.324,754, 27, 634, -1, 3, -13, -5, -8, 11, 723, 85,E
2025-02-19 16:23:31.433,757, -147, 614, 12, 2, -32, -6, -9, 12, 566, 90,E
2025-02-19 16:23:31.536,819, 145, 548, 20, 9, 28, -5, -6, 12, 38, 97,E
2025-02-19 16:23:31.651,1946, -381, 730, 16, 9, -30, -5, -10, 13, 632, 89,E
2025-02-19 16:23:31.754,720, 68, 636, 10, -16, 21, -5, -10, 14, 831, 93,E
2025-02-19 16:23:31.860,661, 0, 456, -18, -4, -16, -6, -9, 12, 627, 86,E
2025-02-19 16:23:31.965,766, 92, 609, 6, -18, 16, -6, -9, 11, 790, 91,E
2025-02-19 16:23:32.078,531, -72, 420, -26, -9, -1, -5, -7, 11, 655, 76,E
2025-02-19 16:23:32.184,809, 133, 568, 33, -41, 15, -8, -7, 12, 797, 91,E
2025-02-19 16:23:32.290,658, -35, 462, -59, 62, 9, -6, -7, 11, 769, 2,E
2025-02-19 16:23:33.110,767, 30, 641, -2, -3, -4, -7, -8, 12, 791, 72,F
2025-02-19 16:23:33.204,794, 67, 613, -4, -7, -9, -5, -9, 11, 785, 83,F
2025-02-19 16:23:33.310,769, 24, 632, -5, 1, -17, -6, -10, 11, 750, 87,F
2025-02-19 16:23:33.421,823, -69, 773, 28, -4, 66, -7, -10, 11, 641, 88,F
2025-02-19 16:23:33.523,717, 131, 565, 2, 8, -51, -6, -7, 11, 743, 88,F
2025-02-19 16:23:33.634,786, -12, 557, 79, 1, -32, -6, -11, 12, 534, 88,F
2025-02-19 16:23:33.736,804, 6, 687, 7, 0, 33, -4, -9, 13, 841, 84,F
2025-02-19 16:23:33.847,878, 243, 612, 5, -4, -13, -7, -8, 13, 543, 85,F
2025-02-19 16:23:33.957,728, 69, 602, -11, -8, 23, -5, -7, 13, 847, 86,F
2025-02-19 16:23:34.062,643, -114, 676, -2, 17, 1, -6, -7, 10, 759, 49,F
2025-02-19 16:23:34.781,774, 36, 619, -1, -6, -2, -5, -8, 13, 819, 86,G
2025-02-19 16:23:34.876,780, 46, 614, -2, -4, -3, -8, -9, 11, 824, 90,G
2025-02-19 16:23:34.983,684, -51, 661, 15, 6, -17, -5, -8, 12, 773, 91,G
2025-02-19 16:23:35.092,870, 148, 552, -1, -14, 53, -5, -8, 12, 570, 90,G
2025-02-19 16:23:35.201,727, -199, 692, -8, 0, -27, -6, -9, 12, 840, 90,G
2025-02-19 16:23:35.305,819, 182, 538, -6, -9, 39, -6, -9, 11, 734, 94,G
2025-02-19 16:23:35.416,544, -147, 536, -26, -9, -42, -7, -8, 12, 749, 85,G
2025-02-19 16:23:35.522,784, 106, 614, 13, -23, 15, -5, -7, 12, 849, 91,G
2025-02-19 16:23:35.623,845, 155, 583, -61, 64, 15, -5, -7, 10, 826, 65,G
2025-02-19 16:23:36.542,757, 23, 622, 1, -1, -5, -7, -9, 12, 745, 70,H
2025-02-19 16:23:36.640,752, 44, 643, 2, -3, -5, -7, -8, 11, 726, 74,H
2025-02-19 16:23:36.744,1023, 43, 667, 1, 0, -6, -6, -9, 9, 676, 86,H
2025-02-19 16:23:36.861,781, -217, 762, 20, -5, 22, -6, -11, 11, 644, 87,H
2025-02-19 16:23:36.962,896, 115, 640, -2, -1, 26, -5, -8, 11, 721, 89,H
2025-02-19 16:23:37.073,861, 164, 516, -22, -14, -15, -6, -9, 9, 701, 87,H
2025-02-19 16:23:37.177,714, 89, 651, -2, -10, 6, -6, -9, 11, 863, 82,H
2025-02-19 16:23:37.282,787, 11, 579, 3, -8, -24, -5, -9, 12, 860, 84,H
2025-02-19 16:23:37.391,843, 207, 502, -6, 1, 49, -6, -8, 11, 720, 90,H
2025-02-19 16:23:37.502,559, -91, 694, -39, 34, -10, -5, -6, 10, 814, 50,H
2025-02-19 16:23:38.312,767, 36, 634, 2, -1, -3, -5, -9, 11, 795, 74,I
2025-02-19 16:23:38.414,747, 35, 654, 5, 0, -4, -6, -7, 10, 780, 74,I
2025-02-19 16:23:38.520,845, 39, 671, 9, 3, -15, -6, -10, 10, 641, 84,I
2025-02-19 16:23:38.631,739, 220, 618, 7, -33, 15, -6, -10, 10, 811, 81,I
2025-02-19 16:23:38.738,798, 151, 686, -9, 38, -13, -4, -9, 12, 846, 78,I
2025-02-19 16:23:38.842,707, 61, 667, -5, -7, 45, -6, -10, 11, 784, 85,I
2025-02-19 16:23:38.951,840, 4, 696, 24, 50, -4, -5, -7, 12, 705, 80,I
2025-02-19 16:23:39.062,1030, 194, 671, 2, -34, 11, -6, -7, 10, 529, 85,I
2025-02-19 16:23:39.162,810, 97, 669, -24, 12, 11, -6, -6, 11, 829, 84,I
2025-02-19 16:23:39.982,760, 48, 641, 0, -1, -4, -5, -10, 11, 785, 70,J
2025-02-19 16:23:40.077,759, 61, 645, 0, 0, -5, -6, -9, 11, 739, 74,J
2025-02-19 16:23:40.187,736, 38, 645, 23, -3, -8, -7, -9, 11, 591, 82,J
2025-02-19 16:23:40.298,863, 349, 671, 0, -43, -16, -6, -9, 11, 546, 81,J
2025-02-19 16:23:40.401,681, 83, 666, -17, 8, 28, -7, -9, 12, 818, 83,J
2025-02-19 16:23:40.505,840, -120, 644, -7, -8, 33, -6, -11, 10, 765, 83,J
2025-02-19 16:23:40.621,514, -46, 566, -14, 29, -13, -7, -6, 12, 665, 93,J
2025-02-19 16:23:40.723,736, 110, 569, -31, 46, 36, -6, -8, 9, 667, 57,J
2025-02-19 16:23:40.832,698, -27, 664, 7, -23, -20, -6, -7, 10, 739, 49,J
2025-02-19 16:23:41.551,727, 57, 664, 2, 0, -6, -7, -8, 10, 682, 64,K
2025-02-19 16:23:41.642,704, 81, 665, 8, -2, -6, -6, -9, 11, 632, 65,K
2025-02-19 16:23:41.756,764, 177, 603, -7, -5, -5, -5, -11, 10, 605, 81,K
2025-02-19 16:23:41.855,724, 58, 661, 7, -3, 35, -6, -9, 10, 359, 80,K
2025-02-19 16:23:41.961,767, 35, 646, 3, -2, 17, -6, -9, 9, 382, 85,K
2025-02-19 16:23:42.071,516, -161, 751, 4, -42, -29, -6, -9, 11, 806, 70,K
2025-02-19 16:23:42.182,646, -41, 730, 14, 17, 15, -5, -8, 11, 682, 85,K
2025-02-19 16:23:42.291,889, 66, 713, -57, -29, 59, -4, -8, 10, 305, 87,K
2025-02-19 16:23:42.395,812, 58, 601, 19, 3, 5, -6, -7, 11, 789, 89,K
2025-02-19 16:23:42.504,572, -121, 702, -2, -7, -13, -5, -4, 9, 640, 42,K
2025-02-19 16:23:43.322,736, 40, 662, -9, -1, -2, -7, -9, 10, 700, 69,L
2025-02-19 16:23:43.419,741, 50, 650, 2, -1, -3, -7, -10, 9, 695, 74,L
2025-02-19 16:23:43.521,739, 61, 653, 10, 2, -10, -6, -9, 9, 671, 73,L
2025-02-19 16:23:43.632,732, 35, 619, 0, 2, -9, -7, -8, 10, 487, 83,L
2025-02-19 16:23:43.741,770, 186, 585, -5, -1, 22, -5, -10, 12, 225, 86,L
2025-02-19 16:23:43.841,777, 52, 634, -5, -23, 7, -5, -8, 10, 788, 85,L
2025-02-19 16:23:43.951,835, 81, 625, 4, 22, 6, -5, -7, 10, 851, 81,L
2025-02-19 16:23:44.061,692, -27, 691, 0, -9, -6, -5, -6, 10, 740, 49,L
2025-02-19 16:23:44.883,747, 11, 651, 0, -2, -2, -6, -8, 11, 813, 63,M
2025-02-19 16:23:44.976,754, 15, 650, 5, -6, -3, -5, -8, 10, 814, 70,M
2025-02-19 16:23:45.082,755, 49, 645, 5, 0, -12, -7, -7, 11, 799, 76,M
2025-02-19 16:23:45.193,773, 81, 623, -8, -6, -24, -6, -11, 10, 398, 84,M
2025-02-19 16:23:45.292,822, 408, 521, -7, -5, 49, -6, -10, 11, 553, 87,M
2025-02-19 16:23:45.406,740, -55, 666, 15, 1, -48, -6, -10, 10, 763, 81,M
2025-02-19 16:23:45.512,739, 68, 638, -32, -17, 66, -7, -10, 11, 782, 75,M
2025-02-19 16:23:45.623,757, -117, 635, 11, 1, -44, -4, -10, 10, 851, 85,M
2025-02-19 16:23:45.721,819, 293, 516, -6, -5, 54, -4, -7, 12, 780, 88,M
2025-02-19 16:23:45.836,660, -64, 599, -42, 48, 0, -5, -6, 10, 801, 50,M
2025-02-19 16:23:46.652,731, 77, 652, -3, -5, -5, -6, -10, 9, 659, 72,N
2025-02-19 16:23:46.749,742, 45, 644, 2, -3, -6, -7, -10, 10, 578, 78,N
2025-02-19 16:23:46.854,749, 51, 653, -2, -2, -14, -5, -10, 12, 383, 82,N
2025-02-19 16:23:46.961,833, 248, 516, -10, -3, 27, -5, -8, 12, 1, 88,N
2025-02-19 16:23:47.073,530, -74, 610, 8, -12, -51, -7, -8, 11, 606, 79,N
2025-02-19 16:23:47.182,830, -92, 658, -14, -31, 105, -8, -8, 12, 712, 87,N
2025-02-19 16:23:47.290,740, 124, 542, 60, 19, -87, -5, -7, 12, 772, 90,N
2025-02-19 16:23:47.392,819, 133, 629, -12, 4, 5, -5, -10, 13, 847, 83,N
2025-02-19 16:23:47.491,568, -66, 708, 4, -9, 3, -6, -6, 9, 764, 45,N
2025-02-19 16:23:48.312,762, 31, 648, -2, -1, -1, -5, -9, 9, 739, 68,O
2025-02-19 16:23:48.412,764, 25, 656, -1, -1, 0, -7, -9, 10, 748, 69,O
2025-02-19 16:23:48.518,749, 13, 638, 1, -4, 0, -7, -7, 11, 758, 71,O
2025-02-19 16:23:48.621,747, 43, 634, 8, 5, -19, -6, -9, 12, 730, 89,O
2025-02-19 16:23:48.736,944, 47, 551, 29, 6, 54, -7, -10, 10, 311, 82,O
2025-02-19 16:23:48.842,645, 1, 707, 8, -14, -47, -5, -7, 12, 794, 88,O
2025-02-19 16:23:48.957,1064, 136, 609, -12, 34, 20, -6, -10, 12, 746, 79,O
2025-02-19 16:23:49.055,594, -43, 702, 2, -12, 6, -6, -8, 8, 683, 43,O
2025-02-19 16:23:49.872,743, 16, 650, 0, 0, -2, -6, -7, 10, 758, 66,P
2025-02-19 16:23:49.973,738, 6, 645, 5, -5, -5, -6, -9, 11, 757, 68,P
2025-02-19 16:23:50.079,748, 50, 632, 11, -6, -11, -6, -9, 11, 736, 83,P
2025-02-19 16:23:50.187,758, -41, 584, 5, -1, -20, -6, -10, 10, 511, 84,P
2025-02-19 16:23:50.291,784, 171, 589, 15, 5, 22, -5, -7, 10, 582, 86,P
2025-02-19 16:23:50.403,823, -101, 673, -9, -19, -28, -5, -11, 11, 791, 78,P
2025-02-19 16:23:50.510,741, 131, 587, 8, 14, 25, -6, -10, 12, 751, 83,P
2025-02-19 16:23:50.611,587, -26, 615, -40, 41, 24, -4, -7, 8, 734, 46,P
2025-02-19 16:23:50.721,812, 48, 664, 17, -29, -11, -5, -9, 8, 760, 53,P
2025-02-19 16:23:50.832,727, 12, 669, -1, -3, -1, -5, -8, 10, 742, 58,P
2025-02-19 16:23:50.936,749, 31, 663, -5, 0, -2, -5, -8, 11, 754, 60,P
2025-02-19 16:23:51.041,758, 37, 643, -3, -2, -1, -5, -7, 10, 757, 61,P
2025-02-19 16:23:51.151,752, 20, 653, -4, -1, -1, -6, -8, 9, 751, 61,P
2025-02-19 16:23:51.258,749, 21, 645, -2, -2, -1, -7, -8, 11, 758, 63,P
2025-02-19 16:23:51.365,746, 15, 652, 1, -4, -3, -5, -7, 10, 760, 63,P
2025-02-19 16:23:51.471,754, 19, 649, -1, 0, -1, -7, -8, 11, 761, 64,P
2025-02-19 16:23:53.492,754, 31, 645, -3, -2, 0, -5, -10, 10, 844, 68,Q
2025-02-19 16:23:53.585,748, 44, 644, 5, -6, 0, -5, -9, 10, 846, 73,Q
2025-02-19 16:23:53.696,771, 73, 625, 0, -4, -2, -5, -7, 10, 849, 78,Q
2025-02-19 16:23:53.802,721, -35, 659, 12, -2, -29, -5, -9, 11, 801, 84,Q
2025-02-19 16:23:53.911,804, 310, 562, -30, -13, 65, -5, -8, 12, 750, 83,Q
2025-02-19 16:23:54.018,815, -11, 561, 8, 7, -28, -7, -9, 12, 847, 86,Q
2025-02-19 16:23:54.126,612, 112, 675, 8, -28, -15, -5, -7, 10, 805, 76,Q
2025-02-19 16:23:54.232,721, 2, 607, -41, -41, 69, -5, -7, 10, 775, 87,Q
2025-02-19 16:23:54.338,1002, 46, 676, -9, 75, 0, -6, -5, 9, 845, 71,Q
2025-02-19 16:23:54.441,646, -21, 681, 23, -13, -13, -4, -5, 8, 748, 44,Q
2025-02-19 16:23:55.361,750, -20, 648, 3, -1, -3, -6, -6, 10, 750, 73,R
2025-02-19 16:23:55.461,750, -5, 647, -2, 0, -4, -6, -7, 11, 756, 76,R
2025-02-19 16:23:55.568,751, -22, 657, 1, -3, -7, -6, -9, 11, 751, 78,R
2025-02-19 16:23:55.674,763, 30, 642, 1, 0, -2, -7, -9, 11, 714, 86,R
2025-02-19 16:23:55.785,733, -213, 714, 10, 4, 4, -9, -10, 11, 630, 87,R
2025-02-19 16:23:55.891,791, -12, 669, -4, -4, 23, -6, -7, 9, 606, 90,R
2025-02-19 16:23:56.001,782, -124, 644, 14, -4, -38, -7, -10, 11, 694, 85,R
2025-02-19 16:23:56.101,716, 86, 686, -34, -3, 43, -6, -9, 11, 670, 90,R
2025-02-19 16:23:56.202,922, 11, 679, 19, -22, 4, -7, -9, 10, 577, 88,R
2025-02-19 16:23:56.317,773, 48, 627, -2, 0, 15, -6, -6, 10, 777, 93,R
2025-02-19 16:23:56.422,651, -112, 693, -5, -3, -12, -5, -7, 10, 724, 58,R
2025-02-19 16:23:57.241,754, -8, 643, -2, -1, -2, -5, -9, 13, 776, 74,S
2025-02-19 16:23:57.340,765, -9, 638, 2, -3, -1, -6, -10, 10, 785, 77,S
2025-02-19 16:23:57.442,750, 14, 606, -2, -3, -3, -6, -9, 11, 803, 89,S
2025-02-19 16:23:57.558,743, -9, 602, 22, 14, -14, -5, -10, 11, 591, 89,S
2025-02-19 16:23:57.664,708, 137, 689, 8, -16, 37, -5, -10, 10, 802, 89,S
2025-02-19 16:23:57.771,693, 69, 613, -6, 34, -29, -6, -7, 11, 341, 89,S
2025-02-19 16:23:57.873,696, 49, 630, -48, 37, 30, -5, -8, 9, 633, 56,S
2025-02-19 16:23:58.895,741, 14, 653, 4, -1, -4, -4, -9, 12, 758, 68,T
2025-02-19 16:23:58.988,723, 23, 665, 2, 1, -6, -4, -9, 10, 713, 70,T
2025-02-19 16:23:59.101,779, 122, 705, 26, 7, -20, -7, -10, 10, 383, 81,T
2025-02-19 16:23:59.201,765, 260, 637, -30, -58, 24, -6, -12, 11, 685, 84,T
2025-02-19 16:23:59.316,688, 111, 636, -22, 10, 7, -6, -9, 11, 842, 85,T
2025-02-19 16:23:59.422,808, 34, 574, -10, -2, 2, -6, -12, 11, 697, 83,T
2025-02-19 16:23:59.522,794, 180, 559, 6, 2, 24, -6, -8, 11, 642, 90,T
2025-02-19 16:23:59.634,618, -92, 661, -40, 42, 5, -5, -7, 9, 726, 45,T
2025-02-19 16:24:00.552,738, 8, 662, 0, 0, -2, -5, -9, 10, 729, 64,U
2025-02-19 16:24:00.644,739, 11, 655, 2, -3, -3, -6, -9, 11, 726, 66,U
2025-02-19 16:24:00.751,741, 22, 660, 1, 1, -4, -6, -9, 11, 710, 68,U
2025-02-19 16:24:00.867,675, -24, 685, 11, -18, -22, -5, -10, 11, 596, 78,U
2025-02-19 16:24:00.971,846, 122, 620, -6, -24, 78, -6, -9, 8, 496, 86,U
2025-02-19 16:24:01.077,739, -51, 753, 44, 1, -53, -6, -9, 9, 821, 87,U
2025-02-19 16:24:01.185,782, 162, 641, -17, -9, 75, -7, -10, 10, 770, 87,U
2025-02-19 16:24:01.292,995, 21, 697, -37, 65, 8, -7, -7, 9, 829, 66,U
2025-02-19 16:24:02.212,737, -13, 659, 2, -2, -1, -5, -9, 9, 726, 60,V
2025-02-19 16:24:02.306,742, 6, 655, 8, -5, -3, -6, -10, 11, 744, 66,V
2025-02-19 16:24:02.416,725, 30, 655, 8, -3, -5, -5, -10, 10, 750, 73,V
2025-02-19 16:24:02.523,743, 49, 625, 14, 1, -24, -6, -9, 10, 674, 82,V
2025-02-19 16:24:02.632,956, -142, 767, 13, -3, 60, -6, -12, 13, 633, 81,V
2025-02-19 16:24:02.734,788, 81, 496, 37, -7, -57, -6, -7, 13, 799, 90,V
2025-02-19 16:24:02.841,789, 96, 607, -12, 8, 0, -6, -10, 12, 848, 83,V
2025-02-19 16:24:02.952,564, -87, 722, -19, 18, 16, -5, -9, 9, 782, 40,V
2025-02-19 16:24:03.870,742, 48, 662, 6, 0, -4, -6, -9, 10, 732, 64,W
2025-02-19 16:24:03.962,748, 64, 657, 1, -1, -1, -4, -10, 7, 714, 66,W
2025-02-19 16:24:04.067,708, 77, 664, 7, 0, -6, -7, -10, 10, 699, 67,W
2025-02-19 16:24:04.181,792, 104, 700, 11, 2, -13, -6, -11, 9, 625, 77,W
2025-02-19 16:24:04.291,1062, -149, 683, 19, -8, 37, -5, -11, 8, 580, 77,W
2025-02-19 16:24:04.398,796, 196, 529, 3, -14, -27, -5, -7, 11, 801, 85,W
2025-02-19 16:24:04.501,818, 32, 778, -8, -14, 52, -6, -10, 11, 829, 79,W
2025-02-19 16:24:04.611,722, 20, 620, 10, -7, -44, -8, -8, 11, 858, 81,W
2025-02-19 16:24:04.716,831, 121, 570, -41, 66, 43, -6, -7, 10, 859, 51,W
2025-02-19 16:24:04.824,714, 11, 664, 16, -30, -15, -5, -5, 9, 825, 49,W
2025-02-19 16:24:05.643,758, 26, 647, -1, 0, -2, -4, -8, 11, 824, 64,X
2025-02-19 16:24:05.737,757, 28, 643, 2, -8, -6, -6, -9, 10, 828, 69,X
2025-02-19 16:24:05.844,746, 41, 634, -4, -1, -6, -6, -8, 11, 830, 72,X
2025-02-19 16:24:05.949,788, 26, 687, 2, -2, -6, -6, -8, 11, 840, 85,X
2025-02-19 16:24:06.051,846, 354, 524, -7, 8, 36, -4, -10, 10, 0, 86,X
2025-02-19 16:24:06.171,681, -11, 719, -14, 11, -61, -6, -10, 10, 626, 78,X
2025-02-19 16:24:06.272,764, 86, 820, -49, -35, 90, -7, -11, 10, 707, 82,X
2025-02-19 16:24:06.381,790, 86, 549, -1, 6, -21, -7, -8, 9, 822, 87,X
2025-02-19 16:24:06.487,589, -99, 720, 2, -4, -17, -5, -7, 9, 664, 43,X
2025-02-19 16:24:07.602,736, 11, 662, 1, -1, -3, -5, -9, 10, 736, 60,Y
2025-02-19 16:24:07.699,755, 36, 656, 1, 0, -3, -5, -9, 9, 699, 63,Y
2025-02-19 16:24:07.802,745, 40, 657, 2, -1, -3, -7, -10, 9, 715, 64,Y
2025-02-19 16:24:07.916,738, 48, 661, 0, 0, -3, -6, -8, 10, 704, 65,Y
2025-02-19 16:24:08.022,729, 68, 650, 4, 0, -11, -4, -10, 9, 635, 70,Y
2025-02-19 16:24:08.129,747, 61, 637, 0, 1, -5, -6, -11, 10, 510, 81,Y
2025-02-19 16:24:08.240,748, -89, 575, 13, 6, -28, -6, -9, 10, 484, 81,Y
2025-02-19 16:24:08.342,771, 125, 598, 9, 2, 20, -6, -9, 11, 824, 83,Y
2025-02-19 16:24:08.451,509, -128, 777, 38, -73, -27, -7, -9, 10, 878, 76,Y
2025-02-19 16:24:08.559,737, 52, 613, -14, 9, 28, -6, -9, 12, 654, 87,Y
2025-02-19 16:24:08.666,700, 15, 674, -21, -12, 54, -6, -7, 11, 298, 90,Y
2025-02-19 16:24:08.771,932, 11, 647, -3, 60, 1, -7, -6, 11, 757, 68,Y
2025-02-19 16:24:08.882,722, -29, 656, 4, -18, -22, -8, -7, 10, 760, 53,Y
2025-02-19 16:24:09.902,751, 48, 647, 2, 2, -5, -6, -10, 11, 741, 79,Z
2025-02-19 16:24:09.998,737, 46, 657, 2, 0, -6, -7, -10, 11, 659, 82,Z
2025-02-19 16:24:10.102,787, 70, 596, 1, -1, -8, -6, -9, 10, 76, 82,Z
2025-02-19 16:24:10.215,638, 40, 764, 22, -11, -7, -4, -10, 10, 838, 77,Z
2025-02-19 16:24:10.316,921, 44, 413, 8, 12, -1, -5, -9, 9, 345, 82,Z
2025-02-19 16:24:10.427,722, 72, 663, 4, -15, 8, -6, -8, 11, 838, 80,Z
2025-02-19 16:24:10.531,652, 24, 606, -22, 27, 9, -6, -7, 9, 833, 64,Z
2025-02-19 16:24:10.634,792, 61, 646, -13, 5, -6, -5, -5, 9, 816, 61,Z
2025-02-19 16:24:10.746,739, 14, 650, -12, 8, 4, -6, -9, 9, 760, 50,Z
2025-02-19 16:24:11.766,747, 5, 662, -1, -1, -1, -5, -7, 9, 793, 58,a
2025-02-19 16:24:11.861,746, 0, 664, 0, -3, 1, -7, -9, 11, 796, 61,a
2025-02-19 16:24:11.965,804, 19, 632, -1, -3, 2, -7, -8, 11, 791, 71,a
2025-02-19 16:24:12.072,739, 0, 645, 3, -6, 2, -6, -9, 11, 809, 71,a
2025-02-19 16:24:12.181,757, 33, 666, 1, 2, -16, -5, -8, 12, 774, 88,a
2025-02-19 16:24:12.295,926, 148, 590, -23, -12, 56, -6, -8, 10, 541, 84,a
2025-02-19 16:24:12.397,698, -174, 678, 5, 1, -32, -4, -9, 11, 835, 85,a
2025-02-19 16:24:12.501,868, 182, 582, -4, -1, 34, -5, -9, 13, 819, 84,a
2025-02-19 16:24:13.425,750, 19, 651, -2, 0, -3, -6, -9, 10, 777, 70,b
2025-02-19 16:24:13.519,707, 55, 622, -3, -6, -6, -6, -9, 11, 777, 71,b
2025-02-19 16:24:13.630,765, 15, 617, -2, -2, -7, -6, -10, 10, 684, 85,b
2025-02-19 16:24:13.737,724, 41, 720, 30, -14, 69, -5, -9, 11, 767, 83,b
2025-02-19 16:24:13.842,794, 41, 543, 26, 8, -61, -6, -7, 10, 827, 80,b
2025-02-19 16:24:13.950,683, 146, 723, -16, -7, 52, -7, -8, 12, 851, 83,b
2025-02-19 16:24:14.052,827, 50, 554, -64, 97, 32, -5, -7, 10, 765, 48,b
2025-02-19 16:24:14.164,617, -49, 691, 20, -38, -13, -6, -4, 6, 766, 33,b
2025-02-19 16:24:15.081,734, 1, 663, 2, -5, -3, -5, -8, 10, 777, 66,c
2025-02-19 16:24:15.174,767, 33, 636, 3, -4, 1, -5, -7, 10, 755, 73,c
2025-02-19 16:24:15.282,747, 16, 621, -1, -4, 1, -6, -8, 11, 729, 77,c
2025-02-19 16:24:15.391,758, 41, 633, 0, -1, -5, -6, -8, 11, 755, 77,c
2025-02-19 16:24:15.499,755, -3, 686, 0, -2, -4, -6, -7, 11, 810, 78,c
2025-02-19 16:24:15.602,762, -21, 670, 1, 5, 3, -6, -7, 11, 803, 73,c
2025-02-19 16:24:15.713,708, -8, 635, -9, -2, -13, -4, -9, 9, 799, 69,c
2025-02-19 16:24:15.821,729, 4, 704, -1, -9, -12, -6, -8, 12, 823, 84,c
2025-02-19 16:24:15.927,905, 174, 582, 24, 9, 32, -6, -12, 11, 557, 80,c
2025-02-19 16:24:16.035,736, 27, 667, 13, 0, -2, -6, -8, 11, 873, 79,c
2025-02-19 16:24:16.141,554, -60, 716, -21, 3, -3, -5, -7, 8, 819, 37,c
2025-02-19 16:24:17.063,732, 19, 653, 2, -6, 0, -7, -9, 11, 769, 65,d
2025-02-19 16:24:17.161,1144, 73, 737, 1, -3, -10, -6, -11, 11, 794, 83,d
2025-02-19 16:24:17.267,770, -53, 596, 40, 18, 1, -6, -10, 10, 638, 82,d
2025-02-19 16:24:17.371,689, 31, 684, -7, -2, -61, -6, -8, 12, 863, 84,d
2025-02-19 16:24:17.480,811, -23, 757, -25, 0, 89, -7, -12, 12, 834, 82,d
2025-02-19 16:24:17.581,1013, 70, 739, -18, 72, 9, -5, -7, 11, 858, 64,d
2025-02-19 16:24:17.692,579, -64, 744, 8, -15, -10, -5, -7, 8, 814, 34,d
2025-02-19 16:24:18.516,904, -19, 749, -16, 14, -10, -5, -7, 9, 653, 42,e
2025-02-19 16:24:18.601,751, 6, 705, 6, -19, -7, -4, -7, 8, 728, 44,e
2025-02-19 16:24:18.717,661, -13, 709, -1, 0, -5, -5, -7, 10, 713, 53,e
2025-02-19 16:24:18.824,982, 258, 691, 10, -12, 20, -5, -9, 11, 672, 84,e
2025-02-19 16:24:18.929,644, -100, 688, 15, 5, -41, -6, -6, 12, 792, 85,e
2025-02-19 16:24:19.041,815, 256, 604, -1, -19, 46, -7, -8, 11, 791, 83,e
2025-02-19 16:24:19.145,770, 78, 607, -43, 78, 31, -5, -6, 11, 843, 51,e
2025-02-19 16:24:20.064,744, 16, 647, -9, -4, -2, -6, -7, 11, 667, 62,f
2025-02-19 16:24:20.151,757, 11, 660, -2, -3, 2, -5, -7, 11, 745, 68,f
2025-02-19 16:24:20.265,644, -33, 653, 1, -29, -9, -6, -7, 12, 777, 86,f
2025-02-19 16:24:20.371,837, -2, 642, 63, -1, -86, -6, -9, 10, 640, 86,f
2025-02-19 16:24:20.481,791, 170, 635, -45, -12, 17, -5, -12, 13, 838, 90,f
2025-02-19 16:24:20.589,557, 74, 595, 28, -8, -13, -5, -11, 11, 782, 71,f
2025-02-19 16:24:20.696,895, 260, 608, 9, -38, -2, -6, -10, 11, 738, 87,f
2025-02-19 16:24:20.806,1030, 67, 668, -15, 62, 11, -5, -9, 11, 852, 75,f
2025-02-19 16:24:22.222,775, 18, 638, 0, 0, -12, -6, -9, 10, 785, 90,g
2025-02-19 16:24:22.317,811, 49, 559, 17, 11, -10, -6, -10, 13, 491, 89,g
2025-02-19 16:24:22.424,781, 104, 612, 14, -10, 2, -5, -8, 11, 833, 89,g
2025-02-19 16:24:22.531,791, 72, 600, -1, 1, -2, -4, -9, 12, 821, 86,g
2025-02-19 16:24:22.641,785, -42, 603, 33, 1, -17, -5, -9, 12, 816, 87,g
2025-02-19 16:24:22.744,721, 8, 566, -30, 7, 34, -5, -8, 12, 696, 95,g
2025-02-19 16:24:22.854,900, 110, 585, -37, 68, 26, -6, -6, 10, 584, 57,g
2025-02-19 16:24:22.963,563, -119, 733, 6, -10, -13, -4, -5, 8, 690, 33,g
2025-02-19 16:24:23.881,740, 16, 662, -1, -2, -4, -7, -9, 11, 780, 63,h
2025-02-19 16:24:23.976,769, -10, 661, 9, -9, 0, -5, -10, 11, 776, 71,h
2025-02-19 16:24:24.078,780, 78, 616, -4, 3, 0, -5, -8, 12, 738, 73,h
2025-02-19 16:24:24.194,730, 94, 623, -1, -1, -28, -7, -10, 11, 734, 74,h
2025-02-19 16:24:24.295,758, 8, 584, 9, 3, -23, -5, -13, 11, 660, 89,h
2025-02-19 16:24:24.402,805, 279, 544, 2, -4, 18, -7, -10, 10, 671, 88,h
2025-02-19 16:24:24.512,683, -130, 743, -14, -16, -12, -6, -10, 13, 831, 88,h
2025-02-19 16:24:24.615,845, 9, 599, 0, 12, 6, -6, -7, 11, 850, 88,h
2025-02-19 16:24:25.638,757, -7, 638, 3, -4, -4, -6, -9, 12, 774, 73,i
2025-02-19 16:24:25.733,728, -2, 626, 7, -3, -12, -6, -9, 13, 709, 79,i
2025-02-19 16:24:25.840,763, -81, 646, 6, 3, 3, -6, -10, 12, 640, 88,i
2025-02-19 16:24:25.944,867, 59, 600, 4, 3, -35, -5, -7, 13, 791, 90,i
2025-02-19 16:24:26.061,853, 264, 458, -22, -26, -30, -7, -10, 12, 707, 90,i
2025-02-19 16:24:26.161,1018, 63, 653, -7, 41, 23, -5, -10, 11, 827, 76,i
2025-02-19 16:24:26.261,564, -63, 700, 6, -19, -6, -4, -8, 10, 799, 42,i
2025-02-19 16:24:27.285,742, -14, 649, 6, -5, 5, -5, -8, 12, 836, 60,j
2025-02-19 16:24:27.383,744, -9, 638, 6, -7, 7, -5, -8, 10, 836, 61,j
2025-02-19 16:24:27.490,777, -8, 631, 0, -1, -3, -5, -6, 12, 835, 67,j
2025-02-19 16:24:27.594,780, -8, 630, 0, 0, -2, -6, -7, 14, 828, 68,j
2025-02-19 16:24:27.703,761, 8, 630, 0, -2, 0, -6, -7, 12, 833, 68,j
2025-02-19 16:24:27.811,753, -68, 696, 21, -19, -19, -6, -7, 12, 842, 85,j
2025-02-19 16:24:27.924,820, 175, 594, -32, -13, 36, -5, -7, 12, 701, 96,j
2025-02-19 16:24:28.035,522, -172, 599, -31, -16, -64, -5, -10, 13, 821, 80,j
2025-02-19 16:24:28.138,782, 157, 575, -14, -11, 64, -5, -11, 13, 839, 88,j
2025-02-19 16:24:28.244,541, -48, 694, -15, 10, 16, -6, -8, 11, 844, 47,j
2025-02-19 16:24:28.351,865, 61, 563, 14, -14, -2, -7, -9, 11, 811, 79,j
2025-02-19 16:24:28.458,772, 39, 616, -7, 13, 7, -4, -9, 12, 777, 69,j
2025-02-19 16:24:29.477,742, 31, 642, -4, -1, -6, -6, -10, 11, 606, 71,k
2025-02-19 16:24:29.571,744, 45, 651, 0, -1, -4, -6, -10, 10, 642, 73,k
2025-02-19 16:24:29.678,751, 61, 644, 3, -1, -8, -5, -10, 11, 599, 76,k
2025-02-19 16:24:29.789,771, 27, 604, -2, -3, -14, -5, -11, 11, 568, 88,k
2025-02-19 16:24:29.899,780, 243, 549, -18, -10, 46, -6, -10, 12, 469, 90,k
2025-02-19 16:24:30.002,704, -99, 679, -7, 7, -13, -8, -8, 11, 803, 77,k
2025-02-19 16:24:30.108,691, 64, 689, -21, 9, 5, -6, -9, 12, 751, 91,k
2025-02-19 16:24:30.218,992, 112, 808, -24, -31, 53, -5, -9, 10, 568, 88,k
2025-02-19 16:24:30.321,827, 46, 574, -6, 0, 7, -5, -8, 13, 786, 93,k
2025-02-19 16:24:30.431,634, -105, 678, -11, 11, 6, -5, -7, 8, 685, 52,k
2025-02-19 16:24:31.451,768, 27, 631, -1, -2, -2, -5, -11, 12, 808, 68,l
2025-02-19 16:24:31.546,761, 29, 636, 1, -3, -3, -5, -10, 12, 810, 72,l
2025-02-19 16:24:31.652,692, 54, 638, 10, 7, -28, -8, -10, 12, 764, 73,l
2025-02-19 16:24:31.759,768, -3, 566, 3, 1, -18, -6, -10, 11, 656, 92,l
2025-02-19 16:24:31.862,819, 225, 495, 3, -3, 30, -5, -7, 12, 745, 92,l
2025-02-19 16:24:31.971,736, 2, 560, -42, 59, 12, -6, -7, 11, 801, 54,l
2025-02-19 16:24:32.082,689, -42, 661, 12, -20, -15, -6, -7, 10, 735, 43,l
2025-02-19 16:24:32.184,760, 9, 639, 2, -5, -5, -6, -9, 11, 729, 55,l
2025-02-19 16:24:32.293,742, 3, 643, -1, -1, -2, -6, -7, 11, 731, 58,l
2025-02-19 16:24:32.393,756, 12, 642, 0, 0, 0, -6, -9, 11, 713, 59,l
2025-02-19 16:24:32.507,739, 4, 648, 1, -2, -2, -5, -8, 12, 717, 61,l
2025-02-19 16:24:32.614,755, 28, 639, -1, -2, -2, -5, -7, 13, 711, 63,l
2025-02-19 16:24:34.234,755, 45, 638, 1, -3, -6, -5, -9, 12, 753, 74,m
2025-02-19 16:24:34.331,760, 0, 638, -14, -3, 7, -6, -10, 11, 736, 86,m
2025-02-19 16:24:34.437,782, 27, 622, 9, 2, 18, -7, -9, 11, 702, 89,m
2025-02-19 16:24:34.543,767, 49, 627, -13, -4, -23, -6, -10, 12, 789, 81,m
2025-02-19 16:24:34.652,744, 12, 665, -16, -15, 11, -6, -11, 11, 828, 74,m
2025-02-19 16:24:34.759,803, 113, 564, -2, -1, 15, -6, -9, 12, 772, 90,m
2025-02-19 16:24:34.865,776, 0, 651, 4, -6, -17, -4, -10, 13, 838, 84,m
2025-02-19 16:24:34.971,793, 35, 627, 2, -10, 4, -6, -10, 12, 849, 84,m
2025-02-19 16:24:35.079,822, 64, 558, 7, 9, 18, -6, -8, 13, 832, 87,m
2025-02-19 16:24:35.191,579, -79, 727, -16, 25, 8, -4, -6, 12, 838, 44,m
2025-02-19 16:24:35.293,806, 41, 606, 1, -8, -2, -5, -7, 12, 787, 51,m
2025-02-19 16:24:36.111,759, 4, 651, -1, -1, -1, -6, -6, 10, 753, 57,n
2025-02-19 16:24:36.211,767, -5, 644, -1, -1, -3, -5, -9, 11, 750, 60,n
2025-02-19 16:24:36.317,745, 13, 645, 3, 7, -7, -6, -10, 9, 688, 61,n
2025-02-19 16:24:36.425,704, 32, 630, 14, -4, -20, -6, -8, 11, 545, 66,n
2025-02-19 16:24:36.534,753, -48, 659, 4, -3, 33, -7, -10, 11, 550, 83,n
2025-02-19 16:24:36.641,789, 125, 534, 36, -4, -52, -8, -9, 10, 694, 84,n
2025-02-19 16:24:36.742,756, 67, 695, -19, -18, 5, -6, -10, 11, 826, 81,n
2025-02-19 16:24:36.850,862, 12, 599, 6, 0, 3, -5, -9, 12, 842, 83,n
2025-02-19 16:24:36.961,577, -43, 703, -14, 3, 1, -6, -8, 9, 819, 43,n
2025-02-19 16:24:37.061,789, 27, 631, 5, -10, -4, -6, -6, 10, 746, 53,n
2025-02-19 16:24:37.174,731, 4, 655, 0, -1, 0, -7, -6, 10, 743, 55,n
2025-02-19 16:24:38.791,762, 2, 647, -4, -6, 1, -5, -9, 11, 735, 61,o
2025-02-19 16:24:38.888,744, 22, 643, 0, -3, 1, -7, -8, 11, 757, 64,o
2025-02-19 16:24:38.996,783, 26, 615, 5, -3, 1, -7, -8, 10, 787, 67,o
2025-02-19 16:24:39.102,723, 72, 613, 3, -9, -10, -6, -9, 12, 820, 75,o
2025-02-19 16:24:39.213,784, -137, 551, 25, 14, -16, -6, -9, 12, 637, 85,o
2025-02-19 16:24:39.311,669, 70, 609, -4, -15, -44, -6, -7, 13, 850, 86,o
2025-02-19 16:24:39.427,869, 117, 597, -6, 22, 10, -5, -9, 11, 786, 81,o
2025-02-19 16:24:39.531,565, -56, 703, -19, 14, 16, -5, -6, 9, 694, 39,o
2025-02-19 16:24:40.351,749, 27, 637, -1, -1, 0, -6, -8, 12, 706, 65,p
2025-02-19 16:24:40.445,759, 37, 637, 1, -2, -3, -8, -8, 13, 702, 67,p
2025-02-19 16:24:40.556,771, 146, 642, 9, -5, -11, -5, -9, 12, 603, 74,p
2025-02-19 16:24:40.667,779, -47, 604, -11, -8, -24, -7, -11, 10, 348, 85,p
2025-02-19 16:24:40.769,828, 240, 529, 18, 0, 20, -4, -6, 12, 653, 88,p
2025-02-19 16:24:40.880,876, -38, 612, -5, -13, -40, -6, -11, 10, 781, 78,p
2025-02-19 16:24:40.986,713, 225, 573, -23, 6, 41, -5, -9, 12, 771, 85,p
2025-02-19 16:24:41.093,584, 11, 585, -46, 61, 31, -6, -8, 9, 748, 44,p
2025-02-19 16:24:41.911,753, 32, 640, -2, -1, -2, -7, -9, 12, 698, 60,q
2025-02-19 16:24:42.007,760, 43, 637, 0, -1, -1, -5, -7, 11, 717, 63,q
2025-02-19 16:24:42.112,752, 25, 642, 0, -3, -1, -6, -7, 11, 749, 64,q
2025-02-19 16:24:42.220,651, 6, 656, 13, -30, -20, -5, -9, 10, 769, 77,q
2025-02-19 16:24:42.325,895, 38, 564, 24, 12, 17, -7, -9, 11, 312, 83,q
2025-02-19 16:24:42.433,683, -21, 701, 3, -4, -37, -6, -9, 12, 823, 83,q
2025-02-19 16:24:42.543,801, 185, 617, -6, -11, 70, -5, -8, 11, 717, 83,q
2025-02-19 16:24:42.643,784, -5, 602, 22, -4, -25, -5, -8, 11, 822, 85,q
2025-02-19 16:24:42.757,517, -74, 703, -55, 61, 27, -5, -6, 10, 823, 33,q
2025-02-19 16:24:43.876,768, 41, 625, 0, -2, -3, -5, -10, 10, 778, 69,r
2025-02-19 16:24:43.961,769, 48, 633, 1, -1, -1, -6, -9, 12, 784, 71,r
2025-02-19 16:24:44.076,763, 53, 625, 0, -1, -2, -5, -11, 11, 783, 72,r
2025-02-19 16:24:44.182,767, 44, 626, 0, -2, -2, -6, -8, 12, 782, 73,r
2025-02-19 16:24:44.292,768, 56, 630, 0, -2, -1, -7, -9, 10, 786, 74,r
2025-02-19 16:24:44.401,737, 82, 629, -1, -1, -12, -5, -10, 11, 789, 75,r
2025-02-19 16:24:44.509,766, -2, 604, 3, 0, -19, -6, -10, 12, 729, 85,r
2025-02-19 16:24:44.616,791, 273, 533, 2, 2, 16, -5, -8, 13, 790, 85,r
2025-02-19 16:24:44.722,751, 58, 634, 6, -6, -24, -5, -9, 12, 865, 84,r
2025-02-19 16:24:44.828,735, 40, 590, -25, 45, 23, -7, -8, 12, 871, 59,r
2025-02-19 16:24:45.641,768, 37, 625, 0, -2, -1, -6, -9, 11, 793, 76,s
2025-02-19 16:24:45.742,777, 33, 622, -4, 2, 0, -5, -7, 11, 810, 75,s
2025-02-19 16:24:45.848,759, 35, 635, -2, 0, 0, -5, -9, 11, 822, 73,s
2025-02-19 16:24:45.951,768, 26, 608, 1, -3, 3, -6, -9, 11, 825, 75,s
2025-02-19 16:24:46.061,780, 46, 626, -3, -7, -5, -5, -9, 12, 829, 87,s
2025-02-19 16:24:46.173,874, -20, 478, 38, 9, -17, -5, -10, 12, 617, 86,s
2025-02-19 16:24:46.283,711, 205, 719, 9, -17, 14, -4, -9, 11, 841, 86,s
2025-02-19 16:24:46.386,950, 32, 468, 3, 41, -16, -5, -6, 12, 462, 88,s
2025-02-19 16:24:46.496,502, -88, 777, -19, 15, 14, -5, -7, 8, 690, 36,s
2025-02-19 16:24:47.311,755, 12, 646, -2, -1, -6, -6, -8, 10, 748, 56,t
2025-02-19 16:24:47.409,750, 18, 646, -1, 0, -4, -6, -8, 12, 733, 56,t
2025-02-19 16:24:47.514,736, -3, 656, -1, -5, -7, -5, -7, 10, 738, 57,t
2025-02-19 16:24:47.622,747, 44, 633, -1, -7, -7, -5, -8, 10, 759, 64,t
2025-02-19 16:24:47.723,752, 48, 641, -7, 0, -8, -7, -10, 12, 775, 67,t
2025-02-19 16:24:47.839,737, 62, 628, 1, -6, -20, -5, -10, 11, 782, 73,t
2025-02-19 16:24:47.949,690, -179, 645, 65, 21, -4, -6, -10, 11, 732, 82,t
2025-02-19 16:24:48.052,833, 186, 636, 6, -3, 34, -4, -9, 11, 854, 79,t
2025-02-19 16:24:48.161,632, 93, 607, -3, -2, -40, -5, -10, 11, 716, 73,t
2025-02-19 16:24:48.262,727, 167, 600, -8, -35, 15, -5, -11, 11, 821, 78,t
2025-02-19 16:24:48.373,980, 178, 631, -31, 55, 10, -6, -9, 11, 843, 69,t
2025-02-19 16:24:49.293,755, 65, 635, -3, -1, -1, -5, -10, 10, 770, 74,u
2025-02-19 16:24:49.385,752, 74, 630, 0, 0, -5, -5, -10, 11, 766, 76,u
2025-02-19 16:24:49.498,765, 72, 641, -2, -1, -3, -7, -11, 11, 760, 79,u
2025-02-19 16:24:49.601,742, 70, 642, -1, 0, -3, -6, -9, 11, 771, 76,u
2025-02-19 16:24:49.711,775, 33, 619, -8, -7, -25, -5, -9, 10, 721, 83,u
2025-02-19 16:24:49.821,798, 176, 642, -9, -11, 21, -5, -9, 13, 848, 82,u
2025-02-19 16:24:49.922,775, -39, 598, 8, -1, -24, -5, -10, 12, 847, 83,u
2025-02-19 16:24:50.030,833, 126, 605, -4, 0, 32, -6, -9, 13, 872, 82,u
2025-02-19 16:24:50.139,565, -76, 701, -37, 28, 9, -6, -7, 9, 810, 36,u
2025-02-19 16:24:50.957,756, 36, 648, 0, -1, -3, -6, -6, 10, 185, 51,v
2025-02-19 16:24:51.051,749, 33, 656, -2, -2, 0, -5, -7, 11, 241, 52,v
2025-02-19 16:24:51.154,737, 0, 656, -17, 2, -3, -6, -9, 11, 462, 55,v
2025-02-19 16:24:51.261,778, -1, 659, -5, -2, 4, -6, -7, 11, 548, 58,v
2025-02-19 16:24:51.372,745, 31, 649, -7, -2, 0, -6, -7, 12, 625, 61,v
2025-02-19 16:24:51.482,718, 12, 632, 2, -3, -28, -5, -9, 11, 329, 65,v
2025-02-19 16:24:51.591,759, -83, 598, 16, 7, -28, -7, -10, 10, 312, 84,v
2025-02-19 16:24:51.697,853, 129, 646, 10, -13, 14, -6, -8, 13, 763, 88,v
2025-02-19 16:24:51.804,825, 137, 614, -14, 5, 4, -6, -11, 12, 818, 85,v
2025-02-19 16:24:51.912,578, -75, 691, -10, 4, 11, -6, -7, 10, 774, 45,v
2025-02-19 16:24:52.020,816, 66, 639, 6, -12, -6, -4, -7, 10, 729, 60,v
2025-02-19 16:24:52.123,757, 29, 644, -5, 1, 1, -6, -10, 11, 676, 60,v
2025-02-19 16:24:52.230,743, 10, 641, -2, 0, 0, -6, -8, 10, 657, 61,v
2025-02-19 16:24:52.338,753, 14, 645, 1, -3, -2, -6, -9, 11, 665, 63,v
2025-02-19 16:24:52.447,754, 26, 650, 0, -2, 0, -5, -8, 10, 672, 64,v
2025-02-19 16:24:52.553,766, 28, 648, 0, -1, -1, -6, -9, 11, 673, 65,v
2025-02-19 16:24:54.073,740, 76, 658, 1, -2, -1, -6, -11, 10, 473, 67,w
2025-02-19 16:24:54.162,728, 90, 657, 0, 0, -3, -6, -10, 10, 458, 67,w
2025-02-19 16:24:54.274,644, 27, 673, 12, -26, -13, -6, -10, 9, 393, 77,w
2025-02-19 16:24:54.384,744, 75, 672, 3, -2, -5, -6, -12, 9, 242, 78,w
2025-02-19 16:24:54.495,739, 100, 658, -24, -19, 53, -7, -10, 11, 700, 81,w
2025-02-19 16:24:54.601,762, 57, 558, 55, -2, -45, -6, -9, 11, 745, 84,w
2025-02-19 16:24:54.704,683, 27, 589, -31, -17, 67, -7, -10, 9, 819, 81,w
2025-02-19 16:24:54.814,785, -24, 616, 24, -6, -31, -6, -8, 11, 857, 82,w
2025-02-19 16:24:54.921,630, 27, 623, -59, 69, 36, -5, -7, 9, 838, 41,w
2025-02-19 16:24:55.637,764, 33, 631, 1, -3, -1, -6, -8, 10, 744, 64,x
2025-02-19 16:24:55.731,753, 31, 635, -1, -2, 0, -6, -8, 10, 780, 65,x
2025-02-19 16:24:55.842,766, 40, 625, 1, -2, -1, -5, -8, 12, 800, 68,x
2025-02-19 16:24:55.941,768, 38, 627, 0, -1, -2, -5, -8, 12, 813, 68,x
2025-02-19 16:24:56.053,764, 29, 632, -1, 0, 0, -7, -8, 10, 823, 68,x
2025-02-19 16:24:56.161,783, 29, 628, -1, -1, 1, -5, -8, 11, 826, 69,x
2025-02-19 16:24:56.271,755, 31, 620, -6, -1, -5, -5, -9, 11, 828, 68,x
2025-02-19 16:24:56.379,813, 14, 811, -6, -15, -15, -7, -9, 11, 850, 82,x
2025-02-19 16:24:56.485,833, 170, 563, 1, 9, 25, -6, -9, 11, 519, 85,x
2025-02-19 16:24:56.596,548, -178, 744, 10, -10, -38, -6, -9, 10, 578, 81,x
2025-02-19 16:24:56.702,721, 191, 576, -11, -22, 56, -5, -9, 12, 796, 84,x
2025-02-19 16:24:56.809,690, -2, 558, -36, 57, -1, -6, -7, 11, 760, 54,x
2025-02-19 16:24:56.915,804, 57, 630, 12, -19, -12, -6, -8, 10, 717, 58,x
2025-02-19 16:24:57.833,761, 50, 641, -1, 0, -1, -6, -9, 11, 655, 66,y
2025-02-19 16:24:57.927,761, 56, 637, 0, 0, -3, -6, -8, 9, 675, 66,y
2025-02-19 16:24:58.033,756, 61, 630, 1, 0, -4, -5, -10, 13, 672, 68,y
2025-02-19 16:24:58.142,727, 70, 627, 6, -5, -11, -5, -11, 10, 617, 72,y
2025-02-19 16:24:58.254,906, 141, 607, 17, -12, 55, -6, -10, 11, 668, 80,y
2025-02-19 16:24:58.360,679, -114, 693, -1, 4, -30, -6, -8, 12, 842, 78,y
2025-02-19 16:24:58.468,686, 135, 716, -17, -9, 75, -5, -9, 12, 815, 83,y
2025-02-19 16:24:58.573,989, -48, 546, 31, 24, -21, -7, -8, 11, 480, 82,y
2025-02-19 16:24:58.681,580, -29, 737, -13, -8, -19, -4, -6, 7, 649, 41,y
2025-02-19 16:24:59.594,726, 6, 645, 18, -4, -1, -5, -8, 9, 771, 65,z
2025-02-19 16:24:59.692,743, 40, 664, 2, 3, -5, -6, -7, 10, 759, 66,z
2025-02-19 16:24:59.803,879, 150, 725, 0, -10, -22, -6, -11, 10, 399, 82,z
2025-02-19 16:24:59.904,656, 68, 755, 15, -12, -2, -4, -10, 10, 842, 78,z
2025-02-19 16:25:00.020,913, 106, 437, -2, 7, -11, -5, -10, 10, 611, 82,z
2025-02-19 16:25:00.121,680, 64, 645, 5, -17, 2, -6, -8, 12, 855, 83,z
2025-02-19 16:25:00.231,942, 176, 681, -21, 64, 7, -4, -9, 10, 847, 66,z
2025-02-19 16:25:00.339,726, 105, 593, 1, -21, -23, -6, -9, 10, 588, 61,z
2025-02-19 16:25:00.442,816, 178, 591, 15, -34, 12, -6, -9, 10, 833, 79,z
2025-02-19 16:25:00.555,717, 150, 598, -16, 17, 12, -5, -10, 13, 842, 80,z
2025-02-19 16:25:00.654,737, 61, 662, -3, -3, -4, -7, -9, 10, 785, 58,z
2025-02-19 16:25:01.581,727, 69, 545, -6, -15, -16, -5, -7, 13, 520, 46,0
2025-02-19 16:25:01.679,750, -20, 595, -37, 54, -14, -6, -9, 13, 615, 50,0
2025-02-19 16:25:01.781,686, 36, 645, -3, -10, 2, -6, -9, 10, 681, 51,0
2025-02-19 16:25:01.888,804, 95, 598, 5, -6, -2, -4, -9, 12, 710, 72,0
2025-02-19 16:25:01.998,679, 54, 629, 14, -20, -17, -5, -9, 13, 765, 81,0
2025-02-19 16:25:02.105,755, 53, 624, 14, 12, -29, -6, -10, 12, 500, 86,0
2025-02-19 16:25:02.215,796, 270, 625, -18, -21, 11, -6, -8, 11, 787, 84,0
2025-02-19 16:25:02.322,816, 149, 519, 12, 22, -22, -6, -9, 12, 773, 84,0
2025-02-19 16:25:02.428,596, 43, 673, -21, 14, 21, -4, -8, 11, 697, 47,0
2025-02-19 16:25:03.145,767, 77, 621, 0, -1, -3, -6, -12, 10, 766, 70,1
2025-02-19 16:25:03.239,768, 83, 634, 1, -2, -3, -7, -11, 12, 761, 74,1
2025-02-19 16:25:03.350,1291, 47, 719, 14, 4, -17, -6, -12, 12, 666, 89,1
2025-02-19 16:25:03.457,714, 45, 645, -1, -11, -5, -6, -10, 11, 788, 89,1
2025-02-19 16:25:03.563,745, 197, 616, 16, -1, 75, -7, -11, 13, 822, 87,1
2025-02-19 16:25:03.669,764, 4, 781, 16, 55, 0, -5, -9, 10, 784, 73,1
2025-02-19 16:25:03.779,817, 114, 547, -15, -46, 16, -4, -10, 10, 761, 83,1
2025-02-19 16:25:03.882,796, 85, 587, -8, 5, 10, -4, -8, 11, 840, 86,1
2025-02-19 16:25:03.993,644, -32, 684, -13, 9, -7, -4, -7, 11, 747, 45,1
2025-02-19 16:25:04.811,757, 95, 637, 2, -2, -2, -4, -10, 13, 688, 70,2
2025-02-19 16:25:04.906,756, 101, 633, 4, -2, -2, -8, -11, 11, 660, 72,2
2025-02-19 16:25:05.011,718, 108, 632, 4, -6, -5, -7, -12, 10, 642, 76,2
2025-02-19 16:25:05.123,831, 20, 543, 51, 3, -21, -6, -11, 10, 426, 82,2
2025-02-19 16:25:05.221,669, -12, 719, 16, -3, 37, -5, -12, 12, 828, 82,2
2025-02-19 16:25:05.335,768, 63, 566, 30, 18, -1, -5, -10, 11, 570, 80,2
2025-02-19 16:25:05.442,719, 158, 621, -8, -8, 23, -6, -10, 12, 818, 83,2
2025-02-19 16:25:05.549,636, 12, 610, -38, 54, 25, -4, -9, 8, 741, 43,2
2025-02-19 16:25:06.471,770, 63, 640, -3, -1, -3, -6, -9, 10, 633, 60,3
2025-02-19 16:25:06.565,757, 72, 636, 0, 0, -8, -5, -10, 11, 647, 62,3
2025-02-19 16:25:06.672,755, 73, 645, 2, 0, -9, -5, -10, 11, 626, 63,3
2025-02-19 16:25:06.771,688, 80, 647, 10, 0, -16, -6, -10, 11, 493, 66,3
2025-02-19 16:25:06.884,1153, 208, 518, 39, -7, -4, -5, -13, 10, 460, 80,3
2025-02-19 16:25:06.991,628, 109, 585, 10, 8, 20, -6, -11, 10, 751, 82,3
2025-02-19 16:25:07.101,677, 99, 732, -4, -7, 18, -6, -11, 10, 768, 80,3
2025-02-19 16:25:07.208,906, 106, 454, 17, 20, 16, -7, -10, 10, 524, 84,3
2025-02-19 16:25:07.315,550, -37, 758, -29, 9, -5, -4, -9, 9, 669, 39,3
2025-02-19 16:25:08.131,767, 88, 638, 0, -2, -2, -6, -10, 11, 743, 71,4
2025-02-19 16:25:08.228,756, 81, 625, 1, -1, -4, -7, -12, 12, 747, 72,4
2025-02-19 16:25:08.338,679, 49, 630, 12, -20, -17, -6, -12, 12, 756, 80,4
2025-02-19 16:25:08.443,692, -66, 747, 26, 8, 1, -6, -12, 12, 640, 78,4
2025-02-19 16:25:08.551,1022, 352, 674, 19, -31, 16, -5, -12, 10, 632, 78,4
2025-02-19 16:25:08.661,803, 189, 619, -20, 1, 13, -5, -11, 13, 845, 81,4
2025-02-19 16:25:08.768,755, 83, 474, -9, -6, -13, -6, -13, 12, 804, 83,4
2025-02-19 16:25:08.871,808, 229, 521, 5, 7, 28, -6, -8, 13, 689, 87,4
2025-02-19 16:25:08.981,552, -107, 706, -30, 39, 4, -5, -8, 9, 714, 40,4
2025-02-19 16:25:09.891,752, 73, 650, 5, 1, -5, -7, -10, 12, 647, 70,5
2025-02-19 16:25:09.998,757, 107, 640, 22, 6, -10, -6, -11, 10, 447, 73,5
2025-02-19 16:25:10.100,753, 4, 628, 53, 4, -30, -5, -13, 11, 6, 80,5
2025-02-19 16:25:10.211,725, 117, 665, 0, -1, 2, -5, -13, 13, 808, 84,5
2025-02-19 16:25:10.321,1349, 76, 627, 10, 8, -17, -5, -13, 11, 531, 82,5
2025-02-19 16:25:10.421,789, 257, 515, 21, 8, 10, -7, -12, 12, 586, 79,5
2025-02-19 16:25:10.533,639, 64, 743, -14, -6, 37, -5, -12, 11, 804, 80,5
2025-02-19 16:25:10.633,978, 155, 598, 40, 7, -8, -4, -9, 12, 467, 80,5
2025-02-19 16:25:10.747,505, -28, 721, -3, -21, -23, -5, -7, 8, 679, 41,5
2025-02-19 16:25:11.665,750, 64, 637, 4, -5, -1, -6, -9, 10, 673, 70,6
2025-02-19 16:25:11.762,763, 76, 620, 3, -8, -4, -5, -10, 10, 730, 78,6
2025-02-19 16:25:11.867,764, 87, 622, 1, 0, -9, -7, -11, 12, 696, 87,6
2025-02-19 16:25:11.976,858, 31, 517, 45, 16, 53, -5, -10, 11, 173, 80,6
2025-02-19 16:25:12.082,631, 73, 696, -7, -9, -54, -6, -8, 10, 810, 83,6
2025-02-19 16:25:12.192,1109, 240, 621, -33, 56, 26, -6, -11, 9, 699, 64,6
2025-02-19 16:25:12.299,569, -11, 688, 3, -20, -9, -4, -9, 7, 701, 38,6
2025-02-19 16:25:13.211,756, 76, 650, 1, 0, -5, -6, -10, 11, 546, 67,7
2025-02-19 16:25:13.315,751, 90, 637, 10, -1, -6, -6, -13, 11, 438, 72,7
2025-02-19 16:25:13.421,731, 105, 629, 15, -7, -8, -6, -12, 9, 293, 83,7
2025-02-19 16:25:13.524,762, 55, 474, 54, 16, -8, -6, -12, 11, 0, 82,7
2025-02-19 16:25:13.633,722, 74, 720, 14, -10, -22, -5, -11, 11, 818, 85,7
2025-02-19 16:25:13.741,834, 238, 493, 2, 14, 24, -5, -9, 12, 762, 82,7
2025-02-19 16:25:13.851,945, -162, 632, 28, 1, -28, -6, -12, 12, 464, 82,7
2025-02-19 16:25:13.951,688, 70, 673, 3, -13, 12, -5, -11, 12, 835, 86,7
2025-02-19 16:25:14.064,667, 32, 580, -18, 28, 11, -5, -8, 11, 788, 58,7
2025-02-19 16:25:15.181,787, 65, 616, 0, -2, 0, -6, -11, 12, 671, 74,8
2025-02-19 16:25:15.278,776, 87, 634, 4, -5, -7, -6, -9, 12, 647, 83,8
2025-02-19 16:25:15.385,771, 76, 634, -1, 2, -9, -7, -10, 11, 508, 85,8
2025-02-19 16:25:15.491,825, 64, 567, 21, 11, 6, -6, -10, 12, 2, 83,8
2025-02-19 16:25:15.601,707, 155, 602, 27, -13, -53, -6, -10, 10, 773, 84,8
2025-02-19 16:25:15.708,880, 43, 538, -4, -2, -42, -5, -13, 12, 531, 82,8
2025-02-19 16:25:15.815,699, 125, 695, -20, -5, 52, -6, -12, 11, 790, 83,8
2025-02-19 16:25:15.921,1027, 83, 596, 6, 23, 2, -5, -10, 11, 753, 79,8
2025-02-19 16:25:16.030,481, -61, 721, 2, -14, -3, -6, -8, 10, 702, 37,8
2025-02-19 16:25:16.137,853, 115, 612, -4, -6, -1, -6, -10, 11, 621, 59,8
2025-02-19 16:25:16.244,770, 80, 640, -2, -1, -5, -5, -9, 10, 630, 56,8
2025-02-19 16:25:16.350,724, 52, 637, -4, -6, -2, -5, -9, 13, 576, 57,8
2025-02-19 16:25:16.451,756, 62, 627, 1, -5, -2, -5, -11, 11, 551, 64,8
2025-02-19 16:25:16.566,776, 81, 625, -2, -1, -1, -7, -11, 10, 572, 67,8
2025-02-19 16:25:16.674,773, 73, 625, -2, -1, -1, -5, -9, 11, 566, 66,8
2025-02-19 16:25:16.780,770, 74, 628, -1, 0, -2, -7, -10, 11, 565, 67,8
2025-02-19 16:25:18.501,771, 114, 616, 0, -2, -1, -6, -10, 12, 662, 80,9
2025-02-19 16:25:18.594,769, 121, 611, 0, -1, -3, -6, -11, 11, 648, 84,9
2025-02-19 16:25:18.701,749, 104, 567, 1, -1, -6, -6, -10, 11, 518, 86,9
2025-02-19 16:25:18.811,792, 133, 618, -1, -1, -6, -5, -12, 11, 503, 86,9
2025-02-19 16:25:18.918,803, 128, 602, -5, 0, -14, -6, -12, 12, 421, 86,9
2025-02-19 16:25:19.025,894, 124, 503, 24, 7, 33, -4, -12, 12, 154, 81,9
2025-02-19 16:25:19.131,791, 198, 649, -2, 8, -22, -6, -9, 12, 805, 78,9
2025-02-19 16:25:19.231,805, 194, 400, -2, -2, -3, -4, -12, 13, 735, 81,9
2025-02-19 16:25:19.349,786, 166, 603, -15, -4, 59, -5, -11, 12, 583, 87,9
2025-02-19 16:25:19.451,1126, 41, 664, -20, 75, 21, -5, -10, 11, 221, 63,9
2025-02-19 16:25:19.561,593, -58, 715, 14, -22, -6, -4, -7, 9, 202, 34,9
