Timestamp,Acc_X,Acc_Y,Acc_Z,Gyro_X,Gyro_Y,Gyro_Z,Mag_X,Mag_Y,Mag_Z,Force1,Force2,Force3,Letter
2025-03-07 13:40:37.797,2, 922, 440, -3, 0, 0, 16, 10, -1, 26, 26, 20,noise
2025-03-07 13:40:37.800,5, 913, 428, -1, 0, -1, 15, 9, 1, 30, 27, 27,noise
2025-03-07 13:40:44.710,639, 668, 480, -17, 11, -10, -8, 1, -5, 818, 631, 37,A
2025-03-07 13:40:44.763,612, 725, 451, -23, 12, -9, -9, 0, -5, 791, 638, 23,A
2025-03-07 13:40:44.817,574, 737, 582, 70, -10, -24, -6, 0, -4, 703, 594, 116,A
2025-03-07 13:40:44.871,586, 645, 524, -17, 23, 3, -6, 0, -3, 416, 488, 175,A
2025-03-07 13:40:44.932,487, 670, 615, -27, 3, -17, -7, 1, -4, 218, 391, 129,A
2025-03-07 13:40:44.980,462, 652, 604, -27, 6, 4, -5, 1, -7, 29, 495, 230,A
2025-03-07 13:40:45.037,471, 648, 520, 39, -12, -7, -5, 1, -4, 40, 524, 208,A
2025-03-07 13:40:45.095,584, 818, 379, 25, -5, 9, -5, -1, -4, 543, 575, 282,A
2025-03-07 13:40:45.152,622, 685, 540, -30, 36, 15, -5, -1, -4, 761, 473, 407,A
2025-03-07 13:40:45.197,530, 493, 751, 3, 18, -48, -5, -2, -6, 785, 33, 386,A
2025-03-07 13:40:45.263,190, 940, 512, 39, -21, -14, -5, 0, -5, 765, 192, 368,A
2025-03-07 13:40:45.317,444, 670, 482, 89, 11, 63, -5, -1, -3, 681, 450, 337,A
2025-03-07 13:40:45.373,507, 700, 350, 64, -50, 15, -6, -3, 1, 34, 624, 272,A
2025-03-07 13:40:45.430,693, 526, 243, -70, -32, -5, -9, -4, 1, 30, 697, 372,A
2025-03-07 13:40:45.479,517, 532, 498, 5, -4, -9, -9, -3, -1, 29, 722, 380,A
2025-03-07 13:40:45.537,577, 627, 437, -59, 38, 1, -9, -2, -4, 34, 760, 459,A
2025-03-07 13:40:45.597,536, 743, 591, 13, 11, 10, -8, -2, -3, 457, 790, 605,A
2025-03-07 13:40:45.652,699, 895, 811, -110, -16, 39, -7, -2, -4, 99, 824, 715,A
2025-03-07 13:40:45.711,442, 761, 302, 39, -25, -34, -8, -1, -5, 43, 832, 637,A
2025-03-07 13:40:45.767,525, 771, 507, 40, 1, 48, -8, -1, -3, 36, 845, 642,A
2025-03-07 13:40:45.817,840, 734, 608, 3, 3, -1, -9, 0, -3, 70, 826, 507,A
2025-03-07 13:40:45.871,596, 639, 478, -36, 4, 20, -8, 0, -4, 536, 828, 502,A
2025-03-07 13:40:45.928,574, 473, 581, 24, 1, -24, -8, -1, -4, 428, 842, 481,A
2025-03-07 13:40:45.983,610, 817, 290, 51, -11, 11, -8, -3, 1, 383, 833, 36,A
2025-03-07 13:40:46.037,673, 591, 340, -3, 3, 8, -9, -2, 2, 474, 843, 26,A
2025-03-07 13:40:46.094,117, 1020, 105, 233, -74, -55, -10, -4, 5, 29, 758, 348,A
2025-03-07 13:40:46.147,671, 828, 336, -14, 7, 10, -9, -6, 7, 393, 771, 658,A
2025-03-07 13:40:46.197,623, 683, 248, -62, 95, 29, -9, -6, 6, 908, 808, 443,A
2025-03-07 13:40:46.261,583, 587, 423, -111, 62, -29, -8, -4, -1, 919, 782, 19,A
2025-03-07 13:40:46.318,498, 540, 718, -75, 27, -5, -7, -1, -1, 933, 800, 15,A
2025-03-07 13:40:46.376,486, 651, 657, -12, -1, -7, -6, 0, -2, 944, 813, 41,A
2025-03-07 13:40:46.430,484, 751, 458, -11, 3, 6, -7, -1, -4, 940, 784, 96,A
2025-03-07 13:40:46.478,566, 466, 732, -8, 0, 6, -5, -1, -6, 916, 762, 605,A
2025-03-07 13:40:46.538,527, 613, 558, -9, -10, 11, -8, 0, -7, 914, 578, 651,A
2025-03-07 13:40:46.594,493, 677, 536, -6, -6, 7, -6, -1, -6, 902, 473, 658,A
2025-03-07 13:40:46.647,531, 660, 539, -14, -7, 6, -6, 0, -4, 906, 437, 683,A
2025-03-07 13:40:46.697,564, 576, 572, -21, -8, -5, -8, 0, -4, 911, 510, 663,A
2025-03-07 13:40:46.762,623, 546, 662, -9, -11, -8, -8, 1, -5, 915, 200, 665,A
2025-03-07 13:40:46.817,534, 674, 498, -1, -7, -11, -8, 1, -4, 913, 24, 661,A
2025-03-07 13:40:46.871,585, 642, 577, -3, -2, 7, -8, 0, -6, 910, 33, 653,A
2025-03-07 13:40:46.921,572, 604, 583, -4, -3, -6, -7, 1, -4, 902, 24, 638,A
2025-03-07 13:40:46.978,652, 618, 567, 8, -2, -3, -7, 1, -4, 889, 31, 636,A
2025-03-07 13:40:47.031,525, 576, 583, 2, -2, 10, -7, 1, -5, 894, 34, 647,A
2025-03-07 13:40:47.079,561, 635, 521, 18, 1, 8, -8, 1, -3, 897, 15, 667,A
2025-03-07 13:40:47.139,574, 714, 524, 27, -6, 28, -8, 1, -3, 918, 779, 761,A
2025-03-07 13:40:47.192,624, 633, 484, 37, 6, 20, -9, 0, -2, 933, 849, 785,A
2025-03-07 13:40:47.245,652, 593, 437, 81, 4, 13, -11, -1, 0, 933, 858, 808,A
2025-03-07 13:40:47.297,634, 708, 273, 14, 37, 11, -9, -3, 2, 926, 848, 804,A
2025-03-07 13:40:47.347,567, 686, 468, 5, 33, 5, -9, -3, 1, 926, 855, 792,A
2025-03-07 13:40:47.409,442, 541, 639, 20, 7, -25, -9, -2, 1, 931, 873, 801,A
2025-03-07 13:40:47.464,622, 671, 470, 3, -10, -6, -8, -4, 0, 937, 885, 819,A
2025-03-07 13:40:47.522,516, 632, 434, -11, -2, -17, -8, -3, 3, 947, 893, 839,A
2025-03-07 13:40:47.577,590, 720, 471, -27, -7, -3, -7, -4, 1, 951, 891, 838,A
2025-03-07 13:40:47.628,641, 740, 461, -126, -15, 7, -9, -2, 0, 953, 858, 802,A
2025-03-07 13:40:47.694,395, 598, 595, -72, -11, -17, -8, -1, -4, 941, 795, 715,A
2025-03-07 13:40:47.747,505, 601, 578, -14, -15, 7, -9, 2, -4, 923, 613, 575,A
2025-03-07 13:40:47.807,518, 568, 607, -13, -34, 9, -11, 0, -4, 908, 523, 535,A
2025-03-07 13:40:47.861,683, 620, 533, -31, -31, 4, -10, 2, -4, 911, 806, 659,A
2025-03-07 13:40:47.920,611, 547, 597, 21, 17, 19, -12, 1, -4, 929, 848, 736,A
2025-03-07 13:40:47.979,633, 539, 525, 37, -21, 27, -12, 2, -3, 942, 869, 772,A
2025-03-07 13:40:48.035,802, 494, 411, 9, -21, 12, -14, -1, -1, 954, 894, 795,A
2025-03-07 13:40:48.093,758, 571, 425, -15, 12, -4, -14, 2, -1, 963, 909, 787,A
2025-03-07 13:40:48.145,614, 594, 539, -6, 4, 1, -13, 1, -1, 968, 918, 762,A
2025-03-07 13:40:48.197,725, 566, 464, -11, 0, 9, -13, 1, -2, 970, 919, 757,A
2025-03-07 13:40:48.261,671, 503, 548, -18, -3, -4, -14, 2, -2, 971, 930, 741,A
2025-03-07 13:40:48.317,653, 390, 820, 12, -30, -20, -13, 3, -1, 978, 937, 692,A
2025-03-07 13:40:48.371,489, 1046, 25, 25, 18, 23, -13, -1, 0, 982, 916, 493,A
2025-03-07 13:40:48.427,780, 482, 826, -32, 37, 18, -15, 1, -3, 968, 899, 559,A
2025-03-07 13:40:48.487,757, 445, 750, -31, -13, -12, -14, 3, -3, 970, 927, 706,A
2025-03-07 13:40:48.547,748, 410, 640, 32, -1, 22, -14, 0, -1, 982, 934, 599,A
2025-03-07 13:40:48.597,561, 488, 427, 9, 33, 36, -15, 2, -3, 974, 913, 174,A
2025-03-07 13:40:48.658,389, 485, 827, -13, -29, -30, -14, 1, -3, 963, 870, 291,A
2025-03-07 13:40:48.717,915, 715, 633, 28, -36, -10, -12, 2, -2, 976, 942, 468,A
2025-03-07 13:40:48.771,731, 597, 507, 15, 19, 41, -14, 3, -1, 976, 945, 658,A
2025-03-07 13:40:48.833,602, 497, 560, -60, 107, -62, -12, 3, -5, 952, 910, 686,A
2025-03-07 13:40:48.887,470, 482, 929, -59, 59, -40, -8, 5, -7, 919, 829, 554,A
2025-03-07 13:40:48.947,402, 477, 825, -12, 15, -19, -7, 5, -9, 902, 815, 510,A
2025-03-07 13:40:48.998,479, 505, 695, 10, -6, 4, -6, 5, -10, 894, 789, 533,A
2025-03-07 13:40:49.049,525, 475, 697, 5, -7, 7, -7, 4, -9, 882, 765, 516,A
2025-03-07 13:40:49.109,509, 491, 724, 0, -6, 8, -6, 3, -9, 870, 741, 468,A
2025-03-07 13:40:49.161,542, 496, 728, -2, -5, 4, -8, 4, -9, 854, 741, 479,A
2025-03-07 13:40:49.211,569, 465, 695, -2, -1, 2, -6, 5, -8, 846, 748, 469,A
2025-03-07 13:40:49.271,570, 469, 691, -9, 6, -2, -8, 5, -8, 839, 739, 454,A
2025-03-07 13:40:49.326,543, 513, 701, -11, 9, -4, -6, 4, -9, 853, 739, 425,A
2025-03-07 13:40:49.377,496, 476, 769, -6, 1, -4, -8, 3, -10, 862, 756, 427,A
2025-03-07 13:40:49.427,513, 467, 736, 3, -5, -2, -8, 5, -9, 860, 764, 443,A
2025-03-07 13:40:49.488,524, 474, 703, 5, -2, 0, -6, 5, -7, 863, 772, 501,A
2025-03-07 13:40:49.543,527, 481, 698, 2, 1, 2, -7, 5, -11, 865, 771, 504,A
2025-03-07 13:40:49.592,538, 485, 691, 0, 0, 2, -6, 4, -9, 869, 767, 531,A
2025-03-07 13:40:49.644,544, 488, 722, 0, -2, 1, -8, 5, -7, 870, 766, 554,A
2025-03-07 13:40:49.697,534, 466, 725, 8, -2, -4, -9, 4, -8, 863, 742, 557,A
2025-03-07 13:40:50.127,723, 610, 460, 8, -9, -2, -11, 0, -1, 882, 819, 771,B
2025-03-07 13:40:50.187,715, 588, 459, 4, -5, -5, -10, 1, -4, 886, 822, 771,B
2025-03-07 13:40:50.243,543, 570, 662, 23, -16, 6, -13, 1, -2, 903, 861, 800,B
2025-03-07 13:40:50.301,654, 595, 541, 25, -19, 0, -12, 0, 0, 910, 871, 809,B
2025-03-07 13:40:50.352,658, 608, 472, 13, -11, 2, -12, 1, 0, 918, 873, 810,B
2025-03-07 13:40:50.408,650, 592, 462, 6, -1, -1, -14, 0, 0, 922, 873, 803,B
2025-03-07 13:40:50.464,653, 588, 494, 1, -2, -3, -11, 0, 0, 929, 877, 801,B
2025-03-07 13:40:50.517,629, 608, 497, 9, -5, 1, -12, -1, 2, 939, 892, 814,B
2025-03-07 13:40:50.571,642, 614, 473, 8, -5, 2, -12, 0, 3, 944, 901, 819,B
2025-03-07 13:40:50.625,631, 604, 491, 6, -10, 2, -13, -2, 3, 948, 900, 822,B
2025-03-07 13:40:50.681,664, 612, 437, 10, -8, 6, -12, -1, 3, 948, 901, 824,B
2025-03-07 13:40:50.730,686, 621, 409, 3, -3, 6, -12, -1, 3, 951, 904, 826,B
2025-03-07 13:40:50.787,655, 605, 441, -2, 1, 2, -13, -1, 5, 952, 903, 823,B
2025-03-07 13:40:50.841,678, 606, 442, -4, 1, 1, -13, -3, 3, 955, 908, 820,B
2025-03-07 13:40:50.898,670, 599, 458, -4, -1, 0, -14, -2, 3, 957, 904, 815,B
2025-03-07 13:40:50.947,656, 609, 464, -3, -8, -1, -14, 0, 3, 955, 902, 805,B
2025-03-07 13:40:51.010,711, 717, 374, -7, -6, -4, -14, -2, 2, 959, 913, 808,B
2025-03-07 13:40:51.067,665, 513, 653, -2, -11, -10, -14, -1, 3, 965, 922, 781,B
2025-03-07 13:40:51.125,479, 409, 287, -14, 59, 52, -13, -1, 4, 976, 911, 548,B
2025-03-07 13:40:51.177,679, 402, 871, -26, -8, -2, -15, -2, 3, 966, 912, 543,B
2025-03-07 13:40:51.238,739, 432, 459, -7, -25, -26, -13, 0, 3, 967, 935, 769,B
2025-03-07 13:40:51.292,633, 755, 208, -1, -2, 9, -11, -3, 4, 976, 941, 775,B
2025-03-07 13:40:51.347,614, 738, 429, -4, 26, 24, -13, 0, 4, 978, 937, 725,B
2025-03-07 13:40:51.397,729, 354, 358, 1, 17, 4, -14, -1, 5, 978, 936, 671,B
2025-03-07 13:40:51.454,586, 559, 734, 6, -2, -4, -13, -2, 3, 981, 932, 607,B
2025-03-07 13:40:51.512,776, 645, 242, -9, 27, 6, -13, -1, 4, 973, 905, 206,B
2025-03-07 13:40:51.567,1017, 496, 257, -45, 43, -45, -14, -1, 1, 949, 868, 436,B
2025-03-07 13:40:51.628,502, 600, 711, -30, 5, -22, -12, 1, 0, 947, 875, 393,B
2025-03-07 13:40:51.677,515, 584, 649, 23, -24, 2, -12, -1, -1, 941, 876, 483,B
2025-03-07 13:40:52.018,844, 581, 615, 6, -3, 10, -15, -1, 3, 930, 851, 499,C
2025-03-07 13:40:52.075,907, 634, 565, 7, -5, 4, -14, 1, 1, 929, 849, 526,C
2025-03-07 13:40:52.128,604, 523, 511, -16, 17, 1, -14, 1, 1, 933, 863, 510,C
2025-03-07 13:40:52.179,690, 550, 521, 1, -4, 1, -14, -1, 1, 936, 868, 555,C
2025-03-07 13:40:52.237,799, 540, 396, -2, 1, -3, -14, 0, 1, 936, 870, 553,C
2025-03-07 13:40:52.291,704, 568, 441, -6, 2, 0, -15, -1, 2, 939, 874, 548,C
2025-03-07 13:40:52.347,706, 550, 472, -8, 10, -4, -15, -1, 2, 941, 876, 542,C
2025-03-07 13:40:52.399,635, 554, 533, -8, -4, 2, -15, 0, 0, 943, 881, 501,C
2025-03-07 13:40:52.448,648, 532, 485, 0, -14, 4, -14, -1, 1, 945, 889, 512,C
2025-03-07 13:40:52.511,682, 557, 527, -10, -2, -9, -15, 0, 1, 950, 904, 454,C
2025-03-07 13:40:52.570,405, 446, 620, 29, -16, -25, -14, 0, 2, 962, 914, 469,C
2025-03-07 13:40:52.627,855, 777, 249, 10, 26, 16, -14, -2, 3, 975, 917, 288,C
2025-03-07 13:40:52.677,668, 560, 548, -14, 25, 37, -13, -1, 2, 974, 933, 243,C
2025-03-07 13:40:52.741,885, 485, 232, -9, 43, -34, -15, -2, 1, 958, 924, 635,C
2025-03-07 13:40:52.797,533, 510, 657, -37, 32, -18, -13, -1, -1, 950, 891, 537,C
2025-03-07 13:40:52.850,592, 515, 621, 8, -22, -4, -13, 0, -2, 942, 871, 513,C
2025-03-07 13:40:53.172,709, 564, 479, -7, 5, -3, -16, -2, 1, 942, 869, 509,D
2025-03-07 13:40:53.226,689, 588, 486, -8, 5, -3, -13, 0, 3, 940, 872, 504,D
2025-03-07 13:40:53.278,652, 583, 522, -2, 0, -2, -14, 0, 1, 939, 870, 510,D
2025-03-07 13:40:53.331,671, 595, 483, -1, -2, 0, -14, 0, 2, 940, 872, 526,D
2025-03-07 13:40:53.387,660, 574, 501, -8, -1, -3, -10, 0, 0, 940, 873, 546,D
2025-03-07 13:40:53.444,647, 581, 499, -12, -12, 1, -14, 1, 0, 943, 878, 528,D
2025-03-07 13:40:53.498,647, 745, 621, -21, 0, -2, -15, 0, -1, 949, 901, 472,D
2025-03-07 13:40:53.557,691, 565, 552, 19, -4, -8, -12, 0, 1, 963, 908, 446,D
2025-03-07 13:40:53.610,737, 902, 146, -19, 42, 43, -14, 0, 3, 969, 898, 19,D
2025-03-07 13:40:53.671,573, 152, 895, -12, -14, -33, -15, 0, -1, 954, 861, 125,D
2025-03-07 13:40:53.727,1015, 216, 304, 7, -10, -18, -14, -2, 1, 960, 916, 557,D
2025-03-07 13:40:53.777,562, 674, 514, 7, 2, 18, -15, -1, 2, 974, 933, 535,D
2025-03-07 13:40:53.835,680, 692, 273, 4, 49, 40, -15, -1, 1, 975, 922, 24,D
2025-03-07 13:40:53.893,868, 448, 485, -17, 35, 9, -14, 0, -1, 953, 847, 20,D
2025-03-07 13:40:53.947,524, 585, 711, -33, 37, -33, -13, 1, 0, 942, 868, 211,D
2025-03-07 13:40:54.007,490, 621, 666, -1, -12, -5, -14, 0, -1, 935, 881, 340,D
2025-03-07 13:40:54.338,690, 530, 487, 0, -4, 2, -15, 1, 0, 933, 851, 262,E
2025-03-07 13:40:54.397,688, 554, 494, 0, -3, 1, -15, 1, 0, 932, 855, 268,E
2025-03-07 13:40:54.447,685, 540, 509, -3, -3, -1, -15, 0, 2, 935, 865, 312,E
2025-03-07 13:40:54.507,690, 536, 503, -6, -2, -3, -13, 1, 1, 939, 876, 355,E
2025-03-07 13:40:54.564,707, 532, 513, -20, -4, -7, -14, 1, -1, 942, 893, 286,E
2025-03-07 13:40:54.617,694, 384, 659, 24, -13, -14, -14, 0, -1, 957, 909, 355,E
2025-03-07 13:40:54.675,497, 891, 365, 42, 26, 41, -14, 0, 2, 971, 905, 20,E
2025-03-07 13:40:54.729,755, 667, 186, -4, 31, 25, -16, 0, 2, 967, 894, 28,E
2025-03-07 13:40:54.778,720, 301, 489, -27, -40, -66, -12, 0, -1, 951, 866, 85,E
2025-03-07 13:40:54.843,736, 252, 601, 8, -29, -18, -14, 0, -1, 962, 920, 186,E
2025-03-07 13:40:54.897,778, 636, 240, 11, 2, 27, -15, -1, 1, 972, 942, 435,E
2025-03-07 13:40:54.947,558, 445, 540, 19, 31, 23, -15, 1, 1, 961, 922, 418,E
2025-03-07 13:40:55.011,1666, -324, 467, -13, -3, -30, -14, -1, 0, 959, 883, 13,E
2025-03-07 13:40:55.072,696, 641, 404, -9, -1, 21, -15, -1, 2, 973, 933, 175,E
2025-03-07 13:40:55.126,595, 507, 639, 18, 14, 24, -15, 0, 2, 965, 920, 292,E
2025-03-07 13:40:55.177,369, 615, 664, -1, 0, -1, -15, 0, 1, 953, 809, 17,E
2025-03-07 13:40:55.227,863, 957, 575, 10, -6, 10, -14, 1, 2, 968, 918, 24,E
2025-03-07 13:40:55.285,665, 603, 477, 2, 5, 28, -14, 1, 1, 965, 923, 94,E
2025-03-07 13:40:55.342,681, 605, 381, -42, 58, -43, -15, 0, 1, 950, 894, 235,E
2025-03-07 13:40:55.397,461, 517, 852, -30, -13, -22, -13, 0, 0, 942, 853, 229,E
2025-03-07 13:40:55.698,692, 555, 481, -5, -2, 0, -14, 0, 2, 935, 870, 424,F
2025-03-07 13:40:55.748,687, 544, 471, -5, -1, 0, -15, 0, 0, 935, 869, 408,F
2025-03-07 13:40:55.799,655, 550, 504, -4, -2, 0, -15, 0, 0, 936, 872, 397,F
2025-03-07 13:40:55.860,676, 550, 500, -5, -1, 0, -14, 1, -1, 935, 869, 376,F
2025-03-07 13:40:55.917,691, 555, 488, -7, 0, -1, -15, 2, 0, 936, 871, 376,F
2025-03-07 13:40:55.967,687, 556, 487, -6, -4, -2, -15, 1, 0, 938, 874, 346,F
2025-03-07 13:40:56.027,672, 554, 509, -11, -5, -3, -14, 0, 1, 938, 879, 306,F
2025-03-07 13:40:56.077,636, 549, 542, -2, -16, 1, -15, 0, 0, 941, 891, 323,F
2025-03-07 13:40:56.137,680, 506, 575, -7, -5, -5, -15, 0, 1, 953, 909, 190,F
2025-03-07 13:40:56.190,638, 797, 358, 31, 16, 20, -14, 0, 2, 966, 912, 153,F
2025-03-07 13:40:56.243,798, 728, 125, 6, 30, 36, -14, 0, 1, 969, 899, 26,F
2025-03-07 13:40:56.297,815, -5, 562, -24, -28, -70, -15, 0, 0, 952, 870, 25,F
2025-03-07 13:40:56.358,954, 334, 27, -17, -10, -25, -15, -1, 0, 960, 922, 177,F
2025-03-07 13:40:56.410,702, 631, 297, 16, 3, 21, -15, -2, 0, 971, 943, 351,F
2025-03-07 13:40:56.468,690, 105, 485, -3, 49, -26, -15, 0, 0, 957, 913, 19,F
2025-03-07 13:40:56.526,808, 481, 655, 55, -17, -24, -14, 1, 1, 959, 900, 213,F
2025-03-07 13:40:56.577,682, 660, 407, 11, 4, 28, -15, -1, 3, 971, 937, 386,F
2025-03-07 13:40:56.641,916, 251, 207, -27, 51, -34, -15, -1, 2, 958, 921, 447,F
2025-03-07 13:40:56.698,494, 518, 708, -32, 17, -28, -13, 0, 0, 948, 893, 429,F
2025-03-07 13:40:56.999,678, 564, 496, 1, -6, 4, -14, -1, 1, 946, 890, 355,G
2025-03-07 13:40:57.059,687, 564, 480, 0, -6, 4, -15, 0, 0, 944, 891, 349,G
2025-03-07 13:40:57.110,697, 535, 476, -6, 0, 1, -15, 0, 0, 946, 895, 286,G
2025-03-07 13:40:57.160,679, 538, 493, -3, -1, 0, -14, -1, 1, 946, 897, 253,G
2025-03-07 13:40:57.217,707, 544, 464, -5, -1, 0, -14, 0, 2, 947, 898, 272,G
2025-03-07 13:40:57.276,698, 543, 509, -6, -3, 1, -16, -1, 0, 949, 904, 159,G
2025-03-07 13:40:57.327,742, 575, 526, 9, -13, 13, -14, 2, 2, 952, 915, 244,G
2025-03-07 13:40:57.384,618, 716, 562, -7, -6, -2, -14, -1, 1, 956, 937, 301,G
2025-03-07 13:40:57.440,737, 581, 521, -4, -9, -9, -14, -2, 2, 962, 941, 191,G
2025-03-07 13:40:57.497,585, 521, 338, 52, -8, -16, -14, -1, 2, 972, 925, 343,G
2025-03-07 13:40:57.547,978, 872, 41, -12, 40, 38, -16, 0, 3, 976, 924, 22,G
2025-03-07 13:40:57.607,630, 423, 686, -19, -3, 7, -15, 0, 2, 969, 930, 86,G
2025-03-07 13:40:57.664,617, 274, 756, 28, -26, -18, -16, -1, 1, 970, 936, 161,G
2025-03-07 13:40:57.717,708, 819, 125, -1, 38, 44, -15, -2, 2, 974, 932, 28,G
2025-03-07 13:40:57.776,648, 177, 675, -23, -5, -27, -16, -1, 0, 963, 912, 19,G
2025-03-07 13:40:57.837,1022, 338, 129, -25, -12, -28, -16, 0, 2, 966, 924, 14,G
2025-03-07 13:40:57.890,595, 759, 152, 0, 1, 33, -16, -1, 2, 979, 949, 17,G
2025-03-07 13:40:57.942,700, 504, 540, 5, 21, 19, -15, 0, 2, 969, 938, 84,G
2025-03-07 13:40:57.997,614, 566, 601, -44, 51, -43, -14, -1, 2, 954, 900, 16,G
2025-03-07 13:40:58.347,705, 562, 468, 5, -11, 1, -14, 0, 1, 941, 880, 177,H
2025-03-07 13:40:58.397,709, 560, 442, 5, -10, 1, -14, 1, 2, 940, 882, 184,H
2025-03-07 13:40:58.459,705, 556, 451, -1, -5, 0, -15, -1, 1, 940, 882, 180,H
2025-03-07 13:40:58.509,696, 567, 442, -5, -5, -4, -14, 0, 1, 942, 887, 184,H
2025-03-07 13:40:58.567,674, 576, 473, -14, -11, -3, -13, 1, 1, 943, 897, 196,H
2025-03-07 13:40:58.627,708, 469, 516, -13, -5, -6, -15, 1, 1, 954, 920, 129,H
2025-03-07 13:40:58.677,685, 454, 541, 20, -9, -11, -15, 0, 2, 964, 923, 199,H
2025-03-07 13:40:58.742,443, 1295, 289, -12, 28, 25, -16, -2, 3, 975, 913, 25,H
2025-03-07 13:40:58.792,764, 659, 389, -26, 26, 23, -15, -1, 2, 962, 896, 25,H
2025-03-07 13:40:58.848,500, 749, 642, 9, -42, -16, -15, 0, 2, 958, 895, 10,H
2025-03-07 13:40:58.906,889, 896, 166, 22, -13, 23, -16, 1, 3, 972, 936, 22,H
2025-03-07 13:40:58.959,601, 445, 618, 1, 8, 16, -16, 0, 1, 968, 936, 27,H
2025-03-07 13:40:59.009,431, 574, 793, 3, -35, -4, -16, 0, 3, 964, 927, 207,H
2025-03-07 13:40:59.067,931, 633, 348, 27, 7, 12, -15, -1, 3, 979, 935, 18,H
2025-03-07 13:40:59.121,766, 563, 368, -3, 39, 32, -17, -1, 2, 971, 927, 16,H
2025-03-07 13:40:59.177,831, 530, 242, -43, 77, -72, -16, -1, 0, 943, 894, 267,H
2025-03-07 13:40:59.237,523, 476, 735, -60, 56, -67, -13, 0, -3, 900, 857, 169,H
2025-03-07 13:40:59.595,594, 525, 594, 0, -4, 20, -15, 0, -1, 916, 847, 320,I
2025-03-07 13:40:59.647,624, 523, 621, 5, -10, 21, -14, 0, -1, 919, 852, 333,I
2025-03-07 13:40:59.697,716, 521, 452, -1, -2, 7, -13, 2, 1, 928, 870, 390,I
2025-03-07 13:40:59.758,617, 557, 509, -8, 5, -4, -14, 0, -1, 931, 871, 385,I
2025-03-07 13:40:59.809,517, 512, 722, 12, -59, 12, -14, 1, 1, 942, 867, 224,I
2025-03-07 13:40:59.868,789, 778, 475, 9, -17, 5, -15, 0, 0, 967, 921, 360,I
2025-03-07 13:40:59.917,546, 495, 611, 12, 6, 19, -13, 1, 0, 967, 925, 435,I
2025-03-07 13:40:59.975,574, 476, 606, 11, 8, -22, -14, 1, 0, 954, 893, 566,I
2025-03-07 13:41:00.032,782, 841, 291, 11, 12, 12, -14, 1, 0, 970, 899, 394,I
2025-03-07 13:41:00.084,590, 327, 658, 0, 21, 25, -16, 1, 1, 963, 867, 19,I
2025-03-07 13:41:00.141,494, 533, 628, 14, -11, -31, -15, 1, -1, 946, 826, 335,I
2025-03-07 13:41:00.192,917, 744, 647, 13, -20, 2, -14, 1, 0, 962, 903, 25,I
2025-03-07 13:41:00.247,941, 277, 448, -5, 5, 45, -15, 0, 0, 965, 924, 67,I
2025-03-07 13:41:00.307,601, 549, 340, -49, 85, -65, -14, 1, -1, 946, 896, 93,I
2025-03-07 13:41:00.359,451, 406, 748, -30, 2, -19, -12, 1, -4, 931, 867, 22,I
2025-03-07 13:41:00.743,663, 520, 530, -3, -1, 1, -15, 1, -1, 934, 888, 401,J
2025-03-07 13:41:00.797,645, 528, 544, -2, -2, 0, -14, 2, 0, 935, 890, 389,J
2025-03-07 13:41:00.856,645, 491, 571, -4, -12, -1, -15, 1, 0, 938, 881, 237,J
2025-03-07 13:41:00.909,750, 445, 459, -8, 0, -11, -17, 1, 0, 944, 879, 26,J
2025-03-07 13:41:00.961,813, 657, 500, 14, -28, 15, -15, 2, 1, 965, 926, 213,J
2025-03-07 13:41:01.024,659, 475, 589, -2, 3, 22, -15, 2, -1, 965, 936, 139,J
2025-03-07 13:41:01.077,635, 361, 537, 2, 11, -19, -15, 1, 0, 944, 903, 186,J
2025-03-07 13:41:01.128,768, 541, 621, 7, -2, -8, -14, 1, -2, 954, 904, 245,J
2025-03-07 13:41:01.187,687, 526, 574, 30, 18, 28, -15, 2, 0, 971, 923, 161,J
2025-03-07 13:41:01.241,624, 663, 278, -33, 23, 18, -15, 1, 0, 968, 908, 10,J
2025-03-07 13:41:01.298,928, 374, 747, 18, -14, -39, -13, 2, -2, 925, 834, 21,J
2025-03-07 13:41:01.356,501, 520, 954, -16, 26, 4, -12, 2, -3, 932, 861, 29,J
2025-03-07 13:41:01.408,524, 521, 706, 5, -19, 6, -14, 2, -2, 934, 875, 220,J
2025-03-07 13:41:01.737,698, 504, 551, -3, -6, -2, -13, 3, -2, 931, 866, 186,K
2025-03-07 13:41:01.790,698, 499, 544, -4, -6, -3, -15, 2, -3, 930, 868, 188,K
2025-03-07 13:41:01.847,666, 501, 582, 2, -16, -1, -15, 0, -2, 933, 878, 199,K
2025-03-07 13:41:01.897,703, 482, 504, 2, 0, -7, -15, 2, -2, 944, 895, 220,K
2025-03-07 13:41:01.957,676, 418, 597, 36, -2, -6, -15, 2, -1, 956, 893, 222,K
2025-03-07 13:41:02.010,558, 257, 542, -4, 11, 7, -14, 1, 0, 962, 849, 24,K
2025-03-07 13:41:02.060,928, 529, 865, -2, 1, 23, -14, 3, -2, 955, 917, 6,K
2025-03-07 13:41:02.122,587, 402, 819, -5, -21, -3, -15, 1, -1, 958, 938, 143,K
2025-03-07 13:41:02.174,629, 516, 286, 6, 7, -5, -15, 2, 0, 942, 882, 186,K
2025-03-07 13:41:02.227,625, 579, 876, 8, -14, 10, -14, 2, -2, 943, 828, 23,K
2025-03-07 13:41:02.277,771, 806, 572, -5, -8, 33, -15, 0, 0, 969, 919, 25,K
2025-03-07 13:41:02.334,629, 401, 593, 7, 11, 24, -15, 1, -2, 964, 911, 16,K
2025-03-07 13:41:02.393,510, 537, 683, -43, 51, -57, -14, 1, -2, 940, 868, 210,K
2025-03-07 13:41:02.447,511, 482, 729, 4, -25, -3, -13, 2, -3, 930, 864, 232,K
2025-03-07 13:41:02.757,669, 517, 543, -1, -7, -3, -14, 0, 1, 924, 863, 301,L
2025-03-07 13:41:02.808,662, 512, 546, 1, -9, -3, -14, 2, -1, 924, 868, 319,L
2025-03-07 13:41:02.875,1324, 318, 201, -13, -3, -10, -14, 1, -2, 934, 890, 314,L
2025-03-07 13:41:02.928,691, 471, 553, 1, -2, -6, -13, 0, -2, 949, 904, 206,L
2025-03-07 13:41:02.979,710, 468, 568, 39, -4, -7, -14, 1, 2, 961, 899, 286,L
2025-03-07 13:41:03.032,826, 584, 477, 8, 18, 14, -14, 0, 1, 964, 871, 19,L
2025-03-07 13:41:03.091,872, 561, 417, 6, 13, 16, -14, 3, -1, 964, 898, 25,L
2025-03-07 13:41:03.141,648, 342, 421, 1, 2, 15, -15, 0, 0, 970, 936, 25,L
2025-03-07 13:41:03.192,690, 543, 472, 5, 3, 6, -16, 2, 0, 959, 915, 176,L
2025-03-07 13:41:03.247,699, 556, 428, -50, 63, -30, -14, 0, 0, 942, 858, 8,L
2025-03-07 13:41:03.305,545, 470, 696, -23, 6, -10, -13, 1, -3, 935, 791, 24,L
2025-03-07 13:41:03.359,673, 473, 572, 10, -22, -2, -13, 2, -3, 927, 789, 20,L
2025-03-07 13:41:03.755,696, 505, 537, 2, -6, -2, -14, 0, -2, 909, 822, 191,M
2025-03-07 13:41:03.811,702, 509, 526, 1, -5, -2, -14, 1, -1, 910, 824, 189,M
2025-03-07 13:41:03.859,670, 516, 546, -4, 1, -3, -14, 2, -1, 912, 824, 194,M
2025-03-07 13:41:03.923,686, 512, 527, -4, -2, -4, -13, 1, 0, 911, 825, 204,M
2025-03-07 13:41:03.977,652, 522, 540, -3, -2, -5, -14, 0, -1, 904, 829, 216,M
2025-03-07 13:41:04.033,612, 513, 620, 2, -17, 2, -14, 1, -1, 910, 847, 217,M
2025-03-07 13:41:04.087,657, 540, 680, 33, -2, 1, -13, 0, 0, 953, 870, 120,M
2025-03-07 13:41:04.140,587, 494, 403, -8, 27, 30, -15, 0, 0, 965, 845, 21,M
2025-03-07 13:41:04.197,629, 143, 882, 3, -26, -37, -15, 1, 1, 936, 833, 353,M
2025-03-07 13:41:04.255,466, 551, 843, -22, -34, -8, -14, 0, 0, 937, 880, 499,M
2025-03-07 13:41:04.307,820, 612, 448, 12, -12, 15, -12, 0, 0, 966, 917, 522,M
2025-03-07 13:41:04.357,701, 756, 410, -12, 20, 26, -14, 1, 0, 966, 918, 229,M
2025-03-07 13:41:04.422,551, 470, 450, -5, -13, -18, -14, 1, -2, 959, 921, 433,M
2025-03-07 13:41:04.477,688, 1089, 145, 32, 19, 25, -14, 0, 0, 970, 916, 405,M
2025-03-07 13:41:04.538,719, 696, 463, -14, 22, 24, -15, 1, 1, 964, 896, 283,M
2025-03-07 13:41:04.591,606, 538, 565, -45, 39, -34, -15, 1, 0, 952, 888, 350,M
2025-03-07 13:41:04.928,681, 522, 500, -2, -3, -6, -15, -1, 0, 929, 851, 279,N
2025-03-07 13:41:04.988,677, 521, 507, -2, -2, -6, -13, 1, -2, 929, 848, 288,N
2025-03-07 13:41:05.040,679, 530, 523, -1, -4, -4, -14, 0, 0, 923, 843, 298,N
2025-03-07 13:41:05.097,663, 524, 544, -3, -2, -6, -13, 0, -2, 914, 840, 299,N
2025-03-07 13:41:05.147,648, 610, 579, 0, 3, -4, -15, 2, -1, 932, 863, 194,N
2025-03-07 13:41:05.205,718, 467, 696, 20, -3, 5, -14, 1, 1, 963, 879, 18,N
2025-03-07 13:41:05.257,872, 596, 145, 6, 19, 22, -14, 0, -1, 964, 848, 15,N
2025-03-07 13:41:05.308,669, 145, 731, -10, -32, -40, -15, 1, 1, 934, 837, 239,N
2025-03-07 13:41:05.373,873, 704, 742, -7, -2, -9, -14, 3, -2, 950, 896, 467,N
2025-03-07 13:41:05.424,436, 979, 226, 15, 23, 46, -14, 2, 0, 968, 896, 166,N
2025-03-07 13:41:05.483,573, 347, 202, -3, 16, 17, -14, 0, -1, 966, 910, 12,N
2025-03-07 13:41:05.540,827, 709, 414, -1, -29, -30, -15, 2, -1, 954, 920, 399,N
2025-03-07 13:41:05.597,808, 425, 265, -9, 71, -9, -15, -1, 0, 937, 874, 546,N
2025-03-07 13:41:05.647,523, 522, 614, -19, 10, 0, -15, 1, -3, 937, 834, 312,N
2025-03-07 13:41:05.937,683, 495, 523, 0, -7, 2, -15, 1, -1, 938, 888, 439,O
2025-03-07 13:41:05.992,701, 502, 514, -1, -7, 0, -16, -2, 0, 939, 890, 438,O
2025-03-07 13:41:06.049,688, 502, 516, -1, 0, -4, -16, 2, 1, 938, 889, 433,O
2025-03-07 13:41:06.097,671, 518, 513, -2, 0, -4, -16, 1, 0, 937, 891, 441,O
2025-03-07 13:41:06.157,750, 443, 528, 3, 1, -18, -16, 1, -1, 938, 893, 463,O
2025-03-07 13:41:06.207,520, 494, 632, 24, 11, -10, -13, 0, 1, 948, 871, 439,O
2025-03-07 13:41:06.271,620, 742, 308, -29, 27, 54, -13, 0, 0, 969, 902, 17,O
2025-03-07 13:41:06.327,565, 218, 903, -32, -21, -27, -15, 2, -2, 966, 928, 9,O
2025-03-07 13:41:06.383,683, 506, 589, 47, -29, -39, -16, 1, 0, 931, 906, 470,O
2025-03-07 13:41:06.441,657, 500, 515, -25, 81, -9, -13, 1, -1, 915, 866, 457,O
2025-03-07 13:41:06.490,495, 513, 714, -13, 15, 5, -13, 2, -2, 919, 823, 171,O
2025-03-07 13:41:06.547,650, 481, 594, 16, -27, 5, -15, 1, -2, 912, 814, 174,O
2025-03-07 13:41:06.837,671, 509, 555, 5, -6, 1, -13, 1, -3, 906, 811, 175,P
2025-03-07 13:41:06.897,686, 505, 559, 6, -6, 0, -15, 2, -3, 905, 810, 178,P
2025-03-07 13:41:06.947,671, 510, 543, 2, -1, -2, -13, 2, -1, 907, 811, 170,P
2025-03-07 13:41:07.007,652, 507, 590, 7, -15, 1, -12, 2, -1, 903, 823, 309,P
2025-03-07 13:41:07.057,702, 566, 567, -7, 2, -3, -13, 2, -1, 915, 850, 215,P
2025-03-07 13:41:07.117,720, 375, 739, 72, 1, 8, -14, 1, -1, 954, 870, 113,P
2025-03-07 13:41:07.172,780, 645, 303, 23, 16, 26, -16, 1, -1, 962, 852, 14,P
2025-03-07 13:41:07.227,704, 108, 961, 19, -44, -54, -15, 0, -1, 952, 876, 18,P
2025-03-07 13:41:07.281,771, 436, 786, 7, -26, -20, -13, -1, 2, 960, 917, 509,P
2025-03-07 13:41:07.340,486, 808, 427, -11, 2, 20, -14, 0, 2, 972, 929, 460,P
2025-03-07 13:41:07.397,576, 619, 404, -18, 32, 21, -15, -1, 1, 968, 902, 17,P
2025-03-07 13:41:07.457,1008, 325, 287, -27, 50, -19, -14, 0, 0, 958, 869, 204,P
2025-03-07 13:41:07.507,406, 523, 778, -9, 1, 3, -13, 2, -1, 950, 885, 277,P
2025-03-07 13:41:07.557,605, 522, 620, 14, -34, 8, -12, 2, -1, 942, 877, 373,P
2025-03-07 13:41:07.887,695, 515, 521, -1, -3, 1, -15, 0, 0, 927, 862, 391,Q
2025-03-07 13:41:07.947,688, 516, 531, -2, -4, 0, -15, 1, -1, 926, 861, 403,Q
2025-03-07 13:41:08.007,1448, 426, 194, -22, 0, -8, -15, 3, -2, 932, 881, 333,Q
2025-03-07 13:41:08.057,644, 513, 496, -10, 1, -11, -14, 1, 0, 940, 904, 223,Q
2025-03-07 13:41:08.122,594, 332, 660, 28, -7, -29, -14, 2, -1, 956, 891, 18,Q
2025-03-07 13:41:08.177,1198, 1501, -274, -57, 46, 65, -15, 0, 0, 971, 891, 10,Q
2025-03-07 13:41:08.233,510, 586, 970, -31, 9, 23, -15, 3, -3, 969, 923, 16,Q
2025-03-07 13:41:08.290,876, 504, 521, 27, -25, -27, -14, 1, 0, 941, 887, 324,Q
2025-03-07 13:41:08.347,433, 639, 892, -4, 2, 3, -13, 1, -1, 939, 854, 123,Q
2025-03-07 13:41:08.398,775, 1042, 554, -6, -6, 10, -17, 1, -1, 965, 906, 34,Q
2025-03-07 13:41:08.457,592, 615, 434, -10, 12, 33, -14, 2, -3, 977, 925, 11,Q
2025-03-07 13:41:08.515,881, 329, 286, -18, 48, -43, -15, 2, -1, 963, 894, 18,Q
2025-03-07 13:41:08.572,539, 464, 860, -34, 18, -21, -12, 2, -5, 926, 824, 137,Q
2025-03-07 13:41:13.226,692, 493, 562, -2, 0, 0, -13, 3, -4, 943, 883, 229,S
2025-03-07 13:41:13.277,680, 483, 548, -2, 0, 0, -14, 2, -4, 943, 879, 233,S
2025-03-07 13:41:13.336,679, 483, 546, -2, 0, 0, -16, 4, -3, 944, 880, 234,S
2025-03-07 13:41:13.389,692, 493, 563, -2, 0, -1, -14, 2, -3, 943, 884, 229,S
2025-03-07 13:41:13.447,695, 485, 555, -1, 0, -1, -14, 3, -3, 944, 883, 232,S
2025-03-07 13:41:13.497,687, 486, 561, -1, 0, -1, -14, 3, -4, 943, 886, 226,S
2025-03-07 13:41:13.553,697, 484, 557, 0, -1, 0, -15, 2, -2, 944, 886, 192,S
2025-03-07 13:41:13.606,686, 486, 571, 2, -2, 1, -14, 2, -1, 943, 890, 193,S
2025-03-07 13:41:13.658,678, 479, 550, 9, -2, 2, -15, 1, -3, 946, 896, 315,S
2025-03-07 13:41:13.717,686, 489, 536, 3, -2, 1, -15, 2, -1, 948, 900, 401,S
2025-03-07 13:41:13.770,698, 494, 553, 0, 0, 0, -16, 1, -1, 948, 906, 437,S
2025-03-07 13:41:13.823,708, 490, 567, 2, -2, -1, -13, 2, -2, 950, 908, 479,S
2025-03-07 13:41:13.877,690, 514, 478, -4, -1, 0, -14, 2, -1, 954, 914, 480,S
2025-03-07 13:41:13.938,629, 482, 622, -18, -2, -4, -14, 1, -2, 957, 925, 352,S
2025-03-07 13:41:13.988,771, 439, 536, 20, -4, -14, -15, 2, -2, 961, 922, 217,S
2025-03-07 13:41:14.047,723, 855, 499, -11, 33, 48, -13, 1, -2, 974, 925, 17,S
2025-03-07 13:41:14.105,604, 743, 383, -29, 14, 22, -15, 2, -1, 976, 919, 7,S
2025-03-07 13:41:14.157,886, 412, 534, 25, 13, -8, -15, 2, -2, 952, 828, 17,S
2025-03-07 13:41:14.214,614, 496, 583, -46, 76, -33, -12, 3, -3, 917, 798, 14,S
2025-03-07 13:41:14.272,439, 495, 729, -17, 8, -4, -14, 3, -4, 913, 787, 14,S
2025-03-07 13:41:15.517,687, 505, 507, 1, -1, 1, -16, 3, -3, 914, 827, 196,T
2025-03-07 13:41:15.572,690, 501, 515, 1, 0, 0, -13, 2, -2, 916, 825, 195,T
2025-03-07 13:41:15.621,678, 491, 532, 2, -2, 1, -15, 2, -1, 916, 827, 227,T
2025-03-07 13:41:15.677,691, 509, 532, -1, 0, -1, -14, 1, 0, 917, 835, 285,T
2025-03-07 13:41:15.731,697, 508, 516, -2, 0, -2, -14, 0, 0, 919, 842, 319,T
2025-03-07 13:41:15.788,686, 501, 534, -2, 0, -2, -13, 2, -1, 917, 845, 296,T
2025-03-07 13:41:15.842,668, 516, 540, -7, 0, -5, -15, 2, 0, 920, 834, 211,T
2025-03-07 13:41:15.898,678, 449, 524, -11, 2, -14, -14, 3, -2, 930, 849, 106,T
2025-03-07 13:41:15.957,1035, 510, 742, 78, -29, -5, -14, 0, -3, 963, 922, 361,T
2025-03-07 13:41:16.007,461, 509, 567, 20, 8, 35, -14, 2, 0, 973, 940, 635,T
2025-03-07 13:41:16.067,627, 304, 441, -10, 17, -18, -16, 0, 1, 952, 915, 597,T
2025-03-07 13:41:16.121,711, 473, 782, -3, -21, 6, -14, 0, -2, 953, 889, 371,T
2025-03-07 13:41:16.179,501, 591, 455, 37, 6, 25, -14, 0, -3, 975, 925, 313,T
2025-03-07 13:41:16.230,771, 547, 376, -2, 30, 31, -15, 1, 0, 974, 916, 16,T
2025-03-07 13:41:16.288,997, 219, 408, -30, 30, -57, -15, 0, 0, 947, 851, 337,T
2025-03-07 13:41:16.348,647, 487, 666, -56, 35, -32, -13, 2, -4, 908, 817, 379,T
2025-03-07 13:41:17.921,494, 593, 598, 63, -21, 42, -7, 0, -7, 846, 746, 490,U
2025-03-07 13:41:17.980,502, 628, 538, 54, -14, 48, -8, 1, -6, 849, 741, 490,U
2025-03-07 13:41:18.038,502, 601, 493, 26, 40, 76, -11, -2, -6, 847, 731, 415,U
2025-03-07 13:41:18.088,616, 622, 361, 24, 15, 39, -10, 0, -3, 842, 712, 402,U
2025-03-07 13:41:18.147,678, 589, 458, 0, 20, 18, -12, -1, -2, 842, 702, 376,U
2025-03-07 13:41:18.204,648, 596, 370, -12, 13, 11, -11, 0, -1, 840, 686, 239,U
2025-03-07 13:41:18.257,522, 549, 602, -20, -1, 14, -11, 1, -2, 847, 695, 9,U
2025-03-07 13:41:18.307,691, 724, 630, -18, -1, -4, -10, 1, -2, 861, 717, 12,U
2025-03-07 13:41:18.373,667, 559, 737, 30, -25, 12, -12, 2, -5, 858, 731, 33,U
2025-03-07 13:41:18.427,596, 486, 510, -1, 8, 1, -12, 1, -2, 875, 745, 20,U
2025-03-07 13:41:18.482,671, 524, 529, 6, -14, 11, -11, 1, -2, 891, 769, 102,U
2025-03-07 13:41:18.537,639, 543, 594, 5, -12, 10, -12, 1, -1, 903, 798, 150,U
2025-03-07 13:41:18.590,672, 528, 527, 7, -11, 4, -12, 0, -1, 916, 839, 287,U
2025-03-07 13:41:18.647,673, 536, 520, 0, -5, 4, -14, 0, 1, 924, 861, 322,U
2025-03-07 13:41:18.701,663, 527, 540, 2, -4, 1, -14, 1, 0, 930, 866, 330,U
2025-03-07 13:41:18.754,705, 545, 538, -2, -1, 1, -12, 1, 0, 931, 861, 342,U
2025-03-07 13:41:18.807,659, 546, 506, 4, -5, 0, -14, 0, 0, 934, 862, 345,U
2025-03-07 13:41:18.857,645, 551, 525, 0, -10, -5, -13, 1, 2, 932, 865, 442,U
2025-03-07 13:41:18.918,684, 415, 518, -23, -5, -13, -13, 0, 0, 943, 894, 302,U
2025-03-07 13:41:18.970,662, 439, 711, -6, -7, -3, -13, 1, 1, 953, 905, 281,U
2025-03-07 13:41:19.027,887, 945, 243, 12, 12, 23, -13, 0, 1, 950, 885, 501,U
2025-03-07 13:41:19.086,398, 562, 724, -73, 59, -42, -12, 1, -1, 943, 888, 413,U
2025-03-07 13:41:19.137,460, 490, 758, 6, -41, 9, -13, 3, -4, 945, 906, 613,U
2025-03-07 13:41:19.201,760, 1009, 642, 14, -10, -11, -13, 1, -1, 956, 916, 622,U
2025-03-07 13:41:19.257,716, 427, 630, 28, 28, 34, -13, 1, 0, 971, 917, 386,U
2025-03-07 13:41:19.307,780, 721, 410, -34, 23, 33, -15, 0, 0, 970, 930, 157,U
2025-03-07 13:41:19.369,657, 584, 750, -7, -23, -27, -16, 2, -1, 963, 934, 574,U
2025-03-07 13:41:19.421,723, 1057, -49, 32, 29, 60, -15, 0, -2, 974, 927, 504,U
2025-03-07 13:41:19.478,974, 31, 439, -24, 36, -10, -15, 3, -1, 964, 915, 538,U
2025-03-07 13:41:19.537,476, 435, 880, -26, 45, -57, -12, 4, -4, 935, 895, 567,U
2025-03-07 13:41:19.967,689, 561, 504, -3, 0, 0, -12, 1, 0, 921, 834, 427,V
2025-03-07 13:41:20.020,682, 554, 511, -5, 1, -2, -14, 0, 0, 921, 837, 426,V
2025-03-07 13:41:20.074,615, 559, 561, -7, 2, 1, -12, 1, -1, 926, 842, 406,V
2025-03-07 13:41:20.127,673, 546, 504, 1, -9, 0, -12, 0, 0, 929, 847, 418,V
2025-03-07 13:41:20.184,623, 550, 548, -1, -14, -5, -13, 0, -1, 929, 854, 418,V
2025-03-07 13:41:20.237,692, 738, 664, -4, -8, -12, -12, 2, 1, 938, 878, 350,V
2025-03-07 13:41:20.287,802, 541, 646, 22, -7, -1, -12, 0, 2, 964, 896, 257,V
2025-03-07 13:41:20.352,528, 848, 373, 1, 23, 43, -14, 2, -2, 973, 898, 15,V
2025-03-07 13:41:20.407,484, -272, 1133, -19, -26, -19, -15, 1, -2, 967, 929, 19,V
2025-03-07 13:41:20.458,677, 571, 645, 19, -9, -4, -15, 0, 1, 959, 925, 510,V
2025-03-07 13:41:20.521,660, 569, 526, -36, 72, -4, -15, 3, -1, 954, 889, 373,V
2025-03-07 13:41:20.577,518, 533, 716, 0, 13, -5, -13, 0, -3, 952, 865, 78,V
2025-03-07 13:41:20.632,652, 530, 550, 28, -32, 1, -13, 1, -1, 949, 860, 129,V
2025-03-07 13:41:21.009,640, 537, 554, -3, -1, -2, -13, 1, -1, 920, 828, 204,W
2025-03-07 13:41:21.068,663, 539, 546, -2, -1, -2, -13, 0, -1, 920, 825, 210,W
2025-03-07 13:41:21.120,677, 538, 518, 2, -1, -1, -14, 0, 0, 921, 832, 218,W
2025-03-07 13:41:21.170,656, 543, 543, 0, 0, -2, -13, 0, -1, 919, 832, 215,W
2025-03-07 13:41:21.230,651, 544, 533, 1, -1, -2, -13, 1, -1, 918, 841, 234,W
2025-03-07 13:41:21.286,581, 537, 583, 6, -18, -3, -13, 2, 0, 918, 849, 321,W
2025-03-07 13:41:21.338,742, 493, 405, -12, 0, -7, -12, 1, 0, 944, 862, 11,W
2025-03-07 13:41:21.387,630, 853, 534, 9, 18, 59, -14, 1, 0, 968, 893, 17,W
2025-03-07 13:41:21.448,613, 726, 279, -21, 13, 24, -14, -1, 0, 970, 908, 18,W
2025-03-07 13:41:21.507,789, 782, 401, -15, -18, -33, -15, 1, -2, 965, 927, 195,W
2025-03-07 13:41:21.557,555, 870, 203, 12, 26, 44, -15, 1, 1, 972, 924, 118,W
2025-03-07 13:41:21.617,627, 598, 375, -42, 11, 26, -15, 2, -1, 975, 935, 9,W
2025-03-07 13:41:21.670,737, 448, 452, 17, -16, -14, -15, 0, -1, 960, 918, 339,W
2025-03-07 13:41:21.730,572, 536, 692, -24, 38, -8, -13, 0, -1, 954, 875, 97,W
2025-03-07 13:41:22.180,679, 513, 544, -2, -3, 0, -14, 2, -4, 938, 858, 67,X
2025-03-07 13:41:22.235,685, 518, 545, -2, -3, -1, -13, 1, -2, 938, 862, 72,X
2025-03-07 13:41:22.287,661, 520, 549, -3, -2, 0, -15, 1, -1, 940, 865, 95,X
2025-03-07 13:41:22.347,691, 522, 530, -3, -2, 0, -14, 1, -2, 942, 864, 131,X
2025-03-07 13:41:22.402,671, 513, 544, -1, -2, 1, -13, 0, -3, 943, 870, 127,X
2025-03-07 13:41:22.457,689, 521, 523, -1, -7, 4, -13, 2, -1, 946, 882, 148,X
2025-03-07 13:41:22.507,608, 510, 613, 15, -25, 11, -14, 1, -2, 950, 901, 172,X
2025-03-07 13:41:22.571,689, 360, 666, -4, -12, -10, -15, 1, -1, 961, 918, 126,X
2025-03-07 13:41:22.621,417, 522, 413, 21, 36, 33, -14, 1, -1, 972, 905, 9,X
2025-03-07 13:41:22.678,701, 611, 288, -24, 32, 20, -14, 0, -3, 956, 860, 17,X
2025-03-07 13:41:22.738,416, 632, 898, 12, -41, -11, -14, 2, -1, 945, 869, 223,X
2025-03-07 13:41:22.797,902, 818, 570, 5, -26, 9, -13, -1, -2, 973, 926, 158,X
2025-03-07 13:41:22.847,616, 499, 511, -10, 22, 42, -15, 1, 0, 976, 927, 9,X
2025-03-07 13:41:22.907,684, 509, 346, -26, 62, -61, -15, 0, -1, 956, 898, 144,X
2025-03-07 13:41:22.969,523, 469, 747, -24, 11, -27, -12, 1, -4, 939, 859, 184,X
2025-03-07 13:41:23.019,571, 499, 680, 32, -38, 5, -12, 1, -4, 933, 868, 357,X
2025-03-07 13:41:23.334,666, 527, 545, -4, -2, 0, -13, 1, -1, 936, 852, 219,Y
2025-03-07 13:41:23.387,660, 521, 550, -3, -2, 1, -13, 1, -1, 934, 856, 208,Y
2025-03-07 13:41:23.440,668, 521, 548, 2, -3, -1, -14, 2, -2, 935, 857, 232,Y
2025-03-07 13:41:23.501,681, 514, 534, -1, -2, -1, -13, 2, -1, 937, 860, 228,Y
2025-03-07 13:41:23.554,620, 527, 563, -1, -3, -2, -12, 1, -1, 937, 864, 239,Y
2025-03-07 13:41:23.617,1276, 177, 262, -27, -8, -22, -14, 1, -2, 943, 866, 155,Y
2025-03-07 13:41:23.669,886, 722, 488, 35, 0, 20, -13, 1, 0, 969, 912, 216,Y
2025-03-07 13:41:23.719,676, 502, 478, 3, 23, 39, -14, 1, -2, 971, 921, 57,Y
2025-03-07 13:41:23.778,512, 595, 479, -10, 4, -46, -15, 1, -1, 959, 907, 409,Y
2025-03-07 13:41:23.837,478, 630, 697, 36, -13, -14, -14, 1, 0, 967, 918, 509,Y
2025-03-07 13:41:23.887,732, 834, 543, 38, 34, 33, -14, 0, 2, 979, 912, 208,Y
2025-03-07 13:41:23.947,801, 476, 342, 19, 23, 12, -15, 0, 1, 970, 890, 228,Y
2025-03-07 13:41:24.003,817, 438, 211, -45, 29, -58, -13, 1, -1, 943, 866, 508,Y
2025-03-07 13:41:24.067,479, 503, 604, -25, -11, -12, -12, 1, -1, 940, 864, 417,Y
2025-03-07 13:41:24.400,659, 530, 531, -4, -3, -2, -12, 1, -1, 934, 832, 165,Z
2025-03-07 13:41:24.457,655, 535, 527, -4, -3, -2, -12, 1, -1, 932, 830, 165,Z
2025-03-07 13:41:24.508,647, 529, 536, -6, -2, -2, -13, 2, -1, 932, 830, 113,Z
2025-03-07 13:41:24.569,894, 122, 367, -10, 1, -19, -14, 1, -1, 940, 838, 18,Z
2025-03-07 13:41:24.619,823, 568, 611, 52, -11, 2, -14, 0, 0, 964, 912, 239,Z
2025-03-07 13:41:24.679,567, 496, 674, 28, 1, 10, -14, 0, 1, 971, 931, 487,Z
2025-03-07 13:41:24.734,699, 570, 208, 29, 35, 5, -14, -1, 1, 971, 899, 154,Z
2025-03-07 13:41:24.787,841, 507, 409, 15, 9, -3, -14, 1, 1, 967, 882, 17,Z
2025-03-07 13:41:24.837,456, 271, 315, 0, -4, 21, -16, 0, 2, 976, 936, 9,Z
2025-03-07 13:41:24.887,621, 459, 619, -5, -6, 7, -15, 0, 0, 965, 917, 88,Z
2025-03-07 13:41:24.952,403, 649, 843, -43, 7, -39, -14, -1, -1, 951, 852, 206,Z
2025-03-07 13:41:25.007,818, 552, 174, 10, -16, -2, -14, 0, 0, 972, 928, 391,Z
2025-03-07 13:41:25.059,791, 609, 460, 2, 6, 24, -16, 0, 1, 975, 940, 386,Z
2025-03-07 13:41:25.107,876, 283, 271, -11, 30, -31, -15, 0, 0, 957, 902, 541,Z
2025-03-07 13:41:25.177,555, 516, 677, -32, 16, -16, -14, 0, -1, 942, 826, 362,Z
2025-03-07 13:41:25.537,690, 537, 524, -7, 0, 0, -14, 0, -2, 936, 832, 176,a
2025-03-07 13:41:25.597,667, 536, 525, -6, 0, 1, -15, 2, 0, 938, 834, 170,a
2025-03-07 13:41:25.652,694, 535, 511, -2, -1, 0, -12, 0, -1, 939, 841, 191,a
2025-03-07 13:41:25.704,697, 533, 512, -1, 1, 0, -15, 1, -1, 941, 842, 161,a
2025-03-07 13:41:25.757,692, 533, 501, 0, 2, 2, -16, 1, -1, 944, 835, 89,a
2025-03-07 13:41:25.807,677, 532, 520, 1, 10, 6, -14, 1, 2, 945, 820, 12,a
2025-03-07 13:41:25.858,669, 535, 513, 1, -1, 3, -14, 1, -1, 944, 826, 20,a
2025-03-07 13:41:25.918,670, 529, 521, -1, -1, 1, -14, 0, -2, 946, 840, 33,a
2025-03-07 13:41:25.969,697, 525, 504, 0, -3, 1, -14, 1, 0, 948, 857, 105,a
2025-03-07 13:41:26.019,693, 537, 515, 1, -2, 2, -14, 0, -1, 951, 863, 120,a
2025-03-07 13:41:26.078,686, 532, 487, -5, 1, -2, -15, 0, -1, 951, 877, 118,a
2025-03-07 13:41:26.136,611, 484, 579, -5, -4, -14, -14, 0, 1, 958, 896, 12,a
2025-03-07 13:41:26.189,744, 485, 467, 15, -1, -16, -13, 1, 0, 961, 901, 13,a
2025-03-07 13:41:26.237,716, 861, 363, -19, 17, 19, -15, 0, 1, 969, 892, 12,a
2025-03-07 13:41:26.292,680, 464, 562, 5, 6, 7, -13, 1, 0, 969, 905, 15,a
2025-03-07 13:41:26.347,691, 448, 611, 0, 0, 2, -14, 1, -1, 965, 914, 14,a
2025-03-07 13:41:26.402,673, 516, 564, -1, -6, -4, -14, 1, 0, 962, 918, 113,a
2025-03-07 13:41:26.453,690, 539, 480, 0, 1, 0, -14, 2, -1, 964, 920, 126,a
2025-03-07 13:41:26.507,684, 550, 506, 1, 2, 1, -15, 0, 0, 962, 922, 215,a
2025-03-07 13:41:26.557,682, 536, 475, -9, 5, 3, -14, 0, 1, 962, 928, 206,a
2025-03-07 13:41:26.608,689, 523, 515, -3, -2, -3, -15, 0, 0, 964, 928, 134,a
2025-03-07 13:41:26.670,679, 394, 661, 14, -9, -11, -15, 0, 0, 968, 928, 172,a
2025-03-07 13:41:26.720,637, 314, 594, -1, 9, 15, -15, 0, 0, 977, 927, 17,a
2025-03-07 13:41:26.777,699, 511, 505, -7, 12, 19, -13, 3, 0, 969, 921, 5,a
2025-03-07 13:41:26.836,718, 551, 421, -43, 44, -42, -15, 0, -1, 945, 892, 119,a
2025-03-07 13:41:26.887,526, 518, 696, -8, -7, -8, -14, 0, -2, 935, 882, 20,a
2025-03-07 13:41:27.197,667, 527, 526, -6, -1, -2, -14, 1, -1, 926, 862, 189,b
2025-03-07 13:41:27.261,666, 525, 531, -6, 0, -1, -14, 1, -2, 925, 861, 170,b
2025-03-07 13:41:27.317,672, 512, 526, -2, -6, -4, -14, 2, -1, 927, 852, 154,b
2025-03-07 13:41:27.368,660, 529, 534, 5, -12, -1, -14, 1, -2, 926, 856, 206,b
2025-03-07 13:41:27.419,739, 488, 688, 4, -6, -9, -12, 2, -2, 953, 891, 13,b
2025-03-07 13:41:27.483,397, 651, 442, 15, 39, 57, -15, 0, 0, 971, 904, 14,b
2025-03-07 13:41:27.535,699, 532, 311, -2, 13, 15, -15, 0, 0, 965, 899, 8,b
2025-03-07 13:41:27.587,747, 408, 555, 31, -28, -35, -12, 0, 0, 956, 906, 427,b
2025-03-07 13:41:27.647,535, 675, 411, 9, -10, 8, -14, 0, 1, 974, 928, 329,b
2025-03-07 13:41:27.700,748, 710, 133, -40, 31, 24, -16, 2, 2, 976, 911, 17,b
2025-03-07 13:41:27.757,1073, 223, 639, -10, 14, -19, -14, 2, -1, 953, 820, 14,b
2025-03-07 13:41:27.807,483, 520, 830, -6, -10, -12, -13, 1, -1, 950, 868, 13,b
2025-03-07 13:41:28.101,679, 529, 530, 1, -2, 0, -14, 1, -1, 942, 816, 11,c
2025-03-07 13:41:28.155,690, 532, 520, 1, -1, 1, -15, 1, 0, 941, 818, 15,c
2025-03-07 13:41:28.207,680, 530, 503, -3, 1, 2, -15, 1, 0, 944, 825, 12,c
2025-03-07 13:41:28.257,690, 514, 521, 0, -2, 0, -15, 0, 0, 944, 838, 14,c
2025-03-07 13:41:28.307,690, 534, 525, -4, -1, 1, -14, 1, 1, 948, 847, 18,c
2025-03-07 13:41:28.367,843, 424, 410, -19, -5, -10, -15, -1, 0, 952, 870, 12,c
2025-03-07 13:41:28.419,552, 526, 490, -11, -3, -12, -15, 0, 0, 959, 892, 13,c
2025-03-07 13:41:28.477,743, 572, 345, 37, -2, -9, -14, 0, 0, 966, 884, 17,c
2025-03-07 13:41:28.535,757, 694, 358, -33, 31, 50, -13, 0, 1, 970, 903, 15,c
2025-03-07 13:41:28.587,854, 233, 409, 4, 10, -23, -14, 1, 0, 960, 898, 14,c
2025-03-07 13:41:28.637,540, 547, 831, -45, 24, -20, -12, 1, -1, 940, 859, 10,c
2025-03-07 13:41:28.699,531, 524, 692, 3, -23, 5, -13, 1, -2, 935, 828, 20,c
2025-03-07 13:41:29.008,685, 515, 521, 3, -4, 4, -14, 1, -2, 940, 829, 13,d
2025-03-07 13:41:29.057,688, 509, 530, 3, -5, 4, -14, 1, 0, 941, 834, 13,d
2025-03-07 13:41:29.111,696, 502, 531, 6, -6, 5, -14, 1, 1, 946, 854, 16,d
2025-03-07 13:41:29.167,686, 520, 518, 7, -8, 6, -15, 0, -1, 948, 875, 21,d
2025-03-07 13:41:29.222,668, 522, 569, -10, -2, -6, -15, 2, -2, 955, 893, 7,d
2025-03-07 13:41:29.277,690, 458, 683, -7, -6, -17, -15, 3, -1, 959, 912, 15,d
2025-03-07 13:41:29.329,788, 675, 382, 37, 8, -2, -14, 2, 1, 969, 901, 15,d
2025-03-07 13:41:29.387,621, 582, 392, -14, 26, 32, -15, 0, -1, 973, 911, 16,d
2025-03-07 13:41:29.437,443, 131, 850, 7, -46, -54, -15, 2, -1, 963, 928, 11,d
2025-03-07 13:41:29.502,667, 287, 925, 25, -25, -22, -14, 1, -1, 965, 928, 71,d
2025-03-07 13:41:29.555,719, 417, 437, -1, 27, 39, -17, 1, 0, 976, 919, 15,d
2025-03-07 13:41:29.607,733, 367, 708, -10, 9, 7, -16, 0, -1, 966, 906, 20,d
2025-03-07 13:41:29.665,638, 523, 714, -22, 29, -29, -15, 1, -1, 951, 895, 22,d
2025-03-07 13:41:29.977,680, 526, 531, -3, 1, 0, -14, 1, 1, 949, 860, 17,e
2025-03-07 13:41:30.027,674, 523, 530, -2, 0, 1, -15, 0, -1, 950, 862, 18,e
2025-03-07 13:41:30.084,686, 505, 529, -4, 1, -1, -15, 0, 0, 949, 863, 13,e
2025-03-07 13:41:30.138,648, 516, 526, -3, 0, 0, -14, 1, 1, 951, 854, 19,e
2025-03-07 13:41:30.192,649, 495, 568, 4, -17, 8, -16, 0, 0, 952, 861, 13,e
2025-03-07 13:41:30.237,848, 796, 554, 5, -3, 17, -14, 2, -1, 966, 907, 17,e
2025-03-07 13:41:30.289,623, 523, 573, -6, 4, 8, -16, 1, -1, 969, 926, 8,e
2025-03-07 13:41:30.350,641, 414, 571, 7, -13, -24, -15, 3, 0, 961, 918, 24,e
2025-03-07 13:41:30.407,743, 584, 460, 29, -2, -7, -14, 1, -1, 969, 906, 14,e
2025-03-07 13:41:30.457,673, 384, 419, -3, 20, 31, -14, 1, 1, 976, 919, 10,e
2025-03-07 13:41:30.507,644, 304, 708, 17, -7, 6, -17, 2, 0, 968, 916, 5,e
2025-03-07 13:41:30.567,604, 546, 672, -16, 20, -15, -15, 2, 0, 958, 899, 22,e
2025-03-07 13:41:30.620,625, 521, 643, 5, -12, 5, -15, 1, -1, 956, 891, 11,e
2025-03-07 13:41:30.917,681, 501, 532, 0, -2, 5, -15, 0, 1, 955, 864, 20,f
2025-03-07 13:41:30.967,684, 504, 538, 1, -3, 5, -16, 0, -1, 954, 863, 15,f
2025-03-07 13:41:31.026,701, 496, 515, 0, -4, 2, -14, 0, -1, 954, 867, 22,f
2025-03-07 13:41:31.077,701, 504, 505, -5, -1, 0, -16, 1, -1, 952, 866, 13,f
2025-03-07 13:41:31.132,695, 578, 493, -23, 0, -6, -16, 2, 0, 959, 896, 10,f
2025-03-07 13:41:31.188,581, 291, 779, 15, -23, -32, -15, 1, 0, 963, 934, 16,f
2025-03-07 13:41:31.237,684, 479, 687, 3, -26, -13, -15, 1, 0, 969, 945, 170,f
2025-03-07 13:41:31.300,754, 787, 214, 25, 8, 22, -16, -1, 0, 965, 922, 253,f
2025-03-07 13:41:31.352,538, 528, 479, -13, 43, -29, -13, 2, 0, 955, 898, 17,f
2025-03-07 13:41:31.407,649, 397, 366, 33, -10, -31, -15, 0, 0, 958, 900, 15,f
2025-03-07 13:41:31.467,780, 744, 449, 10, -12, 19, -14, 1, 0, 974, 937, 22,f
2025-03-07 13:41:31.518,666, 599, 545, 3, 10, 15, -14, 1, -2, 968, 924, 7,f
2025-03-07 13:41:31.568,633, 549, 629, -37, 39, -25, -14, 0, 0, 954, 893, 102,f
2025-03-07 13:41:31.897,707, 519, 488, -3, 1, -1, -15, 1, 0, 948, 877, 11,g
2025-03-07 13:41:31.951,698, 538, 499, -3, 1, 0, -15, 1, 0, 948, 878, 14,g
2025-03-07 13:41:32.007,700, 513, 499, -4, 1, 0, -14, 1, 0, 951, 884, 10,g
2025-03-07 13:41:32.057,665, 488, 514, -10, 0, -7, -14, 1, 0, 955, 899, 12,g
2025-03-07 13:41:32.115,636, 538, 585, -3, -7, -14, -15, 2, 0, 959, 914, 16,g
2025-03-07 13:41:32.168,714, 784, 268, 22, 14, 12, -15, 1, 0, 970, 906, 19,g
2025-03-07 13:41:32.218,820, 724, 372, -25, 31, 46, -13, 1, -3, 974, 915, 22,g
2025-03-07 13:41:32.282,521, 116, 710, 12, -27, -32, -15, 1, 0, 963, 922, 13,g
2025-03-07 13:41:32.337,700, 378, 607, 8, -12, -12, -15, 2, -1, 967, 923, 37,g
2025-03-07 13:41:32.387,1022, 622, 472, -27, 22, 47, -16, 1, 1, 979, 920, 11,g
2025-03-07 13:41:32.450,837, 240, 530, -44, 22, 5, -15, 2, -1, 968, 837, 12,g
2025-03-07 13:41:32.507,908, 486, 406, -19, 56, -48, -14, 1, -3, 923, 760, 16,g
2025-03-07 13:41:32.561,476, 531, 762, 7, -8, -18, -14, 3, -3, 904, 795, 10,g
2025-03-07 13:41:32.914,680, 510, 533, 1, -2, -1, -14, 0, -1, 916, 823, 16,h
2025-03-07 13:41:32.958,672, 527, 540, 1, -2, 0, -13, 1, -2, 919, 822, 15,h
2025-03-07 13:41:33.017,682, 521, 528, 0, -3, -2, -14, 0, -1, 921, 825, 17,h
2025-03-07 13:41:33.075,670, 526, 523, -5, -5, -6, -13, 1, -1, 921, 843, 9,h
2025-03-07 13:41:33.127,597, 518, 656, 11, -34, 1, -13, 1, 0, 928, 868, 214,h
2025-03-07 13:41:33.177,804, 676, 621, 6, -7, -1, -15, 1, 1, 963, 893, 111,h
2025-03-07 13:41:33.233,606, 709, 206, -3, 28, 43, -13, 1, 1, 974, 883, 9,h
2025-03-07 13:41:33.287,700, 614, 395, -7, 18, 11, -14, 2, 0, 966, 883, 14,h
2025-03-07 13:41:33.337,772, 520, 579, 1, -27, -23, -15, 1, -1, 960, 902, 10,h
2025-03-07 13:41:33.400,693, 273, 476, -17, 12, 22, -17, 1, 0, 976, 909, 18,h
2025-03-07 13:41:33.452,738, 546, 477, -3, 20, 20, -14, 4, -2, 964, 884, 18,h
2025-03-07 13:41:33.507,745, 508, 491, -30, 35, -39, -14, 2, 0, 940, 819, 9,h
2025-03-07 13:41:33.565,548, 527, 703, -7, 1, -12, -14, 2, -3, 924, 817, 10,h
2025-03-07 13:41:33.837,669, 498, 553, 2, -6, 4, -14, 2, -1, 937, 831, 18,i
2025-03-07 13:41:33.891,681, 501, 542, 3, -7, 4, -14, 0, -2, 938, 833, 20,i
2025-03-07 13:41:33.939,694, 499, 534, 1, 0, 2, -14, 1, -1, 939, 837, 13,i
2025-03-07 13:41:34.000,699, 495, 533, -2, 0, -2, -15, 1, -2, 939, 844, 19,i
2025-03-07 13:41:34.049,679, 504, 536, -3, -6, -4, -14, 1, -1, 940, 855, 11,i
2025-03-07 13:41:34.100,710, 375, 536, -18, 0, -7, -14, 2, 0, 953, 890, 7,i
2025-03-07 13:41:34.157,668, 434, 661, 13, -10, 3, -14, 1, -2, 972, 898, 12,i
2025-03-07 13:41:34.216,704, 749, 259, -5, 24, 29, -15, 2, -2, 972, 881, 14,i
2025-03-07 13:41:34.267,854, 205, 300, -9, 9, -99, -15, 3, -1, 945, 834, 19,i
2025-03-07 13:41:34.327,470, 524, 845, 37, -22, -48, -14, 1, -3, 956, 896, 17,i
2025-03-07 13:41:34.377,758, 475, 348, 16, 11, 5, -15, 1, -2, 962, 906, 6,i
2025-03-07 13:41:34.437,803, 241, 300, -18, 40, -2, -15, 1, -3, 949, 879, 17,i
2025-03-07 13:41:34.488,596, 459, 558, -17, 31, -3, -15, 2, -3, 951, 863, 16,i
2025-03-07 13:41:34.797,683, 522, 520, -3, 0, 3, -15, 2, -1, 942, 836, 12,j
2025-03-07 13:41:34.849,690, 501, 541, -2, 0, 4, -16, 1, -2, 940, 839, 14,j
2025-03-07 13:41:34.901,682, 501, 555, 2, -4, 3, -13, 1, 1, 941, 842, 8,j
2025-03-07 13:41:34.957,687, 503, 557, -2, -6, 3, -15, 0, -3, 940, 854, 13,j
2025-03-07 13:41:35.007,725, 363, 544, 6, 1, -2, -16, 1, 0, 957, 888, 11,j
2025-03-07 13:41:35.064,913, 890, 555, -27, 18, 42, -15, 3, 0, 972, 899, 11,j
2025-03-07 13:41:35.117,646, 494, 447, -46, 18, 20, -16, 0, -3, 968, 876, 13,j
2025-03-07 13:41:35.175,987, 484, 219, -10, 6, -91, -15, 3, -2, 944, 842, 13,j
2025-03-07 13:41:35.233,353, 456, 863, 15, -59, 3, -14, 2, -3, 954, 895, 15,j
2025-03-07 13:41:35.284,771, 614, 232, 15, -1, 4, -17, 1, -2, 970, 920, 11,j
2025-03-07 13:41:35.337,719, 353, 592, 4, -1, 18, -15, 1, -2, 961, 910, 11,j
2025-03-07 13:41:35.397,661, 524, 604, -25, 38, -7, -14, 2, -2, 957, 891, 13,j
2025-03-07 13:41:35.450,537, 531, 750, -3, -1, 4, -14, 1, -4, 951, 879, 14,j
2025-03-07 13:41:35.502,679, 486, 537, 15, -20, 4, -14, 1, -3, 951, 873, 21,j
2025-03-07 13:41:35.552,698, 473, 500, 7, -5, 1, -15, 1, -3, 946, 866, 9,j
2025-03-07 13:41:35.827,694, 497, 531, -1, -2, -1, -14, 1, -2, 923, 765, 18,k
2025-03-07 13:41:35.882,692, 481, 525, -1, -2, -2, -15, 1, 0, 921, 768, 17,k
2025-03-07 13:41:35.937,661, 519, 528, 1, -6, -7, -16, 1, -1, 922, 783, 14,k
2025-03-07 13:41:35.987,850, 407, 500, 6, -7, -20, -15, 2, 0, 932, 836, 8,k
2025-03-07 13:41:36.047,687, 464, 512, 8, -9, -9, -14, 0, -1, 955, 870, 15,k
2025-03-07 13:41:36.099,691, 771, 501, -14, 23, 23, -14, 1, 0, 963, 839, 17,k
2025-03-07 13:41:36.151,719, 397, 465, 2, 14, 8, -15, 0, -1, 962, 867, 15,k
2025-03-07 13:41:36.201,650, 576, 409, 9, -10, 12, -15, 2, 1, 966, 931, 12,k
2025-03-07 13:41:36.264,670, 475, 584, 12, -13, -5, -14, 0, 0, 960, 927, 16,k
2025-03-07 13:41:36.317,777, 503, 231, -32, 33, -24, -16, 1, 0, 942, 852, 18,k
2025-03-07 13:41:36.372,609, 465, 710, 27, -52, 25, -14, 1, -1, 948, 823, 6,k
2025-03-07 13:41:36.427,906, 724, 310, -20, 7, 46, -14, 1, 1, 972, 912, 11,k
2025-03-07 13:41:36.481,691, 355, 616, 2, 10, 20, -15, 2, 0, 969, 908, 20,k
2025-03-07 13:41:36.537,671, 535, 419, -44, 55, -50, -15, 1, -1, 945, 856, 13,k
2025-03-07 13:41:36.842,665, 504, 551, -2, -5, 2, -15, 1, -3, 920, 796, 12,l
2025-03-07 13:41:36.887,659, 505, 558, 0, -5, 2, -14, 1, 0, 921, 793, 19,l
2025-03-07 13:41:36.938,705, 512, 490, 0, -4, 0, -16, 2, 0, 922, 804, 8,l
2025-03-07 13:41:36.998,666, 501, 552, -3, -1, -1, -14, 1, 0, 920, 809, 9,l
2025-03-07 13:41:37.050,692, 515, 518, -9, -4, -7, -14, 1, -1, 920, 818, 13,l
2025-03-07 13:41:37.107,611, 500, 653, 4, -32, -1, -14, 1, 0, 932, 867, 8,l
2025-03-07 13:41:37.157,716, 524, 570, -7, -3, -4, -14, 1, 0, 950, 899, 15,l
2025-03-07 13:41:37.215,709, 587, 439, 30, -6, 5, -14, 2, -1, 971, 911, 6,l
2025-03-07 13:41:37.268,1032, 714, 320, 10, 20, 30, -14, 1, 1, 977, 903, 16,l
2025-03-07 13:41:37.320,718, 494, 553, 3, 19, 16, -13, 2, 1, 962, 877, 4,l
2025-03-07 13:41:37.377,770, 593, 309, -30, 39, -33, -15, 0, -1, 938, 855, 19,l
2025-03-07 13:41:37.431,514, 491, 702, -9, -1, -8, -15, 0, -2, 927, 843, 17,l
2025-03-07 13:41:37.487,655, 499, 581, 17, -29, 7, -14, 0, -3, 927, 842, 19,l
2025-03-07 13:41:37.809,686, 501, 533, 4, -7, 1, -14, 2, -2, 926, 794, 13,m
2025-03-07 13:41:37.864,695, 506, 521, 3, -6, 1, -14, 1, -2, 926, 792, 8,m
2025-03-07 13:41:37.918,699, 506, 521, -1, 0, 0, -15, 2, -1, 928, 796, 10,m
2025-03-07 13:41:37.968,683, 507, 530, 0, -2, -3, -14, 1, 0, 927, 800, 16,m
2025-03-07 13:41:38.018,674, 493, 548, -5, -4, -7, -14, 2, -1, 930, 816, 16,m
2025-03-07 13:41:38.083,639, 572, 660, -15, 0, -9, -15, 1, -1, 948, 870, 19,m
2025-03-07 13:41:38.132,584, 539, 602, 16, 5, 8, -13, 0, -1, 966, 894, 9,m
2025-03-07 13:41:38.189,671, 712, 238, -13, 14, 20, -14, 1, 0, 974, 897, 12,m
2025-03-07 13:41:38.242,764, 174, 748, 7, -13, -8, -14, 2, -1, 964, 905, 11,m
2025-03-07 13:41:38.300,579, 337, 731, 2, -21, -10, -14, 1, 0, 970, 919, 21,m
2025-03-07 13:41:38.352,657, 601, 372, -14, 25, 33, -14, -1, 1, 977, 916, 11,m
2025-03-07 13:41:38.407,745, 360, 777, -7, 9, 3, -15, 2, -1, 967, 914, 11,m
2025-03-07 13:41:38.463,671, 416, 714, 11, -13, -5, -16, 1, -1, 973, 926, 13,m
2025-03-07 13:41:38.517,687, 633, 294, -10, 30, 41, -15, 1, 0, 976, 920, 12,m
2025-03-07 13:41:38.570,759, 348, 458, -16, 21, -27, -15, 2, -2, 966, 902, 15,m
2025-03-07 13:41:38.979,700, 509, 522, 0, -3, -1, -15, 0, -1, 941, 815, 11,n
2025-03-07 13:41:39.037,699, 518, 517, 0, -2, -1, -14, 2, -1, 940, 814, 16,n
2025-03-07 13:41:39.087,682, 514, 523, -2, -1, -2, -16, 1, -1, 941, 826, 15,n
2025-03-07 13:41:39.147,682, 504, 510, 1, -4, -4, -15, 1, -1, 939, 837, 11,n
2025-03-07 13:41:39.200,670, 532, 548, -1, -10, -3, -14, 0, 1, 942, 866, 12,n
2025-03-07 13:41:39.250,708, 508, 595, -11, 1, -1, -15, 2, 0, 954, 894, 16,n
2025-03-07 13:41:39.307,616, 501, 450, 27, 15, 16, -15, 0, 0, 965, 901, 15,n
2025-03-07 13:41:39.357,748, 415, 558, -4, 9, 10, -15, 0, 0, 971, 901, 12,n
2025-03-07 13:41:39.417,754, 76, 824, 13, -40, -31, -15, 2, 0, 962, 910, 18,n
2025-03-07 13:41:39.467,628, 526, 659, 18, -22, -6, -15, 0, 0, 973, 922, 13,n
2025-03-07 13:41:39.521,820, 583, 263, 0, 25, 28, -16, 1, 0, 980, 915, 14,n
2025-03-07 13:41:39.579,783, 171, 689, -1, 15, -8, -15, 2, -1, 964, 893, 9,n
2025-03-07 13:41:39.633,616, 476, 656, -24, 11, -25, -14, 1, -2, 952, 878, 9,n
2025-03-07 13:41:39.947,699, 505, 535, 2, -5, 2, -15, 1, 0, 942, 858, 15,o
2025-03-07 13:41:39.998,711, 503, 525, 2, -4, 2, -15, 1, -1, 945, 858, 8,o
2025-03-07 13:41:40.050,712, 513, 506, -3, 0, 0, -16, 2, -1, 946, 863, 17,o
2025-03-07 13:41:40.107,678, 498, 541, -1, -3, 1, -15, 1, -3, 947, 872, 12,o
2025-03-07 13:41:40.157,689, 513, 534, -3, 0, 1, -15, 0, -1, 948, 874, 18,o
2025-03-07 13:41:40.213,703, 504, 525, 0, -3, 2, -16, 1, 0, 949, 880, 20,o
2025-03-07 13:41:40.257,701, 496, 525, 0, 1, 0, -15, 1, -2, 949, 884, 12,o
2025-03-07 13:41:40.315,689, 511, 534, 3, -5, 3, -13, 0, -1, 951, 889, 15,o
2025-03-07 13:41:40.367,680, 578, 548, -4, 0, -6, -16, 2, -1, 954, 899, 19,o
2025-03-07 13:41:40.429,676, 433, 666, -10, -8, -20, -15, 0, -1, 958, 916, 20,o
2025-03-07 13:41:40.481,684, 831, 311, 53, 13, 1, -14, 2, -1, 970, 906, 13,o
2025-03-07 13:41:40.532,825, 466, 396, -27, 31, 55, -14, 1, -1, 976, 919, 13,o
2025-03-07 13:41:40.587,478, 76, 849, -4, -16, -15, -15, 1, 0, 971, 936, 15,o
2025-03-07 13:41:40.648,797, 718, 386, 24, -13, -14, -14, 1, 0, 947, 908, 14,o
2025-03-07 13:41:40.699,606, 584, 649, -27, 40, -7, -13, 0, -1, 935, 868, 15,o
2025-03-07 13:41:40.757,576, 466, 690, -6, -5, 6, -14, 1, -2, 933, 817, 10,o
2025-03-07 13:41:41.041,695, 501, 520, 0, -2, 0, -15, 2, 0, 929, 778, 9,p
2025-03-07 13:41:41.097,708, 499, 511, -1, -2, -1, -15, 2, 0, 929, 776, 4,p
2025-03-07 13:41:41.149,707, 519, 514, -4, 0, -2, -16, 2, -1, 928, 788, 11,p
2025-03-07 13:41:41.198,699, 520, 521, -3, -1, -1, -14, 0, -2, 927, 786, 12,p
2025-03-07 13:41:41.257,696, 512, 525, -2, -2, 0, -14, 1, 1, 927, 793, 11,p
2025-03-07 13:41:41.307,678, 505, 523, -5, -6, -2, -16, 2, 0, 929, 804, 20,p
2025-03-07 13:41:41.367,726, 459, 488, -26, -1, -8, -15, 1, 0, 941, 858, 13,p
2025-03-07 13:41:41.417,668, 406, 620, 32, 2, -2, -15, 2, -1, 967, 889, 14,p
2025-03-07 13:41:41.467,587, 869, 191, 11, 33, 57, -17, 1, 1, 975, 889, 9,p
2025-03-07 13:41:41.527,726, 143, 796, -4, 6, -3, -16, 3, -1, 959, 889, 18,p
2025-03-07 13:41:41.582,926, 823, 446, -20, -20, -43, -14, 1, 0, 955, 915, 16,p
2025-03-07 13:41:41.637,601, 609, 535, 4, -18, 13, -14, 0, 1, 976, 936, 17,p
2025-03-07 13:41:41.696,270, 603, 612, -18, 30, 29, -15, 2, 1, 975, 918, 11,p
2025-03-07 13:41:41.751,1135, 321, 417, -12, 22, -43, -16, 1, -1, 956, 874, 20,p
2025-03-07 13:41:41.807,479, 498, 801, -7, -5, -13, -15, 1, -3, 954, 885, 11,p
2025-03-07 13:41:42.084,716, 507, 507, 0, -3, 0, -14, 2, 0, 948, 869, 13,q
2025-03-07 13:41:42.137,718, 512, 491, -1, -2, 0, -16, 0, 0, 950, 869, 7,q
2025-03-07 13:41:42.187,691, 505, 531, -3, 1, 1, -14, 1, 0, 949, 873, 12,q
2025-03-07 13:41:42.237,711, 502, 495, 1, -2, 0, -17, 2, 1, 951, 879, 13,q
2025-03-07 13:41:42.292,679, 489, 537, -3, -2, 3, -14, 0, 1, 951, 885, 16,q
2025-03-07 13:41:42.351,683, 517, 505, -11, 0, -5, -15, 2, -2, 957, 899, 10,q
2025-03-07 13:41:42.397,712, 446, 640, -8, -9, -16, -14, 2, 1, 962, 910, 10,q
2025-03-07 13:41:42.457,773, 798, 43, 18, 11, 5, -15, 1, 0, 971, 894, 13,q
2025-03-07 13:41:42.507,844, 445, 382, -27, 30, 30, -16, 0, 0, 974, 906, 20,q
2025-03-07 13:41:42.567,708, 305, 693, 13, -22, -32, -16, 1, 0, 967, 918, 22,q
2025-03-07 13:41:42.617,588, 914, 235, 20, 12, 24, -14, 2, -1, 969, 897, 11,q
2025-03-07 13:41:42.677,704, 548, 309, -2, 16, 20, -16, 0, 0, 975, 914, 16,q
2025-03-07 13:41:42.731,700, 274, 597, 30, -11, -5, -17, 2, 0, 964, 920, 9,q
2025-03-07 13:41:42.787,526, 467, 763, -50, 71, -29, -15, 1, -1, 953, 886, 18,q
2025-03-07 13:41:42.837,521, 481, 770, -15, -9, -9, -14, 1, -3, 943, 845, 14,q
2025-03-07 13:41:43.128,699, 513, 515, 6, -3, -3, -14, 1, -1, 947, 864, 12,r
2025-03-07 13:41:43.181,705, 520, 515, 6, -2, -2, -16, 1, -2, 947, 862, 12,r
2025-03-07 13:41:43.232,690, 496, 521, 4, 0, -2, -14, 2, 0, 948, 865, 9,r
2025-03-07 13:41:43.281,690, 523, 504, 2, 0, -3, -14, 2, -1, 948, 862, 17,r
2025-03-07 13:41:43.337,658, 532, 594, 15, -26, 0, -13, 2, -2, 953, 883, 59,r
2025-03-07 13:41:43.387,756, 658, 502, 2, 3, 13, -14, 1, -1, 966, 899, 21,r
2025-03-07 13:41:43.448,659, 405, 353, -2, 15, 23, -14, 2, 0, 973, 904, 14,r
2025-03-07 13:41:43.497,756, -64, 1064, 12, -26, -28, -15, 1, -2, 970, 923, 11,r
2025-03-07 13:41:43.557,768, 694, 504, 18, -17, 4, -13, 0, 0, 968, 930, 148,r
2025-03-07 13:41:43.615,633, 504, 473, -18, 39, -6, -15, 2, 0, 966, 916, 18,r
2025-03-07 13:41:43.667,638, 494, 671, -8, -4, -5, -15, 2, -1, 963, 905, 9,r
2025-03-07 13:41:43.723,747, 535, 459, 6, -11, -2, -16, 2, 0, 959, 900, 15,r
2025-03-07 13:41:44.070,693, 497, 530, -2, -1, 3, -14, 1, -3, 956, 892, 16,s
2025-03-07 13:41:44.128,695, 491, 540, 0, -2, 3, -14, 2, 0, 956, 893, 15,s
2025-03-07 13:41:44.182,707, 503, 496, 0, -2, 1, -16, 1, -1, 957, 894, 13,s
2025-03-07 13:41:44.231,704, 484, 494, 2, -9, 4, -14, 3, 0, 958, 899, 15,s
2025-03-07 13:41:44.287,672, 539, 557, -16, 0, -2, -14, 2, -1, 963, 913, 6,s
2025-03-07 13:41:44.345,795, 374, 569, 14, -6, -15, -15, 2, -2, 966, 914, 12,s
2025-03-07 13:41:44.387,812, 435, 421, 17, 5, -5, -14, 2, 0, 971, 912, 19,s
2025-03-07 13:41:44.448,643, 597, 621, 1, 3, 14, -15, 2, -1, 978, 923, 16,s
2025-03-07 13:41:44.499,681, 410, 472, -20, 13, 4, -16, 1, 0, 971, 902, 10,s
2025-03-07 13:41:44.563,955, 482, 313, -32, 50, -37, -15, 3, -2, 952, 795, 11,s
2025-03-07 13:41:44.617,532, 468, 670, -11, 13, -17, -14, 4, -2, 950, 822, 17,s
2025-03-07 13:41:44.668,590, 494, 608, 22, -27, 4, -14, 2, -2, 947, 866, 18,s
2025-03-07 13:41:44.997,672, 483, 569, 5, -6, 1, -14, 1, -1, 947, 881, 14,t
2025-03-07 13:41:45.048,674, 485, 568, 6, -8, 1, -14, 3, 0, 948, 881, 10,t
2025-03-07 13:41:45.107,719, 507, 510, 4, -4, 0, -14, 1, -2, 948, 886, 11,t
2025-03-07 13:41:45.160,686, 486, 542, 5, -4, -2, -16, 1, -2, 951, 889, 10,t
2025-03-07 13:41:45.214,715, 509, 519, 0, -12, -1, -14, 1, 0, 951, 896, 20,t
2025-03-07 13:41:45.267,635, 644, 601, -17, -8, -13, -15, 2, -1, 956, 916, 11,t
2025-03-07 13:41:45.322,609, 449, 465, 88, 17, 6, -15, 1, -1, 972, 914, 13,t
2025-03-07 13:41:45.378,682, 555, 196, 7, 40, 54, -15, 1, 1, 978, 916, 15,t
2025-03-07 13:41:45.431,541, 150, 941, -13, -17, -7, -15, 0, 0, 969, 919, 15,t
2025-03-07 13:41:45.487,472, 544, 839, -13, -35, -21, -14, 1, 0, 958, 904, 16,t
2025-03-07 13:41:45.545,960, 791, 505, -1, -15, 8, -15, 0, 1, 976, 933, 16,t
2025-03-07 13:41:45.598,679, 441, 500, 1, 12, 32, -15, 2, -1, 975, 939, 15,t
2025-03-07 13:41:45.647,683, 545, 416, -15, 53, -36, -15, 2, 0, 959, 910, 16,t
2025-03-07 13:41:45.971,696, 508, 499, -1, -3, 1, -15, 0, -2, 955, 885, 17,u
2025-03-07 13:41:46.027,705, 514, 501, -2, -2, 0, -15, 3, 1, 955, 887, 18,u
2025-03-07 13:41:46.081,694, 513, 518, -3, -2, -2, -16, 2, 0, 956, 884, 17,u
2025-03-07 13:41:46.137,697, 537, 489, -16, 0, -6, -17, 0, -1, 955, 895, 5,u
2025-03-07 13:41:46.188,718, 447, 606, 0, -6, -7, -15, 2, 1, 965, 910, 16,u
2025-03-07 13:41:46.246,667, 635, 508, 21, 19, 29, -16, 1, 1, 975, 908, 19,u
2025-03-07 13:41:46.298,649, 642, 423, -11, 13, 23, -15, 1, 0, 973, 920, 14,u
2025-03-07 13:41:46.348,428, 194, 790, 0, -26, -33, -17, 2, 1, 966, 929, 7,u
2025-03-07 13:41:46.407,729, 520, 566, 21, -15, -11, -14, 0, 1, 970, 922, 15,u
2025-03-07 13:41:46.467,736, 551, 333, -3, 18, 26, -16, 1, -2, 977, 922, 19,u
2025-03-07 13:41:46.517,817, 295, 440, 3, -3, -43, -17, 1, 1, 964, 909, 15,u
2025-03-07 13:41:46.572,615, 523, 659, -16, 4, -19, -15, 1, 1, 949, 892, 21,u
2025-03-07 13:41:46.897,689, 517, 502, 1, -2, 0, -16, 0, 1, 942, 834, 13,v
2025-03-07 13:41:46.946,697, 514, 499, 0, -2, 0, -14, 2, 1, 942, 834, 9,v
2025-03-07 13:41:47.003,674, 508, 531, -2, -1, -2, -15, 0, -1, 942, 841, 15,v
2025-03-07 13:41:47.057,701, 530, 521, -3, -2, 0, -15, 1, 1, 944, 836, 12,v
2025-03-07 13:41:47.107,695, 522, 514, -5, 0, -4, -14, 1, -1, 945, 832, 12,v
2025-03-07 13:41:47.163,683, 609, 585, -8, -1, -14, -16, 0, 2, 950, 871, 12,v
2025-03-07 13:41:47.217,691, 372, 601, 4, -4, -11, -16, 0, -1, 963, 904, 15,v
2025-03-07 13:41:47.272,701, 393, 418, 15, 27, 56, -13, 0, 1, 976, 912, 14,v
2025-03-07 13:41:47.327,753, 756, 334, -31, 16, 24, -15, 2, 0, 974, 928, 16,v
2025-03-07 13:41:47.385,674, 319, 711, 4, -19, -25, -15, 2, -1, 969, 940, 8,v
2025-03-07 13:41:47.437,825, 595, 210, -8, 15, 3, -16, 1, 2, 960, 911, 16,v
2025-03-07 13:41:47.487,568, 475, 690, -22, 18, -8, -16, 2, 0, 956, 896, 9,v
2025-03-07 13:41:47.545,603, 500, 650, 6, -19, -2, -14, 2, -1, 954, 883, 19,v
2025-03-07 13:41:47.966,650, 501, 540, 5, -6, -3, -14, 2, 0, 932, 795, 20,w
2025-03-07 13:41:48.017,706, 500, 540, 4, -5, -3, -15, 1, -1, 931, 797, 22,w
2025-03-07 13:41:48.067,681, 515, 514, -6, 2, -2, -13, 0, -1, 932, 794, 14,w
2025-03-07 13:41:48.127,682, 510, 540, -3, -6, -1, -14, 1, -2, 936, 806, 8,w
2025-03-07 13:41:48.184,691, 607, 565, -19, -1, -7, -14, 2, -3, 948, 839, 14,w
2025-03-07 13:41:48.237,691, 521, 540, 2, -3, -7, -14, 0, -1, 956, 876, 12,w
2025-03-07 13:41:48.287,686, 557, 491, 0, 2, 0, -14, 2, 0, 959, 891, 19,w
2025-03-07 13:41:48.337,688, 533, 525, 5, -3, -3, -15, 1, -1, 965, 900, 19,w
2025-03-07 13:41:48.397,777, 578, 566, 21, -2, 11, -15, 0, 0, 970, 908, 17,w
2025-03-07 13:41:48.449,626, 423, 383, -7, 17, 39, -16, 1, 0, 976, 906, 15,w
2025-03-07 13:41:48.505,709, 500, 435, -28, 9, 22, -14, 1, -1, 972, 930, 18,w
2025-03-07 13:41:48.564,706, 484, 647, -30, -30, -20, -14, 2, -1, 969, 938, 12,w
2025-03-07 13:41:48.617,913, 537, 291, 34, 17, 48, -16, 0, 0, 975, 926, 0,w
2025-03-07 13:41:48.672,701, 691, 163, -27, 19, 22, -16, 2, -1, 974, 936, 14,w
2025-03-07 13:41:48.731,702, 375, 618, 26, -28, -23, -17, 2, -1, 967, 934, 14,w
2025-03-07 13:41:48.781,641, 518, 583, -34, 73, -24, -14, 1, -1, 943, 907, 6,w
2025-03-07 13:41:49.088,703, 498, 515, -1, -4, 0, -16, 1, 1, 942, 882, 10,x
2025-03-07 13:41:49.137,703, 496, 503, -1, -5, -1, -16, 1, 1, 942, 884, 12,x
2025-03-07 13:41:49.195,728, 515, 462, -4, 0, -2, -15, -1, 1, 944, 886, 10,x
2025-03-07 13:41:49.247,716, 498, 522, -4, 0, -1, -15, 2, 1, 945, 888, 16,x
2025-03-07 13:41:49.300,734, 520, 489, -4, 0, -2, -16, 0, 0, 946, 892, 11,x
2025-03-07 13:41:49.347,723, 497, 512, -2, 1, -1, -18, 2, 0, 947, 892, 13,x
2025-03-07 13:41:49.407,725, 515, 484, -4, 1, -1, -15, 1, 1, 945, 896, 14,x
2025-03-07 13:41:49.462,712, 500, 509, -1, -1, 0, -16, 1, 0, 948, 895, 18,x
2025-03-07 13:41:49.513,728, 513, 502, -3, -1, -1, -17, 2, 0, 949, 898, 12,x
2025-03-07 13:41:49.567,714, 498, 518, -2, -4, 0, -15, 2, 2, 950, 912, 15,x
2025-03-07 13:41:49.621,684, 500, 572, -9, -7, -8, -16, 1, 0, 960, 926, 16,x
2025-03-07 13:41:49.678,786, 389, 697, 32, 3, -12, -17, 1, -1, 973, 917, 11,x
2025-03-07 13:41:49.730,650, 620, 245, -46, 26, 15, -15, 1, 1, 964, 877, 16,x
2025-03-07 13:41:49.787,625, 514, 711, 30, -19, -45, -15, 1, -1, 955, 856, 16,x
2025-03-07 13:41:49.846,800, 1000, 450, 17, -24, 19, -14, 1, 1, 978, 928, 13,x
2025-03-07 13:41:49.897,502, 221, 564, -2, 20, 29, -15, 1, -1, 979, 930, 18,x
2025-03-07 13:41:49.952,831, 233, 415, 3, 4, -45, -15, 1, 1, 962, 903, 20,x
2025-03-07 13:41:50.010,606, 538, 702, -15, -3, -19, -14, 0, -1, 954, 886, 7,x
2025-03-07 13:41:50.320,713, 518, 501, -3, 0, 0, -15, 0, 0, 954, 886, 11,y
2025-03-07 13:41:50.367,705, 509, 513, -3, -1, 1, -16, 0, 1, 954, 887, 20,y
2025-03-07 13:41:50.428,716, 512, 495, -1, 0, 0, -16, -1, 0, 956, 887, 20,y
2025-03-07 13:41:50.481,701, 514, 506, -5, -1, -2, -15, 1, 0, 957, 891, 16,y
2025-03-07 13:41:50.530,716, 516, 449, -13, 0, -6, -14, 2, 0, 956, 901, 15,y
2025-03-07 13:41:50.587,682, 414, 585, -8, -10, -17, -15, 1, 0, 962, 912, 12,y
2025-03-07 13:41:50.645,678, 605, 354, 36, 2, 0, -14, 2, -2, 973, 913, 11,y
2025-03-07 13:41:50.694,777, 407, 111, 5, 31, 48, -17, 1, 1, 982, 925, 9,y
2025-03-07 13:41:50.747,592, 127, 719, 7, -6, -4, -16, 2, 0, 970, 925, 17,y
2025-03-07 13:41:50.799,783, 338, 566, 8, -4, -11, -15, 0, 1, 970, 928, 8,y
2025-03-07 13:41:50.847,888, 603, 445, 0, 16, 28, -17, 1, 0, 977, 929, 15,y
2025-03-07 13:41:50.910,826, 428, 429, -36, 31, 26, -17, 3, -1, 972, 901, 13,y
2025-03-07 13:41:50.967,1023, 460, 299, -7, 14, -62, -16, 2, -2, 947, 841, 11,y
2025-03-07 13:41:51.025,464, 455, 783, 9, -22, -10, -15, 2, -2, 950, 890, 16,y
2025-03-07 13:41:51.080,666, 541, 509, 26, -35, 10, -16, -1, -1, 955, 897, 14,y
2025-03-07 13:41:51.407,702, 514, 534, -8, -1, -2, -15, 1, 0, 952, 885, 18,z
2025-03-07 13:41:51.460,704, 508, 530, -7, -1, -1, -16, 1, 0, 954, 884, 16,z
2025-03-07 13:41:51.517,699, 504, 515, -5, -3, -3, -16, 1, -1, 953, 880, 14,z
2025-03-07 13:41:51.567,690, 500, 537, -4, 0, -3, -15, 1, -1, 953, 882, 20,z
2025-03-07 13:41:51.622,626, 481, 604, 4, -18, -2, -17, 1, -2, 954, 879, 14,z
2025-03-07 13:41:51.679,782, 521, 515, -10, -1, -3, -16, 0, 0, 964, 903, 12,z
2025-03-07 13:41:51.729,602, 531, 317, 16, -3, 29, -16, 1, 1, 980, 943, 14,z
2025-03-07 13:41:51.787,537, 874, 255, 11, 15, 19, -14, 0, 2, 979, 933, 12,z
2025-03-07 13:41:51.845,706, 469, 481, -42, 22, -6, -16, 0, 1, 973, 889, 12,z
2025-03-07 13:41:51.897,854, 676, 431, 12, -10, 32, -16, 0, -1, 981, 936, 14,z
2025-03-07 13:41:51.947,617, 409, 511, 5, 5, 13, -16, 1, 0, 980, 943, 23,z
2025-03-07 13:41:51.997,679, 305, 418, 0, 2, -51, -16, 1, 2, 960, 893, 10,z
2025-03-07 13:41:52.058,753, 529, 940, 4, -23, 0, -15, 0, 0, 952, 811, 21,z
2025-03-07 13:41:52.111,859, 775, 659, 26, -15, 15, -16, 2, 0, 977, 932, 16,z
2025-03-07 13:41:52.163,729, 588, 581, 8, -3, 17, -15, 0, 1, 979, 944, 18,z
2025-03-07 13:41:52.222,922, 343, 252, -22, 32, -21, -16, 0, 0, 956, 889, 11,z
2025-03-07 13:41:52.279,585, 550, 783, -53, 49, -18, -14, 1, -3, 922, 707, 22,z
2025-03-07 13:41:52.329,558, 515, 738, 8, -13, -4, -14, 2, -2, 901, 661, 18,z
2025-03-07 13:41:52.867,633, 502, 458, -24, 12, 12, -15, 1, 0, 888, 711, 12,0
2025-03-07 13:41:52.927,631, 491, 503, -17, 11, 10, -14, 0, 1, 894, 721, 14,0
2025-03-07 13:41:52.970,630, 527, 526, 1, -9, 9, -13, 1, -1, 910, 764, 6,0
2025-03-07 13:41:53.029,737, 587, 445, -2, -7, 7, -15, 1, 1, 915, 784, 13,0
2025-03-07 13:41:53.079,722, 549, 486, -8, 2, 0, -15, 0, 0, 924, 809, 18,0
2025-03-07 13:41:53.129,668, 529, 510, -2, -1, 1, -16, 0, 0, 928, 825, 11,0
2025-03-07 13:41:53.187,699, 550, 486, -2, -3, 2, -14, 0, 1, 930, 840, 21,0
2025-03-07 13:41:53.237,704, 549, 492, -5, 0, 2, -14, 1, 0, 937, 849, 1,0
2025-03-07 13:41:53.287,695, 548, 500, -2, -3, 1, -16, 1, -1, 939, 854, 15,0
2025-03-07 13:41:53.344,707, 551, 493, -3, 2, 1, -15, 0, 0, 940, 858, 15,0
2025-03-07 13:41:53.397,683, 533, 510, 1, -2, 6, -15, -1, 0, 945, 866, 7,0
2025-03-07 13:41:53.445,720, 469, 468, -1, 2, 0, -13, 1, 1, 949, 886, 19,0
2025-03-07 13:41:53.497,645, 640, 439, -10, -3, -17, -14, -1, 0, 957, 910, 20,0
2025-03-07 13:41:53.561,1076, 392, 484, 28, -7, -31, -14, 1, 0, 966, 902, 15,0
2025-03-07 13:41:53.617,750, 1031, 123, -35, 53, 88, -14, -1, 1, 976, 905, 10,0
2025-03-07 13:41:53.676,519, 134, 1015, -28, -16, 11, -16, 1, -1, 974, 936, 7,0
2025-03-07 13:41:53.729,865, 599, 305, 44, -13, -28, -15, 2, 0, 948, 906, 9,0
2025-03-07 13:41:53.787,598, 604, 563, -22, 59, -9, -15, 1, -1, 940, 870, 20,0
2025-03-07 13:41:53.837,583, 518, 654, 1, -2, 3, -15, 1, -1, 939, 843, 13,0
2025-03-07 13:41:54.157,687, 532, 497, 1, -4, -1, -14, 3, -2, 933, 856, 7,1
2025-03-07 13:41:54.216,691, 543, 510, 1, -3, 0, -15, -1, 0, 930, 853, 16,1
2025-03-07 13:41:54.263,690, 528, 503, -1, -3, 0, -15, 1, 0, 932, 855, 8,1
2025-03-07 13:41:54.321,696, 524, 508, -2, -4, -1, -15, 0, 1, 934, 854, 15,1
2025-03-07 13:41:54.377,654, 504, 524, -8, -1, -12, -15, -1, 2, 941, 867, 19,1
2025-03-07 13:41:54.429,765, 658, 620, 5, -9, 8, -15, 0, 0, 959, 915, 16,1
2025-03-07 13:41:54.484,516, 352, 668, 12, -6, 0, -13, 1, 1, 967, 926, 16,1
2025-03-07 13:41:54.530,1114, 406, 556, 1, 35, 40, -15, 1, 0, 976, 919, 10,1
2025-03-07 13:41:54.593,721, 469, 433, -26, 19, 19, -15, 0, -1, 970, 894, 18,1
2025-03-07 13:41:54.647,522, 591, 554, -9, 7, -49, -15, 0, 0, 953, 810, 23,1
2025-03-07 13:41:54.697,770, 311, 264, 28, -6, -8, -14, 0, 0, 968, 889, 10,1
2025-03-07 13:41:54.747,744, 803, 543, -18, 3, 42, -15, 0, 2, 975, 927, 15,1
2025-03-07 13:41:54.810,909, 239, 269, -21, 34, -25, -16, 2, 0, 963, 904, 9,1
2025-03-07 13:41:54.867,585, 521, 750, -61, 36, -26, -13, 2, -2, 942, 787, 18,1
2025-03-07 13:41:54.918,533, 502, 715, 9, -23, -4, -12, 2, -2, 924, 755, 20,1
2025-03-07 13:41:55.237,712, 527, 488, -7, 1, -2, -12, 2, -1, 926, 797, 19,2
2025-03-07 13:41:55.287,699, 510, 518, -8, 1, -2, -15, 2, -2, 925, 797, 10,2
2025-03-07 13:41:55.343,706, 521, 549, -2, -2, -1, -14, 1, -1, 928, 804, 16,2
2025-03-07 13:41:55.396,698, 535, 498, -1, 0, 0, -14, 2, -1, 932, 826, 11,2
2025-03-07 13:41:55.448,668, 510, 542, 5, -4, -2, -15, 2, -2, 936, 845, 12,2
2025-03-07 13:41:55.507,724, 432, 382, 8, 1, -19, -15, 1, -1, 941, 857, 10,2
2025-03-07 13:41:55.560,808, 413, 479, 34, -3, -7, -14, 2, -3, 956, 900, 13,2
2025-03-07 13:41:55.613,600, 468, 471, 28, -5, 12, -15, 1, 0, 969, 927, 111,2
2025-03-07 13:41:55.671,581, 702, 390, 21, 30, 21, -16, 2, 1, 968, 911, 16,2
2025-03-07 13:41:55.721,966, 545, 313, -1, 15, -9, -14, 1, 2, 964, 876, 21,2
2025-03-07 13:41:55.776,568, 766, 494, 6, -26, 32, -15, 0, 2, 978, 936, 17,2
2025-03-07 13:41:55.829,625, 534, 241, -6, 6, 33, -16, 1, 2, 977, 936, 12,2
2025-03-07 13:41:55.887,576, 556, 300, -60, 67, -69, -14, 1, 0, 955, 888, 16,2
2025-03-07 13:41:55.944,558, 520, 724, -17, -5, -18, -11, -1, -1, 935, 854, 18,2
2025-03-07 13:41:56.247,654, 563, 489, -4, -1, 1, -13, 1, 0, 912, 858, 8,3
2025-03-07 13:41:56.297,661, 539, 512, -3, -2, 0, -16, 0, 1, 912, 858, 13,3
2025-03-07 13:41:56.357,682, 536, 491, -2, -1, 0, -12, 1, -1, 917, 867, 14,3
2025-03-07 13:41:56.407,678, 550, 491, -3, -2, 0, -13, 0, 1, 918, 871, 18,3
2025-03-07 13:41:56.461,692, 550, 494, -2, -2, -1, -14, 0, 0, 920, 874, 13,3
2025-03-07 13:41:56.517,673, 553, 500, -3, -3, -2, -13, 0, 0, 919, 875, 15,3
2025-03-07 13:41:56.576,650, 514, 552, -20, -22, -14, -14, 1, 1, 928, 882, 6,3
2025-03-07 13:41:56.625,882, 466, 524, 21, -7, 1, -14, 0, 2, 957, 917, 18,3
2025-03-07 13:41:56.678,419, 243, 685, 22, -5, 7, -15, -1, 1, 971, 930, 9,3
2025-03-07 13:41:56.728,875, 456, 500, 10, 2, -3, -15, 1, 2, 972, 917, 15,3
2025-03-07 13:41:56.778,883, 488, 382, 11, 8, -6, -14, 1, 1, 970, 911, 14,3
2025-03-07 13:41:56.837,583, 617, 548, 9, 12, 14, -15, 2, 1, 979, 921, 13,3
2025-03-07 13:41:56.895,679, 524, 389, -24, 21, 13, -17, 0, 1, 967, 890, 16,3
2025-03-07 13:41:56.947,1099, 396, 297, -14, 49, -37, -15, 2, -1, 937, 788, 10,3
2025-03-07 13:41:57.010,496, 490, 805, -11, 2, -17, -13, 1, -2, 934, 844, 17,3
2025-03-07 13:41:57.339,690, 540, 499, 1, -9, 0, -13, 0, 0, 939, 886, 8,4
2025-03-07 13:41:57.394,692, 529, 505, 1, -9, 0, -13, 0, 0, 941, 885, 13,4
2025-03-07 13:41:57.447,719, 538, 473, -1, -5, -3, -14, 0, 0, 943, 894, 12,4
2025-03-07 13:41:57.497,684, 485, 515, -2, -1, -5, -15, 1, 0, 948, 895, 12,4
2025-03-07 13:41:57.559,692, 566, 482, 1, -2, -4, -14, 0, 0, 953, 904, 24,4
2025-03-07 13:41:57.611,616, 455, 500, 13, -8, -9, -14, 0, -1, 964, 904, 13,4
2025-03-07 13:41:57.661,720, 420, 525, 5, 14, -1, -14, 1, 0, 966, 873, 15,4
2025-03-07 13:41:57.717,744, 502, 386, 17, 11, -1, -15, 1, 1, 966, 895, 12,4
2025-03-07 13:41:57.770,410, 578, 500, -9, 2, 30, -15, 0, 0, 973, 936, 11,4
2025-03-07 13:41:57.825,677, 540, 495, -1, 3, 9, -16, 1, 0, 957, 911, 12,4
2025-03-07 13:41:57.878,688, 540, 173, -51, 42, -65, -13, 1, 0, 926, 861, 67,4
2025-03-07 13:41:57.928,464, 576, 591, 24, -44, 35, -14, 0, 1, 953, 886, 273,4
2025-03-07 13:41:57.993,872, 485, 647, 12, 17, 23, -14, 2, 0, 977, 914, 11,4
2025-03-07 13:41:58.042,902, 523, 469, 3, 26, 25, -17, 0, 0, 975, 892, 7,4
2025-03-07 13:41:58.097,1029, 104, 447, -3, -9, -43, -15, 0, -1, 953, 856, 14,4
2025-03-07 13:41:58.157,492, 532, 783, -29, 2, -10, -13, 1, -3, 951, 890, 18,4
2025-03-07 13:41:58.537,710, 528, 532, -4, 0, -1, -14, 2, -2, 940, 853, 12,5
2025-03-07 13:41:58.593,702, 530, 511, -5, 0, -1, -14, 1, -2, 940, 850, 14,5
2025-03-07 13:41:58.648,657, 503, 557, -2, -1, -1, -12, 1, 0, 938, 850, 15,5
2025-03-07 13:41:58.697,712, 525, 512, -2, -2, -2, -14, 2, -1, 938, 849, 8,5
2025-03-07 13:41:58.758,580, 489, 613, -2, -11, 0, -16, 1, -3, 940, 848, 13,5
2025-03-07 13:41:58.811,759, 374, 440, 21, 1, -10, -14, 2, -1, 956, 895, 15,5
2025-03-07 13:41:58.861,695, 543, 448, -1, -6, 14, -15, 0, -1, 966, 930, 12,5
2025-03-07 13:41:58.921,581, 325, 556, -2, -6, -7, -14, 0, 0, 961, 919, 18,5
2025-03-07 13:41:58.976,911, 548, 569, 39, 7, -15, -14, 2, 1, 961, 899, 144,5
2025-03-07 13:41:59.029,934, 725, 505, -11, 25, 46, -14, 1, 0, 977, 925, 6,5
2025-03-07 13:41:59.087,808, 660, 468, -20, 19, 26, -15, 2, 0, 975, 914, 13,5
2025-03-07 13:41:59.137,895, 413, 473, 5, 11, -15, -15, 2, 2, 941, 769, 7,5
2025-03-07 13:41:59.197,557, 514, 626, -35, 70, -28, -13, 2, -3, 889, 714, 19,5
2025-03-07 13:41:59.247,464, 558, 691, 0, -3, 0, -13, 1, -4, 880, 751, 63,5
2025-03-07 13:41:59.302,612, 510, 619, 9, -29, 5, -12, 2, -2, 880, 757, 20,5
2025-03-07 13:42:02.370,598, 559, 475, 33, 14, 43, -10, 2, -4, 843, 673, 13,7
2025-03-07 13:42:02.427,605, 541, 489, 32, 9, 38, -11, -1, -4, 844, 670, 11,7
2025-03-07 13:42:02.484,658, 646, 373, 16, -12, 23, -13, 0, -4, 840, 671, 7,7
2025-03-07 13:42:02.539,626, 620, 427, 5, -8, 21, -13, 1, -3, 846, 686, 2,7
2025-03-07 13:42:02.593,698, 615, 503, 11, 0, 23, -12, 2, -2, 861, 698, 20,7
2025-03-07 13:42:02.643,633, 571, 456, 1, 5, 12, -14, -1, -1, 872, 725, 12,7
2025-03-07 13:42:02.702,708, 601, 479, 8, -7, 10, -13, 0, -1, 890, 742, 19,7
2025-03-07 13:42:02.747,656, 622, 478, 7, -13, 7, -14, -1, 0, 900, 767, 9,7
2025-03-07 13:42:02.799,698, 583, 442, -2, 4, 7, -15, 0, 2, 912, 775, 12,7
2025-03-07 13:42:02.859,687, 604, 482, -7, -1, 7, -14, 0, 0, 913, 774, 19,7
2025-03-07 13:42:02.911,667, 581, 483, -5, -6, 1, -15, -1, 0, 917, 790, 9,7
2025-03-07 13:42:02.961,532, 552, 694, 9, -37, 14, -14, 1, 1, 927, 798, 20,7
2025-03-07 13:42:03.020,826, 592, 292, -15, 1, -2, -15, 0, -1, 953, 870, 8,7
2025-03-07 13:42:03.071,699, 533, 463, 6, 14, 38, -13, 1, 1, 968, 911, 14,7
2025-03-07 13:42:03.126,1062, 731, 370, 23, 33, 26, -15, 0, 0, 972, 905, 9,7
2025-03-07 13:42:03.182,731, 397, 374, -15, 18, 13, -15, 0, 2, 956, 853, 7,7
2025-03-07 13:42:03.235,388, 697, 852, -9, -11, -9, -13, -1, -1, 946, 811, 9,7
2025-03-07 13:42:03.287,789, 897, 338, 26, -4, 4, -15, 1, 1, 969, 913, 127,7
2025-03-07 13:42:03.345,584, 328, 507, 5, 10, 33, -16, 2, -2, 964, 917, 145,7
2025-03-07 13:42:03.401,670, 557, 310, -36, 66, -48, -16, 0, -1, 943, 856, 197,7
2025-03-07 13:42:03.460,530, 468, 701, -28, 9, -19, -12, 0, -2, 910, 689, 13,7
2025-03-07 13:42:03.517,655, 507, 589, 22, -27, -2, -11, 1, -2, 890, 662, 21,7
2025-03-07 13:42:04.017,686, 531, 514, -4, -1, 5, -13, 0, -2, 907, 738, 12,8
2025-03-07 13:42:04.075,692, 525, 519, -3, -1, 5, -14, 1, 0, 908, 739, 10,8
2025-03-07 13:42:04.130,691, 539, 519, -2, 0, 2, -16, 0, 0, 914, 753, 21,8
2025-03-07 13:42:04.181,683, 534, 505, 0, -3, 2, -14, 1, -1, 918, 770, 12,8
2025-03-07 13:42:04.231,684, 533, 492, 0, -3, 2, -15, 2, 1, 924, 792, 13,8
2025-03-07 13:42:04.277,655, 534, 537, 0, -10, 5, -16, 2, 0, 926, 812, 18,8
2025-03-07 13:42:04.341,659, 505, 426, -15, 3, -8, -15, -1, 1, 937, 863, 16,8
2025-03-07 13:42:04.395,652, 472, 613, 21, 0, -12, -13, 0, 0, 952, 869, 17,8
2025-03-07 13:42:04.447,1067, 1195, 182, 11, 31, 76, -13, 1, 1, 966, 885, 21,8
2025-03-07 13:42:04.497,512, 533, 525, -12, 14, 15, -15, 1, 0, 965, 917, 16,8
2025-03-07 13:42:04.560,641, 607, 321, -7, -39, -68, -15, 0, 0, 958, 924, 234,8
2025-03-07 13:42:04.617,678, 809, 516, -2, -18, 4, -14, 1, 2, 975, 936, 129,8
2025-03-07 13:42:04.667,735, 575, 361, -4, 26, 28, -16, -1, 0, 975, 922, 22,8
2025-03-07 13:42:04.727,991, 213, 377, -13, 37, -23, -16, 1, -2, 958, 861, 15,8
2025-03-07 13:42:04.777,564, 443, 675, -28, 26, -12, -15, 1, -4, 950, 823, 7,8
2025-03-07 13:42:04.841,553, 543, 621, 14, -17, 9, -12, 2, -2, 939, 819, 10,8
2025-03-07 13:42:04.893,695, 507, 508, 26, -29, 10, -14, 1, 0, 924, 810, 18,8
2025-03-07 13:42:04.947,782, 531, 428, 1, 1, -2, -15, 1, 0, 913, 792, 7,8
2025-03-07 13:42:05.607,696, 515, 549, 0, -3, -1, -14, 1, 0, 919, 770, 10,9
2025-03-07 13:42:05.667,698, 527, 537, -1, -4, -1, -13, 2, -1, 919, 774, 14,9
2025-03-07 13:42:05.725,694, 519, 551, -3, -3, -3, -14, 3, -2, 921, 783, 20,9
2025-03-07 13:42:05.777,709, 500, 516, 0, -1, -1, -13, 1, -1, 920, 785, 11,9
2025-03-07 13:42:05.827,675, 504, 520, 2, 1, 1, -14, 0, 0, 923, 785, 5,9
2025-03-07 13:42:05.877,692, 511, 500, -2, 0, -1, -15, 2, -1, 924, 787, 17,9
2025-03-07 13:42:05.927,683, 508, 532, -2, -2, 1, -15, 0, -2, 927, 791, 13,9
2025-03-07 13:42:05.987,695, 519, 516, 1, -5, 2, -17, 0, -1, 931, 808, 11,9
2025-03-07 13:42:06.043,726, 503, 536, 0, -4, -1, -15, 1, -1, 934, 831, 11,9
2025-03-07 13:42:06.097,710, 504, 527, -2, 3, -2, -15, 1, -1, 933, 826, 8,9
2025-03-07 13:42:06.147,664, 499, 558, 6, 1, 3, -15, 1, -2, 934, 826, 20,9
2025-03-07 13:42:06.197,701, 532, 486, -3, 5, -4, -14, 0, -1, 935, 820, 6,9
2025-03-07 13:42:06.249,653, 513, 562, -5, -5, 0, -15, 1, -2, 935, 839, 16,9
2025-03-07 13:42:06.309,641, 458, 338, -3, -27, -7, -15, 0, 0, 946, 884, 4,9
2025-03-07 13:42:06.361,640, 301, 775, 8, -18, -26, -14, 1, -2, 955, 907, 9,9
2025-03-07 13:42:06.417,976, 944, 157, 6, 24, 17, -15, 0, -1, 971, 902, 13,9
2025-03-07 13:42:06.475,737, 271, 515, -17, 28, 42, -15, 1, 0, 971, 915, 17,9
2025-03-07 13:42:06.527,747, 479, 485, 12, -17, -33, -15, 0, -1, 964, 914, 17,9
2025-03-07 13:42:06.586,590, 940, 422, -18, 25, 32, -15, -1, -1, 974, 914, 8,9
2025-03-07 13:42:06.642,583, 329, 498, -66, 31, 37, -16, 2, -1, 964, 836, 11,9
2025-03-07 13:42:06.697,1087, 375, 288, 16, 34, -69, -14, 2, -2, 897, 735, 9,9
2025-03-07 13:42:06.747,531, 515, 819, -6, 8, -25, -13, 2, -3, 844, 737, 14,9
2025-03-07 13:42:06.809,572, 612, 616, 9, -13, -4, -12, 2, -4, 870, 736, 108,9
2025-03-07 13:42:07.300,684, 585, 501, -16, 7, 2, -14, 0, 0, 936, 846, 398,+
2025-03-07 13:42:07.358,664, 569, 520, -14, 7, 2, -14, 0, 0, 937, 849, 391,+
2025-03-07 13:42:07.409,691, 571, 503, -5, -3, 2, -13, -1, 0, 940, 861, 410,+
2025-03-07 13:42:07.462,708, 543, 492, -5, 0, 2, -15, 1, -1, 941, 869, 404,+
2025-03-07 13:42:07.516,684, 544, 505, -9, 0, 2, -15, 0, 0, 944, 872, 384,+
2025-03-07 13:42:07.567,684, 527, 525, -5, 1, 1, -14, 1, 0, 942, 874, 376,+
2025-03-07 13:42:07.625,701, 541, 489, -5, 0, 0, -15, 0, -2, 944, 871, 353,+
2025-03-07 13:42:07.678,696, 537, 493, -5, 1, -1, -14, 1, -1, 944, 872, 344,+
2025-03-07 13:42:07.732,678, 552, 520, -3, -1, 1, -14, 1, -1, 943, 875, 263,+
2025-03-07 13:42:07.787,697, 535, 509, -6, -1, 1, -15, 0, -2, 944, 875, 245,+
2025-03-07 13:42:07.842,691, 538, 512, -6, 1, 1, -15, 0, -1, 946, 875, 228,+
2025-03-07 13:42:07.897,711, 531, 499, -3, -2, -2, -15, 1, -2, 944, 879, 225,+
2025-03-07 13:42:07.947,676, 536, 531, -6, -7, -2, -14, 2, 0, 943, 879, 242,+
2025-03-07 13:42:08.009,667, 528, 515, -11, -2, -8, -14, 1, -1, 951, 899, 219,+
2025-03-07 13:42:08.067,700, 446, 690, 14, -13, -13, -14, 2, -1, 963, 919, 110,+
2025-03-07 13:42:08.126,737, 595, 321, 45, 26, 29, -15, 1, 0, 977, 914, 23,+
2025-03-07 13:42:08.177,690, 616, 430, -24, 31, 37, -14, 0, -1, 967, 887, 6,+
2025-03-07 13:42:08.228,412, 546, 657, -8, 1, -53, -14, 1, 0, 953, 801, 19,+
2025-03-07 13:42:08.290,875, 301, 188, 17, -11, -14, -15, 0, -2, 961, 893, 18,+
2025-03-07 13:42:08.342,504, 625, 349, -8, 3, 39, -14, 0, -1, 976, 939, 21,+
2025-03-07 13:42:08.397,656, 390, 531, 15, 3, 7, -15, 0, -1, 966, 914, 16,+
2025-03-07 13:42:08.447,714, 578, 396, -62, 64, -47, -16, 1, -1, 926, 826, 191,+
2025-03-07 13:42:08.509,543, 501, 696, -15, 8, -13, -13, 1, -4, 901, 750, 16,+
2025-03-07 13:42:08.997,682, 533, 528, -6, 0, -2, -15, 1, -1, 914, 743, 7,-
2025-03-07 13:42:09.057,684, 531, 529, -5, -1, -1, -15, 1, -2, 916, 744, 15,-
2025-03-07 13:42:09.108,693, 542, 509, -5, 1, -2, -15, 1, -1, 920, 756, 4,-
2025-03-07 13:42:09.159,697, 517, 535, -1, 0, -3, -14, 1, -2, 920, 773, 14,-
2025-03-07 13:42:09.219,697, 536, 502, 2, 1, -4, -14, 1, -1, 921, 762, 12,-
2025-03-07 13:42:09.273,754, 526, 508, 5, -1, -1, -14, 1, 0, 915, 767, 52,-
2025-03-07 13:42:09.317,650, 539, 536, 2, 3, -2, -15, 1, 0, 916, 768, 89,-
2025-03-07 13:42:09.377,648, 537, 521, 13, -4, 1, -14, 1, -1, 923, 782, 141,-
2025-03-07 13:42:09.427,718, 608, 621, -17, 1, -9, -14, 1, 2, 952, 829, 19,-
2025-03-07 13:42:09.484,989, 883, 614, 18, -31, 25, -14, 0, 1, 975, 924, 14,-
2025-03-07 13:42:09.539,660, 423, 568, 1, 2, 15, -16, 1, 2, 979, 949, 18,-
2025-03-07 13:42:09.587,719, 539, 398, 4, 1, 1, -16, 1, 1, 974, 937, 7,-
2025-03-07 13:42:09.642,747, 345, 453, -13, 16, -14, -15, 0, 0, 952, 874, 215,-
2025-03-07 13:42:09.697,637, 501, 595, -24, 17, -9, -14, 1, -1, 936, 786, 13,-
2025-03-07 13:42:09.756,644, 531, 551, 7, -10, 4, -13, 1, 0, 930, 784, 12,-
2025-03-07 13:42:10.137,442, 652, 516, 22, -41, -1, -11, -1, 1, 912, 688, 19,÷
2025-03-07 13:42:10.191,477, 695, 485, 22, -47, 5, -9, -3, -1, 913, 690, 19,÷
2025-03-07 13:42:10.247,689, 686, 323, -11, -10, 33, -12, 1, 1, 915, 708, 11,÷
2025-03-07 13:42:10.297,713, 513, 630, 0, 7, 49, -13, 0, 1, 927, 761, 14,÷
2025-03-07 13:42:10.358,709, 567, 376, -23, 16, 22, -12, 1, 0, 940, 844, 14,÷
2025-03-07 13:42:10.410,2426, -82, -444, -99, 3, -19, -14, 0, 1, 955, 902, 252,÷
2025-03-07 13:42:10.472,820, 436, 651, 3, -12, -12, -15, 1, -1, 967, 920, 129,÷
2025-03-07 13:42:10.526,601, 884, 214, -58, 35, 53, -13, 1, -1, 976, 924, 8,÷
2025-03-07 13:42:10.580,691, 301, 898, -28, 2, 19, -15, 3, -3, 972, 930, 12,÷
2025-03-07 13:42:10.637,817, 809, 259, 41, 9, 18, -17, 2, -1, 959, 893, 23,÷
2025-03-07 13:42:10.689,418, 589, 749, 4, 18, 29, -15, 3, -1, 962, 880, 13,÷
2025-03-07 13:42:10.742,738, 430, 226, -27, 5, -9, -15, 1, -2, 966, 906, 19,÷
2025-03-07 13:42:10.797,770, 341, 694, 13, -14, -8, -16, 1, -2, 973, 921, 23,÷
2025-03-07 13:42:10.858,606, 266, 505, -7, 17, 18, -14, 2, -2, 973, 921, 15,÷
2025-03-07 13:42:10.909,572, 528, 414, -10, 22, -48, -16, 1, -2, 965, 894, 16,÷
2025-03-07 13:42:10.967,608, 506, 585, 14, -46, -14, -15, 3, -2, 967, 891, 20,÷
2025-03-07 13:42:11.022,811, 528, 547, 8, -2, 11, -15, 2, 1, 979, 936, 16,÷
2025-03-07 13:42:11.077,585, 466, 515, 1, -5, 21, -16, 2, -2, 983, 952, 12,÷
2025-03-07 13:42:11.128,733, 457, 459, 14, 7, 6, -17, 2, -2, 973, 927, 9,÷
2025-03-07 13:42:11.182,781, 591, 459, -40, 67, -38, -14, 1, -2, 950, 866, 19,÷
2025-03-07 13:42:11.241,568, 413, 674, -9, 2, -12, -13, 3, -4, 939, 784, 19,÷
2025-03-07 13:42:11.615,692, 526, 508, -4, 0, 1, -14, 2, -3, 926, 780, 19,=
2025-03-07 13:42:11.667,689, 529, 517, -4, -1, 0, -14, 1, -2, 927, 784, 18,=
2025-03-07 13:42:11.722,697, 513, 541, -2, -3, 4, -15, 3, -2, 932, 780, 20,=
2025-03-07 13:42:11.774,714, 518, 505, 1, -5, 1, -16, 2, 0, 935, 784, 13,=
2025-03-07 13:42:11.827,700, 501, 510, -4, -1, -3, -15, 2, -2, 936, 790, 18,=
2025-03-07 13:42:11.885,846, 345, 402, -15, 5, -19, -14, 1, -3, 946, 828, 12,=
2025-03-07 13:42:11.941,770, 293, 408, 33, -1, -14, -16, 2, -3, 965, 910, 14,=
2025-03-07 13:42:11.997,485, 595, 516, 1, -3, 22, -15, 0, -2, 979, 943, 9,=
2025-03-07 13:42:12.047,541, 451, 404, 27, 20, 11, -15, 0, 0, 967, 911, 18,=
2025-03-07 13:42:12.107,813, 398, 505, -20, 4, -18, -16, 1, -1, 964, 879, 15,=
2025-03-07 13:42:12.156,838, 516, 317, -5, -9, 31, -17, 1, 1, 982, 944, 7,=
2025-03-07 13:42:12.207,729, 570, 519, 9, 13, 25, -16, 0, -2, 974, 930, 22,=
2025-03-07 13:42:12.267,712, 595, 233, -54, 85, -60, -15, 1, -1, 935, 785, 14,=
2025-03-07 13:42:12.327,530, 405, 793, -40, 39, -23, -13, 2, -5, 877, 530, 17,=
2025-03-07 13:42:12.386,568, 508, 749, 10, -10, -15, -11, 3, -6, 830, 371, 18,=
2025-03-07 13:42:12.897,683, 550, 551, -5, 2, -1, -14, 3, -1, 901, 697, 19,≠
2025-03-07 13:42:12.955,674, 544, 543, -7, 2, -1, -15, 1, -2, 903, 696, 14,≠
2025-03-07 13:42:13.007,696, 520, 540, -7, -3, 0, -13, 2, -2, 914, 733, 16,≠
2025-03-07 13:42:13.059,693, 533, 529, -12, 0, 2, -12, 2, -3, 925, 777, 13,≠
2025-03-07 13:42:13.110,674, 513, 557, 1, -1, 6, -14, 1, -3, 936, 836, 18,≠
2025-03-07 13:42:13.168,700, 530, 567, 25, -7, 16, -14, 2, -2, 951, 884, 10,≠
2025-03-07 13:42:13.225,672, 528, 497, 7, -1, 9, -15, 1, -2, 953, 904, 106,≠
2025-03-07 13:42:13.277,712, 537, 484, 7, -3, 5, -13, 1, -3, 954, 909, 124,≠
2025-03-07 13:42:13.327,704, 525, 505, 2, 3, 3, -16, 1, -3, 956, 912, 97,≠
2025-03-07 13:42:13.377,689, 521, 486, 3, 2, 5, -14, 1, -1, 956, 915, 56,≠
2025-03-07 13:42:13.427,698, 503, 508, 3, 0, 6, -17, 0, -3, 957, 915, 16,≠
2025-03-07 13:42:13.487,572, 484, 597, 4, -20, 0, -14, 1, -2, 958, 914, 14,≠
2025-03-07 13:42:13.541,750, 500, 477, -19, -16, -12, -15, 1, -2, 971, 932, 18,≠
2025-03-07 13:42:13.597,523, 578, 314, -1, 3, 29, -16, 1, -1, 978, 944, 14,≠
2025-03-07 13:42:13.655,633, 411, 448, 17, 14, -1, -16, 0, 0, 967, 921, 14,≠
2025-03-07 13:42:13.708,936, 28, 253, -27, 7, -32, -15, 1, 0, 963, 877, 13,≠
2025-03-07 13:42:13.757,769, 920, 461, -11, -14, 32, -15, 1, 0, 975, 936, 14,≠
2025-03-07 13:42:13.817,643, 396, 486, -1, 4, 21, -16, 1, -2, 971, 932, 18,≠
2025-03-07 13:42:13.872,554, 514, 593, -33, 38, -48, -16, 1, -1, 957, 909, 9,≠
2025-03-07 13:42:13.927,557, 555, 630, 19, -56, 22, -15, 2, -3, 966, 921, 13,≠
2025-03-07 13:42:13.977,680, 476, 540, 10, 1, 0, -16, 1, -1, 981, 934, 18,≠
2025-03-07 13:42:14.033,804, 496, 96, 3, 37, 33, -16, 1, 0, 978, 896, 13,≠
2025-03-07 13:42:14.093,1010, 110, 796, -7, 5, -25, -16, 2, -1, 959, 864, 18,≠
2025-03-07 13:42:14.141,496, 490, 842, -58, 59, -40, -14, 1, -4, 944, 870, 21,≠
2025-03-07 13:42:14.203,444, 504, 835, 4, -12, 3, -13, 2, -6, 939, 864, 17,≠
2025-03-07 13:42:15.216,699, 500, 532, -1, -1, 0, -15, 1, -2, 939, 812, 15,≈
2025-03-07 13:42:15.267,697, 494, 538, -1, -1, 1, -14, 4, -1, 939, 816, 23,≈
2025-03-07 13:42:15.322,712, 492, 510, 5, -2, 2, -13, 1, -4, 944, 834, 12,≈
2025-03-07 13:42:15.375,693, 492, 529, 0, -1, 2, -13, 3, -3, 947, 852, 20,≈
2025-03-07 13:42:15.427,686, 502, 535, 0, -2, 4, -14, 2, -2, 947, 864, 10,≈
2025-03-07 13:42:15.477,606, 452, 609, 5, -19, 5, -16, 4, -2, 956, 875, 11,≈
2025-03-07 13:42:15.532,752, 535, 510, -8, -2, -5, -15, 1, -3, 962, 901, 18,≈
2025-03-07 13:42:15.589,714, 507, 518, 1, 3, -1, -16, 1, -3, 963, 908, 21,≈
2025-03-07 13:42:15.647,561, 433, 458, 10, -6, -6, -15, 2, -1, 965, 928, 17,≈
2025-03-07 13:42:15.697,662, 401, 585, 21, -13, -11, -14, 3, -3, 972, 932, 26,≈
2025-03-07 13:42:15.756,778, 683, 476, 2, 11, 22, -16, 1, -1, 978, 930, 16,≈
2025-03-07 13:42:15.808,619, 457, 568, -23, 4, 19, -16, 1, -2, 978, 940, 23,≈
2025-03-07 13:42:15.863,704, 512, 405, -3, 2, 5, -15, 2, -3, 976, 944, 16,≈
2025-03-07 13:42:15.917,667, 488, 405, 12, -2, 0, -16, 1, -2, 969, 922, 14,≈
2025-03-07 13:42:15.973,676, 549, 604, -13, 33, -17, -15, 2, -2, 959, 852, 17,≈
2025-03-07 13:42:16.027,741, 507, 530, 13, 4, -6, -16, 3, -3, 956, 822, 11,≈
2025-03-07 13:42:16.083,1562, 195, 180, 3, 2, -13, -14, 2, -2, 961, 862, 11,≈
2025-03-07 13:42:16.137,722, 448, 437, -9, 6, 3, -16, 3, -1, 963, 893, 16,≈
2025-03-07 13:42:16.191,735, 549, 547, 5, -6, -2, -14, 0, -2, 967, 908, 15,≈
2025-03-07 13:42:16.240,703, 468, 618, 6, -7, -4, -16, 1, 0, 966, 908, 9,≈
2025-03-07 13:42:16.294,710, 525, 445, 0, 2, 0, -15, 0, 0, 968, 909, 17,≈
2025-03-07 13:42:16.347,714, 456, 560, 1, -1, -1, -16, 1, -1, 969, 919, 13,≈
2025-03-07 13:42:16.404,705, 482, 536, 4, -3, -3, -14, 3, -2, 969, 916, 10,≈
2025-03-07 13:42:16.457,718, 569, 397, -5, 4, 3, -17, 1, -1, 971, 912, 11,≈
2025-03-07 13:42:16.507,749, 460, 527, 5, -24, -3, -15, 1, -1, 972, 930, 13,≈
2025-03-07 13:42:16.557,644, 436, 380, 1, -4, -1, -15, 2, -1, 974, 937, 12,≈
2025-03-07 13:42:16.617,637, 393, 403, -6, 22, 35, -15, 2, -1, 978, 934, 20,≈
2025-03-07 13:42:16.674,682, 515, 344, -19, 12, 22, -17, 1, -2, 981, 941, 21,≈
2025-03-07 13:42:16.727,710, 389, 541, -1, -9, 0, -18, 0, -2, 978, 945, 27,≈
2025-03-07 13:42:16.788,983, 409, 116, -31, 64, -27, -16, 2, -3, 968, 926, 13,≈
2025-03-07 13:42:16.847,554, 447, 720, -45, 56, -15, -16, 2, -4, 953, 863, 13,≈
2025-03-07 13:42:18.217,702, 489, 526, -1, -4, -1, -15, 3, -2, 943, 841, 22,<
2025-03-07 13:42:18.271,709, 496, 536, 0, -4, -1, -15, 3, -2, 943, 847, 14,<
2025-03-07 13:42:18.329,706, 501, 548, 2, -2, 1, -15, 3, -3, 946, 861, 13,<
2025-03-07 13:42:18.377,697, 500, 526, 11, -6, 5, -14, 3, -4, 950, 880, 16,<
2025-03-07 13:42:18.432,722, 487, 508, 3, -3, 0, -17, 1, -3, 953, 891, 20,<
2025-03-07 13:42:18.482,685, 487, 535, 2, -5, 1, -15, 3, -4, 955, 902, 3,<
2025-03-07 13:42:18.540,712, 467, 482, 0, -17, 5, -15, 2, -2, 960, 912, 15,<
2025-03-07 13:42:18.590,701, 543, 521, -11, -5, -1, -16, 1, -2, 969, 929, 7,<
2025-03-07 13:42:18.647,476, 438, 501, 29, 11, -5, -17, 0, -1, 976, 919, 19,<
2025-03-07 13:42:18.705,795, 539, 344, 0, -2, -7, -15, 1, -3, 978, 901, 16,<
2025-03-07 13:42:18.757,565, 403, 304, -45, 7, 56, -15, 2, -1, 982, 940, 14,<
2025-03-07 13:42:18.807,728, 450, 548, -4, 6, 13, -17, 2, -2, 976, 927, 18,<
2025-03-07 13:42:18.869,851, 520, 267, -55, 58, -57, -16, 2, -3, 944, 804, 13,<
2025-03-07 13:42:18.922,608, 402, 698, -26, 16, -16, -15, 4, -5, 922, 726, 14,<
2025-03-07 13:42:18.982,658, 483, 682, 17, -16, -5, -13, 3, -6, 909, 698, 17,<
2025-03-07 13:42:19.481,681, 514, 558, 4, -3, 5, -16, 2, -1, 945, 883, 11,≤
2025-03-07 13:42:19.537,701, 501, 559, 6, -6, 6, -14, 1, -2, 946, 883, 16,≤
2025-03-07 13:42:19.589,703, 494, 495, 2, -4, 3, -15, 1, -1, 948, 889, 19,≤
2025-03-07 13:42:19.647,743, 503, 471, -3, -2, 1, -16, 2, -2, 950, 894, 11,≤
2025-03-07 13:42:19.697,702, 496, 512, -3, 1, 2, -14, 3, -2, 952, 906, 9,≤
2025-03-07 13:42:19.747,710, 502, 486, -3, -7, -1, -15, 2, -2, 957, 911, 9,≤
2025-03-07 13:42:19.807,1192, 331, 312, -7, -4, -6, -16, 0, -2, 963, 928, 10,≤
2025-03-07 13:42:19.857,714, 479, 547, -9, -10, -4, -16, 2, -3, 972, 941, 13,≤
2025-03-07 13:42:19.922,710, 492, 516, 21, 10, -11, -17, 1, -1, 978, 930, 13,≤
2025-03-07 13:42:19.973,827, 463, 347, -7, 10, 2, -15, 2, -1, 978, 912, 16,≤
2025-03-07 13:42:20.027,675, 365, 634, -7, 4, 22, -16, 2, -2, 983, 937, 9,≤
2025-03-07 13:42:20.082,729, 377, 580, 15, 3, 6, -17, 2, -2, 975, 928, 18,≤
2025-03-07 13:42:20.132,773, 350, 598, -37, 72, -16, -17, 2, -1, 960, 806, 4,≤
2025-03-07 13:42:20.189,846, -631, -88, -8, -3, -23, -16, 1, -3, 962, 823, 11,≤
2025-03-07 13:42:20.247,545, 435, 500, -7, -19, 34, -18, 2, -2, 980, 943, 22,≤
2025-03-07 13:42:20.303,738, 445, 521, 5, 6, 8, -18, 3, -2, 975, 939, 14,≤
2025-03-07 13:42:20.357,1076, 443, 264, -4, 30, -52, -17, 3, -1, 942, 842, 19,≤
2025-03-07 13:42:20.417,572, 380, 750, -42, 38, -20, -14, 1, -2, 914, 639, 22,≤
2025-03-07 13:42:20.823,719, 525, 541, 2, -5, 2, -15, 1, -2, 935, 868, 17,>
2025-03-07 13:42:20.872,697, 531, 534, -1, -6, 2, -16, 1, -3, 936, 871, 6,>
2025-03-07 13:42:20.923,694, 508, 523, 1, -3, 2, -15, 0, -2, 943, 889, 13,>
2025-03-07 13:42:20.977,715, 499, 512, 5, -8, 2, -15, 2, -2, 947, 900, 16,>
2025-03-07 13:42:21.032,711, 509, 500, 1, -2, 1, -17, 2, -1, 950, 904, 7,>
2025-03-07 13:42:21.080,695, 493, 504, -2, -2, -1, -17, 1, -2, 951, 906, 12,>
2025-03-07 13:42:21.142,628, 483, 564, -4, -4, -3, -15, 2, -2, 952, 900, 14,>
2025-03-07 13:42:21.197,713, 714, 473, -16, -10, -11, -15, 2, 0, 959, 908, 19,>
2025-03-07 13:42:21.253,789, 707, 380, 0, -5, 46, -15, 1, -2, 974, 938, 20,>
2025-03-07 13:42:21.306,626, 550, 646, 15, 4, 14, -17, 2, -1, 980, 939, 15,>
2025-03-07 13:42:21.357,831, 233, 423, 1, 21, 1, -17, 3, -1, 978, 923, 17,>
2025-03-07 13:42:21.417,894, 523, 639, -2, 18, 10, -16, -1, -3, 967, 903, 11,>
2025-03-07 13:42:21.472,596, 471, 676, -17, 30, -14, -15, 1, -1, 960, 895, 18,>
2025-03-07 13:42:21.527,662, 493, 550, 3, -2, -4, -15, 1, -2, 957, 885, 18,>
2025-03-07 13:42:21.581,748, 495, 457, -3, 3, 1, -16, 2, -2, 953, 870, 13,>
2025-03-07 13:42:21.972,704, 459, 517, 2, -10, 2, -17, 2, -2, 956, 906, 21,≥
2025-03-07 13:42:22.028,713, 475, 511, 0, -11, 1, -18, 1, -2, 957, 905, 15,≥
2025-03-07 13:42:22.082,725, 473, 499, -3, -4, -4, -15, 3, -2, 957, 911, 12,≥
2025-03-07 13:42:22.138,717, 483, 507, -5, -2, -4, -16, 1, 0, 957, 915, 11,≥
2025-03-07 13:42:22.189,733, 488, 486, -5, -4, -7, -16, 2, 0, 955, 920, 12,≥
2025-03-07 13:42:22.239,706, 491, 522, -8, 0, -3, -17, 2, -2, 957, 916, 19,≥
2025-03-07 13:42:22.297,599, 480, 662, 5, -29, 6, -18, 3, -1, 961, 919, 12,≥
2025-03-07 13:42:22.355,897, 685, 608, 24, -12, 5, -16, 2, 0, 971, 938, 18,≥
2025-03-07 13:42:22.404,636, 444, 553, 6, 2, 7, -18, 2, -2, 974, 943, 14,≥
2025-03-07 13:42:22.457,482, 455, 389, 18, 17, 15, -17, 2, 1, 976, 939, 16,≥
2025-03-07 13:42:22.507,805, 649, 313, 2, 36, 24, -17, 2, -3, 972, 923, 10,≥
2025-03-07 13:42:22.571,486, 517, 485, -25, 70, -16, -16, 0, -1, 962, 899, 20,≥
2025-03-07 13:42:22.622,574, 511, 685, 35, -74, 25, -16, 2, -1, 966, 903, 22,≥
2025-03-07 13:42:22.680,914, 782, 320, -8, -29, 28, -17, 2, -1, 980, 951, 9,≥
2025-03-07 13:42:22.731,669, 344, 391, 1, -3, 21, -18, 2, 1, 979, 945, 19,≥
2025-03-07 13:42:22.788,1014, 131, 100, -10, 50, -46, -18, 2, 0, 964, 918, 9,≥
2025-03-07 13:42:22.847,615, 491, 1001, -37, 40, -26, -15, 1, -5, 947, 851, 22,≥
2025-03-07 13:42:22.903,631, 517, 718, 8, -13, -9, -14, 1, -4, 930, 826, 17,≥
2025-03-07 13:42:22.959,769, 438, 506, 4, -11, -8, -14, 4, -3, 920, 799, 11,≥
2025-03-07 13:42:24.424,696, 510, 511, -1, -3, -1, -14, 2, -1, 942, 854, 18,±
2025-03-07 13:42:24.477,700, 519, 509, -1, -3, 0, -17, 2, -2, 942, 858, 19,±
2025-03-07 13:42:24.527,720, 509, 494, 1, -3, -2, -14, 0, 0, 944, 865, 4,±
2025-03-07 13:42:24.581,700, 512, 530, -2, 1, 0, -16, 1, -2, 945, 874, 19,±
2025-03-07 13:42:24.637,712, 506, 491, 0, -2, -2, -15, 1, -1, 946, 875, 19,±
2025-03-07 13:42:24.689,700, 503, 506, -3, 1, 0, -16, 2, -1, 947, 875, 6,±
2025-03-07 13:42:24.740,697, 503, 505, -1, -1, 0, -14, 0, -2, 948, 874, 15,±
2025-03-07 13:42:24.790,691, 506, 498, 2, 1, -2, -15, 0, 0, 949, 877, 4,±
2025-03-07 13:42:24.839,695, 506, 491, 4, 0, -4, -14, 1, -1, 947, 861, 14,±
2025-03-07 13:42:24.897,707, 529, 520, -3, 6, -9, -16, 0, -2, 938, 840, 14,±
2025-03-07 13:42:24.952,674, 529, 491, 7, 5, -3, -14, 3, -1, 936, 823, 9,±
2025-03-07 13:42:25.005,650, 516, 508, 1, 2, -4, -15, 1, -1, 934, 808, 17,±
2025-03-07 13:42:25.060,835, 402, 525, 54, -10, -16, -14, 1, -1, 965, 904, 16,±
2025-03-07 13:42:25.108,471, 472, 299, -3, -5, 28, -15, 0, 2, 976, 940, 205,±
2025-03-07 13:42:25.171,670, 401, 533, -5, -2, -6, -15, 1, 1, 963, 916, 217,±
2025-03-07 13:42:25.227,761, 556, 745, -37, 2, -19, -16, 0, 0, 960, 904, 301,±
2025-03-07 13:42:25.280,555, 952, 188, -2, 15, 34, -14, 0, -1, 979, 914, 16,±
2025-03-07 13:42:25.339,616, 416, 451, -9, 30, 28, -15, 1, -1, 969, 875, 16,±
2025-03-07 13:42:25.388,514, 498, 554, -11, 33, -26, -14, 1, 0, 948, 728, 9,±
2025-03-07 13:42:25.447,737, 329, 360, 28, -10, -15, -13, 0, 0, 963, 871, 16,±
2025-03-07 13:42:25.504,686, 519, 461, -20, -6, 37, -16, 0, 0, 979, 939, 10,±
2025-03-07 13:42:25.557,670, 464, 567, 12, 3, 6, -15, 1, 0, 961, 904, 141,±
2025-03-07 13:42:25.613,700, 540, 456, -54, 75, -39, -15, 2, -1, 921, 761, 137,±
2025-03-07 13:42:26.013,667, 495, 535, -3, -4, -2, -12, 2, -2, 926, 808, 15,∓
2025-03-07 13:42:26.070,681, 505, 535, -1, -4, -1, -14, 2, -1, 926, 819, 10,∓
2025-03-07 13:42:26.120,679, 523, 516, 0, -2, 2, -14, 0, -2, 931, 825, 15,∓
2025-03-07 13:42:26.177,700, 528, 493, -6, 0, -1, -14, 3, -1, 934, 834, 20,∓
2025-03-07 13:42:26.227,685, 499, 538, -8, 1, -2, -14, 3, -1, 935, 827, 16,∓
2025-03-07 13:42:26.281,689, 521, 517, -8, 2, -7, -14, 1, -2, 933, 811, 19,∓
2025-03-07 13:42:26.336,666, 509, 555, -5, -1, -4, -14, 2, -2, 931, 800, 11,∓
2025-03-07 13:42:26.391,786, 558, 528, 13, 1, -26, -14, 1, -3, 946, 828, 7,∓
2025-03-07 13:42:26.447,1028, 873, 700, 59, -27, 16, -15, 1, 0, 971, 914, 21,∓
2025-03-07 13:42:26.503,520, 512, 474, -3, -3, 19, -15, 0, 1, 982, 945, 15,∓
2025-03-07 13:42:26.557,710, 549, 500, 12, 2, 3, -15, 1, -1, 962, 914, 11,∓
2025-03-07 13:42:26.610,770, 558, 542, -22, 42, -27, -15, 2, -1, 937, 828, 8,∓
2025-03-07 13:42:26.668,619, 485, 609, -14, 11, -6, -15, 1, -2, 932, 749, 15,∓
2025-03-07 13:42:26.721,689, 485, 496, 17, -4, 9, -15, 1, -1, 934, 754, 20,∓
2025-03-07 13:42:26.771,691, 641, 515, 21, 4, -18, -15, 2, -2, 946, 808, 5,∓
2025-03-07 13:42:26.830,1019, 699, 599, 69, -14, 4, -14, 1, -1, 967, 902, 13,∓
2025-03-07 13:42:26.885,644, 503, 490, 4, 4, 18, -16, 0, 0, 968, 925, 13,∓
2025-03-07 13:42:26.937,745, 306, 342, -8, -3, -44, -16, 0, 0, 945, 882, 269,∓
2025-03-07 13:42:26.997,3190, -55, 126, -28, -16, -10, -15, -1, -1, 959, 891, 13,∓
2025-03-07 13:42:27.057,946, 511, 268, -7, 30, 40, -14, 1, -2, 978, 883, 16,∓
2025-03-07 13:42:27.107,754, 634, 421, -22, 33, 24, -16, 1, -1, 951, 717, 12,∓
2025-03-07 13:42:27.167,689, 515, 462, -37, 76, -48, -15, 1, -3, 861, 616, 12,∓
2025-03-07 13:42:27.221,497, 458, 733, -25, 22, -18, -12, 2, -5, 826, 597, 16,∓
2025-03-07 13:42:27.277,593, 501, 695, 3, -22, 2, -12, 1, -5, 818, 578, 14,∓
2025-03-07 13:42:28.576,703, 495, 519, 0, -1, 1, -15, 2, -2, 942, 821, 10,∞
2025-03-07 13:42:28.624,686, 508, 536, 1, -1, 1, -14, 2, -1, 941, 824, 11,∞
2025-03-07 13:42:28.680,689, 505, 518, 10, -3, 6, -16, 2, -2, 944, 845, 13,∞
2025-03-07 13:42:28.728,701, 494, 498, 4, 0, 4, -15, 0, -2, 944, 856, 7,∞
2025-03-07 13:42:28.788,701, 500, 520, -2, 2, 1, -15, 3, -2, 946, 862, 18,∞
2025-03-07 13:42:28.837,695, 513, 516, 3, -1, 4, -16, 1, -2, 945, 865, 20,∞
2025-03-07 13:42:28.887,699, 500, 517, -2, -1, 1, -14, 2, -1, 948, 865, 10,∞
2025-03-07 13:42:28.937,708, 493, 522, 0, -2, 2, -15, 1, -2, 949, 870, 20,∞
2025-03-07 13:42:28.997,716, 487, 524, -3, -3, -1, -15, 0, 1, 949, 876, 9,∞
2025-03-07 13:42:29.052,705, 500, 528, 0, -2, -1, -16, 2, -2, 949, 878, 15,∞
2025-03-07 13:42:29.104,730, 511, 487, -4, 4, -3, -14, 2, -2, 950, 876, 8,∞
2025-03-07 13:42:29.157,679, 490, 543, -6, 3, -5, -16, 2, -1, 949, 876, 9,∞
2025-03-07 13:42:29.207,682, 480, 571, 2, -2, 0, -14, 3, -3, 950, 879, 22,∞
2025-03-07 13:42:29.258,709, 492, 516, 0, -2, -1, -15, 1, -2, 949, 879, 11,∞
2025-03-07 13:42:29.318,680, 480, 560, 2, -3, 1, -15, 0, -3, 951, 883, 13,∞
2025-03-07 13:42:29.370,621, 505, 665, 20, -24, 20, -16, 0, -2, 955, 896, 7,∞
2025-03-07 13:42:29.424,572, 485, 641, 5, 4, 1, -17, 1, -1, 970, 908, 10,∞
2025-03-07 13:42:29.481,716, 693, 327, -18, 11, 9, -14, 2, 0, 975, 900, 12,∞
2025-03-07 13:42:29.535,1171, 226, 666, 1, 6, -33, -16, 2, -1, 957, 874, 10,∞
2025-03-07 13:42:29.587,808, 502, 815, 16, -21, -3, -15, 2, -2, 973, 907, 17,∞
2025-03-07 13:42:29.637,686, 781, 397, 2, 3, 21, -15, 1, -2, 982, 930, 15,∞
2025-03-07 13:42:29.697,589, 244, 651, -3, -7, -10, -16, 1, -1, 970, 931, 19,∞
2025-03-07 13:42:29.752,725, 509, 585, -4, -5, -17, -15, 1, 0, 966, 912, 7,∞
2025-03-07 13:42:29.807,473, 637, 404, -36, 33, 47, -15, 1, -1, 979, 898, 7,∞
2025-03-07 13:42:29.867,740, 461, 299, -46, 33, 19, -16, 1, -2, 962, 784, 14,∞
2025-03-07 13:42:29.919,742, 608, 314, -27, 67, -40, -17, 2, -2, 928, 741, 6,∞
2025-03-07 13:42:29.977,483, 504, 702, -16, 28, -18, -13, 3, -4, 900, 736, 22,∞
2025-03-07 13:42:30.492,682, 489, 535, 1, -2, 0, -15, 0, -3, 925, 785, 16,∑
2025-03-07 13:42:30.537,702, 500, 524, 0, -3, 0, -15, 3, -3, 925, 787, 7,∑
2025-03-07 13:42:30.597,712, 516, 506, -3, -3, 0, -15, 1, -3, 927, 802, 18,∑
2025-03-07 13:42:30.653,687, 491, 538, 0, -4, 1, -15, 1, -3, 932, 817, 14,∑
2025-03-07 13:42:30.705,706, 494, 526, -2, -3, -2, -15, 2, -1, 936, 829, 17,∑
2025-03-07 13:42:30.757,704, 503, 540, -3, -1, -1, -15, 2, -2, 937, 845, 10,∑
2025-03-07 13:42:30.818,703, 510, 522, -2, -2, -1, -17, 2, -2, 939, 853, 14,∑
2025-03-07 13:42:30.870,700, 509, 521, 0, -2, 0, -16, 2, -1, 939, 859, 6,∑
2025-03-07 13:42:30.923,714, 500, 505, -3, -2, -1, -15, 2, 0, 942, 867, 13,∑
2025-03-07 13:42:30.977,703, 496, 521, -1, -4, 0, -14, 1, -2, 944, 870, 16,∑
2025-03-07 13:42:31.030,688, 496, 543, -3, -1, 0, -17, 2, -3, 944, 872, 16,∑
2025-03-07 13:42:31.078,717, 504, 489, -5, 4, -3, -15, 1, -2, 945, 874, 18,∑
2025-03-07 13:42:31.136,675, 490, 540, 0, 4, -1, -14, 1, -2, 944, 847, 17,∑
2025-03-07 13:42:31.188,627, 503, 517, 4, -4, -4, -14, 1, -2, 946, 825, 17,∑
2025-03-07 13:42:31.247,881, 425, 469, 12, -8, -12, -16, 2, -1, 962, 893, 11,∑
2025-03-07 13:42:31.302,335, 386, 387, -26, -17, 46, -16, 1, 0, 979, 944, 12,∑
2025-03-07 13:42:31.357,649, 446, 548, 15, -2, 6, -17, 3, 0, 971, 933, 16,∑
2025-03-07 13:42:31.407,614, 583, 436, -30, 45, -59, -17, 2, -1, 950, 877, 9,∑
2025-03-07 13:42:31.468,698, 102, 274, 46, -3, -21, -13, 1, -1, 961, 900, 10,∑
2025-03-07 13:42:31.520,810, 410, 411, 8, 4, 16, -15, 1, 1, 976, 925, 12,∑
2025-03-07 13:42:31.569,665, 433, 413, 3, 1, 34, -15, 0, 0, 978, 939, 14,∑
2025-03-07 13:42:31.627,706, 510, 475, -1, -1, 3, -17, 0, 1, 976, 930, 20,∑
2025-03-07 13:42:31.679,528, 433, 519, -28, 15, -14, -15, 0, 1, 967, 882, 13,∑
2025-03-07 13:42:31.734,727, 495, 495, 6, -4, -5, -15, 2, 1, 967, 866, 17,∑
2025-03-07 13:42:31.787,786, 555, 535, -2, -19, 43, -16, 1, 0, 979, 935, 16,∑
2025-03-07 13:42:31.837,645, 456, 465, -8, 0, 13, -16, 0, 1, 981, 944, 21,∑
2025-03-07 13:42:31.897,625, 276, 513, 3, 10, -16, -16, 2, -2, 958, 886, 20,∑
2025-03-07 13:42:31.953,693, 570, 618, -41, 49, -12, -16, 2, -2, 933, 776, 19,∑
2025-03-07 13:42:32.007,571, 515, 724, -6, 4, -2, -14, 2, -4, 913, 694, 24,∑
2025-03-07 13:42:32.417,692, 496, 537, -4, -1, 1, -16, 0, -2, 916, 757, 11,∏
2025-03-07 13:42:32.471,684, 503, 536, -4, -2, 1, -15, 0, -2, 918, 760, 10,∏
2025-03-07 13:42:32.519,695, 497, 538, 0, -6, 1, -15, 2, -1, 923, 777, 8,∏
2025-03-07 13:42:32.577,724, 502, 517, 2, -5, 1, -15, 1, -3, 926, 789, 17,∏
2025-03-07 13:42:32.627,712, 505, 515, 1, -5, 1, -14, 0, -3, 928, 801, 12,∏
2025-03-07 13:42:32.684,724, 502, 502, -1, -4, 0, -16, 1, -1, 930, 834, 15,∏
2025-03-07 13:42:32.737,708, 502, 520, -1, -2, -1, -15, 2, -1, 933, 851, 21,∏
2025-03-07 13:42:32.790,722, 503, 494, 0, -1, -2, -14, 1, 0, 933, 857, 14,∏
2025-03-07 13:42:32.847,706, 500, 506, -3, 0, -1, -14, 0, -1, 934, 851, 18,∏
2025-03-07 13:42:32.901,713, 496, 513, -2, -1, -2, -15, 1, -1, 937, 854, 23,∏
2025-03-07 13:42:32.953,712, 500, 515, -4, 1, -2, -15, 1, -1, 935, 851, 16,∏
2025-03-07 13:42:33.007,700, 492, 506, -5, -1, -5, -15, 2, 1, 935, 839, 15,∏
2025-03-07 13:42:33.059,604, 331, 249, -29, -3, -20, -16, 0, -3, 946, 838, 13,∏
2025-03-07 13:42:33.120,928, 301, 559, 72, -18, -7, -16, 0, -2, 969, 923, 14,∏
2025-03-07 13:42:33.177,864, 472, 357, -8, 5, 48, -16, 2, 0, 979, 949, 15,∏
2025-03-07 13:42:33.228,668, 421, 580, 11, 4, 3, -17, 2, 0, 965, 927, 10,∏
2025-03-07 13:42:33.287,706, 502, 414, -16, 46, -55, -17, 0, -1, 932, 867, 9,∏
2025-03-07 13:42:33.337,853, 554, 534, 16, -4, -12, -17, 1, 0, 956, 897, 14,∏
2025-03-07 13:42:33.387,472, 372, 408, -9, 28, 38, -16, 2, -1, 972, 906, 11,∏
2025-03-07 13:42:33.450,765, 354, 600, 13, 21, 15, -15, 2, -1, 958, 864, 13,∏
2025-03-07 13:42:33.507,684, 509, 418, 2, -12, -30, -15, 3, -1, 945, 882, 18,∏
2025-03-07 13:42:33.557,634, 804, 546, -23, -4, -4, -16, 0, -1, 962, 925, 11,∏
2025-03-07 13:42:33.618,685, 705, 466, -33, 10, 57, -15, 1, 1, 979, 930, 18,∏
2025-03-07 13:42:33.669,732, 716, 267, -17, 28, 29, -17, 3, -3, 974, 875, 9,∏
2025-03-07 13:42:33.728,947, 446, 287, -7, 63, -60, -16, 3, -3, 944, 800, 11,∏
2025-03-07 13:42:33.786,507, 447, 802, -34, 38, -27, -13, 4, -5, 899, 764, 14,∏
2025-03-07 13:42:33.837,585, 456, 809, 0, -16, -3, -14, 4, -5, 874, 708, 13,∏
2025-03-07 13:42:34.467,695, 482, 549, 3, -5, 0, -14, 2, -1, 905, 715, 3,√
2025-03-07 13:42:34.519,695, 486, 549, 3, -5, 0, -14, 2, -1, 905, 718, 9,√
2025-03-07 13:42:34.569,703, 480, 546, 1, -2, 0, -15, 3, -3, 905, 737, 19,√
2025-03-07 13:42:34.626,721, 480, 525, -1, -2, 0, -15, 3, -4, 908, 745, 18,√
2025-03-07 13:42:34.679,700, 482, 545, 0, -1, -1, -15, 3, -2, 910, 754, 12,√
2025-03-07 13:42:34.733,702, 490, 538, 1, -1, -2, -14, 2, -1, 908, 756, 9,√
2025-03-07 13:42:34.785,691, 501, 541, 3, 0, -3, -15, 3, -2, 906, 746, 23,√
2025-03-07 13:42:34.837,708, 488, 536, 0, -3, -3, -16, 3, -2, 904, 733, 6,√
2025-03-07 13:42:34.887,711, 494, 528, -1, 0, -1, -16, 2, -4, 905, 733, 12,√
2025-03-07 13:42:34.941,691, 491, 530, 4, 1, -5, -16, 1, -3, 905, 730, 4,√
2025-03-07 13:42:34.997,719, 503, 541, 2, -2, 0, -14, 2, -1, 908, 753, 13,√
2025-03-07 13:42:35.047,664, 491, 561, 2, 2, -1, -16, 0, -3, 913, 776, 15,√
2025-03-07 13:42:35.102,701, 481, 513, -3, 1, -2, -16, 1, -2, 914, 768, 10,√
2025-03-07 13:42:35.157,708, 487, 510, -4, 10, 1, -14, 3, 1, 920, 739, 16,√
2025-03-07 13:42:35.207,675, 511, 540, -2, 10, 2, -15, 1, -3, 920, 679, 12,√
2025-03-07 13:42:35.257,705, 514, 549, 7, 7, -1, -15, 1, -3, 913, 637, 17,√
2025-03-07 13:42:35.318,734, 533, 531, 2, -5, -6, -14, 3, -2, 918, 720, 6,√
2025-03-07 13:42:35.371,500, 482, 577, 9, -17, 5, -15, 2, -3, 928, 762, 11,√
2025-03-07 13:42:35.427,757, 423, 388, 43, -1, -12, -14, 1, -2, 954, 875, 10,√
2025-03-07 13:42:35.478,560, 408, 516, 16, -2, 19, -15, 1, 0, 967, 922, 73,√
2025-03-07 13:42:35.535,789, 958, 552, -18, 23, 24, -14, 1, 1, 976, 911, 16,√
2025-03-07 13:42:35.587,732, 600, 330, -25, 12, 13, -17, 1, 0, 973, 903, 18,√
2025-03-07 13:42:35.649,964, 194, 386, -9, -51, -55, -17, 0, -1, 970, 940, 15,√
2025-03-07 13:42:35.703,634, 493, 510, 19, -20, -6, -17, 0, 0, 976, 950, 11,√
2025-03-07 13:42:35.757,862, 632, 210, 2, 10, 27, -15, 1, 1, 980, 948, 11,√
2025-03-07 13:42:35.807,849, 133, 353, 5, 27, -29, -15, 1, 1, 965, 929, 18,√
2025-03-07 13:42:35.867,664, 579, 748, -26, 46, -24, -15, 1, -1, 943, 876, 20,√
2025-03-07 13:42:35.920,654, 572, 536, 6, -2, 6, -14, 0, -1, 934, 821, 18,√
2025-03-07 13:42:36.347,688, 524, 519, -2, -5, -4, -15, 1, -2, 907, 759, 14,∛
2025-03-07 13:42:36.408,686, 522, 508, -1, -5, -5, -14, -1, -1, 910, 759, 13,∛
2025-03-07 13:42:36.457,665, 520, 554, -2, 0, -1, -14, 0, -1, 910, 774, 18,∛
2025-03-07 13:42:36.518,696, 536, 493, -6, -1, -3, -12, 2, -1, 911, 782, 20,∛
2025-03-07 13:42:36.569,659, 536, 535, -3, 0, -2, -14, 2, -3, 913, 790, 10,∛
2025-03-07 13:42:36.619,618, 542, 492, 4, -11, -3, -14, 1, -4, 918, 796, 148,∛
2025-03-07 13:42:36.682,794, 490, 400, 9, 1, -3, -14, 0, -2, 949, 886, 204,∛
2025-03-07 13:42:36.736,612, 490, 668, 35, -9, 16, -12, 1, 2, 964, 910, 364,∛
2025-03-07 13:42:36.787,748, 680, 360, -3, 22, 39, -15, 1, 0, 970, 902, 19,∛
2025-03-07 13:42:36.840,716, 363, 667, -45, 6, 7, -15, 1, 0, 964, 908, 21,∛
2025-03-07 13:42:36.903,493, 591, 338, -3, -50, -48, -15, -1, -3, 961, 931, 202,∛
2025-03-07 13:42:36.957,723, 628, 49, 16, -14, 16, -17, 0, -1, 977, 942, 274,∛
2025-03-07 13:42:37.007,711, 567, 610, 9, 0, 6, -15, 0, 1, 973, 935, 353,∛
2025-03-07 13:42:37.067,810, 436, 478, -3, 37, -34, -16, -1, 0, 951, 899, 399,∛
2025-03-07 13:42:37.119,587, 626, 577, -10, 17, -31, -13, -1, 0, 937, 831, 276,∛
2025-03-07 13:42:37.182,945, 280, 25, 46, -2, -24, -14, 0, -1, 953, 893, 505,∛
2025-03-07 13:42:37.238,603, 464, 597, -9, -13, 10, -14, 0, 2, 969, 927, 483,∛
2025-03-07 13:42:37.287,616, 464, 337, -10, 16, 1, -13, 0, 2, 966, 904, 387,∛
2025-03-07 13:42:37.350,848, 766, 379, -8, 12, 19, -12, 0, 1, 975, 918, 239,∛
2025-03-07 13:42:37.403,681, 455, 536, -8, 10, 15, -14, 0, 0, 970, 925, 171,∛
2025-03-07 13:42:37.457,649, 625, 643, -55, 75, -35, -12, 3, -3, 957, 904, 376,∛
2025-03-07 13:42:37.518,508, 519, 749, -18, 21, -21, -11, 2, -4, 947, 899, 389,∛
2025-03-07 13:42:37.570,597, 530, 665, 8, -11, -35, -10, 1, -5, 911, 876, 460,∛
2025-03-07 13:42:37.969,742, 547, 398, -2, 2, -6, -13, 2, -1, 915, 765, 10,∜
2025-03-07 13:42:38.021,713, 601, 426, -3, 5, -6, -12, -1, -2, 913, 767, 18,∜
2025-03-07 13:42:38.077,639, 542, 530, -3, 5, 0, -13, 1, -2, 915, 762, 84,∜
2025-03-07 13:42:38.128,637, 585, 490, 2, 4, 2, -14, 1, 0, 909, 758, 135,∜
2025-03-07 13:42:38.185,661, 507, 550, 15, -20, 6, -12, 0, -1, 912, 779, 167,∜
2025-03-07 13:42:38.239,787, 653, 576, 32, -2, 2, -13, 0, -2, 949, 882, 279,∜
2025-03-07 13:42:38.287,544, 386, 749, 17, -8, 3, -13, 0, -1, 962, 905, 417,∜
2025-03-07 13:42:38.347,819, 627, 317, -13, 17, 22, -14, 0, 0, 970, 887, 13,∜
2025-03-07 13:42:38.407,591, 646, 385, -62, 10, 19, -14, 2, -2, 964, 901, 13,∜
2025-03-07 13:42:38.457,896, 596, 498, -4, -60, -55, -13, 1, -1, 954, 926, 12,∜
2025-03-07 13:42:38.517,767, 564, 523, 5, -31, 5, -14, 3, 1, 975, 945, 10,∜
2025-03-07 13:42:38.571,620, 490, 483, -4, 3, 22, -16, 1, -1, 977, 950, 13,∜
2025-03-07 13:42:38.627,768, 301, 317, 18, 38, -39, -16, 0, 0, 960, 926, 16,∜
2025-03-07 13:42:38.685,610, 652, 597, -22, 15, -28, -13, -1, -1, 948, 841, 10,∜
2025-03-07 13:42:38.737,615, 619, 642, 40, -49, 19, -12, 0, 0, 953, 880, 438,∜
2025-03-07 13:42:38.787,773, 728, 515, 2, -9, 6, -11, 0, 2, 967, 925, 532,∜
2025-03-07 13:42:38.850,563, 569, 555, 5, -5, 2, -12, -1, -1, 969, 924, 513,∜
2025-03-07 13:42:38.901,768, 526, 391, -1, 1, -3, -15, 0, -1, 967, 920, 484,∜
2025-03-07 13:42:38.952,607, 644, 501, -22, 9, 15, -14, 1, 0, 973, 923, 21,∜
2025-03-07 13:42:39.007,654, 588, 334, -14, 17, 9, -12, 0, -1, 968, 902, 10,∜
2025-03-07 13:42:39.068,1077, 525, 209, -41, 68, -38, -12, 0, -3, 919, 831, 386,∜
2025-03-07 13:42:39.131,424, 485, 846, -48, 38, -11, -11, 2, -5, 906, 766, 124,∜
2025-03-07 13:42:39.184,471, 530, 726, 17, -27, 14, -10, 1, -5, 903, 752, 11,∜
2025-03-07 13:42:40.064,666, 545, 520, -3, 0, 2, -14, 1, 0, 937, 796, 10,∫
2025-03-07 13:42:40.118,665, 530, 524, -2, 0, 2, -14, 1, -4, 936, 797, 13,∫
2025-03-07 13:42:40.167,717, 550, 488, 1, -2, 3, -13, 1, -1, 941, 809, 17,∫
2025-03-07 13:42:40.217,699, 547, 527, 0, -3, 2, -14, 0, -2, 944, 831, 10,∫
2025-03-07 13:42:40.277,683, 544, 519, 4, -8, 5, -15, 0, -3, 948, 859, 11,∫
2025-03-07 13:42:40.332,698, 523, 502, -1, -1, 4, -15, 1, -3, 951, 869, 20,∫
2025-03-07 13:42:40.385,715, 528, 467, -4, -1, -2, -15, 1, -1, 954, 872, 18,∫
2025-03-07 13:42:40.437,723, 533, 486, 5, -14, 6, -16, 0, -2, 955, 884, 15,∫
2025-03-07 13:42:40.487,884, 445, 307, -21, -4, -4, -14, 3, -2, 959, 904, 14,∫
2025-03-07 13:42:40.551,571, 308, 548, 6, -7, -15, -15, 2, -1, 968, 918, 11,∫
2025-03-07 13:42:40.601,813, 390, 387, 44, 3, -8, -16, 0, -1, 976, 912, 20,∫
2025-03-07 13:42:40.657,686, 619, 573, 0, 31, 31, -15, 1, 0, 980, 918, 19,∫
2025-03-07 13:42:40.707,693, 564, 350, -21, 24, 15, -15, 2, -1, 975, 892, 16,∫
2025-03-07 13:42:40.767,1186, 311, 457, 4, 28, -7, -14, 1, -2, 938, 705, 13,∫
2025-03-07 13:42:40.827,537, 465, 747, -36, 55, -37, -15, 1, -4, 923, 735, 12,∫
2025-03-07 13:42:40.884,380, 542, 713, 17, -27, -9, -12, 2, -6, 928, 792, 13,∫
2025-03-07 13:42:41.187,640, 513, 594, -1, -4, 7, -15, 0, -3, 941, 811, 11,∮
2025-03-07 13:42:41.244,649, 493, 585, 4, -7, 7, -15, 2, -3, 944, 818, 15,∮
2025-03-07 13:42:41.298,780, 524, 451, 8, -11, 4, -15, 1, -1, 947, 846, 12,∮
2025-03-07 13:42:41.351,721, 546, 502, -3, 2, -1, -15, 0, -2, 950, 863, 5,∮
2025-03-07 13:42:41.407,707, 528, 467, -13, 8, -5, -15, 2, -3, 950, 868, 19,∮
2025-03-07 13:42:41.457,645, 513, 589, -3, -7, 2, -15, 1, -4, 954, 876, 15,∮
2025-03-07 13:42:41.515,627, 513, 542, -3, -25, 1, -15, 2, -1, 956, 891, 14,∮
2025-03-07 13:42:41.577,1039, 516, 704, -7, -10, -18, -15, 3, -3, 965, 917, 10,∮
2025-03-07 13:42:41.627,813, 771, 272, 46, 20, 10, -14, 0, -1, 979, 915, 10,∮
2025-03-07 13:42:41.687,698, 433, 356, -19, 39, 47, -16, 1, -2, 976, 927, 21,∮
2025-03-07 13:42:41.737,605, 489, 430, 27, -28, -82, -15, 1, -3, 958, 919, 12,∮
2025-03-07 13:42:41.797,855, 380, 592, 5, -21, -13, -14, 0, -1, 967, 936, 12,∮
2025-03-07 13:42:41.852,588, 760, 375, -7, 20, 36, -14, 0, 0, 980, 938, 14,∮
2025-03-07 13:42:41.907,610, 610, 354, -22, 23, 24, -15, 1, -3, 971, 910, 17,∮
2025-03-07 13:42:41.966,1260, 298, 275, 10, 11, -76, -15, 0, -4, 938, 851, 19,∮
2025-03-07 13:42:42.017,360, 516, 946, 12, -52, -17, -12, 1, -4, 943, 897, 198,∮
2025-03-07 13:42:42.077,700, 817, 600, 2, -21, 4, -14, 0, -1, 967, 925, 305,∮
2025-03-07 13:42:42.137,589, 1163, 320, -29, 47, 73, -16, 0, -4, 980, 927, 16,∮
2025-03-07 13:42:42.187,694, 446, 176, -63, 49, 29, -14, 4, -3, 966, 793, 16,∮
2025-03-07 13:42:42.249,827, 477, 366, -43, 89, -62, -12, 4, -6, 894, 599, 16,∮
2025-03-07 13:42:42.301,358, 452, 997, -9, 23, -18, -11, 3, -9, 841, 640, 11,∮
2025-03-07 13:42:42.357,576, 465, 722, 21, -27, -2, -12, 4, -9, 849, 569, 16,∮
2025-03-07 13:42:42.954,704, 534, 523, -6, 2, 2, -14, 1, -2, 891, 715, 19,∂
2025-03-07 13:42:43.007,686, 525, 533, -5, 2, 2, -14, 2, -3, 893, 717, 9,∂
2025-03-07 13:42:43.058,656, 507, 541, 3, -5, 4, -14, 2, -5, 902, 749, 14,∂
2025-03-07 13:42:43.107,722, 513, 467, 5, -6, 3, -15, 2, -3, 911, 767, 16,∂
2025-03-07 13:42:43.165,695, 537, 505, -5, 1, 3, -15, 2, -3, 919, 793, 9,∂
2025-03-07 13:42:43.217,684, 514, 530, -4, -1, 2, -15, 1, -4, 924, 805, 17,∂
2025-03-07 13:42:43.267,707, 521, 483, -6, 2, -1, -15, 3, -1, 930, 806, 11,∂
2025-03-07 13:42:43.324,704, 512, 501, -1, -3, 2, -14, 1, -4, 931, 816, 18,∂
2025-03-07 13:42:43.377,693, 518, 516, -6, 1, 0, -14, 3, -2, 933, 822, 14,∂
2025-03-07 13:42:43.434,710, 517, 516, -3, -2, -2, -15, 2, -2, 936, 830, 13,∂
2025-03-07 13:42:43.483,695, 517, 541, -3, -1, 0, -14, 2, -3, 937, 833, 8,∂
2025-03-07 13:42:43.542,695, 515, 502, -2, 0, -1, -15, 0, -3, 937, 827, 12,∂
2025-03-07 13:42:43.587,718, 514, 498, -3, 2, -2, -13, 3, -6, 937, 823, 11,∂
2025-03-07 13:42:43.649,652, 516, 554, 1, 1, -2, -14, 2, -4, 940, 817, 21,∂
2025-03-07 13:42:43.700,733, 520, 485, -3, -1, -4, -14, 0, -3, 940, 808, 17,∂
2025-03-07 13:42:43.755,708, 521, 532, 0, 1, 0, -16, 1, -4, 939, 815, 18,∂
2025-03-07 13:42:43.807,770, 514, 514, 8, -6, 4, -16, 2, -3, 947, 861, 16,∂
2025-03-07 13:42:43.857,678, 546, 463, -10, -4, -8, -15, 2, -2, 947, 870, 8,∂
2025-03-07 13:42:43.917,702, 136, 198, -43, -8, -26, -15, 2, -4, 952, 891, 15,∂
2025-03-07 13:42:43.967,860, 526, 609, 40, -7, 1, -14, 0, -4, 966, 922, 21,∂
2025-03-07 13:42:44.017,520, 181, 759, 22, 7, 16, -16, 1, -2, 978, 930, 8,∂
2025-03-07 13:42:44.083,625, 653, 289, -37, 26, 12, -15, 3, -1, 973, 904, 8,∂
2025-03-07 13:42:44.137,773, 415, 546, -10, 11, -1, -14, 1, -4, 968, 898, 10,∂
2025-03-07 13:42:44.187,647, 532, 265, -17, -22, 1, -14, 3, -3, 979, 944, 12,∂
2025-03-07 13:42:44.247,725, 560, 404, 2, -2, 6, -16, 2, -3, 977, 936, 19,∂
2025-03-07 13:42:44.300,918, 451, 388, -22, 62, -29, -14, 3, -4, 958, 890, 10,∂
2025-03-07 13:42:44.357,537, 390, 721, -15, 22, -8, -14, 2, -6, 945, 836, 13,∂
2025-03-07 13:42:45.830,692, 501, 500, 1, 0, -2, -15, 1, -4, 948, 870, 14,∇
2025-03-07 13:42:45.880,703, 501, 508, 3, 0, -2, -16, 3, -3, 945, 873, 15,∇
2025-03-07 13:42:45.937,727, 501, 489, -1, -1, -3, -14, 1, -3, 945, 877, 7,∇
2025-03-07 13:42:45.987,709, 516, 507, -4, 2, -2, -14, 3, -3, 947, 874, 23,∇
2025-03-07 13:42:46.037,692, 505, 500, -4, 1, -4, -15, 2, -2, 947, 864, 10,∇
2025-03-07 13:42:46.098,620, 489, 547, 2, -8, -3, -15, 1, -4, 949, 855, 15,∇
2025-03-07 13:42:46.150,848, 534, 461, 1, -4, -4, -15, 2, -4, 960, 893, 9,∇
2025-03-07 13:42:46.207,591, 571, 305, -5, -8, 36, -16, 1, -2, 973, 936, 11,∇
2025-03-07 13:42:46.262,688, 415, 804, 9, -14, -3, -15, 2, -2, 978, 942, 6,∇
2025-03-07 13:42:46.315,739, 534, 375, 22, 16, 10, -16, 1, -1, 980, 929, 13,∇
2025-03-07 13:42:46.367,857, 419, 439, -35, 39, 24, -16, 0, -2, 974, 895, 15,∇
2025-03-07 13:42:46.430,557, 509, 496, -14, 12, -59, -15, 3, -3, 956, 862, 13,∇
2025-03-07 13:42:46.487,873, 379, 360, -18, 6, -20, -15, 2, -4, 961, 896, 16,∇
2025-03-07 13:42:46.537,822, 897, 474, 24, -8, 19, -15, 1, -2, 977, 919, 10,∇
2025-03-07 13:42:46.588,492, 701, 373, -7, 18, 34, -16, 3, -4, 984, 928, 8,∇
2025-03-07 13:42:46.648,764, 68, 571, -4, 0, -37, -16, 3, -3, 967, 895, 14,∇
2025-03-07 13:42:46.701,677, 537, 754, -23, 24, -22, -15, 2, -4, 949, 844, 11,∇
2025-03-07 13:42:46.757,594, 533, 677, 10, -18, 5, -13, 1, -5, 936, 858, 6,∇
2025-03-07 13:42:47.297,724, 518, 483, -1, -2, 0, -14, 1, -2, 947, 875, 19,∆
2025-03-07 13:42:47.350,730, 524, 486, -2, -2, 1, -14, 2, -2, 949, 877, 22,∆
2025-03-07 13:42:47.401,707, 508, 507, -3, 0, 0, -16, 2, -3, 949, 878, 13,∆
2025-03-07 13:42:47.457,715, 531, 462, -3, -1, 0, -15, 1, -2, 950, 884, 12,∆
2025-03-07 13:42:47.511,717, 500, 506, -4, 0, 0, -14, 1, -2, 951, 885, 6,∆
2025-03-07 13:42:47.566,714, 492, 453, -5, 0, -2, -15, 1, -2, 954, 894, 12,∆
2025-03-07 13:42:47.620,708, 499, 480, -7, -1, -2, -15, 2, -2, 959, 905, 16,∆
2025-03-07 13:42:47.670,692, 485, 553, 2, -6, -5, -15, 1, -1, 965, 915, 20,∆
2025-03-07 13:42:47.727,731, 608, 406, 51, 14, 4, -15, 2, -1, 973, 890, 15,∆
2025-03-07 13:42:47.785,791, 641, 118, -12, 15, 7, -14, 1, -1, 972, 884, 20,∆
2025-03-07 13:42:47.838,519, 462, 767, -22, -8, 36, -16, 0, -2, 981, 940, 11,∆
2025-03-07 13:42:47.887,701, 471, 472, 2, 4, 9, -17, 0, -2, 972, 930, 19,∆
2025-03-07 13:42:47.950,650, 519, 327, -5, 12, -70, -14, 1, -2, 949, 879, 17,∆
2025-03-07 13:42:48.002,2503, 12, 152, -4, -9, -12, -14, 2, -1, 960, 896, 14,∆
2025-03-07 13:42:48.057,950, 56, 448, -27, 20, 45, -15, 3, -1, 982, 929, 12,∆
2025-03-07 13:42:48.113,681, 387, 481, 5, 12, 13, -15, 1, -3, 977, 915, 8,∆
2025-03-07 13:42:48.170,883, 466, 344, -11, 47, -55, -16, 2, -2, 941, 827, 16,∆
2025-03-07 13:42:48.227,555, 413, 710, -37, 29, -25, -15, 2, -6, 897, 692, 19,∆
2025-03-07 13:42:48.281,635, 496, 676, -1, -15, -3, -12, 3, -7, 875, 575, 15,∆
2025-03-07 13:42:48.631,730, 561, 426, -9, 3, 7, -14, 2, -2, 901, 651, 17,π
2025-03-07 13:42:48.683,682, 542, 466, -11, 8, 7, -16, 3, -3, 904, 660, 18,π
2025-03-07 13:42:48.737,675, 480, 611, 11, -1, 18, -13, 3, -5, 917, 729, 20,π
2025-03-07 13:42:48.787,766, 541, 435, -11, 4, 7, -14, 1, -3, 928, 756, 14,π
2025-03-07 13:42:48.839,702, 474, 548, -9, 5, 5, -15, 2, -2, 932, 773, 12,π
2025-03-07 13:42:48.897,735, 507, 474, -1, 0, 2, -14, 3, -4, 938, 787, 13,π
2025-03-07 13:42:48.954,659, 516, 513, -4, 3, -1, -16, 2, -3, 942, 806, 14,π
2025-03-07 13:42:49.007,748, 530, 448, -4, 7, -18, -16, 2, -3, 955, 846, 11,π
2025-03-07 13:42:49.057,713, 411, 504, -1, 5, -1, -12, 2, -3, 959, 882, 14,π
2025-03-07 13:42:49.117,808, 351, 589, 53, -4, -11, -14, 2, -3, 968, 911, 12,π
2025-03-07 13:42:49.168,653, 379, 282, -11, 0, 14, -15, 2, -2, 980, 943, 15,π
2025-03-07 13:42:49.218,665, 474, 544, 0, 0, 5, -16, 3, -3, 978, 946, 14,π
2025-03-07 13:42:49.277,732, 516, 440, -6, 4, 4, -17, 1, -2, 976, 945, 13,π
2025-03-07 13:42:49.330,732, 512, 522, 6, -2, -2, -16, 2, -4, 976, 945, 14,π
2025-03-07 13:42:49.383,851, 467, 484, 0, -10, 6, -15, 2, -3, 978, 944, 16,π
2025-03-07 13:42:49.437,700, 605, 578, -9, -7, 19, -17, 2, -1, 977, 949, 16,π
2025-03-07 13:42:49.490,666, 334, 429, 19, -4, -6, -17, 2, -2, 969, 933, 7,π
2025-03-07 13:42:49.548,770, 610, 413, -39, 44, -48, -17, 1, -3, 954, 868, 13,π
2025-03-07 13:42:49.607,728, 546, 580, 15, -21, 13, -15, 2, -4, 958, 876, 16,π
2025-03-07 13:42:49.663,677, 829, 517, -25, 9, 33, -14, 2, -3, 975, 916, 8,π
