Timestamp,Acc_X,Acc_Y,Acc_Z,Gyro_X,Gyro_Y,Gyro_Z,Mag_X,Mag_Y,Mag_Z,Force1,Force2,Force3,Letter
2025-03-10 11:48:39.077,398, -882, 100, 0, -14, -8, 5, 68, 21, 36, 24, 15,noise
2025-03-10 11:48:39.077,396, -889, 80, 2, -16, 1, 6, 68, 22, 40, 42, 35,noise
2025-03-10 11:48:39.082,398, -882, 100, 0, -14, -8, 5, 68, 21, 36, 24, 15,noise
2025-03-10 11:48:39.084,396, -889, 80, 2, -16, 1, 6, 68, 22, 40, 42, 35,noise
2025-03-10 11:48:45.988,567, -694, 428, 2, 1, -1, -31, -6, -2, 530, 252, 329,A
2025-03-10 11:48:46.046,562, -693, 435, -1, 1, -1, -31, -5, -3, 525, 243, 299,A
2025-03-10 11:48:46.102,575, -723, 456, -1, -2, -2, -33, -5, -4, 522, 244, 301,A
2025-03-10 11:48:46.161,572, -723, 450, 0, -2, -3, -32, -4, -4, 521, 252, 372,A
2025-03-10 11:48:46.218,572, -694, 438, 0, -1, -1, -31, -6, -2, 522, 248, 394,A
2025-03-10 11:48:46.272,574, -687, 451, -1, -2, -2, -32, -5, -2, 524, 241, 392,A
2025-03-10 11:48:46.333,581, -706, 452, -1, 0, -1, -32, -6, -2, 525, 234, 386,A
2025-03-10 11:48:46.385,574, -709, 438, -1, -1, -1, -33, -6, -3, 518, 241, 400,A
2025-03-10 11:48:46.448,567, -695, 440, -2, 0, -1, -32, -6, -3, 516, 237, 405,A
2025-03-10 11:48:46.502,577, -702, 441, -3, -1, -2, -31, -5, -1, 509, 232, 421,A
2025-03-10 11:48:46.563,582, -696, 448, -6, -1, 0, -31, -8, -1, 525, 258, 445,A
2025-03-10 11:48:46.622,581, -704, 442, -6, -1, -3, -32, -6, -2, 547, 275, 462,A
2025-03-10 11:48:46.672,568, -703, 421, -11, -6, -4, -31, -5, -3, 609, 364, 532,A
2025-03-10 11:48:46.733,594, -705, 417, -4, -2, -3, -35, -6, -2, 644, 439, 552,A
2025-03-10 11:48:46.792,599, -686, 433, -4, 0, 0, -32, -5, -2, 649, 448, 563,A
2025-03-10 11:48:46.852,578, -708, 406, -5, 1, 2, -31, -6, -2, 645, 425, 548,A
2025-03-10 11:48:46.907,557, -720, 397, 2, 0, -1, -31, -6, -2, 645, 405, 539,A
2025-03-10 11:48:46.966,585, -716, 413, 11, -1, -5, -32, -5, -2, 637, 431, 535,A
2025-03-10 11:48:47.016,606, -718, 405, 40, 0, -8, -31, -5, 0, 660, 445, 566,A
2025-03-10 11:48:47.083,616, -661, 503, 66, -9, -10, -34, -6, -3, 665, 436, 630,A
2025-03-10 11:48:47.133,603, -628, 470, 77, -8, -5, -33, -9, -5, 661, 383, 668,A
2025-03-10 11:48:47.198,607, -478, 656, 21, -20, 7, -34, -12, -8, 686, 513, 730,A
2025-03-10 11:48:47.259,658, -565, 547, 7, -17, 20, -34, -10, -9, 705, 613, 739,A
2025-03-10 11:48:47.316,531, -604, 519, -14, -9, 30, -32, -10, -10, 737, 701, 761,A
2025-03-10 11:48:47.382,567, -653, 514, -13, -12, 16, -34, -10, -8, 730, 796, 802,A
2025-03-10 11:48:47.442,574, -641, 546, -21, -15, -3, -34, -9, -6, 758, 844, 817,A
2025-03-10 11:48:47.492,563, -603, 487, -74, 6, 9, -33, -9, -6, 758, 852, 763,A
2025-03-10 11:48:47.557,690, -777, 348, -29, -2, -21, -35, -6, -5, 804, 854, 671,A
2025-03-10 11:48:47.617,653, -577, 467, 11, -25, -9, -35, -6, -4, 811, 847, 824,A
2025-03-10 11:48:47.672,539, -716, 284, -14, -22, 14, -35, -7, -3, 794, 826, 866,A
2025-03-10 11:48:47.733,644, -633, 414, -81, -10, -4, -36, -4, -1, 757, 779, 814,A
2025-03-10 11:48:47.792,668, -756, 304, 7, 25, 5, -35, -5, -1, 729, 750, 725,A
2025-03-10 11:48:47.852,568, -691, 370, 13, 13, 0, -33, -5, -3, 730, 739, 84,A
2025-03-10 11:48:47.909,533, -715, 375, -3, 21, -17, -35, -6, -3, 745, 714, 35,A
2025-03-10 11:48:47.967,628, -661, 388, -41, -2, -10, -34, -7, -3, 770, 707, 33,A
2025-03-10 11:48:48.022,621, -712, 399, -105, -14, -21, -36, -4, 0, 823, 750, 733,A
2025-03-10 11:48:48.084,648, -770, 256, -61, -27, -19, -37, -4, 2, 870, 839, 877,A
2025-03-10 11:48:48.148,634, -722, 234, 3, 1, -38, -38, -4, 5, 886, 872, 925,A
2025-03-10 11:48:48.202,724, -662, 282, 31, -1, -28, -39, -5, 1, 911, 893, 947,A
2025-03-10 11:48:48.262,765, -602, 272, 24, -11, -12, -39, -6, 1, 922, 899, 951,A
2025-03-10 11:48:48.317,719, -636, 267, 18, -9, -6, -39, -5, 1, 925, 905, 954,A
2025-03-10 11:48:48.372,693, -647, 298, 11, -2, -19, -41, -5, 1, 930, 912, 956,A
2025-03-10 11:48:48.434,692, -273, 243, -5, 9, 6, -41, -6, 2, 932, 923, 961,A
2025-03-10 11:48:48.492,776, -839, -119, 24, 42, -15, -40, -5, 0, 912, 936, 962,A
2025-03-10 11:48:48.552,905, -77, 882, 20, -13, 26, -39, -7, -1, 881, 939, 950,A
2025-03-10 11:48:48.610,1108, -418, -194, -56, 6, 12, -41, -8, 1, 907, 912, 943,A
2025-03-10 11:48:48.666,594, -906, 173, 13, -1, -69, -40, -6, 0, 926, 930, 962,A
2025-03-10 11:48:48.723,718, -506, 654, 38, -23, 1, -41, -7, 0, 921, 947, 965,A
2025-03-10 11:48:48.783,755, -583, 427, -5, -34, 9, -41, -9, 1, 905, 944, 961,A
2025-03-10 11:48:48.834,449, -707, 203, -64, 47, 42, -41, -6, 0, 886, 919, 938,A
2025-03-10 11:48:48.898,768, -772, 218, 28, 22, -7, -41, -5, 1, 896, 933, 959,A
2025-03-10 11:48:48.952,997, -517, 449, 11, -32, -29, -41, -7, 0, 930, 953, 975,A
2025-03-10 11:48:49.016,714, -609, 266, -11, -28, -1, -43, -7, 0, 930, 944, 966,A
2025-03-10 11:48:49.072,668, -771, 187, -63, -3, 102, -39, -5, 2, 900, 909, 938,A
2025-03-10 11:48:49.134,500, -875, 166, -14, -6, 24, -38, -3, 5, 890, 886, 915,A
2025-03-10 11:48:49.192,654, -774, 183, -1, 2, -1, -35, -3, 3, 886, 874, 905,A
2025-03-10 11:48:49.242,666, -726, 175, 1, 6, 1, -37, -3, 3, 887, 863, 902,A
2025-03-10 11:48:49.299,657, -725, 229, -1, 5, 5, -36, -3, 5, 879, 850, 890,A
2025-03-10 11:48:49.353,664, -757, 228, -1, 2, 5, -36, -3, 3, 854, 830, 869,A
2025-03-10 11:48:49.404,624, -751, 198, -2, 1, 4, -35, -3, 4, 866, 827, 866,A
2025-03-10 11:48:49.466,623, -760, 198, 5, 4, -4, -34, -3, 2, 872, 829, 873,A
2025-03-10 11:48:49.517,627, -712, 238, 4, 4, -1, -36, -1, 5, 876, 828, 867,A
2025-03-10 11:48:49.573,624, -742, 264, 5, 0, -1, -36, -1, 2, 873, 822, 857,A
2025-03-10 11:48:49.631,619, -733, 227, 7, 0, 1, -35, -3, 3, 876, 820, 853,A
2025-03-10 11:48:49.683,640, -733, 243, 8, 0, -3, -35, -3, 3, 874, 818, 847,A
2025-03-10 11:48:49.737,642, -722, 262, 5, 2, -2, -35, -4, 0, 873, 815, 840,A
2025-03-10 11:48:49.793,628, -725, 264, -2, 0, 2, -35, -3, 2, 875, 816, 840,A
2025-03-10 11:48:49.847,631, -719, 255, -3, 1, 1, -35, -5, 3, 874, 818, 845,A
2025-03-10 11:48:49.902,644, -719, 258, 1, 2, 5, -35, -3, 2, 871, 809, 832,A
2025-03-10 11:48:50.652,733, -617, 363, 18, 11, -3, -37, -8, -4, 38, 30, 184,B
2025-03-10 11:48:50.706,723, -602, 368, 24, 15, 0, -39, -9, -4, 22, 34, 191,B
2025-03-10 11:48:50.766,706, -669, 456, -16, 0, 7, -37, -10, -4, 31, 33, 243,B
2025-03-10 11:48:50.822,718, -655, 326, -135, 26, -8, -38, -6, -3, 55, 42, 551,B
2025-03-10 11:48:50.884,672, -708, 378, -44, -17, -7, -38, -5, -1, 483, 531, 723,B
2025-03-10 11:48:50.942,687, -664, 281, -38, 2, -12, -38, -6, 1, 712, 799, 799,B
2025-03-10 11:48:50.998,634, -693, 247, -4, -1, -6, -38, -3, 1, 811, 861, 866,B
2025-03-10 11:48:51.053,629, -540, 325, 9, -21, 7, -37, -4, 1, 857, 874, 905,B
2025-03-10 11:48:51.114,741, -896, 111, 13, -4, -19, -38, -4, 0, 877, 881, 924,B
2025-03-10 11:48:51.168,671, -598, 329, -4, -6, -1, -38, -5, 1, 892, 888, 936,B
2025-03-10 11:48:51.223,689, -714, 306, 0, -2, -12, -39, -5, 3, 906, 896, 946,B
2025-03-10 11:48:51.281,729, -697, 268, 1, 2, -19, -40, -5, 1, 897, 900, 949,B
2025-03-10 11:48:51.342,690, -690, 254, -4, 16, -22, -40, -6, 2, 900, 903, 953,B
2025-03-10 11:48:51.399,752, -554, 261, -2, 14, -5, -40, -4, 1, 892, 916, 962,B
2025-03-10 11:48:51.452,626, -834, 337, 47, -7, 7, -41, -6, 2, 838, 935, 961,B
2025-03-10 11:48:51.502,779, -231, 644, 6, -27, 9, -40, -8, 0, 808, 924, 952,B
2025-03-10 11:48:51.568,651, -751, 171, -27, 45, -12, -39, -7, 1, 880, 916, 958,B
2025-03-10 11:48:51.623,821, -531, 502, 22, 29, -18, -38, -8, 0, 861, 937, 971,B
2025-03-10 11:48:51.683,464, -897, 461, -6, -26, -3, -39, -8, -3, 849, 942, 967,B
2025-03-10 11:48:51.742,828, -200, 142, 5, 4, 10, -38, -8, -1, 824, 943, 965,B
2025-03-10 11:48:51.797,547, -842, 331, 5, -1, -3, -40, -6, 1, 847, 945, 966,B
2025-03-10 11:48:51.857,961, -296, 406, -1, -16, 16, -41, -7, 1, 725, 939, 954,B
2025-03-10 11:48:51.915,1117, -306, 163, -42, -4, 88, -40, -7, 1, 779, 887, 915,B
2025-03-10 11:48:51.972,447, -1029, 121, -10, 20, -4, -38, -5, 1, 815, 883, 925,B
2025-03-10 11:48:52.032,670, -642, 306, 20, 8, -40, -39, -6, 0, 844, 880, 928,B
2025-03-10 11:48:52.413,721, -565, 344, -3, -2, 1, -40, -8, 0, 835, 865, 915,C
2025-03-10 11:48:52.472,712, -610, 338, -1, -4, 0, -41, -6, 0, 837, 865, 917,C
2025-03-10 11:48:52.563,713, -609, 350, -5, -4, -1, -40, -9, -2, 841, 867, 915,C
2025-03-10 11:48:52.586,724, -613, 344, -5, -2, -4, -39, -8, 0, 838, 867, 915,C
2025-03-10 11:48:52.642,724, -604, 334, -6, -2, -3, -39, -8, 0, 846, 868, 920,C
2025-03-10 11:48:52.702,684, -618, 283, 8, -1, -16, -40, -9, 0, 862, 876, 927,C
2025-03-10 11:48:52.758,667, -618, 310, -9, 9, 2, -39, -7, -1, 825, 892, 943,C
2025-03-10 11:48:52.813,1437, -700, 41, 35, 24, 1, -40, -9, 0, 716, 916, 944,C
2025-03-10 11:48:52.872,1060, -339, 880, 14, -62, 27, -39, -9, -3, 688, 942, 944,C
2025-03-10 11:48:52.932,731, -763, 231, -14, -39, -8, -40, -8, -1, 843, 929, 953,C
2025-03-10 11:48:52.993,704, -621, 375, -52, 21, 86, -39, -6, 0, 842, 878, 929,C
2025-03-10 11:48:53.049,512, -920, 236, -30, 6, 25, -38, -4, 0, 833, 858, 919,C
2025-03-10 11:48:53.107,621, -762, 258, 2, 3, -16, -38, -5, 3, 829, 850, 914,C
2025-03-10 11:48:53.157,703, -653, 252, 5, 4, -12, -37, -5, 2, 828, 844, 909,C
2025-03-10 11:48:53.661,716, -632, 302, -2, 2, -3, -40, -6, -1, 811, 850, 905,D
2025-03-10 11:48:53.715,721, -618, 309, -1, 1, -2, -38, -5, 0, 812, 851, 905,D
2025-03-10 11:48:53.769,693, -647, 303, 0, 0, -3, -40, -4, 0, 808, 851, 900,D
2025-03-10 11:48:53.822,729, -620, 318, 0, 2, -8, -38, -6, 1, 811, 848, 896,D
2025-03-10 11:48:53.883,697, -658, 304, -10, 6, -9, -39, -6, 0, 821, 851, 902,D
2025-03-10 11:48:53.942,761, -636, 208, 19, 21, -6, -38, -8, 0, 763, 893, 925,D
2025-03-10 11:48:53.999,1142, -569, 367, 17, -46, 19, -39, -7, -2, 573, 924, 921,D
2025-03-10 11:48:54.062,798, -752, 227, -20, -15, 6, -38, -8, -1, 701, 880, 907,D
2025-03-10 11:48:54.116,782, -678, 417, -8, 20, -7, -39, -7, -2, 819, 897, 937,D
2025-03-10 11:48:54.173,740, -693, 611, -2, -10, -17, -38, -6, 0, 836, 936, 960,D
2025-03-10 11:48:54.232,1119, -684, 353, -14, -50, 18, -40, -7, 1, 737, 944, 951,D
2025-03-10 11:48:54.296,863, -134, 253, 38, -27, 35, -39, -6, 0, 673, 905, 925,D
2025-03-10 11:48:54.353,648, -765, 228, -46, 5, 85, -40, -6, 2, 818, 877, 925,D
2025-03-10 11:48:54.414,434, -930, 288, -26, 11, 20, -38, -5, 3, 809, 852, 921,D
2025-03-10 11:48:54.468,580, -799, 208, 6, 6, -30, -35, -4, 3, 800, 830, 903,D
2025-03-10 11:48:54.523,745, -641, 227, 9, 5, -26, -39, -5, 2, 794, 823, 899,D
2025-03-10 11:48:54.908,701, -688, 268, -7, -1, -5, -39, -3, 1, 754, 845, 897,E
2025-03-10 11:48:54.964,700, -670, 254, -6, 0, -5, -38, -6, 3, 756, 846, 899,E
2025-03-10 11:48:55.017,713, -638, 266, -1, 0, -5, -39, -5, 0, 776, 852, 903,E
2025-03-10 11:48:55.075,725, -613, 282, -6, 2, -1, -39, -6, 0, 792, 855, 909,E
2025-03-10 11:48:55.133,675, -673, 260, -2, 6, -7, -39, -5, 1, 808, 860, 914,E
2025-03-10 11:48:55.192,689, -668, 258, 10, 6, -28, -40, -6, 1, 827, 866, 924,E
2025-03-10 11:48:55.246,816, -686, 161, 8, 10, 1, -41, -6, 2, 788, 888, 934,E
2025-03-10 11:48:55.302,364, -631, 400, 60, -21, 11, -40, -6, -1, 665, 916, 930,E
2025-03-10 11:48:55.365,720, -299, 661, -24, -32, 23, -38, -6, -2, 670, 882, 905,E
2025-03-10 11:48:55.422,395, -1219, 294, -29, 34, -16, -39, -6, 1, 806, 875, 911,E
2025-03-10 11:48:55.484,802, -565, 512, 48, 18, -14, -39, -6, -1, 814, 929, 957,E
2025-03-10 11:48:55.543,512, -683, 285, -3, -19, -6, -39, -9, 0, 861, 935, 964,E
2025-03-10 11:48:55.598,684, -659, 126, 3, 0, 24, -39, -7, 1, 811, 892, 929,E
2025-03-10 11:48:55.652,843, -541, 355, 52, 11, 2, -40, -7, -1, 793, 922, 941,E
2025-03-10 11:48:55.713,637, -616, 320, 1, -29, -5, -39, -7, -1, 882, 936, 959,E
2025-03-10 11:48:55.772,640, -503, 136, -16, -2, 55, -40, -8, -1, 817, 897, 910,E
2025-03-10 11:48:55.831,773, -707, 373, 62, 27, -13, -38, -6, -1, 710, 918, 930,E
2025-03-10 11:48:55.892,949, -330, 442, -16, -32, -5, -41, -9, -1, 884, 947, 961,E
2025-03-10 11:48:55.948,961, -24, 183, -56, 13, 95, -40, -7, -1, 865, 899, 924,E
2025-03-10 11:48:56.007,550, -959, 134, -53, 25, 55, -38, -5, 2, 746, 829, 848,E
2025-03-10 11:48:56.406,700, -660, 285, 2, 4, -10, -41, -5, 3, 801, 845, 888,F
2025-03-10 11:48:56.452,708, -669, 285, 2, 3, -11, -39, -7, 0, 803, 849, 890,F
2025-03-10 11:48:56.516,711, -651, 285, 2, 2, -10, -40, -7, 2, 804, 855, 896,F
2025-03-10 11:48:56.572,694, -645, 288, 6, 0, -8, -39, -5, -2, 809, 857, 897,F
2025-03-10 11:48:56.622,737, -598, 340, -4, 5, 4, -40, -5, 1, 817, 864, 905,F
2025-03-10 11:48:56.682,710, -658, 256, -4, 5, 2, -38, -8, 0, 818, 883, 928,F
2025-03-10 11:48:56.733,853, -659, 424, 55, -13, 5, -39, -8, 1, 765, 927, 929,F
2025-03-10 11:48:56.792,827, -325, 500, 13, -14, 3, -39, -7, 0, 614, 928, 909,F
2025-03-10 11:48:56.852,768, -245, -84, -36, 59, -4, -41, -6, 1, 796, 883, 902,F
2025-03-10 11:48:56.912,565, -1137, 268, 39, 33, -24, -39, -7, 0, 792, 914, 945,F
2025-03-10 11:48:56.972,699, -593, 520, -3, -22, -19, -39, -7, -2, 857, 944, 964,F
2025-03-10 11:48:57.031,643, -479, 248, 2, -26, 33, -41, -7, -1, 846, 910, 936,F
2025-03-10 11:48:57.082,1020, 174, -366, 97, 13, 4, -41, -7, -1, 752, 902, 906,F
2025-03-10 11:48:57.148,703, -515, 647, -16, -37, -28, -41, -8, -3, 876, 944, 964,F
2025-03-10 11:48:57.212,750, -606, 319, -16, -26, 3, -40, -8, -2, 890, 927, 952,F
2025-03-10 11:48:57.265,629, -800, 257, -57, 14, 63, -39, -6, -2, 807, 866, 900,F
2025-03-10 11:48:57.322,552, -838, 207, 0, 6, -16, -38, -5, 1, 790, 837, 875,F
2025-03-10 11:48:57.735,687, -669, 327, -1, 0, -4, -38, -6, 0, 824, 843, 895,G
2025-03-10 11:48:57.782,703, -652, 322, -3, 0, -5, -39, -5, 0, 827, 845, 895,G
2025-03-10 11:48:57.848,714, -652, 314, -1, -1, -4, -38, -7, -1, 829, 853, 901,G
2025-03-10 11:48:57.902,708, -648, 305, 0, -1, -3, -39, -5, 0, 831, 861, 905,G
2025-03-10 11:48:57.959,674, -681, 322, 8, -5, -15, -38, -7, 1, 852, 870, 916,G
2025-03-10 11:48:58.014,646, -672, 286, 12, 2, -31, -39, -7, -1, 869, 879, 924,G
2025-03-10 11:48:58.072,736, -576, 365, -8, 9, 2, -39, -7, 0, 830, 892, 939,G
2025-03-10 11:48:58.132,1163, -674, 163, 35, 20, -3, -38, -9, -1, 737, 920, 940,G
2025-03-10 11:48:58.182,781, -425, 745, 9, -53, 22, -40, -8, -3, 665, 942, 935,G
2025-03-10 11:48:58.252,859, -834, 299, -16, -24, -4, -41, -7, -2, 828, 922, 941,G
2025-03-10 11:48:58.308,642, -662, 361, -1, 25, -6, -40, -8, -2, 868, 900, 940,G
2025-03-10 11:48:58.364,683, -417, 631, 10, -27, 5, -40, -9, -2, 848, 936, 938,G
2025-03-10 11:48:58.423,807, -728, 82, -34, 0, 2, -41, -9, -2, 841, 901, 924,G
2025-03-10 11:48:58.482,1068, -748, 197, 4, 26, -5, -40, -7, -2, 776, 904, 928,G
2025-03-10 11:48:58.542,753, -460, 663, 23, -12, -24, -40, -9, -2, 861, 946, 961,G
2025-03-10 11:48:58.602,754, -445, 244, -11, -30, 4, -40, -8, -1, 895, 940, 959,G
2025-03-10 11:48:58.662,698, -506, 368, -59, 10, 85, -40, -7, -1, 835, 875, 915,G
2025-03-10 11:48:58.714,572, -910, 220, -29, 4, 25, -38, -6, 1, 764, 830, 869,G
2025-03-10 11:48:58.772,619, -747, 237, 15, 7, -25, -37, -3, 1, 784, 818, 855,G
2025-03-10 11:48:59.216,686, -625, 298, -5, 2, -2, -39, -6, -1, 813, 811, 872,H
2025-03-10 11:48:59.273,693, -653, 293, -5, 2, -3, -38, -6, 0, 812, 811, 872,H
2025-03-10 11:48:59.333,686, -661, 298, -4, 3, -5, -39, -6, 0, 794, 816, 873,H
2025-03-10 11:48:59.387,709, -639, 305, -4, 6, -7, -39, -7, 1, 783, 817, 876,H
2025-03-10 11:48:59.448,623, -715, 280, 0, 12, -26, -38, -7, 1, 803, 818, 885,H
2025-03-10 11:48:59.502,836, -533, 335, 9, 15, -2, -41, -7, 1, 789, 861, 913,H
2025-03-10 11:48:59.552,667, -708, 259, 38, -6, 8, -38, -7, -1, 761, 913, 922,H
2025-03-10 11:48:59.616,782, -365, 414, 17, -20, 3, -38, -9, -2, 566, 928, 918,H
2025-03-10 11:48:59.678,909, -758, -158, -12, 21, -4, -40, -9, -1, 661, 841, 838,H
2025-03-10 11:48:59.732,3822, 302, -262, 30, 20, 5, -39, -6, -1, 729, 888, 919,H
2025-03-10 11:48:59.796,517, -317, 486, 2, -23, -3, -40, -7, -3, 847, 937, 953,H
2025-03-10 11:48:59.847,791, -491, 89, -25, -1, -1, -41, -8, 1, 882, 894, 944,H
2025-03-10 11:48:59.906,550, -870, 256, -5, 11, -32, -41, -7, 0, 873, 889, 937,H
2025-03-10 11:48:59.964,719, -524, 519, 25, -21, -1, -41, -8, -2, 843, 937, 949,H
2025-03-10 11:49:00.030,792, -489, 363, -6, -48, 28, -41, -8, -1, 809, 920, 929,H
2025-03-10 11:49:00.082,539, -767, 276, -51, 15, 70, -40, -7, 1, 819, 850, 905,H
2025-03-10 11:49:00.145,487, -917, 236, -13, 21, -17, -38, -4, 1, 828, 835, 914,H
2025-03-10 11:49:00.206,749, -560, 332, 15, 8, -34, -39, -5, -1, 845, 824, 904,H
2025-03-10 11:49:00.632,717, -622, 289, -2, 1, -5, -38, -7, 0, 805, 823, 879,I
2025-03-10 11:49:00.693,707, -606, 279, -1, 2, -3, -39, -5, 1, 802, 821, 876,I
2025-03-10 11:49:00.746,707, -613, 293, -4, 4, -3, -38, -6, 1, 787, 819, 869,I
2025-03-10 11:49:00.802,713, -627, 299, -4, 1, 0, -39, -6, -1, 787, 820, 873,I
2025-03-10 11:49:00.862,711, -644, 299, -2, 3, -2, -39, -7, 1, 778, 819, 871,I
2025-03-10 11:49:00.914,712, -656, 296, 0, 4, 0, -41, -7, 0, 765, 819, 863,I
2025-03-10 11:49:00.972,740, -625, 302, 16, 6, -12, -40, -4, 0, 759, 831, 868,I
2025-03-10 11:49:01.029,903, -786, 187, 69, 18, -7, -39, -7, -2, 782, 902, 932,I
2025-03-10 11:49:01.082,451, -384, 320, 7, -20, -10, -41, -8, -1, 882, 939, 961,I
2025-03-10 11:49:01.146,738, -518, 313, -8, -9, 10, -40, -6, -2, 870, 913, 946,I
2025-03-10 11:49:01.203,625, -876, 303, -6, 16, -13, -40, -8, -1, 819, 883, 925,I
2025-03-10 11:49:01.262,752, -530, 529, 25, -2, -2, -40, -8, -2, 831, 931, 943,I
2025-03-10 11:49:01.323,499, -364, 803, -8, -48, 24, -39, -6, -1, 780, 932, 936,I
2025-03-10 11:49:01.380,750, -569, 132, -32, 15, 40, -40, -6, -1, 690, 876, 856,I
2025-03-10 11:49:01.432,771, -443, 220, 20, 29, 6, -37, -7, -2, 528, 885, 869,I
2025-03-10 11:49:01.497,945, -392, 568, -42, -51, -42, -39, -9, 0, 843, 945, 958,I
2025-03-10 11:49:01.562,621, -685, 425, -10, -32, -4, -41, -7, -1, 884, 939, 956,I
2025-03-10 11:49:01.614,714, -521, 373, -60, 10, 95, -40, -6, -1, 805, 887, 909,I
2025-03-10 11:49:01.672,560, -912, 201, -29, 8, 33, -38, -5, 1, 755, 837, 861,I
2025-03-10 11:49:01.732,613, -788, 231, 9, 8, -20, -36, -3, 1, 774, 817, 846,I
2025-03-10 11:49:01.783,719, -613, 314, 0, 2, -7, -37, -3, 1, 794, 811, 835,I
2025-03-10 11:49:01.847,674, -670, 291, -8, 3, 2, -36, -5, -1, 797, 813, 847,I
2025-03-10 11:49:02.982,681, -663, 287, 1, 1, -7, -38, -7, 1, 771, 818, 881,J
2025-03-10 11:49:03.032,688, -661, 280, 1, 1, -7, -38, -7, 1, 770, 818, 881,J
2025-03-10 11:49:03.093,709, -631, 283, 1, 1, -4, -38, -5, 1, 778, 823, 883,J
2025-03-10 11:49:03.147,699, -646, 286, 0, 1, -4, -39, -5, 2, 780, 824, 885,J
2025-03-10 11:49:03.202,692, -671, 279, 2, 3, -6, -38, -6, 0, 786, 827, 888,J
2025-03-10 11:49:03.256,681, -670, 285, 3, 5, -10, -38, -6, 0, 775, 829, 885,J
2025-03-10 11:49:03.315,1133, -959, 251, -2, 38, -7, -39, -7, 1, 591, 869, 912,J
2025-03-10 11:49:03.372,632, -428, 664, -8, -34, -32, -41, -8, -2, 875, 943, 965,J
2025-03-10 11:49:03.432,563, -609, 210, -1, -14, 7, -40, -7, 0, 876, 924, 953,J
2025-03-10 11:49:03.495,610, -799, 329, -21, 22, 9, -40, -6, -1, 804, 892, 924,J
2025-03-10 11:49:03.552,752, -603, 713, 20, -35, -7, -39, -6, -2, 854, 936, 942,J
2025-03-10 11:49:03.609,724, -442, 513, -15, -27, 3, -42, -8, -1, 777, 946, 947,J
2025-03-10 11:49:03.662,736, -845, 79, -17, 20, 15, -42, -7, 0, 535, 884, 887,J
2025-03-10 11:49:03.728,743, -396, 350, -23, -28, 93, -40, -7, -2, 741, 854, 850,J
2025-03-10 11:49:03.782,455, -863, 245, -23, -3, 16, -38, -6, 1, 774, 839, 822,J
2025-03-10 11:49:04.192,716, -649, 291, 4, 4, -15, -39, -7, -1, 743, 812, 839,K
2025-03-10 11:49:04.252,715, -637, 298, 4, 3, -14, -39, -6, 0, 742, 813, 838,K
2025-03-10 11:49:04.311,740, -606, 314, 6, 2, -11, -40, -7, 1, 750, 818, 853,K
2025-03-10 11:49:04.364,729, -637, 284, -2, 1, 1, -38, -7, 1, 755, 818, 859,K
2025-03-10 11:49:04.415,702, -649, 305, 0, 6, -5, -39, -6, -1, 761, 819, 864,K
2025-03-10 11:49:04.479,676, -623, 286, 8, 11, -23, -39, -7, -1, 800, 838, 888,K
2025-03-10 11:49:04.532,737, -711, 279, -5, 5, -1, -38, -7, 0, 761, 875, 918,K
2025-03-10 11:49:04.592,465, -601, 434, 36, -29, 19, -39, -8, 0, 634, 908, 907,K
2025-03-10 11:49:04.647,715, -282, 466, 37, -6, 12, -39, -6, -2, 217, 917, 909,K
2025-03-10 11:49:04.711,601, -612, 399, -30, 13, -46, -42, -7, -2, 870, 933, 964,K
2025-03-10 11:49:04.764,723, -624, 279, 1, 7, -6, -42, -8, -3, 884, 920, 949,K
2025-03-10 11:49:04.827,709, -586, 114, -60, -6, 60, -40, -7, -2, 657, 873, 865,K
2025-03-10 11:49:04.882,831, -577, 311, 64, 16, -8, -39, -8, -1, 765, 923, 929,K
2025-03-10 11:49:04.945,557, -428, 542, -7, -50, -9, -40, -9, -2, 880, 946, 956,K
2025-03-10 11:49:05.002,936, -288, 159, -34, 14, 46, -40, -9, -1, 838, 899, 919,K
2025-03-10 11:49:05.059,658, -831, 155, -26, 17, 59, -39, -6, 2, 688, 817, 844,K
2025-03-10 11:49:05.114,580, -826, 197, 10, 8, -14, -37, -5, 2, 735, 804, 828,K
2025-03-10 11:49:05.468,709, -641, 296, 3, 2, -9, -40, -6, 1, 792, 806, 846,L
2025-03-10 11:49:05.528,707, -624, 307, 4, 2, -9, -38, -5, 0, 792, 808, 849,L
2025-03-10 11:49:05.580,720, -602, 310, 1, 0, -6, -38, -6, 1, 797, 812, 855,L
2025-03-10 11:49:05.633,724, -606, 302, 1, 0, -6, -39, -7, -1, 807, 820, 863,L
2025-03-10 11:49:05.688,708, -614, 297, -4, 1, -4, -39, -6, 0, 810, 821, 871,L
2025-03-10 11:49:05.746,703, -632, 302, -2, 5, -11, -38, -6, 0, 825, 827, 883,L
2025-03-10 11:49:05.805,1077, -300, 290, -5, 6, 3, -40, -6, 0, 821, 844, 901,L
2025-03-10 11:49:05.862,733, -641, 187, 8, 15, -10, -40, -6, -1, 787, 895, 925,L
2025-03-10 11:49:05.922,409, -640, 437, 55, -23, 11, -39, -8, -2, 717, 926, 914,L
2025-03-10 11:49:05.980,752, -303, 502, 23, -11, 11, -40, -8, -3, 501, 936, 914,L
2025-03-10 11:49:06.042,489, -716, 155, 6, -20, -17, -41, -9, -3, 883, 950, 962,L
2025-03-10 11:49:06.096,775, -515, 364, 1, -9, 11, -42, -8, -1, 872, 916, 932,L
2025-03-10 11:49:06.157,625, -756, 258, -64, 18, 69, -39, -7, -1, 746, 849, 864,L
2025-03-10 11:49:06.213,548, -818, 220, 0, 6, -10, -38, -5, 0, 738, 826, 854,L
2025-03-10 11:49:06.663,706, -668, 305, -2, 1, -2, -39, -6, 0, 767, 805, 812,M
2025-03-10 11:49:06.724,698, -641, 310, -3, 1, -2, -39, -8, 0, 767, 807, 814,M
2025-03-10 11:49:06.780,696, -641, 285, -3, 1, -4, -39, -6, 0, 779, 809, 833,M
2025-03-10 11:49:06.833,694, -661, 311, 1, 3, -10, -38, -7, -1, 787, 812, 852,M
2025-03-10 11:49:06.882,696, -658, 304, 2, 3, -9, -39, -7, 0, 797, 818, 864,M
2025-03-10 11:49:06.945,715, -647, 319, 5, 5, -13, -39, -6, -1, 796, 820, 867,M
2025-03-10 11:49:07.003,718, -635, 269, -4, 17, -9, -39, -6, 0, 806, 829, 867,M
2025-03-10 11:49:07.062,573, -824, 264, 16, 25, -1, -40, -6, -1, 804, 869, 901,M
2025-03-10 11:49:07.122,479, -412, 723, 42, -31, 22, -39, -8, -3, 668, 916, 902,M
2025-03-10 11:49:07.179,767, -409, 507, -25, -28, 17, -40, -6, -2, 696, 889, 893,M
2025-03-10 11:49:07.243,627, -707, 326, -16, 26, -14, -38, -9, -2, 837, 886, 918,M
2025-03-10 11:49:07.296,720, -612, 666, 26, -3, -13, -40, -7, -3, 851, 927, 934,M
2025-03-10 11:49:07.361,819, -502, 388, -12, -22, 7, -41, -9, -2, 869, 925, 934,M
2025-03-10 11:49:07.412,617, -657, 251, -8, 12, -10, -40, -8, -3, 891, 916, 936,M
2025-03-10 11:49:07.479,740, -566, 820, 21, -48, 11, -39, -7, -2, 882, 936, 931,M
2025-03-10 11:49:07.533,918, -578, 233, -20, -3, 6, -42, -8, -2, 879, 915, 920,M
2025-03-10 11:49:07.595,721, -691, 199, -54, 22, 46, -40, -7, 0, 867, 872, 914,M
2025-03-10 11:49:07.652,487, -904, 257, -15, 5, 5, -38, -6, 0, 848, 852, 906,M
2025-03-10 11:49:08.068,704, -634, 326, 3, 1, -4, -39, -7, 0, 791, 822, 862,N
2025-03-10 11:49:08.127,696, -645, 322, 3, 1, -4, -38, -6, 1, 792, 824, 862,N
2025-03-10 11:49:08.181,704, -630, 320, 5, 2, -5, -39, -7, 0, 788, 825, 856,N
2025-03-10 11:49:08.234,717, -654, 312, 0, 4, -7, -39, -5, -2, 729, 823, 824,N
2025-03-10 11:49:08.291,741, -550, 341, 1, 3, -6, -39, -8, -2, 725, 821, 808,N
2025-03-10 11:49:08.346,701, -617, 311, -6, 10, -9, -41, -5, 0, 758, 826, 828,N
2025-03-10 11:49:08.406,704, -708, 276, 2, 18, -1, -41, -7, 0, 759, 852, 879,N
2025-03-10 11:49:08.462,860, -860, 365, 44, -30, 22, -40, -6, -2, 563, 907, 882,N
2025-03-10 11:49:08.523,773, -346, 582, -16, -24, 12, -41, -8, -2, 577, 883, 854,N
2025-03-10 11:49:08.582,548, -820, 454, -11, 38, -14, -39, -8, -3, 811, 858, 894,N
2025-03-10 11:49:08.645,852, -616, 609, 25, -24, -12, -41, -10, -3, 823, 923, 926,N
2025-03-10 11:49:08.702,647, -329, 441, -14, -33, 3, -40, -8, -2, 700, 932, 924,N
2025-03-10 11:49:08.762,750, -546, 553, -14, 53, -28, -41, -9, -1, 841, 918, 952,N
2025-03-10 11:49:08.827,1004, 113, 350, -33, -36, 88, -41, -9, -3, 868, 882, 921,N
2025-03-10 11:49:08.882,431, -965, 124, -30, -19, 57, -39, -5, 1, 792, 857, 874,N
2025-03-10 11:49:08.943,597, -833, 234, 3, 5, -32, -38, -3, 0, 779, 846, 869,N
2025-03-10 11:49:08.995,794, -536, 341, 0, 1, -15, -39, -6, 0, 765, 829, 850,N
2025-03-10 11:49:09.434,701, -663, 283, 2, 0, -12, -39, -6, 2, 667, 806, 799,O
2025-03-10 11:49:09.482,702, -645, 291, 1, 0, -12, -39, -5, 2, 676, 809, 802,O
2025-03-10 11:49:09.546,729, -614, 273, -1, 3, -13, -38, -6, 0, 699, 811, 815,O
2025-03-10 11:49:09.602,747, -617, 285, 0, 2, -11, -40, -7, 0, 716, 815, 833,O
2025-03-10 11:49:09.659,755, -613, 300, 3, 1, -4, -40, -7, 0, 730, 822, 840,O
2025-03-10 11:49:09.712,728, -620, 309, 6, -6, -5, -39, -6, 0, 749, 829, 855,O
2025-03-10 11:49:09.762,674, -676, 253, 5, 6, -17, -41, -7, 1, 762, 836, 880,O
2025-03-10 11:49:09.827,1106, -668, 236, -2, 31, 1, -41, -6, 0, 720, 847, 913,O
2025-03-10 11:49:09.882,913, -492, 556, 62, -17, 17, -41, -7, -1, 597, 914, 897,O
2025-03-10 11:49:09.945,654, -619, 498, -34, -55, 3, -41, -7, -1, 745, 932, 933,O
2025-03-10 11:49:10.003,569, -819, 89, 20, 70, -17, -41, -6, -1, 851, 881, 937,O
2025-03-10 11:49:10.062,1042, -130, 520, -24, -8, 47, -40, -8, -1, 822, 834, 877,O
2025-03-10 11:49:10.112,555, -870, 229, -41, -23, 58, -38, -6, 2, 653, 825, 822,O
2025-03-10 11:49:10.180,563, -846, 156, 3, -4, -6, -37, -4, 3, 622, 819, 819,O
2025-03-10 11:49:10.732,718, -618, 317, -4, 0, 0, -39, -6, 0, 671, 793, 791,P
2025-03-10 11:49:10.794,707, -637, 312, -4, 0, -1, -39, -8, -1, 671, 796, 792,P
2025-03-10 11:49:10.848,728, -620, 315, 0, 1, -3, -39, -5, 0, 669, 797, 796,P
2025-03-10 11:49:10.902,715, -613, 322, -3, 1, -2, -40, -6, 1, 677, 801, 807,P
2025-03-10 11:49:10.957,724, -619, 318, -2, 0, -2, -40, -7, 0, 675, 800, 807,P
2025-03-10 11:49:11.015,721, -627, 316, -2, 3, -5, -40, -7, -2, 689, 804, 823,P
2025-03-10 11:49:11.077,641, -697, 291, -4, 12, -20, -39, -7, -1, 726, 815, 855,P
2025-03-10 11:49:11.132,694, -741, 165, 23, 24, -8, -40, -8, 0, 628, 877, 897,P
2025-03-10 11:49:11.195,307, -333, 151, -20, -76, 20, -40, -8, -1, 267, 927, 901,P
2025-03-10 11:49:11.252,790, -926, -166, 9, 16, -6, -41, -7, 1, 583, 889, 890,P
2025-03-10 11:49:11.310,965, -375, 269, -6, 29, -10, -41, -6, 0, 836, 892, 925,P
2025-03-10 11:49:11.362,622, -519, 506, 7, 0, -24, -39, -7, -3, 876, 941, 951,P
2025-03-10 11:49:11.422,591, -354, 496, -27, -29, 26, -39, -6, -1, 802, 941, 949,P
2025-03-10 11:49:11.482,996, -471, 212, 0, -14, 18, -40, -9, 0, 746, 912, 918,P
2025-03-10 11:49:11.543,592, -774, 247, -15, -6, 42, -39, -5, 1, 798, 912, 920,P
2025-03-10 11:49:11.596,512, -818, 283, 9, -3, -18, -39, -5, -2, 820, 892, 906,P
2025-03-10 11:49:11.962,733, -639, 330, 0, 0, -4, -39, -6, -1, 735, 849, 871,Q
2025-03-10 11:49:12.013,724, -623, 328, -1, -1, -5, -39, -7, -1, 735, 848, 870,Q
2025-03-10 11:49:12.077,723, -641, 310, 0, 1, -5, -41, -8, -1, 739, 853, 875,Q
2025-03-10 11:49:12.132,726, -612, 323, 1, -1, -6, -40, -6, -1, 772, 859, 883,Q
2025-03-10 11:49:12.182,698, -644, 310, 3, 0, -15, -40, -7, 0, 792, 869, 894,Q
2025-03-10 11:49:12.244,739, -742, 391, -2, 20, -1, -40, -8, 0, 785, 888, 927,Q
2025-03-10 11:49:12.299,631, -684, 166, 10, 19, 6, -40, -8, 0, 695, 908, 939,Q
2025-03-10 11:49:12.359,993, -479, 397, 13, -16, 18, -40, -8, -1, 430, 917, 919,Q
2025-03-10 11:49:12.412,843, -666, 295, -26, -50, -2, -39, -7, -2, 522, 926, 914,Q
2025-03-10 11:49:12.477,779, -676, 394, 8, -11, -8, -40, -7, -1, 747, 925, 934,Q
2025-03-10 11:49:12.538,695, -763, 157, -17, 16, -15, -41, -7, 0, 836, 909, 949,Q
2025-03-10 11:49:12.594,696, -664, 303, -3, 17, -3, -42, -7, -2, 831, 908, 946,Q
2025-03-10 11:49:12.653,908, -321, 259, -22, -20, 44, -40, -8, -2, 788, 893, 925,Q
2025-03-10 11:49:12.712,550, -819, 242, 5, -10, -11, -40, -6, 1, 736, 897, 915,Q
2025-03-10 11:49:12.772,790, -879, 454, -6, 13, -5, -40, -8, 0, 745, 913, 934,Q
2025-03-10 11:49:12.827,772, -706, 283, 4, -31, -14, -42, -6, 1, 851, 948, 955,Q
2025-03-10 11:49:12.882,785, -633, 314, -8, -25, 2, -41, -7, 0, 825, 939, 946,Q
2025-03-10 11:49:12.944,671, -566, 251, -62, 17, 90, -41, -5, 2, 624, 888, 889,Q
2025-03-10 11:49:12.995,503, -927, 179, -11, 15, 2, -38, -3, 3, 617, 850, 855,Q
2025-03-10 11:49:13.382,716, -645, 310, 1, 2, -6, -39, -7, 0, 761, 845, 872,R
2025-03-10 11:49:13.433,719, -646, 304, 0, 2, -7, -39, -7, 0, 764, 846, 871,R
2025-03-10 11:49:13.492,705, -631, 316, 0, 5, -6, -39, -7, -1, 772, 849, 878,R
2025-03-10 11:49:13.547,686, -643, 281, 11, 12, -31, -40, -7, 1, 775, 864, 902,R
2025-03-10 11:49:13.606,730, -652, 203, 19, 12, 1, -40, -8, 0, 773, 898, 923,R
2025-03-10 11:49:13.662,563, -570, 187, 13, -52, 18, -41, -9, -1, 521, 924, 911,R
2025-03-10 11:49:13.722,544, -449, 124, -37, 4, 21, -40, -7, 1, 365, 896, 911,R
2025-03-10 11:49:13.778,632, -601, 412, 2, 29, -18, -39, -7, -1, 834, 908, 938,R
2025-03-10 11:49:13.842,572, -495, 645, 5, -15, -8, -40, -8, -3, 839, 935, 945,R
2025-03-10 11:49:13.895,729, -555, 213, -20, -14, 11, -40, -8, -1, 725, 929, 937,R
2025-03-10 11:49:13.960,481, -515, 154, -13, -59, 1, -42, -7, -2, 769, 950, 949,R
2025-03-10 11:49:14.012,887, -415, 106, -10, 15, 20, -42, -7, -2, 776, 928, 936,R
2025-03-10 11:49:14.077,683, -780, 153, -33, 21, 63, -40, -6, 1, 724, 849, 893,R
2025-03-10 11:49:14.132,618, -846, 196, 1, 9, -21, -38, -4, 0, 716, 845, 879,R
2025-03-10 11:49:14.182,721, -597, 327, 11, 4, -26, -39, -4, 2, 741, 844, 875,R
2025-03-10 11:49:14.245,754, -550, 347, -5, 3, 3, -38, -5, 0, 760, 840, 871,R
2025-03-10 11:49:14.618,689, -663, 285, 1, 1, -7, -39, -5, 0, 750, 841, 876,S
2025-03-10 11:49:14.672,686, -654, 293, 2, 1, -7, -39, -6, -1, 749, 841, 874,S
2025-03-10 11:49:14.730,714, -619, 312, 2, -1, -6, -39, -7, 1, 768, 845, 880,S
2025-03-10 11:49:14.782,718, -630, 304, 1, 1, -4, -40, -5, 1, 778, 849, 884,S
2025-03-10 11:49:14.832,699, -655, 304, 2, -3, -7, -40, -6, 0, 800, 862, 893,S
2025-03-10 11:49:14.894,729, -596, 332, 0, 0, -5, -39, -6, 1, 808, 860, 893,S
2025-03-10 11:49:14.950,712, -639, 297, 1, -2, -4, -39, -6, 0, 813, 864, 895,S
2025-03-10 11:49:15.012,620, -748, 275, 10, 3, -34, -39, -8, -1, 826, 872, 905,S
2025-03-10 11:49:15.062,730, -691, 255, 5, 7, 5, -40, -8, 1, 742, 889, 926,S
2025-03-10 11:49:15.122,887, -515, 239, 29, -9, 7, -40, -7, -1, 717, 920, 929,S
2025-03-10 11:49:15.176,766, -684, 239, 4, -20, -2, -39, -8, -3, 780, 935, 938,S
2025-03-10 11:49:15.237,135, -688, 299, -29, -21, 22, -40, -8, 0, 377, 920, 923,S
2025-03-10 11:49:15.293,1208, -431, 182, -1, -3, 22, -40, -8, -1, 667, 855, 846,S
2025-03-10 11:49:15.352,530, -938, 129, -24, 14, 32, -37, -7, 1, 720, 852, 878,S
2025-03-10 11:49:15.412,546, -785, 263, 3, 7, -24, -37, -5, 0, 757, 848, 879,S
2025-03-10 11:49:15.462,708, -638, 271, 5, 8, -30, -37, -7, 2, 764, 840, 866,S
2025-03-10 11:49:15.813,713, -615, 312, -2, 6, -12, -41, -6, -1, 657, 829, 865,T
2025-03-10 11:49:15.872,729, -597, 310, -2, 6, -11, -38, -7, 0, 662, 832, 866,T
2025-03-10 11:49:15.927,738, -577, 328, -1, 0, -2, -40, -7, -1, 675, 838, 873,T
2025-03-10 11:49:15.982,712, -629, 303, -1, 3, -1, -39, -7, 0, 704, 840, 879,T
2025-03-10 11:49:16.044,734, -606, 314, 0, 2, -2, -40, -6, 0, 710, 839, 878,T
2025-03-10 11:49:16.094,691, -621, 332, -6, 3, 4, -39, -6, 0, 667, 840, 864,T
2025-03-10 11:49:16.155,654, -679, 276, 5, 6, -7, -39, -7, -1, 586, 843, 843,T
2025-03-10 11:49:16.208,836, -544, 91, 78, 21, 1, -38, -8, -1, 574, 887, 903,T
2025-03-10 11:49:16.262,677, -673, 333, -12, -28, -26, -39, -9, -1, 879, 932, 946,T
2025-03-10 11:49:16.326,690, -482, 383, 0, -11, 7, -40, -8, -2, 869, 908, 915,T
2025-03-10 11:49:16.383,643, -875, 292, -25, 7, 6, -39, -6, 0, 743, 888, 893,T
2025-03-10 11:49:16.442,587, -405, 742, 23, -16, -1, -41, -7, -1, 786, 937, 932,T
2025-03-10 11:49:16.494,770, -418, 224, 8, -34, 19, -41, -8, 0, 681, 941, 924,T
2025-03-10 11:49:16.554,1076, -648, -117, -9, 9, 4, -40, -7, 0, 728, 885, 880,T
2025-03-10 11:49:16.613,641, -768, 179, -30, 15, 39, -39, -7, 0, 743, 861, 886,T
2025-03-10 11:49:16.675,552, -780, 235, -1, 5, -21, -37, -6, 1, 748, 859, 885,T
2025-03-10 11:49:17.083,690, -622, 311, -3, 2, -3, -37, -5, 0, 617, 836, 828,U
2025-03-10 11:49:17.142,685, -625, 309, -3, 2, -3, -38, -7, 0, 606, 836, 825,U
2025-03-10 11:49:17.192,692, -645, 310, 2, 5, -6, -38, -6, 1, 592, 831, 819,U
2025-03-10 11:49:17.253,705, -675, 294, 0, 10, -25, -40, -6, 1, 647, 843, 852,U
2025-03-10 11:49:17.308,719, -683, 205, 26, 13, 0, -38, -8, 0, 473, 888, 895,U
2025-03-10 11:49:17.367,1012, -597, 312, 19, -44, 11, -39, -8, -2, 399, 923, 906,U
2025-03-10 11:49:17.427,650, -514, 232, -12, -26, 2, -39, -8, -1, 735, 916, 924,U
2025-03-10 11:49:17.491,607, -637, 175, -29, 43, -28, -39, -7, 1, 835, 878, 929,U
2025-03-10 11:49:17.543,598, -614, 624, 22, -14, 3, -40, -8, 0, 830, 927, 933,U
2025-03-10 11:49:17.602,773, -460, 363, -5, -32, 12, -40, -8, -1, 742, 934, 926,U
2025-03-10 11:49:17.662,876, -257, 219, -20, 18, 42, -41, -8, -1, 807, 865, 888,U
2025-03-10 11:49:17.724,599, -709, 224, -46, 23, 53, -40, -4, 2, 760, 824, 859,U
2025-03-10 11:49:17.777,519, -885, 231, -5, 4, -7, -37, -5, 3, 748, 816, 852,U
2025-03-10 11:49:18.186,694, -638, 304, 1, 0, -5, -37, -6, 1, 679, 786, 791,V
2025-03-10 11:49:18.244,686, -642, 298, 0, 0, -5, -37, -5, -1, 681, 788, 791,V
2025-03-10 11:49:18.293,693, -652, 294, 4, 1, -7, -40, -5, 0, 688, 793, 796,V
2025-03-10 11:49:18.352,699, -656, 303, 3, 1, -7, -39, -5, 1, 689, 795, 804,V
2025-03-10 11:49:18.409,714, -647, 305, 0, 0, -5, -41, -6, 2, 649, 795, 795,V
2025-03-10 11:49:18.462,720, -644, 333, 2, 2, -6, -39, -7, 1, 672, 803, 802,V
2025-03-10 11:49:18.526,709, -670, 305, 0, 15, -16, -41, -8, -1, 720, 811, 834,V
2025-03-10 11:49:18.575,994, -578, 274, 7, 18, -1, -39, -6, 0, 704, 870, 898,V
2025-03-10 11:49:18.640,831, -565, 366, 17, -58, 10, -39, -6, -1, 708, 921, 902,V
2025-03-10 11:49:18.693,726, -440, 749, -23, -26, 3, -39, -8, -1, 727, 923, 934,V
2025-03-10 11:49:18.752,685, -912, 254, -8, 27, -20, -40, -7, 1, 870, 894, 943,V
2025-03-10 11:49:18.815,901, -215, 534, -37, -31, 25, -42, -8, -1, 879, 837, 870,V
2025-03-10 11:49:18.876,584, -899, 196, -26, -11, 64, -39, -4, 1, 716, 809, 800,V
2025-03-10 11:49:18.932,551, -785, 232, 2, 3, -9, -38, -3, 1, 689, 800, 744,V
2025-03-10 11:49:19.363,722, -639, 320, 4, 1, -4, -40, -7, 0, 528, 672, 618,W
2025-03-10 11:49:19.423,709, -615, 322, 2, 1, -4, -39, -6, 0, 530, 676, 622,W
2025-03-10 11:49:19.475,708, -625, 320, 5, 1, -3, -38, -8, -1, 533, 682, 628,W
2025-03-10 11:49:19.532,762, -605, 326, 5, -2, 4, -38, -7, -2, 402, 649, 551,W
2025-03-10 11:49:19.591,688, -637, 334, 3, 2, 5, -38, -7, 0, 297, 644, 467,W
2025-03-10 11:49:19.642,687, -657, 325, 10, 7, -11, -39, -9, -2, 408, 645, 479,W
2025-03-10 11:49:19.702,750, -339, 319, -14, 12, 7, -41, -7, -1, 393, 701, 687,W
2025-03-10 11:49:19.762,785, -658, 270, 32, 18, -9, -40, -9, -1, 347, 854, 829,W
2025-03-10 11:49:19.820,597, -565, 606, -4, -58, 6, -40, -7, 0, 572, 907, 867,W
2025-03-10 11:49:19.875,693, -953, 0, 3, 16, -17, -40, -8, -1, 725, 892, 907,W
2025-03-10 11:49:19.932,688, -688, 177, 10, 18, -14, -40, -7, 0, 807, 893, 917,W
2025-03-10 11:49:19.993,729, -715, 55, -22, -34, -1, -41, -9, -1, 720, 917, 894,W
2025-03-10 11:49:20.052,771, -724, 49, -10, 18, -17, -42, -6, 1, 784, 911, 929,W
2025-03-10 11:49:20.108,802, -489, 411, 1, 3, -13, -42, -8, -1, 853, 857, 870,W
2025-03-10 11:49:20.167,593, -878, 208, -23, 4, 32, -40, -7, 0, 796, 832, 814,W
2025-03-10 11:49:20.225,693, -684, 276, 16, 6, -11, -39, -6, 0, 698, 812, 778,W
2025-03-10 11:49:20.663,724, -634, 300, 0, -1, -6, -41, -6, 1, 670, 808, 773,X
2025-03-10 11:49:20.722,732, -621, 302, 0, 0, -6, -39, -7, -1, 676, 810, 777,X
2025-03-10 11:49:20.775,712, -639, 313, -2, -1, -9, -40, -7, 1, 726, 821, 813,X
2025-03-10 11:49:20.832,620, -695, 290, 7, 0, -30, -43, -8, -2, 801, 847, 853,X
2025-03-10 11:49:20.892,697, -524, 414, -6, 16, -11, -41, -6, -1, 803, 890, 910,X
2025-03-10 11:49:20.952,726, -779, 284, 32, -12, 11, -41, -7, -2, 750, 918, 915,X
2025-03-10 11:49:21.012,710, -428, 450, 4, -22, 20, -42, -5, 0, 294, 912, 879,X
2025-03-10 11:49:21.074,1021, -491, -128, -15, 58, 21, -40, -7, 0, 611, 835, 863,X
2025-03-10 11:49:21.125,470, -1012, 160, 32, 9, -83, -38, -6, -2, 742, 868, 900,X
2025-03-10 11:49:21.192,630, -531, 690, -17, -53, -14, -41, -9, -2, 775, 940, 931,X
2025-03-10 11:49:21.243,596, -450, 229, -1, -40, 9, -41, -9, 0, 714, 938, 931,X
2025-03-10 11:49:21.308,791, -245, 341, -20, 35, 65, -42, -7, 0, 737, 850, 869,X
2025-03-10 11:49:21.369,589, -875, 246, -19, 22, 19, -39, -4, 0, 667, 801, 829,X
2025-03-10 11:49:21.425,658, -702, 279, 15, 7, -25, -39, -6, -1, 703, 785, 810,X
2025-03-10 11:49:22.344,716, -623, 301, -1, 0, -3, -41, -7, 0, 698, 819, 840,Y
2025-03-10 11:49:22.393,723, -618, 301, 0, 1, -3, -39, -7, -1, 699, 819, 843,Y
2025-03-10 11:49:22.452,748, -621, 303, -1, 1, -4, -41, -5, 0, 718, 823, 846,Y
2025-03-10 11:49:22.512,731, -600, 309, -3, 1, -2, -41, -7, -1, 717, 830, 852,Y
2025-03-10 11:49:22.568,730, -593, 333, -7, 2, -5, -41, -8, 0, 705, 833, 861,Y
2025-03-10 11:49:22.623,727, -610, 308, -8, 0, 0, -40, -8, 0, 666, 840, 864,Y
2025-03-10 11:49:22.676,737, -605, 311, -4, 1, -4, -40, -8, -1, 670, 841, 870,Y
2025-03-10 11:49:22.732,741, -598, 307, -3, 1, -2, -38, -6, -1, 686, 843, 875,Y
2025-03-10 11:49:22.793,738, -601, 299, -3, 1, -1, -41, -6, 0, 680, 843, 876,Y
2025-03-10 11:49:22.844,744, -609, 300, -3, 0, 0, -40, -7, 0, 666, 844, 879,Y
2025-03-10 11:49:22.902,739, -604, 308, -4, 1, 0, -40, -7, 0, 653, 846, 878,Y
2025-03-10 11:49:22.958,722, -615, 288, -4, 1, -1, -39, -7, 0, 649, 848, 883,Y
2025-03-10 11:49:23.012,746, -599, 302, -7, 3, 1, -42, -6, 0, 602, 864, 895,Y
2025-03-10 11:49:23.067,786, -699, 255, -14, 7, 1, -39, -6, 1, 492, 886, 917,Y
2025-03-10 11:49:23.126,694, -617, 394, 34, 2, 6, -41, -8, 0, 511, 915, 922,Y
2025-03-10 11:49:23.182,718, -474, 376, 29, -32, -1, -39, -7, 1, 706, 934, 933,Y
2025-03-10 11:49:23.240,800, -730, 256, 11, -18, -5, -41, -6, 1, 802, 917, 930,Y
2025-03-10 11:49:23.302,662, -707, 317, -22, 11, 28, -40, -6, 1, 801, 894, 923,Y
2025-03-10 11:49:23.352,662, -709, 307, 6, 0, -16, -40, -5, 0, 825, 896, 920,Y
2025-03-10 11:49:23.412,722, -597, 319, -1, 10, -28, -41, -6, 0, 844, 896, 920,Y
2025-03-10 11:49:23.469,775, -632, 126, 6, 10, -2, -41, -7, 0, 824, 916, 932,Y
2025-03-10 11:49:23.526,530, -668, 500, 19, -31, 7, -41, -6, -1, 720, 947, 935,Y
2025-03-10 11:49:23.589,896, -303, 396, -19, -23, 23, -42, -9, -1, 411, 933, 905,Y
2025-03-10 11:49:23.643,1010, -450, 26, -26, 3, 58, -40, -6, 0, 497, 794, 725,Y
2025-03-10 11:49:23.702,654, -689, 234, -50, 24, 59, -38, -5, 1, 420, 745, 685,Y
2025-03-10 11:49:23.758,465, -953, 187, 7, 8, -14, -37, -4, 2, 486, 733, 691,Y
2025-03-10 11:49:23.817,686, -644, 287, 19, 6, -32, -37, -4, 1, 573, 722, 669,Y
2025-03-10 11:49:24.212,712, -611, 307, -3, -1, -5, -40, -7, 1, 600, 782, 767,Z
2025-03-10 11:49:24.267,714, -619, 310, -5, -2, -6, -38, -7, 0, 612, 794, 779,Z
2025-03-10 11:49:24.325,715, -605, 307, -3, -2, -8, -40, -8, 0, 652, 832, 820,Z
2025-03-10 11:49:24.382,726, -620, 295, -2, 1, 0, -39, -6, 0, 672, 842, 835,Z
2025-03-10 11:49:24.432,734, -608, 314, 1, 1, -3, -40, -8, 0, 681, 844, 845,Z
2025-03-10 11:49:24.493,720, -617, 305, -1, 2, -2, -39, -7, -1, 696, 849, 851,Z
2025-03-10 11:49:24.542,713, -636, 299, -4, 2, -1, -41, -5, -2, 699, 848, 858,Z
2025-03-10 11:49:24.609,711, -615, 295, -2, 5, -2, -40, -9, 0, 693, 848, 857,Z
2025-03-10 11:49:24.662,661, -645, 111, 24, 19, 1, -40, -7, 0, 574, 865, 871,Z
2025-03-10 11:49:24.718,1006, -683, 268, 76, 7, -5, -39, -8, 0, 775, 913, 929,Z
2025-03-10 11:49:24.775,668, -593, 197, 29, -4, -2, -39, -8, -2, 893, 946, 952,Z
2025-03-10 11:49:24.839,933, -582, 575, -3, -26, 36, -40, -9, -2, 778, 946, 941,Z
2025-03-10 11:49:24.892,902, -587, 619, 10, -18, 2, -40, -8, -2, 757, 948, 941,Z
2025-03-10 11:49:24.952,609, -637, 197, 6, -17, -8, -40, -7, -2, 849, 953, 960,Z
2025-03-10 11:49:25.013,828, -117, 241, -32, 39, 35, -41, -8, -2, 827, 915, 931,Z
2025-03-10 11:49:25.073,729, -1214, 230, 27, -4, -69, -40, -7, -1, 775, 901, 914,Z
2025-03-10 11:49:25.132,1070, -940, 480, 4, -19, -33, -40, -8, -2, 874, 951, 959,Z
2025-03-10 11:49:25.194,745, -366, 267, 10, -24, -4, -42, -8, -1, 882, 955, 956,Z
2025-03-10 11:49:25.242,735, -238, 304, -63, 32, 107, -42, -6, -3, 811, 902, 915,Z
2025-03-10 11:49:25.308,600, -1032, 212, -11, 9, 7, -38, -4, 1, 730, 865, 879,Z
2025-03-10 11:49:25.367,676, -734, 291, 29, 5, -45, -38, -6, -1, 804, 866, 881,Z
2025-03-10 11:49:25.852,741, -609, 335, -4, -1, 0, -41, -6, -3, 657, 858, 851,a
2025-03-10 11:49:25.908,738, -611, 333, -4, -1, 0, -42, -8, -1, 656, 861, 854,a
2025-03-10 11:49:25.968,749, -598, 324, -2, -2, -2, -40, -7, -2, 675, 865, 858,a
2025-03-10 11:49:26.024,733, -602, 340, -2, -2, -1, -39, -6, -1, 687, 872, 862,a
2025-03-10 11:49:26.082,738, -579, 338, -2, -1, -2, -41, -8, -3, 686, 872, 868,a
2025-03-10 11:49:26.141,770, -518, 324, -4, 1, 2, -40, -8, -3, 690, 874, 876,a
2025-03-10 11:49:26.192,736, -636, 293, -8, 5, 4, -41, -9, 0, 564, 884, 892,a
2025-03-10 11:49:26.242,540, -610, 216, 9, 14, 3, -41, -7, -1, 424, 892, 899,a
2025-03-10 11:49:26.312,1047, -613, 301, 17, -4, 4, -39, -6, -1, 136, 917, 879,a
2025-03-10 11:49:26.366,693, -598, 349, -21, -35, -8, -40, -9, -1, 668, 925, 920,a
2025-03-10 11:49:26.424,558, -643, 216, -6, 30, -10, -41, -7, -1, 766, 904, 924,a
2025-03-10 11:49:26.490,603, -482, 648, 18, -17, 6, -41, -7, -3, 791, 935, 928,a
2025-03-10 11:49:26.542,769, -630, 265, -11, -28, -4, -42, -8, -1, 736, 927, 923,a
2025-03-10 11:49:26.608,706, -644, 235, -21, 18, 44, -40, -7, -1, 747, 862, 882,a
2025-03-10 11:49:26.662,594, -799, 295, -18, 26, 2, -40, -6, 0, 722, 819, 857,a
2025-03-10 11:49:27.032,750, -622, 337, -2, 0, 1, -41, -8, -1, 767, 831, 852,b
2025-03-10 11:49:27.090,733, -616, 335, -4, -1, 2, -40, -7, -1, 770, 831, 854,b
2025-03-10 11:49:27.142,722, -614, 315, -2, 2, -3, -40, -8, -1, 770, 831, 854,b
2025-03-10 11:49:27.206,724, -603, 324, -2, 5, -10, -40, -7, -1, 777, 832, 865,b
2025-03-10 11:49:27.262,686, -584, 266, -11, 10, 7, -39, -7, -1, 772, 849, 896,b
2025-03-10 11:49:27.319,650, -605, 460, 30, -8, 5, -40, -8, -2, 756, 913, 907,b
2025-03-10 11:49:27.374,982, -491, 394, 5, -41, 8, -38, -9, -1, 466, 931, 902,b
2025-03-10 11:49:27.432,936, -686, -41, 13, 18, -13, -40, -8, 0, 628, 897, 894,b
2025-03-10 11:49:27.492,705, -804, 298, 11, 10, -22, -40, -9, -1, 816, 927, 928,b
2025-03-10 11:49:27.557,554, -354, 623, -11, -35, 12, -41, -8, -2, 759, 943, 927,b
2025-03-10 11:49:27.612,809, -586, 242, -6, -10, 16, -41, -8, -1, 525, 888, 840,b
2025-03-10 11:49:27.672,631, -637, 293, -25, 4, 64, -38, -7, -1, 661, 858, 837,b
2025-03-10 11:49:27.724,459, -873, 344, -1, 0, -14, -38, -5, 1, 708, 838, 819,b
2025-03-10 11:49:28.113,710, -603, 301, 1, 0, -7, -38, -7, -2, 671, 834, 812,c
2025-03-10 11:49:28.172,713, -604, 305, 1, 0, -7, -39, -6, 0, 674, 836, 817,c
2025-03-10 11:49:28.232,727, -628, 301, 5, -1, -12, -41, -6, -1, 697, 847, 834,c
2025-03-10 11:49:28.291,678, -651, 271, 23, 0, -30, -41, -7, -1, 728, 859, 869,c
2025-03-10 11:49:28.342,570, -595, 164, -7, 13, 6, -42, -7, -2, 546, 878, 908,c
2025-03-10 11:49:28.406,445, -701, 395, 31, 19, 0, -39, -6, -1, 232, 920, 909,c
2025-03-10 11:49:28.462,883, -676, 954, -15, -65, 0, -39, -8, -1, 622, 942, 927,c
2025-03-10 11:49:28.517,819, -951, 57, 34, 0, -16, -41, -8, 0, 744, 915, 927,c
2025-03-10 11:49:28.575,641, -749, 229, -52, 0, 97, -40, -7, 0, 693, 846, 872,c
2025-03-10 11:49:28.632,470, -952, 234, -25, 3, 4, -37, -6, 0, 583, 812, 805,c
2025-03-10 11:49:28.688,646, -721, 288, 7, 3, -34, -38, -4, 2, 571, 806, 769,c
2025-03-10 11:49:29.102,744, -616, 311, 4, -3, -8, -40, -8, 2, 709, 839, 838,d
2025-03-10 11:49:29.156,737, -609, 316, 3, -2, -8, -40, -8, 2, 713, 841, 842,d
2025-03-10 11:49:29.216,735, -626, 300, 4, -2, -11, -40, -8, 0, 742, 849, 857,d
2025-03-10 11:49:29.265,687, -631, 287, 8, 2, -22, -41, -8, -2, 772, 864, 876,d
2025-03-10 11:49:29.324,666, -662, 301, -9, 11, 5, -41, -7, 1, 700, 876, 912,d
2025-03-10 11:49:29.382,415, -675, 277, 13, 24, 4, -41, -8, -1, 419, 906, 907,d
2025-03-10 11:49:29.442,976, -500, 381, 1, -36, 10, -39, -8, -2, 458, 931, 907,d
2025-03-10 11:49:29.502,674, -985, -216, -11, 17, -11, -42, -5, -1, 699, 922, 937,d
2025-03-10 11:49:29.557,666, -644, 33, -3, 22, -13, -40, -8, -1, 820, 907, 937,d
2025-03-10 11:49:29.622,466, -411, 539, 9, -51, 23, -41, -9, -2, 707, 942, 919,d
2025-03-10 11:49:29.674,815, -503, 386, -1, -22, 7, -42, -8, -3, 592, 921, 909,d
2025-03-10 11:49:29.732,693, -608, 320, -38, 18, 49, -40, -9, -3, 772, 864, 889,d
2025-03-10 11:49:29.792,599, -823, 350, -6, 4, -6, -39, -6, -1, 770, 854, 884,d
2025-03-10 11:49:30.192,711, -603, 310, -2, -1, 0, -40, -6, -1, 666, 846, 839,e
2025-03-10 11:49:30.257,727, -621, 311, -1, 0, -1, -40, -8, 0, 661, 847, 837,e
2025-03-10 11:49:30.312,728, -625, 314, 0, 1, -3, -41, -6, 0, 643, 841, 831,e
2025-03-10 11:49:30.366,700, -625, 321, 3, 0, -4, -41, -8, 0, 556, 838, 813,e
2025-03-10 11:49:30.423,775, -600, 264, 10, -6, -18, -41, -7, -2, 410, 863, 845,e
2025-03-10 11:49:30.482,576, -439, 367, -10, -18, -4, -41, -7, 0, 734, 919, 923,e
2025-03-10 11:49:30.542,677, -484, 316, -1, 26, -4, -40, -8, 0, 786, 903, 932,e
2025-03-10 11:49:30.595,633, -646, 221, 16, 11, 10, -40, -8, 0, 584, 919, 921,e
2025-03-10 11:49:30.656,779, -425, 330, 17, -26, 13, -39, -8, -2, 698, 943, 933,e
2025-03-10 11:49:30.716,877, -739, 104, 17, 16, -16, -42, -8, 0, 810, 906, 913,e
2025-03-10 11:49:30.773,627, -744, 220, -42, 17, 52, -40, -6, 0, 671, 867, 855,e
2025-03-10 11:49:30.832,631, -740, 249, -3, 0, -17, -39, -6, 0, 633, 853, 818,e
2025-03-10 11:49:30.892,768, -609, 278, 19, -1, -27, -39, -6, 0, 679, 837, 797,e
2025-03-10 11:49:31.386,703, -639, 301, 1, -7, -2, -39, -8, 0, 568, 834, 734,f
2025-03-10 11:49:31.442,708, -618, 298, 3, -7, -4, -40, -6, -1, 563, 835, 738,f
2025-03-10 11:49:31.502,723, -625, 288, 3, -3, -4, -40, -7, -1, 523, 837, 751,f
2025-03-10 11:49:31.558,971, -527, 112, -18, 15, -3, -42, -7, 0, 472, 856, 823,f
2025-03-10 11:49:31.621,752, -540, 221, -11, 27, 7, -40, -8, -2, 412, 873, 911,f
2025-03-10 11:49:31.676,801, -671, 373, 11, 26, -30, -40, -9, -2, 851, 922, 950,f
2025-03-10 11:49:31.732,677, -484, 653, 5, -20, -5, -39, -8, -2, 865, 930, 932,f
2025-03-10 11:49:31.792,540, -644, 386, -33, 9, 58, -40, -7, -1, 719, 891, 900,f
2025-03-10 11:49:31.855,840, -1093, 478, 44, 28, -8, -41, -8, -2, 727, 914, 918,f
2025-03-10 11:49:31.915,518, -590, 382, -15, -26, -17, -40, -8, -3, 861, 945, 948,f
2025-03-10 11:49:31.974,902, -273, 284, -26, 3, 33, -41, -7, 0, 821, 904, 897,f
2025-03-10 11:49:32.026,658, -765, 208, -35, -1, 51, -39, -6, 0, 661, 853, 788,f
2025-03-10 11:49:32.442,720, -624, 334, 4, 0, -7, -39, -8, -2, 737, 824, 785,g
2025-03-10 11:49:32.502,711, -610, 345, 3, -2, -7, -41, -8, 0, 741, 822, 789,g
2025-03-10 11:49:32.557,732, -595, 331, 3, -3, -9, -39, -7, -3, 758, 829, 802,g
2025-03-10 11:49:32.616,641, -681, 287, 13, 5, -29, -41, -9, -2, 776, 841, 830,g
2025-03-10 11:49:32.672,1135, -608, 391, -21, 8, 3, -40, -8, -2, 655, 864, 883,g
2025-03-10 11:49:32.725,803, -481, 465, 44, 10, -3, -39, -7, -2, 187, 918, 869,g
2025-03-10 11:49:32.792,523, -456, 164, -18, -55, 16, -41, -7, 0, 584, 926, 898,g
2025-03-10 11:49:32.842,568, -577, 209, -8, 42, 13, -41, -7, 0, 780, 866, 878,g
2025-03-10 11:49:32.907,725, -767, 480, 5, 5, -7, -40, -7, -3, 757, 915, 904,g
2025-03-10 11:49:32.962,743, -491, 425, -52, -48, 15, -42, -9, -1, 374, 940, 887,g
2025-03-10 11:49:33.022,894, -832, -44, 16, 7, 23, -42, -6, 1, 55, 819, 478,g
2025-03-10 11:49:33.073,731, -481, 307, -38, 28, 66, -38, -7, 0, 34, 402, 206,g
2025-03-10 11:49:33.137,450, -994, 239, -11, 19, -19, -37, -4, 2, 496, 682, 581,g
2025-03-10 11:49:33.532,697, -629, 296, 6, 2, -10, -39, -5, 0, 600, 729, 688,h
2025-03-10 11:49:33.588,709, -639, 310, 5, 2, -10, -38, -6, 2, 610, 730, 690,h
2025-03-10 11:49:33.643,721, -632, 298, -2, 3, -6, -39, -5, 0, 625, 725, 697,h
2025-03-10 11:49:33.702,673, -671, 291, 0, 8, -18, -38, -7, 0, 667, 730, 724,h
2025-03-10 11:49:33.756,691, -634, 189, -1, 15, 2, -38, -7, 0, 686, 807, 822,h
2025-03-10 11:49:33.815,472, -637, 325, 29, -42, 13, -40, -6, -1, 651, 916, 856,h
2025-03-10 11:49:33.874,766, -398, 377, -2, -13, 3, -39, -6, -1, 95, 924, 850,h
2025-03-10 11:49:33.932,751, -504, -27, 18, 50, -15, -39, -7, -1, 663, 906, 901,h
2025-03-10 11:49:33.992,625, -738, 553, 1, -8, -19, -41, -9, -1, 786, 943, 928,h
2025-03-10 11:49:34.042,882, -478, 445, -12, -50, 10, -41, -8, 1, 665, 934, 898,h
2025-03-10 11:49:34.106,739, -602, 285, -41, 17, 98, -39, -7, 0, 699, 858, 848,h
2025-03-10 11:49:34.162,464, -931, 202, -21, 13, 31, -37, -4, 1, 694, 808, 799,h
2025-03-10 11:49:34.222,570, -782, 271, 3, 4, -21, -37, -5, 2, 662, 781, 723,h
2025-03-10 11:49:34.272,684, -626, 270, 4, 5, -12, -37, -3, 3, 662, 758, 685,h
2025-03-10 11:49:34.332,699, -631, 280, 2, 1, -2, -37, -4, 1, 656, 743, 650,h
2025-03-10 11:49:34.972,709, -615, 307, 7, -2, -20, -39, -5, 1, 566, 772, 690,i
2025-03-10 11:49:35.029,700, -620, 304, 8, -3, -18, -39, -6, 2, 570, 778, 696,i
2025-03-10 11:49:35.087,735, -613, 314, 5, -5, -15, -39, -7, 1, 620, 807, 731,i
2025-03-10 11:49:35.140,742, -589, 309, 1, 2, -7, -38, -7, 0, 653, 819, 765,i
2025-03-10 11:49:35.192,621, -783, 228, 16, 7, -35, -39, -7, 1, 735, 842, 834,i
2025-03-10 11:49:35.254,804, -688, 413, 0, 3, -3, -39, -7, -1, 638, 923, 888,i
2025-03-10 11:49:35.312,692, -381, 708, 4, -34, 10, -40, -7, -1, 497, 931, 880,i
2025-03-10 11:49:35.370,960, -85, -19, -44, 75, 48, -41, -8, 0, 657, 859, 848,i
2025-03-10 11:49:35.428,375, -1228, 108, 44, 18, -128, -40, -6, -1, 758, 899, 916,i
2025-03-10 11:49:35.488,750, -403, 508, 17, -16, 20, -41, -7, 0, 785, 907, 895,i
2025-03-10 11:49:35.542,761, -322, 213, -33, -8, 82, -41, -6, 2, 711, 868, 813,i
2025-03-10 11:49:35.606,539, -848, 215, -21, -3, 52, -38, -4, 1, 622, 848, 797,i
2025-03-10 11:49:35.657,536, -842, 232, 9, 0, -22, -37, -4, 2, 631, 843, 821,i
2025-03-10 11:49:36.409,702, -659, 310, 9, -5, -13, -41, -6, 1, 661, 829, 818,j
2025-03-10 11:49:36.471,705, -637, 303, 10, -6, -14, -39, -6, 1, 662, 829, 819,j
2025-03-10 11:49:36.523,761, -580, 302, 7, -2, -6, -41, -8, -1, 674, 829, 815,j
2025-03-10 11:49:36.583,719, -642, 302, 7, -3, -2, -39, -7, 0, 697, 830, 809,j
2025-03-10 11:49:36.642,692, -674, 284, 18, 4, -28, -41, -7, -1, 746, 827, 814,j
2025-03-10 11:49:36.693,783, -541, 327, 2, 1, 6, -38, -6, 0, 743, 852, 843,j
2025-03-10 11:49:36.754,627, -493, 629, 22, -16, -5, -40, -8, -1, 780, 925, 883,j
2025-03-10 11:49:36.812,777, -211, 600, -42, -33, 12, -41, -9, 1, 408, 922, 881,j
2025-03-10 11:49:36.872,674, -470, 408, -48, 73, 36, -39, -8, 0, 548, 860, 881,j
2025-03-10 11:49:36.932,773, -1104, 189, 21, 51, -10, -38, -6, -3, 762, 923, 930,j
2025-03-10 11:49:36.990,896, -783, 591, -16, -53, 10, -39, -7, -1, 780, 913, 900,j
2025-03-10 11:49:37.052,728, -522, 391, -32, 6, 71, -39, -6, -1, 742, 861, 854,j
2025-03-10 11:49:37.104,549, -828, 298, -28, -2, 38, -37, -5, 0, 700, 826, 838,j
2025-03-10 11:49:37.470,693, -627, 304, 1, 1, -7, -39, -8, 1, 665, 822, 829,k
2025-03-10 11:49:37.522,689, -639, 307, 2, 0, -7, -40, -6, -1, 661, 822, 828,k
2025-03-10 11:49:37.572,698, -644, 312, 5, 1, -14, -39, -5, 1, 647, 825, 835,k
2025-03-10 11:49:37.638,708, -604, 314, 2, 9, -16, -39, -7, 0, 605, 827, 849,k
2025-03-10 11:49:37.692,834, -504, 328, -3, 8, -5, -40, -7, -2, 635, 831, 866,k
2025-03-10 11:49:37.742,745, -676, 206, 1, 10, 3, -40, -7, 0, 581, 865, 893,k
2025-03-10 11:49:37.804,737, -517, 421, -5, 4, -4, -40, -7, 0, 525, 895, 914,k
2025-03-10 11:49:37.862,727, -684, 266, 22, 12, -8, -40, -7, 1, 537, 904, 900,k
2025-03-10 11:49:37.914,699, -514, 358, 3, -35, 20, -41, -8, 0, 19, 913, 849,k
2025-03-10 11:49:37.972,743, -694, 179, 14, -2, 3, -39, -8, -1, 37, 917, 871,k
2025-03-10 11:49:38.023,724, -591, 415, -9, -3, 4, -39, -8, 1, 79, 915, 890,k
2025-03-10 11:49:38.087,878, -523, 285, 14, 14, -40, -41, -8, -1, 776, 934, 945,k
2025-03-10 11:49:38.142,647, -387, 339, 17, 2, -7, -41, -8, -1, 853, 932, 941,k
2025-03-10 11:49:38.204,790, -227, 369, -36, -14, 59, -40, -7, -2, 707, 871, 872,k
2025-03-10 11:49:38.262,849, -1065, 127, 50, -7, -74, -39, -6, 0, 436, 895, 864,k
2025-03-10 11:49:38.322,755, -370, 451, -7, -42, -3, -40, -7, -1, 791, 946, 934,k
2025-03-10 11:49:38.382,813, -482, 211, -3, -18, 12, -40, -8, 0, 751, 914, 880,k
2025-03-10 11:49:38.438,685, -709, 216, -50, 14, 67, -38, -6, -1, 594, 814, 702,k
2025-03-10 11:49:38.492,527, -831, 258, 3, 8, -14, -37, -5, 1, 604, 788, 667,k
2025-03-10 11:49:38.912,715, -610, 336, -3, -1, -1, -39, -6, 0, 658, 783, 739,l
2025-03-10 11:49:38.975,706, -603, 319, -3, -1, -1, -39, -7, 1, 650, 782, 734,l
2025-03-10 11:49:39.034,705, -609, 307, -1, 3, -5, -39, -6, -1, 634, 782, 742,l
2025-03-10 11:49:39.092,720, -615, 324, -4, 2, -5, -40, -7, 0, 625, 794, 766,l
2025-03-10 11:49:39.142,672, -671, 293, -2, 8, -19, -40, -7, 0, 667, 813, 808,l
2025-03-10 11:49:39.202,764, -435, 375, -9, 13, 6, -41, -8, 1, 585, 858, 866,l
2025-03-10 11:49:39.262,569, -651, 511, 34, -33, 16, -41, -8, 0, 396, 921, 878,l
2025-03-10 11:49:39.315,795, -450, 390, 6, -17, 5, -40, -7, -1, 160, 931, 857,l
2025-03-10 11:49:39.372,885, -748, 88, 7, -13, -4, -40, -7, -2, 550, 843, 750,l
2025-03-10 11:49:39.435,661, -795, 263, -50, 15, 56, -39, -7, 0, 446, 790, 708,l
2025-03-10 11:49:39.492,505, -876, 233, -8, 8, -11, -37, -4, 0, 414, 760, 688,l
2025-03-10 11:49:39.543,693, -678, 311, 18, 5, -36, -36, -6, 2, 480, 754, 684,l
2025-03-10 11:49:39.962,711, -600, 341, 2, -1, -5, -40, -8, -2, 453, 760, 686,m
2025-03-10 11:49:40.026,707, -597, 331, 2, -2, -4, -39, -7, 1, 456, 759, 685,m
2025-03-10 11:49:40.082,708, -620, 328, 2, 0, -6, -39, -8, -2, 461, 760, 685,m
2025-03-10 11:49:40.139,674, -647, 309, 4, 3, -13, -40, -7, -1, 517, 780, 733,m
2025-03-10 11:49:40.192,783, -638, 359, 3, 11, 3, -40, -6, -1, 335, 854, 823,m
2025-03-10 11:49:40.255,405, -482, 227, -22, -29, 14, -40, -8, -1, 40, 917, 858,m
2025-03-10 11:49:40.312,749, -558, 497, -10, -18, 12, -40, -8, 1, 40, 903, 874,m
2025-03-10 11:49:40.370,672, -655, 411, 7, 38, -30, -39, -7, -2, 679, 909, 913,m
2025-03-10 11:49:40.422,646, -588, 301, 8, -11, -4, -39, -8, -2, 727, 937, 919,m
2025-03-10 11:49:40.486,727, -313, 496, -9, -22, 15, -40, -9, -3, 658, 930, 923,m
2025-03-10 11:49:40.542,737, -835, 238, 21, 41, -26, -39, -8, -2, 788, 920, 929,m
2025-03-10 11:49:40.604,628, -357, 691, 5, -37, 8, -40, -8, -3, 804, 945, 929,m
2025-03-10 11:49:40.657,930, -462, 16, -19, 13, 22, -41, -8, 0, 788, 917, 910,m
2025-03-10 11:49:40.722,690, -693, 176, -50, 26, 54, -39, -6, -1, 776, 863, 895,m
2025-03-10 11:49:40.773,529, -850, 310, -6, 3, -5, -38, -6, -1, 747, 846, 865,m
2025-03-10 11:49:41.142,704, -630, 326, 3, 1, -4, -39, -9, -1, 544, 812, 756,n
2025-03-10 11:49:41.193,703, -629, 329, 4, 1, -5, -39, -6, 0, 539, 811, 757,n
2025-03-10 11:49:41.255,718, -616, 342, 3, 1, -3, -40, -9, -2, 538, 808, 751,n
2025-03-10 11:49:41.312,672, -680, 310, 4, 5, -16, -40, -8, -1, 505, 812, 763,n
2025-03-10 11:49:41.369,757, -509, 384, -15, 8, 3, -39, -8, -2, 334, 860, 873,n
2025-03-10 11:49:41.422,621, -543, 667, 4, -26, 7, -40, -7, -1, 242, 918, 882,n
2025-03-10 11:49:41.482,718, -395, 480, -7, -16, 8, -40, -7, -1, 46, 923, 878,n
2025-03-10 11:49:41.538,975, -529, 143, 22, 45, -23, -39, -7, -2, 553, 904, 910,n
2025-03-10 11:49:41.598,696, -536, 171, 7, 9, -15, -40, -10, -1, 801, 934, 926,n
2025-03-10 11:49:41.654,776, -421, 591, -9, -29, 7, -41, -7, -2, 698, 945, 921,n
2025-03-10 11:49:41.713,903, -617, 116, 5, -9, 13, -39, -8, -2, 726, 897, 870,n
2025-03-10 11:49:41.772,725, -675, 223, -61, 14, 72, -38, -7, -1, 678, 839, 804,n
2025-03-10 11:49:41.827,494, -896, 235, -1, 4, -9, -37, -5, 2, 624, 805, 744,n
2025-03-10 11:49:42.274,721, -604, 320, -5, -1, 0, -41, -8, -1, 538, 814, 750,o
2025-03-10 11:49:42.336,696, -628, 311, -3, -1, -1, -39, -6, 0, 537, 817, 753,o
2025-03-10 11:49:42.392,714, -611, 318, 2, -3, -8, -38, -8, 0, 609, 828, 779,o
2025-03-10 11:49:42.447,735, -607, 334, 8, -4, -13, -40, -9, -1, 698, 849, 813,o
2025-03-10 11:49:42.504,686, -644, 314, 6, 1, -22, -40, -9, 0, 728, 857, 837,o
2025-03-10 11:49:42.563,459, -686, 441, -13, 17, 4, -40, -7, 0, 627, 871, 893,o
2025-03-10 11:49:42.622,1007, -604, 324, 57, 13, 2, -39, -9, -1, 559, 907, 890,o
2025-03-10 11:49:42.672,630, -179, 62, -6, -39, 12, -41, -8, -2, 645, 939, 905,o
2025-03-10 11:49:42.737,717, -985, -254, -4, 32, -21, -41, -9, 1, 666, 918, 923,o
2025-03-10 11:49:42.793,903, -480, 441, 15, 6, -10, -40, -8, -1, 772, 802, 838,o
2025-03-10 11:49:42.854,609, -710, 353, -63, -19, 105, -39, -8, 0, 520, 780, 697,o
2025-03-10 11:49:42.918,487, -860, 194, -12, 1, -9, -37, -5, 1, 425, 797, 698,o
2025-03-10 11:49:42.969,662, -739, 235, 30, 5, -49, -37, -4, 1, 611, 778, 733,o
2025-03-10 11:49:43.332,720, -607, 319, 7, 2, -11, -39, -6, 0, 547, 743, 703,p
2025-03-10 11:49:43.390,718, -611, 322, 6, 2, -10, -39, -8, -2, 545, 744, 701,p
2025-03-10 11:49:43.442,734, -569, 325, 7, 5, -17, -38, -8, 0, 582, 750, 730,p
2025-03-10 11:49:43.502,681, -631, 285, 7, 9, -23, -39, -9, -2, 492, 779, 791,p
2025-03-10 11:49:43.552,783, -630, 305, 4, 9, 1, -40, -7, -1, 48, 884, 852,p
2025-03-10 11:49:43.612,490, -310, 688, 9, -68, 20, -41, -7, -2, 269, 927, 858,p
2025-03-10 11:49:43.668,811, -726, 61, -2, 2, 4, -42, -7, 1, 60, 895, 878,p
2025-03-10 11:49:43.722,903, -524, 494, -14, 56, -22, -39, -7, 0, 751, 882, 913,p
2025-03-10 11:49:43.786,554, -399, 240, 14, 18, -18, -40, -8, -1, 801, 933, 936,p
2025-03-10 11:49:43.847,562, -548, 611, -25, -37, 22, -42, -7, -2, 540, 928, 914,p
2025-03-10 11:49:43.903,1176, -280, 116, -22, 7, 43, -41, -7, -1, 515, 877, 865,p
2025-03-10 11:49:43.962,477, -893, 192, -19, 13, 22, -38, -5, 0, 686, 877, 880,p
2025-03-10 11:49:44.019,582, -741, 314, 22, 4, -45, -39, -5, 0, 732, 864, 868,p
2025-03-10 11:49:44.421,717, -619, 311, -1, 0, -5, -39, -8, -1, 608, 849, 829,q
2025-03-10 11:49:44.474,718, -617, 309, 0, -1, -5, -42, -5, -1, 603, 849, 828,q
2025-03-10 11:49:44.535,726, -613, 312, 4, 1, -10, -41, -7, 0, 638, 853, 843,q
2025-03-10 11:49:44.592,710, -579, 333, 3, 2, -10, -40, -7, -2, 682, 859, 858,q
2025-03-10 11:49:44.642,714, -628, 328, -7, 11, 5, -40, -8, 0, 500, 871, 886,q
2025-03-10 11:49:44.692,627, -682, 286, 3, 13, 3, -38, -8, 0, 51, 900, 890,q
2025-03-10 11:49:44.753,716, -392, 432, 8, -29, 15, -40, -6, -2, 200, 926, 883,q
2025-03-10 11:49:44.818,748, -732, 305, -27, -23, -10, -41, -8, 0, 320, 926, 918,q
2025-03-10 11:49:44.875,783, -624, 327, -5, 27, -14, -41, -8, -1, 671, 905, 920,q
2025-03-10 11:49:44.937,889, -573, 472, -7, -55, 28, -40, -7, 0, 378, 924, 873,q
2025-03-10 11:49:44.992,729, -292, 487, -5, -16, 15, -42, -7, -1, 354, 923, 869,q
2025-03-10 11:49:45.053,872, -952, 142, 48, 30, -36, -42, -8, -2, 649, 911, 913,q
2025-03-10 11:49:45.117,515, -633, 302, -73, -1, 122, -40, -6, -1, 617, 867, 863,q
2025-03-10 11:49:45.173,443, -925, 184, -32, 0, -3, -38, -4, 0, 278, 833, 657,q
2025-03-10 11:49:45.640,715, -624, 313, 0, 1, -3, -41, -8, -1, 535, 813, 792,r
2025-03-10 11:49:45.697,720, -625, 304, 1, 1, -4, -40, -9, 1, 527, 813, 794,r
2025-03-10 11:49:45.752,721, -626, 302, 4, 3, -7, -40, -8, 0, 531, 816, 806,r
2025-03-10 11:49:45.803,713, -606, 320, 6, 6, -8, -40, -7, -3, 552, 818, 812,r
2025-03-10 11:49:45.864,705, -697, 308, -9, 13, 7, -40, -7, -2, 527, 840, 858,r
2025-03-10 11:49:45.922,522, -603, 512, 5, -37, 17, -40, -8, 0, 227, 909, 871,r
2025-03-10 11:49:45.978,731, -466, 472, -11, -16, 7, -42, -8, -1, 42, 921, 874,r
2025-03-10 11:49:46.042,791, -940, -142, 29, 71, -29, -41, -6, -1, 591, 910, 925,r
2025-03-10 11:49:46.097,751, -295, 437, 9, 1, -11, -38, -8, -1, 797, 931, 926,r
2025-03-10 11:49:46.153,765, -390, 293, -35, 3, 61, -42, -9, 0, 709, 904, 888,r
2025-03-10 11:49:46.211,599, -875, 208, -7, 4, 4, -39, -6, 0, 614, 884, 872,r
2025-03-10 11:49:46.267,760, -600, 334, 11, 1, -16, -38, -6, 1, 597, 872, 858,r
2025-03-10 11:49:46.812,725, -624, 307, 4, -3, -6, -39, -7, 1, 679, 861, 840,s
2025-03-10 11:49:46.872,725, -625, 319, 5, -4, -7, -39, -7, 2, 687, 863, 842,s
2025-03-10 11:49:46.923,720, -633, 315, 8, -3, -13, -40, -8, 0, 742, 868, 854,s
2025-03-10 11:49:46.986,1065, -311, 241, -13, 9, 0, -41, -7, -1, 738, 875, 870,s
2025-03-10 11:49:47.042,590, -664, 205, 5, 10, 4, -40, -8, -2, 553, 888, 903,s
2025-03-10 11:49:47.103,822, -354, 383, 25, -8, 18, -40, -8, -1, 570, 915, 897,s
2025-03-10 11:49:47.153,700, -714, 393, 8, -11, 3, -39, -8, -3, 685, 934, 911,s
2025-03-10 11:49:47.218,770, -449, 301, -30, -22, 19, -41, -8, -1, 250, 918, 896,s
2025-03-10 11:49:47.272,1234, -241, 215, -33, -8, 50, -41, -6, 0, 36, 846, 751,s
2025-03-10 11:49:47.336,500, -1041, 85, -27, 13, 47, -38, -6, 0, 49, 841, 798,s
2025-03-10 11:49:47.392,532, -783, 249, 15, 3, -38, -40, -4, 2, 493, 838, 815,s
2025-03-10 11:49:47.451,755, -597, 275, 15, 4, -33, -39, -6, 1, 590, 826, 789,s
2025-03-10 11:49:48.088,728, -609, 318, -3, 1, -6, -40, -8, 0, 662, 819, 808,t
2025-03-10 11:49:48.142,707, -593, 304, -3, 2, -6, -39, -9, 1, 659, 822, 810,t
2025-03-10 11:49:48.201,741, -566, 320, -3, 3, -6, -40, -7, 0, 696, 828, 824,t
2025-03-10 11:49:48.252,709, -629, 312, -8, 10, -10, -39, -7, 0, 726, 832, 852,t
2025-03-10 11:49:48.312,685, -458, 294, -14, 11, 4, -40, -8, 0, 727, 845, 889,t
2025-03-10 11:49:48.373,811, -752, 118, 11, 20, -5, -40, -8, 0, 601, 893, 915,t
2025-03-10 11:49:48.435,557, -648, 520, 36, -56, 17, -41, -9, -3, 602, 933, 906,t
2025-03-10 11:49:48.492,736, -658, 341, -34, -51, 15, -41, -8, -1, 582, 914, 906,t
2025-03-10 11:49:48.552,448, -797, 421, -20, 51, 11, -40, -9, -1, 615, 859, 875,t
2025-03-10 11:49:48.605,869, -603, 313, 39, 30, -12, -41, -4, -1, 562, 926, 924,t
2025-03-10 11:49:48.672,771, -399, 308, -4, -31, -7, -41, -8, -1, 809, 947, 944,t
2025-03-10 11:49:48.722,897, -94, 257, -10, 18, 54, -42, -10, -2, 784, 886, 892,t
2025-03-10 11:49:48.785,606, -969, 206, -32, -1, 46, -38, -6, -2, 504, 814, 835,t
2025-03-10 11:49:49.142,729, -578, 339, -5, 1, 1, -40, -8, -1, 602, 826, 804,u
2025-03-10 11:49:49.202,715, -589, 325, -3, 1, 1, -40, -8, -1, 593, 825, 805,u
2025-03-10 11:49:49.257,724, -584, 327, -1, 1, -3, -38, -8, -2, 606, 828, 814,u
2025-03-10 11:49:49.316,706, -621, 313, -7, 2, -5, -40, -9, -1, 539, 832, 816,u
2025-03-10 11:49:49.372,698, -653, 324, -19, 11, 2, -39, -8, -2, 52, 854, 845,u
2025-03-10 11:49:49.422,717, -617, 360, 25, 4, -1, -40, -7, 0, 42, 914, 873,u
2025-03-10 11:49:49.487,810, -440, 553, 3, -32, 0, -39, -10, 0, 611, 930, 905,u
2025-03-10 11:49:49.542,812, -609, 130, 8, 32, -16, -38, -9, -2, 698, 903, 910,u
2025-03-10 11:49:49.602,804, -678, 203, 24, 19, -8, -40, -8, 0, 747, 926, 908,u
2025-03-10 11:49:49.654,695, -376, 372, -1, -32, 7, -41, -8, 0, 663, 941, 909,u
2025-03-10 11:49:49.716,828, -441, 80, -1, 24, 11, -41, -9, -1, 740, 893, 880,u
2025-03-10 11:49:49.772,709, -708, 204, -32, 26, 32, -39, -6, 0, 702, 847, 862,u
2025-03-10 11:49:50.132,700, -638, 310, 8, 2, -8, -40, -7, -3, 400, 817, 742,v
2025-03-10 11:49:50.193,707, -631, 326, 7, 4, -9, -41, -7, 0, 427, 818, 743,v
2025-03-10 11:49:50.249,739, -572, 335, 2, 6, -7, -40, -7, 0, 409, 811, 731,v
2025-03-10 11:49:50.302,680, -382, 245, -9, 13, 9, -40, -8, -1, 213, 828, 805,v
2025-03-10 11:49:50.362,727, -594, 401, 9, 7, -3, -39, -8, -1, 49, 886, 845,v
2025-03-10 11:49:50.421,767, -587, 277, -11, -39, 7, -40, -7, -2, 125, 920, 850,v
2025-03-10 11:49:50.483,800, -653, 378, -28, -20, -10, -41, -8, 0, 467, 923, 904,v
2025-03-10 11:49:50.535,694, -679, 231, 7, 24, -23, -40, -7, 0, 717, 917, 930,v
2025-03-10 11:49:50.592,856, -491, 427, 3, -7, 1, -41, -8, 0, 737, 885, 872,v
2025-03-10 11:49:50.652,657, -790, 241, -42, -15, 52, -41, -7, 0, 434, 870, 818,v
2025-03-10 11:49:50.702,609, -807, 193, 8, -1, -5, -39, -5, 0, 338, 861, 788,v
2025-03-10 11:49:50.762,744, -593, 308, 18, 5, -21, -39, -7, 1, 463, 849, 780,v
2025-03-10 11:49:50.822,767, -558, 317, 3, 3, -4, -39, -6, 1, 534, 839, 783,v
2025-03-10 11:49:51.392,693, -602, 319, 7, 0, -5, -41, -8, -1, 147, 808, 701,w
2025-03-10 11:49:51.442,708, -616, 322, 7, -1, -5, -41, -7, 1, 99, 810, 701,w
2025-03-10 11:49:51.499,771, -542, 351, 5, 1, 0, -40, -7, 0, 75, 797, 668,w
2025-03-10 11:49:51.556,706, -638, 311, -8, 2, 3, -38, -6, 0, 98, 786, 660,w
2025-03-10 11:49:51.614,729, -784, 295, -17, 14, 3, -40, -6, -1, 39, 827, 813,w
2025-03-10 11:49:51.667,828, -721, 468, 34, -9, -8, -39, -7, 0, 207, 909, 872,w
2025-03-10 11:49:51.722,747, -591, 425, 5, -13, -3, -41, -7, 1, 467, 928, 884,w
2025-03-10 11:49:51.772,854, -513, 51, 1, 27, -24, -41, -8, 0, 598, 918, 913,w
2025-03-10 11:49:51.837,802, -691, 506, 46, -4, -11, -41, -8, 0, 724, 924, 889,w
2025-03-10 11:49:51.900,785, -417, 466, -21, -22, 0, -42, -8, -1, 593, 931, 892,w
2025-03-10 11:49:51.953,809, -661, 416, 44, 24, -17, -43, -8, 0, 719, 904, 871,w
2025-03-10 11:49:52.019,738, -317, 296, -40, -10, 91, -43, -7, -2, 765, 869, 776,w
2025-03-10 11:49:52.068,535, -968, 210, -12, 1, 6, -39, -7, 0, 630, 853, 708,w
2025-03-10 11:49:52.412,725, -575, 317, 2, 0, -9, -40, -9, 0, 711, 868, 818,x
2025-03-10 11:49:52.468,719, -586, 312, 4, 0, -11, -40, -8, 0, 715, 869, 826,x
2025-03-10 11:49:52.522,746, -583, 376, -1, 4, -2, -41, -8, 0, 701, 886, 854,x
2025-03-10 11:49:52.583,754, -614, 290, -22, 1, 2, -40, -8, -1, 522, 908, 883,x
2025-03-10 11:49:52.639,781, -590, 342, -4, 7, -4, -41, -7, -1, 544, 917, 896,x
2025-03-10 11:49:52.692,757, -569, 322, -3, -2, 3, -40, -8, 1, 604, 919, 902,x
2025-03-10 11:49:52.751,729, -645, 256, 0, 5, -8, -42, -9, 1, 563, 922, 906,x
2025-03-10 11:49:52.802,439, -574, 700, 12, -10, 25, -40, -8, -1, 515, 928, 894,x
2025-03-10 11:49:52.867,750, -557, 457, -53, -32, 39, -40, -9, -1, 27, 865, 774,x
2025-03-10 11:49:52.922,679, -659, 250, 18, 57, -10, -41, -7, -1, 37, 816, 798,x
2025-03-10 11:49:52.984,805, -714, 283, 13, 7, -29, -39, -7, -2, 596, 918, 907,x
2025-03-10 11:49:53.042,528, -522, 423, -5, -38, -6, -40, -8, -2, 490, 949, 927,x
2025-03-10 11:49:53.099,846, -469, 80, 16, 9, 6, -41, -7, -1, 618, 906, 873,x
2025-03-10 11:49:53.152,719, -705, 231, -32, 18, 61, -40, -7, 0, 515, 803, 738,x
2025-03-10 11:49:53.544,728, -611, 318, -1, 2, -4, -41, -9, -1, 649, 826, 801,y
2025-03-10 11:49:53.602,735, -606, 322, -1, 1, -5, -40, -8, -1, 647, 826, 801,y
2025-03-10 11:49:53.665,747, -569, 331, 0, 2, -7, -40, -7, -1, 656, 826, 810,y
2025-03-10 11:49:53.718,689, -666, 281, 1, 5, -16, -40, -8, -1, 617, 840, 845,y
2025-03-10 11:49:53.772,759, -627, 284, -4, 8, -1, -39, -7, 0, 414, 883, 874,y
2025-03-10 11:49:53.833,1054, -633, 637, 7, -43, 1, -40, -9, 0, 506, 933, 895,y
2025-03-10 11:49:53.892,786, -638, 284, -5, -33, -4, -41, -9, -1, 686, 923, 904,y
2025-03-10 11:49:53.942,625, -780, 277, 9, 8, -1, -41, -7, -1, 796, 888, 884,y
2025-03-10 11:49:54.002,705, -634, 592, -9, -23, 7, -42, -8, -1, 670, 931, 897,y
2025-03-10 11:49:54.066,383, -502, 249, -24, -33, 9, -42, -7, 0, 221, 930, 876,y
2025-03-10 11:49:54.118,1112, -570, -59, 3, 31, 31, -41, -7, 1, 23, 786, 609,y
2025-03-10 11:49:54.172,541, -759, 157, -29, 18, 62, -39, -5, 1, 39, 709, 666,y
2025-03-10 11:49:54.234,431, -886, 291, 20, 6, -37, -37, -5, 1, 569, 731, 696,y
2025-03-10 11:49:54.712,755, -591, 327, 1, 0, -6, -41, -6, 0, 635, 789, 727,z
2025-03-10 11:49:54.769,744, -579, 308, 1, 0, -4, -41, -7, 0, 631, 790, 729,z
2025-03-10 11:49:54.822,738, -597, 296, -2, 0, -1, -41, -6, -1, 625, 795, 733,z
2025-03-10 11:49:54.881,737, -596, 308, 3, -2, -4, -39, -7, 1, 642, 815, 749,z
2025-03-10 11:49:54.935,730, -602, 317, 1, -2, -3, -40, -7, 0, 649, 823, 764,z
2025-03-10 11:49:54.992,729, -649, 293, 2, 3, -9, -41, -6, -1, 578, 827, 780,z
2025-03-10 11:49:55.049,787, -514, 343, -2, 2, 2, -42, -7, 0, 570, 828, 771,z
2025-03-10 11:49:55.102,691, -647, 298, -1, 2, -2, -41, -8, 0, 560, 829, 770,z
2025-03-10 11:49:55.162,724, -612, 321, -3, 3, -4, -40, -7, -1, 441, 836, 766,z
2025-03-10 11:49:55.216,731, -606, 296, -17, 6, 10, -39, -8, 0, 39, 858, 822,z
2025-03-10 11:49:55.277,908, -1140, 369, 43, 4, -36, -40, -8, -1, 740, 915, 908,z
2025-03-10 11:49:55.334,757, -623, 253, 29, 3, -11, -41, -9, -2, 803, 933, 887,z
2025-03-10 11:49:55.398,821, -491, 446, -32, -28, 40, -42, -8, -2, 512, 920, 854,z
2025-03-10 11:49:55.452,1181, -876, 628, -8, -30, -10, -41, -8, -2, 695, 946, 919,z
2025-03-10 11:49:55.516,657, -599, 283, 21, -11, -4, -41, -9, 0, 702, 933, 910,z
2025-03-10 11:49:55.572,362, -580, 345, -41, 31, 74, -40, -8, -1, 509, 873, 819,z
2025-03-10 11:49:55.633,863, -11, -211, 22, 44, -7, -40, -7, -1, 580, 916, 891,z
2025-03-10 11:49:55.692,532, -476, 339, -17, -30, -11, -39, -9, 0, 791, 949, 929,z
2025-03-10 11:49:55.749,829, -534, 238, 23, 2, 0, -42, -9, -2, 750, 901, 867,z
2025-03-10 11:49:55.809,665, -818, 268, -34, -1, 75, -41, -8, -1, 422, 808, 641,z
2025-03-10 11:49:55.867,648, -731, 258, 0, 10, -16, -38, -6, -1, 169, 761, 309,z
2025-03-10 11:49:56.212,721, -602, 333, -6, 2, -3, -41, -6, -1, 479, 775, 655,0
2025-03-10 11:49:56.266,719, -619, 318, -5, 2, -3, -40, -7, 1, 500, 774, 660,0
2025-03-10 11:49:56.323,713, -598, 333, -3, 2, -3, -40, -8, 0, 528, 784, 691,0
2025-03-10 11:49:56.381,738, -601, 308, -4, 1, -4, -39, -7, 0, 558, 801, 725,0
2025-03-10 11:49:56.433,730, -607, 314, -5, 2, -2, -40, -7, 0, 548, 811, 751,0
2025-03-10 11:49:56.492,729, -601, 307, -3, 1, -3, -40, -6, -2, 539, 813, 762,0
2025-03-10 11:49:56.548,722, -582, 326, -2, 1, -2, -39, -7, 0, 559, 816, 772,0
2025-03-10 11:49:56.602,733, -596, 320, -4, 2, -3, -41, -7, 0, 567, 824, 790,0
2025-03-10 11:49:56.662,749, -609, 322, -3, 1, -2, -41, -7, 0, 581, 827, 795,0
2025-03-10 11:49:56.717,730, -620, 313, -2, 0, -4, -40, -7, -1, 608, 836, 800,0
2025-03-10 11:49:56.772,721, -580, 344, 12, 0, -14, -40, -7, 0, 749, 850, 831,0
2025-03-10 11:49:56.834,838, -161, 318, -25, 15, 3, -40, -9, -1, 750, 866, 869,0
2025-03-10 11:49:56.884,750, -570, 334, -2, 2, 0, -41, -7, 0, 718, 876, 891,0
2025-03-10 11:49:56.942,730, -559, 300, -6, 5, 0, -40, -7, -1, 676, 884, 900,0
2025-03-10 11:49:57.002,784, -591, 378, -13, 12, 5, -41, -8, 0, 542, 893, 912,0
2025-03-10 11:49:57.060,482, -517, 415, 46, 4, 26, -38, -8, -2, 20, 918, 879,0
2025-03-10 11:49:57.116,660, -310, 112, -35, -100, -1, -39, -8, -2, 463, 940, 906,0
2025-03-10 11:49:57.173,486, -599, 0, -5, 52, -29, -41, -6, 0, 607, 927, 927,0
2025-03-10 11:49:57.233,1055, -548, 465, 35, 40, -9, -41, -9, -1, 765, 834, 870,0
2025-03-10 11:49:57.292,720, -468, 373, -39, -19, 95, -41, -9, 0, 660, 820, 724,0
2025-03-10 11:49:57.350,529, -904, 203, -5, 0, -12, -38, -6, 1, 615, 831, 697,0
2025-03-10 11:49:57.755,716, -594, 350, -1, 0, -1, -40, -7, 0, 456, 836, 775,1
2025-03-10 11:49:57.815,712, -612, 331, 1, 0, -3, -42, -8, 0, 445, 836, 775,1
2025-03-10 11:49:57.872,791, -555, 318, -6, 10, 7, -40, -8, -2, 227, 849, 805,1
2025-03-10 11:49:57.922,942, -725, 362, 18, -3, -1, -40, -7, 0, 591, 886, 899,1
2025-03-10 11:49:57.986,648, -723, 214, -7, -4, -10, -39, -7, -1, 792, 906, 906,1
2025-03-10 11:49:58.048,598, -559, 312, 27, -45, 20, -41, -8, -1, 689, 941, 904,1
2025-03-10 11:49:58.103,886, -594, 261, -15, -26, 10, -42, -8, -1, 266, 939, 893,1
2025-03-10 11:49:58.163,703, -637, 41, 2, 26, 14, -42, -8, 1, 300, 878, 805,1
2025-03-10 11:49:58.220,797, -588, 271, -9, 14, 11, -41, -7, -1, 52, 879, 788,1
2025-03-10 11:49:58.272,841, -524, 416, 0, -10, -42, -41, -7, 0, 597, 943, 925,1
2025-03-10 11:49:58.336,838, -747, 333, 14, -21, -8, -41, -7, -1, 678, 944, 925,1
2025-03-10 11:49:58.392,811, -73, 377, -21, 15, 72, -41, -7, -2, 695, 849, 812,1
2025-03-10 11:49:58.452,621, -1003, 155, -13, 8, 20, -38, -5, -1, 370, 810, 679,1
2025-03-10 11:49:58.514,690, -650, 325, 22, 10, -35, -39, -6, 0, 547, 795, 697,1
2025-03-10 11:49:58.873,769, -547, 376, -24, 6, 13, -41, -7, 1, 155, 811, 819,2
2025-03-10 11:49:58.932,758, -680, 313, -24, 7, 8, -39, -8, -1, 157, 819, 833,2
2025-03-10 11:49:58.985,744, -689, 431, 24, 3, -37, -39, -7, 1, 758, 911, 913,2
2025-03-10 11:49:59.047,691, -781, 371, 26, -5, -13, -41, -7, -2, 818, 935, 909,2
2025-03-10 11:49:59.109,551, -571, 508, -10, -35, 39, -41, -8, -1, 510, 917, 868,2
2025-03-10 11:49:59.166,1030, -727, 261, -13, 2, 7, -40, -7, 0, 43, 891, 797,2
2025-03-10 11:49:59.222,705, -314, 221, 4, -20, -24, -41, -7, -1, 611, 940, 915,2
2025-03-10 11:49:59.282,760, -641, 362, -1, -19, -15, -40, -8, -2, 691, 951, 926,2
2025-03-10 11:49:59.334,799, -512, 344, 24, -8, 2, -42, -8, -1, 698, 904, 849,2
2025-03-10 11:49:59.399,718, -735, 285, -47, -1, 93, -41, -7, -2, 361, 822, 679,2
2025-03-10 11:49:59.452,543, -849, 216, 2, 10, -10, -38, -6, 0, 380, 780, 599,2
2025-03-10 11:49:59.514,725, -590, 304, 10, 13, -19, -39, -5, 1, 536, 744, 575,2
2025-03-10 11:49:59.982,732, -603, 328, -4, 5, -9, -39, -7, 0, 536, 752, 696,3
2025-03-10 11:50:00.042,728, -616, 327, -4, 4, -8, -40, -7, -1, 536, 756, 704,3
2025-03-10 11:50:00.099,731, -589, 342, -1, 1, -1, -40, -6, -1, 551, 766, 717,3
2025-03-10 11:50:00.152,694, -642, 328, 2, 3, -3, -41, -7, 1, 551, 770, 724,3
2025-03-10 11:50:00.209,620, -652, 313, -1, 8, -14, -41, -8, 0, 605, 781, 757,3
2025-03-10 11:50:00.266,880, -497, 362, 10, 16, 0, -40, -7, 0, 563, 862, 839,3
2025-03-10 11:50:00.322,717, -727, 380, 7, -24, -3, -41, -8, 0, 791, 908, 884,3
2025-03-10 11:50:00.382,850, -528, 369, 6, -2, 5, -39, -7, 0, 739, 905, 874,3
2025-03-10 11:50:00.433,800, -389, 309, 7, 1, 11, -40, -9, -2, 606, 910, 876,3
2025-03-10 11:50:00.492,525, -684, 281, 1, -8, -2, -41, -8, -1, 653, 928, 892,3
2025-03-10 11:50:00.552,614, -351, 202, -20, -19, 22, -39, -10, -2, 262, 922, 870,3
2025-03-10 11:50:00.612,908, -615, 299, 25, -22, 7, -40, -9, 0, 297, 818, 724,3
2025-03-10 11:50:00.666,639, -771, 243, -50, 12, 76, -38, -6, 0, 510, 799, 732,3
2025-03-10 11:50:00.730,383, -918, 299, -4, 12, -18, -38, -4, 0, 602, 785, 766,3
2025-03-10 11:50:01.111,724, -602, 329, -3, 1, -4, -40, -6, 0, 591, 750, 729,4
2025-03-10 11:50:01.166,718, -600, 326, -2, 1, -3, -38, -8, -2, 588, 752, 732,4
2025-03-10 11:50:01.223,723, -618, 326, 0, 1, -7, -39, -8, -1, 582, 755, 740,4
2025-03-10 11:50:01.283,743, -582, 336, -3, 6, -9, -41, -6, 0, 591, 766, 756,4
2025-03-10 11:50:01.334,687, -663, 299, 5, 4, -17, -40, -6, 1, 629, 787, 799,4
2025-03-10 11:50:01.392,715, -586, 425, 5, 11, -1, -40, -9, -1, 661, 822, 846,4
2025-03-10 11:50:01.451,718, -648, 344, 5, 14, -7, -40, -9, -2, 666, 867, 876,4
2025-03-10 11:50:01.512,545, -534, 371, 23, -11, 23, -38, -8, -3, 255, 894, 845,4
2025-03-10 11:50:01.565,829, -382, 487, 3, -13, 16, -39, -9, -2, 430, 925, 884,4
2025-03-10 11:50:01.623,332, -637, 338, 0, -14, -27, -39, -9, 0, 823, 941, 930,4
2025-03-10 11:50:01.683,803, -495, 361, 12, -4, 0, -41, -9, -3, 818, 907, 876,4
2025-03-10 11:50:01.742,667, -1054, 349, -6, 15, -3, -39, -8, -3, 784, 874, 858,4
2025-03-10 11:50:01.802,701, -571, 417, 8, 10, -9, -39, -8, -2, 806, 934, 896,4
2025-03-10 11:50:01.858,671, -792, 535, 2, -57, 18, -39, -10, -1, 588, 944, 868,4
2025-03-10 11:50:01.916,1012, -719, 87, 17, -6, 20, -41, -8, -2, 734, 867, 744,4
2025-03-10 11:50:01.972,681, -679, 258, -59, 26, 62, -39, -6, 0, 726, 819, 763,4
2025-03-10 11:50:02.032,465, -935, 265, -4, 7, -14, -36, -6, 0, 725, 807, 737,4
2025-03-10 11:50:02.467,717, -643, 327, 1, 1, -7, -38, -7, -1, 703, 809, 728,5
2025-03-10 11:50:02.524,711, -622, 318, 2, 2, -6, -38, -8, -1, 703, 812, 735,5
2025-03-10 11:50:02.581,724, -632, 324, 0, 2, -5, -39, -7, 0, 695, 809, 734,5
2025-03-10 11:50:02.637,704, -638, 332, -5, 3, -2, -41, -6, 0, 648, 813, 751,5
2025-03-10 11:50:02.696,633, -713, 291, 6, 8, -28, -39, -7, -1, 564, 816, 764,5
2025-03-10 11:50:02.748,915, -452, 443, 6, 15, 0, -39, -9, 0, 403, 890, 870,5
2025-03-10 11:50:02.808,747, -427, 354, -16, -25, -19, -40, -6, 0, 842, 937, 923,5
2025-03-10 11:50:02.868,545, -559, 240, 22, 8, -5, -43, -6, 0, 835, 902, 884,5
2025-03-10 11:50:02.924,824, -613, 230, -9, 6, 30, -40, -9, -1, 652, 883, 858,5
2025-03-10 11:50:02.982,853, -667, 482, 9, -23, 7, -40, -8, -2, 737, 930, 891,5
2025-03-10 11:50:03.040,690, -507, 452, 4, -31, 5, -39, -7, -2, 783, 936, 902,5
2025-03-10 11:50:03.097,878, -715, 212, -22, -18, 10, -41, -6, 0, 470, 919, 852,5
2025-03-10 11:50:03.158,1138, -466, 149, 0, -10, 28, -41, -7, -2, 417, 791, 559,5
2025-03-10 11:50:03.216,512, -950, 188, -41, 10, 73, -39, -6, 0, 333, 779, 599,5
2025-03-10 11:50:03.266,496, -836, 271, 8, 8, -40, -36, -6, 1, 540, 791, 678,5
2025-03-10 11:50:03.696,702, -658, 325, -4, 5, -11, -37, -7, -1, 691, 782, 773,6
2025-03-10 11:50:03.757,682, -666, 320, -3, 5, -13, -39, -6, -1, 710, 784, 779,6
2025-03-10 11:50:03.814,736, -632, 319, 6, 3, -16, -38, -5, -2, 763, 810, 809,6
2025-03-10 11:50:03.865,700, -614, 336, 7, 2, -17, -39, -6, -1, 793, 836, 843,6
2025-03-10 11:50:03.932,709, -603, 361, 15, 2, -28, -38, -8, -2, 821, 845, 867,6
2025-03-10 11:50:03.982,813, -522, 434, -10, 2, 6, -39, -8, -1, 808, 854, 883,6
2025-03-10 11:50:04.042,803, -617, 300, -5, 10, -2, -39, -9, 0, 755, 869, 895,6
2025-03-10 11:50:04.102,568, -497, 512, 41, -14, 31, -41, -6, -1, 484, 894, 869,6
2025-03-10 11:50:04.162,558, -348, 341, -6, -70, 12, -41, -9, -2, 598, 931, 884,6
2025-03-10 11:50:04.222,643, -900, 123, -20, -1, -9, -40, -8, 0, 630, 913, 911,6
2025-03-10 11:50:04.280,883, -459, 649, 23, 24, 0, -39, -7, -3, 740, 805, 859,6
2025-03-10 11:50:04.332,698, -433, 416, -53, -7, 110, -38, -6, -1, 586, 744, 740,6
2025-03-10 11:50:04.396,525, -941, 250, -36, -6, 27, -35, -5, 1, 263, 735, 551,6
2025-03-10 11:50:04.452,599, -758, 279, 1, 2, -19, -37, -5, 1, 319, 733, 589,6
2025-03-10 11:50:04.508,720, -621, 316, 10, 9, -27, -36, -6, 2, 404, 677, 576,6
2025-03-10 11:50:04.892,683, -633, 318, -2, 1, -2, -38, -7, -1, 422, 689, 630,7
2025-03-10 11:50:04.952,686, -651, 311, -3, 1, -2, -37, -6, -1, 427, 690, 632,7
2025-03-10 11:50:05.008,704, -640, 325, 2, 1, -9, -38, -7, 0, 434, 704, 642,7
2025-03-10 11:50:05.065,692, -649, 323, -2, 3, -4, -38, -7, 0, 423, 711, 649,7
2025-03-10 11:50:05.124,617, -766, 277, 13, 7, -34, -38, -6, -1, 294, 733, 683,7
2025-03-10 11:50:05.175,883, -471, 530, 19, 14, -2, -39, -9, 0, 59, 842, 847,7
2025-03-10 11:50:05.232,614, -534, 403, -10, -24, -26, -40, -7, 0, 810, 903, 895,7
2025-03-10 11:50:05.297,541, -589, 406, 46, -3, -4, -40, -9, -1, 799, 926, 891,7
2025-03-10 11:50:05.356,788, -274, 452, -9, -36, 24, -42, -10, -3, 586, 928, 855,7
2025-03-10 11:50:05.414,800, -746, -110, -33, 19, 8, -40, -7, -2, 451, 869, 830,7
2025-03-10 11:50:05.472,3207, 1356, 295, -41, 22, -2, -39, -7, 0, 163, 883, 866,7
2025-03-10 11:50:05.532,876, -472, 648, 7, -23, -40, -41, -9, -3, 760, 944, 926,7
2025-03-10 11:50:05.592,838, -519, 134, 9, -6, 4, -41, -8, -2, 819, 905, 889,7
2025-03-10 11:50:05.648,679, -665, 330, -61, 8, 82, -39, -6, 0, 616, 812, 818,7
2025-03-10 11:50:05.702,568, -871, 264, 4, 1, -5, -38, -5, 0, 471, 786, 748,7
2025-03-10 11:50:06.122,732, -608, 334, 2, -2, -5, -39, -6, 0, 678, 797, 727,8
2025-03-10 11:50:06.182,722, -618, 337, 2, -3, -5, -38, -8, 1, 681, 797, 733,8
2025-03-10 11:50:06.236,715, -625, 340, 10, -6, -15, -40, -8, -1, 716, 815, 758,8
2025-03-10 11:50:06.296,812, -44, 252, -30, 10, 5, -41, -8, -2, 704, 835, 808,8
2025-03-10 11:50:06.352,707, -506, 362, -16, 5, 7, -39, -8, 0, 467, 854, 856,8
2025-03-10 11:50:06.406,759, -720, 235, 10, 13, 7, -39, -9, -1, 45, 885, 855,8
2025-03-10 11:50:06.466,880, -458, 553, -5, -44, 16, -40, -10, -2, 278, 930, 865,8
2025-03-10 11:50:06.522,702, -723, 52, 2, -12, -10, -40, -9, 0, 535, 922, 907,8
2025-03-10 11:50:06.582,761, -586, 226, 5, 65, -9, -41, -8, -2, 732, 859, 910,8
2025-03-10 11:50:06.632,739, -500, 270, 6, 20, -14, -39, -8, -3, 795, 892, 927,8
2025-03-10 11:50:06.697,707, -494, 613, 7, -6, -5, -40, -8, -2, 817, 941, 928,8
2025-03-10 11:50:06.759,713, -664, 357, -3, -23, 28, -41, -8, -1, 680, 925, 907,8
2025-03-10 11:50:06.815,1057, -433, 154, -25, 6, 30, -40, -9, -2, 660, 845, 849,8
2025-03-10 11:50:06.872,625, -791, 253, -30, 9, 35, -38, -7, -2, 655, 822, 827,8
2025-03-10 11:50:07.264,707, -612, 342, 2, 0, -8, -40, -6, 0, 713, 794, 787,9
2025-03-10 11:50:07.322,709, -606, 347, 3, 0, -10, -39, -8, 0, 724, 795, 796,9
2025-03-10 11:50:07.382,733, -590, 343, 3, -1, -11, -41, -8, -1, 754, 801, 810,9
2025-03-10 11:50:07.432,749, -532, 364, 1, 2, -4, -41, -8, -2, 775, 808, 813,9
2025-03-10 11:50:07.496,696, -618, 334, 0, 3, -6, -40, -7, -1, 784, 811, 824,9
2025-03-10 11:50:07.552,702, -633, 341, -6, 15, 7, -41, -8, -2, 681, 835, 862,9
2025-03-10 11:50:07.612,756, -482, 471, 19, 3, 14, -39, -8, -1, 376, 895, 876,9
2025-03-10 11:50:07.665,631, -430, 252, -7, -45, 5, -39, -9, -1, 532, 928, 897,9
2025-03-10 11:50:07.722,642, -643, 124, 4, 28, -11, -39, -7, -1, 769, 890, 897,9
2025-03-10 11:50:07.782,780, -683, 183, 18, 18, -5, -41, -8, -1, 808, 883, 888,9
2025-03-10 11:50:07.842,654, -630, 601, -36, -66, 18, -41, -7, -2, 586, 935, 882,9
2025-03-10 11:50:07.902,711, -412, 264, -43, -36, 29, -40, -7, 0, 40, 885, 809,9
2025-03-10 11:50:07.956,1045, -404, 217, -16, 17, 41, -39, -7, 1, 51, 597, 327,9
2025-03-10 11:50:08.014,647, -819, 203, -20, 7, 56, -38, -4, 1, 34, 463, 190,9
2025-03-10 11:50:08.074,520, -848, 225, 10, 1, -18, -38, -6, 1, 228, 515, 48,9
2025-03-10 11:50:09.462,708, -595, 336, 1, -2, -5, -39, -8, -2, 723, 851, 868,+
2025-03-10 11:50:09.513,721, -609, 334, 1, -2, -5, -40, -9, -1, 735, 853, 869,+
2025-03-10 11:50:09.572,746, -592, 322, 1, -2, -7, -40, -8, 0, 768, 856, 874,+
2025-03-10 11:50:09.633,740, -607, 327, -1, -1, -4, -41, -8, -1, 782, 862, 874,+
2025-03-10 11:50:09.692,732, -595, 311, -1, -1, -4, -40, -6, -2, 791, 862, 877,+
2025-03-10 11:50:09.749,734, -551, 331, -7, -1, 0, -40, -8, -2, 805, 866, 881,+
2025-03-10 11:50:09.802,692, -632, 300, -2, 0, -2, -40, -8, 1, 811, 869, 882,+
2025-03-10 11:50:09.856,749, -568, 339, -1, 0, -4, -38, -7, -1, 822, 870, 882,+
2025-03-10 11:50:09.915,719, -617, 308, -4, 0, -2, -41, -8, 0, 821, 872, 883,+
2025-03-10 11:50:09.972,738, -586, 335, -5, 0, -3, -41, -6, -2, 827, 874, 884,+
2025-03-10 11:50:10.032,746, -611, 316, -6, 2, -1, -41, -6, -1, 827, 876, 883,+
2025-03-10 11:50:10.082,696, -683, 268, 0, 9, -16, -39, -6, 0, 832, 880, 894,+
2025-03-10 11:50:10.142,745, -576, 331, -5, 7, 0, -38, -6, 0, 832, 889, 912,+
2025-03-10 11:50:10.202,727, -735, 134, 20, 22, -13, -41, -7, -2, 804, 919, 920,+
2025-03-10 11:50:10.261,531, -323, 437, 9, -61, 22, -41, -7, -1, 707, 936, 906,+
2025-03-10 11:50:10.314,730, -631, 416, -4, -31, 14, -41, -8, 1, 685, 901, 875,+
2025-03-10 11:50:10.373,445, -692, 298, -37, 39, 33, -39, -6, -1, 486, 830, 820,+
2025-03-10 11:50:10.432,890, -777, 327, 16, 33, -5, -39, -6, -1, 408, 890, 885,+
2025-03-10 11:50:10.495,348, -875, 123, -24, -23, -31, -41, -6, 0, 818, 950, 938,+
2025-03-10 11:50:10.556,744, -641, 378, 10, -14, -1, -42, -7, 1, 789, 930, 911,+
2025-03-10 11:50:10.614,942, -243, 377, -48, 5, 89, -42, -6, -1, 698, 812, 783,+
2025-03-10 11:50:10.664,579, -944, 182, -14, 7, 24, -38, -7, -1, 608, 777, 696,+
2025-03-10 11:50:11.126,728, -609, 314, -3, 2, -4, -41, -7, 1, 744, 825, 793,-
2025-03-10 11:50:11.186,717, -588, 317, -3, 1, -3, -41, -7, 2, 743, 827, 795,-
2025-03-10 11:50:11.244,717, -635, 296, -1, 2, -3, -38, -8, -2, 737, 828, 800,-
2025-03-10 11:50:11.298,723, -611, 311, -3, 0, 2, -40, -5, 0, 729, 829, 800,-
2025-03-10 11:50:11.352,709, -629, 310, -1, 1, 0, -40, -6, 0, 724, 832, 801,-
2025-03-10 11:50:11.406,727, -641, 307, 1, 0, -3, -39, -6, 1, 719, 832, 802,-
2025-03-10 11:50:11.463,710, -615, 320, -3, -1, 1, -39, -8, 1, 671, 834, 790,-
2025-03-10 11:50:11.514,713, -596, 324, 4, 1, -4, -38, -8, 1, 603, 829, 783,-
2025-03-10 11:50:11.572,741, -625, 299, 5, 0, -5, -40, -7, 0, 520, 824, 788,-
2025-03-10 11:50:11.632,701, -636, 247, -11, 19, 10, -40, -6, -1, 74, 842, 834,-
2025-03-10 11:50:11.682,722, -571, 375, 9, 10, -1, -39, -7, 0, 53, 883, 867,-
2025-03-10 11:50:11.744,727, -602, 367, 11, 4, -2, -39, -6, -2, 185, 904, 896,-
2025-03-10 11:50:11.805,984, -802, 356, 4, -4, -27, -39, -7, -1, 643, 927, 923,-
2025-03-10 11:50:11.863,375, -647, 352, -3, -15, -26, -41, -7, -1, 828, 953, 942,-
2025-03-10 11:50:11.914,759, -503, 322, -4, -5, -1, -40, -8, -2, 793, 944, 930,-
2025-03-10 11:50:11.978,848, -551, 254, 14, 3, 22, -41, -8, 0, 752, 870, 843,-
2025-03-10 11:50:12.033,705, -537, 320, -33, 0, 59, -40, -7, 0, 710, 784, 742,-
2025-03-10 11:50:12.096,555, -870, 278, -13, -2, 17, -38, -5, -1, 658, 757, 659,-
2025-03-10 11:50:12.152,645, -667, 319, 12, -2, -23, -39, -5, 0, 711, 743, 670,-
2025-03-10 11:50:12.873,759, -554, 336, 2, -1, -2, -38, -8, -2, 836, 848, 851,÷
2025-03-10 11:50:12.932,755, -557, 346, 2, 0, -1, -41, -8, -1, 840, 849, 854,÷
2025-03-10 11:50:12.994,747, -567, 347, -2, -1, 0, -40, -7, -1, 841, 852, 856,÷
2025-03-10 11:50:13.046,737, -577, 355, -2, 1, -2, -42, -8, -2, 843, 853, 856,÷
2025-03-10 11:50:13.102,720, -598, 346, -4, 0, -2, -39, -9, 0, 844, 858, 861,÷
2025-03-10 11:50:13.161,741, -534, 357, -10, 6, 1, -40, -9, 0, 843, 879, 872,÷
2025-03-10 11:50:13.214,694, -599, 322, -12, 10, 2, -40, -6, -2, 799, 893, 909,÷
2025-03-10 11:50:13.272,739, -467, 500, 37, 12, 2, -39, -8, -2, 802, 926, 908,÷
2025-03-10 11:50:13.332,711, -447, 483, -16, -22, 14, -42, -8, -4, 799, 938, 914,÷
2025-03-10 11:50:13.395,891, -369, 353, 13, 31, -12, -39, -8, -2, 853, 891, 889,÷
2025-03-10 11:50:13.456,467, -946, 231, 11, -44, 33, -41, -6, -1, 679, 894, 809,÷
2025-03-10 11:50:13.513,746, 901, 265, -63, 16, 10, -42, -9, -2, 687, 906, 861,÷
2025-03-10 11:50:13.565,813, -874, 279, -7, 1, -5, -40, -9, -2, 613, 928, 895,÷
2025-03-10 11:50:13.628,811, -466, 366, -11, -13, 1, -41, -8, -1, 672, 919, 876,÷
2025-03-10 11:50:13.682,530, -998, 246, -14, 15, 10, -40, -6, 0, 533, 891, 860,÷
2025-03-10 11:50:13.746,844, -399, 677, -5, 23, -13, -41, -9, -3, 505, 937, 909,÷
2025-03-10 11:50:13.807,837, -892, 523, -15, -36, -39, -41, -9, -1, 774, 955, 944,÷
2025-03-10 11:50:13.865,753, -509, 379, 14, -9, 5, -41, -9, -1, 763, 941, 902,÷
2025-03-10 11:50:13.922,880, -258, 394, -38, 16, 56, -41, -8, -1, 722, 877, 831,÷
2025-03-10 11:50:13.982,613, -794, 242, -18, 7, 27, -38, -8, -2, 660, 838, 761,÷
2025-03-10 11:50:14.042,704, -633, 305, 12, 10, -13, -38, -6, 1, 694, 815, 694,÷
2025-03-10 11:50:14.095,764, -593, 330, 6, 8, -6, -39, -6, 0, 728, 775, 683,÷
2025-03-10 11:50:14.701,732, -536, 359, -3, -7, -3, -41, -8, -4, 624, 850, 774,=
2025-03-10 11:50:14.762,733, -543, 372, -2, -5, -2, -39, -8, -3, 618, 850, 772,=
2025-03-10 11:50:14.812,749, -571, 384, 2, -2, -3, -40, -8, -4, 630, 850, 778,=
2025-03-10 11:50:14.877,739, -557, 392, -1, -1, -1, -41, -6, -4, 647, 852, 779,=
2025-03-10 11:50:14.932,726, -574, 383, -1, -1, -1, -40, -8, -2, 637, 851, 780,=
2025-03-10 11:50:14.992,741, -550, 386, 0, -1, 2, -40, -9, -2, 613, 848, 771,=
2025-03-10 11:50:15.049,713, -581, 408, 3, -2, -1, -41, -9, -4, 565, 836, 759,=
2025-03-10 11:50:15.105,812, -566, 274, -23, 12, 11, -40, -9, -2, 235, 856, 799,=
2025-03-10 11:50:15.163,1012, -240, 643, -14, -25, -52, -40, -8, -2, 782, 941, 895,=
2025-03-10 11:50:15.229,688, -602, 220, 24, -17, 3, -41, -9, -2, 806, 934, 845,=
2025-03-10 11:50:15.282,686, -410, 340, 1, -2, 78, -41, -9, -5, 712, 866, 766,=
2025-03-10 11:50:15.344,887, -875, 69, -38, 16, -10, -39, -10, -3, 364, 876, 792,=
2025-03-10 11:50:15.402,764, -485, 555, -23, -26, -36, -41, -9, -4, 762, 949, 913,=
2025-03-10 11:50:15.462,740, -573, 302, 6, -17, 7, -41, -9, -1, 756, 935, 881,=
2025-03-10 11:50:15.513,907, -113, 420, -41, 8, 64, -41, -9, -4, 722, 865, 761,=
2025-03-10 11:50:15.578,537, -977, 199, -25, 7, 25, -38, -7, 0, 566, 818, 585,=
2025-03-10 11:50:15.632,665, -686, 315, 24, 10, -38, -41, -7, -1, 648, 803, 612,=
2025-03-10 11:50:16.154,727, -572, 352, -3, 0, -1, -40, -7, -1, 572, 819, 651,≠
2025-03-10 11:50:16.213,722, -571, 333, 0, 0, -1, -40, -9, -1, 571, 818, 654,≠
2025-03-10 11:50:16.263,730, -573, 344, -2, 0, -1, -41, -8, -2, 575, 819, 649,≠
2025-03-10 11:50:16.328,725, -604, 346, -5, 0, -2, -40, -6, 0, 578, 825, 659,≠
2025-03-10 11:50:16.382,732, -583, 338, -2, 0, -2, -39, -9, -1, 573, 833, 678,≠
2025-03-10 11:50:16.432,735, -584, 342, -3, 0, -2, -39, -8, 0, 575, 837, 708,≠
2025-03-10 11:50:16.495,742, -589, 353, 0, 0, -3, -41, -9, -1, 578, 839, 719,≠
2025-03-10 11:50:16.548,736, -594, 348, 1, 0, 0, -39, -7, -2, 574, 843, 743,≠
2025-03-10 11:50:16.602,770, -566, 351, -1, 0, -1, -40, -8, 0, 529, 837, 734,≠
2025-03-10 11:50:16.663,733, -599, 343, -3, 1, -1, -39, -7, -3, 482, 839, 726,≠
2025-03-10 11:50:16.714,637, -650, 212, 18, 7, 0, -41, -8, -1, 301, 855, 754,≠
2025-03-10 11:50:16.772,756, -510, 424, -20, 4, 0, -40, -8, -2, 37, 881, 816,≠
2025-03-10 11:50:16.832,741, -861, 416, 25, 2, -36, -41, -8, -1, 672, 929, 917,≠
2025-03-10 11:50:16.892,546, -215, 315, 4, -13, -9, -41, -8, -2, 821, 946, 912,≠
2025-03-10 11:50:16.945,759, -590, 315, -3, -5, 0, -42, -9, -4, 803, 934, 904,≠
2025-03-10 11:50:17.005,834, -607, 449, 12, 4, 11, -42, -9, -4, 775, 896, 852,≠
2025-03-10 11:50:17.061,664, -553, 360, 0, 0, 52, -39, -8, -3, 558, 854, 745,≠
2025-03-10 11:50:17.112,673, -736, 339, 8, -4, -6, -39, -8, -3, 198, 838, 604,≠
2025-03-10 11:50:17.172,765, -614, 386, 4, 21, -2, -40, -9, -3, 51, 903, 833,≠
2025-03-10 11:50:17.232,576, -309, 425, -20, -20, -59, -41, -9, -2, 745, 952, 918,≠
2025-03-10 11:50:17.294,738, -573, 457, 20, -9, 1, -43, -8, -2, 723, 946, 850,≠
2025-03-10 11:50:17.346,776, -66, 292, -53, 40, 78, -43, -8, -2, 768, 881, 804,≠
2025-03-10 11:50:17.405,443, -989, 132, 22, 9, -71, -40, -9, -3, 805, 897, 826,≠
2025-03-10 11:50:17.462,797, -546, 553, 0, 10, -1, -41, -9, -2, 716, 945, 869,≠
2025-03-10 11:50:17.527,634, -189, 392, -20, -52, 43, -40, -8, -3, 471, 946, 821,≠
2025-03-10 11:50:17.582,1166, -799, 186, 11, -51, 42, -40, -8, -2, 408, 849, 695,≠
2025-03-10 11:50:17.646,584, -773, 284, -69, 16, 80, -39, -6, -2, 514, 807, 679,≠
2025-03-10 11:50:17.702,420, -992, 225, 0, 7, -13, -38, -4, 3, 514, 776, 625,≠
2025-03-10 11:50:19.492,722, -590, 366, -3, 0, 0, -40, -8, -2, 346, 807, 663,≈
2025-03-10 11:50:19.544,718, -593, 354, -3, 0, 0, -40, -9, -2, 358, 807, 664,≈
2025-03-10 11:50:19.607,738, -602, 358, 1, -3, 2, -40, -7, -2, 354, 816, 695,≈
2025-03-10 11:50:19.664,733, -583, 365, 5, 1, -4, -39, -9, -2, 363, 819, 717,≈
2025-03-10 11:50:19.722,731, -570, 363, 2, -1, -1, -39, -8, -4, 397, 820, 733,≈
2025-03-10 11:50:19.776,720, -622, 338, 8, -5, -8, -38, -9, -2, 423, 826, 752,≈
2025-03-10 11:50:19.832,794, -481, 470, -8, 11, 6, -40, -8, -2, 111, 849, 798,≈
2025-03-10 11:50:19.882,840, -709, 285, 10, 8, -3, -39, -8, -3, 248, 872, 877,≈
2025-03-10 11:50:19.952,583, -851, 367, 12, 3, -22, -41, -8, -3, 761, 908, 904,≈
2025-03-10 11:50:20.009,823, -369, 675, -10, -32, 9, -43, -7, -5, 667, 931, 875,≈
2025-03-10 11:50:20.062,724, -670, 229, -15, -6, -17, -40, -8, -2, 724, 938, 917,≈
2025-03-10 11:50:20.128,748, -477, 517, 25, -9, 0, -40, -9, -5, 805, 909, 861,≈
2025-03-10 11:50:20.182,579, -737, 351, -15, -13, 41, -40, -8, -3, 516, 876, 755,≈
2025-03-10 11:50:20.243,753, -597, 539, 5, 15, 7, -40, -9, -2, 360, 892, 836,≈
2025-03-10 11:50:20.302,817, -700, 461, -6, -7, -17, -40, -9, -3, 661, 926, 901,≈
2025-03-10 11:50:20.362,715, -404, 495, -18, -36, 9, -40, -8, -2, 335, 933, 839,≈
2025-03-10 11:50:20.422,586, -480, 395, -22, -19, -23, -41, -11, -2, 576, 945, 919,≈
2025-03-10 11:50:20.482,933, -360, 334, 20, -1, -2, -40, -11, -2, 731, 923, 883,≈
2025-03-10 11:50:20.542,585, -779, 224, -79, 4, 106, -39, -7, 0, 340, 881, 787,≈
2025-03-10 11:50:20.596,506, -904, 179, -11, 20, -20, -38, -5, 0, 251, 859, 753,≈
2025-03-10 11:50:21.020,832, -466, 406, 12, -19, -22, -40, -8, -3, 762, 871, 834,<
2025-03-10 11:50:21.082,828, -423, 419, 1, -13, -16, -37, -10, -4, 764, 871, 836,<
2025-03-10 11:50:21.132,731, -575, 360, -10, -7, 5, -39, -8, -4, 769, 878, 847,<
2025-03-10 11:50:21.194,757, -561, 408, 1, -1, -10, -42, -8, -3, 774, 883, 852,<
2025-03-10 11:50:21.259,741, -537, 384, -7, 0, -3, -39, -10, -3, 784, 888, 857,<
2025-03-10 11:50:21.312,773, -460, 331, 1, 2, -6, -39, -10, -3, 790, 899, 871,<
2025-03-10 11:50:21.372,744, -527, 379, -14, -2, 4, -42, -8, -5, 754, 913, 895,<
2025-03-10 11:50:21.431,706, -566, 410, 3, 5, -10, -41, -9, -2, 716, 931, 915,<
2025-03-10 11:50:21.482,756, -652, 420, 11, -8, 7, -41, -8, -3, 569, 934, 887,<
2025-03-10 11:50:21.545,944, -667, 394, -20, -24, 2, -41, -7, -3, 514, 948, 903,<
2025-03-10 11:50:21.606,868, -470, 338, -10, -30, 2, -42, -8, -1, 618, 959, 933,<
2025-03-10 11:50:21.660,769, -628, 302, 31, -11, 3, -41, -8, 0, 663, 917, 858,<
2025-03-10 11:50:21.722,779, -646, 326, -43, 0, 74, -40, -8, -2, 467, 838, 685,<
2025-03-10 11:50:21.775,577, -822, 292, 0, 7, -6, -39, -6, -1, 450, 829, 650,<
2025-03-10 11:50:21.832,756, -645, 323, 16, 6, -24, -38, -6, -1, 538, 823, 677,<
2025-03-10 11:50:21.893,752, -563, 355, -6, 6, -3, -40, -7, -2, 567, 813, 685,<
2025-03-10 11:50:21.944,715, -602, 332, -10, 4, 3, -41, -7, -1, 508, 815, 671,<
2025-03-10 11:50:22.615,767, -574, 371, 8, 5, -18, -41, -7, -3, 704, 836, 768,≤
2025-03-10 11:50:22.676,799, -566, 390, 15, 5, -18, -40, -8, -2, 738, 840, 781,≤
2025-03-10 11:50:22.732,738, -590, 354, -4, 0, -5, -41, -9, -1, 797, 857, 818,≤
2025-03-10 11:50:22.782,742, -582, 335, 3, 1, -14, -40, -8, -2, 814, 872, 827,≤
2025-03-10 11:50:22.844,716, -593, 348, 0, 2, -19, -40, -8, -1, 820, 888, 846,≤
2025-03-10 11:50:22.902,782, -555, 441, -9, 5, -1, -42, -8, -1, 798, 907, 865,≤
2025-03-10 11:50:22.962,750, -579, 359, -4, -1, -2, -42, -8, -3, 774, 920, 889,≤
2025-03-10 11:50:23.012,1148, -660, 215, 28, 5, 11, -42, -8, -1, 677, 925, 876,≤
2025-03-10 11:50:23.077,823, -358, 466, -12, -14, 15, -40, -9, -2, 557, 939, 864,≤
2025-03-10 11:50:23.143,657, -442, 267, -10, -29, -13, -40, -9, -3, 675, 958, 923,≤
2025-03-10 11:50:23.194,640, -347, 360, 40, -5, 9, -42, -9, -1, 707, 930, 853,≤
2025-03-10 11:50:23.258,714, -819, 188, -15, -9, 33, -40, -7, -1, 34, 874, 612,≤
2025-03-10 11:50:23.312,1000, -762, 488, -14, -13, -41, -41, -8, -1, 582, 945, 898,≤
2025-03-10 11:50:23.376,779, -678, 395, 8, -16, -5, -42, -8, -1, 558, 954, 915,≤
2025-03-10 11:50:23.432,974, -73, 266, -4, 16, 62, -42, -9, -1, 620, 881, 773,≤
2025-03-10 11:50:23.493,633, -1049, 163, -30, 6, 57, -40, -6, -2, 160, 806, 499,≤
2025-03-10 11:50:23.552,648, -721, 294, 12, 20, -26, -37, -6, 0, 496, 770, 577,≤
2025-03-10 11:50:23.610,774, -555, 333, 15, 17, -25, -39, -7, 0, 639, 751, 603,≤
2025-03-10 11:50:24.182,740, -561, 406, 2, -6, -12, -39, -8, -3, 567, 842, 686,>
2025-03-10 11:50:24.247,735, -551, 386, 0, -6, -10, -40, -10, -2, 568, 842, 694,>
2025-03-10 11:50:24.307,734, -571, 390, 1, -2, -3, -40, -8, -3, 591, 848, 722,>
2025-03-10 11:50:24.360,750, -539, 391, 0, -1, -5, -39, -9, -2, 585, 850, 744,>
2025-03-10 11:50:24.414,731, -575, 381, -5, 1, -1, -39, -9, -3, 565, 852, 752,>
2025-03-10 11:50:24.478,684, -675, 311, 12, 6, -33, -39, -9, -3, 463, 862, 775,>
2025-03-10 11:50:24.532,880, -376, 332, 24, 6, 1, -40, -9, -2, 377, 917, 865,>
2025-03-10 11:50:24.593,479, -475, 442, -2, -23, -5, -40, -10, -3, 756, 944, 896,>
2025-03-10 11:50:24.652,742, -770, 291, 14, -7, 19, -41, -10, -3, 605, 949, 893,>
2025-03-10 11:50:24.711,826, -539, 272, -14, -19, 33, -40, -8, -3, 42, 929, 841,>
2025-03-10 11:50:24.762,944, -438, 129, -7, -4, 25, -42, -8, -2, 485, 864, 755,>
2025-03-10 11:50:24.828,628, -759, 272, -31, -1, 39, -40, -7, -1, 543, 844, 703,>
2025-03-10 11:50:24.882,651, -711, 271, 13, 3, -28, -39, -8, 1, 604, 822, 687,>
2025-03-10 11:50:25.375,719, -574, 370, -2, 0, -5, -40, -8, -2, 495, 808, 667,≥
2025-03-10 11:50:25.432,743, -579, 367, -2, 0, -5, -39, -7, -1, 516, 812, 675,≥
2025-03-10 11:50:25.483,730, -584, 340, 0, -2, -5, -39, -8, -1, 637, 828, 740,≥
2025-03-10 11:50:25.547,729, -602, 354, 2, 0, -12, -40, -9, -1, 700, 845, 777,≥
2025-03-10 11:50:25.602,748, -564, 383, 0, 1, -6, -41, -6, -3, 714, 853, 802,≥
2025-03-10 11:50:25.662,738, -573, 373, -5, 1, -3, -41, -8, -1, 718, 860, 817,≥
2025-03-10 11:50:25.718,716, -585, 361, -5, 5, -6, -41, -8, -1, 712, 864, 831,≥
2025-03-10 11:50:25.777,1121, -10, 253, -41, 17, 4, -39, -8, -2, 584, 876, 845,≥
2025-03-10 11:50:25.834,819, -885, 514, 25, -5, -35, -40, -8, -1, 792, 931, 892,≥
2025-03-10 11:50:25.891,687, -627, 273, 28, 2, -7, -41, -11, -3, 785, 944, 873,≥
2025-03-10 11:50:25.952,734, -324, 323, -12, -15, 28, -40, -10, -2, 616, 939, 886,≥
2025-03-10 11:50:26.012,975, -638, 166, -11, -35, 28, -41, -8, -1, 527, 909, 830,≥
2025-03-10 11:50:26.075,513, -986, 247, 13, -2, -11, -38, -8, -2, 325, 905, 795,≥
2025-03-10 11:50:26.132,1218, -440, 653, -17, 20, -7, -41, -11, -2, 40, 932, 863,≥
2025-03-10 11:50:26.193,418, -320, 416, -13, -25, -25, -41, -10, -1, 696, 957, 921,≥
2025-03-10 11:50:26.252,776, -564, 331, 27, -14, -2, -43, -9, -1, 668, 933, 841,≥
2025-03-10 11:50:26.312,680, -431, 375, -87, -4, 122, -41, -8, -3, 362, 854, 625,≥
2025-03-10 11:50:26.362,549, -882, 217, 3, 15, -9, -38, -6, 0, 44, 801, 305,≥
2025-03-10 11:50:26.427,697, -663, 292, 20, 8, -30, -39, -6, 0, 259, 778, 263,≥
2025-03-10 11:50:26.482,808, -495, 396, 6, 9, -5, -41, -7, -2, 415, 740, 286,≥
2025-03-10 11:50:26.542,692, -619, 326, -7, 7, 13, -40, -8, -2, 402, 708, 272,≥
2025-03-10 11:50:27.604,724, -571, 379, 0, -2, -7, -40, -9, -3, 754, 866, 812,±
2025-03-10 11:50:27.663,731, -557, 375, 1, -2, -5, -39, -10, -3, 758, 868, 815,±
2025-03-10 11:50:27.722,724, -569, 394, -3, -6, 3, -40, -9, -3, 774, 874, 826,±
2025-03-10 11:50:27.777,728, -589, 366, 0, 0, -5, -39, -9, -3, 773, 879, 836,±
2025-03-10 11:50:27.832,742, -562, 386, -3, 0, 0, -40, -8, -2, 764, 880, 838,±
2025-03-10 11:50:27.890,684, -581, 380, -3, 0, 3, -39, -9, -3, 746, 878, 841,±
2025-03-10 11:50:27.945,743, -281, 57, -21, 23, 15, -39, -9, -3, 473, 886, 838,±
2025-03-10 11:50:28.009,1208, -645, 691, 3, -12, -58, -39, -9, -2, 784, 942, 910,±
2025-03-10 11:50:28.069,714, -424, 419, 22, -24, -2, -40, -10, -2, 831, 942, 861,±
2025-03-10 11:50:28.126,467, -868, 416, -17, 19, 36, -39, -9, -4, 788, 900, 864,±
2025-03-10 11:50:28.184,645, -402, 738, 4, 10, -12, -40, -9, -3, 750, 942, 894,±
2025-03-10 11:50:28.242,662, -436, 725, 1, -60, 23, -41, -7, -2, 619, 941, 869,±
2025-03-10 11:50:28.294,639, -476, 159, 2, 5, 59, -40, -8, -2, 528, 882, 734,±
2025-03-10 11:50:28.357,989, -764, 214, -5, 34, -6, -41, -9, -3, 41, 903, 825,±
2025-03-10 11:50:28.419,624, -415, 705, -36, -32, -57, -39, -9, -3, 641, 956, 933,±
2025-03-10 11:50:28.476,733, -664, 325, 24, -17, 4, -43, -9, -2, 390, 950, 885,±
2025-03-10 11:50:28.532,819, -64, 418, -61, 21, 110, -41, -9, -2, 497, 871, 741,±
2025-03-10 11:50:28.593,537, -1031, 165, -20, 12, 13, -39, -8, 0, 245, 827, 573,±
2025-03-10 11:50:29.045,708, -625, 330, 1, 2, -10, -40, -6, -2, 546, 800, 687,∓
2025-03-10 11:50:29.105,716, -622, 336, 2, 3, -11, -40, -8, -1, 565, 804, 701,∓
2025-03-10 11:50:29.163,719, -587, 339, 3, -4, -12, -41, -9, -2, 638, 827, 791,∓
2025-03-10 11:50:29.222,739, -560, 354, -3, 10, -7, -41, -9, 0, 691, 846, 828,∓
2025-03-10 11:50:29.279,677, -575, 331, -13, 8, 7, -41, -8, -1, 611, 849, 850,∓
2025-03-10 11:50:29.333,492, -209, 30, -19, 31, 12, -39, -8, -2, 329, 871, 861,∓
2025-03-10 11:50:29.397,1031, -384, 381, -15, -17, -63, -40, -9, -2, 805, 939, 914,∓
2025-03-10 11:50:29.459,647, -408, 320, 15, 2, -15, -43, -8, -1, 816, 950, 867,∓
2025-03-10 11:50:29.512,683, -286, 677, 15, -19, 22, -42, -8, -3, 803, 896, 737,∓
2025-03-10 11:50:29.574,579, -823, 383, 4, 0, 72, -41, -8, -2, 538, 846, 651,∓
2025-03-10 11:50:29.630,720, -761, 150, 32, 49, -9, -40, -8, -2, 446, 882, 786,∓
2025-03-10 11:50:29.692,887, -424, 500, -6, -18, -38, -41, -8, -2, 731, 947, 908,∓
2025-03-10 11:50:29.746,650, -618, 394, 17, -18, -3, -40, -8, -1, 750, 942, 871,∓
2025-03-10 11:50:29.807,580, -444, 370, -28, 28, 51, -41, -9, 0, 769, 886, 827,∓
2025-03-10 11:50:29.863,669, -725, 841, -13, 18, -19, -41, -8, -2, 721, 940, 876,∓
2025-03-10 11:50:29.929,739, -289, 517, -11, -41, 25, -39, -8, -1, 347, 949, 860,∓
2025-03-10 11:50:29.982,1100, -163, 146, -38, 14, 79, -40, -9, -1, 608, 851, 733,∓
2025-03-10 11:50:30.046,405, -891, 163, -58, 13, 87, -36, -5, 1, 605, 777, 677,∓
2025-03-10 11:50:30.105,450, -1011, 159, 12, 7, -15, -34, -4, 0, 600, 727, 503,∓
2025-03-10 11:50:30.163,703, -591, 290, 13, 7, -26, -37, -4, 0, 613, 705, 428,∓
2025-03-10 11:50:31.392,720, -638, 392, -2, -8, -6, -39, -8, -2, 381, 789, 620,∞
2025-03-10 11:50:31.458,712, -614, 368, -1, -8, -8, -40, -8, -2, 404, 796, 639,∞
2025-03-10 11:50:31.514,726, -615, 363, -3, 0, -4, -40, -7, -2, 444, 829, 704,∞
2025-03-10 11:50:31.573,727, -577, 352, -2, 2, -4, -40, -8, -2, 442, 845, 750,∞
2025-03-10 11:50:31.626,713, -601, 351, -3, 4, -6, -38, -8, 0, 457, 852, 789,∞
2025-03-10 11:50:31.686,662, -693, 305, 14, -3, -25, -39, -9, -2, 518, 871, 824,∞
2025-03-10 11:50:31.745,709, -507, 661, 5, 3, 10, -41, -10, -2, 371, 918, 846,∞
2025-03-10 11:50:31.802,750, -352, 502, -25, -23, 28, -41, -9, -1, 40, 917, 846,∞
2025-03-10 11:50:31.860,1057, -593, 219, 4, 12, 7, -40, -6, -2, 51, 870, 855,∞
2025-03-10 11:50:31.913,900, -918, 797, 9, -24, -59, -40, -9, -1, 567, 941, 908,∞
2025-03-10 11:50:31.978,730, -328, 372, -24, -19, 3, -42, -10, -3, 537, 950, 915,∞
2025-03-10 11:50:32.040,777, -584, 344, -5, 46, -9, -41, -10, -3, 598, 920, 901,∞
2025-03-10 11:50:32.096,547, -310, 761, 3, -13, 17, -41, -9, -2, 521, 943, 896,∞
2025-03-10 11:50:32.152,942, -468, 398, -19, -36, 19, -41, -9, -1, 46, 933, 847,∞
2025-03-10 11:50:32.210,1276, -371, 98, 0, 16, 38, -40, -8, -1, 319, 808, 726,∞
2025-03-10 11:50:32.273,596, -827, 153, -65, 29, 66, -38, -6, -1, 369, 776, 736,∞
2025-03-10 11:50:32.325,421, -978, 273, 8, 9, -41, -38, -6, -1, 580, 781, 771,∞
2025-03-10 11:50:33.072,701, -591, 328, 0, -2, -1, -40, -8, -1, 638, 840, 789,∑
2025-03-10 11:50:33.132,706, -613, 326, 3, -1, -3, -40, -9, -3, 638, 842, 789,∑
2025-03-10 11:50:33.190,713, -565, 355, 3, 1, -2, -41, -6, -3, 633, 844, 793,∑
2025-03-10 11:50:33.242,740, -544, 334, 4, 3, -4, -41, -8, -2, 598, 838, 799,∑
2025-03-10 11:50:33.297,748, -548, 357, -1, 0, 0, -39, -8, -2, 605, 831, 799,∑
2025-03-10 11:50:33.358,735, -586, 342, -1, 1, -1, -40, -8, -3, 621, 830, 798,∑
2025-03-10 11:50:33.412,708, -572, 356, 4, -1, 1, -39, -9, -1, 629, 823, 793,∑
2025-03-10 11:50:33.473,595, -686, 297, 13, -1, -12, -39, -8, -2, 527, 825, 781,∑
2025-03-10 11:50:33.532,1134, -872, 418, 18, 9, -26, -40, -6, -2, 617, 919, 870,∑
2025-03-10 11:50:33.591,743, -218, 302, -4, -17, -19, -42, -8, -2, 746, 955, 897,∑
2025-03-10 11:50:33.643,718, -468, 281, 30, 2, 0, -42, -8, -3, 747, 924, 831,∑
2025-03-10 11:50:33.706,935, -414, 357, -31, 7, 72, -39, -9, -2, 572, 841, 753,∑
2025-03-10 11:50:33.762,635, -797, 289, -4, 3, 0, -38, -7, -2, 476, 847, 772,∑
2025-03-10 11:50:33.817,742, -574, 358, 21, 2, -28, -40, -9, -2, 621, 855, 804,∑
2025-03-10 11:50:33.875,769, -556, 378, -3, 5, 5, -40, -6, -1, 651, 878, 839,∑
2025-03-10 11:50:33.932,736, -662, 531, 2, 3, -7, -40, -6, -2, 571, 933, 858,∑
2025-03-10 11:50:33.992,770, -730, 333, -19, -46, 15, -40, -9, -3, 21, 939, 822,∑
2025-03-10 11:50:34.042,793, -717, 124, 28, -14, 7, -40, -8, -2, 460, 860, 790,∑
2025-03-10 11:50:34.112,576, -703, 403, -34, 21, -4, -42, -7, -2, 721, 867, 838,∑
2025-03-10 11:50:34.167,701, -507, 320, 18, 1, -27, -40, -9, -2, 777, 890, 870,∑
2025-03-10 11:50:34.224,799, -743, 133, -10, 4, -5, -40, -8, -2, 657, 930, 883,∑
2025-03-10 11:50:34.282,754, -455, 261, 2, -28, 11, -40, -8, 0, 98, 949, 876,∑
2025-03-10 11:50:34.341,1187, -385, -12, 4, 17, 24, -39, -9, -1, 566, 885, 811,∑
2025-03-10 11:50:34.402,658, -673, 239, -83, 17, 104, -37, -5, 1, 544, 769, 758,∑
2025-03-10 11:50:34.459,373, -1061, 252, -26, -5, 18, -35, -3, 2, 447, 716, 592,∑
2025-03-10 11:50:34.517,648, -738, 249, 21, 3, -37, -36, -4, 1, 463, 655, 490,∑
2025-03-10 11:50:35.612,440, -855, 548, 3, -8, 11, -29, -3, -1, 622, 668, 531,∏
2025-03-10 11:50:35.673,373, -828, 571, -4, -25, 2, -29, -2, 1, 622, 668, 537,∏
2025-03-10 11:50:35.733,330, -801, -82, -12, -149, -69, -29, -2, 0, 624, 705, 574,∏
2025-03-10 11:50:35.791,559, -759, 376, 45, -9, -83, -34, -2, 2, 614, 699, 609,∏
2025-03-10 11:50:35.844,715, -553, 316, 38, 1, -70, -38, -5, -1, 550, 724, 651,∏
2025-03-10 11:50:35.909,921, -686, 375, 42, -10, -48, -39, -8, -1, 641, 782, 735,∏
2025-03-10 11:50:35.963,627, -445, 386, -7, 0, 3, -39, -7, -1, 594, 808, 788,∏
2025-03-10 11:50:36.019,602, -776, 300, 2, 5, -10, -39, -8, -2, 580, 810, 808,∏
2025-03-10 11:50:36.082,1398, -308, 359, -9, 41, 21, -39, -10, -2, 470, 849, 854,∏
2025-03-10 11:50:36.139,696, -666, 344, -1, -5, -7, -39, -8, -3, 611, 912, 889,∏
2025-03-10 11:50:36.192,663, -442, 423, -7, -37, 14, -40, -8, -2, 415, 923, 853,∏
2025-03-10 11:50:36.257,836, -735, 306, -60, -25, 10, -38, -7, -1, 51, 875, 853,∏
2025-03-10 11:50:36.319,576, -654, 348, -19, 37, -37, -41, -8, -1, 761, 902, 902,∏
2025-03-10 11:50:36.376,1072, -958, 679, 2, -4, -49, -41, -8, -2, 844, 948, 912,∏
2025-03-10 11:50:36.438,753, -549, 353, 10, -17, -3, -43, -9, -2, 839, 944, 885,∏
2025-03-10 11:50:36.492,724, -253, 409, -50, 11, 106, -42, -9, -2, 793, 897, 856,∏
2025-03-10 11:50:36.557,617, -1033, 218, -15, -4, 27, -40, -4, -2, 611, 840, 762,∏
2025-03-10 11:50:37.134,728, -569, 361, 6, 5, -4, -38, -6, -1, 612, 735, 692,√
2025-03-10 11:50:37.192,750, -555, 368, -1, 4, -1, -40, -7, 0, 617, 737, 691,√
2025-03-10 11:50:37.242,682, -661, 312, 0, -2, 2, -39, -7, -1, 628, 745, 699,√
2025-03-10 11:50:37.302,699, -624, 345, 3, 1, -9, -39, -7, -2, 636, 748, 698,√
2025-03-10 11:50:37.357,701, -606, 330, -2, -1, 2, -37, -7, -1, 629, 748, 706,√
2025-03-10 11:50:37.415,636, -666, 320, 4, 4, -10, -38, -8, -1, 595, 754, 729,√
2025-03-10 11:50:37.474,695, -521, 312, -8, 22, 9, -39, -7, -2, 476, 786, 793,√
2025-03-10 11:50:37.532,746, -678, 371, -21, -8, -23, -40, -8, -1, 721, 888, 872,√
2025-03-10 11:50:37.592,773, -501, 343, 30, -41, 16, -39, -8, -3, 732, 916, 854,√
2025-03-10 11:50:37.655,725, -377, 586, -37, -27, 18, -41, -8, -1, 70, 903, 839,√
2025-03-10 11:50:37.708,842, -408, 50, 7, 80, -43, -41, -7, 0, 633, 885, 892,√
2025-03-10 11:50:37.767,895, -577, 294, 26, 26, -49, -41, -8, -3, 850, 936, 905,√
2025-03-10 11:50:37.824,691, -333, 401, 7, -23, -14, -40, -8, -3, 852, 944, 875,√
2025-03-10 11:50:37.888,757, -249, 263, 0, -2, 20, -40, -10, -2, 849, 897, 837,√
2025-03-10 11:50:37.942,688, -874, 462, -25, 26, 72, -38, -7, -2, 673, 848, 802,√
2025-03-10 11:50:38.006,676, -744, 291, 34, 10, -72, -39, -8, -1, 788, 865, 850,√
2025-03-10 11:50:38.062,921, -812, 458, 3, 3, -20, -39, -8, -2, 817, 918, 909,√
2025-03-10 11:50:38.115,639, -628, 414, 0, 1, -12, -39, -8, -2, 823, 923, 911,√
2025-03-10 11:50:38.173,793, -406, 368, -2, 4, 4, -40, -9, -3, 796, 928, 910,√
2025-03-10 11:50:38.224,663, -673, 508, -2, 0, -4, -39, -8, -3, 775, 940, 918,√
2025-03-10 11:50:38.289,884, -563, 401, 5, -16, 19, -39, -7, -4, 744, 911, 877,√
2025-03-10 11:50:38.342,666, -544, 385, -52, -4, 79, -38, -7, -1, 694, 847, 820,√
2025-03-10 11:50:38.406,456, -947, 297, 5, -2, -12, -38, -6, -1, 697, 846, 808,√
2025-03-10 11:50:38.864,711, -619, 335, -1, -1, -1, -39, -7, -1, 506, 792, 657,∛
2025-03-10 11:50:38.923,707, -624, 330, 1, -1, -2, -39, -6, -1, 501, 792, 657,∛
2025-03-10 11:50:38.973,706, -623, 333, 6, 0, -7, -38, -7, -1, 509, 794, 669,∛
2025-03-10 11:50:39.032,735, -602, 351, 6, -3, -4, -39, -8, -2, 503, 791, 679,∛
2025-03-10 11:50:39.092,714, -618, 343, 7, -4, 1, -41, -9, -1, 453, 779, 686,∛
2025-03-10 11:50:39.142,737, -521, 359, -4, 4, 3, -40, -8, -1, 365, 778, 706,∛
2025-03-10 11:50:39.202,791, -584, 279, 14, 4, 4, -39, -9, -1, 272, 816, 831,∛
2025-03-10 11:50:39.262,556, -713, 366, 25, -13, -8, -39, -8, -2, 721, 893, 855,∛
2025-03-10 11:50:39.325,695, -291, 564, -23, -52, 19, -40, -8, -3, 226, 916, 814,∛
2025-03-10 11:50:39.382,865, -880, -251, -40, 7, -15, -40, -7, 0, 42, 865, 846,∛
2025-03-10 11:50:39.440,946, -515, 383, 2, 37, -20, -38, -8, -1, 738, 867, 880,∛
2025-03-10 11:50:39.502,438, -506, 630, 35, -7, -53, -39, -11, -5, 843, 936, 851,∛
2025-03-10 11:50:39.556,657, -497, 346, 25, -19, -5, -40, -10, -4, 846, 901, 777,∛
2025-03-10 11:50:39.617,407, -362, 379, -62, 51, 138, -41, -10, -2, 766, 808, 801,∛
2025-03-10 11:50:39.682,632, -867, 183, 0, 19, -57, -36, -7, -3, 751, 818, 822,∛
2025-03-10 11:50:39.739,625, -1123, 504, 10, 27, -17, -38, -8, -4, 833, 891, 907,∛
2025-03-10 11:50:39.792,703, -679, 423, 4, 10, -13, -40, -8, -2, 796, 928, 922,∛
2025-03-10 11:50:39.856,997, -712, 261, -4, -10, 8, -38, -10, -3, 681, 931, 895,∛
2025-03-10 11:50:39.916,1048, -805, 459, -22, -25, -8, -39, -8, -3, 748, 946, 930,∛
2025-03-10 11:50:39.973,727, -569, 500, 4, -14, 0, -40, -8, -2, 814, 934, 928,∛
2025-03-10 11:50:40.032,510, -876, 373, -15, 17, 21, -40, -7, -2, 834, 905, 908,∛
2025-03-10 11:50:40.092,601, -498, 514, 4, 7, -11, -40, -9, -3, 824, 945, 927,∛
2025-03-10 11:50:40.152,794, -553, 553, -3, -51, 28, -37, -8, -3, 794, 927, 890,∛
2025-03-10 11:50:40.207,755, -420, 535, -81, 10, 114, -37, -8, -3, 778, 825, 836,∛
2025-03-10 11:50:40.271,370, -1120, 206, -36, 3, 32, -34, -4, 1, 674, 810, 808,∛
2025-03-10 11:50:40.324,613, -758, 298, 8, -5, -27, -34, -5, 0, 640, 787, 727,∛
2025-03-10 11:50:41.625,741, -618, 300, -5, -2, -7, -40, -6, -1, 831, 837, 772,∜
2025-03-10 11:50:41.684,711, -593, 292, -5, 1, -6, -40, -8, -2, 834, 840, 773,∜
2025-03-10 11:50:41.742,741, -584, 320, -8, 5, -2, -39, -8, -2, 830, 862, 745,∜
2025-03-10 11:50:41.792,696, -626, 323, -13, -2, -5, -41, -8, 0, 820, 878, 729,∜
2025-03-10 11:50:41.855,752, -600, 295, -4, -3, -6, -39, -7, 0, 820, 886, 733,∜
2025-03-10 11:50:41.917,703, -636, 319, -1, -5, -13, -41, -7, -1, 822, 896, 737,∜
2025-03-10 11:50:41.973,958, -123, 209, -27, 12, 0, -41, -8, -1, 810, 907, 781,∜
2025-03-10 11:50:42.023,707, -641, 235, -11, 5, 3, -40, -7, 0, 759, 912, 839,∜
2025-03-10 11:50:42.082,754, -593, 280, 29, 7, 1, -40, -7, 0, 729, 927, 853,∜
2025-03-10 11:50:42.142,967, -610, 234, 12, -28, 12, -41, -8, -3, 668, 943, 862,∜
2025-03-10 11:50:42.192,880, -534, 201, -7, -29, 4, -42, -8, -1, 50, 941, 829,∜
2025-03-10 11:50:42.262,1206, -700, 290, 47, -24, 32, -41, -7, -2, 437, 828, 651,∜
2025-03-10 11:50:42.322,678, -527, 366, -57, 15, 91, -39, -8, -1, 562, 793, 618,∜
2025-03-10 11:50:42.373,435, -1017, 226, -12, 15, 5, -37, -6, 1, 589, 761, 587,∜
2025-03-10 11:50:42.942,739, -567, 372, 5, -4, -18, -38, -7, 0, 738, 809, 670,∫
2025-03-10 11:50:43.004,750, -557, 360, 2, -4, -16, -39, -8, -2, 738, 813, 677,∫
2025-03-10 11:50:43.056,754, -600, 345, 2, -2, -6, -39, -8, -2, 758, 828, 706,∫
2025-03-10 11:50:43.117,722, -652, 346, 2, -5, -4, -39, -6, -1, 768, 837, 720,∫
2025-03-10 11:50:43.173,709, -591, 354, -4, 2, -11, -39, -7, -2, 790, 851, 756,∫
2025-03-10 11:50:43.232,858, -540, 393, -16, 15, 0, -38, -6, -1, 693, 872, 829,∫
2025-03-10 11:50:43.288,788, -705, 264, 57, 23, 0, -39, -9, -3, 562, 918, 850,∫
2025-03-10 11:50:43.352,840, -249, 622, -14, -67, 30, -41, -8, -3, 387, 932, 856,∫
2025-03-10 11:50:43.405,635, -515, -6, -8, 74, -13, -41, -8, -2, 810, 876, 855,∫
2025-03-10 11:50:43.465,893, -688, 345, 13, 25, -25, -40, -7, -1, 838, 912, 883,∫
2025-03-10 11:50:43.523,733, -687, 458, -1, -26, -3, -40, -10, -2, 765, 945, 883,∫
2025-03-10 11:50:43.589,465, -249, 512, -13, -33, 46, -42, -7, -2, 479, 911, 859,∫
2025-03-10 11:50:43.642,937, -282, 222, -64, 40, 47, -39, -7, -1, 616, 827, 816,∫
2025-03-10 11:50:43.705,422, -941, 261, 4, 16, -58, -38, -6, -1, 825, 862, 866,∫
2025-03-10 11:50:43.763,832, -672, 538, 1, 10, -15, -40, -7, -2, 828, 933, 889,∫
2025-03-10 11:50:43.822,676, -720, 324, -33, -103, 23, -40, -6, -1, 52, 949, 866,∫
2025-03-10 11:50:43.872,743, -423, 390, 42, -30, 43, -39, -7, 2, 53, 861, 759,∫
2025-03-10 11:50:43.938,750, -411, 296, -59, 31, 103, -39, -6, 0, 532, 707, 630,∫
2025-03-10 11:50:43.992,362, -1104, 274, -33, 0, 38, -37, -4, 4, 562, 653, 455,∫
2025-03-10 11:50:44.055,604, -791, 230, 16, 6, -30, -36, -3, 3, 511, 642, 52,∫
2025-03-10 11:50:44.105,701, -630, 228, 4, 1, -1, -35, -4, 3, 276, 569, 44,∫
2025-03-10 11:50:45.652,693, -637, 321, -1, 1, -6, -38, -7, -2, 372, 726, 638,∮
2025-03-10 11:50:45.715,710, -624, 321, -1, 2, -6, -39, -7, 0, 380, 726, 640,∮
2025-03-10 11:50:45.766,681, -628, 342, 1, 1, -8, -38, -7, 0, 455, 750, 687,∮
2025-03-10 11:50:45.823,721, -603, 330, 2, -1, -7, -39, -7, -1, 482, 761, 704,∮
2025-03-10 11:50:45.882,712, -592, 343, 0, 0, -5, -41, -8, -1, 483, 769, 708,∮
2025-03-10 11:50:45.940,641, -679, 314, 6, -2, -15, -38, -9, -2, 477, 794, 748,∮
2025-03-10 11:50:45.992,872, -483, 407, 3, 9, 0, -39, -8, -2, 525, 843, 850,∮
2025-03-10 11:50:46.055,805, -541, 283, -1, 1, -15, -41, -8, -1, 784, 904, 890,∮
2025-03-10 11:50:46.112,731, -677, 404, 22, 2, -19, -40, -8, -3, 796, 931, 892,∮
2025-03-10 11:50:46.169,494, -448, 360, 3, -41, 18, -41, -9, -3, 605, 938, 882,∮
2025-03-10 11:50:46.222,818, -327, 467, -18, -20, 28, -40, -8, -2, 208, 919, 855,∮
2025-03-10 11:50:46.288,851, -775, 204, 4, 24, -12, -41, -9, 1, 262, 909, 889,∮
2025-03-10 11:50:46.342,544, -820, 395, -4, 6, -23, -41, -9, -2, 719, 946, 935,∮
2025-03-10 11:50:46.403,750, -485, 489, 17, -9, -1, -40, -8, -2, 810, 933, 909,∮
2025-03-10 11:50:46.456,774, -624, 345, -69, 4, 106, -39, -6, 0, 597, 860, 835,∮
2025-03-10 11:50:46.513,508, -893, 218, -23, 3, 30, -38, -5, 0, 498, 828, 708,∮
2025-03-10 11:50:46.572,632, -723, 285, 9, 6, -14, -37, -6, 1, 596, 779, 630,∮
2025-03-10 11:50:48.152,717, -598, 358, -2, 0, -5, -40, -7, -2, 556, 766, 720,∂
2025-03-10 11:50:48.205,707, -596, 354, 0, 1, -6, -39, -9, -2, 557, 765, 720,∂
2025-03-10 11:50:48.266,716, -590, 361, -2, 0, -3, -39, -9, -3, 563, 780, 734,∂
2025-03-10 11:50:48.324,687, -644, 342, 3, 5, -10, -40, -8, -1, 602, 798, 800,∂
2025-03-10 11:50:48.379,759, -453, 357, 7, 5, -6, -41, -7, -2, 678, 828, 857,∂
2025-03-10 11:50:48.438,740, -564, 350, 26, 10, 2, -39, -7, -3, 664, 894, 896,∂
2025-03-10 11:50:48.492,808, -490, 485, 7, -31, -18, -40, -8, -3, 844, 933, 879,∂
2025-03-10 11:50:48.557,624, -688, 344, 24, -10, -1, -40, -9, -3, 807, 944, 871,∂
2025-03-10 11:50:48.619,1560, -452, 377, -19, -38, 38, -41, -11, -4, 455, 931, 839,∂
2025-03-10 11:50:48.672,881, -489, -46, -43, 73, 31, -42, -8, -3, 491, 840, 787,∂
2025-03-10 11:50:48.732,989, 1519, 170, -41, 21, 7, -41, -8, -2, 719, 892, 878,∂
2025-03-10 11:50:48.792,1098, -558, 913, 0, -34, -15, -40, -8, -2, 729, 949, 894,∂
2025-03-10 11:50:48.854,694, -839, 69, -16, -69, 12, -42, -9, -1, 472, 936, 847,∂
2025-03-10 11:50:48.913,760, -323, 315, -36, 40, 71, -41, -8, -1, 549, 822, 670,∂
2025-03-10 11:50:48.972,591, -827, 234, -23, 18, 20, -37, -6, -1, 535, 781, 624,∂
2025-03-10 11:50:49.022,626, -715, 313, 2, 5, -12, -37, -5, 1, 578, 744, 505,∂
2025-03-10 11:50:49.085,730, -604, 311, 5, 1, -10, -38, -5, 0, 575, 737, 459,∂
2025-03-10 11:50:49.912,714, -622, 329, 1, 1, -1, -40, -8, 0, 510, 815, 657,∇
2025-03-10 11:50:49.970,726, -621, 335, 1, 1, -2, -41, -8, -2, 512, 813, 656,∇
2025-03-10 11:50:50.024,718, -618, 324, 0, 0, -1, -37, -9, -1, 517, 815, 661,∇
2025-03-10 11:50:50.086,728, -616, 324, -1, 1, -4, -39, -7, -1, 512, 815, 666,∇
2025-03-10 11:50:50.142,728, -619, 333, -1, 0, -3, -39, -7, 0, 528, 821, 680,∇
2025-03-10 11:50:50.192,744, -653, 321, 10, -2, -11, -39, -7, -1, 582, 836, 713,∇
2025-03-10 11:50:50.255,699, -671, 326, 2, 5, -33, -41, -7, -2, 721, 857, 791,∇
2025-03-10 11:50:50.314,743, -585, 301, -15, 8, -3, -39, -6, -2, 726, 895, 848,∇
2025-03-10 11:50:50.372,703, -689, 56, 25, 23, -12, -40, -9, -2, 611, 935, 884,∇
2025-03-10 11:50:50.428,1398, -74, 669, 9, -29, 22, -40, -9, -2, 92, 937, 842,∇
2025-03-10 11:50:50.487,932, -1251, 71, -19, -20, -8, -38, -8, -2, 379, 849, 754,∇
2025-03-10 11:50:50.547,572, -944, 398, 15, 8, -47, -41, -8, -3, 763, 880, 854,∇
2025-03-10 11:50:50.603,421, -389, 645, 9, -8, -5, -38, -10, -3, 724, 940, 863,∇
2025-03-10 11:50:50.662,765, -598, 601, 7, -43, 11, -41, -9, -2, 564, 948, 860,∇
2025-03-10 11:50:50.722,729, -572, 350, 6, -10, 2, -42, -9, -2, 596, 935, 859,∇
2025-03-10 11:50:50.772,337, -433, 239, -3, 7, 22, -41, -9, -1, 438, 919, 875,∇
2025-03-10 11:50:50.838,774, -470, 474, -2, -2, 9, -40, -8, -2, 218, 902, 861,∇
2025-03-10 11:50:50.892,951, -77, 397, -49, -11, 61, -40, -9, -2, 612, 868, 773,∇
2025-03-10 11:50:50.953,460, -1052, 161, -22, 3, 27, -38, -6, 0, 490, 859, 740,∇
2025-03-10 11:50:51.007,621, -686, 276, 18, 4, -32, -36, -6, 0, 617, 832, 708,∇
2025-03-10 11:50:52.052,711, -603, 338, -1, 0, -4, -40, -7, -3, 587, 793, 647,∆
2025-03-10 11:50:52.112,706, -605, 334, 0, -1, -3, -39, -7, -1, 593, 797, 653,∆
2025-03-10 11:50:52.166,722, -604, 327, 0, 0, -3, -41, -10, 0, 600, 804, 671,∆
2025-03-10 11:50:52.223,710, -615, 343, -2, 0, -2, -40, -9, -1, 602, 808, 686,∆
2025-03-10 11:50:52.281,676, -600, 318, -4, 1, -6, -40, -6, -1, 581, 814, 706,∆
2025-03-10 11:50:52.336,742, -582, 345, -1, 1, -2, -39, -6, -1, 560, 811, 712,∆
2025-03-10 11:50:52.392,716, -634, 331, -3, 1, 0, -39, -6, -1, 557, 815, 712,∆
2025-03-10 11:50:52.442,721, -588, 351, -1, 1, -3, -40, -8, 0, 562, 819, 722,∆
2025-03-10 11:50:52.505,723, -623, 330, -1, 0, -1, -38, -8, -2, 571, 820, 731,∆
2025-03-10 11:50:52.568,728, -628, 346, -1, -1, -2, -38, -8, -2, 591, 822, 739,∆
2025-03-10 11:50:52.621,739, -600, 347, -3, 1, 1, -40, -7, -1, 582, 819, 721,∆
2025-03-10 11:50:52.673,738, -605, 345, 0, 1, -6, -39, -8, -1, 590, 826, 736,∆
2025-03-10 11:50:52.735,723, -623, 325, 6, 2, -13, -39, -8, -2, 588, 829, 749,∆
2025-03-10 11:50:52.792,757, -552, 371, -1, 1, 0, -40, -8, -1, 556, 836, 763,∆
2025-03-10 11:50:52.846,721, -601, 334, 0, 1, -1, -39, -9, -2, 577, 837, 769,∆
2025-03-10 11:50:52.903,736, -572, 355, -1, 0, 1, -42, -6, -2, 590, 831, 767,∆
2025-03-10 11:50:52.955,728, -584, 343, -2, 1, -1, -39, -7, -1, 598, 831, 767,∆
2025-03-10 11:50:53.018,728, -584, 346, 1, 1, -3, -41, -8, 0, 597, 829, 769,∆
2025-03-10 11:50:53.070,729, -588, 340, -2, 0, 0, -41, -9, -2, 592, 828, 766,∆
2025-03-10 11:50:53.122,724, -583, 364, -2, 1, -1, -40, -9, -3, 588, 829, 766,∆
2025-03-10 11:50:53.185,736, -606, 346, -2, 1, -1, -39, -8, -1, 589, 830, 767,∆
2025-03-10 11:50:53.242,731, -596, 354, -1, 0, 0, -39, -8, -2, 586, 828, 767,∆
2025-03-10 11:50:53.301,744, -595, 379, -2, 0, -1, -38, -8, -2, 587, 832, 770,∆
2025-03-10 11:50:53.354,742, -611, 357, -2, 1, -1, -41, -8, -2, 594, 831, 770,∆
2025-03-10 11:50:53.412,749, -598, 350, -4, 2, 0, -39, -8, -2, 601, 828, 767,∆
2025-03-10 11:50:53.469,726, -601, 342, -4, 2, 0, -40, -9, -2, 603, 832, 771,∆
2025-03-10 11:50:53.522,740, -574, 362, -1, 0, -4, -39, -7, -3, 637, 842, 786,∆
2025-03-10 11:50:53.582,709, -587, 344, -1, 2, -9, -39, -8, -2, 743, 849, 816,∆
2025-03-10 11:50:53.637,747, -594, 352, -6, 4, -9, -40, -7, -3, 776, 856, 830,∆
2025-03-10 11:50:53.692,709, -590, 333, -2, 8, -19, -40, -9, -2, 815, 864, 845,∆
2025-03-10 11:50:53.754,765, -609, 354, 10, 3, -20, -40, -8, -3, 834, 880, 848,∆
2025-03-10 11:50:53.812,727, -567, 358, -4, 6, -3, -40, -8, -2, 840, 910, 862,∆
2025-03-10 11:50:53.872,648, -713, 194, 28, 19, -4, -41, -9, -2, 772, 940, 885,∆
2025-03-10 11:50:53.935,1874, -699, 140, -4, -24, 15, -41, -10, -3, 448, 942, 863,∆
2025-03-10 11:50:53.992,1119, -1237, -17, -17, -13, -10, -40, -10, -3, 579, 862, 842,∆
2025-03-10 11:50:54.054,690, -346, 226, -3, 16, -3, -40, -9, -3, 820, 895, 874,∆
2025-03-10 11:50:54.112,820, -676, 518, 25, -17, 9, -40, -9, -4, 764, 943, 855,∆
2025-03-10 11:50:54.172,916, -480, 130, -10, -53, 22, -41, -8, -3, 530, 939, 837,∆
2025-03-10 11:50:54.234,723, -395, 26, -14, 37, 25, -42, -9, -2, 682, 857, 812,∆
2025-03-10 11:50:54.287,3318, 61, 70, -60, 22, -3, -41, -8, -3, 348, 865, 836,∆
2025-03-10 11:50:54.353,1259, -629, 681, -2, -22, -55, -41, -10, -3, 692, 953, 916,∆
2025-03-10 11:50:54.411,535, -429, 297, 17, -19, -1, -41, -10, -1, 691, 949, 878,∆
2025-03-10 11:50:54.472,779, 104, 387, -74, 15, 120, -42, -10, -3, 729, 849, 764,∆
2025-03-10 11:50:54.534,586, -1094, 159, -34, -1, 47, -36, -6, -1, 340, 784, 532,∆
2025-03-10 11:50:54.587,630, -748, 292, 8, 3, -9, -36, -6, 2, 412, 715, 98,∆
