Timestamp,Acc_X,Acc_Y,Acc_Z,Gyro_X,Gyro_Y,Gyro_Z,Mag_X,Mag_Y,Mag_Z,Force1,Force2,Force3,Letter
2025-03-10 13:46:48.577,487, 616, 648, 0, 2, 1, 1, 0, -1, 618, 283, 392,noise
2025-03-10 13:46:48.627,484, 613, 648, 0, 1, 1, 1, 0, 0, 614, 264, 383,noise
2025-03-10 13:46:48.671,484, 604, 655, 2, -1, 2, 1, 1, -1, 612, 268, 365,noise
2025-03-10 13:46:48.728,483, 604, 649, 4, -3, 2, 0, 1, 0, 606, 236, 340,noise
2025-03-10 13:46:48.778,497, 616, 634, 2, -3, 1, 1, 0, 0, 600, 95, 309,noise
2025-03-10 13:46:48.827,502, 620, 633, 1, -1, 1, 1, 0, 0, 595, 45, 294,noise
2025-03-10 13:46:48.877,503, 621, 640, -1, 0, 0, 1, 0, 1, 580, 27, 264,noise
2025-03-10 13:46:48.929,507, 615, 638, 0, 0, -1, 1, 0, 0, 584, 42, 298,noise
2025-03-10 13:46:48.980,503, 617, 636, -1, 0, -2, 0, -1, -1, 571, 28, 297,noise
2025-03-10 13:46:49.031,500, 625, 633, -1, 0, -1, 0, -1, 0, 576, 33, 310,noise
2025-03-10 13:46:49.084,498, 609, 639, -1, 0, -1, 1, -1, 0, 569, 32, 309,noise
2025-03-10 13:46:49.134,494, 618, 638, -1, 0, 0, 1, 0, 0, 577, 37, 313,noise
2025-03-10 13:46:49.187,500, 619, 629, -1, 0, 0, 0, -2, -1, 574, 46, 319,noise
2025-03-10 13:46:49.237,492, 618, 633, -1, 0, -1, 0, 0, 0, 564, 22, 280,noise
2025-03-10 13:46:49.287,497, 617, 632, 1, -1, 0, 2, 0, -1, 566, 22, 249,noise
2025-03-10 13:46:49.343,503, 621, 617, -2, 0, -1, 1, -1, -1, 574, 42, 280,noise
2025-03-10 13:46:49.393,496, 619, 632, -4, 1, -2, 0, -1, 1, 570, 32, 301,noise
2025-03-10 13:46:49.443,496, 622, 625, -4, 1, -3, 0, -1, 0, 571, 34, 309,noise
2025-03-10 13:46:49.497,490, 621, 640, -3, 1, -2, 1, -1, 0, 581, 63, 327,noise
2025-03-10 13:46:49.548,489, 621, 637, -1, 0, 0, 0, -1, -1, 574, 64, 322,noise
2025-03-10 13:46:49.597,497, 615, 637, -1, 0, 0, 1, -1, -1, 578, 51, 321,noise
2025-03-10 13:46:49.649,500, 627, 629, 0, 0, 1, 0, -1, 1, 585, 41, 323,noise
2025-03-10 13:46:49.701,505, 613, 629, -3, 1, -1, -1, 0, 0, 586, 51, 321,noise
2025-03-10 13:46:49.751,480, 612, 645, 0, 0, -1, 0, 0, -1, 582, 39, 325,noise
2025-03-10 13:46:49.807,494, 627, 632, 1, -1, 0, -1, -2, -1, 574, 32, 316,noise
2025-03-10 13:46:49.851,503, 620, 630, 1, -1, 1, 1, 0, 0, 579, 44, 304,noise
2025-03-10 13:46:49.909,510, 604, 627, -2, 1, -1, 0, -1, 0, 579, 33, 296,noise
2025-03-10 13:46:49.959,499, 617, 633, -2, -1, -3, -1, 0, -1, 581, 45, 317,noise
2025-03-10 13:46:50.014,494, 623, 638, -1, 0, -2, 1, 0, 1, 571, 35, 318,noise
2025-03-10 13:46:50.067,488, 621, 627, -2, 0, -1, 0, -2, -1, 581, 49, 331,noise
2025-03-10 13:46:50.117,493, 617, 635, -1, 0, -1, 0, 0, 0, 574, 28, 329,noise
2025-03-10 13:46:50.167,491, 618, 637, -2, 0, -1, 1, -2, 0, 566, 20, 321,noise
2025-03-10 13:46:50.217,493, 617, 631, -2, 0, -1, 2, -1, -1, 567, 29, 338,noise
2025-03-10 13:46:50.277,494, 615, 637, -1, -1, -1, 2, -1, -1, 578, 61, 352,noise
2025-03-10 13:46:50.330,497, 618, 631, -2, 0, -1, 1, 0, -2, 575, 43, 350,noise
2025-03-10 13:46:50.377,502, 625, 638, 0, -1, -1, 0, -2, 0, 569, 35, 345,noise
2025-03-10 13:46:50.433,496, 616, 634, -1, 0, 0, 0, 1, -1, 577, 32, 344,noise
2025-03-10 13:46:50.481,495, 618, 633, -1, 0, 0, 2, 0, -1, 578, 16, 315,noise
2025-03-10 13:46:50.527,491, 628, 630, -1, 0, 0, 1, 0, 0, 585, 32, 318,noise
2025-03-10 13:46:50.577,494, 624, 629, -1, 0, 0, 1, -1, -1, 593, 42, 306,noise
2025-03-10 13:46:50.633,502, 620, 632, -2, 0, 0, 0, 0, -1, 591, 45, 312,noise
2025-03-10 13:46:50.687,488, 629, 638, -1, 0, -1, 1, -2, -1, 591, 44, 300,noise
2025-03-10 13:46:50.737,494, 620, 627, 0, 0, 0, 1, -1, 0, 585, 34, 302,noise
2025-03-10 13:46:50.787,493, 617, 636, -1, 0, 0, -1, -2, 0, 590, 53, 315,noise
2025-03-10 13:46:50.842,499, 614, 631, -3, 1, -1, 0, 0, 0, 595, 33, 319,noise
2025-03-10 13:47:23.817,642, 630, 492, 35, -2, -11, -18, -7, -1, 832, 73, 71,A
2025-03-10 13:47:23.872,640, 661, 487, 28, -3, -11, -15, -7, -2, 835, 73, 73,A
2025-03-10 13:47:23.922,687, 761, 345, -7, 8, -7, -15, -7, 0, 842, 49, 44,A
2025-03-10 13:47:23.977,649, 705, 518, -2, 15, 4, -15, -6, 0, 864, 72, 76,A
2025-03-10 13:47:24.036,583, 732, 465, -14, -42, 24, -17, -6, 2, 890, 546, 135,A
2025-03-10 13:47:24.089,637, 630, 400, 6, -49, 27, -19, -5, 5, 910, 736, 255,A
2025-03-10 13:47:24.147,634, 582, 364, -9, 3, 20, -19, -7, 10, 923, 786, 394,A
2025-03-10 13:47:24.202,595, 447, 349, -22, 5, 12, -20, -4, 9, 926, 804, 475,A
2025-03-10 13:47:24.260,654, 498, 278, -16, -7, -16, -17, -4, 7, 934, 833, 524,A
2025-03-10 13:47:24.322,739, 668, 310, -20, -2, -28, -19, -4, 4, 935, 849, 541,A
2025-03-10 13:47:24.377,597, 689, 602, 16, -18, 13, -18, -5, 7, 943, 865, 538,A
2025-03-10 13:47:24.436,830, 540, 143, -5, -4, -6, -20, -3, 8, 939, 855, 502,A
2025-03-10 13:47:24.494,842, 552, 467, -38, 60, -51, -19, -3, 4, 920, 795, 442,A
2025-03-10 13:47:24.547,636, 632, 385, -54, 59, -86, -19, -5, 0, 911, 758, 376,A
2025-03-10 13:47:24.608,525, 756, 857, -21, -8, -86, -21, -7, -5, 906, 730, 323,A
2025-03-10 13:47:24.670,354, 718, 497, -69, 69, -82, -25, -10, -3, 898, 727, 256,A
2025-03-10 13:47:24.727,-30, 619, 948, 10, -22, 76, -24, -9, -4, 879, 658, 218,A
2025-03-10 13:47:24.787,248, 476, 618, 47, -78, 116, -27, -9, 2, 881, 571, 216,A
2025-03-10 13:47:24.838,507, 621, 365, 46, -26, 67, -26, -8, 6, 890, 669, 247,A
2025-03-10 13:47:24.898,757, 561, 498, 27, -30, 68, -21, -7, 4, 905, 759, 289,A
2025-03-10 13:47:24.957,836, 557, 298, 2, 8, 41, -17, -1, 8, 922, 839, 360,A
2025-03-10 13:47:25.007,1071, 606, -89, -10, -30, -9, -18, -1, 9, 939, 889, 393,A
2025-03-10 13:47:25.071,776, 464, 632, -6, -31, -2, -18, 0, 9, 951, 919, 526,A
2025-03-10 13:47:25.127,645, 580, 658, -8, -60, 16, -18, -1, 10, 946, 928, 641,A
2025-03-10 13:47:25.185,519, 395, 340, 59, -9, -18, -19, 0, 14, 956, 945, 550,A
2025-03-10 13:47:25.239,933, 700, -185, 16, 66, 28, -16, 1, 16, 958, 932, 506,A
2025-03-10 13:47:25.301,778, 106, 637, -51, -42, -46, -16, 0, 13, 954, 929, 658,A
2025-03-10 13:47:25.357,699, 341, 570, 6, -30, -4, -18, 0, 13, 950, 941, 619,A
2025-03-10 13:47:25.412,800, 604, 177, 21, 61, 47, -18, 0, 13, 967, 941, 556,A
2025-03-10 13:47:25.468,451, 539, 554, -6, -8, -54, -17, 1, 11, 938, 911, 570,A
2025-03-10 13:47:25.529,957, 115, 601, 16, -40, -10, -18, 0, 13, 936, 942, 406,A
2025-03-10 13:47:25.587,674, 541, 239, 24, 35, 34, -18, 1, 15, 954, 940, 619,A
2025-03-10 13:47:25.641,865, 427, 125, -42, 128, -108, -18, 0, 7, 941, 913, 598,A
2025-03-10 13:47:25.707,518, 463, 874, -38, 118, -197, -17, -4, -7, 910, 788, 458,A
2025-03-10 13:48:07.463,567, 903, 524, 0, -19, 10, -5, -11, -1, 20, 544, 457,B
2025-03-10 13:48:07.517,560, 766, 549, -13, -21, 11, -5, -11, -1, 24, 537, 462,B
2025-03-10 13:48:07.577,533, 686, 525, 12, -34, -22, -3, -10, 2, 54, 446, 281,B
2025-03-10 13:48:07.627,589, 877, 323, -6, -21, -2, -7, -10, 4, 363, 240, 64,B
2025-03-10 13:48:07.687,492, 599, 603, -41, 15, 11, -7, -9, 5, 703, 189, 216,B
2025-03-10 13:48:07.747,431, 561, 568, -23, 14, 22, -6, -9, 4, 717, 178, 221,B
2025-03-10 13:48:07.796,522, 586, 521, 2, -1, 9, -3, -7, 5, 600, 45, 212,B
2025-03-10 13:48:07.856,607, 651, 546, 37, -16, -16, -4, -8, 5, 549, 41, 223,B
2025-03-10 13:48:07.909,659, 668, 633, -6, -10, -5, -4, -7, 7, 707, 36, 218,B
2025-03-10 13:48:07.962,542, 807, 561, -15, 9, 8, -3, -8, 7, 747, 55, 372,B
2025-03-10 13:48:08.020,413, 668, 536, -21, -10, 23, -5, -6, 7, 822, 453, 488,B
2025-03-10 13:48:08.077,492, 461, 492, -20, -7, 41, -6, -5, 10, 871, 615, 624,B
2025-03-10 13:48:08.130,590, 528, 499, 3, -30, 41, -8, -2, 13, 894, 734, 689,B
2025-03-10 13:48:08.191,1011, 665, 735, 21, -45, 27, -7, -3, 17, 908, 833, 735,B
2025-03-10 13:48:08.246,728, 620, 533, 11, -19, 7, -8, -5, 18, 918, 849, 741,B
2025-03-10 13:48:08.307,785, 523, 460, 23, -46, -27, -11, -1, 18, 917, 845, 751,B
2025-03-10 13:48:08.360,699, 598, 221, -11, -8, -32, -15, -3, 20, 911, 866, 741,B
2025-03-10 13:48:08.423,426, 597, 302, -17, -27, 18, -14, -3, 20, 903, 867, 729,B
2025-03-10 13:48:08.479,692, 596, 349, -44, -40, -3, -15, -3, 19, 916, 878, 739,B
2025-03-10 13:48:08.541,680, 694, 539, -5, -52, 11, -16, 0, 18, 925, 888, 750,B
2025-03-10 13:48:08.598,589, 512, 224, -10, 50, 20, -18, -1, 17, 929, 890, 756,B
2025-03-10 13:48:08.657,1128, 706, 261, -13, -4, 3, -15, -1, 15, 941, 896, 742,B
2025-03-10 13:48:08.711,652, 481, 647, -19, 8, -8, -15, 0, 12, 938, 901, 746,B
2025-03-10 13:48:08.767,593, 586, 503, 1, -45, -14, -16, 2, 12, 944, 914, 788,B
2025-03-10 13:48:08.826,802, 661, 565, -14, -19, -9, -15, 1, 15, 952, 936, 807,B
2025-03-10 13:48:08.887,585, 796, 206, -33, 61, 42, -16, 2, 17, 958, 934, 731,B
2025-03-10 13:48:08.944,750, 122, 550, -44, -8, -38, -14, 3, 14, 955, 929, 741,B
2025-03-10 13:48:08.998,783, 671, 828, 12, -12, -16, -14, 2, 14, 951, 939, 816,B
2025-03-10 13:48:09.060,523, 888, 386, -11, 22, 30, -15, 1, 15, 962, 947, 827,B
2025-03-10 13:48:09.112,833, 509, 595, 5, 16, 24, -16, 2, 13, 957, 942, 780,B
2025-03-10 13:48:09.166,802, 518, 447, -12, 20, 2, -15, 2, 14, 954, 941, 788,B
2025-03-10 13:48:09.225,610, 507, 521, 5, 9, 7, -14, 3, 14, 950, 935, 750,B
2025-03-10 13:48:09.279,1145, 288, 280, -2, 31, -19, -14, 3, 13, 941, 891, 706,B
2025-03-10 13:48:09.339,568, 418, 717, -50, 81, -40, -14, 4, 5, 912, 853, 643,B
2025-03-10 13:48:09.396,414, 583, 756, 4, 19, -23, -12, 1, -1, 885, 825, 628,B
2025-03-10 13:48:09.758,587, 557, 197, -20, -7, 87, -15, -3, 13, 864, 673, 548,C
2025-03-10 13:48:09.821,638, 406, 251, -23, 1, 75, -15, -3, 13, 861, 678, 536,C
2025-03-10 13:48:09.877,674, 568, 545, -10, 5, 24, -17, -2, 12, 876, 724, 536,C
2025-03-10 13:48:09.936,968, 660, 677, 13, 7, 9, -15, -2, 10, 885, 768, 639,C
2025-03-10 13:48:09.995,522, 451, 395, -37, 16, 7, -14, -3, 11, 897, 798, 628,C
2025-03-10 13:48:10.046,745, 600, 503, -11, -23, -1, -12, -2, 8, 909, 816, 667,C
2025-03-10 13:48:10.106,754, 593, 464, -2, -8, 10, -13, 0, 10, 929, 842, 676,C
2025-03-10 13:48:10.158,618, 583, 463, -3, -8, 15, -14, 2, 10, 931, 874, 697,C
2025-03-10 13:48:10.219,558, 532, 522, 8, -61, 21, -15, 1, 14, 938, 910, 698,C
2025-03-10 13:48:10.277,858, 416, 413, -3, -8, -21, -15, 1, 16, 948, 914, 658,C
2025-03-10 13:48:10.333,857, 1038, -158, 12, 66, 52, -15, 1, 15, 962, 929, 653,C
2025-03-10 13:48:10.390,749, 423, 713, -6, -7, 16, -14, 2, 12, 964, 938, 727,C
2025-03-10 13:48:10.446,619, 441, 650, -34, 49, -55, -14, 0, 8, 936, 912, 741,C
2025-03-10 13:48:10.506,478, 595, 739, -15, -7, -18, -13, 0, 5, 923, 873, 700,C
2025-03-10 13:48:10.563,642, 561, 506, 17, -33, 18, -12, 0, 5, 920, 842, 660,C
2025-03-10 13:48:10.861,684, 577, 439, 6, -13, 25, -14, 0, 11, 939, 871, 626,D
2025-03-10 13:48:10.917,698, 589, 436, 5, -11, 26, -14, 0, 11, 937, 876, 630,D
2025-03-10 13:48:10.973,761, 532, 407, 5, -3, 13, -15, 0, 11, 930, 879, 647,D
2025-03-10 13:48:11.027,728, 526, 454, -1, 0, 2, -15, 1, 12, 930, 887, 654,D
2025-03-10 13:48:11.077,668, 557, 470, -10, -12, 1, -14, 2, 10, 929, 889, 673,D
2025-03-10 13:48:11.143,2369, 77, -68, -45, -11, -10, -13, 2, 12, 935, 905, 684,D
2025-03-10 13:48:11.202,845, 1020, 382, 16, 40, 37, -15, 2, 13, 954, 917, 628,D
2025-03-10 13:48:11.258,689, 650, 250, -36, 32, 38, -12, 3, 11, 956, 906, 91,D
2025-03-10 13:48:11.309,717, 360, 495, 9, -51, -77, -14, 2, 11, 947, 911, 663,D
2025-03-10 13:48:11.367,809, 503, 584, 4, -19, 12, -15, 1, 11, 971, 952, 704,D
2025-03-10 13:48:11.425,432, 790, 373, 0, 40, 49, -13, 3, 12, 966, 944, 577,D
2025-03-10 13:48:11.477,879, 203, 489, 16, 25, 7, -13, 4, 11, 951, 891, 264,D
2025-03-10 13:48:11.538,620, 405, 606, -19, 54, -45, -12, 3, 8, 942, 876, 575,D
2025-03-10 13:48:11.878,747, 496, 454, -2, -4, -1, -14, 3, 10, 928, 880, 631,E
2025-03-10 13:48:11.927,754, 500, 451, -4, -3, -1, -14, 1, 11, 927, 878, 633,E
2025-03-10 13:48:11.989,739, 484, 484, -1, 3, -5, -14, 1, 12, 937, 869, 618,E
2025-03-10 13:48:12.041,679, 530, 525, -7, -11, -4, -14, 1, 9, 931, 870, 631,E
2025-03-10 13:48:12.097,704, 520, 508, -11, -20, 1, -14, 2, 11, 935, 889, 641,E
2025-03-10 13:48:12.157,746, 434, 596, -7, -10, -7, -13, 4, 12, 942, 907, 551,E
2025-03-10 13:48:12.211,442, 878, 338, 13, 46, 39, -14, 1, 12, 963, 899, 364,E
2025-03-10 13:48:12.272,771, 420, 375, -41, 29, 24, -14, 3, 12, 952, 874, 46,E
2025-03-10 13:48:12.328,541, 566, 625, -8, -42, -54, -13, 3, 11, 943, 878, 485,E
2025-03-10 13:48:12.387,1029, 760, 65, 38, -35, -2, -15, 3, 13, 954, 944, 673,E
2025-03-10 13:48:12.439,682, 428, 595, 15, 22, 21, -15, 3, 14, 953, 940, 739,E
2025-03-10 13:48:12.496,388, 555, 716, 6, 12, -18, -14, 1, 12, 955, 897, 600,E
2025-03-10 13:48:12.547,833, 665, 185, 12, 5, 9, -14, 1, 12, 958, 933, 604,E
2025-03-10 13:48:12.607,616, 243, 478, 17, 8, 16, -15, 2, 12, 959, 938, 652,E
2025-03-10 13:48:12.662,599, 305, 535, 27, 28, -27, -15, 2, 12, 961, 867, 523,E
2025-03-10 13:48:12.722,789, 358, 306, 13, -5, -8, -13, 1, 14, 960, 929, 491,E
2025-03-10 13:48:12.775,516, 322, 286, -11, 9, 20, -14, 1, 13, 959, 938, 636,E
2025-03-10 13:48:12.826,803, 614, 194, -29, 87, -45, -13, 1, 9, 939, 880, 579,E
2025-03-10 13:48:12.890,451, 547, 852, -11, 17, -44, -13, -1, 3, 919, 709, 510,E
2025-03-10 13:48:13.241,672, 536, 528, -7, -26, 4, -13, 1, 11, 914, 867, 633,F
2025-03-10 13:48:13.295,690, 541, 501, -5, -27, 5, -14, 1, 9, 915, 871, 636,F
2025-03-10 13:48:13.352,834, 606, 393, -11, 1, -7, -14, 2, 13, 919, 885, 641,F
2025-03-10 13:48:13.406,723, 342, 645, 9, -14, -8, -14, 4, 12, 944, 907, 548,F
2025-03-10 13:48:13.463,551, 342, 513, 16, 43, 51, -14, 2, 12, 947, 897, 213,F
2025-03-10 13:48:13.520,839, 541, 453, -37, 13, 9, -12, 3, 11, 944, 881, 51,F
2025-03-10 13:48:13.578,511, 793, 806, -12, -62, -48, -12, 2, 13, 938, 910, 620,F
2025-03-10 13:48:13.637,862, 776, 224, 37, -22, 18, -15, 3, 14, 964, 951, 722,F
2025-03-10 13:48:13.691,631, 533, 427, 12, 28, 25, -16, 1, 15, 954, 936, 719,F
2025-03-10 13:48:13.746,485, 672, 801, -28, -38, 8, -15, 0, 13, 939, 848, 439,F
2025-03-10 13:48:13.801,616, 493, 150, -13, 7, 24, -14, 3, 14, 953, 935, 572,F
2025-03-10 13:48:13.857,865, 349, 390, 11, 12, 6, -15, 2, 13, 951, 929, 716,F
2025-03-10 13:48:13.917,520, 530, 683, -50, 48, -60, -15, 0, 8, 935, 872, 677,F
2025-03-10 13:48:14.228,719, 505, 480, 0, -4, 12, -14, 1, 12, 939, 890, 643,G
2025-03-10 13:48:14.290,718, 492, 481, 1, -6, 10, -15, 3, 11, 943, 895, 643,G
2025-03-10 13:48:14.343,871, 454, 356, -25, -2, -4, -15, 3, 13, 941, 905, 641,G
2025-03-10 13:48:14.406,652, 462, 550, -23, -8, -14, -15, 3, 13, 948, 924, 604,G
2025-03-10 13:48:14.459,585, 482, 592, 24, 6, -9, -16, 1, 12, 955, 917, 406,G
2025-03-10 13:48:14.516,953, 1108, -230, 16, 46, 57, -13, 2, 13, 962, 918, 66,G
2025-03-10 13:48:14.572,709, 288, 822, -12, -9, 0, -14, 3, 12, 953, 931, 180,G
2025-03-10 13:48:14.629,734, 294, 707, 12, -23, -15, -16, 3, 12, 957, 937, 374,G
2025-03-10 13:48:14.688,753, 400, 408, -30, 30, 40, -14, 3, 13, 960, 926, 90,G
2025-03-10 13:48:14.739,534, 520, 551, -36, 6, -62, -13, 2, 11, 953, 858, 61,G
2025-03-10 13:48:14.797,837, 572, 490, 1, -27, -1, -14, 4, 13, 959, 919, 56,G
2025-03-10 13:48:14.856,817, 513, 403, -4, 18, 42, -15, 2, 13, 961, 943, 403,G
2025-03-10 13:48:14.911,775, 548, 248, -32, 62, -42, -14, 3, 11, 942, 907, 447,G
2025-03-10 13:48:15.238,720, 513, 473, -4, -1, -2, -15, 3, 13, 931, 868, 576,H
2025-03-10 13:48:15.290,720, 517, 478, -2, -2, -1, -15, 4, 11, 934, 870, 577,H
2025-03-10 13:48:15.346,722, 505, 475, -6, -9, -4, -15, 2, 12, 937, 884, 593,H
2025-03-10 13:48:15.405,775, 254, 191, -35, -7, -12, -15, 3, 13, 937, 892, 614,H
2025-03-10 13:48:15.461,732, 355, 542, 14, -3, -7, -14, 4, 13, 946, 902, 559,H
2025-03-10 13:48:15.517,460, 695, 317, 35, 35, 36, -15, 2, 14, 957, 874, 280,H
2025-03-10 13:48:15.572,722, 515, 518, -36, 15, 8, -13, 3, 11, 953, 830, 141,H
2025-03-10 13:48:15.634,854, 548, 585, -19, -17, -10, -13, 2, 12, 950, 890, 276,H
2025-03-10 13:48:15.689,683, 948, 280, -13, 12, 46, -15, 1, 14, 965, 941, 554,H
2025-03-10 13:48:15.747,376, 675, 736, -24, 19, -54, -14, 3, 11, 957, 934, 682,H
2025-03-10 13:48:15.806,1000, 1124, 665, 54, -15, 7, -14, 2, 14, 958, 933, 683,H
2025-03-10 13:48:15.862,620, 735, 58, -6, 56, 64, -13, 3, 15, 964, 922, 321,H
2025-03-10 13:48:15.921,947, 175, 328, -1, 21, -54, -14, 4, 13, 952, 878, 557,H
2025-03-10 13:48:16.247,714, 524, 487, -14, -3, -6, -14, 4, 11, 932, 833, 504,I
2025-03-10 13:48:16.306,702, 518, 482, -14, -3, -7, -14, 2, 13, 929, 834, 498,I
2025-03-10 13:48:16.361,724, 508, 469, -5, -3, -3, -15, 3, 12, 931, 839, 496,I
2025-03-10 13:48:16.416,723, 530, 458, -2, -1, -3, -16, 3, 13, 928, 843, 522,I
2025-03-10 13:48:16.472,665, 531, 490, 1, -5, -3, -14, 2, 11, 937, 847, 540,I
2025-03-10 13:48:16.528,846, 667, 470, 2, -5, -10, -15, 2, 14, 936, 856, 399,I
2025-03-10 13:48:16.580,645, 734, 388, 25, -17, 31, -15, 3, 14, 959, 933, 635,I
2025-03-10 13:48:16.640,671, 361, 497, 25, 6, 12, -15, 1, 15, 965, 939, 724,I
2025-03-10 13:48:16.697,584, 554, 523, -14, 21, -42, -15, 1, 12, 942, 887, 650,I
2025-03-10 13:48:16.757,866, 770, 308, -13, 5, 27, -15, 3, 13, 958, 909, 466,I
2025-03-10 13:48:16.812,717, 550, 422, -11, 51, 44, -14, 4, 13, 958, 889, 231,I
2025-03-10 13:48:16.872,584, 481, 654, 11, -6, -44, -11, 3, 11, 944, 755, 402,I
2025-03-10 13:48:16.923,892, 574, 523, 79, -31, 1, -14, 2, 12, 965, 931, 524,I
2025-03-10 13:48:16.976,579, 462, 387, 16, 14, 21, -15, 2, 14, 960, 933, 658,I
2025-03-10 13:48:17.038,528, 533, 306, -76, 68, -80, -13, 0, 10, 927, 801, 444,I
2025-03-10 13:48:17.377,703, 567, 479, -10, -5, 3, -14, 0, 11, 912, 775, 536,J
2025-03-10 13:48:17.436,710, 567, 452, -11, -6, 3, -14, 2, 13, 913, 775, 521,J
2025-03-10 13:48:17.490,707, 547, 458, -8, 3, 0, -14, -1, 11, 915, 767, 418,J
2025-03-10 13:48:17.546,647, 585, 485, -14, -8, 0, -14, 1, 11, 918, 752, 392,J
2025-03-10 13:48:17.605,856, 627, 461, -6, -7, -6, -14, 1, 13, 944, 825, 166,J
2025-03-10 13:48:17.658,534, 440, 175, -25, 2, 65, -14, 1, 13, 963, 944, 635,J
2025-03-10 13:48:17.706,594, 469, 591, 18, 1, 5, -15, 0, 14, 958, 934, 703,J
2025-03-10 13:48:17.773,546, 695, 572, -28, -17, -35, -13, 1, 12, 951, 851, 536,J
2025-03-10 13:48:17.828,445, 1145, 268, 2, 37, 75, -15, 1, 13, 968, 926, 331,J
2025-03-10 13:48:17.879,682, 636, 383, -49, 22, 28, -15, 4, 12, 971, 912, 41,J
2025-03-10 13:48:17.943,1190, 202, 477, 93, -11, -71, -12, 4, 12, 930, 755, 36,J
2025-03-10 13:48:17.997,532, 587, 845, 9, 31, -19, -12, 1, 7, 914, 839, 553,J
2025-03-10 13:48:18.051,523, 606, 588, 8, -25, 6, -12, 1, 6, 914, 844, 596,J
2025-03-10 13:48:18.342,722, 514, 485, -1, -8, -2, -13, 1, 10, 915, 816, 524,K
2025-03-10 13:48:18.393,718, 532, 479, -2, -9, -2, -12, 3, 11, 920, 816, 529,K
2025-03-10 13:48:18.451,696, 539, 478, -3, -6, 0, -14, 1, 10, 921, 836, 571,K
2025-03-10 13:48:18.506,672, 514, 514, 2, -19, 4, -14, 1, 13, 928, 853, 605,K
2025-03-10 13:48:18.563,749, 513, 507, -4, 1, -2, -14, 2, 12, 941, 887, 494,K
2025-03-10 13:48:18.616,789, 651, 447, 54, 20, 18, -13, 2, 11, 948, 869, 395,K
2025-03-10 13:48:18.674,1062, 456, 335, -22, 30, 34, -13, 2, 14, 958, 842, 37,K
2025-03-10 13:48:18.730,797, 142, 199, 42, -51, -8, -13, 2, 12, 963, 952, 157,K
2025-03-10 13:48:18.788,628, 560, 470, 9, -2, -7, -12, 2, 13, 963, 950, 593,K
2025-03-10 13:48:18.844,649, 509, 462, -24, 49, -50, -13, 1, 12, 942, 871, 341,K
2025-03-10 13:48:18.902,976, 1421, 453, -6, -13, 32, -14, 0, 12, 961, 921, 218,K
2025-03-10 13:48:18.957,794, 534, 358, -8, 32, 53, -14, 3, 11, 970, 944, 38,K
2025-03-10 13:48:19.017,802, 382, 126, -10, 55, -89, -13, 2, 10, 947, 891, 367,K
2025-03-10 13:48:19.343,710, 565, 456, -4, -5, 0, -13, 2, 10, 924, 838, 613,L
2025-03-10 13:48:19.398,714, 551, 459, -5, -5, 1, -13, 1, 10, 918, 837, 616,L
2025-03-10 13:48:19.456,709, 533, 445, -1, -10, -2, -13, 0, 11, 920, 841, 633,L
2025-03-10 13:48:19.513,742, 437, 302, -8, -5, -12, -13, 1, 14, 927, 864, 632,L
2025-03-10 13:48:19.571,709, 463, 511, 2, -8, -11, -13, 1, 12, 945, 886, 560,L
2025-03-10 13:48:19.626,911, 736, 530, 20, 26, 16, -14, 1, 13, 958, 875, 395,L
2025-03-10 13:48:19.680,779, 536, 228, -7, 23, 19, -12, 2, 13, 957, 860, 58,L
2025-03-10 13:48:19.728,584, 488, 519, 1, -7, 26, -15, 2, 12, 973, 945, 465,L
2025-03-10 13:48:19.789,744, 592, 439, -1, 2, 7, -12, 1, 12, 957, 931, 642,L
2025-03-10 13:48:19.847,663, 570, 428, -59, 66, -58, -12, 1, 9, 942, 836, 541,L
2025-03-10 13:48:20.167,737, 541, 445, -7, -8, -2, -13, 2, 11, 915, 790, 523,M
2025-03-10 13:48:20.230,735, 533, 434, -6, -6, -2, -13, 0, 11, 916, 790, 522,M
2025-03-10 13:48:20.283,703, 526, 492, -1, -4, 0, -14, 3, 11, 925, 807, 538,M
2025-03-10 13:48:20.340,687, 540, 508, 6, -11, 2, -13, 2, 11, 918, 808, 570,M
2025-03-10 13:48:20.397,732, 532, 393, -6, -7, -12, -14, 1, 12, 914, 807, 571,M
2025-03-10 13:48:20.454,687, 559, 615, -20, -18, -13, -14, 1, 12, 931, 850, 390,M
2025-03-10 13:48:20.511,1084, 967, 426, 17, 42, 65, -14, 1, 14, 965, 869, 285,M
2025-03-10 13:48:20.570,633, 483, 388, -9, 25, 18, -12, 2, 12, 955, 851, 280,M
2025-03-10 13:48:20.627,759, 727, 504, -6, -35, -41, -12, 2, 12, 928, 874, 629,M
2025-03-10 13:48:20.677,917, 540, 543, 23, -15, 5, -14, 2, 13, 955, 927, 675,M
2025-03-10 13:48:20.737,750, 734, 337, 15, 26, 24, -15, 3, 13, 950, 920, 640,M
2025-03-10 13:48:20.792,746, 315, 648, 6, -27, -28, -15, 1, 13, 957, 923, 699,M
2025-03-10 13:48:20.852,894, 711, -38, 35, 26, 35, -15, 2, 14, 958, 921, 645,M
2025-03-10 13:48:20.906,737, 465, 423, -3, 12, 9, -15, 1, 13, 942, 883, 600,M
2025-03-10 13:48:21.226,725, 525, 457, -10, -1, -3, -12, 2, 11, 917, 808, 540,N
2025-03-10 13:48:21.287,726, 532, 449, -7, 0, -3, -13, 0, 9, 920, 803, 513,N
2025-03-10 13:48:21.342,711, 537, 481, -4, -3, -5, -13, 2, 11, 922, 793, 481,N
2025-03-10 13:48:21.397,645, 549, 479, -4, -16, -4, -14, 2, 12, 909, 808, 535,N
2025-03-10 13:48:21.458,764, 338, 399, -26, -7, -9, -14, 1, 12, 929, 862, 425,N
2025-03-10 13:48:21.510,470, 654, 311, 3, 55, 60, -13, 1, 15, 951, 858, 201,N
2025-03-10 13:48:21.563,779, 582, 412, -9, 8, 8, -14, 4, 11, 957, 849, 275,N
2025-03-10 13:48:21.626,499, 705, 826, -11, -48, -20, -12, 1, 11, 935, 882, 654,N
2025-03-10 13:48:21.681,854, 1073, 121, 31, 2, 45, -14, 3, 12, 957, 914, 625,N
2025-03-10 13:48:21.738,681, 325, 381, -5, 21, 42, -14, 4, 13, 962, 912, 183,N
2025-03-10 13:48:21.793,910, 400, 529, 29, -45, -51, -15, 3, 11, 950, 930, 622,N
2025-03-10 13:48:21.856,1042, 503, -15, -9, 65, -18, -14, 1, 12, 941, 897, 702,N
2025-03-10 13:48:21.908,523, 608, 764, -28, 49, -2, -13, 1, 4, 932, 798, 472,N
2025-03-10 13:48:21.967,606, 523, 636, 8, -39, 13, -14, 1, 4, 926, 758, 261,N
2025-03-10 13:48:22.020,835, 493, 347, 8, -25, 4, -13, 2, 9, 920, 764, 357,N
2025-03-10 13:48:22.076,770, 527, 446, -11, 3, -9, -14, 1, 10, 921, 772, 370,N
2025-03-10 13:48:22.126,693, 534, 521, -10, -4, -6, -13, 1, 8, 915, 774, 365,N
2025-03-10 13:48:23.791,714, 523, 508, -2, -5, 1, -14, 3, 9, 941, 877, 481,O
2025-03-10 13:48:23.847,707, 520, 501, -1, -6, 2, -14, 1, 9, 928, 868, 486,O
2025-03-10 13:48:23.898,745, 491, 487, 2, -7, 2, -15, 2, 8, 938, 880, 496,O
2025-03-10 13:48:23.954,735, 523, 467, 2, -7, 3, -15, 3, 11, 932, 875, 517,O
2025-03-10 13:48:24.007,746, 520, 473, 10, -7, 8, -15, 4, 11, 943, 885, 543,O
2025-03-10 13:48:24.059,724, 667, 479, 7, -3, 1, -15, 2, 9, 938, 899, 597,O
2025-03-10 13:48:24.121,778, 440, 534, -12, -13, -20, -15, 2, 10, 953, 924, 573,O
2025-03-10 13:48:24.176,1275, 58, 617, 54, -7, -29, -14, 2, 13, 961, 917, 362,O
2025-03-10 13:48:24.228,607, 240, 372, -68, 51, 69, -13, 4, 14, 969, 937, 9,O
2025-03-10 13:48:24.289,460, 61, 927, -5, -30, -20, -13, 4, 11, 964, 945, 113,O
2025-03-10 13:48:24.347,849, 477, 375, 34, -16, -41, -14, 1, 13, 931, 905, 709,O
2025-03-10 13:48:24.404,593, 623, 591, -36, 89, -33, -13, 1, 7, 910, 852, 606,O
2025-03-10 13:48:24.462,430, 587, 748, -19, 13, 14, -11, 1, 3, 907, 654, 209,O
2025-03-10 13:48:24.736,739, 546, 446, -4, -6, 5, -14, 2, 11, 916, 776, 289,P
2025-03-10 13:48:24.797,739, 538, 446, -5, -5, 4, -12, 2, 9, 914, 779, 289,P
2025-03-10 13:48:24.850,724, 529, 476, -4, -5, 1, -14, 1, 13, 912, 789, 321,P
2025-03-10 13:48:24.906,717, 524, 444, -11, -5, -6, -14, 2, 11, 915, 807, 342,P
2025-03-10 13:48:24.962,691, 570, 566, -16, -6, -9, -14, 3, 12, 925, 850, 296,P
2025-03-10 13:48:25.020,679, 674, 323, 75, 16, 15, -13, 2, 12, 949, 880, 304,P
2025-03-10 13:48:25.074,780, 364, 159, 7, 35, 49, -13, 1, 12, 963, 867, 33,P
2025-03-10 13:48:25.126,872, -43, 893, 19, -48, -72, -12, 3, 12, 945, 875, 358,P
2025-03-10 13:48:25.191,780, 347, 823, -2, -33, -11, -13, 1, 12, 956, 934, 658,P
2025-03-10 13:48:25.247,549, 781, 355, -22, 20, 31, -16, 2, 15, 968, 942, 560,P
2025-03-10 13:48:25.303,660, 253, 319, -27, 27, 1, -13, 3, 12, 957, 883, 153,P
2025-03-10 13:48:25.362,638, 432, 601, -25, 63, -35, -13, 1, 9, 937, 859, 301,P
2025-03-10 13:48:25.420,441, 620, 741, 13, -16, -2, -13, 1, 7, 932, 860, 445,P
2025-03-10 13:48:25.718,730, 541, 473, 1, -3, 4, -14, 2, 10, 920, 819, 486,Q
2025-03-10 13:48:25.771,723, 537, 476, 2, -3, 5, -14, 1, 12, 922, 822, 490,Q
2025-03-10 13:48:25.826,728, 512, 476, 18, -9, 9, -14, 1, 11, 921, 850, 594,Q
2025-03-10 13:48:25.886,755, 408, 116, 8, -13, -25, -15, 1, 14, 928, 907, 677,Q
2025-03-10 13:48:25.942,784, 430, 467, -2, -12, -21, -15, 1, 12, 939, 919, 635,Q
2025-03-10 13:48:25.998,1040, 867, 181, 20, 52, 42, -13, 1, 14, 962, 920, 301,Q
2025-03-10 13:48:26.057,602, 610, 552, -46, 18, 22, -14, 2, 11, 965, 945, 13,Q
2025-03-10 13:48:26.116,662, 466, 333, 26, -26, -33, -14, 2, 13, 947, 920, 604,Q
2025-03-10 13:48:26.170,516, 622, 701, -13, 11, -13, -15, 2, 11, 940, 886, 475,Q
2025-03-10 13:48:26.226,427, 87, 107, -4, 1, 29, -14, 3, 11, 966, 940, 138,Q
2025-03-10 13:48:26.277,668, 416, 435, -16, 21, 40, -13, 3, 10, 969, 940, 20,Q
2025-03-10 13:48:26.336,766, 473, 286, -19, 58, -55, -14, 5, 9, 942, 848, 28,Q
2025-03-10 13:48:26.390,506, 562, 804, -9, 1, -28, -11, 3, 4, 920, 744, 156,Q
2025-03-10 13:48:26.689,735, 526, 456, -3, -5, -5, -13, 2, 11, 904, 789, 439,R
2025-03-10 13:48:26.746,714, 518, 454, -3, -5, -6, -13, 1, 12, 906, 790, 447,R
2025-03-10 13:48:26.804,696, 530, 491, -3, -17, -6, -13, 2, 12, 900, 810, 521,R
2025-03-10 13:48:26.862,721, 466, 546, -9, -8, -13, -13, 2, 13, 913, 858, 431,R
2025-03-10 13:48:26.919,823, 636, 610, 45, 21, 16, -14, 2, 15, 946, 859, 209,R
2025-03-10 13:48:26.972,655, 513, 321, -26, 23, 39, -13, 4, 13, 954, 811, 28,R
2025-03-10 13:48:27.027,842, -8, 629, 33, -62, -85, -13, 4, 11, 924, 815, 44,R
2025-03-10 13:48:27.087,790, 423, 615, 0, -37, -13, -13, 1, 13, 954, 916, 531,R
2025-03-10 13:48:27.136,674, 519, 514, 4, 16, 18, -16, 2, 16, 967, 932, 411,R
2025-03-10 13:48:27.197,1520, 353, 386, -2, 12, -3, -15, 5, 15, 955, 896, 44,R
2025-03-10 13:48:27.254,721, 464, 541, -31, 23, 49, -14, 4, 13, 963, 925, 27,R
2025-03-10 13:48:27.309,828, 555, 207, -28, 63, -35, -14, 4, 12, 958, 905, 34,R
2025-03-10 13:48:27.632,695, 516, 526, -1, -7, 3, -13, 3, 11, 922, 808, 238,S
2025-03-10 13:48:27.688,714, 509, 511, 0, -9, 4, -13, 3, 11, 920, 811, 236,S
2025-03-10 13:48:27.741,745, 503, 474, 7, -10, 7, -14, 4, 10, 919, 839, 388,S
2025-03-10 13:48:27.798,714, 508, 498, 4, -13, 4, -15, 3, 13, 934, 858, 461,S
2025-03-10 13:48:27.852,705, 444, 472, -9, 0, -9, -15, 3, 12, 937, 880, 403,S
2025-03-10 13:48:27.908,642, 436, 572, 1, -4, -12, -14, 3, 11, 948, 892, 169,S
2025-03-10 13:48:27.966,1002, 521, 262, 50, 24, 23, -14, 3, 13, 962, 903, 14,S
2025-03-10 13:48:28.021,736, 830, 462, 14, 17, 26, -13, 3, 12, 955, 914, 101,S
2025-03-10 13:48:28.072,914, 360, 372, -7, 29, 7, -12, 2, 13, 949, 855, 35,S
2025-03-10 13:48:28.135,1221, 403, 155, -2, 38, -37, -13, 3, 11, 909, 780, 346,S
2025-03-10 13:48:28.193,542, 535, 802, -36, 26, -39, -11, 1, 4, 888, 812, 402,S
2025-03-10 13:48:28.536,715, 522, 503, -3, -12, 3, -13, 1, 9, 886, 782, 290,T
2025-03-10 13:48:28.589,712, 509, 495, -2, -11, 3, -15, 2, 10, 893, 785, 288,T
2025-03-10 13:48:28.651,743, 526, 443, -1, -5, -3, -13, 3, 11, 890, 773, 291,T
2025-03-10 13:48:28.704,703, 503, 524, 3, -2, -3, -13, 2, 11, 886, 760, 278,T
2025-03-10 13:48:28.756,721, 494, 473, 1, -3, 0, -14, 1, 11, 896, 765, 295,T
2025-03-10 13:48:28.807,611, 540, 560, 4, -17, -4, -12, 1, 11, 890, 774, 300,T
2025-03-10 13:48:28.869,854, 490, 506, 9, -9, -11, -14, 4, 14, 923, 856, 34,T
2025-03-10 13:48:28.926,841, 651, 289, 13, -2, 47, -15, 3, 14, 961, 936, 568,T
2025-03-10 13:48:28.982,662, 510, 465, 4, 14, 11, -14, 3, 15, 933, 892, 622,T
2025-03-10 13:48:29.038,610, 673, 719, -8, -18, -9, -14, 2, 11, 928, 856, 556,T
2025-03-10 13:48:29.088,612, 616, 292, 24, 15, 18, -14, 1, 13, 966, 905, 422,T
2025-03-10 13:48:29.151,816, 358, 397, -22, 41, 37, -13, 4, 12, 957, 872, 23,T
2025-03-10 13:48:29.206,796, 466, 296, -14, 57, -60, -12, 2, 11, 924, 732, 234,T
2025-03-10 13:48:29.259,522, 499, 762, -5, -8, -26, -11, 2, 6, 889, 724, 338,T
2025-03-10 13:48:29.551,686, 517, 542, 0, -4, 2, -13, 2, 8, 903, 787, 377,U
2025-03-10 13:48:29.602,699, 511, 530, 0, -5, 2, -13, 2, 8, 908, 785, 381,U
2025-03-10 13:48:29.659,724, 502, 496, 1, -8, 1, -12, 1, 9, 915, 799, 399,U
2025-03-10 13:48:29.717,721, 545, 486, -3, -6, -1, -13, 1, 11, 905, 798, 411,U
2025-03-10 13:48:29.769,714, 513, 518, -1, -6, 0, -13, 3, 11, 924, 804, 360,U
2025-03-10 13:48:29.827,731, 521, 470, -1, -5, -2, -14, 4, 11, 912, 800, 340,U
2025-03-10 13:48:29.880,743, 502, 466, -5, 0, -4, -14, 3, 10, 922, 807, 329,U
2025-03-10 13:48:29.937,703, 514, 509, -2, -2, -2, -14, 2, 10, 925, 814, 323,U
2025-03-10 13:48:29.989,716, 509, 475, 0, 0, -3, -12, 3, 11, 921, 816, 334,U
2025-03-10 13:48:30.040,715, 502, 491, 0, -2, -3, -13, 3, 13, 920, 816, 338,U
2025-03-10 13:48:30.100,732, 530, 481, 3, -5, -3, -13, 3, 12, 926, 814, 395,U
2025-03-10 13:48:30.154,729, 528, 467, 2, -2, 0, -15, 3, 11, 908, 792, 412,U
2025-03-10 13:48:30.210,714, 528, 478, -2, 0, -1, -14, 2, 11, 911, 780, 396,U
2025-03-10 13:48:30.263,730, 534, 457, 1, -1, 0, -13, 1, 12, 900, 767, 419,U
2025-03-10 13:48:30.317,719, 537, 476, -3, -1, -3, -13, 4, 13, 897, 768, 453,U
2025-03-10 13:48:30.372,728, 532, 468, -5, -5, -2, -14, 3, 13, 917, 791, 446,U
2025-03-10 13:48:30.433,729, 526, 458, -8, 0, -6, -13, 3, 12, 916, 821, 307,U
2025-03-10 13:48:30.487,721, 456, 500, 11, -3, -6, -14, 2, 12, 938, 842, 203,U
2025-03-10 13:48:30.539,967, 765, 381, 52, 35, 74, -12, 1, 13, 950, 878, 473,U
2025-03-10 13:48:30.600,800, 208, 512, -11, 6, 19, -13, 2, 10, 943, 914, 601,U
2025-03-10 13:48:30.659,569, 275, 762, -15, -31, -41, -14, 0, 11, 930, 917, 719,U
2025-03-10 13:48:30.716,875, 787, 334, 25, 27, 35, -15, 1, 12, 946, 909, 651,U
2025-03-10 13:48:30.769,743, 488, 470, 2, 12, 15, -13, 2, 11, 951, 900, 640,U
2025-03-10 13:48:30.826,638, 451, 526, -21, 35, -47, -14, 1, 9, 924, 862, 654,U
2025-03-10 13:48:31.128,703, 519, 511, 4, -9, 2, -13, 2, 9, 882, 710, 427,V
2025-03-10 13:48:31.187,707, 522, 507, 2, -9, 3, -12, 2, 8, 885, 712, 425,V
2025-03-10 13:48:31.238,730, 530, 471, 3, -8, 2, -14, 2, 11, 897, 726, 424,V
2025-03-10 13:48:31.296,720, 514, 480, 3, -3, 1, -12, 3, 11, 908, 746, 459,V
2025-03-10 13:48:31.350,700, 528, 490, 1, -4, 0, -12, 1, 11, 902, 752, 466,V
2025-03-10 13:48:31.407,718, 520, 448, -2, -3, -4, -14, 2, 12, 902, 751, 465,V
2025-03-10 13:48:31.462,678, 494, 504, -14, -6, -14, -12, 2, 13, 898, 777, 353,V
2025-03-10 13:48:31.519,755, 360, 625, -14, -9, -8, -14, 1, 12, 931, 839, 221,V
2025-03-10 13:48:31.570,849, 516, 458, -18, 36, 62, -13, 2, 12, 949, 876, 27,V
2025-03-10 13:48:31.634,918, 291, 560, -60, -24, -3, -14, 4, 10, 945, 926, 17,V
2025-03-10 13:48:31.688,736, 318, 438, 40, -9, -12, -13, 3, 11, 945, 917, 668,V
2025-03-10 13:48:31.747,674, 427, 564, -9, 90, -36, -14, 2, 8, 931, 879, 635,V
2025-03-10 13:48:31.800,458, 513, 781, 4, 2, -2, -12, 2, 2, 913, 791, 467,V
2025-03-10 13:48:32.087,711, 525, 504, -2, -3, -1, -14, 3, 9, 894, 739, 307,W
2025-03-10 13:48:32.139,719, 514, 509, -3, -3, 0, -15, 2, 9, 896, 740, 311,W
2025-03-10 13:48:32.196,735, 529, 467, 1, -7, -2, -13, 1, 9, 910, 755, 319,W
2025-03-10 13:48:32.251,706, 505, 498, -4, -1, -3, -13, 2, 11, 902, 751, 327,W
2025-03-10 13:48:32.307,662, 520, 514, -1, -24, -5, -14, 2, 12, 898, 766, 388,W
2025-03-10 13:48:32.366,755, 471, 539, -14, -7, -6, -14, 3, 12, 935, 877, 274,W
2025-03-10 13:48:32.424,792, 431, 354, 24, 38, 56, -14, 4, 12, 951, 914, 385,W
2025-03-10 13:48:32.481,790, 682, 336, -35, 14, 20, -13, 2, 11, 955, 927, 116,W
2025-03-10 13:48:32.537,739, 560, 664, -1, -24, -28, -13, 4, 11, 950, 932, 476,W
2025-03-10 13:48:32.589,743, 442, 321, 22, 27, 49, -15, 4, 13, 954, 924, 276,W
2025-03-10 13:48:32.651,791, 142, 715, -36, -28, 0, -14, 3, 10, 956, 943, 57,W
2025-03-10 13:48:32.707,974, 449, 162, 16, 26, -6, -15, 4, 11, 946, 924, 572,W
2025-03-10 13:48:32.762,627, 493, 640, 2, 49, -20, -14, 3, 7, 941, 898, 479,W
2025-03-10 13:48:33.086,737, 522, 487, -3, -1, 3, -14, 2, 9, 925, 796, 285,X
2025-03-10 13:48:33.144,728, 518, 490, -4, -2, 3, -15, 3, 12, 920, 795, 286,X
2025-03-10 13:48:33.198,750, 486, 479, -4, -5, 0, -14, 3, 11, 933, 820, 305,X
2025-03-10 13:48:33.251,746, 489, 462, -5, -8, -5, -14, 3, 9, 931, 833, 418,X
2025-03-10 13:48:33.306,729, 520, 498, -9, -1, -6, -16, 4, 10, 926, 864, 438,X
2025-03-10 13:48:33.359,704, 436, 586, 2, -7, -8, -15, 3, 12, 954, 902, 263,X
2025-03-10 13:48:33.419,941, 544, 573, 14, 23, 7, -15, 3, 13, 950, 871, 19,X
2025-03-10 13:48:33.473,810, 528, 203, -50, 39, 19, -13, 4, 13, 944, 824, 19,X
2025-03-10 13:48:33.526,609, 567, 560, 10, -23, -72, -13, 3, 12, 929, 822, 401,X
2025-03-10 13:48:33.590,974, 479, 426, 34, -29, 3, -12, 1, 12, 964, 908, 501,X
2025-03-10 13:48:33.643,598, 309, 257, -19, 32, 60, -14, 3, 12, 951, 914, 166,X
2025-03-10 13:48:33.701,827, 337, 268, -4, 37, -58, -15, 5, 12, 935, 856, 340,X
2025-03-10 13:48:33.756,636, 512, 692, -20, 2, -34, -13, 3, 7, 908, 761, 321,X
2025-03-10 13:48:34.057,719, 513, 474, -9, -5, -6, -14, 4, 10, 915, 800, 317,Y
2025-03-10 13:48:34.117,741, 498, 475, -10, -3, -7, -13, 3, 12, 910, 791, 319,Y
2025-03-10 13:48:34.170,708, 502, 513, -2, -6, -4, -14, 5, 10, 910, 787, 304,Y
2025-03-10 13:48:34.226,781, 435, 382, -2, -1, -11, -13, 3, 12, 922, 824, 195,Y
2025-03-10 13:48:34.286,1095, 1101, 279, 35, 8, 39, -14, 3, 13, 953, 896, 210,Y
2025-03-10 13:48:34.341,758, 602, 481, 20, 15, 35, -16, 4, 12, 954, 918, 286,Y
2025-03-10 13:48:34.400,492, 471, 710, -15, 9, -45, -15, 3, 10, 928, 883, 568,Y
2025-03-10 13:48:34.456,814, 577, 894, 40, -20, -26, -15, 4, 14, 943, 899, 456,Y
2025-03-10 13:48:34.517,787, 621, 107, 13, 49, 38, -15, 5, 15, 949, 858, 27,Y
2025-03-10 13:48:34.567,875, 489, 678, 5, 9, 3, -13, 2, 12, 941, 791, 223,Y
2025-03-10 13:48:34.626,607, 440, 676, -42, 28, -37, -14, 4, 9, 898, 783, 336,Y
2025-03-10 13:48:34.676,528, 595, 691, -2, -23, -2, -12, 3, 7, 895, 807, 397,Y
2025-03-10 13:48:35.268,731, 507, 498, -1, -2, -1, -14, 3, 12, 916, 775, 218,Z
2025-03-10 13:48:35.326,740, 508, 489, -1, -2, -1, -14, 3, 12, 914, 775, 227,Z
2025-03-10 13:48:35.383,722, 518, 487, 0, -1, 0, -12, 1, 11, 914, 778, 261,Z
2025-03-10 13:48:35.442,726, 505, 488, -1, -2, -1, -13, 4, 11, 922, 782, 269,Z
2025-03-10 13:48:35.488,718, 505, 491, 1, 0, -2, -14, 3, 12, 910, 773, 285,Z
2025-03-10 13:48:35.552,715, 510, 484, 1, -1, -3, -14, 2, 11, 908, 758, 278,Z
2025-03-10 13:48:35.607,717, 512, 486, -1, 1, -1, -14, 4, 12, 921, 761, 281,Z
2025-03-10 13:48:35.656,705, 505, 496, -3, 0, 0, -13, 3, 10, 913, 764, 263,Z
2025-03-10 13:48:35.717,747, 474, 519, -1, -14, -1, -15, 3, 12, 924, 786, 219,Z
2025-03-10 13:48:35.772,729, 490, 452, -3, 1, -2, -14, 3, 12, 931, 807, 158,Z
2025-03-10 13:48:35.826,719, 520, 486, 6, 0, -2, -13, 2, 12, 928, 818, 234,Z
2025-03-10 13:48:35.877,718, 523, 485, 0, 0, 0, -13, 3, 13, 930, 823, 300,Z
2025-03-10 13:48:35.933,724, 525, 468, -1, 0, -1, -13, 2, 13, 930, 822, 332,Z
2025-03-10 13:48:35.988,725, 508, 475, -1, -1, -1, -13, 3, 12, 935, 827, 281,Z
2025-03-10 13:48:36.038,713, 531, 453, -7, 0, 0, -14, 3, 14, 925, 822, 236,Z
2025-03-10 13:48:36.102,708, 457, 494, -7, -3, -7, -12, 3, 13, 933, 842, 32,Z
2025-03-10 13:48:36.159,660, 916, 274, 58, -13, 23, -13, 1, 12, 960, 927, 629,Z
2025-03-10 13:48:36.209,584, 538, 454, 6, 7, 20, -15, 2, 13, 959, 937, 714,Z
2025-03-10 13:48:36.267,1175, 506, 389, -20, 28, 6, -12, 1, 13, 961, 903, 306,Z
2025-03-10 13:48:36.322,968, 1042, 641, 22, 3, 22, -14, 2, 12, 966, 933, 324,Z
2025-03-10 13:48:36.377,700, 378, 512, 10, -1, 6, -13, 3, 13, 960, 938, 586,Z
2025-03-10 13:48:36.436,528, 638, 287, -15, 25, -66, -15, 1, 13, 945, 866, 603,Z
2025-03-10 13:48:36.488,900, 803, 482, 63, -16, -17, -13, 1, 14, 957, 887, 587,Z
2025-03-10 13:48:36.550,1109, 97, 258, 14, -4, 26, -13, 1, 13, 962, 937, 660,Z
2025-03-10 13:48:36.608,739, 523, 515, -18, 10, 0, -16, 2, 12, 958, 909, 668,Z
2025-03-10 13:48:36.667,677, 559, 645, -30, 42, -21, -13, 1, 10, 929, 727, 379,Z
2025-03-10 13:48:36.936,705, 544, 495, -6, -1, 6, -13, 2, 12, 921, 714, 435,a
2025-03-10 13:48:36.996,705, 526, 487, -4, -2, 6, -13, 1, 14, 922, 719, 435,a
2025-03-10 13:48:37.050,740, 518, 454, -4, 0, 4, -14, 1, 11, 926, 739, 423,a
2025-03-10 13:48:37.109,729, 512, 465, -5, 0, 2, -15, 2, 11, 930, 771, 401,a
2025-03-10 13:48:37.163,725, 516, 467, -3, -1, 2, -14, 2, 12, 930, 790, 409,a
2025-03-10 13:48:37.214,735, 515, 479, -3, 0, 1, -14, 4, 12, 932, 796, 418,a
2025-03-10 13:48:37.268,727, 511, 470, 1, 0, 0, -15, 2, 10, 938, 808, 428,a
2025-03-10 13:48:37.319,725, 528, 469, 9, 1, 6, -14, 3, 13, 939, 828, 493,a
2025-03-10 13:48:37.369,709, 520, 484, 6, -7, 9, -15, 3, 12, 936, 847, 569,a
2025-03-10 13:48:37.437,722, 558, 460, -12, -3, -10, -13, 2, 13, 943, 884, 486,a
2025-03-10 13:48:37.487,1015, 424, 587, 1, -1, -12, -14, 3, 13, 955, 880, 56,a
2025-03-10 13:48:37.546,861, 520, 294, -14, 24, 31, -13, 2, 13, 961, 897, 16,a
2025-03-10 13:48:37.604,594, 280, 590, 27, -25, -30, -13, 4, 10, 958, 910, 433,a
2025-03-10 13:48:37.657,869, 826, 95, 13, 15, 21, -13, 3, 13, 952, 911, 560,a
2025-03-10 13:48:37.715,789, 392, 504, -6, 8, 2, -14, 4, 12, 951, 884, 569,a
2025-03-10 13:48:38.009,721, 495, 479, -4, -2, 1, -14, 3, 13, 930, 768, 520,b
2025-03-10 13:48:38.059,726, 498, 484, -3, -3, 1, -14, 3, 13, 923, 768, 517,b
2025-03-10 13:48:38.120,736, 505, 469, -7, -2, -1, -14, 4, 13, 913, 764, 465,b
2025-03-10 13:48:38.174,738, 514, 441, -2, -1, 0, -15, 2, 12, 933, 794, 488,b
2025-03-10 13:48:38.230,729, 502, 473, -1, -1, -1, -14, 3, 13, 914, 791, 492,b
2025-03-10 13:48:38.288,701, 514, 459, -1, -3, -8, -14, 4, 12, 920, 804, 500,b
2025-03-10 13:48:38.346,739, 544, 470, -20, -4, -16, -13, 3, 12, 911, 831, 348,b
2025-03-10 13:48:38.400,853, 726, 457, 47, 25, 39, -14, 3, 14, 962, 892, 160,b
2025-03-10 13:48:38.456,678, 698, 277, 24, 20, 35, -13, 3, 12, 953, 891, 22,b
2025-03-10 13:48:38.514,650, 176, 549, 13, -29, -57, -12, 4, 10, 945, 876, 258,b
2025-03-10 13:48:38.568,718, 659, 524, -5, -5, 14, -15, 3, 12, 956, 914, 196,b
2025-03-10 13:48:38.626,881, 470, 348, -19, 19, 23, -12, 4, 12, 962, 903, 21,b
2025-03-10 13:48:38.686,1078, 368, 304, 26, 35, -48, -12, 4, 12, 937, 833, 190,b
2025-03-10 13:48:39.000,731, 496, 500, -4, -2, -1, -14, 2, 11, 916, 825, 422,c
2025-03-10 13:48:39.059,719, 502, 484, -3, -2, -1, -13, 3, 11, 918, 822, 421,c
2025-03-10 13:48:39.119,742, 491, 486, -3, -2, -2, -14, 4, 11, 929, 834, 440,c
2025-03-10 13:48:39.172,703, 505, 507, -1, -5, 3, -15, 2, 11, 929, 846, 455,c
2025-03-10 13:48:39.231,735, 599, 507, -18, -4, -4, -14, 2, 13, 933, 866, 238,c
2025-03-10 13:48:39.288,706, 363, 666, 16, -6, -17, -14, 3, 13, 942, 880, 115,c
2025-03-10 13:48:39.339,941, 466, 257, 32, 28, 26, -13, 2, 12, 946, 887, 14,c
2025-03-10 13:48:39.397,477, 481, 670, 4, 2, 14, -14, 3, 12, 961, 918, 355,c
2025-03-10 13:48:39.456,692, 506, 417, -31, 60, -51, -15, 2, 8, 918, 871, 562,c
2025-03-10 13:48:39.509,509, 567, 752, -17, 3, -13, -12, 3, 6, 910, 790, 444,c
2025-03-10 13:48:39.816,724, 510, 483, 2, -7, 3, -13, 1, 10, 922, 780, 418,d
2025-03-10 13:48:39.870,718, 497, 479, 2, -7, 3, -13, 1, 10, 920, 786, 420,d
2025-03-10 13:48:39.931,756, 503, 448, -1, -4, 0, -14, 4, 11, 919, 789, 443,d
2025-03-10 13:48:39.984,724, 512, 475, -2, -2, 1, -13, 3, 12, 917, 799, 447,d
2025-03-10 13:48:40.040,748, 426, 401, -7, -1, -4, -13, 3, 10, 924, 820, 437,d
2025-03-10 13:48:40.099,661, 435, 492, -15, -5, -13, -13, 2, 11, 930, 851, 215,d
2025-03-10 13:48:40.150,472, 436, 456, 20, 2, -15, -14, 3, 11, 946, 860, 6,d
2025-03-10 13:48:40.208,834, 499, 343, -3, 31, 45, -13, 1, 11, 948, 885, 18,d
2025-03-10 13:48:40.266,515, 170, 761, -18, -31, -36, -12, 3, 10, 952, 921, 182,d
2025-03-10 13:48:40.325,737, 243, 753, 7, -23, -27, -14, 1, 12, 940, 914, 583,d
2025-03-10 13:48:40.382,329, 777, 310, 48, 32, 30, -14, 3, 14, 956, 905, 173,d
2025-03-10 13:48:40.433,761, 586, 593, -5, 4, 1, -14, 4, 12, 950, 886, 409,d
2025-03-10 13:48:40.491,661, 480, 691, -19, 12, -29, -14, 2, 9, 928, 868, 559,d
2025-03-10 13:48:40.766,740, 489, 507, -3, -1, -2, -14, 3, 11, 934, 836, 382,e
2025-03-10 13:48:40.827,738, 491, 493, -2, -2, -1, -13, 3, 11, 927, 832, 384,e
2025-03-10 13:48:40.881,719, 502, 490, -3, 0, -1, -15, 3, 11, 922, 822, 332,e
2025-03-10 13:48:40.939,719, 511, 504, 1, -4, -1, -14, 3, 11, 925, 828, 330,e
2025-03-10 13:48:40.988,752, 366, 366, -6, 4, -7, -13, 3, 12, 941, 859, 22,e
2025-03-10 13:48:41.049,631, 450, 566, -16, 3, 19, -14, 3, 12, 952, 903, 249,e
2025-03-10 13:48:41.099,705, 366, 569, -13, -4, -5, -13, 3, 9, 944, 910, 196,e
2025-03-10 13:48:41.160,975, 487, 571, 10, -6, -22, -13, 3, 12, 948, 882, 19,e
2025-03-10 13:48:41.210,938, 657, 425, 0, 19, 26, -13, 3, 11, 946, 885, 24,e
2025-03-10 13:48:41.267,724, 256, 601, 8, -2, 9, -12, 2, 11, 949, 897, 79,e
2025-03-10 13:48:41.320,588, 435, 591, -23, 46, -35, -11, 3, 8, 928, 855, 344,e
2025-03-10 13:48:41.656,736, 490, 486, 0, 1, 3, -13, 1, 10, 920, 798, 360,f
2025-03-10 13:48:41.709,736, 487, 490, 1, 1, 3, -13, 3, 10, 921, 798, 354,f
2025-03-10 13:48:41.761,732, 499, 500, -1, -1, 4, -14, 2, 10, 928, 804, 338,f
2025-03-10 13:48:41.816,753, 470, 455, -3, 4, 1, -13, 3, 10, 936, 821, 181,f
2025-03-10 13:48:41.870,710, 491, 481, -16, -2, -6, -13, 1, 10, 932, 849, 16,f
2025-03-10 13:48:41.928,911, 330, 771, 5, -36, -46, -12, 3, 10, 931, 905, 39,f
2025-03-10 13:48:41.987,614, 480, 640, 11, -26, -8, -14, 3, 12, 948, 934, 496,f
2025-03-10 13:48:42.040,660, 531, 413, 5, 19, 23, -15, 2, 12, 939, 902, 507,f
2025-03-10 13:48:42.096,526, 610, 566, 3, 4, -21, -14, 1, 11, 931, 860, 323,f
2025-03-10 13:48:42.150,809, 605, 459, 22, -2, 1, -13, 3, 11, 954, 924, 320,f
2025-03-10 13:48:42.205,808, 763, 559, 5, 5, 23, -14, 3, 12, 951, 915, 569,f
2025-03-10 13:48:42.265,675, 612, 350, -21, 48, -34, -12, 3, 11, 928, 855, 467,f
2025-03-10 13:48:42.577,733, 520, 446, 1, -3, 4, -12, 4, 12, 947, 831, 476,g
2025-03-10 13:48:42.638,734, 537, 452, 1, -3, 5, -12, 4, 12, 949, 831, 477,g
2025-03-10 13:48:42.694,714, 464, 431, -12, -1, -7, -13, 2, 11, 949, 865, 351,g
2025-03-10 13:48:42.749,677, 442, 554, 2, -8, -16, -13, 3, 14, 957, 905, 116,g
2025-03-10 13:48:42.806,780, 809, -56, 20, 21, 13, -14, 0, 15, 957, 891, 25,g
2025-03-10 13:48:42.860,708, 307, 478, -23, 23, 30, -13, 2, 12, 964, 917, 20,g
2025-03-10 13:48:42.920,610, 326, 589, 16, -31, -38, -13, 3, 11, 955, 915, 602,g
2025-03-10 13:48:42.974,657, 790, 230, 13, 14, 18, -11, 1, 13, 960, 922, 502,g
2025-03-10 13:48:43.029,576, 525, 521, -61, 46, 46, -13, 2, 11, 960, 880, 26,g
2025-03-10 13:48:43.088,983, 114, 537, 14, -6, -50, -11, 3, 10, 943, 758, 17,g
2025-03-10 13:48:43.146,625, 490, 708, -24, 29, -51, -11, 2, 5, 873, 748, 168,g
2025-03-10 13:48:43.448,710, 513, 500, 1, -9, 3, -12, 2, 8, 881, 749, 353,h
2025-03-10 13:48:43.507,713, 512, 490, 1, -9, 2, -12, 2, 8, 881, 756, 356,h
2025-03-10 13:48:43.560,742, 511, 561, 1, -11, 0, -12, 3, 11, 879, 771, 406,h
2025-03-10 13:48:43.617,727, 525, 465, 5, -14, -2, -12, 3, 11, 867, 763, 422,h
2025-03-10 13:48:43.668,762, 480, 451, -10, -1, -11, -14, 2, 11, 878, 812, 305,h
2025-03-10 13:48:43.732,749, 353, 578, 9, -9, -10, -13, 1, 11, 927, 859, 221,h
2025-03-10 13:48:43.783,695, 302, 309, 7, 43, 52, -12, 2, 13, 962, 885, 16,h
2025-03-10 13:48:43.839,782, 503, 368, -14, 19, 12, -12, 5, 11, 948, 885, 18,h
2025-03-10 13:48:43.898,844, 637, 434, -5, -39, -27, -14, 3, 11, 951, 911, 114,h
2025-03-10 13:48:43.957,619, 763, 253, -11, 28, 42, -14, 4, 13, 969, 918, 21,h
2025-03-10 13:48:44.015,887, 238, 367, -17, 25, -21, -14, 5, 12, 954, 880, 64,h
2025-03-10 13:48:44.066,589, 526, 725, 8, 11, -24, -13, 2, 7, 912, 820, 325,h
2025-03-10 13:48:44.347,722, 506, 506, -3, -1, -1, -14, 3, 10, 914, 798, 372,i
2025-03-10 13:48:44.409,728, 500, 508, -2, -1, 0, -14, 3, 10, 914, 797, 375,i
2025-03-10 13:48:44.465,727, 490, 495, 2, -5, -2, -12, 1, 12, 917, 804, 416,i
2025-03-10 13:48:44.517,728, 458, 459, 2, -2, -6, -14, 3, 11, 907, 797, 454,i
2025-03-10 13:48:44.576,674, 487, 496, -6, -14, -10, -13, 3, 11, 907, 837, 490,i
2025-03-10 13:48:44.632,741, 432, 500, -1, -4, -3, -14, 3, 11, 948, 888, 230,i
2025-03-10 13:48:44.688,562, 687, 368, -7, 14, 30, -13, 4, 11, 955, 897, 12,i
2025-03-10 13:48:44.739,750, 517, 521, -3, 7, 7, -13, 4, 12, 945, 868, 24,i
2025-03-10 13:48:44.800,937, 573, 145, -38, 28, -50, -14, 3, 11, 928, 856, 325,i
2025-03-10 13:48:44.859,256, 577, 1059, -18, -69, 3, -14, 3, 8, 943, 888, 312,i
2025-03-10 13:48:44.909,802, 566, 293, 1, 2, 7, -14, 5, 13, 952, 926, 172,i
2025-03-10 13:48:44.965,982, 279, 313, -3, 24, -3, -14, 3, 10, 955, 912, 524,i
2025-03-10 13:48:45.021,567, 564, 767, -8, 26, -11, -14, 3, 8, 945, 901, 295,i
2025-03-10 13:48:45.077,592, 541, 615, 24, -32, 16, -12, 3, 8, 929, 879, 361,i
2025-03-10 13:48:45.376,695, 522, 514, 1, -4, -1, -14, 3, 12, 911, 842, 493,j
2025-03-10 13:48:45.431,703, 525, 515, 1, -5, 1, -13, 3, 11, 911, 840, 495,j
2025-03-10 13:48:45.486,706, 506, 527, -32, -3, -9, -14, 3, 12, 919, 853, 467,j
2025-03-10 13:48:45.541,799, 498, 495, 3, 5, 8, -14, 4, 11, 940, 877, 290,j
2025-03-10 13:48:45.599,757, 311, 625, 1, 22, 23, -14, 3, 11, 954, 895, 16,j
2025-03-10 13:48:45.653,695, 373, 330, -49, 16, 12, -12, 4, 11, 952, 878, 29,j
2025-03-10 13:48:45.715,1003, 582, 146, 22, -32, -105, -12, 4, 11, 942, 877, 164,j
2025-03-10 13:48:45.769,652, -312, 207, 39, -12, -30, -14, 4, 12, 949, 926, 473,j
2025-03-10 13:48:45.830,846, 820, 302, -9, 34, 41, -15, 3, 12, 942, 912, 520,j
2025-03-10 13:48:45.886,651, 579, 408, -18, 67, -23, -15, 2, 11, 936, 870, 206,j
2025-03-10 13:48:45.938,511, 557, 701, -5, 13, -8, -12, 4, 8, 924, 840, 25,j
2025-03-10 13:48:46.180,694, 491, 519, -2, 0, -1, -14, 2, 9, 912, 774, 199,k
2025-03-10 13:48:46.237,703, 502, 524, -1, -1, -1, -12, 3, 9, 905, 774, 206,k
2025-03-10 13:48:46.297,730, 500, 488, -1, -1, 1, -14, 3, 11, 922, 787, 206,k
2025-03-10 13:48:46.353,719, 507, 501, -1, -2, 1, -15, 3, 11, 911, 781, 188,k
2025-03-10 13:48:46.406,718, 505, 495, -2, -1, -1, -13, 2, 11, 906, 780, 201,k
2025-03-10 13:48:46.459,716, 489, 504, -1, -4, 0, -13, 3, 9, 920, 785, 191,k
2025-03-10 13:48:46.517,724, 520, 481, -4, -5, 0, -13, 2, 11, 914, 771, 173,k
2025-03-10 13:48:46.570,721, 506, 480, -5, 0, -1, -13, 3, 11, 913, 774, 105,k
2025-03-10 13:48:46.627,719, 490, 488, -5, -3, -2, -12, 3, 12, 912, 784, 66,k
2025-03-10 13:48:46.685,693, 479, 528, -2, -15, -4, -15, 4, 11, 922, 803, 175,k
2025-03-10 13:48:46.737,806, 397, 436, -7, 2, -7, -14, 3, 11, 934, 858, 14,k
2025-03-10 13:48:46.786,795, 586, 464, 52, 28, 23, -14, 4, 12, 948, 863, 75,k
2025-03-10 13:48:46.849,715, 386, 275, 13, 14, 18, -13, 2, 13, 957, 858, 17,k
2025-03-10 13:48:46.906,777, 464, 516, 0, -27, 10, -14, 3, 12, 959, 933, 371,k
2025-03-10 13:48:46.957,701, 492, 554, 7, -6, -8, -13, 2, 13, 951, 928, 597,k
2025-03-10 13:48:47.016,732, 488, 348, -47, 47, -42, -14, 2, 13, 935, 832, 211,k
2025-03-10 13:48:47.070,568, 476, 787, 19, -42, 22, -13, 5, 10, 933, 776, 26,k
2025-03-10 13:48:47.132,1048, 1254, 404, -19, 6, 58, -14, 2, 13, 968, 911, 15,k
2025-03-10 13:48:47.185,685, 157, 606, 4, 9, 23, -15, 5, 12, 968, 921, 90,k
2025-03-10 13:48:47.236,693, 470, 334, -16, 38, -48, -13, 4, 10, 933, 825, 207,k
2025-03-10 13:48:47.292,608, 580, 705, 7, -7, -16, -14, 2, 8, 911, 687, 345,k
2025-03-10 13:48:47.576,714, 504, 478, -4, -5, -1, -14, 3, 11, 898, 727, 457,l
2025-03-10 13:48:47.631,718, 513, 485, -3, -5, 0, -14, 3, 12, 904, 731, 456,l
2025-03-10 13:48:47.687,740, 494, 458, -7, -5, -2, -12, 3, 11, 907, 744, 454,l
2025-03-10 13:48:47.745,729, 521, 482, -17, -1, -1, -12, 3, 11, 908, 755, 322,l
2025-03-10 13:48:47.803,743, 467, 487, -11, -4, -2, -14, 3, 11, 912, 771, 246,l
2025-03-10 13:48:47.860,709, 494, 495, -10, -6, -5, -14, 4, 11, 911, 814, 322,l
2025-03-10 13:48:47.912,750, 471, 468, -13, 0, -4, -13, 4, 11, 915, 840, 343,l
2025-03-10 13:48:47.967,715, 453, 519, -17, -2, -6, -13, 4, 11, 939, 878, 242,l
2025-03-10 13:48:48.026,736, 474, 502, -2, -3, -4, -13, 3, 10, 943, 895, 139,l
2025-03-10 13:48:48.082,819, 702, 638, 28, 38, 34, -13, 3, 12, 958, 896, 17,l
2025-03-10 13:48:48.136,753, 503, 284, 10, 22, 22, -13, 4, 12, 970, 897, 26,l
2025-03-10 13:48:48.189,895, 186, 385, -2, 6, -31, -12, 5, 9, 937, 859, 294,l
2025-03-10 13:48:48.248,578, 472, 718, -25, 18, -31, -12, 3, 6, 909, 847, 358,l
2025-03-10 13:48:48.302,597, 547, 598, 6, -28, 4, -13, 3, 5, 902, 822, 376,l
2025-03-10 13:48:48.616,705, 479, 532, 1, -3, 1, -14, 2, 10, 913, 774, 125,m
2025-03-10 13:48:48.670,708, 489, 524, 2, -5, 1, -14, 2, 10, 918, 776, 176,m
2025-03-10 13:48:48.722,741, 500, 454, 0, -3, 0, -12, 3, 11, 920, 790, 273,m
2025-03-10 13:48:48.782,713, 499, 514, 0, -6, -3, -14, 3, 12, 916, 800, 307,m
2025-03-10 13:48:48.837,721, 453, 470, -11, -3, -11, -14, 1, 10, 912, 827, 297,m
2025-03-10 13:48:48.888,725, 353, 595, -4, -8, -7, -14, 5, 11, 936, 874, 18,m
2025-03-10 13:48:48.951,955, 558, 522, -8, 23, 41, -12, 2, 11, 953, 881, 11,m
2025-03-10 13:48:49.003,831, 509, 624, -15, -1, 7, -14, 4, 11, 943, 888, 24,m
2025-03-10 13:48:49.056,763, 542, 430, -5, -19, -17, -12, 2, 12, 947, 912, 336,m
2025-03-10 13:48:49.118,628, 669, 434, 5, 22, 33, -14, 3, 14, 963, 921, 219,m
2025-03-10 13:48:49.166,770, 459, 628, -11, 6, 9, -14, 5, 11, 956, 908, 140,m
2025-03-10 13:48:49.227,640, 472, 526, -2, -20, -16, -15, 4, 11, 942, 912, 520,m
2025-03-10 13:48:49.285,718, 661, 272, -12, 35, 38, -14, 4, 13, 946, 915, 456,m
2025-03-10 13:48:49.348,740, 506, 465, -23, 38, -22, -13, 3, 10, 945, 891, 474,m
2025-03-10 13:48:49.398,645, 470, 623, -16, -3, -25, -12, 2, 8, 935, 850, 523,m
2025-03-10 13:48:49.727,726, 519, 480, 1, 1, -6, -13, 3, 11, 902, 741, 307,n
2025-03-10 13:48:49.782,729, 516, 477, -2, 0, -6, -13, 4, 10, 904, 741, 317,n
2025-03-10 13:48:49.837,733, 504, 490, -2, -3, -4, -13, 2, 10, 911, 766, 345,n
2025-03-10 13:48:49.897,658, 513, 556, -4, -10, 0, -12, 2, 12, 909, 807, 386,n
2025-03-10 13:48:49.951,747, 487, 454, -15, -3, -6, -13, 3, 11, 941, 868, 173,n
2025-03-10 13:48:50.006,721, 695, 511, -25, 31, 33, -12, 3, 12, 959, 879, 18,n
2025-03-10 13:48:50.064,755, 501, 419, -5, 11, 7, -12, 3, 10, 945, 883, 18,n
2025-03-10 13:48:50.120,740, 441, 420, 12, -38, -35, -14, 4, 11, 943, 907, 267,n
2025-03-10 13:48:50.175,815, 896, 431, 5, 10, 35, -14, 3, 14, 971, 929, 176,n
2025-03-10 13:48:50.232,734, 366, 393, -5, 24, 25, -15, 4, 14, 945, 898, 91,n
2025-03-10 13:48:50.286,737, 443, 401, -7, 37, -33, -15, 4, 11, 925, 835, 306,n
2025-03-10 13:48:50.337,598, 476, 665, -14, 4, -22, -13, 3, 5, 914, 792, 317,n
2025-03-10 13:48:50.659,731, 467, 506, 1, -9, 3, -13, 4, 11, 912, 764, 210,o
2025-03-10 13:48:50.715,742, 479, 492, 3, -9, 3, -14, 3, 11, 913, 773, 227,o
2025-03-10 13:48:50.767,748, 492, 465, -2, 3, -2, -14, 4, 11, 913, 789, 263,o
2025-03-10 13:48:50.827,724, 479, 525, 0, -2, 1, -15, 5, 12, 915, 801, 264,o
2025-03-10 13:48:50.877,743, 487, 478, -1, -1, 2, -14, 3, 12, 925, 815, 340,o
2025-03-10 13:48:50.936,761, 235, 416, 5, -1, -6, -13, 4, 12, 932, 844, 266,o
2025-03-10 13:48:50.987,693, 560, 514, -19, -2, -7, -13, 4, 12, 936, 889, 24,o
2025-03-10 13:48:51.036,593, 653, 430, 47, 8, -3, -14, 3, 13, 959, 894, 12,o
2025-03-10 13:48:51.100,738, 785, 314, -25, 28, 50, -13, 4, 11, 951, 921, 17,o
2025-03-10 13:48:51.158,547, 259, 590, 7, -31, -31, -14, 4, 10, 951, 919, 191,o
2025-03-10 13:48:51.215,989, 513, 181, -12, 20, -40, -14, 2, 11, 922, 877, 502,o
2025-03-10 13:48:51.269,551, 576, 713, -14, 11, -5, -13, 3, 9, 916, 837, 237,o
2025-03-10 13:48:51.326,687, 507, 504, 9, -21, 9, -13, 3, 8, 911, 777, 187,o
2025-03-10 13:48:51.379,780, 464, 410, 9, -4, 3, -13, 4, 10, 894, 766, 319,o
2025-03-10 13:48:51.436,701, 501, 539, 0, 3, -1, -14, 2, 10, 895, 750, 367,o
2025-03-10 13:48:51.886,730, 497, 490, 0, -3, 1, -14, 3, 10, 897, 744, 238,p
2025-03-10 13:48:51.940,739, 508, 477, -1, -2, 1, -13, 2, 10, 899, 747, 247,p
2025-03-10 13:48:51.991,724, 490, 512, -1, 0, 2, -14, 2, 10, 919, 784, 307,p
2025-03-10 13:48:52.047,731, 501, 483, 1, -1, 3, -13, 2, 9, 915, 790, 366,p
2025-03-10 13:48:52.101,728, 485, 503, -1, -1, 0, -14, 3, 9, 910, 798, 381,p
2025-03-10 13:48:52.157,736, 501, 476, -2, -1, 0, -13, 4, 11, 911, 806, 389,p
2025-03-10 13:48:52.210,708, 508, 514, -6, -7, 0, -14, 3, 12, 925, 825, 370,p
2025-03-10 13:48:52.266,713, 599, 483, -11, -4, -7, -15, 3, 12, 932, 851, 230,p
2025-03-10 13:48:52.317,903, 836, 424, 13, 27, 33, -12, 4, 13, 954, 885, 18,p
2025-03-10 13:48:52.377,762, 550, 354, -1, 26, 37, -12, 5, 11, 962, 877, 17,p
2025-03-10 13:48:52.436,778, 85, 670, 37, -59, -79, -12, 5, 11, 939, 880, 159,p
2025-03-10 13:48:52.486,575, 413, 526, -3, -28, -16, -14, 2, 14, 949, 921, 534,p
2025-03-10 13:48:52.546,621, 437, 394, -16, 35, 40, -14, 3, 14, 956, 914, 27,p
2025-03-10 13:48:52.608,902, 397, 484, -15, 11, -4, -15, 2, 12, 945, 841, 28,p
2025-03-10 13:48:52.882,736, 506, 465, -1, 4, 1, -14, 2, 12, 921, 805, 298,q
2025-03-10 13:48:52.937,738, 503, 475, -3, 3, 1, -12, 2, 12, 920, 805, 298,q
2025-03-10 13:48:52.986,736, 470, 510, 1, -2, 2, -14, 3, 12, 926, 811, 334,q
2025-03-10 13:48:53.046,739, 493, 469, 2, -6, 1, -14, 2, 11, 928, 817, 363,q
2025-03-10 13:48:53.102,725, 496, 401, -11, -1, -6, -15, 3, 12, 934, 847, 144,q
2025-03-10 13:48:53.156,724, 382, 548, -5, -4, -13, -14, 3, 11, 939, 884, 19,q
2025-03-10 13:48:53.213,946, 941, 259, 30, 23, 21, -13, 2, 15, 948, 865, 23,q
2025-03-10 13:48:53.270,744, 489, 445, -43, 16, 24, -13, 4, 12, 957, 912, 17,q
2025-03-10 13:48:53.328,707, 485, 560, 9, -23, -23, -14, 5, 12, 950, 920, 24,q
2025-03-10 13:48:53.379,946, 740, 333, 9, 30, 40, -13, 3, 12, 957, 911, 16,q
2025-03-10 13:48:53.434,708, 687, 329, -8, 19, 25, -14, 5, 14, 963, 934, 7,q
2025-03-10 13:48:53.487,737, 430, 536, 31, -14, -15, -13, 3, 11, 944, 913, 59,q
2025-03-10 13:48:53.816,721, 486, 498, 9, -12, 3, -14, 3, 12, 916, 815, 200,r
2025-03-10 13:48:53.869,746, 519, 467, 8, -11, 2, -12, 3, 10, 917, 814, 231,r
2025-03-10 13:48:53.926,750, 493, 442, -7, -5, -3, -14, 4, 13, 925, 836, 334,r
2025-03-10 13:48:53.985,747, 435, 459, -13, 1, -6, -14, 2, 12, 942, 881, 191,r
2025-03-10 13:48:54.036,830, 731, 423, 14, 28, 31, -14, 3, 11, 949, 888, 27,r
2025-03-10 13:48:54.089,755, 670, 270, -27, 15, 21, -14, 5, 12, 964, 900, 8,r
2025-03-10 13:48:54.149,794, 432, 500, 10, -42, -43, -14, 4, 11, 957, 927, 24,r
2025-03-10 13:48:54.205,748, 643, 411, 26, -5, -1, -14, 4, 12, 953, 928, 319,r
2025-03-10 13:48:54.263,630, 524, 457, -32, 65, -27, -13, 4, 9, 945, 900, 10,r
2025-03-10 13:48:54.312,551, 516, 764, 4, -9, -6, -14, 3, 5, 940, 874, 16,r
2025-03-10 13:48:54.580,736, 505, 484, -2, -6, 3, -15, 4, 10, 933, 840, 131,s
2025-03-10 13:48:54.631,736, 494, 457, -2, -5, 2, -12, 2, 9, 928, 836, 128,s
2025-03-10 13:48:54.687,728, 466, 516, -3, 0, 0, -14, 4, 12, 940, 842, 114,s
2025-03-10 13:48:54.746,715, 486, 506, -1, -4, 1, -14, 4, 10, 938, 844, 127,s
2025-03-10 13:48:54.796,749, 492, 455, 0, -2, 1, -14, 4, 11, 943, 847, 136,s
2025-03-10 13:48:54.851,726, 479, 484, -3, -1, 0, -13, 4, 9, 935, 849, 141,s
2025-03-10 13:48:54.906,726, 479, 502, -1, -2, 0, -13, 4, 10, 945, 849, 132,s
2025-03-10 13:48:54.962,755, 493, 468, -2, 1, -4, -14, 4, 11, 932, 852, 171,s
2025-03-10 13:48:55.017,735, 473, 516, -4, -1, 2, -14, 4, 9, 934, 861, 132,s
2025-03-10 13:48:55.069,726, 480, 480, 4, -4, 7, -14, 4, 11, 937, 872, 179,s
2025-03-10 13:48:55.126,720, 546, 534, -17, -5, -4, -13, 3, 12, 945, 901, 120,s
2025-03-10 13:48:55.183,453, 274, 594, 5, -9, -18, -14, 2, 11, 949, 915, 23,s
2025-03-10 13:48:55.236,770, 609, 338, 12, 26, 12, -14, 3, 13, 962, 920, 16,s
2025-03-10 13:48:55.294,688, 652, 432, -18, 7, 19, -12, 3, 11, 962, 912, 15,s
2025-03-10 13:48:55.347,952, 199, 379, 14, 2, -29, -13, 4, 11, 944, 802, 14,s
2025-03-10 13:48:55.397,582, 469, 803, -10, 29, -32, -13, 4, 6, 916, 784, 29,s
2025-03-10 13:48:55.677,716, 511, 511, 1, -2, 1, -16, 3, 10, 916, 844, 323,t
2025-03-10 13:48:55.733,716, 511, 507, 1, -3, 2, -15, 4, 11, 915, 840, 326,t
2025-03-10 13:48:55.786,763, 501, 475, 4, -11, 0, -14, 4, 9, 919, 849, 362,t
2025-03-10 13:48:55.837,752, 492, 452, -3, -1, -4, -14, 4, 11, 917, 849, 418,t
2025-03-10 13:48:55.899,669, 496, 547, -11, -21, -10, -13, 2, 11, 917, 868, 495,t
2025-03-10 13:48:55.959,702, 304, 543, 20, -3, -11, -14, 3, 12, 939, 881, 292,t
2025-03-10 13:48:56.015,229, 657, 170, 54, 47, 95, -14, 3, 12, 960, 911, 245,t
2025-03-10 13:48:56.066,699, 463, 760, -14, 2, 6, -14, 3, 10, 952, 917, 560,t
2025-03-10 13:48:56.130,436, 539, 709, -40, -19, -54, -14, 3, 10, 938, 867, 520,t
2025-03-10 13:48:56.187,917, 616, 452, 41, -6, -6, -12, 1, 13, 958, 920, 424,t
2025-03-10 13:48:56.238,763, 394, 514, 6, 8, 23, -14, 3, 11, 960, 930, 585,t
2025-03-10 13:48:56.298,766, 518, 289, -8, 44, -32, -14, 3, 11, 933, 873, 576,t
2025-03-10 13:48:56.586,733, 514, 489, 0, -2, 0, -14, 3, 10, 911, 748, 384,u
2025-03-10 13:48:56.646,738, 517, 469, -1, -2, 1, -14, 2, 11, 912, 754, 389,u
2025-03-10 13:48:56.698,749, 512, 482, 0, -3, -1, -13, 3, 11, 928, 783, 429,u
2025-03-10 13:48:56.750,716, 516, 501, 3, -5, 1, -14, 1, 11, 914, 793, 445,u
2025-03-10 13:48:56.811,791, 496, 395, -2, 0, -2, -14, 3, 11, 926, 801, 453,u
2025-03-10 13:48:56.866,725, 504, 469, -9, -1, -3, -13, 3, 12, 916, 819, 394,u
2025-03-10 13:48:56.917,742, 389, 536, -2, -7, -11, -15, 4, 12, 939, 850, 18,u
2025-03-10 13:48:56.976,633, 539, 397, -10, 25, 51, -15, 1, 12, 942, 883, 26,u
2025-03-10 13:48:57.030,700, 428, 493, -29, 18, 19, -14, 3, 9, 955, 915, 70,u
2025-03-10 13:48:57.092,752, 383, 653, -3, -12, -21, -13, 3, 11, 932, 906, 495,u
2025-03-10 13:48:57.147,846, 624, 381, 15, 21, 20, -14, 3, 12, 949, 909, 200,u
2025-03-10 13:48:57.199,791, 512, 576, -7, 10, 13, -14, 3, 12, 937, 886, 312,u
2025-03-10 13:48:57.260,708, 449, 571, -15, 29, -39, -14, 3, 10, 930, 845, 440,u
2025-03-10 13:48:58.092,726, 476, 509, 4, -7, -2, -13, 4, 8, 906, 741, 23,v
2025-03-10 13:48:58.149,730, 488, 508, 4, -8, -2, -14, 4, 9, 913, 746, 23,v
2025-03-10 13:48:58.200,726, 483, 483, 0, -2, -1, -14, 4, 9, 907, 750, 27,v
2025-03-10 13:48:58.256,725, 490, 516, 2, -6, -2, -13, 4, 10, 917, 769, 14,v
2025-03-10 13:48:58.307,739, 491, 458, 1, -2, -1, -14, 4, 12, 918, 759, 16,v
2025-03-10 13:48:58.362,732, 482, 491, 0, 0, -6, -12, 3, 10, 928, 759, 12,v
2025-03-10 13:48:58.417,642, 508, 534, -1, -17, -5, -13, 3, 12, 914, 778, 161,v
2025-03-10 13:48:58.470,734, 481, 511, -1, 1, -12, -12, 3, 12, 937, 850, 16,v
2025-03-10 13:48:58.529,874, 480, 455, 20, 37, 72, -12, 3, 14, 953, 891, 14,v
2025-03-10 13:48:58.582,854, 737, 571, -79, 6, 28, -14, 3, 13, 957, 929, 22,v
2025-03-10 13:48:58.636,768, 451, 408, 58, -20, -26, -14, 3, 11, 944, 927, 527,v
2025-03-10 13:48:58.701,738, 417, 246, -24, 85, -30, -12, 2, 11, 925, 886, 584,v
2025-03-10 13:48:58.756,475, 482, 786, -12, 26, 0, -12, 2, 5, 920, 748, 181,v
2025-03-10 13:48:59.073,712, 493, 514, -5, -5, 0, -13, 3, 9, 892, 637, 15,w
2025-03-10 13:48:59.128,718, 493, 498, -5, -5, 0, -13, 3, 8, 892, 638, 16,w
2025-03-10 13:48:59.180,711, 484, 511, -4, -2, -1, -13, 4, 10, 891, 645, 24,w
2025-03-10 13:48:59.231,726, 495, 502, 0, -4, 0, -13, 3, 9, 898, 664, 17,w
2025-03-10 13:48:59.289,669, 500, 553, 6, -9, -3, -13, 4, 10, 897, 712, 18,w
2025-03-10 13:48:59.345,511, 167, 479, -57, -12, -25, -13, 3, 12, 907, 788, 22,w
2025-03-10 13:48:59.398,761, 134, 515, 42, -5, -14, -14, 4, 11, 948, 882, 17,w
2025-03-10 13:48:59.446,928, 369, 222, 12, 19, 30, -13, 3, 13, 951, 900, 29,w
2025-03-10 13:48:59.511,597, -7, 637, 5, -20, -22, -13, 2, 11, 960, 933, 64,w
2025-03-10 13:48:59.567,750, 391, 585, 38, -19, -21, -14, 3, 13, 954, 916, 459,w
2025-03-10 13:48:59.619,767, 585, 247, -11, 9, 28, -14, 5, 12, 950, 921, 29,w
2025-03-10 13:48:59.683,813, 379, 466, 29, -17, -15, -14, 4, 12, 940, 912, 418,w
2025-03-10 13:48:59.738,614, 551, 689, -19, 62, -28, -15, 4, 7, 933, 872, 329,w
2025-03-10 13:49:00.021,729, 503, 517, -2, -4, -1, -14, 2, 11, 904, 725, 24,x
2025-03-10 13:49:00.078,728, 507, 531, -3, -5, 1, -13, 3, 12, 909, 734, 15,x
2025-03-10 13:49:00.130,771, 517, 460, 0, -6, 1, -13, 3, 12, 916, 758, 146,x
2025-03-10 13:49:00.182,722, 510, 499, -1, 0, 1, -14, 2, 11, 930, 787, 181,x
2025-03-10 13:49:00.239,731, 496, 473, -1, 0, -2, -12, 3, 11, 918, 792, 202,x
2025-03-10 13:49:00.296,763, 490, 482, -3, -1, -6, -14, 3, 11, 925, 794, 186,x
2025-03-10 13:49:00.352,729, 505, 499, -6, -2, -6, -12, 2, 11, 913, 784, 156,x
2025-03-10 13:49:00.406,708, 589, 435, -11, 0, -15, -14, 3, 11, 926, 807, 28,x
2025-03-10 13:49:00.462,1146, 505, 435, 67, 1, 19, -13, 3, 11, 956, 895, 20,x
2025-03-10 13:49:00.516,730, 252, 386, 28, 15, 26, -15, 4, 13, 963, 915, 76,x
2025-03-10 13:49:00.579,626, 433, 520, -16, 7, -44, -14, 4, 11, 938, 887, 440,x
2025-03-10 13:49:00.628,663, 858, 595, 1, -7, -9, -14, 5, 13, 944, 893, 314,x
2025-03-10 13:49:00.682,543, 402, 149, 4, 34, 15, -14, 4, 13, 953, 862, 12,x
2025-03-10 13:49:00.740,882, 460, 547, 17, 17, 8, -12, 4, 11, 928, 753, 131,x
2025-03-10 13:49:00.802,593, 479, 678, -24, 30, -33, -12, 3, 8, 901, 763, 322,x
2025-03-10 13:49:01.056,729, 487, 501, -5, 3, -3, -14, 3, 10, 909, 711, 194,y
2025-03-10 13:49:01.113,709, 492, 505, -5, 3, -3, -13, 1, 11, 905, 710, 196,y
2025-03-10 13:49:01.167,725, 481, 502, 0, -2, 0, -12, 3, 9, 909, 696, 187,y
2025-03-10 13:49:01.217,732, 511, 489, -3, 0, -2, -13, 3, 11, 898, 677, 185,y
2025-03-10 13:49:01.278,723, 504, 508, -1, -4, 0, -12, 5, 9, 907, 691, 169,y
2025-03-10 13:49:01.331,727, 486, 502, -3, -2, 1, -12, 3, 12, 904, 701, 134,y
2025-03-10 13:49:01.387,712, 485, 494, -1, -4, -2, -14, 4, 11, 906, 718, 174,y
2025-03-10 13:49:01.437,750, 610, 553, -11, -2, -6, -13, 3, 11, 929, 812, 14,y
2025-03-10 13:49:01.498,814, 849, 377, -3, 15, 57, -12, 4, 11, 953, 890, 95,y
2025-03-10 13:49:01.557,666, 332, 682, 2, -12, -6, -14, 4, 11, 942, 894, 475,y
2025-03-10 13:49:01.611,708, 481, 590, 4, -6, -13, -14, 3, 11, 942, 890, 564,y
2025-03-10 13:49:01.667,784, 739, 450, -18, 32, 44, -14, 3, 12, 969, 892, 14,y
2025-03-10 13:49:01.717,676, 392, 395, -26, 19, 9, -11, 4, 11, 939, 788, 29,y
2025-03-10 13:49:01.778,834, 530, 250, -17, 49, -53, -11, 5, 9, 869, 712, 195,y
2025-03-10 13:49:02.121,708, 503, 521, 0, -2, 0, -13, 4, 9, 886, 665, 155,z
2025-03-10 13:49:02.166,700, 493, 525, 0, -3, 1, -11, 5, 10, 887, 666, 154,z
2025-03-10 13:49:02.227,703, 486, 502, 0, -3, -1, -12, 3, 8, 883, 676, 184,z
2025-03-10 13:49:02.283,667, 487, 560, 0, -16, 3, -13, 3, 10, 897, 699, 17,z
2025-03-10 13:49:02.339,745, 437, 329, -16, 0, -10, -13, 4, 12, 907, 750, 27,z
2025-03-10 13:49:02.393,734, 536, 490, 3, -3, -6, -13, 4, 10, 929, 821, 23,z
2025-03-10 13:49:02.450,774, 365, 523, 40, -1, -8, -13, 2, 11, 940, 871, 26,z
2025-03-10 13:49:02.501,269, 399, 391, 11, -7, 5, -12, 2, 11, 944, 906, 530,z
2025-03-10 13:49:02.556,525, 659, 419, 12, 9, 12, -13, 2, 11, 949, 901, 553,z
2025-03-10 13:49:02.612,1124, 534, 452, -39, 12, 0, -14, 4, 14, 949, 772, 15,z
2025-03-10 13:49:02.670,807, 486, 504, -2, -5, 22, -12, 4, 12, 951, 913, 32,z
2025-03-10 13:49:02.724,681, 389, 423, 8, 3, 14, -14, 3, 11, 963, 928, 421,z
2025-03-10 13:49:02.782,553, 534, 303, -9, 20, -66, -13, 2, 11, 938, 832, 472,z
2025-03-10 13:49:02.836,858, 552, 301, 59, -15, -16, -13, 3, 10, 946, 892, 573,z
2025-03-10 13:49:02.896,812, 754, 596, -19, -2, 38, -14, 1, 13, 963, 934, 541,z
2025-03-10 13:49:02.948,859, 375, 450, 2, 6, -17, -14, 1, 13, 957, 892, 637,z
2025-03-10 13:49:03.011,632, 589, 681, -17, 22, -17, -14, 1, 11, 915, 706, 517,z
2025-03-10 13:49:03.486,729, 507, 477, -6, 1, -1, -13, 3, 11, 901, 614, 210,0
2025-03-10 13:49:03.543,729, 505, 495, -6, 1, -1, -14, 2, 11, 903, 617, 207,0
2025-03-10 13:49:03.596,729, 506, 480, -5, 0, -1, -13, 2, 10, 907, 633, 198,0
2025-03-10 13:49:03.651,729, 518, 487, -7, 0, -1, -13, 3, 10, 906, 633, 198,0
2025-03-10 13:49:03.706,725, 505, 479, -5, 0, -1, -13, 4, 11, 902, 632, 190,0
2025-03-10 13:49:03.765,722, 518, 492, -4, -1, -2, -13, 2, 10, 914, 646, 181,0
2025-03-10 13:49:03.821,723, 500, 496, -4, 0, -1, -14, 3, 11, 901, 657, 192,0
2025-03-10 13:49:03.873,725, 501, 481, -3, -1, -1, -13, 2, 11, 901, 662, 188,0
2025-03-10 13:49:03.931,718, 514, 502, -2, -2, 0, -12, 3, 11, 911, 673, 187,0
2025-03-10 13:49:03.980,733, 500, 483, 0, -1, 0, -13, 1, 9, 905, 675, 203,0
2025-03-10 13:49:04.038,723, 505, 479, -1, -1, 1, -14, 4, 11, 921, 687, 209,0
2025-03-10 13:49:04.091,730, 505, 484, 0, 0, 0, -14, 2, 11, 908, 699, 219,0
2025-03-10 13:49:04.146,730, 495, 490, 0, -2, 1, -14, 2, 13, 914, 717, 224,0
2025-03-10 13:49:04.199,740, 511, 479, -3, 2, -2, -12, 2, 12, 916, 721, 248,0
2025-03-10 13:49:04.251,729, 521, 481, -3, -3, -2, -14, 3, 11, 908, 726, 271,0
2025-03-10 13:49:04.313,746, 514, 465, -5, -2, -6, -13, 3, 10, 925, 743, 355,0
2025-03-10 13:49:04.366,685, 520, 521, 7, -6, 4, -15, 3, 11, 910, 767, 448,0
2025-03-10 13:49:04.420,731, 510, 446, 5, -2, 2, -13, 1, 8, 908, 777, 490,0
2025-03-10 13:49:04.476,605, 526, 525, -2, -16, 0, -15, 1, 12, 920, 813, 517,0
2025-03-10 13:49:04.530,775, 521, 514, -3, -12, -23, -13, 4, 13, 925, 876, 417,0
2025-03-10 13:49:04.591,1261, 582, 336, 83, 37, 10, -13, 1, 13, 951, 867, 19,0
2025-03-10 13:49:04.645,910, 884, 626, -19, 20, 37, -13, 3, 10, 959, 918, 22,0
2025-03-10 13:49:04.697,759, 61, 295, 29, -40, -52, -13, 1, 11, 947, 918, 577,0
2025-03-10 13:49:04.763,1027, 467, 147, -10, 17, -29, -13, 1, 12, 904, 843, 659,0
2025-03-10 13:49:04.816,560, 658, 687, -22, 23, 2, -12, 3, 8, 896, 737, 444,0
2025-03-10 13:49:05.136,737, 523, 462, -2, -2, 0, -14, 2, 13, 896, 731, 424,1
2025-03-10 13:49:05.195,744, 519, 460, -3, -2, -1, -14, 2, 13, 897, 734, 424,1
2025-03-10 13:49:05.249,730, 506, 488, -3, -2, -1, -12, 2, 14, 895, 727, 411,1
2025-03-10 13:49:05.301,737, 528, 445, -7, 1, -2, -14, 1, 12, 901, 732, 270,1
2025-03-10 13:49:05.361,709, 486, 485, -6, -2, -9, -12, 2, 13, 916, 783, 18,1
2025-03-10 13:49:05.414,808, 492, 416, 24, -1, -6, -13, 3, 12, 937, 890, 293,1
2025-03-10 13:49:05.470,665, 432, 710, 6, -8, 6, -15, 3, 12, 939, 918, 645,1
2025-03-10 13:49:05.526,883, 815, 423, 58, 29, 39, -14, 1, 12, 956, 908, 519,1
2025-03-10 13:49:05.578,776, 594, 123, -22, 40, 33, -14, 2, 12, 962, 902, 115,1
2025-03-10 13:49:05.637,598, 395, 533, -11, -1, -47, -14, 2, 12, 948, 820, 239,1
2025-03-10 13:49:05.698,842, 402, 299, -18, -10, -1, -11, 2, 12, 949, 877, 29,1
2025-03-10 13:49:05.749,921, 305, 456, 16, 8, 26, -14, 2, 12, 958, 916, 286,1
2025-03-10 13:49:05.811,784, 497, 233, -25, 53, -49, -14, 2, 11, 935, 849, 422,1
2025-03-10 13:49:06.126,731, 513, 473, 1, -10, 2, -14, 2, 9, 868, 630, 211,2
2025-03-10 13:49:06.179,729, 515, 460, 1, -9, 2, -14, 1, 9, 876, 633, 206,2
2025-03-10 13:49:06.231,732, 512, 466, -3, -3, 0, -12, 4, 9, 874, 638, 204,2
2025-03-10 13:49:06.286,690, 530, 503, -3, -5, 0, -13, 2, 10, 877, 658, 203,2
2025-03-10 13:49:06.344,651, 513, 526, 0, -23, -2, -13, 2, 11, 891, 711, 283,2
2025-03-10 13:49:06.401,898, 303, 385, 34, -9, -15, -13, 3, 12, 923, 878, 295,2
2025-03-10 13:49:06.459,417, 685, 390, 29, 6, 24, -15, 2, 14, 948, 919, 649,2
2025-03-10 13:49:06.512,1115, 623, 465, -8, 38, 20, -15, 1, 12, 951, 884, 211,2
2025-03-10 13:49:06.567,826, 409, 332, 9, 12, 4, -13, 3, 12, 953, 897, 19,2
2025-03-10 13:49:06.621,707, 589, 610, 9, -1, 18, -12, 4, 12, 952, 930, 22,2
2025-03-10 13:49:06.679,892, 445, 213, -3, 38, -37, -14, 3, 11, 936, 889, 308,2
2025-03-10 13:49:07.486,723, 540, 497, -10, -4, -5, -14, 1, 10, 874, 616, 23,3
2025-03-10 13:49:07.544,709, 530, 493, -10, -4, -3, -14, 1, 10, 869, 618, 14,3
2025-03-10 13:49:07.596,701, 521, 515, 0, -8, 0, -13, 2, 10, 862, 631, 36,3
2025-03-10 13:49:07.651,669, 517, 511, -9, -14, -2, -14, 1, 10, 888, 680, 11,3
2025-03-10 13:49:07.706,818, 306, 178, -6, 3, -8, -14, 2, 12, 897, 766, 26,3
2025-03-10 13:49:07.759,952, 465, 508, 62, 1, 3, -14, 3, 12, 928, 867, 213,3
2025-03-10 13:49:07.814,560, 335, 575, 6, 2, 13, -13, 2, 12, 932, 883, 503,3
2025-03-10 13:49:07.866,901, 564, 316, -11, 6, 7, -13, 2, 13, 936, 853, 39,3
2025-03-10 13:49:07.926,829, 327, 609, -9, 20, 23, -14, 2, 14, 945, 883, 36,3
2025-03-10 13:49:07.978,696, 769, 364, -27, 23, 30, -13, 2, 11, 943, 872, 29,3
2025-03-10 13:49:08.036,1024, 151, 402, 3, 19, -16, -13, 2, 11, 922, 623, 21,3
2025-03-10 13:49:08.094,523, 505, 850, -19, 43, -38, -12, 2, 7, 882, 625, 20,3
2025-03-10 13:49:08.147,535, 653, 624, 10, -28, 4, -11, 1, 5, 857, 618, 163,3
2025-03-10 13:49:08.636,763, 503, 428, -9, 2, 0, -13, 1, 10, 872, 734, 306,4
2025-03-10 13:49:08.692,729, 494, 464, -8, 5, -1, -14, 3, 11, 871, 739, 306,4
2025-03-10 13:49:08.743,687, 499, 522, 0, -4, -1, -14, 2, 9, 870, 730, 306,4
2025-03-10 13:49:08.797,724, 512, 459, -5, -8, -3, -13, 3, 10, 885, 767, 369,4
2025-03-10 13:49:08.861,619, 558, 679, 34, -54, 21, -13, 0, 12, 916, 881, 603,4
2025-03-10 13:49:08.916,722, 481, 479, -6, -12, -7, -16, 2, 14, 935, 910, 588,4
2025-03-10 13:49:08.968,867, 639, 324, 14, 11, 0, -12, 1, 15, 943, 873, 24,4
2025-03-10 13:49:09.026,1138, 1232, 324, 5, 20, 54, -14, 2, 14, 958, 922, 22,4
2025-03-10 13:49:09.081,768, 124, 460, 12, 7, 15, -13, 3, 14, 959, 934, 172,4
2025-03-10 13:49:09.138,845, 311, 189, -7, 7, -69, -14, 1, 13, 935, 888, 579,4
2025-03-10 13:49:09.196,469, -946, 17, 36, -23, -27, -14, 3, 13, 953, 902, 632,4
2025-03-10 13:49:09.248,652, 381, 157, -11, 55, 49, -14, 3, 14, 959, 911, 31,4
2025-03-10 13:49:09.310,1058, 98, 179, -21, 46, -27, -14, 1, 12, 945, 776, 26,4
2025-03-10 13:49:09.366,607, 568, 756, -39, 34, -47, -12, 2, 6, 903, 706, 283,4
2025-03-10 13:49:09.786,691, 541, 529, -4, 1, -1, -13, 1, 10, 888, 699, 237,5
2025-03-10 13:49:09.844,696, 537, 543, -5, 0, 0, -14, 3, 9, 890, 697, 232,5
2025-03-10 13:49:09.900,731, 508, 456, -6, -2, -4, -13, 1, 11, 884, 705, 232,5
2025-03-10 13:49:09.958,642, 537, 560, -10, -8, -5, -12, 2, 9, 902, 728, 175,5
2025-03-10 13:49:10.013,909, 362, 208, 36, -12, -13, -12, 3, 13, 933, 833, 155,5
2025-03-10 13:49:10.069,779, 393, 498, 5, 3, 21, -14, 3, 13, 948, 907, 567,5
2025-03-10 13:49:10.126,508, 246, 724, 23, -16, -18, -14, 3, 12, 936, 872, 606,5
2025-03-10 13:49:10.180,974, 650, -42, 39, 6, -7, -14, 1, 14, 950, 866, 571,5
2025-03-10 13:49:10.236,585, 580, 561, -9, 26, 35, -14, 1, 13, 949, 889, 339,5
2025-03-10 13:49:10.293,759, 411, 415, -9, 10, -4, -12, 2, 13, 934, 721, 276,5
2025-03-10 13:49:10.347,650, 416, 613, -19, 40, -50, -12, 3, 10, 854, 627, 467,5
2025-03-10 13:49:10.408,553, 634, 614, 9, -19, -12, -12, 1, 6, 847, 623, 516,5
2025-03-10 13:49:10.726,710, 531, 476, -7, -3, 3, -14, 2, 10, 860, 655, 418,6
2025-03-10 13:49:10.781,715, 519, 477, -8, -3, 3, -12, 1, 9, 862, 658, 417,6
2025-03-10 13:49:10.838,700, 541, 478, -1, -1, 0, -13, 2, 9, 874, 679, 430,6
2025-03-10 13:49:10.888,734, 506, 495, -3, -5, 2, -14, 2, 9, 866, 688, 436,6
2025-03-10 13:49:10.946,746, 518, 510, 16, -14, 11, -13, 1, 10, 894, 765, 536,6
2025-03-10 13:49:11.006,637, 803, 550, 11, -10, -9, -15, 0, 11, 916, 873, 580,6
2025-03-10 13:49:11.060,455, 280, 608, -7, -1, -16, -14, 3, 12, 928, 874, 207,6
2025-03-10 13:49:11.116,949, 410, -4, 0, 43, 36, -14, 1, 13, 947, 873, 41,6
2025-03-10 13:49:11.167,518, 634, 695, -39, 2, 19, -13, 3, 10, 960, 923, 14,6
2025-03-10 13:49:11.227,523, 576, 319, 44, -23, -40, -15, 0, 13, 923, 852, 333,6
2025-03-10 13:49:11.280,820, 565, 197, -30, 68, -37, -13, 1, 11, 887, 738, 305,6
2025-03-10 13:49:11.601,712, 530, 462, -1, -9, 2, -14, 2, 10, 886, 655, 320,7
2025-03-10 13:49:11.656,728, 528, 448, -2, -7, 1, -14, 3, 9, 880, 653, 295,7
2025-03-10 13:49:11.714,708, 518, 508, -7, -1, -1, -13, 1, 9, 876, 662, 225,7
2025-03-10 13:49:11.766,702, 536, 489, -2, -6, -1, -14, 2, 10, 879, 668, 213,7
2025-03-10 13:49:11.825,699, 532, 488, -6, -7, -1, -13, 1, 10, 872, 664, 104,7
2025-03-10 13:49:11.881,696, 501, 487, -5, -11, -2, -14, 3, 10, 876, 674, 113,7
2025-03-10 13:49:11.937,768, 465, 360, -5, -4, -14, -14, 3, 13, 907, 769, 29,7
2025-03-10 13:49:11.993,661, 640, 434, -1, -8, 23, -14, 2, 13, 942, 905, 469,7
2025-03-10 13:49:12.046,723, 562, 839, 55, 1, 12, -15, 1, 13, 954, 912, 567,7
2025-03-10 13:49:12.101,712, 654, 311, -13, 32, 28, -14, 1, 15, 952, 892, 35,7
2025-03-10 13:49:12.159,785, 58, 608, -38, -5, -43, -13, 3, 11, 946, 821, 88,7
2025-03-10 13:49:12.217,974, 949, 408, 29, -13, -14, -12, 2, 12, 938, 875, 204,7
2025-03-10 13:49:12.276,581, 1081, 384, -24, 9, 29, -14, 3, 13, 953, 920, 513,7
2025-03-10 13:49:12.336,756, 587, 204, -17, 60, -46, -14, 1, 11, 933, 855, 564,7
2025-03-10 13:49:12.387,531, 564, 833, -25, 13, -20, -12, 3, 6, 901, 614, 202,7
2025-03-10 13:49:12.696,721, 526, 497, 2, -4, 6, -14, 1, 11, 906, 695, 369,8
2025-03-10 13:49:12.748,711, 521, 489, 1, -5, 6, -14, 1, 11, 907, 704, 379,8
2025-03-10 13:49:12.808,740, 536, 451, 5, -7, 4, -15, 1, 11, 906, 732, 427,8
2025-03-10 13:49:12.859,720, 526, 476, 1, -5, 4, -14, 2, 12, 905, 750, 455,8
2025-03-10 13:49:12.915,733, 528, 446, -3, -4, 0, -13, 2, 12, 908, 764, 487,8
2025-03-10 13:49:12.973,724, 420, 429, -9, 1, -7, -12, 2, 12, 917, 807, 355,8
2025-03-10 13:49:13.025,797, 517, 509, -8, -5, -9, -15, 2, 11, 928, 835, 23,8
2025-03-10 13:49:13.083,980, 930, 101, 34, 21, 30, -13, 2, 13, 949, 852, 22,8
2025-03-10 13:49:13.136,844, 405, 427, 32, 14, 21, -13, 3, 12, 942, 888, 39,8
2025-03-10 13:49:13.192,563, 315, 559, -7, -14, -15, -13, 2, 10, 941, 914, 404,8
2025-03-10 13:49:13.253,832, 395, 295, -28, -26, -55, -14, 0, 13, 930, 914, 518,8
2025-03-10 13:49:13.312,829, 757, 317, -23, -15, 8, -15, 2, 14, 947, 934, 408,8
2025-03-10 13:49:13.365,589, 848, 302, 16, 8, 20, -15, 1, 16, 967, 935, 189,8
2025-03-10 13:49:13.417,968, 466, 132, -13, 31, 22, -14, 2, 13, 950, 895, 27,8
2025-03-10 13:49:13.478,559, 496, 614, -36, 60, -32, -13, 2, 11, 931, 890, 312,8
2025-03-10 13:49:13.530,540, 589, 741, 6, -7, -2, -14, 2, 7, 932, 875, 329,8
2025-03-10 13:49:13.590,750, 520, 486, 13, -20, 9, -14, 2, 8, 932, 838, 277,8
2025-03-10 13:49:13.643,770, 501, 440, 5, -4, 1, -14, 2, 9, 909, 803, 270,8
2025-03-10 13:49:14.046,708, 512, 494, 0, 0, -2, -13, 3, 7, 904, 681, 13,9
2025-03-10 13:49:14.099,704, 515, 500, 0, 0, -1, -13, 2, 9, 895, 676, 24,9
2025-03-10 13:49:14.152,706, 507, 496, -2, -3, 0, -12, 3, 9, 885, 675, 47,9
2025-03-10 13:49:14.205,697, 532, 499, 0, -8, 2, -14, 2, 9, 900, 716, 153,9
2025-03-10 13:49:14.260,707, 503, 516, 0, -13, 5, -14, 3, 11, 899, 753, 198,9
2025-03-10 13:49:14.316,719, 530, 469, 6, -17, 7, -12, 0, 10, 916, 794, 390,9
2025-03-10 13:49:14.372,789, 487, 368, -21, -6, -12, -15, 3, 12, 910, 864, 353,9
2025-03-10 13:49:14.429,895, 338, 549, 9, -8, -19, -15, 2, 13, 921, 874, 78,9
2025-03-10 13:49:14.480,1018, 913, 98, -10, 43, 51, -13, 3, 12, 951, 901, 26,9
2025-03-10 13:49:14.541,571, 228, 758, -8, 2, 4, -13, 3, 12, 943, 912, 462,9
2025-03-10 13:49:14.596,857, 400, 532, 26, -20, -24, -15, 0, 10, 928, 897, 621,9
2025-03-10 13:49:14.656,1044, 1226, 440, -15, 42, 48, -14, 2, 11, 942, 894, 200,9
2025-03-10 13:49:14.712,755, 215, 586, -15, 6, -11, -12, 4, 10, 910, 684, 40,9
2025-03-10 13:49:15.106,719, 521, 472, -5, -4, 1, -12, 1, 8, 829, 634, 115,+
2025-03-10 13:49:15.162,719, 511, 480, -6, -2, 1, -12, 1, 8, 825, 639, 109,+
2025-03-10 13:49:15.217,688, 520, 518, 0, -2, 0, -12, 2, 8, 848, 658, 161,+
2025-03-10 13:49:15.266,698, 504, 538, 2, -8, 4, -14, 2, 8, 848, 665, 173,+
2025-03-10 13:49:15.317,728, 526, 485, 0, -7, 3, -14, 3, 9, 851, 675, 255,+
2025-03-10 13:49:15.372,728, 524, 455, 2, 2, 0, -14, 3, 8, 866, 678, 269,+
2025-03-10 13:49:15.429,711, 512, 510, -1, -2, 1, -14, 3, 10, 866, 675, 277,+
2025-03-10 13:49:15.477,704, 517, 485, 0, 0, 0, -14, 1, 9, 871, 688, 304,+
2025-03-10 13:49:15.536,737, 505, 470, -3, -1, -1, -12, 1, 10, 872, 694, 303,+
2025-03-10 13:49:15.588,690, 508, 519, 2, 1, -3, -14, 1, 11, 875, 692, 307,+
2025-03-10 13:49:15.646,724, 515, 462, 1, -3, -3, -13, 3, 10, 878, 686, 318,+
2025-03-10 13:49:15.696,712, 495, 489, -5, -2, 0, -12, 2, 10, 878, 732, 362,+
2025-03-10 13:49:15.759,663, 494, 512, -6, -30, -7, -13, 2, 10, 904, 798, 493,+
2025-03-10 13:49:15.814,796, 237, 509, 5, -9, -15, -14, 3, 12, 928, 891, 497,+
2025-03-10 13:49:15.872,837, 788, 369, 47, 50, 33, -14, 1, 11, 935, 888, 247,+
2025-03-10 13:49:15.924,703, 560, 328, -26, 14, 16, -14, 2, 12, 944, 864, 28,+
2025-03-10 13:49:15.986,572, 575, 580, -15, -41, -45, -13, 2, 11, 924, 817, 170,+
2025-03-10 13:49:16.041,448, 931, 145, 2, -14, 25, -14, 1, 14, 948, 918, 532,+
2025-03-10 13:49:16.097,673, 504, 610, 14, 3, 12, -15, 1, 13, 933, 891, 630,+
2025-03-10 13:49:16.417,708, 523, 484, -1, 1, 3, -13, 2, 11, 882, 711, 408,-
2025-03-10 13:49:16.470,716, 534, 489, -1, 1, 3, -14, 3, 10, 884, 710, 408,-
2025-03-10 13:49:16.524,731, 519, 460, 0, 2, 4, -13, 2, 11, 886, 722, 371,-
2025-03-10 13:49:16.581,725, 519, 465, -2, -1, 1, -14, 2, 11, 914, 750, 402,-
2025-03-10 13:49:16.632,724, 532, 453, 0, 2, 2, -14, 2, 13, 890, 735, 368,-
2025-03-10 13:49:16.687,722, 515, 472, -2, 1, -1, -14, 3, 12, 916, 745, 362,-
2025-03-10 13:49:16.740,741, 529, 455, -1, 0, 0, -14, 3, 12, 895, 707, 324,-
2025-03-10 13:49:16.796,721, 516, 471, -1, 0, -1, -14, 3, 12, 896, 707, 321,-
2025-03-10 13:49:16.846,740, 532, 455, -3, -4, 1, -14, 2, 12, 900, 716, 280,-
2025-03-10 13:49:16.908,722, 559, 538, -13, 0, -11, -14, 2, 12, 900, 753, 26,-
2025-03-10 13:49:16.962,1406, 1268, 832, 84, -39, 34, -13, 2, 14, 926, 900, 400,-
2025-03-10 13:49:17.019,766, 517, 513, 21, 4, 22, -14, 3, 13, 937, 920, 639,-
2025-03-10 13:49:17.081,684, 441, 336, -8, 10, -7, -15, 3, 13, 926, 883, 627,-
2025-03-10 13:49:17.136,730, 583, 527, -39, 46, -39, -14, 1, 11, 885, 638, 219,-
2025-03-10 13:49:17.436,571, 702, 412, 24, -16, -65, -14, -2, 11, 722, 450, 141,÷
2025-03-10 13:49:17.498,572, 764, 412, 14, -12, -59, -15, -4, 11, 720, 451, 128,÷
2025-03-10 13:49:17.560,529, 777, 445, 10, -15, -49, -16, -6, 12, 704, 461, 117,÷
2025-03-10 13:49:17.616,448, 868, 395, 4, 2, -27, -17, -8, 13, 692, 481, 261,÷
2025-03-10 13:49:17.674,346, 937, 600, -9, 25, 20, -15, -8, 13, 708, 527, 300,÷
2025-03-10 13:49:17.735,392, 799, 350, -16, 15, 82, -17, -9, 14, 764, 560, 247,÷
2025-03-10 13:49:17.792,500, 488, 501, -13, 36, 55, -14, -7, 14, 796, 586, 162,÷
2025-03-10 13:49:17.847,563, 551, 459, -16, 18, 61, -13, -5, 12, 813, 588, 205,÷
2025-03-10 13:49:17.907,707, 511, 583, -3, 7, 34, -12, -4, 15, 825, 613, 214,÷
2025-03-10 13:49:17.960,822, 524, 435, 4, 7, 19, -10, -2, 15, 821, 589, 290,÷
2025-03-10 13:49:18.017,746, 548, 597, 0, -20, 7, -9, -1, 17, 845, 639, 326,÷
2025-03-10 13:49:18.075,676, 584, 405, -18, -6, -8, -9, -2, 17, 870, 703, 360,÷
2025-03-10 13:49:18.133,624, 593, 587, 10, -29, 10, -10, -1, 17, 879, 767, 451,÷
2025-03-10 13:49:18.186,727, 582, 363, 0, -19, 2, -9, -1, 19, 885, 783, 489,÷
2025-03-10 13:49:18.244,606, 572, 543, -5, -20, 8, -10, 0, 21, 900, 829, 533,÷
2025-03-10 13:49:18.296,633, 925, 414, -28, -37, -4, -11, 1, 24, 925, 891, 205,÷
2025-03-10 13:49:18.357,951, 595, 570, 64, 17, 11, -12, 1, 24, 915, 824, 516,÷
2025-03-10 13:49:18.411,35, 769, 1020, 29, 59, -4, -10, 1, 20, 920, 741, 35,÷
2025-03-10 13:49:18.466,1028, 1600, 21, -5, -2, 15, -12, 2, 23, 929, 867, 101,÷
2025-03-10 13:49:18.526,722, 212, 765, -5, -13, -13, -11, 2, 22, 910, 804, 419,÷
2025-03-10 13:49:18.580,396, 623, 812, 3, -27, -31, -11, 2, 21, 905, 722, 380,÷
2025-03-10 13:49:18.645,1194, 717, 512, -5, -36, 20, -12, 2, 23, 940, 904, 345,÷
2025-03-10 13:49:18.697,451, 733, 516, -3, 18, 29, -12, 1, 23, 948, 912, 563,÷
2025-03-10 13:49:18.756,840, 582, 75, -35, 95, -53, -12, 1, 20, 911, 811, 580,÷
2025-03-10 13:49:18.813,536, 530, 787, -42, 78, -36, -8, -1, 15, 800, 442, 371,÷
2025-03-10 13:49:19.103,515, 649, 495, 26, -28, 21, -7, -4, 13, 530, 518, 323,=
2025-03-10 13:49:19.159,520, 673, 486, 24, -25, 27, -8, -5, 14, 530, 524, 329,=
2025-03-10 13:49:19.220,519, 553, 448, 11, -18, 33, -10, -2, 16, 549, 470, 211,=
2025-03-10 13:49:19.278,605, 494, 428, 18, -47, 17, -11, -3, 19, 527, 419, 207,=
2025-03-10 13:49:19.336,764, 522, 226, -13, -14, -4, -12, -4, 23, 609, 463, 271,=
2025-03-10 13:49:19.393,690, 498, 524, 1, 8, -2, -11, -3, 22, 687, 526, 299,=
2025-03-10 13:49:19.446,639, 525, 428, -21, 26, -3, -11, -2, 22, 779, 553, 237,=
2025-03-10 13:49:19.508,1046, 856, 609, 11, -34, -18, -9, -2, 21, 803, 586, 401,=
2025-03-10 13:49:19.566,612, 494, 677, 11, -15, 4, -9, -1, 22, 863, 675, 340,=
2025-03-10 13:49:19.624,580, 518, 497, -1, -14, 11, -11, 0, 21, 875, 731, 409,=
2025-03-10 13:49:19.677,722, 568, 411, 1, -16, 6, -9, 1, 24, 882, 759, 447,=
2025-03-10 13:49:19.732,661, 567, 465, -1, -6, 0, -10, 0, 25, 899, 788, 466,=
2025-03-10 13:49:19.792,806, 507, 526, 7, -24, -41, -11, 0, 26, 905, 833, 281,=
2025-03-10 13:49:19.846,869, 1047, 247, 13, -13, 27, -11, 1, 26, 941, 913, 471,=
2025-03-10 13:49:19.897,585, 460, 596, 9, 14, 26, -11, 1, 26, 951, 925, 606,=
2025-03-10 13:49:19.960,504, 594, 504, 6, 41, -44, -12, 1, 25, 940, 832, 477,=
2025-03-10 13:49:20.017,858, 1215, 282, 45, -25, -8, -12, -2, 25, 945, 885, 424,=
2025-03-10 13:49:20.075,591, 573, 277, -24, 21, 40, -12, 0, 28, 946, 916, 463,=
2025-03-10 13:49:20.136,910, 505, 102, -15, 60, -45, -12, 0, 24, 908, 785, 543,=
2025-03-10 13:49:20.188,531, 578, 758, -32, 38, -31, -9, 0, 23, 836, 320, 170,=
2025-03-10 13:49:20.540,620, 650, 441, 3, -7, 5, -10, 0, 23, 875, 658, 303,≠
2025-03-10 13:49:20.595,626, 643, 443, 2, -8, 7, -10, -1, 23, 878, 665, 340,≠
2025-03-10 13:49:20.646,642, 615, 427, -2, -3, 22, -10, -1, 24, 902, 731, 412,≠
2025-03-10 13:49:20.707,742, 573, 497, 5, -9, 21, -11, -1, 24, 911, 789, 479,≠
2025-03-10 13:49:20.760,760, 569, 399, 1, -6, 7, -10, 1, 25, 908, 826, 541,≠
2025-03-10 13:49:20.817,697, 585, 426, -3, 1, -2, -12, 0, 24, 911, 836, 556,≠
2025-03-10 13:49:20.873,713, 562, 424, -1, -3, 0, -10, 1, 25, 917, 845, 563,≠
2025-03-10 13:49:20.929,709, 569, 405, -4, 1, -2, -12, 1, 26, 927, 853, 559,≠
2025-03-10 13:49:20.979,694, 571, 454, -3, -5, 0, -12, 1, 25, 913, 832, 547,≠
2025-03-10 13:49:21.041,639, 564, 493, -3, -14, 0, -12, 2, 27, 913, 824, 452,≠
2025-03-10 13:49:21.096,834, 447, 304, 21, -15, -14, -12, 3, 26, 948, 886, 27,≠
2025-03-10 13:49:21.156,629, 488, 519, -14, 16, 33, -12, 1, 27, 948, 919, 614,≠
2025-03-10 13:49:21.210,641, 277, 372, -9, 37, -15, -12, 0, 27, 931, 845, 544,≠
2025-03-10 13:49:21.267,4077, -14, 202, -12, -12, -34, -11, 1, 24, 934, 669, 28,≠
2025-03-10 13:49:21.328,1016, 592, 259, -25, 10, 53, -11, 0, 28, 949, 914, 466,≠
2025-03-10 13:49:21.379,659, 271, 481, -25, -6, -5, -11, 1, 25, 946, 902, 632,≠
2025-03-10 13:49:21.439,455, 713, 880, 12, -63, 4, -11, 1, 25, 933, 889, 690,≠
2025-03-10 13:49:21.496,587, 689, 151, 22, -3, 3, -11, 1, 27, 954, 915, 559,≠
2025-03-10 13:49:21.553,500, 623, 110, -39, 61, 27, -12, 2, 27, 954, 835, 23,≠
2025-03-10 13:49:21.608,1101, 450, 338, -16, 37, -6, -11, 2, 24, 910, 623, 244,≠
2025-03-10 13:49:21.667,665, 544, 750, -47, 26, -34, -10, 1, 22, 889, 693, 264,≠
2025-03-10 13:49:21.969,688, 520, 516, -6, 2, -1, -11, 1, 23, 864, 656, 163,≈
2025-03-10 13:49:22.023,686, 532, 532, -6, 0, 0, -10, 0, 22, 869, 654, 167,≈
2025-03-10 13:49:22.080,700, 541, 470, -5, -2, 1, -10, 2, 22, 873, 657, 160,≈
2025-03-10 13:49:22.131,698, 547, 477, -4, -2, 3, -11, 0, 23, 881, 668, 155,≈
2025-03-10 13:49:22.190,698, 533, 498, -1, -4, 3, -11, 2, 22, 885, 697, 158,≈
2025-03-10 13:49:22.246,710, 544, 488, 0, -6, 2, -12, 2, 23, 897, 729, 180,≈
2025-03-10 13:49:22.296,732, 528, 445, -2, -3, 1, -12, 1, 23, 907, 742, 176,≈
2025-03-10 13:49:22.356,704, 541, 482, -4, -1, -1, -11, 1, 23, 898, 740, 165,≈
2025-03-10 13:49:22.406,722, 542, 466, -1, -3, 0, -10, 2, 24, 903, 752, 153,≈
2025-03-10 13:49:22.466,726, 539, 479, 0, -2, -2, -11, 1, 23, 913, 765, 219,≈
2025-03-10 13:49:22.517,698, 547, 473, 1, 0, -3, -11, 3, 25, 901, 762, 263,≈
2025-03-10 13:49:22.576,735, 524, 458, -2, -2, -1, -11, 2, 24, 909, 768, 260,≈
2025-03-10 13:49:22.627,709, 547, 482, -2, -1, -1, -10, 2, 24, 909, 774, 260,≈
2025-03-10 13:49:22.688,715, 540, 455, -1, 1, -3, -10, 2, 24, 902, 771, 288,≈
2025-03-10 13:49:22.739,708, 541, 479, 0, -2, -1, -10, 2, 23, 915, 779, 299,≈
2025-03-10 13:49:22.793,712, 529, 475, 0, 1, -1, -10, 2, 23, 907, 767, 299,≈
2025-03-10 13:49:22.846,713, 547, 505, 7, -2, 3, -9, 3, 23, 910, 758, 311,≈
2025-03-10 13:49:22.906,748, 543, 416, -1, 0, -3, -11, 1, 24, 901, 757, 333,≈
2025-03-10 13:49:22.959,626, 556, 590, 8, -16, 7, -11, 3, 24, 913, 785, 340,≈
2025-03-10 13:49:23.015,792, 549, 341, -5, -3, -11, -11, 1, 25, 936, 841, 58,≈
2025-03-10 13:49:23.072,712, 527, 600, -2, -17, 4, -12, 2, 24, 940, 907, 521,≈
2025-03-10 13:49:23.125,710, 532, 453, 17, -9, 8, -11, 0, 26, 946, 915, 556,≈
2025-03-10 13:49:23.180,752, 615, 406, 26, 13, 19, -11, 2, 25, 953, 906, 581,≈
2025-03-10 13:49:23.239,419, 631, 592, -6, 46, -22, -11, 1, 23, 941, 827, 282,≈
2025-03-10 13:49:23.297,4878, 129, -45, -1, -21, -21, -11, 1, 24, 945, 857, 286,≈
2025-03-10 13:49:23.356,710, 411, 565, 2, -20, 2, -11, 1, 25, 956, 919, 370,≈
2025-03-10 13:49:23.413,710, 791, 225, -10, 12, 27, -12, 1, 23, 960, 919, 180,≈
2025-03-10 13:49:23.463,836, 461, 393, -20, 19, 8, -12, 2, 25, 962, 900, 288,≈
2025-03-10 13:49:23.526,652, 545, 665, -24, 30, -32, -10, 0, 23, 928, 845, 409,≈
2025-03-10 13:49:23.811,580, 642, 503, -3, -4, -37, -10, -3, 21, 901, 617, 68,<
2025-03-10 13:49:23.871,567, 646, 542, 1, -5, -30, -9, -2, 20, 899, 623, 141,<
2025-03-10 13:49:23.929,523, 662, 526, 8, -7, 26, -10, -2, 20, 926, 678, 262,<
2025-03-10 13:49:23.976,713, 590, 385, 9, -10, 30, -11, 0, 24, 917, 730, 239,<
2025-03-10 13:49:24.039,750, 569, 381, -6, 3, 13, -11, 0, 23, 925, 776, 255,<
2025-03-10 13:49:24.092,687, 551, 482, -6, 2, 9, -12, 0, 23, 929, 798, 250,<
2025-03-10 13:49:24.140,704, 554, 466, 1, -4, 5, -11, 0, 23, 924, 801, 285,<
2025-03-10 13:49:24.197,734, 563, 414, -4, -2, 1, -10, 0, 22, 930, 807, 323,<
2025-03-10 13:49:24.256,698, 559, 469, -3, 0, 3, -11, 2, 26, 923, 807, 333,<
2025-03-10 13:49:24.310,735, 548, 438, -1, -1, 4, -11, 1, 24, 927, 814, 318,<
2025-03-10 13:49:24.367,700, 560, 464, -3, -6, 3, -12, 0, 24, 941, 830, 334,<
2025-03-10 13:49:24.426,755, 548, 403, -1, -17, 3, -10, 1, 24, 935, 857, 523,<
2025-03-10 13:49:24.478,580, 549, 641, -9, -41, 9, -12, 1, 24, 934, 872, 550,<
2025-03-10 13:49:24.538,734, 558, 419, -12, -14, -6, -12, 2, 25, 948, 904, 158,<
2025-03-10 13:49:24.591,661, 783, 284, 33, 38, 10, -13, 3, 26, 953, 868, 21,<
2025-03-10 13:49:24.647,1262, 975, 122, 26, 21, 30, -12, 1, 26, 959, 909, 20,<
2025-03-10 13:49:24.697,611, 88, 557, 2, 3, 14, -11, 3, 25, 954, 924, 37,<
2025-03-10 13:49:24.756,939, 382, 262, 30, 13, -38, -12, 3, 26, 942, 875, 304,<
2025-03-10 13:49:24.817,646, 597, 655, -26, 25, -32, -10, 2, 23, 913, 725, 229,<
2025-03-10 13:49:25.180,714, 566, 436, -2, -2, 2, -10, 1, 24, 910, 721, 230,≤
2025-03-10 13:49:25.240,722, 563, 440, -2, -2, 3, -11, 3, 24, 911, 726, 219,≤
2025-03-10 13:49:25.292,722, 530, 454, -1, -2, 1, -11, 0, 25, 903, 724, 238,≤
2025-03-10 13:49:25.347,730, 538, 444, -2, -1, 2, -12, 3, 23, 914, 729, 233,≤
2025-03-10 13:49:25.397,729, 546, 435, -3, -2, 2, -12, 2, 25, 917, 737, 232,≤
2025-03-10 13:49:25.460,726, 540, 458, -4, -2, 2, -11, 1, 25, 912, 748, 235,≤
2025-03-10 13:49:25.513,746, 533, 438, 0, -5, 4, -12, 2, 26, 919, 757, 231,≤
2025-03-10 13:49:25.566,748, 548, 434, -4, 0, 2, -10, 3, 24, 916, 758, 241,≤
2025-03-10 13:49:25.620,731, 530, 456, -2, -2, 1, -10, 2, 24, 923, 776, 247,≤
2025-03-10 13:49:25.676,735, 532, 431, 0, -3, 1, -12, 2, 27, 923, 802, 388,≤
2025-03-10 13:49:25.729,715, 535, 453, -2, -8, 3, -12, 2, 25, 923, 821, 413,≤
2025-03-10 13:49:25.788,752, 499, 430, -9, -7, -5, -12, 2, 25, 938, 877, 272,≤
2025-03-10 13:49:25.846,672, 392, 591, 20, -14, -14, -12, 1, 26, 936, 891, 188,≤
2025-03-10 13:49:25.898,611, 894, 235, -8, 30, 10, -12, 1, 27, 949, 825, 24,≤
2025-03-10 13:49:25.956,907, 963, 524, 0, 16, 42, -12, 1, 25, 971, 911, 25,≤
2025-03-10 13:49:26.007,645, 438, 582, 17, 5, 13, -12, 3, 24, 958, 924, 39,≤
2025-03-10 13:49:26.067,714, 402, 433, 11, 36, -18, -13, 2, 25, 959, 808, 29,≤
2025-03-10 13:49:26.117,888, 778, 388, 28, -9, -6, -10, 3, 26, 950, 863, 30,≤
2025-03-10 13:49:26.172,363, 370, 298, -6, 8, 33, -12, 3, 25, 961, 928, 44,≤
2025-03-10 13:49:26.228,847, 401, 462, -7, 13, -2, -12, 2, 24, 956, 879, 15,≤
2025-03-10 13:49:26.288,632, 387, 678, -61, 63, -56, -10, 2, 21, 899, 470, 30,≤
2025-03-10 13:49:26.598,707, 533, 462, -5, -10, 0, -10, 1, 24, 904, 721, 184,>
2025-03-10 13:49:26.657,713, 536, 466, -4, -11, 0, -10, 1, 24, 902, 723, 196,>
2025-03-10 13:49:26.714,746, 539, 430, -3, -4, 0, -13, 2, 24, 906, 737, 205,>
2025-03-10 13:49:26.772,736, 524, 425, 0, -2, -2, -12, 2, 23, 906, 746, 237,>
2025-03-10 13:49:26.825,711, 537, 480, 4, -2, 0, -12, 3, 24, 904, 752, 235,>
2025-03-10 13:49:26.876,765, 553, 395, -1, -2, -4, -11, 2, 25, 900, 740, 222,>
2025-03-10 13:49:26.932,717, 550, 472, -6, 0, -1, -12, 2, 25, 916, 740, 161,>
2025-03-10 13:49:26.991,724, 535, 434, -5, 0, -3, -12, 2, 25, 908, 749, 137,>
2025-03-10 13:49:27.042,732, 542, 434, -4, -3, 0, -11, 1, 24, 914, 758, 31,>
2025-03-10 13:49:27.096,729, 544, 424, -3, 0, -1, -12, 1, 25, 913, 764, 20,>
2025-03-10 13:49:27.146,675, 528, 506, 3, -10, 0, -11, 3, 24, 913, 777, 39,>
2025-03-10 13:49:27.210,750, 441, 338, -12, -5, -11, -12, 2, 26, 931, 833, 20,>
2025-03-10 13:49:27.260,824, 582, 185, 7, 2, 34, -11, 1, 26, 946, 904, 471,>
2025-03-10 13:49:27.317,646, 546, 577, 15, -2, 0, -12, 1, 26, 946, 912, 575,>
2025-03-10 13:49:27.373,1054, 686, 249, -28, 23, 6, -12, 1, 24, 951, 898, 17,>
2025-03-10 13:49:27.426,1118, 747, 470, 1, 31, 22, -12, 3, 24, 938, 835, 220,>
2025-03-10 13:49:27.488,558, 488, 571, -34, 49, -31, -10, 1, 22, 928, 822, 357,>
2025-03-10 13:49:27.817,719, 538, 445, -7, -7, -2, -13, 1, 24, 903, 769, 350,≥
2025-03-10 13:49:27.877,730, 535, 439, -7, -6, -2, -11, 1, 24, 908, 774, 347,≥
2025-03-10 13:49:27.928,734, 548, 436, -5, -3, -4, -11, 2, 26, 908, 790, 360,≥
2025-03-10 13:49:27.988,716, 535, 453, -2, -5, -3, -12, 3, 24, 910, 799, 395,≥
2025-03-10 13:49:28.048,715, 496, 475, -3, -14, -3, -12, 1, 25, 914, 812, 339,≥
2025-03-10 13:49:28.106,677, 587, 471, -4, -13, -17, -12, 1, 25, 927, 842, 22,≥
2025-03-10 13:49:28.164,805, 658, 425, 102, -10, -7, -12, 1, 25, 945, 901, 298,≥
2025-03-10 13:49:28.217,652, 738, 575, 4, 5, 18, -12, 1, 27, 959, 922, 607,≥
2025-03-10 13:49:28.266,583, 413, 296, 8, 11, 1, -12, 0, 27, 950, 909, 442,≥
2025-03-10 13:49:28.326,677, 651, 339, -29, 26, 2, -12, 3, 27, 961, 874, 22,≥
2025-03-10 13:49:28.382,981, 280, 311, -21, 38, -6, -12, 2, 25, 930, 705, 34,≥
2025-03-10 13:49:28.437,406, 724, 895, 25, -29, 24, -11, 1, 23, 929, 699, 20,≥
2025-03-10 13:49:28.490,847, 448, -58, 76, -4, -2, -12, 3, 27, 942, 882, 40,≥
2025-03-10 13:49:28.546,862, 63, 403, -5, 5, 25, -12, 2, 26, 947, 919, 59,≥
2025-03-10 13:49:28.596,861, 386, 308, 0, 13, -10, -11, 3, 24, 928, 851, 432,≥
2025-03-10 13:49:28.916,697, 532, 475, 3, -6, -40, -11, -1, 24, 883, 589, 262,±
2025-03-10 13:49:28.976,664, 528, 511, 10, -10, -46, -12, -1, 22, 885, 577, 253,±
2025-03-10 13:49:29.040,616, 818, 377, 63, -20, -38, -11, -3, 24, 894, 302, 324,±
2025-03-10 13:49:29.096,635, 729, 266, 12, -7, 25, -11, -4, 25, 896, 506, 399,±
2025-03-10 13:49:29.158,724, 653, 334, -30, 14, 30, -11, -2, 25, 913, 706, 506,±
2025-03-10 13:49:29.216,668, 620, 406, -18, 3, 22, -12, -2, 25, 930, 797, 540,±
2025-03-10 13:49:29.270,729, 576, 369, -6, -2, 14, -9, -1, 25, 935, 826, 563,±
2025-03-10 13:49:29.326,748, 565, 389, -4, -1, 6, -12, -1, 25, 935, 835, 569,±
2025-03-10 13:49:29.376,748, 573, 382, -8, 0, 4, -11, 0, 26, 941, 844, 541,±
2025-03-10 13:49:29.437,681, 594, 414, -8, 1, -4, -12, 0, 26, 937, 847, 507,±
2025-03-10 13:49:29.489,673, 561, 415, -14, 3, -9, -10, 1, 26, 937, 819, 418,±
2025-03-10 13:49:29.547,708, 560, 418, -9, -1, -3, -12, 2, 26, 938, 828, 403,±
2025-03-10 13:49:29.604,915, 338, 325, -1, -7, -21, -13, 0, 26, 936, 847, 266,±
2025-03-10 13:49:29.666,1137, 1098, 450, 32, -14, 30, -11, 0, 25, 950, 911, 381,±
2025-03-10 13:49:29.719,536, 398, 507, 0, 16, 21, -13, 0, 25, 951, 916, 530,±
2025-03-10 13:49:29.777,419, 684, 615, -19, -10, -31, -12, 2, 24, 939, 893, 664,±
2025-03-10 13:49:29.826,715, 342, 381, 20, -10, -6, -13, 0, 26, 966, 917, 556,±
2025-03-10 13:49:29.890,422, 359, 301, 17, 40, 33, -11, 1, 25, 958, 901, 307,±
2025-03-10 13:49:29.946,759, 489, 278, -1, 50, -44, -11, 1, 24, 938, 808, 470,±
2025-03-10 13:49:30.006,734, 931, 345, 66, -20, -7, -11, 2, 24, 946, 863, 431,±
2025-03-10 13:49:30.057,536, 479, 375, -49, 17, 40, -12, 1, 24, 952, 915, 206,±
2025-03-10 13:49:30.120,982, 375, 57, -2, 50, -42, -12, 2, 26, 940, 863, 461,±
2025-03-10 13:49:30.177,519, 551, 807, -30, 33, -26, -9, 1, 21, 911, 659, 218,±
2025-03-10 13:49:30.487,735, 540, 381, 5, -10, -3, -12, 1, 25, 923, 779, 437,∓
2025-03-10 13:49:30.548,742, 555, 386, 2, -6, -3, -12, 1, 25, 927, 785, 442,∓
2025-03-10 13:49:30.604,716, 579, 419, -5, -4, -9, -10, 0, 25, 918, 796, 459,∓
2025-03-10 13:49:30.662,620, 548, 509, 3, -13, -8, -13, 1, 25, 918, 780, 333,∓
2025-03-10 13:49:30.716,1328, 600, 279, -17, -14, -21, -11, 2, 26, 937, 836, 25,∓
2025-03-10 13:49:30.776,519, 1085, 144, -24, -23, 57, -11, 0, 26, 966, 927, 235,∓
2025-03-10 13:49:30.834,656, 333, 439, -4, 1, 14, -12, 1, 26, 955, 928, 231,∓
2025-03-10 13:49:30.892,678, 451, 305, 28, 14, -12, -13, 2, 26, 936, 861, 392,∓
2025-03-10 13:49:30.947,518, 683, 702, 18, 25, -25, -10, 1, 24, 918, 541, 129,∓
2025-03-10 13:49:31.006,1062, 1311, 365, 4, -17, 18, -11, 1, 26, 954, 882, 181,∓
2025-03-10 13:49:31.057,786, 617, 416, -3, 11, 33, -12, 0, 27, 951, 915, 61,∓
2025-03-10 13:49:31.117,773, 344, 266, 11, 11, -52, -12, 3, 25, 933, 857, 488,∓
2025-03-10 13:49:31.174,423, -48, 110, 0, -17, -20, -12, 1, 25, 938, 860, 476,∓
2025-03-10 13:49:31.232,1017, 686, -187, 7, 62, 42, -12, 3, 27, 946, 856, 35,∓
2025-03-10 13:49:31.291,1030, 228, 135, -20, 64, -60, -11, 4, 24, 930, 615, 143,∓
2025-03-10 13:49:31.347,581, 503, 671, -60, 35, -47, -8, 0, 20, 831, 612, 370,∓
2025-03-10 13:49:31.608,689, 571, 482, -5, 1, 0, -9, 0, 24, 868, 594, 28,∞
2025-03-10 13:49:31.666,675, 567, 500, -7, 0, 1, -10, 0, 21, 866, 598, 37,∞
2025-03-10 13:49:31.723,680, 574, 494, 4, -11, 7, -10, 0, 22, 871, 610, 68,∞
2025-03-10 13:49:31.770,724, 577, 437, 4, -4, 7, -9, 0, 22, 886, 643, 193,∞
2025-03-10 13:49:31.829,712, 541, 475, -4, -5, 2, -10, 0, 22, 902, 706, 174,∞
2025-03-10 13:49:31.876,687, 537, 492, 6, -8, 3, -10, -1, 24, 909, 744, 207,∞
2025-03-10 13:49:31.940,706, 543, 435, 11, -13, -3, -11, 0, 23, 917, 777, 259,∞
2025-03-10 13:49:31.993,672, 571, 480, 7, -6, 1, -11, 1, 25, 921, 808, 329,∞
2025-03-10 13:49:32.051,743, 605, 361, -4, -2, 6, -11, 1, 24, 923, 827, 364,∞
2025-03-10 13:49:32.104,714, 532, 441, -3, 3, 0, -12, 1, 26, 927, 844, 377,∞
2025-03-10 13:49:32.157,808, 567, 430, -2, -14, 2, -11, 3, 25, 928, 852, 522,∞
2025-03-10 13:49:32.219,688, 566, 414, -3, 15, -7, -13, 0, 26, 941, 887, 589,∞
2025-03-10 13:49:32.272,643, 569, 482, -2, -3, 0, -11, 2, 25, 938, 872, 538,∞
2025-03-10 13:49:32.325,839, 559, 285, 7, -5, 7, -11, 2, 25, 938, 881, 576,∞
2025-03-10 13:49:32.377,601, 595, 534, -7, -19, -2, -11, 1, 25, 947, 893, 625,∞
2025-03-10 13:49:32.434,742, 445, 355, 9, -3, 3, -12, 1, 26, 945, 900, 614,∞
2025-03-10 13:49:32.490,758, 572, 481, 15, 25, 11, -11, 1, 26, 950, 904, 353,∞
2025-03-10 13:49:32.547,929, 469, 260, -12, 24, -2, -11, 2, 26, 950, 897, 22,∞
2025-03-10 13:49:32.608,884, 446, 623, 5, -35, -31, -11, 1, 24, 944, 893, 198,∞
2025-03-10 13:49:32.660,743, 540, 205, 2, -1, 31, -13, 1, 26, 962, 921, 30,∞
2025-03-10 13:49:32.716,678, 750, 436, -23, 10, 23, -13, 3, 23, 972, 932, 22,∞
2025-03-10 13:49:32.775,545, 633, 442, 3, -26, -33, -13, 3, 25, 944, 910, 313,∞
2025-03-10 13:49:32.827,1405, 643, 514, -9, 26, 8, -11, 4, 28, 948, 898, 32,∞
2025-03-10 13:49:32.886,823, 499, 162, -39, 39, 16, -12, 2, 26, 950, 809, 24,∞
2025-03-10 13:49:32.942,812, 543, 259, -6, 53, -37, -10, 3, 24, 914, 713, 164,∞
2025-03-10 13:49:33.239,502, 713, 378, -13, -11, 7, -11, -3, 21, 849, 602, 31,∑
2025-03-10 13:49:33.296,508, 713, 400, -11, -9, 11, -11, -3, 21, 846, 611, 144,∑
2025-03-10 13:49:33.356,625, 619, 406, -9, -1, 38, -11, -4, 22, 858, 655, 251,∑
2025-03-10 13:49:33.410,803, 503, 519, 3, 5, 35, -12, -2, 25, 876, 696, 423,∑
2025-03-10 13:49:33.466,620, 581, 518, 7, 6, 9, -11, -2, 23, 906, 777, 561,∑
2025-03-10 13:49:33.520,727, 583, 425, 6, -12, 8, -11, 0, 23, 903, 823, 618,∑
2025-03-10 13:49:33.576,734, 581, 388, 3, -14, 8, -11, 1, 24, 935, 864, 641,∑
2025-03-10 13:49:33.631,732, 582, 425, -2, -3, 8, -11, 1, 25, 925, 873, 657,∑
2025-03-10 13:49:33.677,717, 574, 402, -6, 3, 1, -11, 1, 25, 921, 875, 660,∑
2025-03-10 13:49:33.742,772, 560, 375, -3, -2, -2, -13, 1, 26, 924, 879, 650,∑
2025-03-10 13:49:33.800,674, 606, 416, -19, 5, -6, -13, 1, 25, 935, 886, 649,∑
2025-03-10 13:49:33.853,625, 591, 503, -5, 1, -2, -13, 2, 25, 929, 879, 620,∑
2025-03-10 13:49:33.914,690, 523, 616, -76, -19, -37, -12, 1, 26, 949, 885, 495,∑
2025-03-10 13:49:33.967,863, 936, 37, 2, -24, 42, -12, 0, 27, 956, 925, 487,∑
2025-03-10 13:49:34.025,514, 453, 532, 10, 12, 24, -14, 1, 26, 957, 930, 498,∑
2025-03-10 13:49:34.077,715, 571, 269, -1, 16, -51, -13, 1, 27, 931, 881, 636,∑
2025-03-10 13:49:34.136,875, 631, 413, -9, -8, -9, -12, 1, 27, 948, 890, 534,∑
2025-03-10 13:49:34.191,730, 368, 293, 11, 24, 46, -13, 1, 27, 957, 925, 433,∑
2025-03-10 13:49:34.251,702, 436, 678, 12, -2, 8, -12, 1, 26, 948, 916, 387,∑
2025-03-10 13:49:34.307,716, 559, 331, 12, 11, -19, -12, 1, 26, 952, 873, 203,∑
2025-03-10 13:49:34.356,836, 718, 490, 2, 0, 5, -11, 2, 26, 966, 905, 79,∑
2025-03-10 13:49:34.410,740, 40, 273, 11, 0, 26, -12, 2, 24, 956, 923, 48,∑
2025-03-10 13:49:34.462,680, 400, 443, 2, 10, 7, -11, 2, 24, 956, 916, 42,∑
2025-03-10 13:49:34.522,1023, 443, 163, 14, 55, -42, -11, 3, 24, 909, 711, 229,∑
2025-03-10 13:49:34.576,583, 547, 713, -21, 31, -17, -9, 1, 22, 878, 389, 25,∑
2025-03-10 13:49:34.996,368, 712, 628, 1, -21, 29, -6, -8, 11, 769, 606, 156,∏
2025-03-10 13:49:35.057,392, 691, 587, 3, -24, 36, -7, -6, 13, 768, 584, 157,∏
2025-03-10 13:49:35.112,471, 602, 529, 25, -45, 84, -8, -6, 17, 744, 539, 162,∏
2025-03-10 13:49:35.171,654, 419, 390, 21, -31, 58, -11, -4, 21, 744, 547, 25,∏
2025-03-10 13:49:35.226,717, 471, 462, 9, 1, 29, -12, -3, 20, 778, 543, 30,∏
2025-03-10 13:49:35.277,732, 553, 412, -13, 14, -3, -9, 0, 21, 822, 564, 17,∏
2025-03-10 13:49:35.331,891, 703, 809, 6, -15, -11, -11, -1, 18, 837, 604, 38,∏
2025-03-10 13:49:35.386,521, 452, 492, 3, -13, 7, -9, 1, 21, 863, 673, 37,∏
2025-03-10 13:49:35.446,735, 601, 397, -2, -17, 7, -9, 0, 21, 885, 729, 23,∏
2025-03-10 13:49:35.496,712, 580, 485, 1, -16, 2, -10, 0, 23, 888, 738, 112,∏
2025-03-10 13:49:35.556,792, 585, 361, -12, -4, -7, -11, 1, 23, 900, 759, 199,∏
2025-03-10 13:49:35.606,654, 570, 488, -6, -4, -13, -11, 2, 24, 896, 779, 209,∏
2025-03-10 13:49:35.670,634, -5, 402, -24, -16, -32, -11, 2, 23, 918, 836, 24,∏
2025-03-10 13:49:35.730,1207, 1546, 227, -14, -39, 61, -11, 0, 25, 949, 922, 378,∏
2025-03-10 13:49:35.785,563, 301, 477, 5, 22, 36, -12, 3, 27, 953, 924, 419,∏
2025-03-10 13:49:35.838,688, 426, 333, -1, 15, -52, -12, 1, 25, 935, 870, 585,∏
2025-03-10 13:49:35.896,1084, 339, 158, -11, -7, -18, -12, 0, 25, 940, 872, 519,∏
2025-03-10 13:49:35.958,279, 658, 239, 5, 32, 33, -11, 3, 26, 958, 900, 357,∏
2025-03-10 13:49:36.012,840, 433, 405, 17, 17, 12, -11, 1, 24, 940, 849, 493,∏
2025-03-10 13:49:36.073,418, 662, 840, -17, -25, 13, -10, 1, 24, 933, 887, 674,∏
2025-03-10 13:49:36.126,797, 750, 37, 6, 4, 20, -11, 1, 26, 952, 909, 566,∏
2025-03-10 13:49:36.179,620, 634, 253, 0, 41, 32, -13, 1, 23, 938, 871, 222,∏
2025-03-10 13:49:36.237,958, 499, 154, -29, 53, -41, -10, 2, 23, 916, 765, 499,∏
2025-03-10 13:49:36.557,729, 531, 501, -8, 0, -45, -8, -1, 21, 862, 585, 21,√
2025-03-10 13:49:36.607,715, 568, 451, -9, 3, -45, -8, 0, 18, 861, 586, 71,√
2025-03-10 13:49:36.670,570, 563, 621, -8, 2, -25, -7, -2, 19, 878, 629, 166,√
2025-03-10 13:49:36.723,536, 628, 515, 6, -4, 7, -9, -3, 17, 887, 634, 187,√
2025-03-10 13:49:36.776,659, 595, 461, 13, -10, 8, -11, -2, 18, 904, 650, 197,√
2025-03-10 13:49:36.834,671, 631, 486, 7, 0, 14, -9, -2, 17, 892, 669, 241,√
2025-03-10 13:49:36.890,688, 576, 502, 0, 0, 13, -10, -1, 20, 888, 681, 244,√
2025-03-10 13:49:36.947,671, 574, 487, 3, -1, 12, -10, -3, 20, 911, 697, 185,√
2025-03-10 13:49:37.002,685, 566, 491, -2, -4, 11, -9, -1, 20, 895, 677, 148,√
2025-03-10 13:49:37.057,682, 580, 498, 4, -11, 10, -10, 1, 20, 903, 693, 148,√
2025-03-10 13:49:37.116,688, 533, 470, 10, -12, 10, -10, -1, 21, 915, 724, 270,√
2025-03-10 13:49:37.170,713, 550, 410, 8, -7, 8, -10, 0, 21, 921, 749, 361,√
2025-03-10 13:49:37.226,713, 557, 449, 11, -1, 5, -12, 0, 24, 920, 738, 425,√
2025-03-10 13:49:37.286,775, 494, 369, -11, -2, -12, -11, 0, 24, 915, 770, 432,√
2025-03-10 13:49:37.341,909, 614, 410, 3, -9, -14, -12, 1, 25, 934, 862, 157,√
2025-03-10 13:49:37.397,426, 569, 118, -16, 1, 23, -12, 0, 25, 949, 919, 520,√
2025-03-10 13:49:37.453,610, 874, 378, 22, 27, 33, -11, 1, 24, 949, 901, 593,√
2025-03-10 13:49:37.510,914, 642, 312, -33, 23, 25, -10, 0, 24, 945, 880, 39,√
2025-03-10 13:49:37.562,503, 58, 637, 1, -66, -47, -11, 5, 24, 961, 925, 18,√
2025-03-10 13:49:37.620,598, 520, 270, 10, -52, -5, -11, 0, 24, 948, 928, 319,√
2025-03-10 13:49:37.674,587, 626, 212, 1, 6, 18, -12, 3, 25, 949, 928, 351,√
2025-03-10 13:49:37.726,912, 347, 328, 8, 29, -16, -14, 1, 24, 945, 912, 449,√
2025-03-10 13:49:37.786,675, 554, 585, -11, 57, -43, -11, 1, 21, 911, 797, 479,√
2025-03-10 13:49:38.071,678, 570, 479, 0, 0, -3, -10, 0, 23, 876, 588, 182,∛
2025-03-10 13:49:38.126,685, 576, 484, -1, -2, -3, -11, -1, 21, 863, 589, 231,∛
2025-03-10 13:49:38.186,698, 597, 436, -4, 3, -2, -11, 1, 22, 863, 620, 309,∛
2025-03-10 13:49:38.238,682, 546, 443, -3, 2, -1, -10, 0, 23, 877, 655, 337,∛
2025-03-10 13:49:38.290,718, 590, 458, -1, 2, -1, -10, 0, 22, 865, 672, 416,∛
2025-03-10 13:49:38.346,714, 578, 437, 4, 0, -2, -10, 0, 23, 858, 680, 418,∛
2025-03-10 13:49:38.402,690, 547, 477, -5, 0, -2, -10, -3, 22, 851, 674, 427,∛
2025-03-10 13:49:38.456,666, 597, 436, -3, 1, -1, -10, 1, 23, 868, 705, 501,∛
2025-03-10 13:49:38.511,690, 554, 472, 2, 1, -1, -9, 0, 21, 869, 718, 517,∛
2025-03-10 13:49:38.566,719, 573, 443, 0, -1, -2, -9, 1, 23, 862, 728, 499,∛
2025-03-10 13:49:38.619,687, 583, 455, 1, 2, -3, -11, 1, 22, 873, 733, 484,∛
2025-03-10 13:49:38.674,704, 565, 448, 1, -2, 3, -9, 0, 23, 871, 736, 483,∛
2025-03-10 13:49:38.730,704, 571, 441, -4, 4, -2, -10, 0, 23, 876, 737, 485,∛
2025-03-10 13:49:38.777,678, 575, 447, -2, -1, 1, -9, 0, 24, 871, 738, 493,∛
2025-03-10 13:49:38.836,651, 582, 462, -4, -3, -3, -9, 0, 22, 876, 758, 505,∛
2025-03-10 13:49:38.890,744, 694, 413, 10, -6, -10, -10, 1, 25, 904, 819, 468,∛
2025-03-10 13:49:38.953,808, 560, 510, -29, -2, 12, -11, 0, 24, 934, 884, 562,∛
2025-03-10 13:49:39.006,671, 425, 526, 15, 13, 27, -11, 1, 24, 942, 888, 464,∛
2025-03-10 13:49:39.058,788, 403, 319, -22, 23, 32, -10, 1, 23, 947, 876, 22,∛
2025-03-10 13:49:39.121,691, 109, 416, -40, -29, -27, -11, 4, 23, 944, 907, 29,∛
2025-03-10 13:49:39.176,616, 351, 280, 0, -33, -6, -12, 1, 24, 944, 919, 206,∛
2025-03-10 13:49:39.235,660, 532, 102, 12, 2, 20, -12, 1, 25, 955, 932, 246,∛
2025-03-10 13:49:39.287,887, 158, 164, 15, 27, -74, -12, 3, 24, 949, 915, 523,∛
2025-03-10 13:49:39.346,666, 722, 649, 8, -26, -58, -11, -1, 23, 926, 864, 649,∛
2025-03-10 13:49:39.406,777, 1319, 346, 49, -19, -16, -10, -1, 25, 936, 908, 668,∛
2025-03-10 13:49:39.468,753, 374, 541, -11, 7, 12, -11, -1, 26, 949, 928, 692,∛
2025-03-10 13:49:39.521,578, 526, 324, 0, 10, 9, -11, 1, 24, 942, 915, 668,∛
2025-03-10 13:49:39.576,855, 647, 314, -12, 15, 4, -11, 0, 25, 943, 919, 640,∛
2025-03-10 13:49:39.627,574, 715, 275, -9, 25, 17, -10, 0, 25, 962, 920, 496,∛
2025-03-10 13:49:39.688,1081, 419, 146, -6, 50, -33, -12, 1, 24, 920, 853, 577,∛
2025-03-10 13:49:39.748,483, 485, 886, -21, 23, -8, -8, 1, 19, 896, 816, 512,∛
2025-03-10 13:49:40.008,695, 573, 473, 9, 2, 0, -11, 1, 22, 868, 670, 431,∜
2025-03-10 13:49:40.062,703, 593, 458, 8, 1, 1, -9, 0, 24, 867, 669, 436,∜
2025-03-10 13:49:40.116,731, 577, 405, 0, -2, -1, -10, 1, 24, 866, 674, 446,∜
2025-03-10 13:49:40.169,688, 553, 486, -7, -1, 3, -10, 1, 24, 882, 681, 424,∜
2025-03-10 13:49:40.226,720, 572, 401, 5, -1, 2, -10, 1, 25, 888, 699, 490,∜
2025-03-10 13:49:40.277,681, 572, 468, 5, 3, -1, -11, 2, 24, 891, 705, 512,∜
2025-03-10 13:49:40.330,705, 556, 424, 3, 3, -4, -10, 2, 22, 894, 711, 454,∜
2025-03-10 13:49:40.389,747, 610, 385, -22, 3, -4, -11, -1, 23, 917, 740, 43,∜
2025-03-10 13:49:40.447,786, 548, 310, -18, -22, 19, -10, 2, 23, 945, 890, 302,∜
2025-03-10 13:49:40.500,711, 389, 599, 27, 2, 11, -11, 2, 24, 949, 880, 471,∜
2025-03-10 13:49:40.557,1132, 603, 293, -23, 27, 33, -11, 3, 24, 956, 844, 22,∜
2025-03-10 13:49:40.612,664, 367, 604, -55, -1, 9, -11, 2, 24, 951, 861, 25,∜
2025-03-10 13:49:40.671,868, 474, 665, 11, -49, -49, -11, 3, 24, 952, 907, 21,∜
2025-03-10 13:49:40.730,447, 513, 524, 35, -23, 12, -11, 2, 24, 960, 927, 182,∜
2025-03-10 13:49:40.777,696, 528, 437, 13, 4, 7, -11, 2, 25, 957, 928, 287,∜
2025-03-10 13:49:40.839,820, 423, 259, 7, 36, -63, -11, 1, 25, 947, 894, 597,∜
2025-03-10 13:49:40.891,630, 697, 689, 3, -19, -30, -9, 0, 22, 908, 832, 653,∜
2025-03-10 13:49:40.955,934, -287, -263, 16, -19, -36, -12, 1, 24, 936, 887, 661,∜
2025-03-10 13:49:41.010,680, 545, 626, 6, -14, -9, -11, -1, 27, 952, 916, 605,∜
2025-03-10 13:49:41.069,716, 705, 268, -10, 17, 4, -12, 0, 27, 954, 892, 211,∜
2025-03-10 13:49:41.126,992, 815, 506, -34, 6, 30, -11, -1, 27, 962, 932, 389,∜
2025-03-10 13:49:41.177,757, 590, 466, -11, 5, 16, -11, 1, 25, 967, 930, 633,∜
2025-03-10 13:49:41.237,491, 675, 847, 8, -10, -8, -11, -1, 24, 945, 902, 696,∜
2025-03-10 13:49:41.292,816, 1155, -32, 25, 22, 27, -11, 0, 25, 956, 912, 608,∜
2025-03-10 13:49:41.354,680, 418, 561, -1, 36, 26, -10, -1, 25, 948, 850, 602,∜
2025-03-10 13:49:41.406,692, 492, 465, -53, 61, -41, -9, 1, 21, 924, 798, 615,∜
2025-03-10 13:49:41.706,658, 542, 525, -8, 0, 1, -10, 0, 22, 916, 685, 251,∫
2025-03-10 13:49:41.758,664, 546, 539, -6, -1, 2, -10, 0, 22, 917, 688, 247,∫
2025-03-10 13:49:41.818,698, 568, 488, 0, -3, 0, -9, -1, 22, 909, 692, 261,∫
2025-03-10 13:49:41.871,691, 553, 494, 2, -5, 1, -10, 0, 23, 907, 699, 268,∫
2025-03-10 13:49:41.926,691, 572, 464, 3, -5, 2, -10, 1, 23, 908, 708, 311,∫
2025-03-10 13:49:41.976,710, 548, 468, -2, 1, 0, -10, 1, 23, 909, 714, 327,∫
2025-03-10 13:49:42.026,682, 563, 482, 1, 0, 1, -9, 0, 23, 912, 718, 341,∫
2025-03-10 13:49:42.085,706, 550, 476, 2, 1, 1, -9, 0, 23, 913, 719, 298,∫
2025-03-10 13:49:42.135,666, 560, 498, 4, 2, 0, -11, 1, 22, 927, 734, 286,∫
2025-03-10 13:49:42.186,708, 549, 472, 9, 5, 2, -9, 1, 24, 917, 732, 338,∫
2025-03-10 13:49:42.240,742, 551, 386, -4, 3, 3, -10, 1, 23, 921, 752, 439,∫
2025-03-10 13:49:42.291,658, 576, 539, 5, 2, 1, -9, 1, 23, 927, 765, 459,∫
2025-03-10 13:49:42.346,903, 628, 405, 26, -9, 20, -9, 0, 23, 927, 810, 603,∫
2025-03-10 13:49:42.405,532, 547, 552, -3, -14, 1, -11, 0, 22, 939, 833, 600,∫
2025-03-10 13:49:42.461,890, 448, 63, -11, -8, 4, -10, 0, 26, 934, 852, 471,∫
2025-03-10 13:49:42.516,726, 481, 470, -21, -2, 1, -12, 2, 24, 947, 863, 301,∫
2025-03-10 13:49:42.574,711, 493, 560, -7, -10, -17, -12, 2, 25, 949, 885, 94,∫
2025-03-10 13:49:42.628,685, 341, 423, 50, 10, -11, -12, 1, 24, 952, 884, 19,∫
2025-03-10 13:49:42.684,562, 1193, 26, 1, 52, 40, -11, 1, 24, 963, 897, 32,∫
2025-03-10 13:49:42.739,573, 703, 186, -32, 33, 16, -9, 0, 22, 960, 864, 31,∫
2025-03-10 13:49:42.797,1096, 461, 319, 47, 23, -38, -10, 0, 22, 854, 665, 497,∫
2025-03-10 13:49:42.853,553, 598, 750, -41, 47, -32, -10, -1, 19, 719, 717, 559,∫
2025-03-10 13:49:43.136,688, 564, 469, -6, -5, -1, -8, -1, 20, 785, 591, 144,∮
2025-03-10 13:49:43.196,683, 555, 472, -1, -4, -1, -9, 0, 21, 784, 592, 155,∮
2025-03-10 13:49:43.246,673, 566, 510, -3, -1, 0, -9, 1, 19, 779, 601, 209,∮
2025-03-10 13:49:43.301,682, 577, 501, 0, -6, 2, -8, -1, 21, 771, 613, 238,∮
2025-03-10 13:49:43.355,681, 571, 492, -2, -3, 2, -8, 0, 21, 779, 625, 248,∮
2025-03-10 13:49:43.409,683, 564, 479, 2, -8, 0, -10, -1, 21, 797, 649, 269,∮
2025-03-10 13:49:43.465,690, 560, 480, 0, -6, -4, -9, 1, 21, 801, 676, 325,∮
2025-03-10 13:49:43.523,702, 589, 459, 0, -4, -1, -10, -2, 22, 821, 706, 389,∮
2025-03-10 13:49:43.577,676, 578, 484, 0, -4, -3, -8, 0, 22, 841, 737, 425,∮
2025-03-10 13:49:43.630,719, 566, 441, 0, -3, 2, -9, 1, 23, 855, 754, 434,∮
2025-03-10 13:49:43.683,700, 568, 464, -2, -6, -2, -9, 1, 23, 856, 767, 476,∮
2025-03-10 13:49:43.740,765, 612, 413, -11, -13, 19, -9, 0, 23, 893, 797, 570,∮
2025-03-10 13:49:43.797,617, 534, 532, -6, -10, 9, -10, 0, 23, 911, 812, 559,∮
2025-03-10 13:49:43.852,722, 567, 447, -6, -6, 11, -10, 1, 23, 915, 826, 547,∮
2025-03-10 13:49:43.910,705, 522, 335, -23, -4, -11, -9, 0, 24, 919, 857, 514,∮
2025-03-10 13:49:43.968,869, 645, 462, -19, -5, -16, -10, 0, 24, 931, 887, 219,∮
2025-03-10 13:49:44.023,851, 758, 191, 18, 42, 43, -12, 2, 24, 945, 894, 41,∮
2025-03-10 13:49:44.077,804, 526, 515, -8, 14, 22, -11, 2, 22, 950, 907, 171,∮
2025-03-10 13:49:44.136,567, 557, 557, 28, -31, -26, -10, 1, 24, 931, 897, 656,∮
2025-03-10 13:49:44.192,606, 574, 343, -11, -8, 15, -11, 0, 25, 942, 909, 615,∮
2025-03-10 13:49:44.252,502, 702, 448, -28, 42, 47, -12, 1, 23, 949, 910, 41,∮
2025-03-10 13:49:44.309,1048, 565, 312, -65, 25, -1, -9, 2, 23, 942, 835, 34,∮
2025-03-10 13:49:44.368,442, 442, 815, -17, -18, -44, -9, 1, 21, 924, 886, 533,∮
2025-03-10 13:49:44.421,786, 856, 659, -27, -29, -5, -11, 1, 23, 952, 914, 616,∮
2025-03-10 13:49:44.478,372, 687, 534, 3, 49, 58, -11, 3, 24, 952, 900, 36,∮
2025-03-10 13:49:44.534,697, 341, 395, -30, 39, 20, -11, 4, 23, 941, 816, 39,∮
2025-03-10 13:49:44.590,954, 506, 186, -6, 76, -56, -9, 0, 20, 871, 718, 258,∮
2025-03-10 13:49:44.641,311, 467, 936, -9, 37, -33, -8, 0, 17, 720, 742, 489,∮
2025-03-10 13:49:44.936,677, 529, 520, -4, -6, 1, -8, 0, 22, 842, 642, 182,∂
2025-03-10 13:49:44.989,675, 513, 535, -4, -8, 0, -8, 1, 20, 841, 644, 196,∂
2025-03-10 13:49:45.046,686, 547, 489, -2, -9, -1, -9, 1, 22, 867, 708, 255,∂
2025-03-10 13:49:45.103,694, 507, 529, -5, -6, -1, -10, 1, 22, 885, 730, 229,∂
2025-03-10 13:49:45.156,696, 535, 511, 3, -10, -2, -9, 0, 20, 894, 759, 368,∂
2025-03-10 13:49:45.210,724, 540, 473, 1, -6, 0, -9, 2, 21, 904, 767, 445,∂
2025-03-10 13:49:45.267,702, 521, 488, -4, -2, -2, -9, 2, 23, 906, 780, 460,∂
2025-03-10 13:49:45.321,708, 521, 494, -3, -3, -2, -9, 1, 23, 912, 802, 487,∂
2025-03-10 13:49:45.378,701, 538, 492, -2, -2, -1, -11, 2, 22, 915, 808, 505,∂
2025-03-10 13:49:45.426,695, 527, 482, -3, 0, 0, -10, 1, 23, 916, 807, 471,∂
2025-03-10 13:49:45.484,691, 504, 504, 0, -3, -3, -8, 1, 22, 911, 809, 492,∂
2025-03-10 13:49:45.539,643, 527, 528, -1, 2, -9, -10, 2, 22, 915, 777, 356,∂
2025-03-10 13:49:45.596,639, 508, 529, 11, -19, -8, -10, 2, 22, 919, 783, 380,∂
2025-03-10 13:49:45.656,790, 253, 388, 24, -14, -18, -10, 0, 23, 929, 877, 405,∂
2025-03-10 13:49:45.708,816, 608, 459, 8, 2, 31, -11, 0, 24, 946, 900, 623,∂
2025-03-10 13:49:45.766,338, 1174, 113, -28, 43, 37, -12, 0, 23, 961, 898, 526,∂
2025-03-10 13:49:45.820,773, 431, 434, -56, 16, -8, -10, 1, 23, 947, 848, 24,∂
2025-03-10 13:49:45.877,701, 728, 583, 2, -35, -7, -10, 1, 24, 954, 924, 296,∂
2025-03-10 13:49:45.935,614, 510, 347, -1, -2, 6, -10, 1, 24, 945, 918, 391,∂
2025-03-10 13:49:45.990,888, 501, 159, -32, 51, -40, -10, 2, 23, 948, 887, 506,∂
2025-03-10 13:49:46.306,661, 526, 522, -2, -5, 2, -9, 1, 23, 884, 689, 283,∇
2025-03-10 13:49:46.362,678, 549, 516, 0, -6, 3, -10, 0, 22, 887, 693, 284,∇
2025-03-10 13:49:46.414,706, 561, 445, 1, -9, 4, -11, 1, 23, 889, 712, 356,∇
2025-03-10 13:49:46.467,721, 544, 458, -6, 0, -2, -10, 0, 23, 902, 746, 335,∇
2025-03-10 13:49:46.523,697, 540, 481, -4, -1, 0, -10, 1, 22, 894, 755, 330,∇
2025-03-10 13:49:46.578,697, 560, 470, -3, 0, 0, -10, 1, 21, 899, 766, 355,∇
2025-03-10 13:49:46.626,692, 553, 495, -6, 0, 1, -9, 0, 21, 903, 773, 358,∇
2025-03-10 13:49:46.683,701, 540, 490, -5, 0, 0, -9, 2, 23, 911, 781, 332,∇
2025-03-10 13:49:46.736,711, 551, 463, -4, -2, 0, -9, 1, 21, 902, 778, 314,∇
2025-03-10 13:49:46.796,705, 543, 488, -6, -1, 0, -11, 0, 22, 906, 778, 294,∇
2025-03-10 13:49:46.849,679, 552, 510, 2, 0, -1, -9, 2, 23, 914, 785, 315,∇
2025-03-10 13:49:46.901,706, 561, 424, 5, -3, -4, -11, 1, 22, 904, 759, 348,∇
2025-03-10 13:49:46.959,608, 538, 481, -1, 7, -18, -11, 2, 24, 898, 764, 349,∇
2025-03-10 13:49:47.013,604, 581, 557, 17, -19, 8, -11, 1, 22, 903, 771, 320,∇
2025-03-10 13:49:47.070,1139, 390, 623, 69, -18, -11, -8, 1, 24, 942, 893, 216,∇
2025-03-10 13:49:47.129,534, 525, 415, -17, 11, 38, -11, 3, 24, 950, 913, 431,∇
2025-03-10 13:49:47.183,703, 551, 541, -11, -8, 0, -12, 1, 24, 959, 922, 411,∇
2025-03-10 13:49:47.236,918, 443, 545, 36, 3, -21, -12, 1, 24, 952, 905, 420,∇
2025-03-10 13:49:47.291,923, 643, 281, 6, 31, 12, -10, 2, 25, 946, 865, 219,∇
2025-03-10 13:49:47.351,895, 188, 627, -44, 5, -44, -9, 0, 23, 932, 801, 426,∇
2025-03-10 13:49:47.406,480, 728, 1032, 20, -64, 6, -9, 0, 23, 900, 809, 484,∇
2025-03-10 13:49:47.463,1126, 783, 241, 9, 5, 27, -10, 2, 23, 955, 901, 160,∇
2025-03-10 13:49:47.521,820, 669, 423, -33, 40, 71, -10, 1, 22, 958, 870, 37,∇
2025-03-10 13:49:47.576,786, 480, 251, -23, 44, -50, -11, 5, 22, 934, 741, 14,∇
2025-03-10 13:49:47.635,593, 441, 762, -3, 18, -32, -8, 1, 20, 767, 659, 196,∇
2025-03-10 13:49:47.909,684, 560, 498, 3, -9, 2, -10, -2, 23, 861, 585, 205,∆
2025-03-10 13:49:47.961,685, 556, 483, 1, -9, 1, -10, 0, 21, 855, 586, 219,∆
2025-03-10 13:49:48.016,705, 539, 465, -3, -3, 0, -8, 1, 22, 863, 614, 202,∆
2025-03-10 13:49:48.068,688, 569, 457, -3, 1, 0, -9, 2, 22, 877, 632, 188,∆
2025-03-10 13:49:48.126,684, 554, 488, -4, -1, 1, -9, 1, 23, 876, 639, 185,∆
2025-03-10 13:49:48.180,713, 555, 465, -4, -4, 1, -8, 1, 24, 875, 646, 194,∆
2025-03-10 13:49:48.233,694, 535, 481, -8, 1, -3, -10, 0, 23, 891, 663, 202,∆
2025-03-10 13:49:48.290,677, 567, 495, -4, -3, 1, -11, 0, 21, 882, 676, 186,∆
2025-03-10 13:49:48.341,715, 544, 474, -1, -3, -1, -10, 1, 22, 893, 695, 194,∆
2025-03-10 13:49:48.400,726, 560, 500, -2, 0, 2, -10, 1, 21, 890, 704, 212,∆
2025-03-10 13:49:48.453,673, 530, 490, -2, 7, 2, -9, 0, 21, 890, 689, 162,∆
2025-03-10 13:49:48.506,762, 506, 445, 12, -12, -4, -10, 0, 23, 910, 727, 235,∆
2025-03-10 13:49:48.565,608, 596, 536, -9, -26, 1, -9, 1, 23, 913, 789, 433,∆
2025-03-10 13:49:48.618,683, 419, 427, -10, -25, -12, -11, 1, 22, 934, 874, 228,∆
2025-03-10 13:49:48.680,596, 613, 385, 43, 24, -9, -12, 0, 26, 948, 880, 24,∆
2025-03-10 13:49:48.733,997, 626, -46, -9, 48, 16, -11, 2, 25, 949, 802, 36,∆
2025-03-10 13:49:48.786,641, 219, 560, -9, -44, -33, -11, 2, 22, 900, 816, 421,∆
2025-03-10 13:49:48.849,739, 450, 543, 49, -28, -12, -10, 1, 23, 936, 896, 557,∆
2025-03-10 13:49:48.908,673, 336, 289, -12, 34, 43, -11, 0, 24, 952, 897, 131,∆
2025-03-10 13:49:48.957,253, 498, 423, -65, 35, 10, -10, 2, 24, 940, 874, 27,∆
2025-03-10 13:49:49.020,1202, 627, 242, 29, 15, -7, -9, 1, 24, 879, 784, 185,∆
2025-03-10 13:49:49.076,350, 574, 838, -38, 77, -26, -7, 1, 20, 882, 762, 199,∆
2025-03-10 13:49:49.126,342, 544, 673, 13, -29, 9, -8, 1, 16, 876, 683, 41,∆
2025-03-10 13:49:49.398,693, 558, 494, -6, -1, 1, -8, 2, 21, 828, 569, 21,π
2025-03-10 13:49:49.456,689, 544, 490, -7, 0, 1, -10, 1, 20, 823, 569, 40,π
2025-03-10 13:49:49.512,701, 543, 491, -10, 1, 0, -9, 1, 23, 786, 408, 26,π
2025-03-10 13:49:49.564,691, 522, 504, -9, 0, 2, -8, 1, 21, 769, 193, 38,π
2025-03-10 13:49:49.617,684, 550, 500, -2, -1, 0, -10, 1, 22, 781, 392, 22,π
2025-03-10 13:49:49.670,696, 540, 496, 1, -3, -2, -10, 1, 20, 778, 476, 17,π
2025-03-10 13:49:49.720,687, 534, 512, -4, -4, -3, -9, 3, 23, 788, 545, 24,π
2025-03-10 13:49:49.782,689, 544, 490, -4, -6, -3, -7, 2, 23, 811, 575, 24,π
2025-03-10 13:49:49.835,702, 538, 515, -2, -3, -2, -9, 2, 22, 817, 619, 42,π
2025-03-10 13:49:49.886,680, 529, 495, 0, -1, 0, -8, 1, 22, 831, 637, 22,π
2025-03-10 13:49:49.936,684, 529, 483, 5, -3, -6, -9, 1, 21, 840, 654, 30,π
2025-03-10 13:49:49.990,706, 569, 472, 0, -2, -3, -9, 0, 22, 847, 635, 42,π
2025-03-10 13:49:50.048,529, 564, 632, 22, -35, 1, -11, 2, 23, 869, 711, 30,π
2025-03-10 13:49:50.104,791, 415, 398, 36, -14, -14, -10, -1, 23, 926, 874, 33,π
2025-03-10 13:49:50.158,511, 687, 425, 5, -12, 51, -13, 0, 24, 947, 909, 169,π
2025-03-10 13:49:50.216,587, 412, 619, 14, -2, 10, -10, 3, 24, 953, 898, 160,π
2025-03-10 13:49:50.270,660, 521, 326, 0, 13, -61, -11, 1, 24, 914, 804, 390,π
2025-03-10 13:49:50.330,831, 628, 451, -27, -2, 11, -11, 1, 24, 941, 880, 335,π
2025-03-10 13:49:50.388,538, 889, 73, -22, 35, 40, -10, 3, 23, 946, 856, 41,π
2025-03-10 13:49:50.439,855, 104, 662, 33, -2, -23, -9, 3, 22, 921, 743, 40,π
2025-03-10 13:49:50.498,498, 477, 777, -9, -33, -2, -10, 4, 21, 945, 871, 287,π
2025-03-10 13:49:50.550,552, 664, 332, 3, 6, 11, -11, 2, 22, 949, 881, 22,π
2025-03-10 13:49:50.605,797, 198, 493, 14, 16, 33, -12, 4, 23, 948, 878, 42,π
2025-03-10 13:49:50.660,733, 386, 516, 20, -8, -5, -11, 4, 23, 946, 877, 277,π
2025-03-10 13:49:50.720,601, 454, 637, -32, 83, -36, -9, 1, 21, 898, 802, 462,π
2025-03-10 13:49:50.770,464, 528, 755, 1, 1, 0, -8, -1, 16, 864, 640, 265,π
2025-03-10 13:49:50.827,731, 498, 495, 10, -32, 5, -9, 0, 19, 854, 543, 176,π
2025-03-10 13:49:51.236,686, 528, 529, -1, -5, 0, -9, 2, 18, 823, 496, 41,θ
2025-03-10 13:49:51.288,682, 520, 525, -2, -4, 0, -9, 2, 21, 824, 496, 38,θ
2025-03-10 13:49:51.341,683, 513, 537, 0, -6, -1, -8, 0, 19, 819, 511, 33,θ
2025-03-10 13:49:51.396,706, 517, 506, -2, -6, 2, -9, 1, 20, 834, 525, 27,θ
2025-03-10 13:49:51.449,688, 526, 515, -2, -1, -2, -7, 1, 20, 828, 550, 21,θ
2025-03-10 13:49:51.506,691, 513, 537, -3, -5, -2, -9, 2, 21, 836, 595, 11,θ
2025-03-10 13:49:51.557,701, 513, 502, 2, -7, -5, -8, 3, 21, 830, 622, 28,θ
2025-03-10 13:49:51.609,723, 530, 498, -2, -6, -2, -8, 1, 20, 853, 651, 26,θ
2025-03-10 13:49:51.673,692, 562, 508, -2, -4, -4, -10, 4, 23, 854, 680, 28,θ
2025-03-10 13:49:51.718,711, 536, 496, 3, -7, -3, -9, 1, 23, 860, 721, 41,θ
2025-03-10 13:49:51.772,695, 546, 493, 0, -4, 5, -9, 0, 22, 875, 743, 119,θ
2025-03-10 13:49:51.826,684, 555, 490, 12, -12, 7, -9, 3, 22, 881, 764, 283,θ
2025-03-10 13:49:51.883,846, 562, 377, -6, 0, -8, -11, 1, 23, 875, 782, 280,θ
2025-03-10 13:49:51.940,835, 535, 609, -16, -17, -27, -10, 1, 23, 909, 868, 32,θ
2025-03-10 13:49:51.996,908, 838, 265, 126, 14, -5, -10, 0, 24, 939, 854, 21,θ
2025-03-10 13:49:52.051,800, 823, 215, -78, 59, 97, -11, 1, 24, 949, 887, 34,θ
2025-03-10 13:49:52.106,625, 442, 356, -15, 5, -84, -10, 1, 22, 930, 880, 359,θ
2025-03-10 13:49:52.166,624, 578, 629, 33, -84, 18, -10, -1, 22, 910, 885, 602,θ
2025-03-10 13:49:52.222,850, 307, 464, -26, 9, 27, -10, 1, 24, 950, 914, 314,θ
2025-03-10 13:49:52.279,367, 298, 466, -20, 43, 45, -10, 3, 24, 952, 888, 26,θ
2025-03-10 13:49:52.338,528, 350, 332, -30, 26, -3, -12, 4, 23, 931, 737, 37,θ
2025-03-10 13:49:52.386,272, 550, 731, 20, 23, -44, -9, 2, 22, 891, 769, 26,θ
2025-03-10 13:49:52.448,841, 1125, 524, 27, -30, -6, -9, 2, 24, 959, 889, 27,θ
2025-03-10 13:49:52.498,751, 476, 508, 0, 7, 28, -10, 3, 24, 950, 919, 298,θ
2025-03-10 13:49:52.559,927, 442, 136, -5, 52, -40, -9, 3, 24, 915, 838, 466,θ
2025-03-10 13:49:52.616,567, 464, 802, -23, 38, -25, -8, 1, 20, 867, 616, 166,θ
2025-03-10 13:49:52.894,689, 524, 506, -3, 1, -5, -7, 2, 19, 786, 517, 22,λ
2025-03-10 13:49:52.948,686, 520, 522, -4, 1, -6, -7, 2, 19, 775, 511, 27,λ
2025-03-10 13:49:53.000,633, 529, 570, 2, -3, -1, -10, 1, 20, 761, 500, 15,λ
2025-03-10 13:49:53.053,689, 541, 499, 2, -6, 2, -10, 1, 20, 789, 580, 22,λ
2025-03-10 13:49:53.106,683, 533, 530, -3, -1, 0, -8, 1, 21, 812, 603, 25,λ
2025-03-10 13:49:53.156,687, 533, 526, -6, -4, 1, -8, 0, 22, 839, 640, 26,λ
2025-03-10 13:49:53.214,684, 521, 524, -2, -5, 2, -8, 3, 21, 848, 674, 39,λ
2025-03-10 13:49:53.267,687, 513, 528, 3, -7, 3, -9, 2, 21, 879, 690, 16,λ
