Timestamp,Acc_X,Acc_Y,Acc_Z,Gyro_X,Gyro_Y,Gyro_Z,Mag_X,Mag_Y,Mag_Z,Force1,Force2,Force3,Letter
2025-03-10 13:10:35.355,641, 576, 530, 1, -2, 6, -2, -30, -18, 944, 784, 753,noise
2025-03-10 13:10:35.412,642, 566, 536, 2, -1, 5, -4, -30, -16, 945, 783, 748,noise
2025-03-10 13:10:35.463,643, 565, 551, 2, -2, 3, -3, -30, -17, 941, 786, 753,noise
2025-03-10 13:10:35.522,648, 578, 538, 1, -4, 0, -2, -30, -18, 943, 785, 750,noise
2025-03-10 13:10:35.572,645, 575, 530, 4, -5, 2, -3, -30, -18, 942, 787, 752,noise
2025-03-10 13:10:35.632,658, 582, 496, 3, -4, 1, -3, -28, -16, 944, 787, 751,noise
2025-03-10 13:10:35.687,655, 587, 507, 0, -2, 0, -3, -31, -15, 943, 788, 756,noise
2025-03-10 13:10:35.742,657, 568, 519, -1, -1, -2, -4, -29, -17, 942, 790, 773,noise
2025-03-10 13:10:35.802,652, 579, 520, 1, -2, -2, -1, -28, -17, 944, 790, 771,noise
2025-03-10 13:10:35.862,642, 591, 509, -1, -1, 0, -5, -30, -17, 946, 791, 774,noise
2025-03-10 13:10:35.919,658, 581, 512, 0, -2, 2, -2, -31, -17, 946, 793, 773,noise
2025-03-10 13:10:35.977,663, 571, 504, 0, -1, 1, -2, -31, -17, 944, 793, 774,noise
2025-03-10 13:10:36.034,662, 565, 527, 1, -2, -8, -4, -30, -15, 944, 797, 769,noise
2025-03-10 13:10:36.086,678, 597, 494, -1, -3, -9, -3, -30, -16, 944, 799, 771,noise
2025-03-10 13:10:36.142,688, 583, 512, -3, 0, -20, -2, -32, -16, 943, 802, 767,noise
2025-03-10 13:10:36.202,603, 599, 484, -1, -4, -17, -4, -30, -16, 944, 797, 758,noise
2025-03-10 13:10:36.267,555, 638, 471, -2, -12, -4, -3, -31, -15, 943, 798, 748,noise
2025-03-10 13:10:36.322,614, 619, 467, -5, -22, 15, -4, -31, -16, 945, 796, 745,noise
2025-03-10 13:10:36.382,697, 589, 514, -7, -6, 9, -4, -31, -15, 942, 798, 745,noise
2025-03-10 13:10:36.436,642, 594, 514, -3, -1, 5, -5, -32, -17, 944, 796, 743,noise
2025-03-10 13:10:36.492,646, 589, 463, -3, -2, 7, -4, -31, -16, 946, 798, 747,noise
2025-03-10 13:10:36.552,668, 584, 491, -5, 2, 4, -5, -30, -16, 945, 798, 742,noise
2025-03-10 13:10:36.602,690, 566, 499, -4, 3, 1, -4, -32, -16, 948, 797, 743,noise
2025-03-10 13:10:36.669,672, 569, 487, -5, 4, -2, -5, -29, -18, 948, 795, 747,noise
2025-03-10 13:10:36.722,656, 583, 509, -3, 2, -1, -5, -29, -18, 947, 792, 746,noise
2025-03-10 13:10:36.774,666, 563, 494, -3, 3, 0, -5, -30, -18, 946, 794, 748,noise
2025-03-10 13:10:36.835,654, 573, 517, -1, 1, 0, -4, -31, -19, 946, 794, 752,noise
2025-03-10 13:10:36.886,671, 575, 496, 0, 0, 2, -2, -31, -18, 945, 791, 746,noise
2025-03-10 13:10:36.942,674, 570, 485, -2, 1, 1, -3, -30, -18, 947, 787, 743,noise
2025-03-10 13:10:37.002,663, 565, 489, -2, 2, -1, -4, -30, -19, 945, 784, 740,noise
2025-03-10 13:10:37.062,676, 570, 508, -4, 0, -2, -6, -30, -19, 945, 782, 743,noise
2025-03-10 13:10:37.119,666, 562, 519, -4, -1, -3, -4, -30, -17, 939, 772, 737,noise
2025-03-10 13:10:37.173,660, 572, 491, -3, -1, -1, -5, -30, -19, 941, 767, 734,noise
2025-03-10 13:10:37.234,665, 579, 505, -3, 0, -2, -5, -29, -19, 946, 771, 740,noise
2025-03-10 13:10:37.285,666, 574, 513, -1, 0, 0, -4, -29, -17, 946, 766, 738,noise
2025-03-10 13:10:37.342,668, 567, 507, -1, 0, 0, -5, -32, -17, 944, 768, 738,noise
2025-03-10 13:10:37.403,655, 568, 512, -1, -1, 0, -5, -30, -19, 944, 773, 743,noise
2025-03-10 13:10:37.452,667, 582, 498, 0, -1, 1, -4, -30, -17, 946, 774, 745,noise
2025-03-10 13:10:37.516,682, 570, 489, -2, 0, 0, -4, -28, -18, 945, 766, 740,noise
2025-03-10 13:10:38.447,622, 601, 550, 4, 4, 6, -3, -31, -17, 961, 827, 765,A
2025-03-10 13:10:38.502,620, 603, 561, 4, 3, 7, -4, -28, -22, 962, 825, 762,A
2025-03-10 13:10:38.562,675, 564, 518, 8, -2, 14, -4, -30, -19, 962, 833, 767,A
2025-03-10 13:10:38.618,656, 565, 525, 3, -1, 8, -3, -31, -18, 964, 837, 776,A
2025-03-10 13:10:38.672,647, 579, 497, -6, -2, 0, -3, -30, -18, 963, 838, 773,A
2025-03-10 13:10:38.734,656, 564, 531, -9, -4, 1, -5, -30, -19, 962, 833, 770,A
2025-03-10 13:10:38.787,690, 552, 540, -5, -8, -1, -4, -30, -20, 959, 828, 768,A
2025-03-10 13:10:38.847,660, 561, 563, 16, -25, -2, -6, -29, -17, 959, 822, 765,A
2025-03-10 13:10:38.902,705, 596, 411, 15, -28, -2, -6, -30, -16, 958, 818, 770,A
2025-03-10 13:10:38.967,594, 549, 391, -4, 1, 2, -5, -30, -16, 962, 820, 772,A
2025-03-10 13:10:39.022,533, 506, 405, -12, 9, 36, -7, -31, -16, 964, 831, 772,A
2025-03-10 13:10:39.082,830, 643, 228, -3, 20, 0, -8, -31, -18, 967, 852, 788,A
2025-03-10 13:10:39.137,732, 574, 549, -3, -2, 4, -7, -30, -17, 971, 857, 796,A
2025-03-10 13:10:39.192,701, 533, 500, 5, -11, 4, -7, -31, -17, 973, 853, 795,A
2025-03-10 13:10:39.252,711, 555, 434, -3, -16, 2, -7, -32, -17, 974, 857, 801,A
2025-03-10 13:10:39.312,706, 529, 478, -13, -21, -5, -7, -30, -15, 972, 866, 824,A
2025-03-10 13:10:39.372,704, 494, 686, 9, -18, -10, -7, -32, -13, 977, 868, 815,A
2025-03-10 13:10:39.427,1772, 833, -23, 70, 3, 1, -8, -31, -13, 981, 860, 744,A
2025-03-10 13:10:39.486,766, 433, 191, -9, 27, 10, -7, -32, -12, 975, 844, 763,A
2025-03-10 13:10:39.542,660, 637, 582, -21, -23, -17, -7, -30, -14, 975, 866, 816,A
2025-03-10 13:10:39.606,662, 746, 289, 11, -4, 15, -9, -27, -16, 981, 860, 784,A
2025-03-10 13:10:39.668,659, 683, 295, -4, 31, 25, -10, -29, -12, 980, 851, 763,A
2025-03-10 13:10:39.722,458, 663, 686, -19, -29, -14, -10, -28, -15, 974, 840, 746,A
2025-03-10 13:10:39.784,799, 630, 483, 14, -17, -8, -6, -31, -13, 980, 873, 755,A
2025-03-10 13:10:39.843,670, 580, 356, -6, 31, 32, -8, -29, -13, 982, 859, 801,A
2025-03-10 13:10:39.902,772, 525, 343, -51, 83, -63, -6, -31, -15, 970, 844, 784,A
2025-03-10 13:10:39.966,519, 571, 750, -35, 55, -79, -3, -30, -21, 946, 803, 716,A
2025-03-10 13:10:40.263,652, 604, 506, -2, 3, -1, -4, -30, -17, 958, 802, 765,B
2025-03-10 13:10:40.317,637, 593, 524, 2, 0, 0, -6, -29, -16, 957, 802, 767,B
2025-03-10 13:10:40.372,728, 574, 397, 3, -9, 5, -8, -29, -16, 960, 810, 775,B
2025-03-10 13:10:40.433,717, 600, 388, -6, -2, -3, -6, -30, -14, 961, 818, 773,B
2025-03-10 13:10:40.492,659, 618, 450, -26, -6, -1, -6, -29, -15, 960, 828, 774,B
2025-03-10 13:10:40.552,748, 496, 521, -16, -1, -3, -5, -30, -15, 968, 847, 754,B
2025-03-10 13:10:40.602,619, 958, 327, 9, 31, 30, -4, -30, -13, 978, 856, 666,B
2025-03-10 13:10:40.669,810, 530, 344, -12, 30, 20, -8, -29, -15, 979, 844, 637,B
2025-03-10 13:10:40.732,648, 610, 452, -23, -29, -40, -7, -29, -16, 970, 860, 731,B
2025-03-10 13:10:40.785,791, 572, 546, 24, -24, -10, -6, -30, -15, 978, 877, 765,B
2025-03-10 13:10:40.843,523, 845, 343, 5, 9, 18, -7, -29, -15, 981, 880, 767,B
2025-03-10 13:10:40.902,884, 389, 226, 4, 12, 6, -7, -30, -14, 982, 876, 714,B
2025-03-10 13:10:40.962,605, 509, 537, -3, 11, -1, -5, -30, -13, 982, 872, 710,B
2025-03-10 13:10:41.018,696, 553, 344, -14, 13, 3, -8, -28, -18, 980, 850, 572,B
2025-03-10 13:10:41.072,1061, 350, 313, -17, 44, -32, -8, -28, -17, 962, 812, 625,B
2025-03-10 13:10:41.142,524, 586, 729, -34, 21, -44, -4, -28, -21, 957, 819, 587,B
2025-03-10 13:10:41.453,672, 535, 524, 0, -2, 5, -6, -29, -18, 958, 823, 645,C
2025-03-10 13:10:41.505,674, 523, 520, 2, -3, 4, -10, -29, -17, 959, 825, 648,C
2025-03-10 13:10:41.568,699, 559, 488, 0, -7, 3, -6, -28, -19, 961, 834, 658,C
2025-03-10 13:10:41.622,684, 542, 488, -3, -3, 0, -4, -29, -17, 963, 835, 666,C
2025-03-10 13:10:41.673,685, 548, 481, 1, -8, 3, -6, -28, -18, 962, 840, 696,C
2025-03-10 13:10:41.739,610, 195, 235, 13, -3, -16, -7, -29, -17, 965, 856, 709,C
2025-03-10 13:10:41.801,523, 359, 593, 21, -14, -24, -6, -28, -17, 976, 864, 570,C
2025-03-10 13:10:41.853,853, 675, 130, 40, 27, 19, -5, -29, -14, 981, 864, 448,C
2025-03-10 13:10:41.915,577, 574, 722, 1, 11, 22, -5, -31, -14, 977, 875, 771,C
2025-03-10 13:10:41.972,570, 617, 646, -34, 53, -42, -6, -30, -16, 972, 866, 771,C
2025-03-10 13:10:42.035,494, 671, 711, -22, -3, -11, -4, -30, -20, 965, 839, 726,C
2025-03-10 13:10:42.295,666, 553, 510, -2, 0, 2, -5, -30, -19, 955, 800, 616,D
2025-03-10 13:10:42.354,678, 550, 503, -1, 0, 2, -7, -26, -18, 957, 801, 628,D
2025-03-10 13:10:42.407,668, 566, 544, 0, -1, 1, -4, -28, -20, 957, 805, 635,D
2025-03-10 13:10:42.469,683, 555, 492, -2, -3, 0, -3, -31, -17, 956, 804, 631,D
2025-03-10 13:10:42.522,658, 530, 526, -1, 0, -2, -6, -27, -20, 955, 802, 619,D
2025-03-10 13:10:42.583,672, 562, 514, -1, 0, -1, -5, -27, -20, 957, 804, 623,D
2025-03-10 13:10:42.638,666, 549, 510, -2, 2, -1, -3, -29, -21, 955, 806, 638,D
2025-03-10 13:10:42.698,670, 552, 532, -2, -1, -1, -3, -30, -19, 958, 807, 634,D
2025-03-10 13:10:42.752,665, 552, 522, -5, 0, -1, -5, -27, -21, 956, 811, 633,D
2025-03-10 13:10:42.812,644, 561, 534, -1, -4, 0, -5, -29, -20, 956, 809, 623,D
2025-03-10 13:10:42.868,655, 549, 538, 0, -10, -1, -6, -30, -18, 955, 803, 596,D
2025-03-10 13:10:42.922,682, 557, 497, -2, -12, 1, -7, -31, -16, 955, 808, 593,D
2025-03-10 13:10:42.984,676, 561, 502, -4, -18, 3, -3, -28, -20, 957, 819, 607,D
2025-03-10 13:10:43.042,724, 413, 377, 4, -32, -21, -6, -28, -18, 964, 842, 627,D
2025-03-10 13:10:43.102,648, 615, 549, 64, -7, -1, -6, -25, -18, 979, 864, 625,D
2025-03-10 13:10:43.159,763, 517, 98, 19, 41, 38, -6, -28, -15, 984, 871, 610,D
2025-03-10 13:10:43.222,777, 27, 947, -31, -43, -55, -6, -29, -15, 976, 868, 738,D
2025-03-10 13:10:43.272,823, 534, 695, 9, -26, -13, -5, -29, -16, 979, 881, 766,D
2025-03-10 13:10:43.333,497, 917, 261, 14, 11, 21, -7, -29, -16, 985, 880, 744,D
2025-03-10 13:10:43.398,778, 494, 340, -15, 41, 25, -6, -29, -13, 979, 859, 645,D
2025-03-10 13:10:43.459,761, 422, 267, -40, 73, -56, -5, -28, -16, 966, 818, 648,D
2025-03-10 13:10:43.517,466, 672, 668, -36, 34, -44, -5, -25, -24, 958, 806, 593,D
2025-03-10 13:10:43.572,505, 585, 675, 3, -17, 12, -3, -27, -24, 958, 798, 583,D
2025-03-10 13:10:44.272,652, 553, 450, -4, 3, 3, -6, -30, -16, 950, 812, 525,E
2025-03-10 13:10:44.333,645, 533, 442, -3, 1, 4, -10, -29, -10, 951, 815, 533,E
2025-03-10 13:10:44.386,665, 513, 417, -2, 5, 16, -7, -31, -15, 953, 818, 499,E
2025-03-10 13:10:44.452,843, 579, 399, -4, 19, -4, -6, -29, -16, 956, 827, 545,E
2025-03-10 13:10:44.503,677, 553, 533, 2, 5, 2, -4, -31, -14, 958, 834, 595,E
2025-03-10 13:10:44.562,664, 538, 524, 2, -12, 5, -6, -30, -16, 961, 840, 624,E
2025-03-10 13:10:44.623,726, 553, 467, -17, -6, -13, -6, -29, -16, 963, 850, 597,E
2025-03-10 13:10:44.681,693, 318, 735, 14, -21, -17, -7, -29, -16, 973, 860, 556,E
2025-03-10 13:10:44.742,193, 528, 265, 13, 51, 63, -9, -27, -13, 979, 857, 413,E
2025-03-10 13:10:44.799,646, 461, 709, -47, -6, 1, -9, -29, -15, 975, 850, 504,E
2025-03-10 13:10:44.852,760, 425, 287, -4, -16, -29, -7, -27, -17, 976, 863, 555,E
2025-03-10 13:10:44.916,750, 814, 271, 1, -21, 16, -10, -30, -15, 982, 885, 700,E
2025-03-10 13:10:44.972,622, 697, 463, 17, 22, 22, -6, -27, -15, 978, 868, 737,E
2025-03-10 13:10:45.032,691, 376, 541, 0, -7, -25, -5, -30, -16, 973, 836, 640,E
2025-03-10 13:10:45.084,586, 708, 413, 7, 7, 24, -6, -29, -13, 981, 880, 722,E
2025-03-10 13:10:45.148,620, 666, 431, 17, 23, 32, -7, -32, -15, 978, 866, 760,E
2025-03-10 13:10:45.202,527, 551, 549, -25, 20, -19, -7, -32, -14, 967, 789, 642,E
2025-03-10 13:10:45.266,722, 396, 268, 7, -7, 1, -6, -30, -14, 974, 865, 676,E
2025-03-10 13:10:45.323,858, 827, 429, -2, 8, 22, -7, -31, -15, 977, 872, 740,E
2025-03-10 13:10:45.381,796, 561, 337, -44, 72, -32, -5, -31, -14, 966, 815, 699,E
2025-03-10 13:10:45.442,539, 588, 674, -11, 4, -24, -3, -31, -19, 947, 731, 638,E
2025-03-10 13:10:45.500,698, 561, 562, 1, -16, -10, -5, -30, -19, 918, 666, 594,E
2025-03-10 13:10:45.560,722, 530, 513, 2, -6, -20, -4, -30, -19, 894, 611, 596,E
2025-03-10 13:10:45.616,664, 600, 522, 6, -3, -24, -3, -30, -17, 876, 615, 590,E
2025-03-10 13:10:45.903,692, 550, 375, -20, 18, -7, -1, -29, -16, 939, 796, 601,F
2025-03-10 13:10:45.966,608, 511, 476, -16, 11, -4, -2, -30, -16, 942, 801, 614,F
2025-03-10 13:10:46.022,592, 618, 537, -2, -11, 8, -5, -31, -15, 951, 821, 664,F
2025-03-10 13:10:46.083,746, 553, 402, -1, -12, 5, -5, -28, -16, 954, 819, 666,F
2025-03-10 13:10:46.142,680, 574, 464, -16, -2, -10, -5, -26, -18, 956, 822, 671,F
2025-03-10 13:10:46.202,599, 567, 604, -6, -41, 3, -6, -29, -18, 960, 832, 670,F
2025-03-10 13:10:46.262,696, 341, 657, 32, -26, -18, -7, -29, -16, 973, 856, 637,F
2025-03-10 13:10:46.316,589, 713, 41, 27, 43, 57, -8, -28, -15, 979, 861, 567,F
2025-03-10 13:10:46.381,867, -34, 531, -52, -36, -62, -5, -28, -15, 972, 849, 663,F
2025-03-10 13:10:46.433,593, -774, -31, 81, -12, -40, -6, -30, -14, 972, 863, 669,F
2025-03-10 13:10:46.499,741, 518, 148, 1, 8, 21, -6, -31, -13, 981, 885, 748,F
2025-03-10 13:10:46.552,602, 453, 446, 7, 42, 4, -7, -31, -13, 972, 861, 764,F
2025-03-10 13:10:46.612,3639, -367, -18, 6, -5, -30, -3, -29, -14, 972, 833, 671,F
2025-03-10 13:10:46.666,684, 658, 313, 16, 2, 23, -5, -32, -12, 981, 885, 768,F
2025-03-10 13:10:46.732,948, 291, 102, -24, 38, -32, -6, -30, -14, 972, 862, 793,F
2025-03-10 13:10:47.024,694, 575, 468, -2, -3, 5, -7, -30, -16, 969, 855, 742,G
2025-03-10 13:10:47.084,699, 574, 461, -1, -4, 7, -7, -30, -16, 968, 854, 739,G
2025-03-10 13:10:47.142,705, 556, 446, -1, -7, 5, -6, -30, -14, 972, 858, 738,G
2025-03-10 13:10:47.202,695, 563, 421, 0, -7, 2, -7, -31, -16, 973, 864, 751,G
2025-03-10 13:10:47.257,720, 605, 465, -16, -5, -9, -8, -28, -15, 973, 872, 720,G
2025-03-10 13:10:47.322,569, 457, 609, 30, -14, -15, -4, -31, -12, 976, 868, 605,G
2025-03-10 13:10:47.372,868, 619, 249, 2, 39, 27, -7, -30, -14, 980, 868, 630,G
2025-03-10 13:10:47.434,649, 459, 620, -14, -26, -10, -7, -28, -16, 978, 871, 724,G
2025-03-10 13:10:47.498,711, 625, 414, 18, -14, -4, -7, -30, -15, 981, 874, 727,G
2025-03-10 13:10:47.552,718, 506, 375, -7, 29, 24, -8, -30, -14, 980, 861, 662,G
2025-03-10 13:10:47.618,460, 590, 762, -43, -11, -45, -7, -28, -15, 974, 839, 586,G
2025-03-10 13:10:47.672,761, 795, 479, 29, -26, 7, -6, -30, -14, 984, 881, 685,G
2025-03-10 13:10:47.733,752, 501, 465, 10, 17, 22, -8, -30, -14, 981, 855, 752,G
2025-03-10 13:10:47.797,647, 551, 519, -42, 58, -37, -6, -29, -17, 968, 833, 699,G
2025-03-10 13:10:48.382,686, 568, 479, -3, -4, 0, -5, -26, -19, 957, 825, 617,H
2025-03-10 13:10:48.442,694, 563, 485, -3, -5, 0, -5, -26, -19, 957, 827, 615,H
2025-03-10 13:10:48.502,701, 553, 474, -2, -5, -1, -6, -29, -16, 958, 836, 637,H
2025-03-10 13:10:48.553,674, 567, 507, 0, -7, 3, -6, -28, -15, 961, 842, 659,H
2025-03-10 13:10:48.612,722, 546, 450, 3, -8, 4, -7, -28, -16, 961, 848, 681,H
2025-03-10 13:10:48.672,696, 570, 499, 11, -12, 10, -7, -27, -18, 964, 857, 733,H
2025-03-10 13:10:48.731,655, 590, 469, -18, -9, -11, -6, -29, -15, 968, 867, 719,H
2025-03-10 13:10:48.792,421, 404, 521, 41, -17, -16, -7, -28, -14, 975, 868, 592,H
2025-03-10 13:10:48.850,1153, 584, 411, 8, 39, 26, -8, -29, -13, 982, 862, 540,H
2025-03-10 13:10:48.902,713, 546, 511, 0, 13, 9, -7, -30, -13, 980, 869, 644,H
2025-03-10 13:10:48.965,748, 590, 444, -4, 2, 6, -6, -31, -13, 972, 855, 667,H
2025-03-10 13:10:49.022,641, 545, 536, -36, 34, -34, -7, -31, -16, 965, 842, 599,H
2025-03-10 13:10:49.082,593, 661, 551, -7, -21, 0, -6, -31, -15, 965, 848, 632,H
2025-03-10 13:10:49.132,734, 570, 417, 1, -9, 5, -7, -30, -14, 966, 852, 678,H
2025-03-10 13:10:49.198,671, 573, 474, -3, -13, 1, -7, -29, -15, 966, 860, 712,H
2025-03-10 13:10:49.252,723, 732, 560, -4, -7, -7, -8, -31, -16, 970, 868, 706,H
2025-03-10 13:10:49.312,934, 971, 497, 36, 22, 19, -5, -30, -13, 982, 870, 660,H
2025-03-10 13:10:49.366,800, 637, 247, -13, 38, 28, -7, -31, -12, 982, 863, 584,H
2025-03-10 13:10:49.432,639, 543, 413, -23, -32, -41, -8, -30, -14, 974, 843, 636,H
2025-03-10 13:10:49.493,693, 641, 300, 44, -22, 5, -8, -30, -14, 984, 883, 699,H
2025-03-10 13:10:49.549,703, 476, 543, -12, 0, 13, -8, -31, -12, 982, 873, 751,H
2025-03-10 13:10:49.607,463, 604, 775, 10, -39, 13, -6, -29, -13, 977, 873, 769,H
2025-03-10 13:10:49.665,734, 808, 147, 22, 29, 32, -6, -30, -13, 986, 870, 676,H
2025-03-10 13:10:49.722,738, 615, 247, -4, 33, 15, -8, -31, -14, 983, 863, 675,H
2025-03-10 13:10:49.782,837, 509, 248, -57, 63, -58, -8, -31, -15, 966, 835, 686,H
2025-03-10 13:10:50.102,699, 567, 473, -1, -4, -1, -6, -29, -15, 961, 831, 578,I
2025-03-10 13:10:50.158,700, 560, 460, 1, -4, 0, -8, -31, -14, 961, 829, 574,I
2025-03-10 13:10:50.215,708, 550, 423, -3, -1, -2, -7, -28, -15, 962, 834, 592,I
2025-03-10 13:10:50.272,708, 550, 465, -5, -3, -5, -6, -30, -13, 960, 830, 587,I
2025-03-10 13:10:50.333,709, 573, 449, -7, -1, -5, -6, -29, -14, 961, 827, 577,I
2025-03-10 13:10:50.392,747, 559, 434, -2, -2, -4, -6, -29, -13, 960, 824, 541,I
2025-03-10 13:10:50.450,637, 572, 475, -8, -1, -11, -5, -27, -15, 959, 818, 497,I
2025-03-10 13:10:50.513,724, 453, 532, 34, -17, -11, -5, -30, -15, 972, 857, 384,I
2025-03-10 13:10:50.565,851, 854, 304, -7, 3, 32, -11, -26, -15, 983, 885, 709,I
2025-03-10 13:10:50.631,668, 442, 425, -11, 15, -4, -7, -31, -12, 972, 868, 750,I
2025-03-10 13:10:50.682,760, 759, 534, 14, -4, -1, -10, -29, -13, 976, 866, 680,I
2025-03-10 13:10:50.747,814, 491, 181, 12, 54, 45, -11, -31, -11, 979, 861, 644,I
2025-03-10 13:10:50.807,588, 370, 558, -11, 3, -43, -10, -32, -11, 968, 816, 611,I
2025-03-10 13:10:50.865,810, 387, 395, 32, -12, -10, -8, -29, -13, 976, 860, 451,I
2025-03-10 13:10:50.922,659, 537, 342, -6, 23, 36, -8, -30, -13, 983, 872, 726,I
2025-03-10 13:10:50.982,729, 520, 208, -56, 68, -68, -8, -31, -15, 969, 848, 702,I
2025-03-10 13:10:51.242,664, 559, 492, -3, -2, -2, -6, -29, -15, 953, 829, 619,J
2025-03-10 13:10:51.302,694, 587, 479, -4, -5, -1, -3, -27, -16, 953, 829, 613,J
2025-03-10 13:10:51.360,704, 577, 436, -12, -5, -3, -6, -28, -15, 951, 817, 584,J
2025-03-10 13:10:51.422,683, 575, 454, -10, -6, -4, -6, -29, -16, 952, 818, 532,J
2025-03-10 13:10:51.472,683, 485, 515, 5, -24, 3, -7, -28, -16, 952, 820, 408,J
2025-03-10 13:10:51.534,834, 1049, 231, 40, -22, 19, -6, -31, -15, 977, 878, 671,J
2025-03-10 13:10:51.599,697, 401, 416, 6, 10, 14, -6, -31, -12, 979, 875, 752,J
2025-03-10 13:10:51.653,609, 522, 541, -9, 7, -30, -8, -31, -15, 966, 847, 714,J
2025-03-10 13:10:51.712,695, 799, 354, 44, 28, 39, -5, -28, -13, 981, 872, 691,J
2025-03-10 13:10:51.770,652, 667, 186, -22, 31, 20, -7, -30, -13, 984, 867, 550,J
2025-03-10 13:10:51.831,840, 460, 597, -28, -20, -45, -7, -28, -14, 958, 791, 386,J
2025-03-10 13:10:51.892,510, 577, 767, -10, 22, -20, -5, -29, -17, 950, 805, 481,J
2025-03-10 13:10:51.949,517, 650, 619, 6, -24, 13, -5, -27, -18, 950, 811, 570,J
2025-03-10 13:10:52.232,683, 580, 475, -1, -6, 3, -6, -28, -16, 950, 816, 572,K
2025-03-10 13:10:52.282,693, 554, 477, -1, -6, 3, -7, -25, -18, 953, 819, 584,K
2025-03-10 13:10:52.352,693, 566, 469, -2, -10, 0, -7, -30, -17, 953, 823, 594,K
2025-03-10 13:10:52.410,754, 511, 398, -6, -3, -5, -7, -28, -15, 957, 838, 611,K
2025-03-10 13:10:52.465,692, 578, 526, 1, 0, -2, -6, -29, -15, 963, 855, 600,K
2025-03-10 13:10:52.522,748, 456, 524, 55, 21, 21, -5, -30, -15, 974, 851, 552,K
2025-03-10 13:10:52.580,791, 453, 173, 8, 22, 17, -7, -28, -17, 979, 840, 188,K
2025-03-10 13:10:52.632,721, 394, 238, -4, -34, -6, -9, -27, -14, 979, 883, 668,K
2025-03-10 13:10:52.696,619, 597, 458, 5, -7, -6, -9, -30, -15, 974, 870, 725,K
2025-03-10 13:10:52.758,632, 563, 518, -39, 44, -38, -9, -31, -12, 962, 825, 503,K
2025-03-10 13:10:52.815,866, 1097, 433, 6, -6, 13, -6, -28, -11, 977, 853, 592,K
2025-03-10 13:10:52.872,842, 1082, 145, 3, 23, 52, -7, -28, -14, 985, 872, 621,K
2025-03-10 13:10:52.932,919, 245, 297, -34, 28, -36, -8, -30, -16, 972, 849, 618,K
2025-03-10 13:10:52.992,588, 557, 711, -13, 28, -50, -6, -27, -18, 944, 769, 523,K
2025-03-10 13:10:53.453,682, 577, 481, -2, -3, 2, -9, -31, -16, 944, 809, 613,L
2025-03-10 13:10:53.510,687, 566, 467, -3, -3, 2, -6, -30, -15, 944, 808, 609,L
2025-03-10 13:10:53.565,695, 533, 488, -4, -6, -1, -6, -29, -14, 944, 804, 575,L
2025-03-10 13:10:53.622,705, 566, 467, -6, -6, -3, -6, -29, -16, 950, 808, 570,L
2025-03-10 13:10:53.683,668, 567, 490, -9, -17, -6, -7, -29, -17, 949, 810, 528,L
2025-03-10 13:10:53.742,792, 436, 541, 10, -11, -11, -6, -29, -14, 963, 843, 537,L
2025-03-10 13:10:53.802,689, 699, 411, 60, 19, 15, -6, -30, -15, 977, 840, 410,L
2025-03-10 13:10:53.857,781, 584, 224, 16, 14, 9, -6, -30, -13, 980, 830, 89,L
2025-03-10 13:10:53.917,555, 436, 505, 18, 7, 17, -7, -30, -13, 985, 885, 690,L
2025-03-10 13:10:53.972,688, 579, 388, -6, 7, 4, -7, -30, -12, 977, 871, 761,L
2025-03-10 13:10:54.035,566, 552, 573, -82, 48, -52, -5, -29, -16, 961, 789, 533,L
2025-03-10 13:10:54.092,521, 647, 696, -12, -13, -1, -3, -31, -18, 951, 753, 374,L
2025-03-10 13:10:54.522,680, 552, 473, -5, -3, 0, -4, -29, -17, 945, 807, 519,M
2025-03-10 13:10:54.583,676, 557, 486, -3, -4, 0, -6, -28, -17, 944, 805, 518,M
2025-03-10 13:10:54.646,667, 565, 484, -3, -7, -3, -3, -30, -17, 944, 808, 478,M
2025-03-10 13:10:54.703,688, 554, 460, -7, -13, -4, -5, -29, -17, 942, 808, 430,M
2025-03-10 13:10:54.765,912, 398, 354, -3, -4, -12, -6, -30, -17, 947, 815, 464,M
2025-03-10 13:10:54.822,580, 602, 528, 54, 3, -4, -4, -28, -16, 968, 837, 397,M
2025-03-10 13:10:54.879,748, 679, 271, 21, 39, 43, -6, -30, -13, 975, 839, 298,M
2025-03-10 13:10:54.934,653, 305, 750, -33, -39, -30, -6, -30, -14, 956, 838, 649,M
2025-03-10 13:10:55.002,937, 214, 468, -12, -16, -19, -6, -28, -14, 965, 864, 715,M
2025-03-10 13:10:55.060,486, 834, 94, 16, 31, 46, -6, -30, -14, 980, 880, 739,M
2025-03-10 13:10:55.118,714, 644, 552, -5, 1, 5, -5, -30, -13, 978, 878, 779,M
2025-03-10 13:10:55.173,671, 450, 810, 14, -11, -6, -7, -29, -13, 976, 887, 791,M
2025-03-10 13:10:55.232,310, 695, -25, 6, 35, 33, -7, -29, -13, 983, 875, 737,M
2025-03-10 13:10:55.293,879, 289, 455, -30, 4, -29, -6, -30, -13, 976, 867, 754,M
2025-03-10 13:10:55.352,612, 554, 553, -42, 30, -37, -5, -30, -15, 961, 853, 696,M
2025-03-10 13:10:55.722,690, 546, 461, 1, -4, 0, -7, -28, -17, 953, 818, 525,N
2025-03-10 13:10:55.785,685, 544, 481, 3, -5, 1, -5, -29, -16, 953, 819, 522,N
2025-03-10 13:10:55.842,695, 582, 473, 0, -10, 2, -6, -29, -16, 951, 821, 527,N
2025-03-10 13:10:55.899,708, 561, 429, -6, -5, -4, -6, -30, -16, 951, 820, 492,N
2025-03-10 13:10:55.960,670, 552, 452, -12, -7, -15, -7, -29, -14, 946, 812, 423,N
2025-03-10 13:10:56.017,732, 468, 619, 11, -10, -12, -5, -30, -14, 961, 840, 346,N
2025-03-10 13:10:56.075,665, 754, 92, 24, 44, 35, -6, -29, -14, 980, 847, 389,N
2025-03-10 13:10:56.132,625, 501, 401, -19, 23, 11, -6, -29, -14, 972, 850, 509,N
2025-03-10 13:10:56.196,643, 617, 673, -14, -24, -22, -6, -28, -14, 966, 863, 632,N
2025-03-10 13:10:56.255,571, 612, 293, 0, 29, 55, -8, -27, -15, 981, 874, 628,N
2025-03-10 13:10:56.312,670, 684, 281, -11, 18, 18, -8, -29, -14, 982, 877, 580,N
2025-03-10 13:10:56.373,678, 656, 575, -5, -16, -12, -8, -30, -14, 972, 885, 716,N
2025-03-10 13:10:56.431,696, 616, 428, -33, 79, -27, -6, -28, -16, 964, 866, 708,N
2025-03-10 13:10:56.492,428, 572, 778, -23, 11, -2, -2, -32, -18, 962, 829, 504,N
2025-03-10 13:10:56.824,695, 543, 481, 4, -5, 0, -6, -28, -15, 952, 818, 399,O
2025-03-10 13:10:56.882,686, 548, 475, 3, -5, 0, -5, -28, -18, 953, 820, 407,O
2025-03-10 13:10:56.942,690, 556, 486, 3, -6, -2, -5, -30, -17, 953, 829, 493,O
2025-03-10 13:10:56.997,722, 554, 442, 1, -5, -1, -5, -31, -16, 954, 831, 512,O
2025-03-10 13:10:57.052,703, 550, 480, 0, 1, 2, -5, -31, -15, 957, 836, 559,O
2025-03-10 13:10:57.112,647, 594, 490, 4, -14, 5, -7, -29, -16, 959, 847, 621,O
2025-03-10 13:10:57.172,726, 466, 500, -7, -8, -16, -7, -29, -15, 960, 861, 581,O
2025-03-10 13:10:57.230,752, 607, 286, 68, 13, -4, -6, -29, -15, 972, 846, 320,O
2025-03-10 13:10:57.282,1113, 650, 10, 12, 33, 44, -6, -29, -14, 982, 870, 467,O
2025-03-10 13:10:57.349,506, 599, 844, -14, -35, -26, -6, -30, -17, 974, 877, 597,O
2025-03-10 13:10:57.405,1014, 465, 151, -16, 9, -19, -5, -31, -15, 947, 842, 627,O
2025-03-10 13:10:57.465,541, 628, 625, -39, 51, -12, -3, -30, -18, 944, 800, 382,O
2025-03-10 13:10:57.529,529, 622, 632, 10, -13, 17, -4, -26, -21, 945, 793, 450,O
2025-03-10 13:10:57.844,673, 540, 500, 0, -4, 0, -4, -29, -16, 938, 797, 458,P
2025-03-10 13:10:57.902,679, 550, 506, 2, -4, 0, -7, -26, -17, 939, 803, 469,P
2025-03-10 13:10:57.963,707, 565, 461, -1, -4, 0, -6, -28, -16, 941, 809, 491,P
2025-03-10 13:10:58.017,683, 545, 496, 0, -7, 0, -6, -27, -16, 940, 816, 490,P
2025-03-10 13:10:58.078,676, 555, 484, -5, -16, 0, -4, -29, -13, 940, 815, 511,P
2025-03-10 13:10:58.132,749, 471, 607, 4, -7, -8, -7, -28, -14, 956, 837, 457,P
2025-03-10 13:10:58.192,219, 704, 397, 63, 40, 38, -6, -30, -15, 979, 849, 430,P
2025-03-10 13:10:58.248,732, 570, 115, -13, 26, 11, -6, -29, -14, 977, 850, 406,P
2025-03-10 13:10:58.312,883, 790, 515, 8, -44, -40, -6, -30, -14, 965, 866, 646,P
2025-03-10 13:10:58.368,667, 742, 508, 12, -15, 14, -4, -31, -13, 982, 885, 711,P
2025-03-10 13:10:58.431,407, 603, 437, -12, 35, 22, -6, -30, -13, 983, 869, 553,P
2025-03-10 13:10:58.482,1161, 253, 410, -13, 20, -23, -6, -29, -15, 962, 821, 508,P
2025-03-10 13:10:58.549,461, 676, 739, -15, 17, -17, -4, -27, -19, 958, 832, 586,P
2025-03-10 13:10:58.892,702, 552, 474, -2, 2, 0, -6, -28, -16, 948, 817, 563,Q
2025-03-10 13:10:58.956,689, 558, 477, -2, 1, -1, -7, -30, -16, 947, 811, 546,Q
2025-03-10 13:10:59.014,686, 571, 460, -4, -1, 0, -6, -31, -15, 948, 814, 543,Q
2025-03-10 13:10:59.072,687, 563, 480, -7, -2, -1, -6, -27, -16, 950, 815, 491,Q
2025-03-10 13:10:59.130,691, 556, 480, 4, -6, 5, -6, -30, -15, 954, 827, 557,Q
2025-03-10 13:10:59.183,743, 512, 447, 4, -26, 7, -6, -29, -14, 959, 841, 582,Q
2025-03-10 13:10:59.246,792, 477, 560, -10, -10, -18, -6, -29, -14, 964, 853, 369,Q
2025-03-10 13:10:59.307,675, 672, 264, 31, 19, 17, -6, -28, -14, 977, 837, 60,Q
2025-03-10 13:10:59.363,720, 713, 474, -6, 21, 34, -8, -28, -16, 981, 874, 537,Q
2025-03-10 13:10:59.422,800, 551, 536, -9, -31, -32, -5, -30, -13, 972, 882, 650,Q
2025-03-10 13:10:59.483,942, 547, 190, -9, 38, -6, -8, -28, -16, 962, 847, 502,Q
2025-03-10 13:10:59.532,500, 680, 603, 14, -27, 18, -5, -29, -16, 967, 846, 540,Q
2025-03-10 13:10:59.597,629, 720, 294, 1, 4, 34, -6, -29, -15, 984, 879, 584,Q
2025-03-10 13:10:59.652,686, 515, 441, -8, 14, 18, -9, -29, -15, 982, 864, 599,Q
2025-03-10 13:10:59.713,584, 454, 588, -40, 42, -60, -8, -25, -20, 960, 799, 512,Q
2025-03-10 13:11:00.054,683, 551, 467, -3, -6, 1, -6, -30, -17, 934, 789, 410,R
2025-03-10 13:11:00.102,687, 544, 491, 0, -6, 1, -9, -26, -17, 935, 794, 422,R
2025-03-10 13:11:00.166,703, 546, 466, 1, -5, 1, -6, -29, -16, 935, 803, 478,R
2025-03-10 13:11:00.222,673, 546, 486, -2, -7, -2, -6, -30, -16, 935, 813, 489,R
2025-03-10 13:11:00.283,1412, 306, 120, -36, -10, -25, -5, -30, -18, 939, 827, 487,R
2025-03-10 13:11:00.348,802, 762, 393, 55, 10, 18, -5, -29, -14, 972, 847, 450,R
2025-03-10 13:11:00.402,902, 642, 270, -2, 23, 23, -6, -30, -14, 981, 851, 413,R
2025-03-10 13:11:00.465,625, 513, 730, 14, -56, -72, -6, -30, -16, 963, 848, 566,R
2025-03-10 13:11:00.522,841, 618, 514, 11, -20, 2, -6, -30, -14, 979, 886, 673,R
2025-03-10 13:11:00.581,431, 755, 376, -7, 26, 33, -7, -29, -14, 983, 870, 573,R
2025-03-10 13:11:00.633,843, 382, 370, 33, 14, 4, -7, -29, -15, 979, 842, 394,R
2025-03-10 13:11:00.695,989, 280, 170, -16, 48, 3, -7, -31, -14, 982, 867, 632,R
2025-03-10 13:11:00.752,493, 574, 632, -38, 61, -47, -4, -29, -20, 968, 837, 486,R
2025-03-10 13:11:01.082,672, 542, 519, 1, -15, 4, -5, -30, -16, 929, 783, 471,S
2025-03-10 13:11:01.132,684, 535, 500, 1, -14, 3, -5, -30, -16, 930, 786, 476,S
2025-03-10 13:11:01.197,705, 543, 491, 0, -11, 1, -6, -28, -18, 934, 804, 531,S
2025-03-10 13:11:01.253,714, 544, 477, -1, -10, -1, -6, -27, -19, 940, 812, 532,S
2025-03-10 13:11:01.313,726, 541, 472, 6, -6, 8, -7, -28, -18, 947, 831, 591,S
2025-03-10 13:11:01.365,626, 541, 555, 3, -18, 5, -7, -28, -18, 953, 847, 650,S
2025-03-10 13:11:01.432,634, 585, 551, -7, -7, -10, -4, -31, -14, 960, 862, 633,S
2025-03-10 13:11:01.483,581, 367, 549, 22, -13, -17, -8, -25, -16, 969, 863, 517,S
2025-03-10 13:11:01.552,694, 747, 267, 29, 23, 28, -6, -30, -13, 982, 871, 584,S
2025-03-10 13:11:01.608,603, 486, 477, -35, 20, 20, -7, -28, -15, 982, 857, 333,S
2025-03-10 13:11:01.665,1165, 247, 243, -8, 31, -31, -5, -29, -16, 953, 734, 260,S
2025-03-10 13:11:01.727,485, 642, 784, -1, 21, -27, -3, -28, -20, 937, 769, 431,S
2025-03-10 13:11:01.782,504, 616, 658, 8, -23, 17, -3, -29, -20, 933, 782, 489,S
2025-03-10 13:11:02.042,683, 534, 496, -3, -3, 2, -2, -30, -14, 935, 790, 415,T
2025-03-10 13:11:02.102,686, 533, 497, -3, -3, 1, -3, -30, -15, 934, 788, 412,T
2025-03-10 13:11:02.161,697, 537, 487, 0, -5, 0, -3, -30, -16, 935, 798, 414,T
2025-03-10 13:11:02.213,696, 536, 508, -4, -5, -2, -7, -28, -18, 939, 809, 441,T
2025-03-10 13:11:02.277,692, 538, 476, -11, -8, -6, -6, -29, -17, 941, 806, 351,T
2025-03-10 13:11:02.332,673, 532, 507, -10, -9, -4, -5, -29, -17, 941, 795, 223,T
2025-03-10 13:11:02.395,838, 218, 192, -7, -1, -19, -6, -28, -17, 943, 794, 62,T
2025-03-10 13:11:02.457,1002, 1152, 350, 57, -30, 16, -6, -28, -16, 974, 874, 568,T
2025-03-10 13:11:02.513,508, 519, 377, 3, 6, 16, -8, -28, -15, 977, 885, 727,T
2025-03-10 13:11:02.572,629, 348, 459, -16, 8, -21, -7, -30, -13, 963, 853, 723,T
2025-03-10 13:11:02.629,778, 705, 564, 0, -5, 3, -7, -30, -14, 973, 851, 586,T
2025-03-10 13:11:02.686,502, 635, 128, 26, 24, 35, -6, -30, -13, 985, 857, 435,T
2025-03-10 13:11:02.745,806, 342, 716, -14, -4, -19, -8, -28, -14, 970, 816, 521,T
2025-03-10 13:11:02.806,558, 563, 686, -18, 27, -34, -4, -29, -17, 942, 808, 539,T
2025-03-10 13:11:02.862,553, 619, 637, -9, -9, 0, -5, -29, -17, 922, 777, 510,T
2025-03-10 13:11:02.922,692, 549, 486, 2, -19, 10, -5, -28, -18, 921, 772, 490,T
2025-03-10 13:11:02.980,716, 539, 465, -1, -4, 2, -5, -30, -17, 923, 782, 514,T
2025-03-10 13:11:03.032,686, 577, 489, -10, 5, -2, -6, -27, -19, 924, 778, 511,T
2025-03-10 13:11:03.952,689, 554, 490, -8, -2, -1, -5, -28, -17, 941, 810, 276,U
2025-03-10 13:11:04.007,681, 557, 498, -9, -2, -1, -5, -26, -14, 938, 806, 214,U
2025-03-10 13:11:04.062,708, 532, 481, -2, -4, -3, -6, -28, -18, 938, 806, 227,U
2025-03-10 13:11:04.128,710, 550, 474, -1, -4, -6, -5, -28, -18, 939, 807, 245,U
2025-03-10 13:11:04.187,652, 554, 518, -10, -16, -4, -7, -27, -18, 937, 810, 324,U
2025-03-10 13:11:04.242,710, 378, 679, 6, -6, -9, -5, -27, -18, 954, 824, 60,U
2025-03-10 13:11:04.299,838, 801, 354, 69, 35, 47, -7, -27, -16, 976, 855, 436,U
2025-03-10 13:11:04.356,788, 528, 571, -1, 8, 21, -5, -31, -15, 976, 872, 621,U
2025-03-10 13:11:04.412,722, 393, 627, -14, -21, -19, -6, -30, -14, 964, 867, 686,U
2025-03-10 13:11:04.476,535, 691, 328, 1, 27, 27, -7, -30, -15, 978, 866, 645,U
2025-03-10 13:11:04.532,984, 218, 214, -34, 28, -20, -7, -28, -17, 968, 844, 676,U
2025-03-10 13:11:04.595,589, 521, 639, -49, 34, -53, -2, -29, -19, 946, 802, 495,U
2025-03-10 13:11:04.656,474, 556, 760, -15, -8, -7, -3, -28, -24, 926, 774, 414,U
2025-03-10 13:11:05.097,667, 523, 535, 7, -8, 2, -6, -28, -19, 931, 754, 211,V
2025-03-10 13:11:05.152,677, 524, 518, 8, -9, 1, -7, -23, -12, 930, 754, 205,V
2025-03-10 13:11:05.209,701, 537, 516, 7, -8, 0, -6, -29, -16, 932, 775, 253,V
2025-03-10 13:11:05.265,707, 533, 482, 1, -3, 0, -8, -26, -18, 929, 776, 204,V
2025-03-10 13:11:05.322,683, 554, 494, 1, -4, -6, -6, -29, -18, 924, 789, 251,V
2025-03-10 13:11:05.382,804, 525, 413, -10, -13, -15, -6, -29, -17, 926, 812, 220,V
2025-03-10 13:11:05.444,760, 316, 706, 32, -11, -10, -4, -28, -16, 959, 848, 300,V
2025-03-10 13:11:05.502,546, 651, 410, 10, 28, 44, -5, -29, -16, 980, 868, 495,V
2025-03-10 13:11:05.562,711, 18, 861, 2, -37, -20, -6, -28, -16, 977, 885, 593,V
2025-03-10 13:11:05.613,713, 629, 439, 0, -6, -3, -7, -29, -15, 965, 881, 708,V
2025-03-10 13:11:05.677,686, 565, 458, -42, 64, -24, -6, -29, -17, 956, 848, 647,V
2025-03-10 13:11:05.734,515, 601, 737, -4, 11, -9, -6, -29, -20, 953, 824, 539,V
2025-03-10 13:11:06.184,690, 540, 509, -4, -3, 0, -5, -28, -18, 942, 791, 272,W
2025-03-10 13:11:06.245,683, 533, 503, -4, -3, 0, -7, -30, -18, 941, 793, 261,W
2025-03-10 13:11:06.302,683, 534, 524, -3, -4, -1, -6, -27, -19, 940, 782, 192,W
2025-03-10 13:11:06.360,673, 527, 516, -1, -2, -2, -7, -27, -18, 940, 760, 181,W
2025-03-10 13:11:06.413,669, 523, 535, 4, -2, -4, -6, -26, -18, 937, 758, 155,W
2025-03-10 13:11:06.478,656, 541, 503, 11, -22, -14, -5, -30, -15, 927, 771, 308,W
2025-03-10 13:11:06.532,671, 551, 565, -5, -13, -16, -6, -28, -15, 943, 815, 235,W
2025-03-10 13:11:06.595,736, 352, 750, 43, -15, -14, -6, -29, -17, 967, 854, 339,W
2025-03-10 13:11:06.655,920, 1004, 141, 43, 32, 49, -7, -29, -14, 978, 863, 499,W
2025-03-10 13:11:06.712,632, 217, 566, -13, -18, -13, -6, -29, -15, 974, 870, 592,W
2025-03-10 13:11:06.777,754, 398, 701, 16, -16, -9, -7, -28, -16, 975, 872, 647,W
2025-03-10 13:11:06.832,766, 565, 229, 6, 18, 29, -7, -30, -16, 981, 873, 594,W
2025-03-10 13:11:06.892,776, 538, 408, 7, -25, -14, -9, -30, -16, 978, 882, 690,W
2025-03-10 13:11:06.952,595, 519, 648, -38, 75, -37, -6, -30, -17, 968, 871, 720,W
2025-03-10 13:11:07.297,702, 521, 488, -3, -8, 3, -6, -28, -18, 956, 812, 344,X
2025-03-10 13:11:07.352,696, 505, 500, -1, -8, 1, -9, -26, -16, 956, 815, 351,X
2025-03-10 13:11:07.409,695, 533, 491, 0, -6, -2, -6, -28, -17, 958, 828, 394,X
2025-03-10 13:11:07.462,690, 541, 512, -1, -8, 0, -7, -28, -18, 958, 835, 475,X
2025-03-10 13:11:07.523,690, 529, 498, 3, -13, 3, -7, -27, -17, 959, 846, 562,X
2025-03-10 13:11:07.582,805, 368, 188, -5, -20, -3, -7, -28, -15, 963, 865, 658,X
2025-03-10 13:11:07.644,618, 522, 640, 11, -18, -14, -7, -28, -18, 974, 876, 510,X
2025-03-10 13:11:07.697,345, 801, 16, 8, 27, 13, -9, -29, -14, 977, 843, 50,X
2025-03-10 13:11:07.756,715, 543, 774, -48, 22, 4, -6, -30, -12, 961, 800, 42,X
2025-03-10 13:11:07.813,518, 686, 754, 14, -28, 0, -7, -30, -17, 958, 834, 403,X
2025-03-10 13:11:07.864,773, 834, 8, 16, 17, 86, -7, -29, -15, 982, 873, 522,X
2025-03-10 13:11:07.929,688, 401, 522, -4, 23, 22, -7, -28, -16, 980, 862, 561,X
2025-03-10 13:11:07.983,715, 462, 351, -55, 58, -71, -7, -29, -17, 955, 782, 398,X
2025-03-10 13:11:08.334,681, 543, 516, -5, -5, -1, -8, -29, -18, 928, 804, 360,Y
2025-03-10 13:11:08.392,677, 533, 513, -4, -5, -1, -3, -25, -16, 930, 807, 376,Y
2025-03-10 13:11:08.449,675, 539, 479, -1, -4, -5, -5, -29, -17, 930, 814, 383,Y
2025-03-10 13:11:08.506,659, 557, 501, 0, -5, -4, -6, -29, -18, 930, 822, 344,Y
2025-03-10 13:11:08.562,883, 481, 392, -11, -11, -11, -7, -28, -17, 931, 814, 195,Y
2025-03-10 13:11:08.628,864, 438, 562, 52, -18, -11, -5, -28, -16, 971, 850, 213,Y
2025-03-10 13:11:08.682,827, 906, 171, 30, 17, 46, -6, -28, -15, 983, 883, 666,Y
2025-03-10 13:11:08.743,694, 562, 404, 8, 16, 12, -7, -28, -14, 975, 875, 735,Y
2025-03-10 13:11:08.798,504, 645, 782, -24, -7, -18, -6, -29, -17, 964, 872, 737,Y
2025-03-10 13:11:08.862,821, 602, 421, -6, -16, 3, -7, -30, -14, 978, 884, 703,Y
2025-03-10 13:11:08.912,953, 812, 213, 26, 36, 29, -6, -30, -14, 984, 867, 420,Y
2025-03-10 13:11:08.976,797, 510, 474, -7, 33, 12, -6, -28, -15, 967, 813, 336,Y
2025-03-10 13:11:09.032,691, 568, 464, -49, 60, -54, -5, -29, -16, 924, 785, 416,Y
2025-03-10 13:11:09.100,380, 664, 843, -15, -3, -10, -3, -28, -20, 905, 763, 360,Y
2025-03-10 13:11:09.468,660, 538, 537, -2, -9, -1, -7, -28, -18, 924, 792, 297,Z
2025-03-10 13:11:09.527,667, 543, 532, -2, -12, -1, -7, -27, -19, 923, 792, 286,Z
2025-03-10 13:11:09.590,687, 549, 510, -2, -14, -1, -6, -28, -18, 928, 802, 226,Z
2025-03-10 13:11:09.644,676, 530, 491, -6, -11, -5, -6, -26, -19, 929, 799, 199,Z
2025-03-10 13:11:09.702,738, 559, 572, 4, -9, -22, -5, -28, -17, 940, 797, 47,Z
2025-03-10 13:11:09.759,616, 956, 367, 38, -6, 32, -6, -30, -15, 974, 873, 559,Z
2025-03-10 13:11:09.812,651, 500, 659, 34, -2, 13, -7, -28, -15, 979, 886, 719,Z
2025-03-10 13:11:09.877,1089, 519, 480, -1, 26, -8, -8, -29, -15, 977, 834, 355,Z
2025-03-10 13:11:09.932,1032, 874, 396, 31, 9, 21, -5, -31, -14, 983, 868, 306,Z
2025-03-10 13:11:09.993,612, 624, 388, 8, 4, 20, -7, -28, -15, 984, 889, 674,Z
2025-03-10 13:11:10.052,828, 218, 219, -58, 13, -69, -6, -28, -15, 969, 830, 581,Z
2025-03-10 13:11:10.111,566, 597, 699, 28, -60, 32, -7, -31, -16, 970, 837, 468,Z
2025-03-10 13:11:10.162,747, 381, 348, 14, -6, 24, -7, -30, -14, 985, 894, 688,Z
2025-03-10 13:11:10.226,711, 514, 448, -2, 19, 18, -6, -31, -13, 977, 874, 729,Z
2025-03-10 13:11:10.282,605, 549, 616, -57, 62, -39, -5, -30, -17, 954, 766, 544,Z
2025-03-10 13:11:10.652,702, 542, 475, 0, -4, 5, -7, -30, -16, 946, 793, 505,a
2025-03-10 13:11:10.706,700, 531, 483, 0, -5, 4, -9, -27, -14, 946, 794, 504,a
2025-03-10 13:11:10.762,728, 530, 445, 3, -7, 1, -9, -29, -16, 949, 806, 527,a
2025-03-10 13:11:10.819,723, 556, 467, -5, -1, -4, -6, -29, -17, 955, 821, 486,a
2025-03-10 13:11:10.882,698, 595, 598, -12, -8, -17, -5, -29, -15, 960, 849, 375,a
2025-03-10 13:11:10.932,1240, 617, 333, 24, -8, -8, -6, -28, -13, 974, 841, 69,a
2025-03-10 13:11:10.994,734, 310, 337, -12, 22, 24, -7, -29, -15, 979, 858, 146,a
2025-03-10 13:11:11.058,474, 346, 468, 5, -23, -23, -8, -29, -14, 972, 867, 470,a
2025-03-10 13:11:11.112,715, 674, 350, 19, -6, -3, -6, -30, -15, 979, 873, 520,a
2025-03-10 13:11:11.176,822, 582, 304, -12, 20, 24, -8, -29, -15, 980, 856, 410,a
2025-03-10 13:11:11.232,670, 515, 461, -31, 43, -42, -6, -28, -17, 962, 822, 389,a
2025-03-10 13:11:11.504,720, 524, 486, -9, -5, -5, -7, -29, -18, 943, 815, 371,b
2025-03-10 13:11:11.562,713, 532, 479, -12, -4, -6, -7, -27, -17, 944, 813, 343,b
2025-03-10 13:11:11.627,666, 514, 509, -20, -8, -13, -6, -28, -18, 937, 808, 172,b
2025-03-10 13:11:11.682,739, 358, 324, -31, -24, -27, -6, -28, -18, 936, 817, 51,b
2025-03-10 13:11:11.744,537, 716, 474, 81, 13, 18, -6, -28, -15, 974, 838, 137,b
2025-03-10 13:11:11.802,790, 571, 150, -15, 30, 24, -9, -30, -14, 977, 834, 80,b
2025-03-10 13:11:11.862,649, 199, 713, 16, -37, -50, -6, -30, -16, 959, 823, 276,b
2025-03-10 13:11:11.922,623, 671, 694, 27, -14, 7, -5, -28, -16, 978, 877, 631,b
2025-03-10 13:11:11.982,686, 572, 188, -25, 28, 23, -4, -29, -15, 982, 873, 504,b
2025-03-10 13:11:12.041,862, 268, 631, -6, 13, -11, -7, -29, -14, 957, 795, 89,b
2025-03-10 13:11:12.094,522, 560, 765, -15, 56, -32, -3, -29, -17, 949, 804, 358,b
2025-03-10 13:11:12.424,687, 525, 505, -4, -2, 1, -7, -29, -18, 954, 830, 467,c
2025-03-10 13:11:12.482,689, 508, 516, -3, -2, 0, -7, -28, -15, 953, 832, 476,c
2025-03-10 13:11:12.532,707, 533, 480, 0, -3, 2, -8, -25, -20, 958, 846, 505,c
2025-03-10 13:11:12.593,721, 525, 480, 6, -8, 5, -6, -27, -17, 959, 837, 507,c
2025-03-10 13:11:12.655,686, 604, 444, -4, -4, -8, -8, -29, -16, 964, 861, 552,c
2025-03-10 13:11:12.713,671, 517, 614, -7, -15, -19, -6, -28, -18, 972, 868, 295,c
2025-03-10 13:11:12.769,963, 931, -26, 4, 26, 24, -6, -30, -14, 985, 870, 130,c
2025-03-10 13:11:12.827,786, 425, 430, 19, 17, 20, -6, -30, -13, 985, 886, 453,c
2025-03-10 13:11:12.882,880, 452, 189, -25, 43, -42, -7, -29, -16, 960, 858, 602,c
2025-03-10 13:11:12.944,536, 568, 679, -24, 17, -16, -4, -30, -20, 942, 817, 473,c
2025-03-10 13:11:13.439,727, 526, 465, 2, -7, 3, -8, -28, -19, 943, 815, 389,d
2025-03-10 13:11:13.495,724, 525, 439, 1, -6, 3, -7, -26, -18, 943, 813, 387,d
2025-03-10 13:11:13.552,726, 503, 472, 2, -2, 1, -7, -29, -16, 947, 819, 396,d
2025-03-10 13:11:13.609,719, 533, 494, 3, 0, 0, -7, -28, -16, 951, 834, 477,d
2025-03-10 13:11:13.662,681, 547, 501, -6, -4, -7, -4, -27, -18, 961, 856, 433,d
2025-03-10 13:11:13.724,641, 403, 566, 3, -11, -20, -9, -28, -16, 968, 863, 124,d
2025-03-10 13:11:13.776,879, 536, 50, 4, 30, 25, -5, -29, -14, 980, 851, 63,d
2025-03-10 13:11:13.832,621, 433, 501, 2, 3, 7, -7, -28, -17, 980, 884, 150,d
2025-03-10 13:11:13.894,796, 489, 485, -8, -34, -35, -7, -28, -16, 965, 887, 568,d
2025-03-10 13:11:13.952,734, 479, 394, 31, 22, 28, -7, -28, -14, 981, 883, 508,d
2025-03-10 13:11:14.012,750, 541, 350, -15, 23, 23, -9, -28, -14, 979, 871, 417,d
2025-03-10 13:11:14.072,720, 504, 441, -23, 39, -43, -7, -29, -17, 955, 844, 520,d
2025-03-10 13:11:14.467,701, 518, 494, 0, -1, 2, -7, -30, -16, 950, 813, 180,e
2025-03-10 13:11:14.525,698, 531, 488, 0, -1, 1, -7, -26, -16, 950, 813, 182,e
2025-03-10 13:11:14.582,698, 524, 517, 0, -2, 0, -8, -30, -18, 953, 820, 167,e
2025-03-10 13:11:14.642,687, 514, 537, 16, -10, 6, -6, -28, -18, 947, 826, 253,e
2025-03-10 13:11:14.697,924, 720, 522, 54, 6, 12, -6, -31, -16, 966, 873, 581,e
2025-03-10 13:11:14.755,619, 585, 598, 0, -4, 4, -7, -30, -15, 967, 887, 681,e
2025-03-10 13:11:14.818,629, 368, 640, -15, -17, -27, -7, -29, -16, 965, 882, 607,e
2025-03-10 13:11:14.875,895, 573, 298, -23, 23, 35, -7, -30, -15, 981, 880, 405,e
2025-03-10 13:11:14.932,718, 489, 585, -13, 17, 19, -8, -30, -16, 979, 887, 630,e
2025-03-10 13:11:14.995,646, 533, 567, -25, 44, -34, -7, -29, -17, 955, 858, 622,e
2025-03-10 13:11:15.336,677, 531, 501, -2, -3, 7, -8, -30, -16, 950, 815, 437,f
2025-03-10 13:11:15.391,689, 506, 524, 1, -5, 7, -7, -28, -15, 950, 815, 429,f
2025-03-10 13:11:15.446,785, 489, 389, -4, 2, 0, -9, -28, -19, 952, 816, 379,f
2025-03-10 13:11:15.505,704, 524, 479, -7, 2, -3, -8, -29, -15, 957, 830, 326,f
2025-03-10 13:11:15.562,1073, 515, 258, 4, -23, -40, -7, -29, -16, 960, 877, 455,f
2025-03-10 13:11:15.625,545, 595, 325, 18, -28, -10, -7, -30, -16, 979, 897, 709,f
2025-03-10 13:11:15.682,715, 562, 371, 13, 15, 22, -7, -30, -13, 982, 896, 756,f
2025-03-10 13:11:15.744,573, 551, 418, -26, 28, -37, -8, -27, -15, 974, 876, 619,f
2025-03-10 13:11:15.802,936, 689, 433, -1, -9, -6, -6, -30, -16, 976, 877, 576,f
2025-03-10 13:11:15.858,646, 483, 416, 17, 7, 23, -5, -28, -15, 985, 894, 719,f
2025-03-10 13:11:15.912,842, 455, 340, -23, 21, 2, -7, -28, -15, 980, 874, 731,f
2025-03-10 13:11:15.977,577, 535, 668, -28, 29, -27, -6, -27, -18, 960, 786, 538,f
2025-03-10 13:11:16.255,678, 536, 490, 3, -7, 8, -7, -28, -16, 958, 815, 600,g
2025-03-10 13:11:16.317,675, 501, 488, 1, -10, 5, -7, -31, -15, 959, 819, 596,g
2025-03-10 13:11:16.379,677, 510, 461, -3, -3, -10, -7, -29, -15, 961, 845, 540,g
2025-03-10 13:11:16.436,624, 484, 619, -6, -7, -10, -7, -30, -15, 967, 864, 411,g
2025-03-10 13:11:16.492,1099, 1022, 126, 25, 22, 37, -6, -29, -14, 980, 864, 193,g
2025-03-10 13:11:16.552,827, 187, 505, -7, 23, 16, -8, -27, -19, 983, 883, 511,g
2025-03-10 13:11:16.612,793, 449, 468, 9, -23, -31, -7, -29, -17, 972, 880, 660,g
2025-03-10 13:11:16.672,642, 582, 433, -6, 16, 26, -7, -30, -13, 982, 877, 587,g
2025-03-10 13:11:16.727,684, 542, 263, -84, 37, 32, -8, -29, -16, 981, 825, 36,g
2025-03-10 13:11:16.791,1068, 367, 194, 17, 22, -53, -7, -28, -18, 942, 756, 44,g
2025-03-10 13:11:17.124,698, 534, 488, -3, -7, -3, -6, -26, -20, 931, 811, 433,h
2025-03-10 13:11:17.176,704, 541, 473, -5, -6, -4, -6, -28, -18, 930, 811, 434,h
2025-03-10 13:11:17.243,675, 537, 539, -3, -10, -2, -4, -28, -18, 930, 817, 441,h
2025-03-10 13:11:17.297,647, 551, 587, 12, -30, 11, -4, -29, -19, 936, 824, 557,h
2025-03-10 13:11:17.357,645, 499, 630, 24, 8, 6, -5, -28, -17, 964, 839, 541,h
2025-03-10 13:11:17.415,627, 882, 137, 17, 39, 49, -6, -28, -16, 977, 839, 148,h
2025-03-10 13:11:17.472,729, 154, 863, 5, -27, -22, -6, -27, -16, 971, 845, 231,h
2025-03-10 13:11:17.532,630, 573, 803, 25, -16, -5, -6, -28, -16, 978, 876, 623,h
2025-03-10 13:11:17.590,712, 520, 366, -25, 32, 37, -8, -28, -15, 982, 862, 438,h
2025-03-10 13:11:17.652,746, 477, 255, -23, 37, -43, -7, -28, -17, 966, 823, 494,h
2025-03-10 13:11:17.712,523, 568, 652, -16, 13, -29, -6, -28, -19, 949, 798, 495,h
2025-03-10 13:11:17.983,695, 535, 515, -4, -10, 2, -8, -29, -18, 951, 785, 313,i
2025-03-10 13:11:18.042,704, 522, 494, -4, -10, 3, -7, -28, -16, 954, 785, 295,i
2025-03-10 13:11:18.097,715, 509, 487, 2, -6, 1, -8, -27, -17, 954, 790, 299,i
2025-03-10 13:11:18.157,713, 497, 461, -4, -3, -7, -8, -29, -17, 957, 817, 399,i
2025-03-10 13:11:18.213,711, 479, 581, 17, -9, -10, -8, -29, -17, 968, 846, 425,i
2025-03-10 13:11:18.275,815, 618, 349, -5, 33, 39, -8, -28, -14, 984, 845, 180,i
2025-03-10 13:11:18.336,783, -12, 688, -19, -35, -54, -8, -27, -18, 976, 850, 367,i
2025-03-10 13:11:18.396,381, 583, 763, 17, -91, -35, -5, -29, -17, 978, 888, 504,i
2025-03-10 13:11:18.456,868, 700, 342, 12, 15, 13, -4, -29, -16, 980, 890, 602,i
2025-03-10 13:11:18.513,722, 476, 283, -23, 57, -18, -7, -29, -18, 972, 857, 550,i
2025-03-10 13:11:18.574,511, 547, 747, -5, 12, -10, -6, -28, -17, 970, 841, 442,i
2025-03-10 13:11:18.852,698, 521, 500, -4, -1, 0, -7, -28, -17, 956, 818, 441,j
2025-03-10 13:11:18.912,697, 524, 504, -3, -1, 0, -4, -26, -15, 958, 819, 443,j
2025-03-10 13:11:18.967,704, 522, 493, 3, -4, 2, -5, -29, -17, 958, 825, 449,j
2025-03-10 13:11:19.024,734, 502, 475, 11, 4, -3, -5, -30, -16, 967, 839, 496,j
2025-03-10 13:11:19.082,698, 749, 400, -6, 27, 37, -8, -27, -18, 982, 853, 245,j
2025-03-10 13:11:19.140,834, 339, 410, -76, 9, 0, -8, -27, -16, 979, 840, 125,j
2025-03-10 13:11:19.196,894, 586, 52, -21, 0, -70, -6, -28, -19, 966, 860, 135,j
2025-03-10 13:11:19.257,570, 636, 598, 58, -13, -19, -8, -27, -18, 979, 892, 519,j
2025-03-10 13:11:19.312,830, 618, 531, 9, 23, 30, -7, -28, -16, 982, 884, 629,j
2025-03-10 13:11:19.377,700, 575, 388, -19, 62, -21, -7, -29, -18, 968, 855, 534,j
2025-03-10 13:11:19.432,512, 635, 746, -5, 11, -5, -4, -29, -20, 965, 831, 471,j
2025-03-10 13:11:19.734,696, 516, 483, -1, -4, -3, -7, -24, -20, 951, 819, 324,k
2025-03-10 13:11:19.791,697, 514, 486, -1, -4, -3, -7, -29, -18, 951, 819, 346,k
2025-03-10 13:11:19.852,662, 536, 514, -3, -14, -7, -6, -26, -18, 952, 825, 368,k
2025-03-10 13:11:19.909,753, 486, 583, -6, -10, -16, -7, -28, -17, 962, 841, 124,k
2025-03-10 13:11:19.962,637, 626, 502, 41, 6, 7, -5, -29, -13, 977, 839, 201,k
2025-03-10 13:11:20.024,765, 793, 229, 1, 28, 26, -7, -28, -14, 978, 811, 126,k
2025-03-10 13:11:20.082,1193, 309, 936, 44, -22, 10, -6, -29, -15, 980, 894, 506,k
2025-03-10 13:11:20.142,643, 511, 561, 7, -4, -4, -9, -27, -18, 977, 899, 701,k
2025-03-10 13:11:20.192,765, 448, 269, -58, 36, -16, -7, -29, -14, 961, 817, 474,k
2025-03-10 13:11:20.262,924, 64, 124, 63, -2, -17, -8, -28, -15, 970, 842, 372,k
2025-03-10 13:11:20.313,371, 568, 284, -5, 16, 36, -8, -28, -14, 986, 888, 511,k
2025-03-10 13:11:20.372,725, 535, 519, 2, 7, 6, -9, -28, -15, 976, 858, 616,k
2025-03-10 13:11:20.433,708, 500, 549, -32, 52, -46, -6, -28, -17, 949, 766, 478,k
2025-03-10 13:11:20.736,708, 523, 484, -7, -2, -2, -7, -29, -17, 934, 763, 258,l
2025-03-10 13:11:20.792,707, 531, 491, -6, -1, -2, -4, -27, -13, 933, 764, 259,l
2025-03-10 13:11:20.852,681, 541, 507, -3, -3, -4, -7, -28, -17, 933, 775, 351,l
2025-03-10 13:11:20.912,683, 519, 484, 2, -12, -2, -7, -29, -18, 936, 795, 380,l
2025-03-10 13:11:20.962,645, 582, 550, -6, -30, -1, -7, -28, -17, 941, 820, 474,l
2025-03-10 13:11:21.027,906, 632, 520, 27, 9, 11, -6, -29, -17, 975, 851, 355,l
2025-03-10 13:11:21.082,971, 570, 349, -5, 32, 38, -8, -29, -16, 983, 852, 130,l
2025-03-10 13:11:21.142,804, 495, 674, 2, 2, 4, -8, -28, -16, 969, 836, 394,l
2025-03-10 13:11:21.202,561, 556, 772, -12, 19, -23, -8, -25, -20, 959, 841, 469,l
2025-03-10 13:11:21.258,617, 570, 576, 2, -15, 9, -3, -29, -18, 951, 835, 490,l
2025-03-10 13:11:21.663,708, 527, 460, 1, -6, 2, -6, -29, -17, 940, 805, 395,m
2025-03-10 13:11:21.712,721, 525, 477, 1, -6, 2, -4, -27, -18, 942, 806, 400,m
2025-03-10 13:11:21.777,716, 527, 481, 0, -2, -1, -8, -29, -18, 943, 810, 400,m
2025-03-10 13:11:21.833,690, 521, 507, -3, -4, -2, -7, -28, -16, 943, 815, 406,m
2025-03-10 13:11:21.892,747, 481, 449, -8, -6, -11, -7, -28, -17, 946, 823, 320,m
2025-03-10 13:11:21.947,702, 511, 601, 0, -7, -8, -5, -28, -17, 963, 856, 255,m
2025-03-10 13:11:22.007,769, 786, 441, 5, 23, 29, -5, -29, -16, 981, 869, 220,m
2025-03-10 13:11:22.062,700, 465, 423, -16, 17, 9, -8, -26, -18, 980, 867, 131,m
2025-03-10 13:11:22.125,813, 550, 340, 17, -25, -27, -9, -29, -16, 975, 881, 420,m
2025-03-10 13:11:22.186,751, 1008, 115, -1, 8, 22, -8, -29, -16, 983, 887, 514,m
2025-03-10 13:11:22.244,739, 460, 411, -10, 15, 10, -8, -28, -17, 981, 884, 380,m
2025-03-10 13:11:22.302,729, 547, 717, 17, -23, -10, -9, -29, -16, 982, 890, 590,m
2025-03-10 13:11:22.362,616, 363, 270, 1, 33, 26, -7, -30, -16, 987, 893, 615,m
2025-03-10 13:11:22.416,878, 277, 267, -29, 25, -30, -8, -29, -17, 978, 868, 621,m
2025-03-10 13:11:22.474,671, 549, 645, -34, 27, -44, -5, -28, -19, 960, 825, 514,m
2025-03-10 13:11:22.776,718, 508, 473, 3, -10, 2, -7, -28, -18, 946, 798, 239,n
2025-03-10 13:11:22.832,747, 497, 467, 2, -10, 0, -6, -25, -17, 946, 798, 250,n
2025-03-10 13:11:22.891,727, 531, 468, -2, 1, -4, -9, -28, -17, 947, 805, 270,n
2025-03-10 13:11:22.942,730, 526, 475, -2, -5, -11, -8, -29, -16, 949, 823, 391,n
2025-03-10 13:11:23.005,709, 478, 621, 2, -10, -7, -8, -28, -15, 969, 856, 265,n
2025-03-10 13:11:23.062,650, 389, 479, 0, 17, 21, -8, -27, -16, 981, 868, 135,n
2025-03-10 13:11:23.118,742, 537, 430, -8, 16, 7, -9, -29, -15, 978, 872, 138,n
2025-03-10 13:11:23.174,680, 683, 610, 20, -28, -16, -10, -32, -14, 979, 888, 560,n
2025-03-10 13:11:23.242,609, 563, 225, -12, 24, 34, -7, -29, -14, 986, 892, 538,n
2025-03-10 13:11:23.292,782, 424, 595, -14, 16, 4, -11, -26, -17, 978, 867, 565,n
2025-03-10 13:11:23.357,669, 480, 686, -23, 20, -36, -7, -27, -18, 959, 826, 511,n
2025-03-10 13:11:23.622,728, 510, 500, 3, -6, 6, -7, -29, -18, 956, 818, 395,o
2025-03-10 13:11:23.689,735, 507, 478, 3, -5, 6, -7, -25, -16, 957, 820, 405,o
2025-03-10 13:11:23.742,715, 502, 510, 3, 2, 3, -9, -30, -12, 959, 828, 413,o
2025-03-10 13:11:23.793,735, 500, 458, 0, 1, 0, -6, -29, -17, 960, 843, 465,o
2025-03-10 13:11:23.857,706, 520, 497, -2, 1, 1, -8, -28, -18, 967, 868, 481,o
2025-03-10 13:11:23.915,525, 603, 455, -24, -9, -14, -7, -29, -16, 971, 888, 388,o
2025-03-10 13:11:23.972,718, 534, 188, 17, 9, 0, -6, -27, -17, 979, 880, 129,o
2025-03-10 13:11:24.028,726, 740, 366, 1, 26, 34, -9, -28, -14, 984, 892, 330,o
2025-03-10 13:11:24.090,800, 185, 695, 19, -29, -27, -9, -28, -17, 975, 896, 592,o
2025-03-10 13:11:24.144,902, 461, 231, 4, 0, -38, -9, -29, -15, 931, 815, 689,o
2025-03-10 13:11:24.206,612, 575, 595, -29, 36, -21, -5, -29, -18, 899, 731, 550,o
2025-03-10 13:11:24.496,710, 504, 525, -6, -2, -1, -10, -26, -19, 943, 769, 464,p
2025-03-10 13:11:24.552,709, 521, 532, -7, -4, 0, -7, -28, -17, 944, 767, 466,p
2025-03-10 13:11:24.612,663, 519, 546, -10, -16, 1, -8, -27, -18, 947, 785, 496,p
2025-03-10 13:11:24.672,763, 513, 543, -12, -5, -7, -8, -28, -17, 959, 843, 393,p
2025-03-10 13:11:24.727,755, 795, 533, -18, 29, 54, -9, -27, -16, 981, 864, 139,p
2025-03-10 13:11:24.789,788, 362, 316, -13, 25, 25, -9, -27, -18, 981, 865, 143,p
2025-03-10 13:11:24.852,1018, 343, 573, 48, -46, -73, -7, -27, -17, 968, 873, 431,p
2025-03-10 13:11:24.907,584, 621, 657, 23, -23, -3, -7, -30, -17, 984, 905, 650,p
2025-03-10 13:11:24.972,785, 664, 418, -31, 33, 33, -9, -28, -16, 985, 900, 456,p
2025-03-10 13:11:25.024,893, 329, 538, -3, 7, -7, -8, -28, -17, 973, 851, 313,p
2025-03-10 13:11:25.090,570, 532, 740, -23, 26, -30, -7, -26, -19, 969, 846, 314,p
2025-03-10 13:11:25.364,730, 520, 489, 1, -9, 8, -9, -28, -15, 963, 861, 537,q
2025-03-10 13:11:25.418,726, 509, 487, 1, -9, 9, -9, -28, -15, 963, 864, 551,q
2025-03-10 13:11:25.474,796, 463, 387, -3, 0, -3, -9, -28, -16, 970, 875, 582,q
2025-03-10 13:11:25.532,915, 487, 489, -12, -8, -14, -9, -28, -14, 974, 886, 485,q
2025-03-10 13:11:25.592,708, 543, 393, 13, 2, -6, -8, -27, -15, 980, 879, 155,q
2025-03-10 13:11:25.642,779, 723, 323, -7, 26, 27, -7, -28, -15, 986, 891, 269,q
2025-03-10 13:11:25.712,721, 264, 628, 8, -18, -17, -7, -28, -15, 981, 897, 493,q
2025-03-10 13:11:25.763,710, 432, 650, 20, -15, -9, -7, -29, -17, 979, 890, 505,q
2025-03-10 13:11:25.823,820, 570, 219, -8, 31, 42, -8, -28, -16, 984, 873, 69,q
2025-03-10 13:11:25.882,805, 354, 696, 10, -6, 6, -9, -28, -16, 982, 894, 249,q
2025-03-10 13:11:25.943,957, 339, 227, 0, 6, -23, -9, -28, -17, 972, 887, 570,q
2025-03-10 13:11:26.292,685, 504, 517, 5, -11, 1, -8, -26, -19, 936, 825, 513,r
2025-03-10 13:11:26.343,710, 505, 521, 7, -10, 3, -8, -26, -19, 936, 827, 520,r
2025-03-10 13:11:26.406,709, 537, 495, 5, -10, 4, -7, -29, -15, 941, 832, 543,r
2025-03-10 13:11:26.462,660, 514, 498, 8, -15, 2, -8, -27, -16, 940, 834, 549,r
2025-03-10 13:11:26.523,809, 526, 543, -9, -8, -19, -8, -28, -16, 949, 856, 504,r
2025-03-10 13:11:26.577,723, 740, 270, 17, 5, 4, -7, -29, -16, 973, 863, 438,r
2025-03-10 13:11:26.639,710, 497, 270, -14, 14, 9, -8, -28, -16, 977, 869, 277,r
2025-03-10 13:11:26.692,639, 436, 586, 21, -26, -27, -7, -28, -16, 974, 888, 506,r
2025-03-10 13:11:26.762,863, 391, 310, -14, 31, 15, -8, -28, -17, 969, 879, 633,r
2025-03-10 13:11:26.819,552, 494, 610, -20, 31, -18, -7, -28, -19, 963, 851, 514,r
2025-03-10 13:11:26.874,625, 515, 625, 4, -26, 4, -6, -27, -19, 954, 823, 474,r
2025-03-10 13:11:26.932,788, 491, 404, -7, -3, -8, -6, -28, -17, 946, 801, 410,r
2025-03-10 13:11:27.272,719, 487, 529, 2, -6, 2, -6, -27, -18, 946, 781, 295,s
2025-03-10 13:11:27.339,720, 495, 519, 1, -6, 2, -8, -26, -18, 944, 785, 301,s
2025-03-10 13:11:27.392,714, 497, 516, 3, -2, 3, -7, -27, -18, 947, 795, 341,s
2025-03-10 13:11:27.447,711, 503, 503, 2, -4, 1, -7, -28, -19, 950, 812, 392,s
2025-03-10 13:11:27.506,672, 493, 555, 6, -11, 6, -8, -28, -18, 951, 832, 473,s
2025-03-10 13:11:27.562,659, 468, 471, -6, -2, -12, -9, -28, -15, 956, 859, 345,s
2025-03-10 13:11:27.623,672, 382, 580, 16, -15, -12, -7, -27, -17, 964, 859, 50,s
2025-03-10 13:11:27.682,866, 949, 270, 10, 21, 28, -7, -29, -16, 978, 873, 270,s
2025-03-10 13:11:27.741,653, 556, 458, -27, 13, 22, -8, -28, -16, 977, 861, 99,s
2025-03-10 13:11:27.802,1070, 299, 226, -6, 22, -40, -8, -28, -18, 950, 797, 61,s
2025-03-10 13:11:27.857,504, 519, 800, -9, 19, -28, -7, -28, -20, 936, 793, 46,s
2025-03-10 13:11:28.152,705, 514, 513, -5, -14, -7, -6, -29, -18, 927, 811, 265,t
2025-03-10 13:11:28.213,704, 511, 495, -4, -12, -6, -6, -28, -17, 928, 816, 304,t
2025-03-10 13:11:28.274,615, 535, 570, 15, -32, -4, -6, -30, -17, 936, 833, 453,t
2025-03-10 13:11:28.332,715, 553, 481, -7, -3, -9, -7, -27, -19, 948, 863, 416,t
2025-03-10 13:11:28.392,682, 485, 571, 2, -13, -8, -6, -29, -15, 961, 871, 376,t
2025-03-10 13:11:28.442,819, 918, 130, 77, 43, 47, -8, -28, -13, 978, 864, 34,t
2025-03-10 13:11:28.507,821, 425, 102, 20, 38, 20, -7, -28, -12, 978, 879, 455,t
2025-03-10 13:11:28.565,647, 579, 294, -16, 4, -52, -8, -28, -16, 965, 861, 644,t
2025-03-10 13:11:28.623,864, 737, 531, -31, -24, -10, -7, -29, -14, 971, 869, 414,t
2025-03-10 13:11:28.682,331, 896, 222, -9, 13, 37, -7, -30, -16, 985, 895, 588,t
2025-03-10 13:11:28.744,775, 432, 442, -15, 16, 2, -8, -27, -15, 976, 875, 664,t
2025-03-10 13:11:29.062,710, 540, 463, -4, -2, 1, -7, -29, -15, 954, 818, 516,u
2025-03-10 13:11:29.121,707, 551, 471, -5, -2, 2, -9, -27, -15, 954, 820, 516,u
2025-03-10 13:11:29.174,691, 536, 487, 3, -14, 3, -6, -29, -15, 952, 810, 482,u
2025-03-10 13:11:29.239,729, 444, 536, -19, -7, -12, -7, -29, -16, 959, 819, 65,u
2025-03-10 13:11:29.292,882, 349, 572, 53, -3, -4, -8, -27, -17, 976, 836, 47,u
2025-03-10 13:11:29.354,544, 462, 259, -20, 20, 26, -8, -28, -16, 981, 870, 453,u
2025-03-10 13:11:29.406,573, 228, 640, 9, -24, -24, -5, -28, -16, 971, 878, 588,u
2025-03-10 13:11:29.472,683, 481, 600, 11, -20, -15, -5, -30, -14, 978, 891, 613,u
2025-03-10 13:11:29.532,630, 614, 282, -16, 30, 27, -8, -28, -14, 986, 886, 545,u
2025-03-10 13:11:29.589,849, 474, 153, -35, 47, -46, -9, -28, -16, 968, 849, 561,u
2025-03-10 13:11:29.885,714, 519, 479, -3, 0, -1, -7, -29, -15, 945, 804, 253,v
2025-03-10 13:11:29.942,713, 504, 496, -3, -1, -2, -4, -30, -15, 946, 804, 249,v
2025-03-10 13:11:29.992,706, 517, 498, -2, -1, -2, -5, -31, -14, 947, 804, 175,v
2025-03-10 13:11:30.056,707, 514, 507, -5, 0, -1, -8, -29, -15, 948, 800, 131,v
2025-03-10 13:11:30.115,703, 418, 351, -7, 1, -12, -8, -29, -18, 948, 816, 128,v
2025-03-10 13:11:30.173,756, 481, 548, -6, -9, -14, -6, -27, -18, 967, 846, 137,v
2025-03-10 13:11:30.232,1043, 714, 369, 3, 35, 66, -7, -28, -15, 984, 872, 125,v
2025-03-10 13:11:30.292,816, 876, 429, -39, 20, 29, -8, -28, -15, 985, 892, 297,v
2025-03-10 13:11:30.353,824, 387, 653, 31, -23, -18, -7, -28, -16, 977, 899, 597,v
2025-03-10 13:11:30.415,884, 290, 173, -23, 55, -20, -11, -24, -18, 962, 859, 627,v
2025-03-10 13:11:30.472,510, 561, 709, -23, 18, -8, -7, -27, -19, 956, 778, 404,v
2025-03-10 13:11:30.755,705, 507, 503, 7, 0, 4, -7, -29, -16, 926, 741, 146,w
2025-03-10 13:11:30.813,720, 506, 506, 10, -1, 4, -8, -30, -17, 927, 743, 146,w
2025-03-10 13:11:30.870,715, 538, 482, 2, 2, 4, -4, -28, -18, 929, 748, 185,w
2025-03-10 13:11:30.923,661, 500, 512, 9, -12, 0, -6, -28, -16, 931, 776, 225,w
2025-03-10 13:11:30.988,691, 525, 392, -12, -2, -17, -8, -28, -16, 942, 824, 143,w
2025-03-10 13:11:31.042,715, 471, 571, 0, -13, -10, -7, -29, -16, 966, 864, 142,w
2025-03-10 13:11:31.102,595, 75, 674, -4, 15, 24, -9, -29, -15, 985, 884, 296,w
2025-03-10 13:11:31.158,720, 464, 578, -23, 7, 15, -8, -29, -16, 983, 895, 406,w
2025-03-10 13:11:31.222,679, 461, 546, 8, -14, -12, -9, -29, -14, 980, 898, 534,w
2025-03-10 13:11:31.273,766, 614, 297, 6, 15, 34, -8, -28, -16, 984, 897, 495,w
2025-03-10 13:11:31.337,779, 345, 453, -3, -19, -8, -7, -28, -16, 983, 904, 518,w
2025-03-10 13:11:31.392,913, 372, 139, -23, 48, -26, -8, -28, -16, 969, 880, 623,w
2025-03-10 13:11:31.459,583, 504, 634, -11, 34, -22, -7, -28, -17, 964, 850, 499,w
2025-03-10 13:11:31.713,723, 496, 501, -6, -3, 2, -9, -30, -17, 957, 810, 359,x
2025-03-10 13:11:31.770,724, 483, 503, -4, -4, 2, -7, -27, -17, 957, 810, 358,x
2025-03-10 13:11:31.826,755, 520, 455, -6, 2, 3, -6, -27, -18, 950, 773, 308,x
2025-03-10 13:11:31.882,706, 484, 493, -5, 0, -1, -8, -28, -18, 952, 775, 301,x
2025-03-10 13:11:31.942,713, 492, 522, 1, -2, 4, -6, -28, -17, 953, 809, 377,x
2025-03-10 13:11:31.995,731, 501, 486, 3, -8, 2, -9, -28, -18, 957, 841, 420,x
2025-03-10 13:11:32.053,810, 429, 416, -3, -5, -5, -9, -27, -17, 962, 865, 486,x
2025-03-10 13:11:32.114,736, 515, 473, -2, -2, -5, -8, -28, -18, 965, 881, 451,x
2025-03-10 13:11:32.172,725, 504, 508, -6, -1, -3, -8, -27, -17, 968, 889, 397,x
2025-03-10 13:11:32.225,120, 525, 553, 14, 7, -10, -9, -27, -17, 976, 888, 79,x
2025-03-10 13:11:32.287,883, 583, -30, -45, 36, 15, -7, -26, -15, 971, 834, 76,x
2025-03-10 13:11:32.342,585, 183, 726, 28, -47, -69, -8, -26, -18, 950, 809, 93,x
2025-03-10 13:11:32.405,848, 375, 603, 49, -23, -10, -6, -29, -17, 972, 869, 72,x
2025-03-10 13:11:32.462,698, 333, 299, 15, 21, 33, -6, -30, -14, 984, 899, 392,x
2025-03-10 13:11:32.522,728, 220, 573, -11, -15, -29, -8, -27, -17, 971, 873, 487,x
2025-03-10 13:11:32.822,674, 514, 548, -7, 3, -3, -7, -27, -16, 954, 822, 93,y
2025-03-10 13:11:32.876,674, 508, 559, -5, 1, -2, -7, -26, -17, 953, 819, 81,y
2025-03-10 13:11:32.938,725, 527, 464, -4, -1, -1, -8, -27, -16, 952, 815, 122,y
2025-03-10 13:11:32.992,693, 494, 504, -2, -1, -1, -5, -25, -18, 952, 817, 153,y
2025-03-10 13:11:33.057,709, 534, 512, -1, -6, -1, -8, -28, -17, 952, 823, 136,y
2025-03-10 13:11:33.112,734, 522, 477, -14, -5, -4, -8, -28, -16, 951, 818, 52,y
2025-03-10 13:11:33.171,723, 507, 499, -8, -3, -3, -7, -28, -17, 953, 819, 56,y
2025-03-10 13:11:33.224,663, 499, 529, -6, -7, -2, -9, -27, -16, 956, 827, 56,y
2025-03-10 13:11:33.286,813, 491, 543, 1, -7, -11, -6, -27, -17, 966, 844, 61,y
2025-03-10 13:11:33.342,823, 682, 337, 2, 26, 44, -9, -28, -15, 984, 881, 62,y
2025-03-10 13:11:33.392,563, 292, 435, -14, 14, 14, -8, -27, -16, 979, 891, 489,y
2025-03-10 13:11:33.456,693, 438, 684, 12, -6, -12, -9, -27, -16, 973, 888, 593,y
2025-03-10 13:11:33.520,469, 771, 399, -12, 22, 38, -7, -30, -16, 984, 883, 236,y
2025-03-10 13:11:33.572,755, 362, 387, -78, 32, 16, -9, -26, -19, 974, 834, 78,y
2025-03-10 13:11:33.639,892, 420, 305, -24, 20, -51, -6, -26, -19, 956, 822, 55,y
2025-03-10 13:11:33.942,710, 509, 525, 0, -1, 0, -7, -29, -17, 952, 824, 203,z
2025-03-10 13:11:33.992,718, 503, 513, 1, -1, 0, -6, -28, -16, 952, 827, 231,z
2025-03-10 13:11:34.053,706, 491, 496, 0, 1, -2, -8, -29, -17, 951, 828, 251,z
2025-03-10 13:11:34.112,702, 512, 511, -6, -3, -3, -8, -27, -16, 951, 827, 195,z
2025-03-10 13:11:34.171,654, 473, 596, -30, -18, -8, -8, -29, -18, 954, 829, 57,z
2025-03-10 13:11:34.224,919, 679, 465, 63, -10, 1, -7, -29, -17, 974, 891, 239,z
2025-03-10 13:11:34.282,597, 556, 500, 24, 2, 13, -8, -29, -15, 980, 902, 580,z
2025-03-10 13:11:34.342,848, 465, 451, -53, 28, 8, -7, -29, -13, 978, 851, 50,z
2025-03-10 13:11:34.392,880, 643, 509, 45, 8, 9, -6, -29, -15, 984, 889, 52,z
2025-03-10 13:11:34.455,669, 565, 488, 13, 2, 18, -8, -29, -15, 983, 901, 442,z
2025-03-10 13:11:34.515,538, 484, 408, -46, 36, -59, -9, -30, -15, 965, 822, 133,z
2025-03-10 13:11:34.572,741, 871, 759, 64, -19, -16, -8, -29, -16, 973, 863, 106,z
2025-03-10 13:11:34.632,808, 1127, 483, -4, 2, 40, -9, -29, -14, 985, 904, 544,z
2025-03-10 13:11:34.692,846, 332, 258, -20, 22, -25, -10, -31, -13, 967, 860, 560,z
2025-03-10 13:11:34.997,741, 502, 520, -9, 12, -25, -4, -29, -18, 848, 619, 35,0
2025-03-10 13:11:35.055,741, 518, 518, -6, 13, -26, -7, -28, -17, 849, 630, 47,0
2025-03-10 13:11:35.106,665, 540, 540, 2, 6, -30, -5, -27, -18, 841, 654, 37,0
2025-03-10 13:11:35.170,613, 574, 554, 14, -5, -31, -3, -30, -18, 850, 682, 73,0
2025-03-10 13:11:35.223,656, 618, 487, 7, 6, -37, -2, -29, -19, 818, 661, 206,0
2025-03-10 13:11:35.282,668, 601, 473, -8, 8, -58, -1, -29, -18, 817, 696, 289,0
2025-03-10 13:11:35.342,511, 681, 601, -18, 10, -45, 1, -30, -21, 857, 737, 367,0
2025-03-10 13:11:35.392,411, 669, 522, 0, -16, 19, 1, -30, -20, 888, 773, 395,0
2025-03-10 13:11:35.455,460, 641, 492, 16, -37, 63, -3, -28, -20, 887, 783, 350,0
2025-03-10 13:11:35.512,701, 542, 407, 2, 1, 62, -4, -28, -18, 889, 788, 236,0
2025-03-10 13:11:35.571,758, 594, 573, 7, -4, 21, -5, -29, -17, 892, 785, 59,0
2025-03-10 13:11:35.622,665, 566, 469, -20, 8, 0, -5, -28, -18, 913, 806, 133,0
2025-03-10 13:11:35.687,626, 572, 572, 13, -21, 13, -4, -29, -18, 930, 815, 229,0
2025-03-10 13:11:35.742,722, 572, 411, 3, -6, 13, -7, -28, -17, 941, 831, 373,0
2025-03-10 13:11:35.792,664, 564, 514, -2, -1, 8, -5, -28, -17, 944, 844, 500,0
2025-03-10 13:11:35.862,666, 539, 486, 10, -17, 14, -5, -29, -17, 950, 859, 575,0
2025-03-10 13:11:35.920,676, 529, 455, -7, -34, -1, -8, -28, -16, 954, 880, 643,0
2025-03-10 13:11:35.972,421, 537, 617, -15, -19, -25, -7, -28, -15, 961, 896, 565,0
2025-03-10 13:11:36.042,1065, 841, -171, 34, 66, 67, -7, -29, -15, 980, 890, 460,0
2025-03-10 13:11:36.092,638, 343, 554, -61, 10, 26, -7, -30, -14, 980, 910, 533,0
2025-03-10 13:11:36.155,717, 509, 326, 29, -22, -33, -7, -29, -16, 956, 886, 701,0
2025-03-10 13:11:36.222,770, 582, 304, -32, 84, -69, -7, -31, -17, 887, 823, 619,0
2025-03-10 13:11:36.282,599, 666, 602, -45, 69, -58, -2, -30, -19, 767, 696, 443,0
2025-03-10 13:11:36.582,320, 552, 738, 26, -30, 58, 4, -27, -29, 866, 749, 453,1
2025-03-10 13:11:36.642,355, 538, 749, 34, -44, 60, 3, -27, -28, 861, 747, 378,1
2025-03-10 13:11:36.704,560, 552, 317, 52, -89, 50, 0, -30, -22, 861, 761, 210,1
2025-03-10 13:11:36.763,621, 565, 508, 14, -11, 32, -1, -27, -19, 835, 740, 210,1
2025-03-10 13:11:36.822,788, 591, 776, 32, -6, 34, -2, -28, -18, 823, 710, 97,1
2025-03-10 13:11:36.882,597, 461, 359, -17, 25, 17, -4, -30, -17, 829, 711, 68,1
2025-03-10 13:11:36.937,657, 651, 483, -7, 3, -5, -3, -28, -18, 824, 723, 233,1
2025-03-10 13:11:36.992,718, 550, 496, -4, -9, 14, -5, -28, -18, 821, 724, 153,1
2025-03-10 13:11:37.054,763, 517, 480, -13, 5, -8, -4, -30, -19, 800, 704, 53,1
2025-03-10 13:11:37.114,608, 579, 762, -11, -3, -34, -6, -27, -22, 791, 707, 27,1
2025-03-10 13:11:37.172,563, 625, 548, -15, -30, -38, -5, -28, -18, 850, 754, 65,1
2025-03-10 13:11:37.222,442, 465, 388, 3, -67, 14, -4, -30, -17, 895, 794, 78,1
2025-03-10 13:11:37.292,853, 585, 665, 27, -7, 32, -7, -29, -16, 919, 817, 196,1
2025-03-10 13:11:37.342,417, 470, 401, -17, 16, -9, -7, -27, -17, 931, 831, 288,1
2025-03-10 13:11:37.405,588, 500, 459, 26, -63, -14, -5, -29, -16, 947, 852, 329,1
2025-03-10 13:11:37.464,795, 704, 363, 0, 12, 15, -6, -27, -17, 966, 894, 553,1
2025-03-10 13:11:37.522,458, 674, 552, 46, 17, 27, -7, -29, -15, 976, 896, 626,1
2025-03-10 13:11:37.582,625, 602, 162, 5, 47, 34, -6, -30, -15, 971, 875, 509,1
2025-03-10 13:11:37.637,445, 561, 715, -11, 1, -29, -7, -29, -13, 957, 815, 367,1
2025-03-10 13:11:37.692,866, 593, 423, 37, -19, -7, -6, -29, -15, 975, 888, 256,1
2025-03-10 13:11:37.754,656, 479, 392, 3, 22, 31, -6, -26, -16, 979, 901, 590,1
2025-03-10 13:11:37.820,643, 599, 312, -56, 73, -56, -6, -29, -15, 959, 835, 552,1
2025-03-10 13:11:38.134,708, 575, 435, -2, -14, 3, -7, -27, -15, 924, 814, 125,2
2025-03-10 13:11:38.192,716, 579, 435, -3, -13, 2, -6, -29, -13, 924, 814, 126,2
2025-03-10 13:11:38.254,705, 574, 474, -1, -1, -2, -6, -29, -15, 927, 826, 244,2
2025-03-10 13:11:38.312,675, 579, 471, -5, 0, -4, -6, -29, -14, 929, 832, 279,2
2025-03-10 13:11:38.368,658, 595, 464, -8, -5, -6, -6, -29, -16, 932, 837, 263,2
2025-03-10 13:11:38.422,588, 572, 599, 2, -38, 4, -6, -28, -16, 931, 841, 246,2
2025-03-10 13:11:38.482,745, 556, 386, -1, -4, -8, -5, -30, -13, 948, 854, 31,2
2025-03-10 13:11:38.542,694, 589, 436, 20, -10, -5, -5, -30, -15, 960, 881, 139,2
2025-03-10 13:11:38.603,722, 693, 382, 42, -6, 26, -5, -29, -13, 972, 903, 544,2
2025-03-10 13:11:38.655,811, 791, 392, 18, 34, 31, -7, -31, -11, 972, 886, 521,2
2025-03-10 13:11:38.713,857, 637, 172, -40, 8, -4, -7, -30, -14, 969, 846, 69,2
2025-03-10 13:11:38.772,563, 405, 359, 12, -6, 25, -7, -30, -12, 984, 907, 303,2
2025-03-10 13:11:38.832,678, 546, 437, 8, 16, 23, -7, -30, -12, 976, 896, 609,2
2025-03-10 13:11:38.892,578, 530, 523, -58, 63, -53, -7, -28, -15, 957, 785, 489,2
2025-03-10 13:11:39.157,688, 590, 460, -12, 0, -1, -6, -29, -13, 934, 784, 264,3
2025-03-10 13:11:39.212,682, 582, 461, -12, -1, 0, -9, -26, -15, 936, 790, 251,3
2025-03-10 13:11:39.274,717, 568, 416, -5, -3, 0, -6, -29, -12, 942, 802, 187,3
2025-03-10 13:11:39.336,719, 569, 444, -5, -3, -2, -6, -29, -15, 943, 813, 198,3
2025-03-10 13:11:39.392,711, 571, 435, -7, -3, -4, -6, -29, -15, 945, 821, 181,3
2025-03-10 13:11:39.442,685, 569, 460, -13, -6, -7, -6, -28, -13, 949, 834, 70,3
2025-03-10 13:11:39.512,730, 570, 575, -27, -2, -15, -6, -30, -15, 955, 857, 88,3
2025-03-10 13:11:39.569,853, 665, 470, 57, -14, -4, -5, -28, -16, 976, 897, 304,3
2025-03-10 13:11:39.623,689, 774, 577, 17, 5, 10, -8, -28, -14, 979, 906, 583,3
2025-03-10 13:11:39.682,511, 573, 293, -9, 14, 3, -5, -30, -14, 978, 888, 242,3
2025-03-10 13:11:39.738,671, 419, 523, -7, 18, 10, -4, -28, -13, 983, 891, 167,3
2025-03-10 13:11:39.792,604, 583, 450, -13, 23, 15, -6, -29, -15, 980, 864, 62,3
2025-03-10 13:11:39.857,1035, 308, 373, 9, 23, -26, -7, -28, -18, 943, 794, 96,3
2025-03-10 13:11:40.147,670, 578, 501, 2, -5, 2, -8, -26, -18, 932, 798, 71,4
2025-03-10 13:11:40.204,687, 578, 468, 1, -5, 3, -6, -28, -17, 929, 797, 47,4
2025-03-10 13:11:40.255,707, 544, 457, -4, -1, 2, -6, -29, -16, 933, 802, 57,4
2025-03-10 13:11:40.318,698, 535, 481, -5, -5, 0, -5, -29, -15, 936, 806, 84,4
2025-03-10 13:11:40.372,700, 555, 482, -7, -6, -4, -7, -24, -19, 935, 806, 48,4
2025-03-10 13:11:40.432,707, 547, 468, -8, -4, -1, -5, -29, -16, 939, 814, 63,4
2025-03-10 13:11:40.487,708, 542, 482, -4, 0, -2, -6, -28, -16, 941, 816, 63,4
2025-03-10 13:11:40.542,705, 548, 460, -1, -9, -6, -7, -27, -16, 944, 824, 65,4
2025-03-10 13:11:40.603,645, 520, 555, -3, -30, -2, -7, -27, -15, 951, 851, 104,4
2025-03-10 13:11:40.662,690, 518, 509, 4, -14, -7, -8, -27, -17, 972, 890, 115,4
2025-03-10 13:11:40.720,403, 653, 216, 23, 33, 11, -6, -29, -13, 976, 852, 86,4
2025-03-10 13:11:40.772,801, 524, 374, 70, 21, 2, -6, -28, -12, 982, 891, 61,4
2025-03-10 13:11:40.834,536, 666, 434, -2, 11, 23, -7, -28, -15, 983, 910, 448,4
2025-03-10 13:11:40.892,697, 356, 275, -20, -6, -51, -7, -29, -16, 965, 874, 557,4
2025-03-10 13:11:40.954,718, 1098, 794, 21, -11, -5, -6, -29, -15, 975, 884, 536,4
2025-03-10 13:11:41.004,798, 506, 199, -16, 44, 43, -5, -31, -14, 984, 877, 62,4
2025-03-10 13:11:41.072,808, 288, 684, -4, -6, -25, -7, -29, -16, 966, 798, 321,4
2025-03-10 13:11:41.382,709, 558, 487, -11, -4, -1, -7, -29, -16, 941, 810, 52,5
2025-03-10 13:11:41.442,712, 536, 481, -10, -3, -1, -6, -25, -17, 943, 814, 59,5
2025-03-10 13:11:41.502,699, 541, 480, -5, -3, -2, -6, -29, -16, 944, 814, 37,5
2025-03-10 13:11:41.553,706, 532, 487, -12, -1, -3, -6, -26, -17, 946, 816, 62,5
2025-03-10 13:11:41.617,678, 562, 492, -15, -8, -6, -6, -27, -16, 949, 817, 77,5
2025-03-10 13:11:41.672,919, 717, 526, -3, 0, -12, -5, -28, -17, 961, 831, 88,5
2025-03-10 13:11:41.732,899, 652, 560, 44, -22, 4, -5, -28, -15, 976, 894, 338,5
2025-03-10 13:11:41.787,596, 629, 577, -1, -1, 7, -7, -28, -16, 975, 904, 578,5
2025-03-10 13:11:41.842,805, 553, 386, 32, 0, -18, -7, -28, -14, 972, 878, 431,5
2025-03-10 13:11:41.903,624, 834, 313, 4, 34, 30, -6, -28, -14, 982, 881, 273,5
2025-03-10 13:11:41.962,685, 717, 440, -31, 15, 20, -8, -25, -17, 982, 874, 41,5
2025-03-10 13:11:42.022,894, 394, 365, 5, -1, -28, -5, -29, -17, 941, 752, 64,5
2025-03-10 13:11:42.352,712, 552, 453, -5, -3, 5, -6, -29, -18, 934, 803, 75,6
2025-03-10 13:11:42.405,707, 531, 457, -6, -2, 4, -4, -27, -18, 934, 805, 92,6
2025-03-10 13:11:42.465,717, 527, 468, -6, -2, 1, -6, -28, -16, 938, 807, 73,6
2025-03-10 13:11:42.522,715, 545, 502, -2, -2, -1, -4, -30, -13, 940, 813, 98,6
2025-03-10 13:11:42.572,715, 557, 483, -7, -3, 0, -8, -28, -16, 941, 816, 90,6
2025-03-10 13:11:42.632,705, 525, 491, -5, -2, 1, -7, -28, -17, 946, 824, 95,6
2025-03-10 13:11:42.689,720, 522, 472, 1, -3, 1, -8, -28, -18, 948, 833, 88,6
2025-03-10 13:11:42.742,716, 537, 469, -5, -2, -1, -8, -24, -19, 950, 838, 194,6
2025-03-10 13:11:42.805,704, 507, 411, -9, -8, -3, -5, -25, -17, 957, 859, 272,6
2025-03-10 13:11:42.866,689, 481, 622, -10, -11, -13, -7, -28, -17, 967, 880, 126,6
2025-03-10 13:11:42.922,912, 772, 383, 64, 37, 20, -5, -30, -14, 977, 871, 57,6
2025-03-10 13:11:42.972,640, 702, 344, -37, 38, 44, -6, -31, -12, 981, 893, 50,6
2025-03-10 13:11:43.042,888, 336, 598, 33, -25, -33, -7, -28, -16, 963, 880, 224,6
2025-03-10 13:11:43.100,893, 491, 339, -44, 68, -40, -6, -31, -14, 940, 818, 65,6
2025-03-10 13:11:43.392,685, 542, 509, -5, -4, -1, -4, -27, -19, 915, 758, 95,7
2025-03-10 13:11:43.456,689, 534, 515, -6, -5, 0, -5, -24, -15, 916, 761, 94,7
2025-03-10 13:11:43.503,688, 551, 514, -4, -9, 2, -7, -27, -19, 920, 770, 76,7
2025-03-10 13:11:43.562,696, 556, 498, -4, -7, 4, -7, -29, -18, 925, 774, 42,7
2025-03-10 13:11:43.622,703, 519, 499, 0, -6, 1, -6, -29, -17, 932, 794, 94,7
2025-03-10 13:11:43.672,699, 527, 511, -3, -1, -1, -7, -28, -17, 934, 795, 75,7
2025-03-10 13:11:43.735,709, 533, 499, -8, -1, -1, -4, -30, -17, 935, 790, 59,7
2025-03-10 13:11:43.792,694, 518, 510, -5, -3, -2, -6, -24, -22, 937, 792, 60,7
2025-03-10 13:11:43.844,706, 515, 508, -3, -4, -3, -6, -27, -16, 938, 801, 92,7
2025-03-10 13:11:43.903,614, 512, 584, 2, -11, -5, -5, -27, -18, 940, 822, 88,7
2025-03-10 13:11:43.968,805, 514, 420, -3, -5, -10, -7, -27, -18, 953, 860, 95,7
2025-03-10 13:11:44.022,836, 601, 401, 20, 5, 31, -7, -28, -17, 971, 905, 628,7
2025-03-10 13:11:44.082,750, 599, 587, 50, 11, 12, -5, -31, -13, 981, 907, 620,7
2025-03-10 13:11:44.135,948, 936, 114, -44, 47, 37, -8, -31, -12, 979, 891, 265,7
2025-03-10 13:11:44.200,612, 327, 648, -32, -35, -62, -7, -30, -16, 962, 838, 71,7
2025-03-10 13:11:44.253,818, 594, 395, 47, -20, -3, -6, -28, -16, 980, 901, 381,7
2025-03-10 13:11:44.319,657, 498, 490, -5, 21, 29, -9, -27, -15, 979, 902, 625,7
2025-03-10 13:11:44.372,585, 550, 569, -40, 41, -41, -5, -29, -15, 960, 836, 488,7
2025-03-10 13:11:44.435,620, 575, 662, 5, -7, -3, -5, -27, -18, 942, 768, 249,7
2025-03-10 13:11:44.492,746, 552, 405, 12, -18, 15, -6, -28, -17, 942, 777, 286,7
2025-03-10 13:11:44.550,715, 527, 459, 6, 1, 4, -7, -28, -17, 946, 789, 362,7
2025-03-10 13:11:44.605,693, 564, 517, 4, 0, 4, -10, -25, -19, 944, 797, 407,7
2025-03-10 13:11:45.506,708, 521, 476, -2, -2, 2, -8, -28, -17, 956, 843, 363,8
2025-03-10 13:11:45.565,721, 524, 475, -2, -2, 2, -10, -29, -16, 957, 846, 365,8
2025-03-10 13:11:45.622,712, 533, 475, 1, -1, 3, -8, -28, -16, 959, 855, 395,8
2025-03-10 13:11:45.672,705, 528, 473, 1, -2, 4, -8, -27, -17, 960, 859, 394,8
2025-03-10 13:11:45.735,702, 448, 456, -9, -1, -5, -7, -30, -13, 962, 870, 380,8
2025-03-10 13:11:45.792,659, 520, 485, -21, -6, -14, -9, -26, -14, 966, 884, 87,8
2025-03-10 13:11:45.852,795, 494, 547, 36, -7, -10, -6, -27, -16, 974, 882, 67,8
2025-03-10 13:11:45.902,321, 257, 479, 0, 33, 37, -7, -27, -14, 983, 896, 37,8
2025-03-10 13:11:45.967,648, 263, 738, 2, -20, -25, -8, -28, -16, 978, 911, 345,8
2025-03-10 13:11:46.022,555, 497, 431, -21, -37, -28, -7, -28, -15, 979, 914, 541,8
2025-03-10 13:11:46.085,542, 755, 179, -8, 17, 17, -5, -26, -17, 987, 909, 412,8
2025-03-10 13:11:46.142,757, 397, 419, -24, 21, 14, -9, -27, -15, 976, 865, 269,8
2025-03-10 13:11:46.462,716, 529, 484, 1, -4, 5, -5, -30, -17, 951, 834, 174,9
2025-03-10 13:11:46.517,720, 518, 469, 3, -3, 5, -7, -26, -16, 951, 839, 191,9
2025-03-10 13:11:46.572,692, 541, 511, 4, -2, 5, -6, -29, -17, 953, 848, 275,9
2025-03-10 13:11:46.622,719, 519, 469, 5, -4, 5, -8, -28, -17, 956, 857, 355,9
2025-03-10 13:11:46.685,683, 504, 519, 2, -12, 5, -8, -26, -18, 957, 863, 409,9
2025-03-10 13:11:46.742,733, 516, 426, -8, -1, -6, -8, -26, -16, 961, 875, 310,9
2025-03-10 13:11:46.802,717, 553, 553, -8, -7, -8, -7, -29, -17, 964, 888, 216,9
2025-03-10 13:11:46.854,647, 379, 489, -14, -7, -12, -8, -27, -18, 970, 889, 47,9
2025-03-10 13:11:46.917,646, 751, 263, 36, 14, 7, -7, -29, -17, 976, 878, 72,9
2025-03-10 13:11:46.972,686, 641, 270, 4, 32, 30, -8, -28, -16, 979, 899, 236,9
2025-03-10 13:11:47.034,591, 328, 633, 5, -18, -24, -7, -28, -16, 968, 900, 573,9
2025-03-10 13:11:47.085,690, 741, 357, 17, 4, 4, -6, -29, -17, 975, 897, 583,9
2025-03-10 13:11:47.150,381, 541, 553, -61, 33, 35, -4, -29, -17, 979, 883, 81,9
2025-03-10 13:11:47.202,896, 263, 649, -12, 6, -25, -6, -26, -21, 950, 760, 70,9
2025-03-10 13:11:47.262,641, 507, 661, -30, 54, -55, -5, -25, -23, 825, 647, 38,9
2025-03-10 13:11:47.562,666, 524, 534, -3, -6, 4, -5, -28, -19, 846, 650, 70,+
2025-03-10 13:11:47.618,663, 514, 537, 0, -6, 4, -3, -24, -19, 848, 657, 92,+
2025-03-10 13:11:47.674,674, 510, 541, 3, -7, 3, -6, -28, -19, 855, 683, 50,+
2025-03-10 13:11:47.722,716, 525, 520, 3, -12, 6, -5, -27, -18, 888, 729, 65,+
2025-03-10 13:11:47.786,701, 526, 512, -3, -4, -3, -6, -27, -17, 921, 765, 91,+
2025-03-10 13:11:47.842,713, 521, 499, -6, 0, 0, -9, -27, -19, 931, 782, 91,+
2025-03-10 13:11:47.899,686, 528, 543, 3, -7, -4, -7, -26, -19, 930, 784, 52,+
2025-03-10 13:11:47.952,701, 520, 516, -4, -6, 3, -7, -27, -18, 936, 802, 92,+
2025-03-10 13:11:48.010,718, 517, 459, -2, 1, -2, -7, -28, -17, 940, 805, 75,+
2025-03-10 13:11:48.067,726, 523, 495, 3, -1, -4, -6, -26, -19, 939, 804, 58,+
2025-03-10 13:11:48.119,681, 520, 520, -4, 0, -3, -7, -28, -18, 939, 807, 87,+
2025-03-10 13:11:48.172,662, 529, 537, 2, -4, -2, -7, -29, -19, 940, 802, 71,+
2025-03-10 13:11:48.235,617, 508, 499, -2, -12, -7, -8, -27, -18, 938, 811, 98,+
2025-03-10 13:11:48.292,762, 512, 435, -27, 2, -6, -9, -26, -19, 951, 823, 69,+
2025-03-10 13:11:48.350,750, 528, 465, 13, -4, -9, -6, -29, -18, 964, 847, 52,+
2025-03-10 13:11:48.412,783, 395, 203, 66, -18, 15, -6, -29, -17, 981, 909, 453,+
2025-03-10 13:11:48.462,669, 623, 383, 5, 5, 21, -7, -30, -15, 982, 911, 679,+
2025-03-10 13:11:48.522,687, 417, 360, -36, 0, -49, -9, -29, -14, 968, 890, 651,+
2025-03-10 13:11:48.584,621, 835, 735, 9, -12, -11, -5, -29, -15, 976, 892, 618,+
2025-03-10 13:11:48.640,838, 1026, 97, 26, 32, 48, -6, -28, -15, 986, 899, 476,+
2025-03-10 13:11:48.703,680, 456, 478, -10, 23, 9, -8, -28, -16, 978, 877, 479,+
2025-03-10 13:11:48.752,791, 503, 321, -41, 46, -48, -5, -30, -17, 952, 815, 369,+
2025-03-10 13:11:49.045,689, 520, 497, -9, 1, -3, -9, -27, -18, 947, 814, 219,-
2025-03-10 13:11:49.102,701, 539, 502, -8, 1, -2, -7, -27, -19, 949, 815, 219,-
2025-03-10 13:11:49.166,701, 532, 475, -3, -1, 2, -4, -27, -16, 951, 820, 186,-
2025-03-10 13:11:49.219,707, 530, 489, -1, 0, 1, -7, -28, -19, 952, 829, 222,-
2025-03-10 13:11:49.272,722, 527, 473, -3, 0, 2, -7, -28, -17, 954, 837, 276,-
2025-03-10 13:11:49.334,699, 515, 501, 1, -1, 0, -7, -26, -18, 956, 846, 306,-
2025-03-10 13:11:49.387,713, 538, 484, -1, 0, 2, -7, -25, -18, 956, 848, 329,-
2025-03-10 13:11:49.442,724, 513, 483, -1, -2, 0, -6, -26, -18, 957, 854, 357,-
2025-03-10 13:11:49.503,700, 520, 491, -1, -1, -2, -7, -28, -17, 958, 853, 350,-
2025-03-10 13:11:49.562,726, 516, 467, -4, 3, -2, -6, -29, -17, 959, 858, 338,-
2025-03-10 13:11:49.617,701, 546, 491, -1, -3, -2, -7, -27, -17, 957, 850, 196,-
2025-03-10 13:11:49.672,716, 512, 479, -3, 4, -3, -5, -30, -16, 959, 848, 203,-
2025-03-10 13:11:49.724,656, 526, 502, 6, 2, -1, -7, -27, -17, 959, 832, 165,-
2025-03-10 13:11:49.792,721, 514, 526, -12, 5, -17, -7, -28, -17, 963, 837, 59,-
2025-03-10 13:11:49.849,987, 535, 578, 82, -18, -6, -7, -28, -18, 980, 897, 105,-
2025-03-10 13:11:49.902,583, 533, 496, 19, 6, 23, -8, -29, -16, 988, 916, 624,-
2025-03-10 13:11:49.964,685, 532, 400, -9, 8, 3, -8, -31, -16, 973, 896, 641,-
2025-03-10 13:11:50.017,694, 527, 554, -55, 33, -31, -6, -29, -18, 957, 828, 84,-
2025-03-10 13:11:50.308,693, 544, 494, -5, 5, -1, -7, -29, -16, 949, 826, 316,÷
2025-03-10 13:11:50.365,691, 544, 497, -4, 4, -1, -6, -26, -15, 952, 827, 317,÷
2025-03-10 13:11:50.417,679, 549, 483, 0, -1, 0, -6, -28, -15, 951, 833, 352,÷
2025-03-10 13:11:50.472,711, 537, 473, -1, -1, 1, -7, -29, -18, 949, 824, 339,÷
2025-03-10 13:11:50.533,700, 555, 487, -3, -1, -2, -5, -28, -15, 947, 830, 360,÷
2025-03-10 13:11:50.585,718, 530, 494, -3, -4, 1, -7, -28, -14, 949, 835, 351,÷
2025-03-10 13:11:50.652,711, 535, 487, -6, -1, -2, -7, -27, -18, 951, 836, 256,÷
2025-03-10 13:11:50.710,714, 530, 459, -3, 2, -1, -6, -28, -17, 952, 838, 249,÷
2025-03-10 13:11:50.762,702, 551, 492, 1, -3, -1, -6, -28, -19, 951, 840, 267,÷
2025-03-10 13:11:50.818,716, 532, 472, -5, 2, -4, -8, -27, -18, 952, 843, 266,÷
2025-03-10 13:11:50.877,636, 559, 546, 4, 1, 3, -9, -25, -19, 955, 836, 221,÷
2025-03-10 13:11:50.934,738, 540, 429, -8, -5, -5, -7, -28, -16, 955, 829, 125,÷
2025-03-10 13:11:50.992,682, 551, 541, -12, -2, -7, -7, -28, -17, 954, 837, 177,÷
2025-03-10 13:11:51.052,629, 868, 705, -1, -6, 0, -6, -27, -16, 967, 884, 381,÷
2025-03-10 13:11:51.110,652, 567, 418, -12, 0, -10, -6, -27, -18, 973, 900, 243,÷
2025-03-10 13:11:51.168,750, 710, 381, 22, -3, -5, -7, -27, -16, 980, 902, 230,÷
2025-03-10 13:11:51.222,684, 556, 482, -14, 23, 28, -8, -28, -17, 979, 902, 376,÷
2025-03-10 13:11:51.283,575, 610, 604, 4, 59, 7, -7, -28, -18, 970, 861, 352,÷
2025-03-10 13:11:51.342,645, -814, -158, 35, -6, -25, -7, -27, -17, 971, 862, 231,÷
2025-03-10 13:11:51.402,815, 686, 609, -14, -2, 13, -7, -29, -16, 978, 898, 224,÷
2025-03-10 13:11:51.462,746, 395, 416, -28, -4, -6, -7, -28, -16, 970, 871, 260,÷
2025-03-10 13:11:51.522,476, 539, 791, -9, -38, -19, -6, -28, -18, 959, 835, 70,÷
2025-03-10 13:11:51.582,965, 986, 445, 27, -16, 11, -6, -27, -17, 981, 904, 145,÷
2025-03-10 13:11:51.634,381, 300, 437, 16, 5, 13, -6, -28, -17, 985, 910, 548,÷
2025-03-10 13:11:51.700,829, 352, 306, -20, 26, -17, -8, -29, -16, 966, 866, 573,÷
2025-03-10 13:11:52.002,693, 533, 508, -2, -3, 2, -6, -28, -19, 932, 736, 50,=
2025-03-10 13:11:52.059,691, 530, 510, -3, -3, 2, -6, -28, -19, 934, 744, 64,=
2025-03-10 13:11:52.117,697, 523, 512, 1, -3, 2, -7, -27, -18, 933, 755, 64,=
2025-03-10 13:11:52.172,689, 519, 514, 1, -2, -1, -6, -28, -18, 935, 764, 71,=
2025-03-10 13:11:52.222,677, 553, 513, 0, -3, 1, -7, -28, -18, 935, 767, 36,=
2025-03-10 13:11:52.282,698, 516, 515, -1, -3, 1, -7, -28, -18, 939, 790, 73,=
2025-03-10 13:11:52.335,698, 528, 488, -1, -1, -1, -8, -26, -21, 942, 795, 69,=
2025-03-10 13:11:52.398,694, 539, 499, -5, -2, -1, -5, -29, -17, 943, 797, 37,=
2025-03-10 13:11:52.452,719, 533, 507, -4, 0, 1, -7, -27, -19, 944, 806, 45,=
2025-03-10 13:11:52.502,667, 516, 546, 4, -5, -2, -7, -27, -19, 943, 811, 64,=
2025-03-10 13:11:52.565,762, 512, 442, -3, -5, -6, -7, -28, -19, 943, 811, 98,=
2025-03-10 13:11:52.622,609, 548, 580, -7, -2, -7, -3, -27, -19, 941, 812, 64,=
2025-03-10 13:11:52.684,1752, 192, 23, -60, -9, -15, -6, -26, -18, 950, 827, 61,=
2025-03-10 13:11:52.734,695, 935, 215, 29, -16, 25, -6, -29, -12, 976, 898, 479,=
2025-03-10 13:11:52.798,710, 532, 559, 2, -2, 1, -7, -24, -18, 976, 901, 594,=
2025-03-10 13:11:52.860,760, 548, 506, -12, -2, -12, -7, -27, -16, 975, 901, 427,=
2025-03-10 13:11:52.917,719, 601, 435, 6, -1, -3, -7, -27, -15, 975, 902, 424,=
2025-03-10 13:11:52.969,706, 564, 458, -2, 1, 2, -7, -28, -16, 970, 896, 487,=
2025-03-10 13:11:53.022,732, 535, 426, 4, -7, -1, -6, -28, -16, 964, 885, 547,=
2025-03-10 13:11:53.085,707, 541, 430, -5, 21, -11, -8, -29, -16, 954, 861, 516,=
2025-03-10 13:11:53.142,592, 598, 560, 14, 7, 6, -6, -28, -14, 947, 802, 307,=
2025-03-10 13:11:53.202,834, 492, 162, -74, -7, -14, -7, -25, -17, 954, 810, 53,=
2025-03-10 13:11:53.265,615, 1119, 129, 17, -12, 40, -9, -31, -14, 984, 902, 471,=
2025-03-10 13:11:53.322,714, 207, 387, 24, 10, 10, -7, -30, -13, 985, 913, 684,=
2025-03-10 13:11:53.383,886, 361, 222, -35, 37, -27, -7, -30, -15, 965, 863, 635,=
2025-03-10 13:11:53.442,610, 563, 729, -36, 17, -27, -6, -28, -19, 940, 741, 202,=
2025-03-10 13:11:53.728,688, 563, 473, -9, -1, -3, -7, -29, -16, 934, 779, 274,≠
2025-03-10 13:11:53.784,688, 569, 481, -10, -1, -2, -7, -31, -17, 934, 780, 270,≠
2025-03-10 13:11:53.848,664, 551, 466, -9, -2, -3, -6, -29, -18, 935, 779, 184,≠
2025-03-10 13:11:53.905,696, 541, 486, -6, -2, -1, -6, -28, -17, 937, 785, 152,≠
2025-03-10 13:11:53.962,677, 542, 499, 0, -7, -2, -6, -28, -18, 937, 796, 96,≠
2025-03-10 13:11:54.020,912, 241, 222, -1, -1, -23, -5, -28, -16, 940, 821, 70,≠
2025-03-10 13:11:54.072,936, 875, 377, 67, -32, 23, -4, -30, -14, 977, 906, 535,≠
2025-03-10 13:11:54.134,637, 389, 447, 17, 7, 11, -8, -29, -14, 981, 910, 699,≠
2025-03-10 13:11:54.192,435, 679, 366, -21, 39, 0, -8, -30, -12, 968, 860, 602,≠
2025-03-10 13:11:54.252,1114, 330, 361, 7, 13, -19, -6, -29, -15, 955, 766, 71,≠
2025-03-10 13:11:54.312,1007, 689, 252, 21, -19, 44, -11, -26, -16, 980, 902, 544,≠
2025-03-10 13:11:54.372,650, 495, 387, -12, 15, 18, -9, -29, -13, 978, 900, 682,≠
2025-03-10 13:11:54.433,574, 544, 679, -42, -2, -53, -6, -30, -15, 960, 867, 649,≠
2025-03-10 13:11:54.492,706, 1235, 721, 13, -21, -3, -8, -30, -15, 979, 900, 656,≠
2025-03-10 13:11:54.550,1096, 574, 375, -18, 57, 27, -8, -30, -13, 983, 879, 82,≠
2025-03-10 13:11:54.607,877, 631, 522, -8, 28, 11, -7, -27, -14, 952, 781, 268,≠
2025-03-10 13:11:54.666,674, 533, 620, -58, 47, -48, -6, -29, -17, 934, 771, 272,≠
2025-03-10 13:11:54.982,716, 550, 454, -1, 0, 0, -3, -27, -17, 935, 759, 78,≈
2025-03-10 13:11:55.034,708, 539, 477, -2, 1, 0, -5, -26, -18, 933, 754, 54,≈
2025-03-10 13:11:55.092,670, 576, 502, 6, -3, -2, -5, -27, -18, 929, 771, 74,≈
2025-03-10 13:11:55.154,784, -56, 47, -3, -6, -21, -5, -29, -15, 940, 809, 61,≈
2025-03-10 13:11:55.211,727, 636, 322, 5, -13, -1, -7, -27, -18, 969, 885, 390,≈
2025-03-10 13:11:55.265,672, 668, 647, 18, -13, 7, -6, -30, -15, 981, 904, 645,≈
2025-03-10 13:11:55.322,628, 593, 317, 6, 23, 25, -5, -28, -17, 983, 905, 621,≈
2025-03-10 13:11:55.384,743, 314, 368, -24, 36, -34, -7, -28, -15, 975, 872, 486,≈
2025-03-10 13:11:55.442,776, 553, 570, 21, -38, 18, -9, -28, -15, 961, 818, 72,≈
2025-03-10 13:11:55.502,811, 601, 679, -11, -23, 6, -6, -30, -13, 976, 890, 442,≈
2025-03-10 13:11:55.562,749, 598, 513, 10, 3, 14, -8, -26, -16, 985, 898, 538,≈
2025-03-10 13:11:55.616,751, 464, 375, -9, 21, 16, -7, -30, -13, 982, 900, 538,≈
2025-03-10 13:11:55.672,909, 486, 273, -3, 19, -20, -7, -29, -16, 969, 884, 652,≈
2025-03-10 13:11:55.972,702, 530, 460, -3, -10, 2, -6, -28, -18, 947, 815, 207,<
2025-03-10 13:11:56.031,703, 531, 478, -1, -9, 2, -7, -27, -15, 947, 812, 203,<
2025-03-10 13:11:56.083,681, 547, 494, 1, -7, 3, -6, -28, -18, 950, 830, 299,<
2025-03-10 13:11:56.142,745, 540, 415, 3, -6, 2, -7, -27, -17, 954, 841, 418,<
2025-03-10 13:11:56.198,714, 534, 470, -6, -1, 1, -4, -26, -18, 954, 843, 469,<
2025-03-10 13:11:56.252,700, 520, 483, -2, -5, 0, -7, -26, -17, 957, 856, 543,<
2025-03-10 13:11:56.316,656, 699, 534, -1, -3, -4, -8, -27, -17, 968, 883, 620,<
2025-03-10 13:11:56.372,627, 487, 465, -4, -3, -6, -9, -27, -16, 975, 897, 502,<
2025-03-10 13:11:56.431,874, 460, 545, 2, 11, -4, -8, -28, -15, 976, 863, 62,<
2025-03-10 13:11:56.484,965, 682, 524, -18, 12, 40, -6, -28, -16, 984, 889, 76,<
2025-03-10 13:11:56.542,606, 885, 466, 2, 7, 26, -8, -29, -15, 987, 909, 381,<
2025-03-10 13:11:56.602,808, 366, 327, -14, 22, -6, -8, -30, -13, 966, 852, 456,<
2025-03-10 13:11:56.911,730, 520, 479, -7, -6, -1, -6, -27, -18, 943, 834, 389,≤
2025-03-10 13:11:56.965,707, 518, 479, -7, -5, -3, -9, -24, -13, 947, 839, 409,≤
2025-03-10 13:11:57.022,698, 543, 466, -6, -8, -2, -8, -28, -17, 951, 857, 480,≤
2025-03-10 13:11:57.083,659, 532, 493, 5, -10, 7, -7, -30, -17, 957, 872, 583,≤
2025-03-10 13:11:57.142,714, 499, 455, -2, -5, -5, -6, -27, -17, 969, 891, 563,≤
2025-03-10 13:11:57.202,703, 528, 681, -3, -2, -4, -8, -29, -16, 975, 897, 446,≤
2025-03-10 13:11:57.252,1058, 626, 418, 4, 11, -8, -7, -26, -16, 975, 868, 69,≤
2025-03-10 13:11:57.317,962, 1243, 429, 37, 16, 44, -7, -29, -16, 986, 900, 47,≤
2025-03-10 13:11:57.372,665, 475, 533, 25, 6, 8, -6, -28, -17, 987, 909, 450,≤
2025-03-10 13:11:57.432,609, 481, 518, 13, 35, -9, -8, -28, -16, 968, 846, 390,≤
2025-03-10 13:11:57.484,839, 411, 590, 19, -3, -15, -7, -28, -17, 970, 817, 54,≤
2025-03-10 13:11:57.542,650, 806, 411, 0, -6, 32, -8, -30, -15, 986, 908, 416,≤
2025-03-10 13:11:57.602,678, 518, 467, 3, 8, 7, -8, -29, -15, 980, 895, 530,≤
2025-03-10 13:11:57.652,856, 473, 273, -49, 61, -53, -6, -28, -15, 939, 686, 301,≤
2025-03-10 13:11:57.722,514, 569, 736, -15, -11, -20, -4, -28, -20, 912, 608, 61,≤
2025-03-10 13:11:58.042,643, 513, 536, 1, -14, -4, -6, -27, -18, 928, 783, 38,>
2025-03-10 13:11:58.108,683, 531, 522, 2, -15, -4, -7, -25, -17, 926, 785, 50,>
2025-03-10 13:11:58.166,692, 603, 499, -18, -2, -15, -7, -28, -17, 932, 812, 43,>
2025-03-10 13:11:58.222,662, 691, 310, 52, -17, 14, -7, -28, -18, 971, 889, 434,>
2025-03-10 13:11:58.283,657, 519, 639, 15, -3, 5, -6, -30, -15, 978, 903, 609,>
2025-03-10 13:11:58.337,856, 602, 110, -6, 23, 10, -9, -28, -14, 978, 887, 63,>
2025-03-10 13:11:58.398,835, 514, 391, -8, 33, 1, -6, -30, -15, 961, 820, 60,>
2025-03-10 13:11:58.452,731, 555, 183, -33, 71, -38, -7, -27, -17, 936, 767, 32,>
2025-03-10 13:11:58.517,475, 529, 739, -12, 14, -12, -4, -27, -22, 932, 740, 64,>
2025-03-10 13:11:58.882,698, 543, 487, -8, -7, 0, -5, -26, -20, 910, 761, 42,≥
2025-03-10 13:11:58.942,687, 535, 506, -7, -7, 0, -4, -26, -17, 911, 765, 42,≥
2025-03-10 13:11:58.999,682, 557, 482, -2, -10, -1, -6, -27, -18, 923, 787, 40,≥
2025-03-10 13:11:59.052,658, 547, 552, 12, -34, 0, -5, -27, -19, 931, 810, 53,≥
2025-03-10 13:11:59.116,935, 345, 389, 73, -10, -10, -7, -28, -17, 967, 874, 76,≥
2025-03-10 13:11:59.172,562, 330, 566, 41, 2, 4, -5, -29, -15, 980, 901, 531,≥
2025-03-10 13:11:59.222,936, 612, 481, -1, 11, 4, -8, -28, -15, 979, 893, 300,≥
2025-03-10 13:11:59.283,869, 499, 466, 1, 30, 9, -7, -28, -17, 966, 832, 44,≥
2025-03-10 13:11:59.342,402, 613, 726, 15, 35, -13, -4, -28, -18, 952, 798, 32,≥
2025-03-10 13:11:59.399,901, 938, 591, 26, -12, -5, -6, -30, -15, 967, 857, 43,≥
2025-03-10 13:11:59.462,277, 1203, 341, -3, -4, 42, -6, -28, -13, 985, 913, 505,≥
2025-03-10 13:11:59.517,663, 605, 426, -6, 13, 14, -8, -28, -14, 977, 896, 621,≥
2025-03-10 13:11:59.581,665, 518, 490, -69, 74, -49, -6, -29, -17, 932, 685, 275,≥
2025-03-10 13:11:59.882,690, 517, 500, -8, -3, -1, -6, -28, -17, 919, 745, 116,±
2025-03-10 13:11:59.942,697, 521, 502, -6, -3, -1, -7, -27, -17, 919, 741, 89,±
2025-03-10 13:11:59.992,688, 562, 504, -6, -1, 0, -6, -28, -18, 924, 749, 42,±
2025-03-10 13:12:00.052,695, 534, 496, -6, -1, 0, -6, -27, -19, 932, 763, 69,±
2025-03-10 13:12:00.109,695, 549, 488, -7, -3, 0, -5, -27, -19, 932, 763, 31,±
2025-03-10 13:12:00.165,699, 507, 491, -10, -3, 0, -7, -28, -17, 937, 776, 43,±
2025-03-10 13:12:00.218,696, 524, 508, -4, -1, 0, -4, -27, -19, 940, 789, 46,±
2025-03-10 13:12:00.272,690, 524, 502, -4, -3, -2, -7, -27, -17, 943, 803, 67,±
2025-03-10 13:12:00.333,704, 516, 498, -5, -3, -1, -6, -26, -16, 945, 813, 63,±
2025-03-10 13:12:00.392,687, 522, 520, 0, -3, 0, -6, -29, -17, 945, 815, 43,±
2025-03-10 13:12:00.450,720, 521, 494, -5, -4, -1, -6, -27, -19, 948, 822, 69,±
2025-03-10 13:12:00.504,702, 534, 488, -3, -2, -1, -6, -27, -18, 949, 828, 68,±
2025-03-10 13:12:00.552,678, 507, 524, 4, -1, 0, -6, -29, -18, 949, 830, 69,±
2025-03-10 13:12:00.617,730, 534, 463, 5, -10, -2, -7, -27, -17, 947, 819, 41,±
2025-03-10 13:12:00.672,727, 530, 459, -7, 2, -4, -7, -27, -16, 947, 822, 67,±
2025-03-10 13:12:00.725,687, 526, 500, 0, -2, 0, -7, -28, -19, 949, 823, 64,±
2025-03-10 13:12:00.785,729, 523, 451, -5, 1, -4, -7, -27, -18, 947, 810, 35,±
2025-03-10 13:12:00.842,683, 537, 507, -3, -1, -3, -7, -27, -17, 946, 807, 48,±
2025-03-10 13:12:00.896,757, 461, 438, -1, 3, -8, -7, -27, -18, 944, 807, 62,±
2025-03-10 13:12:00.952,858, 220, 568, 42, -17, -17, -7, -27, -15, 967, 858, 47,±
2025-03-10 13:12:01.015,576, 632, 457, 38, 5, 30, -8, -29, -15, 981, 911, 574,±
2025-03-10 13:12:01.072,695, 233, 564, -13, -7, -31, -8, -29, -15, 967, 890, 648,±
2025-03-10 13:12:01.133,697, 110, 362, -35, -35, -21, -6, -28, -16, 969, 878, 375,±
2025-03-10 13:12:01.192,1005, 531, 371, 23, 25, 29, -6, -29, -15, 982, 889, 322,±
2025-03-10 13:12:01.252,654, 479, 602, 0, 17, 4, -7, -28, -15, 967, 825, 330,±
2025-03-10 13:12:01.310,607, 627, 805, 24, -30, 20, -6, -28, -15, 954, 778, 56,±
2025-03-10 13:12:01.367,776, 628, 368, -31, -9, 52, -7, -30, -13, 982, 899, 360,±
2025-03-10 13:12:01.422,626, 578, 466, 0, 14, 19, -7, -29, -14, 978, 894, 592,±
2025-03-10 13:12:01.482,639, 521, 487, -73, 77, -53, -7, -27, -16, 950, 698, 201,±
2025-03-10 13:12:01.774,721, 544, 467, -10, 0, 0, -6, -28, -16, 932, 770, 61,∓
2025-03-10 13:12:01.832,708, 527, 489, -10, 0, -1, -8, -25, -18, 932, 768, 42,∓
2025-03-10 13:12:01.882,682, 531, 495, -2, -2, 0, -7, -28, -17, 937, 787, 42,∓
2025-03-10 13:12:01.942,691, 519, 498, -7, 2, -1, -6, -27, -19, 938, 781, 42,∓
2025-03-10 13:12:02.002,670, 518, 536, -2, -2, -1, -5, -28, -18, 940, 781, 66,∓
2025-03-10 13:12:02.058,713, 516, 488, -4, -4, 0, -6, -27, -19, 939, 787, 64,∓
2025-03-10 13:12:02.116,691, 523, 502, -4, -1, -2, -6, -27, -18, 942, 799, 38,∓
2025-03-10 13:12:02.172,697, 526, 497, -5, -4, -3, -6, -28, -19, 944, 813, 53,∓
2025-03-10 13:12:02.231,680, 532, 499, -9, -6, -5, -7, -26, -18, 945, 820, 81,∓
2025-03-10 13:12:02.284,687, 546, 512, -15, -4, -9, -6, -28, -19, 943, 817, 43,∓
2025-03-10 13:12:02.346,515, 507, 684, 5, -22, 4, -7, -27, -18, 936, 798, 67,∓
2025-03-10 13:12:02.402,930, 401, 549, -6, -12, -7, -4, -28, -19, 961, 841, 27,∓
2025-03-10 13:12:02.458,469, 1149, 240, -7, -4, 40, -7, -26, -18, 984, 912, 524,∓
2025-03-10 13:12:02.515,627, 547, 478, 30, 7, 3, -8, -29, -14, 975, 891, 639,∓
2025-03-10 13:12:02.579,616, 579, 492, -14, 26, -26, -10, -29, -14, 950, 768, 405,∓
2025-03-10 13:12:02.632,863, 459, 516, 31, -4, -6, -6, -29, -16, 967, 851, 146,∓
2025-03-10 13:12:02.692,757, 495, 403, 25, -2, 17, -7, -28, -16, 981, 903, 537,∓
2025-03-10 13:12:02.749,640, 607, 497, 1, 8, 7, -8, -28, -16, 966, 874, 619,∓
2025-03-10 13:12:02.806,658, 588, 808, -2, -22, 1, -7, -30, -16, 954, 839, 518,∓
2025-03-10 13:12:02.865,490, 120, 392, 13, 9, 16, -8, -29, -15, 980, 876, 251,∓
2025-03-10 13:12:02.922,706, 585, 407, -14, 28, 16, -7, -28, -15, 971, 796, 227,∓
2025-03-10 13:12:02.982,765, 476, 335, -27, 65, -53, -5, -28, -18, 885, 658, 229,∓
2025-03-10 13:12:03.308,691, 540, 519, -2, -8, 6, -4, -27, -19, 897, 650, 44,∞
2025-03-10 13:12:03.364,687, 517, 525, 0, -7, 6, -5, -25, -20, 898, 652, 42,∞
2025-03-10 13:12:03.420,684, 507, 520, -1, -3, 2, -4, -26, -21, 899, 650, 26,∞
2025-03-10 13:12:03.472,689, 495, 529, -1, 0, -2, -5, -25, -20, 891, 655, 57,∞
2025-03-10 13:12:03.535,669, 556, 528, -6, 1, -2, -5, -27, -20, 881, 630, 59,∞
2025-03-10 13:12:03.582,678, 495, 545, 0, -1, 2, -4, -28, -17, 883, 635, 42,∞
2025-03-10 13:12:03.634,673, 525, 546, 5, -1, 0, -5, -28, -20, 889, 647, 35,∞
2025-03-10 13:12:03.698,681, 522, 553, 1, -2, 0, -6, -27, -19, 892, 665, 74,∞
2025-03-10 13:12:03.752,670, 533, 548, -2, -5, 1, -6, -27, -18, 896, 679, 26,∞
2025-03-10 13:12:03.808,673, 499, 538, 3, -7, 1, -6, -28, -20, 902, 700, 61,∞
2025-03-10 13:12:03.862,766, 521, 458, 6, -9, 0, -6, -29, -19, 906, 719, 71,∞
2025-03-10 13:12:03.915,699, 532, 514, -7, 7, -7, -7, -27, -19, 910, 725, 21,∞
2025-03-10 13:12:03.972,668, 534, 543, 11, -6, 1, -6, -28, -19, 917, 740, 71,∞
2025-03-10 13:12:04.032,715, 520, 489, 6, -5, -3, -6, -28, -18, 915, 750, 57,∞
2025-03-10 13:12:04.082,662, 534, 469, 2, 5, -1, -7, -28, -18, 929, 812, 279,∞
2025-03-10 13:12:04.148,650, 601, 528, -3, -19, 1, -8, -24, -17, 937, 828, 344,∞
2025-03-10 13:12:04.202,672, 470, 520, 14, -21, 11, -6, -28, -18, 943, 855, 465,∞
2025-03-10 13:12:04.262,659, 440, 651, 14, -7, -6, -8, -28, -17, 967, 874, 328,∞
2025-03-10 13:12:04.314,704, 449, 311, -15, 11, 6, -7, -29, -16, 973, 863, 44,∞
2025-03-10 13:12:04.372,832, 165, 776, 3, -11, -35, -7, -27, -18, 957, 845, 70,∞
2025-03-10 13:12:04.432,908, 940, 545, 2, -15, 17, -7, -28, -16, 978, 895, 178,∞
2025-03-10 13:12:04.496,667, 685, 264, -11, 11, 16, -6, -28, -16, 981, 904, 345,∞
2025-03-10 13:12:04.557,516, 493, 642, -8, -33, -36, -6, -29, -16, 966, 889, 284,∞
2025-03-10 13:12:04.614,1077, 578, 593, 21, 5, -2, -8, -28, -14, 977, 879, 48,∞
2025-03-10 13:12:04.672,787, 593, -16, -69, 34, 11, -8, -27, -16, 970, 785, 47,∞
2025-03-10 13:12:04.729,917, 459, 163, -9, 60, -47, -6, -28, -18, 910, 722, 58,∞
2025-03-10 13:12:05.018,672, 534, 561, 8, -3, 1, -5, -25, -20, 905, 713, 66,∑
2025-03-10 13:12:05.078,668, 538, 547, 12, -3, 1, -6, -26, -20, 906, 712, 61,∑
2025-03-10 13:12:05.131,666, 540, 523, 0, -2, 8, -6, -28, -21, 903, 695, 49,∑
2025-03-10 13:12:05.182,681, 552, 491, -1, 0, 8, -6, -27, -20, 902, 687, 63,∑
2025-03-10 13:12:05.242,696, 482, 557, 1, -3, 7, -7, -28, -20, 906, 711, 26,∑
2025-03-10 13:12:05.295,703, 514, 505, 5, -7, 1, -7, -28, -18, 918, 747, 54,∑
2025-03-10 13:12:05.352,702, 524, 499, 1, -5, 0, -7, -28, -17, 925, 787, 93,∑
2025-03-10 13:12:05.406,704, 522, 525, -1, -4, 1, -4, -25, -19, 929, 803, 26,∑
2025-03-10 13:12:05.465,705, 526, 496, 2, -11, 2, -8, -27, -18, 936, 829, 127,∑
2025-03-10 13:12:05.515,732, 511, 440, -2, -4, -3, -8, -27, -18, 939, 835, 96,∑
2025-03-10 13:12:05.578,700, 507, 498, -3, 0, -2, -9, -28, -18, 943, 839, 99,∑
2025-03-10 13:12:05.632,758, 527, 491, 2, -3, 1, -8, -27, -18, 941, 840, 205,∑
2025-03-10 13:12:05.692,679, 520, 545, -10, 1, -9, -6, -28, -19, 945, 850, 236,∑
2025-03-10 13:12:05.748,611, 558, 512, 10, -12, 0, -7, -27, -18, 948, 829, 46,∑
2025-03-10 13:12:05.811,817, 477, 542, -3, -11, -13, -6, -27, -16, 964, 868, 47,∑
2025-03-10 13:12:05.863,476, 303, 289, 38, 0, 35, -9, -28, -16, 982, 914, 534,∑
2025-03-10 13:12:05.922,630, 564, 479, 10, 2, 1, -9, -27, -15, 975, 901, 602,∑
2025-03-10 13:12:05.979,604, 656, 493, -67, 8, -40, -6, -29, -16, 955, 821, 40,∑
2025-03-10 13:12:06.032,855, 547, 441, 45, -8, -9, -5, -26, -16, 974, 873, 52,∑
2025-03-10 13:12:06.096,775, 781, 383, -16, 14, 39, -6, -29, -14, 982, 900, 325,∑
2025-03-10 13:12:06.152,469, 471, 446, -11, 24, 11, -9, -30, -15, 976, 873, 146,∑
2025-03-10 13:12:06.213,989, 342, 584, 24, -6, -9, -8, -27, -16, 970, 827, 45,∑
2025-03-10 13:12:06.264,523, 429, 485, 16, -3, 27, -7, -28, -15, 984, 908, 177,∑
2025-03-10 13:12:06.322,713, 496, 444, -5, 15, 8, -9, -28, -13, 973, 880, 442,∑
2025-03-10 13:12:06.382,771, 517, 407, -65, 77, -42, -8, -27, -18, 920, 570, 44,∑
2025-03-10 13:12:06.666,665, 555, 532, -3, -12, 3, -4, -29, -16, 907, 666, 42,∏
2025-03-10 13:12:06.722,656, 545, 525, -3, -14, 4, -6, -26, -18, 907, 677, 51,∏
2025-03-10 13:12:06.782,721, 512, 475, -3, -10, 2, -4, -28, -17, 917, 703, 35,∏
2025-03-10 13:12:06.838,716, 512, 475, -5, 0, -3, -7, -28, -18, 923, 723, 36,∏
2025-03-10 13:12:06.892,705, 538, 505, 0, -2, -1, -6, -27, -17, 928, 755, 51,∏
2025-03-10 13:12:06.947,723, 531, 481, -2, -2, 2, -6, -28, -16, 931, 772, 58,∏
2025-03-10 13:12:07.002,699, 522, 480, 0, 0, -1, -6, -26, -19, 933, 777, 33,∏
2025-03-10 13:12:07.056,702, 518, 497, 2, -3, 0, -7, -27, -18, 936, 801, 61,∏
2025-03-10 13:12:07.114,689, 534, 500, -2, -2, -2, -5, -29, -18, 936, 802, 75,∏
2025-03-10 13:12:07.172,708, 527, 476, 4, -3, 2, -8, -28, -18, 938, 807, 60,∏
2025-03-10 13:12:07.228,688, 530, 514, -2, -1, -3, -9, -26, -17, 939, 796, 78,∏
2025-03-10 13:12:07.282,651, 523, 443, -5, -1, -14, -6, -29, -15, 934, 773, 58,∏
2025-03-10 13:12:07.342,523, 582, 599, 3, -22, -3, -6, -28, -17, 916, 768, 44,∏
2025-03-10 13:12:07.402,979, 264, 529, 87, -23, -12, -6, -30, -17, 970, 880, 46,∏
2025-03-10 13:12:07.462,771, 601, 609, 20, 2, 36, -8, -28, -17, 982, 913, 589,∏
2025-03-10 13:12:07.514,605, 478, 410, -7, 7, -4, -7, -28, -14, 970, 882, 589,∏
2025-03-10 13:12:07.580,1230, 545, 330, -19, 4, -29, -9, -28, -16, 947, 794, 153,∏
2025-03-10 13:12:07.632,584, 598, 527, -19, 5, 18, -7, -28, -14, 973, 880, 193,∏
2025-03-10 13:12:07.695,625, 568, 233, -43, 28, 15, -8, -29, -15, 975, 848, 45,∏
2025-03-10 13:12:07.752,895, 287, 732, 28, -25, -19, -6, -29, -18, 938, 771, 31,∏
2025-03-10 13:12:07.814,406, 583, 822, -21, -37, 11, -7, -29, -14, 961, 877, 308,∏
2025-03-10 13:12:07.872,911, 700, 320, 5, 8, 21, -8, -28, -16, 983, 893, 136,∏
2025-03-10 13:12:07.922,758, 323, 449, 0, 20, 11, -9, -28, -18, 978, 858, 45,∏
2025-03-10 13:12:07.982,849, 461, 168, -11, 52, -52, -7, -27, -18, 931, 729, 51,∏
2025-03-10 13:12:08.042,462, 525, 720, -37, 44, -35, -5, -28, -21, 887, 631, 50,∏
2025-03-10 13:12:08.334,674, 498, 542, -1, -3, -1, -4, -28, -21, 864, 613, 70,√
2025-03-10 13:12:08.392,672, 499, 557, -2, -3, -2, -5, -24, -20, 863, 616, 50,√
2025-03-10 13:12:08.448,666, 535, 562, -1, -2, -1, -5, -27, -22, 862, 612, 60,√
2025-03-10 13:12:08.506,673, 517, 550, -1, -5, -1, -4, -27, -20, 865, 606, 62,√
2025-03-10 13:12:08.564,689, 509, 531, -4, -4, -1, -6, -28, -20, 862, 605, 36,√
2025-03-10 13:12:08.614,677, 505, 534, -4, -1, -2, -6, -27, -21, 870, 630, 60,√
2025-03-10 13:12:08.678,673, 514, 579, 0, -3, 2, -5, -26, -22, 878, 638, 65,√
2025-03-10 13:12:08.731,679, 510, 549, 1, -5, 1, -4, -28, -21, 889, 654, 46,√
2025-03-10 13:12:08.782,676, 510, 544, 2, -7, 2, -6, -27, -20, 896, 662, 25,√
2025-03-10 13:12:08.842,683, 500, 540, 6, -10, 1, -6, -27, -21, 901, 698, 63,√
2025-03-10 13:12:08.896,723, 516, 492, 3, -10, 1, -7, -26, -21, 910, 710, 39,√
2025-03-10 13:12:08.957,725, 509, 471, 28, -2, 4, -5, -28, -17, 924, 779, 43,√
2025-03-10 13:12:09.006,583, 520, 599, -1, 4, -2, -7, -28, -18, 927, 793, 50,√
2025-03-10 13:12:09.063,650, 517, 500, 1, -25, -10, -8, -28, -18, 930, 814, 54,√
2025-03-10 13:12:09.122,757, 562, 458, -4, 5, -16, -5, -27, -18, 926, 792, 52,√
2025-03-10 13:12:09.182,688, 481, 478, 1, 4, -9, -5, -27, -17, 940, 803, 43,√
2025-03-10 13:12:09.239,725, 549, 307, 59, -8, -12, -6, -28, -16, 964, 869, 52,√
2025-03-10 13:12:09.296,831, 499, 294, 0, 5, 27, -6, -30, -16, 973, 897, 411,√
2025-03-10 13:12:09.352,791, 999, 390, 25, 28, 38, -6, -28, -15, 978, 889, 345,√
2025-03-10 13:12:09.411,770, 236, 391, -35, 18, 21, -7, -27, -15, 981, 892, 69,√
2025-03-10 13:12:09.464,698, 334, 342, 3, -70, -79, -7, -27, -16, 973, 913, 50,√
2025-03-10 13:12:09.530,708, 545, 293, 30, -35, -7, -9, -28, -16, 979, 919, 374,√
2025-03-10 13:12:09.582,728, 406, 309, 16, 18, 17, -8, -27, -14, 982, 912, 553,√
2025-03-10 13:12:09.647,828, 419, 297, -19, 68, -36, -9, -28, -17, 962, 867, 506,√
2025-03-10 13:12:09.940,702, 548, 452, -7, 1, 1, -6, -28, -17, 914, 722, 68,∛
2025-03-10 13:12:09.992,692, 533, 474, -6, 0, 0, -6, -27, -16, 913, 721, 60,∛
2025-03-10 13:12:10.046,686, 528, 479, 0, -2, 1, -5, -28, -16, 916, 717, 47,∛
2025-03-10 13:12:10.102,684, 544, 468, 0, 2, 1, -6, -28, -15, 920, 721, 66,∛
2025-03-10 13:12:10.156,680, 559, 463, 0, 1, -2, -6, -28, -17, 912, 706, 41,∛
2025-03-10 13:12:10.215,642, 554, 534, 1, -10, 1, -7, -29, -17, 912, 727, 72,∛
2025-03-10 13:12:10.265,897, 499, 456, 46, 2, -1, -5, -30, -13, 949, 843, 83,∛
2025-03-10 13:12:10.322,486, 398, 625, 24, 3, 7, -9, -30, -15, 967, 885, 540,∛
2025-03-10 13:12:10.386,833, 957, 337, 20, 25, 26, -7, -30, -15, 973, 880, 464,∛
2025-03-10 13:12:10.442,733, 640, 323, -46, 21, 16, -7, -28, -15, 970, 867, 52,∛
2025-03-10 13:12:10.496,442, 425, 322, 20, -49, -51, -7, -28, -16, 954, 887, 44,∛
2025-03-10 13:12:10.562,960, 583, 618, 49, -31, 5, -8, -28, -16, 974, 910, 451,∛
2025-03-10 13:12:10.613,624, 488, 331, 1, 3, 20, -8, -28, -14, 980, 912, 580,∛
2025-03-10 13:12:10.672,689, 494, 397, -2, 5, -3, -10, -29, -15, 963, 884, 616,∛
2025-03-10 13:12:10.732,676, 519, 523, -31, 34, -71, -7, -28, -15, 930, 825, 395,∛
2025-03-10 13:12:10.795,663, 697, 514, -10, -6, -8, -3, -30, -17, 924, 795, 221,∛
2025-03-10 13:12:10.847,731, 575, 400, 0, -5, 3, -5, -27, -16, 928, 799, 209,∛
2025-03-10 13:12:10.906,643, 603, 498, 2, -10, 5, -4, -29, -16, 928, 818, 333,∛
2025-03-10 13:12:10.963,691, 575, 419, 0, -12, 2, -5, -27, -17, 925, 827, 279,∛
2025-03-10 13:12:11.022,708, 617, 467, -4, -7, -13, -7, -30, -15, 937, 856, 185,∛
2025-03-10 13:12:11.078,690, 516, 478, 5, -1, -5, -7, -29, -15, 952, 879, 34,∛
2025-03-10 13:12:11.132,736, 543, 449, 15, -3, -2, -5, -29, -15, 965, 893, 223,∛
2025-03-10 13:12:11.196,686, 567, 459, 9, -4, 11, -6, -30, -15, 973, 905, 604,∛
2025-03-10 13:12:11.247,559, 662, 243, 2, 13, 8, -7, -28, -13, 974, 894, 566,∛
2025-03-10 13:12:11.305,751, 461, 278, -12, 7, -5, -5, -29, -14, 975, 890, 391,∛
2025-03-10 13:12:11.362,713, 671, 496, 3, 0, 2, -6, -31, -13, 981, 893, 328,∛
2025-03-10 13:12:11.422,833, 583, 260, -23, 28, 12, -5, -28, -13, 972, 854, 47,∛
2025-03-10 13:12:11.482,699, 508, 373, -35, 66, -27, -7, -28, -16, 943, 799, 78,∛
2025-03-10 13:12:11.532,478, 583, 675, 10, 3, 4, -6, -26, -19, 941, 772, 43,∛
2025-03-10 13:12:11.812,704, 543, 475, -1, -2, -1, -5, -28, -17, 908, 703, 54,∜
2025-03-10 13:12:11.862,716, 533, 486, -1, -2, -2, -7, -28, -15, 906, 702, 48,∜
2025-03-10 13:12:11.927,678, 568, 485, -2, -2, -1, -5, -28, -17, 909, 706, 52,∜
2025-03-10 13:12:11.982,669, 575, 481, -4, -2, -1, -6, -28, -16, 906, 707, 42,∜
2025-03-10 13:12:12.045,720, 324, 275, -13, 2, -11, -7, -27, -20, 917, 722, 39,∜
2025-03-10 13:12:12.102,956, 550, 532, 67, -11, -2, -5, -27, -17, 958, 865, 25,∜
2025-03-10 13:12:12.159,625, 328, 671, 51, -2, 7, -7, -28, -16, 971, 887, 404,∜
2025-03-10 13:12:12.213,966, 399, 449, -17, 39, 34, -8, -30, -15, 974, 859, 57,∜
2025-03-10 13:12:12.274,743, 590, 388, -66, 22, 18, -9, -27, -15, 964, 850, 70,∜
2025-03-10 13:12:12.333,1265, 560, 173, 26, -48, -46, -7, -29, -16, 949, 892, 43,∜
2025-03-10 13:12:12.393,794, 527, 880, 47, -43, 12, -7, -29, -16, 970, 900, 391,∜
2025-03-10 13:12:12.446,710, 580, 266, 16, 4, 12, -9, -28, -13, 975, 896, 511,∜
2025-03-10 13:12:12.512,799, 323, 310, -25, 34, -55, -9, -28, -15, 954, 843, 473,∜
2025-03-10 13:12:12.563,709, 594, 618, -24, -4, -51, -5, -29, -18, 919, 705, 69,∜
2025-03-10 13:12:12.632,829, 390, -839, -126, -24, -44, -6, -28, -13, 949, 859, 395,∜
2025-03-10 13:12:12.692,684, 639, 434, 1, -10, -6, -7, -30, -14, 973, 890, 376,∜
2025-03-10 13:12:12.746,867, 570, 410, -15, 19, 10, -6, -27, -13, 975, 864, 64,∜
2025-03-10 13:12:12.805,850, 780, 527, 15, 5, 15, -6, -27, -15, 981, 897, 96,∜
2025-03-10 13:12:12.863,738, 689, 414, -1, 6, 16, -5, -28, -14, 977, 899, 524,∜
2025-03-10 13:12:12.922,502, 694, 673, -15, -2, -15, -6, -29, -16, 960, 869, 518,∜
2025-03-10 13:12:12.982,571, 648, 390, -20, 13, 16, -6, -29, -15, 981, 890, 373,∜
2025-03-10 13:12:13.044,704, 255, 544, -14, 18, 16, -7, -29, -16, 974, 827, 278,∜
2025-03-10 13:12:13.095,716, 489, 453, -24, 57, -48, -4, -26, -18, 920, 723, 207,∜
2025-03-10 13:12:13.156,426, 658, 814, -14, 0, -7, -4, -26, -21, 894, 696, 41,∜
2025-03-10 13:12:13.212,646, 564, 541, 15, -31, 16, -2, -28, -22, 893, 678, 44,∜
2025-03-10 13:12:13.272,715, 526, 430, -2, -11, 7, -4, -27, -18, 890, 663, 37,∜
2025-03-10 13:12:13.328,677, 524, 510, -10, 8, -1, -5, -25, -18, 892, 620, 46,∜
2025-03-10 13:12:13.842,686, 518, 529, 8, -4, 3, -8, -25, -19, 875, 654, 30,∫
2025-03-10 13:12:13.897,686, 521, 541, 11, -4, 3, -8, -25, -19, 878, 666, 35,∫
2025-03-10 13:12:13.952,696, 523, 502, 6, -3, 2, -6, -27, -19, 896, 710, 42,∫
2025-03-10 13:12:14.011,675, 533, 520, 5, -5, 1, -7, -29, -16, 916, 729, 39,∫
2025-03-10 13:12:14.062,668, 516, 519, 6, -4, 5, -7, -27, -19, 930, 769, 70,∫
2025-03-10 13:12:14.120,712, 534, 469, 10, -9, 5, -7, -26, -18, 939, 795, 134,∫
2025-03-10 13:12:14.178,713, 527, 471, 2, 0, -1, -6, -27, -17, 939, 811, 173,∫
2025-03-10 13:12:14.232,693, 532, 496, 1, -1, 2, -6, -27, -17, 945, 823, 249,∫
2025-03-10 13:12:14.284,702, 531, 466, 1, 0, -1, -6, -28, -17, 946, 831, 296,∫
2025-03-10 13:12:14.343,659, 547, 500, 4, -1, 2, -7, -28, -17, 948, 838, 329,∫
2025-03-10 13:12:14.402,763, 517, 396, 5, -5, -3, -8, -28, -16, 947, 831, 326,∫
2025-03-10 13:12:14.461,705, 567, 536, 12, -4, 5, -7, -28, -16, 952, 841, 421,∫
2025-03-10 13:12:14.512,733, 559, 467, 5, -6, 10, -6, -30, -16, 955, 848, 530,∫
2025-03-10 13:12:14.576,708, 496, 478, 4, -19, 11, -9, -28, -16, 960, 867, 573,∫
2025-03-10 13:12:14.632,693, 493, 552, -17, -11, -15, -8, -27, -16, 966, 894, 532,∫
2025-03-10 13:12:14.695,864, 440, 612, 14, -5, -14, -8, -27, -16, 970, 895, 351,∫
2025-03-10 13:12:14.752,963, 479, 378, 9, 35, 12, -9, -29, -14, 981, 894, 336,∫
2025-03-10 13:12:14.813,502, 500, 520, -22, 21, 22, -7, -28, -15, 980, 887, 65,∫
2025-03-10 13:12:14.862,834, 550, 481, 21, 18, 0, -7, -27, -15, 944, 740, 145,∫
2025-03-10 13:12:14.928,595, 508, 678, -37, 59, -46, -5, -28, -19, 904, 695, 97,∫
2025-03-10 13:12:15.214,730, 530, 473, 1, -7, 3, -7, -28, -16, 902, 745, 41,∮
2025-03-10 13:12:15.272,731, 519, 458, 0, -7, 1, -6, -28, -20, 901, 748, 44,∮
2025-03-10 13:12:15.329,668, 537, 514, 1, -2, -2, -7, -28, -19, 910, 774, 54,∮
2025-03-10 13:12:15.382,731, 534, 451, 1, -3, -1, -6, -27, -18, 914, 779, 143,∮
2025-03-10 13:12:15.432,690, 537, 511, -2, -3, 0, -8, -26, -18, 924, 801, 147,∮
2025-03-10 13:12:15.495,720, 533, 456, -1, -3, 1, -7, -28, -17, 934, 823, 246,∮
2025-03-10 13:12:15.559,672, 546, 508, -3, -10, -1, -4, -29, -16, 939, 840, 340,∮
2025-03-10 13:12:15.612,689, 592, 534, -2, 0, -5, -7, -27, -16, 946, 859, 336,∮
2025-03-10 13:12:15.663,729, 553, 473, 4, -1, 0, -6, -27, -17, 949, 867, 342,∮
2025-03-10 13:12:15.727,873, 567, 352, 5, 2, 3, -8, -28, -16, 947, 859, 428,∮
2025-03-10 13:12:15.782,529, 540, 670, -4, 3, 4, -8, -27, -16, 956, 876, 510,∮
2025-03-10 13:12:15.842,630, 482, 640, 10, -47, 21, -8, -28, -17, 963, 889, 509,∮
2025-03-10 13:12:15.902,502, 539, 500, -29, 4, -12, -10, -27, -15, 966, 904, 179,∮
2025-03-10 13:12:15.960,474, 781, 176, 81, -17, -16, -7, -30, -15, 975, 891, 58,∮
2025-03-10 13:12:16.012,818, 631, 410, 17, 40, 34, -6, -29, -13, 974, 892, 314,∮
2025-03-10 13:12:16.078,467, 682, 623, 3, -21, -38, -6, -28, -16, 951, 877, 665,∮
2025-03-10 13:12:16.132,832, 335, 507, 17, -20, -12, -7, -28, -15, 962, 885, 683,∮
2025-03-10 13:12:16.196,784, 696, 664, -19, 9, 21, -7, -28, -13, 979, 892, 562,∮
2025-03-10 13:12:16.256,336, 380, 228, -39, 28, 6, -7, -30, -15, 967, 858, 38,∮
2025-03-10 13:12:16.317,929, 483, 207, -19, -6, -53, -7, -28, -15, 943, 843, 393,∮
2025-03-10 13:12:16.378,867, -221, -157, -52, -12, -16, -6, -27, -17, 960, 879, 555,∮
2025-03-10 13:12:16.432,930, 756, 399, 1, 28, 40, -6, -28, -15, 981, 891, 244,∮
2025-03-10 13:12:16.493,1131, 454, 171, -45, 44, 19, -9, -28, -18, 971, 806, 69,∮
2025-03-10 13:12:16.545,877, 425, 177, 4, 75, -66, -7, -25, -19, 879, 696, 49,∮
2025-03-10 13:12:16.612,398, 518, 807, -22, 49, -47, -6, -26, -25, 657, 640, 30,∮
2025-03-10 13:12:16.907,675, 509, 540, -2, -6, 5, -5, -27, -21, 818, 603, 27,∂
2025-03-10 13:12:16.967,680, 508, 555, 0, -7, 5, -4, -26, -24, 830, 610, 30,∂
2025-03-10 13:12:17.026,683, 508, 522, 5, -5, -2, -5, -25, -19, 871, 655, 43,∂
2025-03-10 13:12:17.079,694, 518, 520, -6, -3, 1, -5, -26, -19, 891, 691, 67,∂
2025-03-10 13:12:17.132,692, 501, 532, -3, -3, -1, -4, -28, -18, 894, 703, 26,∂
2025-03-10 13:12:17.193,701, 505, 538, 8, -6, 2, -7, -28, -19, 914, 750, 42,∂
2025-03-10 13:12:17.246,686, 506, 535, 4, -2, 0, -6, -27, -19, 921, 780, 86,∂
2025-03-10 13:12:17.302,706, 514, 545, 31, -9, 6, -4, -28, -19, 928, 825, 270,∂
2025-03-10 13:12:17.361,733, 546, 458, 6, -6, -1, -7, -29, -18, 932, 838, 385,∂
2025-03-10 13:12:17.412,688, 512, 532, -3, 3, -1, -7, -27, -18, 936, 843, 407,∂
2025-03-10 13:12:17.476,705, 531, 482, -4, -4, -6, -7, -26, -19, 936, 845, 406,∂
2025-03-10 13:12:17.532,723, 526, 464, 3, 3, 0, -8, -27, -16, 940, 847, 394,∂
2025-03-10 13:12:17.582,646, 540, 532, 4, 0, -4, -5, -26, -19, 940, 845, 404,∂
2025-03-10 13:12:17.644,700, 547, 441, -4, -8, -10, -6, -27, -17, 939, 844, 397,∂
2025-03-10 13:12:17.702,687, 812, 730, 26, -2, -11, -7, -28, -18, 947, 876, 416,∂
2025-03-10 13:12:17.762,537, 466, 300, 42, -8, 18, -7, -27, -19, 973, 897, 646,∂
2025-03-10 13:12:17.822,715, 642, 565, 11, 18, 18, -8, -29, -14, 978, 902, 531,∂
2025-03-10 13:12:17.877,887, 524, 366, -53, 16, -9, -7, -28, -15, 971, 875, 41,∂
2025-03-10 13:12:17.943,779, 599, 333, 16, -29, -12, -7, -28, -15, 976, 902, 160,∂
2025-03-10 13:12:17.995,512, 690, 396, 0, -1, 7, -9, -29, -16, 982, 913, 408,∂
2025-03-10 13:12:18.052,774, 591, 418, -16, 15, 9, -7, -28, -15, 973, 892, 475,∂
2025-03-10 13:12:18.112,657, 530, 581, -40, 48, -27, -7, -29, -18, 950, 814, 166,∂
2025-03-10 13:12:18.382,714, 520, 484, -3, -7, 5, -7, -28, -17, 920, 704, 50,∇
2025-03-10 13:12:18.432,712, 531, 493, 0, -6, 6, -7, -27, -20, 920, 708, 32,∇
2025-03-10 13:12:18.495,708, 529, 490, 2, -4, 2, -6, -26, -20, 926, 736, 49,∇
2025-03-10 13:12:18.545,707, 542, 485, 1, -1, 1, -8, -27, -17, 931, 758, 70,∇
2025-03-10 13:12:18.602,703, 536, 494, 0, -1, 1, -5, -28, -17, 933, 775, 30,∇
2025-03-10 13:12:18.660,705, 530, 481, -1, 0, 1, -7, -28, -18, 936, 796, 142,∇
2025-03-10 13:12:18.712,699, 524, 495, 1, -1, 0, -7, -28, -17, 940, 809, 168,∇
2025-03-10 13:12:18.772,713, 538, 484, 2, -3, 0, -7, -27, -18, 942, 815, 178,∇
2025-03-10 13:12:18.832,713, 530, 485, -1, -1, -1, -7, -27, -16, 944, 827, 203,∇
2025-03-10 13:12:18.882,728, 531, 453, -1, 2, 0, -7, -28, -18, 948, 830, 215,∇
2025-03-10 13:12:18.942,690, 534, 496, 4, -3, -1, -7, -28, -17, 947, 835, 224,∇
2025-03-10 13:12:18.995,673, 530, 469, -5, 4, -5, -9, -27, -17, 947, 823, 143,∇
2025-03-10 13:12:19.056,622, 527, 509, 0, -16, -8, -7, -27, -17, 940, 806, 32,∇
2025-03-10 13:12:19.112,788, 468, 417, -4, -7, -11, -7, -31, -12, 956, 850, 37,∇
2025-03-10 13:12:19.176,576, 687, 600, 39, -28, 24, -4, -30, -16, 974, 895, 269,∇
2025-03-10 13:12:19.232,633, 455, 530, 9, -1, 18, -5, -27, -16, 979, 913, 608,∇
2025-03-10 13:12:19.290,58, 971, 132, 36, 26, 14, -10, -30, -14, 981, 903, 481,∇
2025-03-10 13:12:19.343,882, 428, 160, -25, 29, 6, -7, -28, -14, 974, 867, 49,∇
2025-03-10 13:12:19.409,636, 549, 303, -18, -22, -89, -7, -28, -16, 945, 826, 182,∇
2025-03-10 13:12:19.469,856, 720, 853, 22, -12, -12, -6, -28, -17, 958, 870, 158,∇
2025-03-10 13:12:19.528,631, 383, 186, 14, 40, 63, -7, -28, -15, 981, 897, 177,∇
2025-03-10 13:12:19.582,675, 554, 495, -4, 17, 10, -8, -28, -15, 969, 846, 210,∇
2025-03-10 13:12:19.643,722, 459, 544, -14, 52, -53, -7, -28, -18, 899, 606, 42,∇
2025-03-10 13:12:19.942,713, 515, 498, -1, -10, 5, -7, -28, -19, 892, 681, 40,∆
2025-03-10 13:12:19.993,716, 508, 474, -1, -8, 4, -7, -29, -16, 894, 688, 48,∆
2025-03-10 13:12:20.052,701, 520, 480, -4, 2, -3, -6, -27, -19, 898, 676, 31,∆
2025-03-10 13:12:20.109,696, 531, 514, -4, 0, -1, -8, -26, -17, 904, 692, 58,∆
2025-03-10 13:12:20.162,713, 525, 491, -3, 0, 0, -6, -27, -18, 904, 691, 46,∆
2025-03-10 13:12:20.222,702, 511, 496, -4, -1, 1, -6, -28, -18, 910, 697, 39,∆
2025-03-10 13:12:20.276,716, 531, 486, -3, -1, 0, -7, -27, -17, 918, 721, 46,∆
2025-03-10 13:12:20.332,709, 532, 502, -4, -1, 0, -7, -28, -19, 924, 739, 69,∆
2025-03-10 13:12:20.392,720, 527, 511, -4, -1, 1, -7, -27, -19, 929, 747, 45,∆
2025-03-10 13:12:20.444,702, 527, 501, -2, -2, 0, -7, -27, -18, 933, 748, 27,∆
2025-03-10 13:12:20.502,752, 507, 467, 11, -3, 4, -7, -27, -18, 941, 794, 66,∆
2025-03-10 13:12:20.559,690, 535, 518, -5, -8, -4, -8, -28, -17, 944, 811, 179,∆
2025-03-10 13:12:20.612,683, 508, 551, -7, -26, 0, -6, -27, -18, 948, 842, 303,∆
2025-03-10 13:12:20.676,704, 476, 635, -10, -16, -11, -7, -27, -20, 967, 888, 150,∆
2025-03-10 13:12:20.732,916, 468, 721, 61, 8, -4, -7, -27, -17, 976, 872, 47,∆
2025-03-10 13:12:20.794,856, 783, -122, -36, 41, 18, -8, -27, -16, 960, 806, 70,∆
2025-03-10 13:12:20.854,608, 520, 526, 5, -9, -37, -6, -28, -17, 937, 838, 87,∆
2025-03-10 13:12:20.912,708, 626, 501, 43, -21, 13, -8, -28, -16, 968, 885, 459,∆
2025-03-10 13:12:20.969,843, 469, 356, 5, 28, 33, -9, -28, -15, 979, 893, 343,∆
2025-03-10 13:12:21.027,576, 344, 494, -30, 21, -24, -7, -27, -16, 962, 867, 31,∆
2025-03-10 13:12:21.082,1187, 446, 158, -2, 32, -8, -8, -27, -16, 929, 760, 244,∆
2025-03-10 13:12:21.144,475, 571, 747, -37, 50, -23, -2, -29, -19, 920, 680, 270,∆
2025-03-10 13:12:21.476,684, 538, 485, -10, 0, 2, -5, -27, -18, 851, 541, 34,π
2025-03-10 13:12:21.527,682, 521, 495, -9, 2, 1, -9, -23, -19, 853, 549, 44,π
2025-03-10 13:12:21.582,665, 525, 564, -8, -4, 2, -6, -28, -20, 864, 575, 49,π
2025-03-10 13:12:21.643,699, 527, 512, -1, -14, 8, -7, -26, -20, 881, 642, 24,π
2025-03-10 13:12:21.695,729, 502, 486, -4, -7, 1, -5, -28, -19, 904, 672, 38,π
2025-03-10 13:12:21.752,688, 507, 521, -2, -2, -2, -6, -28, -19, 921, 715, 59,π
2025-03-10 13:12:21.812,690, 510, 520, 0, -6, -1, -6, -26, -18, 926, 738, 58,π
2025-03-10 13:12:21.864,703, 511, 515, -1, -4, 3, -9, -27, -19, 935, 756, 38,π
2025-03-10 13:12:21.927,726, 512, 486, -1, -3, -1, -7, -29, -20, 937, 776, 42,π
2025-03-10 13:12:21.977,690, 532, 522, 0, 2, 0, -7, -27, -18, 939, 786, 71,π
2025-03-10 13:12:22.032,724, 517, 477, 1, -4, -5, -9, -28, -18, 940, 795, 66,π
2025-03-10 13:12:22.094,649, 529, 539, -8, -6, -11, -6, -27, -17, 938, 786, 22,π
2025-03-10 13:12:22.152,568, 481, 629, -7, -26, -6, -7, -27, -19, 939, 784, 39,π
2025-03-10 13:12:22.210,750, 619, 401, -3, -14, -13, -7, -27, -18, 960, 857, 44,π
2025-03-10 13:12:22.272,1227, 544, 33, 37, -26, 25, -7, -27, -18, 980, 905, 331,π
2025-03-10 13:12:22.327,627, 593, 559, 9, 2, 34, -9, -28, -15, 983, 914, 586,π
2025-03-10 13:12:22.382,699, 419, 374, -8, 9, -47, -8, -27, -14, 966, 882, 573,π
2025-03-10 13:12:22.443,935, 417, 630, -57, -5, -20, -6, -28, -16, 966, 867, 297,π
2025-03-10 13:12:22.502,561, 780, 242, 0, 33, 34, -8, -28, -15, 980, 887, 46,π
2025-03-10 13:12:22.559,575, 396, 229, -39, 28, 8, -8, -27, -15, 971, 852, 71,π
2025-03-10 13:12:22.612,845, 622, 432, 20, -34, -18, -9, -26, -18, 962, 862, 295,π
2025-03-10 13:12:22.678,630, 600, 734, 7, -14, -4, -7, -30, -15, 975, 898, 422,π
2025-03-10 13:12:22.732,817, 655, 419, 32, 18, 34, -7, -28, -15, 984, 894, 248,π
2025-03-10 13:12:22.793,773, 498, 447, 11, 21, 20, -8, -28, -15, 978, 889, 356,π
2025-03-10 13:12:22.852,788, 430, 249, -43, 83, -65, -8, -28, -17, 935, 801, 471,π
2025-03-10 13:12:22.912,440, 570, 817, -41, 38, -22, -3, -29, -22, 916, 524, 70,π
2025-03-10 13:12:23.192,661, 534, 541, 0, -9, -1, -6, -28, -21, 844, 428, 40,θ
2025-03-10 13:12:23.249,650, 541, 528, 0, -8, 0, -7, -26, -21, 847, 442, 41,θ
2025-03-10 13:12:23.309,675, 522, 563, 9, -13, 6, -7, -27, -20, 849, 474, 22,θ
2025-03-10 13:12:23.362,671, 534, 531, 17, -17, 6, -6, -27, -19, 881, 629, 66,θ
2025-03-10 13:12:23.422,706, 550, 483, 6, -15, 8, -7, -27, -19, 904, 685, 108,θ
2025-03-10 13:12:23.476,730, 544, 457, 4, -8, 6, -8, -27, -18, 921, 757, 195,θ
2025-03-10 13:12:23.532,732, 530, 472, 3, -3, 1, -9, -30, -16, 929, 771, 217,θ
2025-03-10 13:12:23.591,713, 536, 482, 0, -2, 0, -8, -29, -16, 935, 793, 281,θ
2025-03-10 13:12:23.643,725, 539, 474, -2, -4, -1, -7, -30, -17, 938, 805, 332,θ
2025-03-10 13:12:23.702,721, 517, 477, 0, -2, 0, -7, -27, -17, 940, 813, 321,θ
2025-03-10 13:12:23.763,704, 541, 488, -2, -2, -1, -7, -28, -18, 944, 813, 329,θ
2025-03-10 13:12:23.819,688, 555, 457, 6, -7, 5, -7, -30, -14, 947, 832, 416,θ
2025-03-10 13:12:23.876,634, 657, 583, -11, -7, -15, -6, -28, -16, 953, 870, 368,θ
2025-03-10 13:12:23.932,582, 279, 548, 29, -4, -17, -7, -26, -17, 963, 870, 28,θ
2025-03-10 13:12:23.993,658, 522, 39, -48, 60, 74, -7, -28, -16, 978, 880, 48,θ
2025-03-10 13:12:24.052,588, 204, 566, -11, -22, -60, -8, -27, -17, 972, 888, 390,θ
2025-03-10 13:12:24.112,779, 596, 580, -75, -37, -28, -7, -27, -19, 965, 891, 393,θ
2025-03-10 13:12:24.175,654, 778, 463, -12, 4, 22, -9, -27, -17, 981, 903, 417,θ
2025-03-10 13:12:24.232,737, 423, 478, -8, 38, 41, -9, -26, -16, 981, 894, 68,θ
2025-03-10 13:12:24.291,649, 247, 385, -24, 13, -34, -8, -28, -15, 962, 825, 38,θ
2025-03-10 13:12:24.342,371, 586, 1109, 19, -28, -4, -8, -27, -19, 959, 850, 33,θ
2025-03-10 13:12:24.409,1022, 534, 92, 31, -7, 34, -7, -29, -15, 983, 905, 177,θ
2025-03-10 13:12:24.463,661, 464, 568, 20, 10, 11, -12, -28, -16, 972, 884, 490,θ
2025-03-10 13:12:24.526,692, 456, 464, -55, 87, -53, -7, -27, -19, 902, 543, 185,θ
2025-03-10 13:12:24.582,512, 598, 722, -20, 40, -27, -2, -27, -22, 779, 68, 50,θ
2025-03-10 13:12:24.940,630, 527, 614, -13, 11, -24, -1, -26, -24, 711, 245, 30,λ
2025-03-10 13:12:24.995,623, 531, 593, -10, 17, -26, -2, -25, -28, 717, 264, 31,λ
2025-03-10 13:12:25.052,559, 556, 634, -3, 5, -27, 0, -28, -27, 739, 278, 62,λ
2025-03-10 13:12:25.110,535, 556, 654, 1, 3, -29, 0, -26, -28, 731, 226, 135,λ
2025-03-10 13:12:25.164,459, 609, 690, -5, -3, -22, 1, -25, -27, 726, 297, 263,λ
2025-03-10 13:12:25.226,330, 673, 762, 12, -29, 14, 1, -27, -28, 789, 372, 289,λ
2025-03-10 13:12:25.284,424, 507, 533, 43, -114, 68, -2, -28, -24, 811, 493, 281,λ
2025-03-10 13:12:25.345,794, 565, 347, 7, -27, 69, -7, -29, -19, 817, 566, 242,λ
2025-03-10 13:12:25.402,818, 519, 485, 10, 1, 16, -6, -28, -19, 833, 627, 281,λ
2025-03-10 13:12:25.462,814, 531, 387, -6, 13, -19, -7, -27, -19, 853, 647, 370,λ
2025-03-10 13:12:25.512,579, 569, 633, -2, 23, -12, -6, -28, -18, 864, 635, 358,λ
2025-03-10 13:12:25.582,746, 552, 424, -7, -21, 16, -6, -29, -19, 889, 677, 310,λ
2025-03-10 13:12:25.640,666, 512, 537, -9, -10, 5, -6, -27, -18, 917, 724, 226,λ
2025-03-10 13:12:25.693,781, 381, 309, 15, -1, -13, -7, -27, -18, 936, 820, 175,λ
2025-03-10 13:12:25.758,934, 586, 490, 17, -18, 16, -6, -27, -18, 966, 884, 396,λ
2025-03-10 13:12:25.812,736, 568, 374, 18, 30, 44, -8, -27, -17, 979, 890, 317,λ
2025-03-10 13:12:25.872,740, 484, 333, -7, 18, 11, -9, -27, -18, 968, 873, 308,λ
2025-03-10 13:12:25.932,473, 682, 826, -2, -23, -19, -9, -27, -18, 962, 863, 433,λ
2025-03-10 13:12:25.991,950, 915, 288, -16, 20, 19, -8, -29, -18, 978, 879, 47,λ
2025-03-10 13:12:26.042,869, 373, 241, -51, 38, 23, -9, -26, -19, 964, 748, 55,λ
2025-03-10 13:12:26.109,775, 392, 256, -45, 124, -66, -5, -25, -21, 884, 576, 66,λ
2025-03-10 13:12:26.163,385, 503, 767, -7, 76, -58, -1, -26, -28, 720, 383, 69,λ
2025-03-10 13:12:26.225,402, 445, 851, 7, -9, -10, 1, -24, -30, 512, 259, 49,λ
2025-03-10 13:12:26.582,624, 545, 300, 16, -30, 59, -5, -29, -20, 496, 431, 37,μ
2025-03-10 13:12:26.642,660, 518, 321, 15, -20, 54, -6, -31, -15, 513, 433, 22,μ
2025-03-10 13:12:26.692,575, 580, 398, 4, 8, 25, -6, -32, -14, 619, 516, 27,μ
2025-03-10 13:12:26.752,666, 498, 464, 16, 11, 12, -8, -31, -15, 659, 530, 65,μ
2025-03-10 13:12:26.813,770, 544, 389, -2, 18, -21, -6, -31, -16, 674, 465, 63,μ
2025-03-10 13:12:26.872,687, 576, 428, 11, 16, -28, -6, -30, -16, 707, 350, 44,μ
2025-03-10 13:12:26.925,754, 882, 578, -15, 6, -28, -2, -30, -16, 782, 312, 39,μ
2025-03-10 13:12:26.982,479, 613, 666, 4, -25, 23, -3, -29, -18, 832, 527, 61,μ
2025-03-10 13:12:27.042,671, 627, 373, -24, -8, 13, -3, -29, -15, 868, 608, 240,μ
