Timestamp,Acc_X,Acc_Y,Acc_Z,Gyro_X,Gyro_Y,Gyro_Z,Mag_X,Mag_Y,Mag_Z,Force1,Force2,Force3,Letter
2025-03-10 13:16:17.771,681, 562, 500, 0, 0, -1, 0, 1, -4, 831, 518, 85,noise
2025-03-10 13:16:17.824,680, 558, 494, 0, 0, -1, -1, 2, -2, 832, 504, 65,noise
2025-03-10 13:16:17.875,672, 556, 508, -1, 1, -1, -1, -1, -4, 831, 511, 87,noise
2025-03-10 13:16:17.926,668, 549, 508, -1, 0, 0, -1, -2, -1, 833, 508, 82,noise
2025-03-10 13:16:17.984,671, 556, 503, -2, 1, -1, -3, -1, -1, 833, 503, 57,noise
2025-03-10 13:16:18.037,669, 566, 514, -3, 1, 0, -3, -1, -4, 833, 497, 64,noise
2025-03-10 13:16:18.091,677, 550, 516, -1, -1, 0, -1, -1, -4, 836, 515, 106,noise
2025-03-10 13:16:18.142,678, 556, 504, -1, -1, -1, -1, 1, -2, 834, 506, 87,noise
2025-03-10 13:16:18.201,669, 552, 517, -3, 0, -1, -1, 0, -4, 836, 515, 105,noise
2025-03-10 13:16:18.253,678, 543, 510, -1, 0, -3, -1, 1, -3, 835, 520, 70,noise
2025-03-10 13:16:18.303,703, 566, 494, -2, 1, -4, 0, 0, -2, 834, 535, 76,noise
2025-03-10 13:16:18.361,717, 550, 483, -8, 7, -12, 0, 1, -3, 841, 567, 60,noise
2025-03-10 13:16:18.418,708, 620, 507, -10, -4, -26, -1, 1, -4, 881, 596, 129,noise
2025-03-10 13:16:18.472,633, 626, 533, -23, -3, -11, 0, -1, -2, 915, 624, 217,noise
2025-03-10 13:16:18.521,600, 581, 502, -7, -23, -15, 1, 1, -7, 933, 718, 162,noise
2025-03-10 13:16:18.586,645, 596, 409, -3, -32, 0, -1, -1, -4, 933, 769, 139,noise
2025-03-10 13:16:18.638,555, 467, 483, -17, 2, 6, -1, 0, -3, 935, 784, 199,noise
2025-03-10 13:16:18.691,554, 536, 521, -3, -6, 21, 1, 1, -3, 938, 800, 266,noise
2025-03-10 13:16:18.750,1072, 616, 695, 29, -18, -10, -1, 0, -6, 933, 790, 319,noise
2025-03-10 13:16:18.803,637, 471, 553, -11, 4, -8, -1, 0, -4, 928, 778, 234,noise
2025-03-10 13:16:18.861,616, 565, 511, -7, 9, -7, -1, 1, -5, 923, 748, 195,noise
2025-03-10 13:16:18.911,685, 560, 498, 6, -7, 4, -1, 0, -4, 915, 742, 225,noise
2025-03-10 13:16:18.967,711, 566, 441, 0, -3, 1, 0, 0, -4, 919, 737, 182,noise
2025-03-10 13:16:21.722,653, 656, 293, -3, -9, 8, -2, -3, 1, 926, 770, 525,A
2025-03-10 13:16:21.778,670, 640, 306, -2, -6, 11, -2, -3, 1, 927, 774, 528,A
2025-03-10 13:16:21.825,672, 608, 371, 5, 4, 14, -3, -2, 1, 927, 789, 574,A
2025-03-10 13:16:21.884,685, 619, 407, 1, 3, 9, -2, -3, 1, 933, 802, 593,A
2025-03-10 13:16:21.937,733, 660, 423, 8, -11, 4, -2, -7, 3, 937, 813, 607,A
2025-03-10 13:16:21.992,696, 614, 290, -8, -15, -7, -1, -1, 1, 935, 813, 601,A
2025-03-10 13:16:22.041,641, 622, 282, -5, 0, 30, -2, -4, 2, 939, 790, 581,A
2025-03-10 13:16:22.101,827, 368, 394, -5, 10, 6, -2, -2, 2, 939, 772, 550,A
2025-03-10 13:16:22.153,896, 668, 401, -5, 17, -32, -2, -4, 0, 939, 757, 570,A
2025-03-10 13:16:22.214,590, 597, 443, -14, 23, -19, -1, -2, -3, 940, 731, 570,A
2025-03-10 13:16:22.268,638, 712, 455, -12, 0, 2, 1, -2, -2, 949, 791, 617,A
2025-03-10 13:16:22.321,699, 610, 403, 6, -7, 12, -1, -2, -2, 953, 834, 676,A
2025-03-10 13:16:22.372,738, 609, 381, 1, -6, 3, -4, -2, -1, 964, 862, 705,A
2025-03-10 13:16:22.435,702, 620, 369, -12, 0, -4, -1, -1, -1, 962, 872, 732,A
2025-03-10 13:16:22.485,702, 598, 351, -28, 2, -10, 1, -1, -1, 960, 876, 734,A
2025-03-10 13:16:22.541,670, 641, 440, -15, -22, 6, -1, -1, -3, 968, 887, 742,A
2025-03-10 13:16:22.602,624, 540, 564, -15, -43, 13, -1, -1, -3, 969, 896, 759,A
2025-03-10 13:16:22.666,418, 511, 581, 48, -17, -27, -2, -1, -2, 970, 898, 703,A
2025-03-10 13:16:22.722,957, 1029, -386, 43, 45, 21, -2, -3, 2, 968, 876, 491,A
2025-03-10 13:16:22.771,843, 86, 468, -66, -30, -42, -1, -1, 0, 958, 868, 704,A
2025-03-10 13:16:22.841,3302, -623, 140, -39, -35, -28, -1, -1, -2, 966, 897, 714,A
2025-03-10 13:16:22.892,685, 729, -70, 3, 54, 39, -1, -2, 1, 970, 894, 531,A
2025-03-10 13:16:22.952,702, 327, 471, -24, 7, -33, -2, -2, 1, 963, 835, 493,A
2025-03-10 13:16:23.008,844, 750, 701, 34, -20, -17, -1, -1, -2, 966, 887, 421,A
2025-03-10 13:16:23.062,739, 714, 213, 20, 23, 50, -2, 0, 0, 969, 906, 657,A
2025-03-10 13:16:23.118,809, 481, 78, -57, 85, -57, -2, -2, -1, 956, 876, 649,A
2025-03-10 13:16:23.416,631, 604, 438, -1, 37, 35, 2, -4, -3, 930, 769, 254,B
2025-03-10 13:16:23.472,627, 635, 446, 3, 37, 40, -1, -1, -3, 931, 774, 272,B
2025-03-10 13:16:23.531,942, 691, 427, 17, -2, 12, -2, 1, -5, 941, 828, 466,B
2025-03-10 13:16:23.588,600, 593, 575, 12, -10, 12, -1, -1, -3, 949, 852, 516,B
2025-03-10 13:16:23.641,701, 545, 345, -5, -20, -4, -1, -3, -2, 947, 863, 552,B
2025-03-10 13:16:23.692,636, 623, 518, -4, -37, -6, 0, 1, -1, 951, 871, 609,B
2025-03-10 13:16:23.755,714, 424, 507, 20, -15, -13, -1, 1, -2, 964, 891, 551,B
2025-03-10 13:16:23.806,538, 746, 162, 10, 41, 32, -1, 2, 0, 971, 888, 454,B
2025-03-10 13:16:23.869,802, 250, 702, -30, -15, -17, -1, -2, -1, 960, 880, 604,B
2025-03-10 13:16:23.927,650, 410, 593, 1, -21, -11, -1, -3, -2, 966, 903, 686,B
2025-03-10 13:16:23.980,585, 867, 416, 5, -3, 8, -1, -2, -1, 972, 906, 639,B
2025-03-10 13:16:24.034,983, 427, 242, -12, 9, 8, -1, -2, -1, 974, 903, 487,B
2025-03-10 13:16:24.091,586, 646, 655, -18, 20, 12, -2, -1, -1, 969, 898, 511,B
2025-03-10 13:16:24.148,717, 705, 250, -9, 20, 11, -1, -1, -2, 968, 879, 288,B
2025-03-10 13:16:24.201,1137, 305, 407, -2, 14, -27, 0, -2, -2, 951, 837, 448,B
2025-03-10 13:16:24.261,544, 566, 741, -37, 8, -38, 0, -3, -5, 947, 845, 402,B
2025-03-10 13:16:24.541,667, 616, 447, -2, -7, 2, -1, -1, -4, 948, 847, 462,C
2025-03-10 13:16:24.591,685, 608, 434, -3, -7, 4, 0, 0, -6, 945, 847, 462,C
2025-03-10 13:16:24.651,710, 585, 408, -1, -6, 0, -1, 1, -3, 953, 853, 451,C
2025-03-10 13:16:24.701,717, 582, 415, -6, -3, -1, -2, 0, -3, 952, 859, 475,C
2025-03-10 13:16:24.756,589, 602, 550, 3, -26, 6, 0, 0, -4, 960, 874, 517,C
2025-03-10 13:16:24.816,748, 834, 392, 16, -11, -17, -2, -1, -2, 963, 888, 515,C
2025-03-10 13:16:24.871,687, 525, 374, 52, 22, 5, -1, -2, -1, 974, 888, 318,C
2025-03-10 13:16:24.921,786, 610, 304, -3, 48, 37, 0, 1, -1, 979, 903, 448,C
2025-03-10 13:16:24.983,793, 379, 351, -10, 2, -10, -3, -1, -2, 969, 898, 694,C
2025-03-10 13:16:25.041,590, 584, 635, -37, 22, -43, -1, -2, -4, 961, 880, 577,C
2025-03-10 13:16:25.092,526, 624, 644, -1, -20, 9, 0, 0, -6, 954, 864, 532,C
2025-03-10 13:16:25.401,696, 594, 417, 0, -7, 0, 0, -1, -3, 952, 855, 460,D
2025-03-10 13:16:25.460,700, 587, 412, 0, -6, -1, -1, 1, -2, 953, 854, 461,D
2025-03-10 13:16:25.511,666, 596, 462, 7, -9, -3, 0, -2, -3, 949, 852, 456,D
2025-03-10 13:16:25.568,734, 590, 335, 4, -11, -3, -1, -1, -3, 948, 849, 483,D
2025-03-10 13:16:25.621,592, 610, 542, 1, -26, -10, -1, 1, -5, 953, 853, 467,D
2025-03-10 13:16:25.681,754, 623, 399, 11, -7, -10, 0, 1, -1, 966, 881, 424,D
2025-03-10 13:16:25.734,567, 649, 249, 15, 56, 41, -1, 0, -1, 975, 888, 300,D
2025-03-10 13:16:25.791,552, 407, 553, -13, 11, -5, 1, -2, 0, 967, 879, 455,D
2025-03-10 13:16:25.849,907, 741, 467, -8, -33, -23, -1, -2, -1, 965, 891, 705,D
2025-03-10 13:16:25.902,661, 625, 368, 20, 4, 15, -2, -2, -1, 978, 909, 695,D
2025-03-10 13:16:25.953,407, 561, 565, -13, 36, 20, -2, -2, 0, 978, 897, 493,D
2025-03-10 13:16:26.016,965, 508, 314, -30, 35, 3, 0, -1, -2, 964, 798, 486,D
2025-03-10 13:16:26.069,644, 573, 591, -29, 34, -42, 1, 0, -5, 943, 795, 470,D
2025-03-10 13:16:26.392,670, 599, 428, -1, -2, 0, 1, 0, -4, 949, 851, 436,E
2025-03-10 13:16:26.443,657, 616, 441, 0, -1, 1, 1, 0, -3, 948, 852, 439,E
2025-03-10 13:16:26.491,693, 570, 451, -2, -2, 4, -3, 1, -6, 954, 862, 451,E
2025-03-10 13:16:26.552,663, 616, 415, -5, -6, -2, 0, -2, -4, 958, 876, 510,E
2025-03-10 13:16:26.611,669, 590, 483, -11, -41, 0, -1, -1, -5, 960, 886, 617,E
2025-03-10 13:16:26.667,716, 379, 547, 22, -8, -12, -1, -1, -2, 968, 900, 607,E
2025-03-10 13:16:26.716,925, 567, 278, 36, 41, 28, 0, -1, -1, 976, 897, 472,E
2025-03-10 13:16:26.772,686, 378, 719, -16, -26, -21, 0, -2, -1, 968, 883, 621,E
2025-03-10 13:16:26.835,660, 507, 573, 25, -47, 8, -1, -1, -3, 971, 899, 672,E
2025-03-10 13:16:26.891,818, 783, 275, 22, 5, 21, -2, -1, -1, 972, 913, 695,E
2025-03-10 13:16:26.941,576, 524, 517, 9, 16, 13, -4, -1, -2, 974, 903, 716,E
2025-03-10 13:16:27.001,818, 541, 400, 2, -22, -11, -2, -2, -1, 968, 876, 663,E
2025-03-10 13:16:27.060,405, 715, 201, -21, 9, 26, -1, -2, -1, 976, 905, 667,E
2025-03-10 13:16:27.111,642, 458, 369, -6, 37, 6, -1, -3, 1, 970, 880, 649,E
2025-03-10 13:16:27.167,920, 475, 486, 6, -32, 4, -1, -1, -1, 966, 753, 333,E
2025-03-10 13:16:27.218,777, 501, 107, 6, -5, 25, 0, -4, 0, 978, 901, 620,E
2025-03-10 13:16:27.271,848, 390, 302, -12, 22, 4, -2, -1, 1, 968, 890, 715,E
2025-03-10 13:16:27.334,490, 534, 516, -74, 49, -63, 1, -3, -3, 957, 818, 575,E
2025-03-10 13:16:27.601,708, 619, 378, -7, -5, 0, -2, -2, -3, 953, 843, 513,F
2025-03-10 13:16:27.652,710, 597, 381, -8, -3, 0, 3, 3, -2, 954, 842, 510,F
2025-03-10 13:16:27.702,692, 590, 430, 1, -2, 0, -1, -3, -3, 956, 838, 511,F
2025-03-10 13:16:27.761,692, 602, 407, 0, -9, 0, 0, -1, -4, 956, 827, 568,F
2025-03-10 13:16:27.818,681, 616, 414, -26, -24, -11, -1, 1, -2, 952, 829, 559,F
2025-03-10 13:16:27.871,759, 388, 623, 17, -16, -9, 0, -1, -2, 968, 878, 563,F
2025-03-10 13:16:27.933,1266, 630, 421, 17, 49, 34, 0, -1, -1, 971, 869, 403,F
2025-03-10 13:16:27.982,732, 570, 722, -26, 4, 2, 0, -2, 1, 967, 847, 568,F
2025-03-10 13:16:28.035,543, 668, 761, 4, -40, -9, 0, -1, -3, 958, 855, 613,F
2025-03-10 13:16:28.091,597, 824, 8, 18, -17, 19, 0, -4, 1, 975, 906, 674,F
2025-03-10 13:16:28.150,612, 581, 412, 22, 10, 11, -2, -1, -1, 967, 892, 735,F
2025-03-10 13:16:28.202,502, 690, 553, -15, 6, -17, -2, -1, -1, 961, 821, 679,F
2025-03-10 13:16:28.253,1063, 801, 301, 15, 0, 13, -2, -2, 0, 976, 896, 644,F
2025-03-10 13:16:28.312,753, 736, 345, 0, 17, 30, -2, -2, 1, 967, 895, 719,F
2025-03-10 13:16:28.371,645, 528, 304, -55, 74, -54, 1, -4, -1, 950, 827, 649,F
2025-03-10 13:16:28.651,655, 560, 470, 0, -3, 2, -2, -2, -5, 949, 830, 572,G
2025-03-10 13:16:28.702,670, 584, 488, 0, -4, 2, 2, -1, -4, 948, 832, 579,G
2025-03-10 13:16:28.759,670, 612, 456, 0, -10, 3, -1, -2, -4, 948, 839, 600,G
2025-03-10 13:16:28.819,676, 585, 454, 4, -13, 4, -1, -3, -3, 955, 853, 603,G
2025-03-10 13:16:28.868,656, 615, 432, 4, -19, 9, 0, -1, -3, 956, 862, 658,G
2025-03-10 13:16:28.922,620, 503, 302, 6, -12, -18, 0, -2, -2, 963, 876, 627,G
2025-03-10 13:16:28.981,514, 374, 470, 37, -2, -19, -1, 0, -3, 966, 875, 430,G
2025-03-10 13:16:29.034,989, 718, -31, -12, 59, 48, -1, -2, -1, 973, 878, 303,G
2025-03-10 13:16:29.091,684, 484, 774, -14, -10, 5, -2, 1, -2, 971, 891, 524,G
2025-03-10 13:16:29.151,618, 453, 646, 10, -15, -11, -2, -2, -1, 975, 894, 621,G
2025-03-10 13:16:29.210,606, 581, 179, -4, 31, 24, -1, 1, -2, 978, 883, 506,G
2025-03-10 13:16:29.268,623, 472, 468, -13, -20, -37, -1, -1, -2, 962, 859, 508,G
2025-03-10 13:16:29.321,812, 613, 375, 13, -19, -10, -2, 0, -1, 968, 877, 453,G
2025-03-10 13:16:29.382,733, 605, 272, 9, 16, 35, -2, -1, -1, 974, 898, 645,G
2025-03-10 13:16:29.434,780, 514, 73, -51, 60, -55, -5, -2, -2, 964, 874, 640,G
2025-03-10 13:16:29.743,679, 603, 453, -8, -7, -1, -1, -3, -3, 948, 840, 575,H
2025-03-10 13:16:29.800,677, 583, 465, -8, -8, -1, 0, 1, -2, 949, 839, 571,H
2025-03-10 13:16:29.851,664, 619, 433, -3, -16, -6, -2, 0, -3, 941, 837, 562,H
2025-03-10 13:16:29.901,716, 577, 417, 2, -31, 5, 1, -1, -3, 942, 861, 611,H
2025-03-10 13:16:29.965,720, 520, 452, 16, -6, -8, 1, -3, -4, 963, 880, 567,H
2025-03-10 13:16:30.017,682, 654, 441, 37, 38, 25, 1, -2, -2, 969, 873, 408,H
2025-03-10 13:16:30.073,705, 614, 316, -23, 17, 7, -2, -1, -3, 967, 848, 284,H
2025-03-10 13:16:30.132,748, 516, 343, 14, -30, -30, -4, 1, -1, 957, 833, 465,H
2025-03-10 13:16:30.185,881, 774, 387, 27, -17, 9, 1, -2, 0, 970, 895, 564,H
2025-03-10 13:16:30.234,666, 604, 330, 8, 14, 19, -2, -2, 0, 971, 898, 664,H
2025-03-10 13:16:30.300,579, 532, 443, -27, -2, -34, -1, -2, -1, 964, 889, 679,H
2025-03-10 13:16:30.351,729, 866, 507, 21, -14, -1, -2, -2, 0, 971, 893, 641,H
2025-03-10 13:16:30.411,464, 733, -13, 8, 46, 33, -1, -3, 0, 975, 873, 486,H
2025-03-10 13:16:30.465,817, 490, 484, -20, 7, -13, -2, 0, -1, 964, 836, 643,H
2025-03-10 13:16:30.812,660, 604, 438, -5, -3, -7, -1, 0, -5, 929, 789, 453,I
2025-03-10 13:16:30.867,652, 605, 439, -3, -4, -6, -1, -1, -5, 929, 788, 447,I
2025-03-10 13:16:30.922,697, 593, 432, -1, -4, 2, 0, -1, -4, 928, 779, 409,I
2025-03-10 13:16:30.981,590, 573, 539, 12, -21, 7, -1, -1, -4, 934, 784, 405,I
2025-03-10 13:16:31.034,1029, 398, 377, 60, -16, -6, 0, -1, -3, 963, 875, 355,I
2025-03-10 13:16:31.092,693, 623, 484, 16, 19, 30, -2, -1, 0, 970, 891, 680,I
2025-03-10 13:16:31.148,701, 462, 327, -8, 4, -41, -1, -1, 0, 955, 852, 667,I
2025-03-10 13:16:31.206,711, -28, 584, 34, -5, -29, -1, 0, -1, 959, 855, 559,I
2025-03-10 13:16:31.259,713, 510, 166, 23, 37, 29, -1, -2, 1, 969, 862, 423,I
2025-03-10 13:16:31.312,635, 633, 390, -8, 15, 0, 0, -1, -1, 958, 777, 464,I
2025-03-10 13:16:31.367,1101, 246, 437, 25, -8, -24, 0, -2, 1, 950, 773, 207,I
2025-03-10 13:16:31.421,719, 503, -75, -24, -7, 38, -1, 1, -2, 978, 893, 480,I
2025-03-10 13:16:31.484,916, 370, 257, -37, 18, -19, -2, -1, -1, 956, 835, 541,I
2025-03-10 13:16:31.534,600, 542, 654, -50, 44, -42, 0, 0, -6, 936, 652, 48,I
2025-03-10 13:16:31.831,682, 606, 432, 2, -6, 3, -1, 0, -4, 933, 779, 401,J
2025-03-10 13:16:31.884,679, 604, 444, 2, -8, 4, 1, -1, -4, 933, 782, 405,J
2025-03-10 13:16:31.947,711, 585, 428, -1, -7, 2, -1, -1, -4, 937, 795, 430,J
2025-03-10 13:16:32.000,688, 596, 425, -4, -1, -4, -1, -1, -4, 939, 799, 392,J
2025-03-10 13:16:32.058,611, 604, 462, -6, -15, -5, -1, -1, -5, 933, 792, 361,J
2025-03-10 13:16:32.115,960, 621, 349, 50, -21, -1, -1, -3, -2, 954, 871, 447,J
2025-03-10 13:16:32.171,724, 610, 273, 2, 20, 28, -2, -1, -2, 960, 888, 626,J
2025-03-10 13:16:32.221,610, 462, 365, 1, 5, -40, -3, -1, -1, 955, 867, 637,J
2025-03-10 13:16:32.282,806, 157, 568, 25, 2, -14, -2, -2, -2, 957, 866, 558,J
2025-03-10 13:16:32.334,586, 718, 352, 7, 43, 40, -3, 0, -1, 970, 864, 203,J
2025-03-10 13:16:32.391,529, 524, 151, -66, 33, 6, -1, -2, -2, 960, 826, 49,J
2025-03-10 13:16:32.451,1116, 501, 245, 19, 16, -28, -1, -1, -3, 882, 735, 147,J
2025-03-10 13:16:32.502,557, 609, 661, -7, 6, -14, 0, -2, -7, 886, 756, 329,J
2025-03-10 13:16:32.552,543, 589, 595, -5, -25, 8, 2, 0, -5, 898, 748, 337,J
2025-03-10 13:16:32.831,671, 563, 460, -5, -5, 6, -2, 1, -5, 928, 790, 297,K
2025-03-10 13:16:32.882,678, 553, 452, -2, -6, 5, -2, 1, -5, 928, 795, 297,K
2025-03-10 13:16:32.942,670, 541, 498, -1, -16, 1, -1, 0, -3, 934, 825, 422,K
2025-03-10 13:16:32.992,732, 537, 431, 4, -12, 1, 0, 0, -6, 943, 850, 506,K
2025-03-10 13:16:33.048,718, 490, 501, 28, 9, 0, 0, 1, -4, 958, 856, 402,K
2025-03-10 13:16:33.102,604, 716, 370, 34, 29, 20, 0, -2, -2, 960, 815, 117,K
2025-03-10 13:16:33.154,720, 497, 635, 1, -2, 16, -3, -1, -2, 963, 879, 452,K
2025-03-10 13:16:33.216,711, 489, 420, -3, -23, -2, -1, -2, -3, 963, 891, 669,K
2025-03-10 13:16:33.272,690, 386, 222, -15, 24, -7, -3, -1, -3, 952, 838, 610,K
2025-03-10 13:16:33.321,645, 639, 648, 10, -23, 9, 0, -2, -2, 953, 818, 524,K
2025-03-10 13:16:33.382,641, 509, 361, 0, 11, 45, -2, -2, 0, 980, 893, 535,K
2025-03-10 13:16:33.438,638, 597, 468, 0, 20, 20, -3, -1, -2, 973, 883, 631,K
2025-03-10 13:16:33.492,619, 628, 345, -50, 44, -64, -1, 0, -7, 948, 840, 521,K
2025-03-10 13:16:33.818,669, 574, 476, 4, -10, 4, -1, -1, -6, 953, 832, 452,L
2025-03-10 13:16:33.871,675, 585, 468, 5, -11, 4, -2, 1, -7, 953, 833, 465,L
2025-03-10 13:16:33.921,682, 571, 435, 0, -13, -1, -1, -1, -5, 957, 839, 474,L
2025-03-10 13:16:33.984,696, 577, 423, -8, -13, -7, -1, 1, -4, 956, 848, 512,L
2025-03-10 13:16:34.033,721, 670, 529, -9, -9, -6, -2, 1, -5, 967, 875, 506,L
2025-03-10 13:16:34.097,781, 596, 435, 49, 16, 5, -1, -1, -5, 969, 872, 410,L
2025-03-10 13:16:34.149,530, 572, 147, 17, 23, 16, 1, -1, -2, 971, 870, 122,L
2025-03-10 13:16:34.201,687, 232, 327, 7, 9, 34, -2, -1, -2, 982, 901, 530,L
2025-03-10 13:16:34.254,687, 555, 320, 15, 8, 7, -2, -1, -1, 974, 893, 686,L
2025-03-10 13:16:34.314,710, 599, 351, -41, 61, -48, 0, -1, -5, 959, 846, 578,L
2025-03-10 13:16:34.371,560, 669, 709, -26, -1, -15, 2, 0, -5, 945, 753, 359,L
2025-03-10 13:16:34.651,679, 587, 463, -6, -8, -3, 1, 1, -5, 944, 808, 395,M
2025-03-10 13:16:34.706,682, 589, 440, -5, -8, -2, 0, -1, -5, 940, 807, 395,M
2025-03-10 13:16:34.764,687, 572, 466, 1, -10, -3, -2, 0, -6, 942, 804, 428,M
2025-03-10 13:16:34.815,659, 592, 465, 1, -15, -1, 0, -1, -4, 938, 810, 457,M
2025-03-10 13:16:34.871,744, 567, 448, 7, -25, 5, -2, -2, -3, 950, 847, 497,M
2025-03-10 13:16:34.923,849, 817, 337, 28, 24, 12, -1, 0, -4, 970, 866, 408,M
2025-03-10 13:16:34.982,821, 608, 74, 0, 23, 25, 0, 0, -2, 969, 864, 329,M
2025-03-10 13:16:35.035,678, 478, 411, 1, -44, -43, -1, -3, -2, 957, 867, 601,M
2025-03-10 13:16:35.097,754, 486, 559, -10, -13, -7, 0, -2, -3, 964, 894, 612,M
2025-03-10 13:16:35.150,904, 887, 197, 14, 29, 37, 0, 0, -2, 973, 893, 575,M
2025-03-10 13:16:35.202,690, 595, 518, -18, 5, 9, -3, -1, -4, 972, 893, 551,M
2025-03-10 13:16:35.261,733, 522, 545, -3, -11, -8, -1, -1, -3, 968, 894, 653,M
2025-03-10 13:16:35.319,922, 820, 200, 8, 40, 38, -3, -2, -2, 974, 887, 549,M
2025-03-10 13:16:35.371,947, 349, 372, -34, 19, -23, -3, -1, -3, 971, 884, 601,M
2025-03-10 13:16:35.432,645, 564, 562, -41, 47, -50, 1, 0, -5, 949, 855, 541,M
2025-03-10 13:16:35.486,459, 605, 728, -12, 2, -9, 2, 0, -10, 938, 824, 420,M
2025-03-10 13:16:35.542,632, 579, 565, 18, -31, 14, 3, -1, -7, 934, 804, 405,M
2025-03-10 13:16:35.597,759, 577, 358, 6, -10, 5, 0, -2, -7, 936, 798, 403,M
2025-03-10 13:16:35.650,684, 599, 458, -5, 8, -5, 1, 0, -6, 924, 767, 388,M
2025-03-10 13:16:35.703,638, 577, 537, -6, 3, -3, 1, 0, -8, 916, 728, 282,M
2025-03-10 13:16:35.992,721, 590, 397, 1, -4, 2, -2, -1, -5, 930, 779, 372,N
2025-03-10 13:16:36.047,719, 583, 423, 0, -3, 2, -1, 0, -4, 931, 780, 377,N
2025-03-10 13:16:36.100,682, 583, 459, -1, -2, -1, 0, -1, -5, 931, 783, 400,N
2025-03-10 13:16:36.154,686, 601, 446, 0, -11, 0, -1, -1, -4, 935, 795, 445,N
2025-03-10 13:16:36.211,660, 575, 480, -3, -21, -3, -1, -1, -5, 937, 816, 508,N
2025-03-10 13:16:36.269,669, 599, 581, 27, -4, -10, -1, -1, -3, 960, 857, 524,N
2025-03-10 13:16:36.325,897, 545, 447, -6, 31, 32, -2, -1, -2, 971, 854, 69,N
2025-03-10 13:16:36.380,763, 468, 530, -21, 5, 3, 0, 0, -2, 961, 837, 287,N
2025-03-10 13:16:36.436,611, 698, 596, -9, -28, -12, -1, 0, -3, 955, 861, 554,N
2025-03-10 13:16:36.489,809, 873, 177, 41, 16, 38, -1, -2, -1, 972, 883, 519,N
2025-03-10 13:16:36.541,724, 492, 236, -6, 21, 27, -2, 0, -3, 972, 867, 359,N
2025-03-10 13:16:36.601,867, 423, 660, 33, -46, -44, -2, -2, -5, 961, 881, 581,N
2025-03-10 13:16:36.661,919, 438, 62, -22, 68, -18, -2, -2, -3, 947, 846, 663,N
2025-03-10 13:16:36.961,711, 560, 417, 10, -5, 3, -2, 0, -4, 956, 787, 472,O
2025-03-10 13:16:37.014,718, 565, 411, 9, -4, 2, -1, -1, -5, 954, 786, 492,O
2025-03-10 13:16:37.066,696, 545, 453, 7, -1, 0, -1, -1, -6, 957, 785, 563,O
2025-03-10 13:16:37.121,713, 586, 433, -3, -1, 0, -1, -1, -2, 953, 792, 576,O
2025-03-10 13:16:37.172,717, 557, 434, 0, -4, 4, -2, -1, -3, 956, 810, 600,O
2025-03-10 13:16:37.231,697, 619, 380, -1, -6, -6, -1, -2, -4, 959, 842, 579,O
2025-03-10 13:16:37.291,642, 556, 560, -6, -18, -22, -2, -2, -2, 963, 866, 412,O
2025-03-10 13:16:37.349,1095, 863, 147, 44, 12, 14, -1, -2, -1, 969, 861, 330,O
2025-03-10 13:16:37.401,778, 828, 531, -49, 30, 41, -2, -1, -2, 974, 890, 402,O
2025-03-10 13:16:37.459,529, 548, 426, 27, -29, -30, -4, 1, -4, 965, 886, 620,O
2025-03-10 13:16:37.521,823, 596, 245, -45, 91, -55, -1, -1, -4, 943, 844, 478,O
2025-03-10 13:16:37.781,702, 598, 412, 1, -3, 2, 0, -2, -4, 933, 780, 440,P
2025-03-10 13:16:37.841,712, 585, 406, -1, -3, 2, 0, -1, -4, 934, 779, 437,P
2025-03-10 13:16:37.893,677, 579, 446, 0, -2, -1, 0, 0, -5, 935, 782, 434,P
2025-03-10 13:16:37.947,682, 590, 454, -1, -8, 3, -1, 0, -5, 937, 781, 439,P
2025-03-10 13:16:38.001,682, 573, 423, -3, -12, -3, -2, -2, -3, 935, 787, 473,P
2025-03-10 13:16:38.061,1347, 419, 445, -10, -7, -14, -1, 0, -4, 944, 820, 420,P
2025-03-10 13:16:38.116,1134, 745, 273, 45, 38, 38, -1, -2, -2, 969, 850, 276,P
2025-03-10 13:16:38.171,676, 473, 307, -23, 30, 14, 0, -1, -3, 968, 859, 258,P
2025-03-10 13:16:38.232,818, 673, 378, 3, -43, -48, -2, -1, -5, 960, 874, 578,P
2025-03-10 13:16:38.283,578, 557, 612, 7, -25, 2, -2, -1, -3, 974, 897, 587,P
2025-03-10 13:16:38.341,692, 684, 83, 3, 39, 25, -3, -1, -2, 977, 894, 368,P
2025-03-10 13:16:38.398,1046, 318, 398, -4, 23, -18, -3, 1, -4, 959, 847, 409,P
2025-03-10 13:16:38.724,711, 553, 456, 0, -5, 4, -1, -1, -3, 949, 807, 498,Q
2025-03-10 13:16:38.780,708, 553, 438, 2, -6, 3, -2, 0, -3, 951, 807, 496,Q
2025-03-10 13:16:38.832,674, 536, 457, 2, -9, 5, 0, 0, -3, 950, 817, 523,Q
2025-03-10 13:16:38.881,606, 593, 436, -3, -13, -19, -2, -1, -2, 959, 868, 410,Q
2025-03-10 13:16:38.947,1124, 439, 211, 55, 2, -14, -2, -2, -2, 970, 873, 127,Q
2025-03-10 13:16:39.000,1078, 572, 76, -1, 52, 43, -2, -2, -1, 974, 880, 307,Q
2025-03-10 13:16:39.057,574, 550, 621, -16, 1, -3, -2, -1, -4, 970, 891, 463,Q
2025-03-10 13:16:39.114,665, 660, 343, -6, -14, -16, -1, -2, -3, 957, 881, 498,Q
2025-03-10 13:16:39.171,583, 561, 528, -29, 54, -9, 0, -1, -4, 956, 856, 394,Q
2025-03-10 13:16:39.230,553, 712, 602, 33, -55, 33, 0, -1, -3, 964, 865, 464,Q
2025-03-10 13:16:39.281,916, 523, 374, 14, -2, 6, -1, 0, -3, 974, 892, 374,Q
2025-03-10 13:16:39.332,542, 598, 390, -16, 22, 43, -4, 1, -1, 975, 886, 337,Q
2025-03-10 13:16:39.397,837, 429, 162, -36, 47, -49, -2, 0, -3, 962, 855, 330,Q
2025-03-10 13:16:39.451,613, 570, 702, -15, 27, -52, 1, -3, -6, 933, 765, 196,Q
2025-03-10 13:16:39.731,691, 567, 457, 3, -14, 3, -3, 0, -4, 944, 819, 405,R
2025-03-10 13:16:39.783,705, 565, 427, 1, -14, 2, -1, 1, -5, 941, 820, 408,R
2025-03-10 13:16:39.842,652, 542, 477, -2, -18, -2, -1, -1, -4, 946, 833, 410,R
2025-03-10 13:16:39.901,710, 566, 388, -8, -8, -12, -1, -1, -4, 952, 868, 402,R
2025-03-10 13:16:39.954,814, 876, 368, 43, 20, 26, -1, 0, -2, 966, 873, 409,R
2025-03-10 13:16:40.011,694, 848, 107, -21, 32, 30, -1, -2, -1, 971, 858, 193,R
2025-03-10 13:16:40.064,851, 288, 758, 21, -44, -58, -1, 1, -3, 958, 855, 428,R
2025-03-10 13:16:40.121,819, 781, 702, 5, -34, 4, 0, -2, -2, 972, 897, 613,R
2025-03-10 13:16:40.179,673, 666, 244, 5, 24, 29, -3, -2, -1, 972, 890, 509,R
2025-03-10 13:16:40.231,879, 547, 199, -25, 23, 15, -2, -1, -1, 978, 884, 151,R
2025-03-10 13:16:40.281,763, 478, 564, -2, 17, 34, -2, -1, -4, 980, 890, 188,R
2025-03-10 13:16:40.351,540, 488, 554, -32, 50, -51, -2, -1, -5, 957, 862, 195,R
2025-03-10 13:16:40.631,715, 611, 448, 9, -4, 6, 1, 0, -5, 956, 865, 572,S
2025-03-10 13:16:40.682,697, 594, 443, 8, -5, 7, 1, 0, -5, 956, 865, 581,S
2025-03-10 13:16:40.731,764, 550, 378, 3, -4, 4, -3, 0, -4, 948, 863, 617,S
2025-03-10 13:16:40.791,668, 606, 455, 4, -11, 8, -4, -2, -3, 956, 870, 635,S
2025-03-10 13:16:40.847,730, 700, 408, -7, -6, -7, -2, -2, -3, 958, 878, 614,S
2025-03-10 13:16:40.901,471, 466, 389, 26, -6, -17, -2, -1, -1, 965, 880, 527,S
2025-03-10 13:16:40.962,831, 756, 368, 10, 36, 20, -1, -1, -1, 973, 885, 503,S
2025-03-10 13:16:41.014,609, 711, 426, -14, 20, 19, -2, -1, -2, 977, 887, 374,S
2025-03-10 13:16:41.071,857, 551, 321, 3, 16, 0, -1, 0, -1, 960, 831, 355,S
2025-03-10 13:16:41.129,673, 534, 406, -60, 71, -52, 0, -2, -5, 939, 787, 278,S
2025-03-10 13:16:41.181,355, 690, 750, 4, -20, -6, 2, -1, -6, 940, 783, 366,S
2025-03-10 13:16:41.441,718, 574, 452, -3, -3, 0, -2, -2, -4, 937, 800, 412,T
2025-03-10 13:16:41.495,713, 567, 431, -2, -3, 0, -2, 1, -3, 936, 800, 417,T
2025-03-10 13:16:41.551,690, 577, 439, -3, 0, -2, -3, -1, -3, 942, 798, 408,T
2025-03-10 13:16:41.605,693, 581, 410, -3, -2, 0, -1, 0, -4, 936, 791, 409,T
2025-03-10 13:16:41.662,702, 578, 436, -1, -2, 0, -2, -2, -3, 934, 782, 399,T
2025-03-10 13:16:41.714,687, 572, 448, -3, -1, -3, -1, -1, -4, 932, 783, 394,T
2025-03-10 13:16:41.771,692, 588, 427, -7, -4, -6, 0, -1, -4, 935, 780, 298,T
2025-03-10 13:16:41.821,579, 563, 561, 0, -23, 2, 0, 0, -2, 931, 787, 252,T
2025-03-10 13:16:41.879,1023, 443, 458, 44, -21, -2, 0, 1, -3, 969, 878, 343,T
2025-03-10 13:16:41.932,589, 635, 349, 9, 11, 31, -2, -1, -3, 965, 887, 593,T
2025-03-10 13:16:41.991,732, 349, 313, -11, 16, -42, -3, -3, 0, 959, 866, 617,T
2025-03-10 13:16:42.051,647, 560, 736, 22, -38, 29, -2, -3, -1, 962, 871, 513,T
2025-03-10 13:16:42.101,427, 511, 122, 27, 35, 35, -3, -1, 1, 979, 872, 280,T
2025-03-10 13:16:42.162,799, 623, 577, -15, 22, 4, -4, -2, -1, 961, 844, 425,T
2025-03-10 13:16:42.214,592, 545, 574, -31, 39, -38, -2, -2, -4, 939, 815, 398,T
2025-03-10 13:16:42.510,706, 568, 423, -4, -4, -3, -1, 1, -5, 941, 811, 405,U
2025-03-10 13:16:42.564,702, 553, 420, -2, -4, -4, -2, -2, -2, 941, 813, 404,U
2025-03-10 13:16:42.622,712, 582, 430, -5, -1, -5, -1, -1, -2, 944, 820, 396,U
2025-03-10 13:16:42.681,704, 565, 440, -12, -3, -8, -1, -1, -2, 942, 813, 306,U
2025-03-10 13:16:42.731,729, 540, 471, -11, -20, 1, -1, 1, -4, 950, 832, 43,U
2025-03-10 13:16:42.781,844, 678, 353, 36, 10, 14, -3, 0, -3, 966, 861, 79,U
2025-03-10 13:16:42.846,733, 643, 242, 0, 21, 30, -2, -2, -2, 968, 872, 279,U
2025-03-10 13:16:42.901,536, 472, 594, 11, -27, -24, -3, 0, -3, 962, 874, 503,U
2025-03-10 13:16:42.957,630, 606, 303, 37, 7, 3, -3, 0, -2, 971, 874, 486,U
2025-03-10 13:16:43.006,782, 589, 76, 4, 30, 22, -4, -1, -1, 966, 858, 456,U
2025-03-10 13:16:43.065,778, 493, 179, -38, 32, -56, -4, -2, -3, 961, 843, 500,U
2025-03-10 13:16:43.341,711, 593, 421, -4, -1, -2, -1, -2, -4, 935, 787, 301,V
2025-03-10 13:16:43.403,714, 586, 428, -5, -1, -1, -2, -1, -4, 934, 787, 300,V
2025-03-10 13:16:43.451,678, 554, 473, -5, 1, -2, -2, -1, -4, 938, 784, 284,V
2025-03-10 13:16:43.514,698, 582, 416, -4, -2, -1, -1, -1, -3, 934, 786, 296,V
2025-03-10 13:16:43.566,691, 565, 429, -3, -2, 0, -1, 0, -3, 938, 787, 270,V
2025-03-10 13:16:43.623,706, 574, 432, 1, -5, -1, -1, -1, -1, 943, 790, 203,V
2025-03-10 13:16:43.678,640, 547, 498, 2, -21, -5, -2, -2, -2, 937, 817, 271,V
2025-03-10 13:16:43.731,775, 536, 472, -5, -8, -6, -1, -1, -2, 960, 869, 137,V
2025-03-10 13:16:43.791,810, 781, 349, 19, 44, 49, -3, -1, -2, 970, 875, 176,V
2025-03-10 13:16:43.849,756, 757, 393, -15, 16, 16, -1, -1, -1, 965, 874, 259,V
2025-03-10 13:16:43.905,710, 638, 399, -12, -25, -17, -1, -1, -1, 961, 884, 506,V
2025-03-10 13:16:43.965,730, 604, 359, -5, -6, -5, -3, -1, -3, 964, 887, 480,V
2025-03-10 13:16:44.016,731, 608, 426, -10, 2, 3, -3, -1, -3, 961, 887, 476,V
2025-03-10 13:16:44.072,735, 520, 449, -11, -3, -2, -1, -2, -3, 972, 894, 432,V
2025-03-10 13:16:44.128,725, 563, 421, 5, -2, -1, -2, 0, -2, 963, 889, 480,V
2025-03-10 13:16:44.181,792, 646, 347, 9, 6, 6, -2, -1, -2, 953, 872, 548,V
2025-03-10 13:16:44.234,765, 551, 319, -45, 62, -40, -2, -1, -3, 941, 845, 463,V
2025-03-10 13:16:44.296,460, 623, 755, -17, 15, -14, 1, -1, -8, 931, 787, 363,V
2025-03-10 13:16:44.611,683, 591, 451, 4, 0, 1, -1, 0, -4, 940, 763, 317,W
2025-03-10 13:16:44.664,682, 595, 442, 4, 0, 1, 0, -1, -4, 943, 762, 300,W
2025-03-10 13:16:44.718,684, 574, 439, 4, 1, -2, -1, -2, -4, 942, 727, 271,W
2025-03-10 13:16:44.771,696, 597, 428, 2, -8, -3, 0, -2, -3, 931, 699, 252,W
2025-03-10 13:16:44.829,694, 583, 422, -6, -9, -3, 0, -2, -4, 931, 700, 160,W
2025-03-10 13:16:44.881,722, 553, 395, 2, -24, 4, 0, -2, -3, 941, 787, 213,W
2025-03-10 13:16:44.931,785, 439, 523, 20, -9, -8, 1, -1, -2, 965, 862, 202,W
2025-03-10 13:16:44.992,617, 602, 402, 17, 32, 43, -1, -1, -1, 965, 860, 202,W
2025-03-10 13:16:45.046,741, 492, 766, 1, -35, -8, -2, -2, -3, 966, 874, 374,W
2025-03-10 13:16:45.106,683, 348, 774, 32, -23, -11, -2, -2, 0, 969, 879, 601,W
2025-03-10 13:16:45.157,791, 451, 147, -11, 25, 23, -2, -2, 1, 974, 870, 447,W
2025-03-10 13:16:45.214,612, 484, 742, -7, -13, 0, -3, -2, -1, 965, 882, 528,W
2025-03-10 13:16:45.271,725, 443, 269, -40, 77, -45, -3, -2, -1, 955, 848, 528,W
2025-03-10 13:16:45.557,584, 623, 490, 8, -14, -3, -1, -2, -2, 890, 35, 311,X
2025-03-10 13:16:45.612,574, 616, 470, 9, -17, -3, 0, -2, -2, 888, 39, 315,X
2025-03-10 13:16:45.664,1063, 709, 246, 7, -30, 1, -2, -3, -1, 888, 42, 376,X
2025-03-10 13:16:45.721,651, 668, 363, -2, -2, 15, -1, -2, -1, 902, 237, 439,X
2025-03-10 13:16:45.778,698, 546, 464, -4, -12, 18, -1, -2, -1, 925, 690, 448,X
2025-03-10 13:16:45.831,792, 557, 278, -3, -10, 14, -1, -1, -2, 936, 810, 452,X
2025-03-10 13:16:45.892,681, 538, 417, -4, -10, -1, -1, -1, 0, 948, 859, 524,X
2025-03-10 13:16:45.946,719, 568, 422, -3, -11, -9, -2, -4, 0, 954, 882, 487,X
2025-03-10 13:16:46.001,456, 669, 373, 33, 21, 3, -1, -2, 0, 970, 878, 256,X
2025-03-10 13:16:46.061,1000, 686, -135, -27, 49, 24, -3, -1, 2, 965, 850, 46,X
2025-03-10 13:16:46.114,633, 266, 644, -11, -39, -50, -2, -2, -1, 925, 813, 481,X
2025-03-10 13:16:46.171,806, 402, 503, -18, -23, -8, -1, -1, -1, 958, 869, 369,X
2025-03-10 13:16:46.231,435, 717, 247, 6, 35, 58, -3, -1, -1, 974, 895, 401,X
2025-03-10 13:16:46.281,749, 341, 512, -11, 1, -29, -3, -1, -2, 961, 867, 502,X
2025-03-10 13:16:46.347,678, 576, 553, -28, 32, -64, -1, -1, -3, 907, 784, 374,X
2025-03-10 13:16:46.581,704, 570, 437, -5, -2, 1, -2, -1, -2, 915, 770, 337,Y
2025-03-10 13:16:46.641,705, 555, 432, -5, -2, 0, 0, -1, -3, 916, 768, 330,Y
2025-03-10 13:16:46.697,684, 566, 409, -8, -2, -2, -1, -1, -5, 918, 775, 308,Y
2025-03-10 13:16:46.751,696, 565, 446, 1, -2, -2, -1, -1, -4, 919, 792, 333,Y
2025-03-10 13:16:46.811,696, 603, 415, -8, -1, -7, -1, -1, -4, 916, 791, 321,Y
2025-03-10 13:16:46.863,612, 608, 501, -15, -10, -3, -1, 0, -6, 925, 790, 213,Y
2025-03-10 13:16:46.925,829, 851, 420, 15, -15, -14, -1, 1, -3, 950, 851, 154,Y
2025-03-10 13:16:46.979,750, 509, 395, 17, 20, 31, -1, -1, -2, 967, 888, 534,Y
2025-03-10 13:16:47.031,702, 386, 319, -23, 26, -33, -2, -2, -1, 959, 882, 642,Y
2025-03-10 13:16:47.096,462, 608, 769, 19, -43, 33, -3, -1, -3, 963, 880, 640,Y
2025-03-10 13:16:47.146,424, 858, 184, 22, 21, 22, -2, -1, -1, 978, 879, 267,Y
2025-03-10 13:16:47.206,790, 471, 281, 11, 36, 7, -2, -1, -2, 966, 845, 246,Y
2025-03-10 13:16:47.263,938, 435, 204, -33, 23, -42, 0, -2, -1, 936, 808, 419,Y
2025-03-10 13:16:47.313,530, 600, 687, -28, 9, -27, 1, -1, -5, 932, 821, 365,Y
2025-03-10 13:16:47.371,594, 547, 604, 3, -25, 12, -2, 1, -5, 931, 820, 304,Y
2025-03-10 13:16:47.703,703, 587, 453, 1, -5, 3, 0, -1, -5, 944, 831, 333,Z
2025-03-10 13:16:47.760,705, 582, 437, 2, -5, 3, -1, -1, -3, 941, 831, 348,Z
2025-03-10 13:16:47.814,704, 568, 426, -2, -4, -1, -2, -1, -5, 945, 837, 350,Z
2025-03-10 13:16:47.871,608, 570, 520, 3, -9, 2, -1, -1, -4, 949, 838, 313,Z
2025-03-10 13:16:47.929,713, 202, 103, 41, -8, -25, -2, -1, -3, 959, 850, 206,Z
2025-03-10 13:16:47.981,900, 766, 473, 40, 2, 10, -1, -2, -1, 973, 893, 516,Z
2025-03-10 13:16:48.031,570, 724, 356, 48, 13, 17, -2, -1, -1, 967, 886, 611,Z
2025-03-10 13:16:48.091,462, 597, 263, -28, 12, -11, -2, -2, 0, 965, 819, 41,Z
2025-03-10 13:16:48.151,1132, 1165, 576, 25, -9, 30, -1, -1, -2, 973, 892, 271,Z
2025-03-10 13:16:48.205,712, 408, 371, 13, 0, 20, -2, -3, 1, 980, 908, 513,Z
2025-03-10 13:16:48.263,715, 597, 317, -18, 16, -5, -4, -2, 2, 959, 879, 535,Z
2025-03-10 13:16:48.322,556, 650, 681, -44, -4, -51, -1, -2, -1, 942, 765, 357,Z
2025-03-10 13:16:48.380,903, 1259, 505, 27, -32, 11, -1, -2, -1, 966, 878, 426,Z
2025-03-10 13:16:48.431,425, 595, 354, 7, 8, 28, -1, -2, 1, 979, 906, 527,Z
2025-03-10 13:16:48.481,687, 668, 396, 10, 16, 8, -3, -3, -1, 957, 877, 624,Z
2025-03-10 13:16:48.543,717, 585, 411, -66, 72, -49, -2, 0, -4, 927, 736, 365,Z
2025-03-10 13:16:48.601,482, 634, 728, -23, 9, -19, 2, 0, -7, 910, 565, 78,Z
2025-03-10 13:16:48.931,490, 812, 416, 21, -32, -8, 6, -4, -1, 826, 437, 93,a
2025-03-10 13:16:48.985,483, 803, 445, 25, -34, 0, 2, -2, 0, 829, 441, 75,a
2025-03-10 13:16:49.033,501, 820, 198, 13, -22, 42, 4, -3, -2, 859, 483, 28,a
2025-03-10 13:16:49.091,655, 526, 264, -2, 2, 50, 0, -3, 1, 870, 559, 55,a
2025-03-10 13:16:49.144,640, 657, 138, -13, 53, 46, 1, -1, 0, 882, 600, 40,a
2025-03-10 13:16:49.203,718, 629, 605, 1, 22, 33, -1, -3, -2, 889, 624, 51,a
2025-03-10 13:16:49.255,734, 623, 257, -21, 30, 14, -1, -2, -1, 913, 683, 176,a
2025-03-10 13:16:49.312,727, 651, 500, 10, -7, 18, 0, -2, -2, 921, 709, 263,a
2025-03-10 13:16:49.363,694, 555, 426, 11, -20, 14, -1, -2, -1, 928, 737, 279,a
2025-03-10 13:16:49.428,577, 703, 456, -7, -8, -18, -1, -2, 0, 939, 824, 212,a
2025-03-10 13:16:49.479,511, 530, 319, 10, -4, -16, 1, -3, 1, 962, 844, 34,a
2025-03-10 13:16:49.531,813, 716, 32, -29, 37, 31, -3, -2, 0, 965, 853, 48,a
2025-03-10 13:16:49.591,562, 278, 501, 15, -32, -23, -4, -1, -1, 965, 870, 311,a
2025-03-10 13:16:49.645,730, 703, 322, 24, -12, -2, -1, -1, -1, 966, 875, 443,a
2025-03-10 13:16:49.706,796, 623, 265, -19, 24, 22, 0, 1, -1, 961, 869, 359,a
2025-03-10 13:16:49.763,658, 580, 317, -32, 21, -43, -1, 0, -2, 952, 859, 446,a
2025-03-10 13:16:50.041,704, 587, 429, -13, -1, -6, -2, -1, -4, 938, 817, 357,b
2025-03-10 13:16:50.095,697, 577, 432, -12, -2, -6, -1, 0, -5, 935, 816, 352,b
2025-03-10 13:16:50.151,657, 602, 439, -3, -9, -10, -1, 0, -4, 935, 807, 305,b
2025-03-10 13:16:50.211,692, 584, 433, 28, -17, -9, 0, -1, -4, 925, 809, 396,b
2025-03-10 13:16:50.261,707, 653, 357, -5, 1, -2, 0, 0, -3, 946, 842, 166,b
2025-03-10 13:16:50.313,772, 532, 547, 47, 18, 5, 0, -1, -3, 956, 849, 167,b
2025-03-10 13:16:50.364,321, 358, 456, 11, 36, 36, -1, -1, -1, 957, 830, 39,b
2025-03-10 13:16:50.428,716, 270, 835, 7, -14, -16, -1, -1, -3, 945, 833, 191,b
2025-03-10 13:16:50.481,527, 547, 505, -6, -20, -4, -1, -2, -1, 962, 875, 542,b
2025-03-10 13:16:50.541,539, 864, 191, -45, 30, 31, -1, -2, -2, 974, 879, 180,b
2025-03-10 13:16:50.596,782, 506, 424, -23, 25, 5, 1, 0, -4, 954, 747, 22,b
2025-03-10 13:16:50.651,806, 539, 295, -26, 52, -35, -1, 1, -4, 926, 784, 290,b
2025-03-10 13:16:51.087,669, 561, 493, -1, 2, -2, -1, -1, -5, 927, 768, 160,c
2025-03-10 13:16:51.132,665, 575, 497, 0, 1, -2, 1, -2, -6, 928, 767, 160,c
2025-03-10 13:16:51.194,722, 595, 408, -1, -3, 0, 0, -1, -5, 927, 769, 184,c
2025-03-10 13:16:51.247,686, 574, 464, -5, 2, -2, -1, -2, -4, 927, 775, 83,c
2025-03-10 13:16:51.298,695, 589, 439, 1, -2, 3, 0, -1, -5, 928, 768, 42,c
2025-03-10 13:16:51.347,707, 581, 432, 0, -2, 2, -2, 1, -4, 933, 779, 78,c
2025-03-10 13:16:51.401,696, 557, 474, 2, -6, 2, -1, 0, -5, 935, 788, 120,c
2025-03-10 13:16:51.455,649, 564, 478, 3, -11, 4, 0, 1, -2, 935, 808, 52,c
2025-03-10 13:16:51.513,825, 760, 498, -7, -8, -17, -2, -1, -3, 953, 853, 34,c
2025-03-10 13:16:51.564,1024, 511, 544, 50, 2, -3, -2, 0, -3, 966, 859, 33,c
2025-03-10 13:16:51.613,972, 1041, 74, -5, 40, 45, -2, -2, -1, 967, 874, 50,c
2025-03-10 13:16:51.677,870, 375, 295, -1, 6, -38, -1, -2, -4, 957, 864, 478,c
2025-03-10 13:16:51.732,521, 586, 721, -26, 30, -27, 0, -1, -7, 927, 825, 378,c
2025-03-10 13:16:51.783,560, 602, 577, -2, -19, 8, 2, 0, -8, 921, 791, 278,c
2025-03-10 13:16:52.068,696, 545, 496, 0, -4, 3, -2, -1, -5, 931, 787, 103,d
2025-03-10 13:16:52.122,690, 547, 469, 2, -5, 2, -2, -2, -5, 935, 789, 142,d
2025-03-10 13:16:52.176,681, 578, 454, 0, -4, 3, 0, 0, -5, 937, 800, 198,d
2025-03-10 13:16:52.231,676, 559, 472, 9, -14, 7, -1, -1, -5, 944, 817, 193,d
2025-03-10 13:16:52.281,831, 676, 347, -12, -4, -10, -1, 1, -5, 952, 852, 43,d
2025-03-10 13:16:52.344,568, 436, 625, -11, -12, -19, -2, 1, -2, 962, 870, 28,d
2025-03-10 13:16:52.401,857, 895, -48, 41, 19, 12, -1, -1, -2, 971, 855, 23,d
2025-03-10 13:16:52.459,612, 612, 359, -38, 16, 29, -1, -1, -3, 970, 886, 266,d
2025-03-10 13:16:52.511,882, 560, 663, -15, -34, -26, -2, 0, -4, 958, 887, 626,d
2025-03-10 13:16:52.561,844, 770, 208, 32, 4, 0, 1, 1, -3, 972, 876, 468,d
2025-03-10 13:16:52.621,790, 883, 136, 0, 31, 33, -1, 0, -2, 972, 871, 384,d
2025-03-10 13:16:52.679,746, 512, 314, -19, 3, -38, -3, -1, -5, 961, 854, 465,d
2025-03-10 13:16:52.732,607, 607, 580, -12, 5, -13, -1, -2, -6, 944, 847, 439,d
2025-03-10 13:16:53.011,700, 583, 437, -3, 0, 0, -2, 1, -4, 937, 793, 265,e
2025-03-10 13:16:53.062,698, 580, 432, -3, 1, 0, 0, -1, -5, 937, 789, 263,e
2025-03-10 13:16:53.115,684, 593, 446, -2, 0, -1, 1, -1, -4, 936, 786, 261,e
2025-03-10 13:16:53.172,679, 575, 446, -2, -1, -1, 0, 0, -4, 936, 782, 214,e
2025-03-10 13:16:53.222,672, 587, 449, -2, -2, 2, -1, -3, -3, 938, 784, 195,e
2025-03-10 13:16:53.281,951, 658, 354, 23, -2, -9, -1, 0, -4, 959, 825, 35,e
2025-03-10 13:16:53.331,806, 634, 348, -7, 11, 13, -1, -1, -2, 965, 874, 313,e
2025-03-10 13:16:53.394,466, 572, 681, -13, -18, -15, -2, 1, -3, 963, 881, 433,e
2025-03-10 13:16:53.445,785, 404, 527, 18, -1, -18, -2, -1, -3, 972, 870, 29,e
2025-03-10 13:16:53.501,668, 523, 333, -3, 23, 27, 0, 0, -3, 976, 883, 36,e
2025-03-10 13:16:53.560,646, 419, 569, 7, -18, -9, -3, 1, -5, 964, 873, 437,e
2025-03-10 13:16:53.612,569, 530, 639, -33, 37, -22, 0, -1, -6, 924, 825, 350,e
2025-03-10 13:16:53.921,708, 536, 461, -3, 0, 1, -1, -2, -4, 937, 822, 281,f
2025-03-10 13:16:53.979,700, 541, 460, -1, 0, 1, 0, -1, -4, 939, 820, 276,f
2025-03-10 13:16:54.031,713, 549, 455, -1, -1, -1, -2, -1, -5, 939, 822, 265,f
2025-03-10 13:16:54.081,695, 577, 482, 1, -1, 2, -1, -1, -5, 938, 823, 273,f
2025-03-10 13:16:54.143,723, 552, 431, 0, 0, 1, -2, -1, -4, 945, 832, 204,f
2025-03-10 13:16:54.196,693, 588, 371, -11, 7, -1, -2, -1, -2, 949, 854, 32,f
2025-03-10 13:16:54.251,681, 669, 166, 15, -41, -42, 0, -1, -6, 955, 892, 455,f
2025-03-10 13:16:54.311,715, 548, 561, -3, -24, 1, -1, -1, -4, 969, 904, 599,f
2025-03-10 13:16:54.364,616, 704, 311, 5, 26, 25, -1, -1, -4, 971, 894, 600,f
2025-03-10 13:16:54.421,592, 592, 434, 3, 22, -30, -1, -1, -4, 957, 845, 478,f
2025-03-10 13:16:54.479,776, 873, 402, 1, -13, -6, 0, -1, -3, 965, 877, 506,f
2025-03-10 13:16:54.532,673, 474, 436, -1, 7, 19, -1, -1, -4, 974, 898, 635,f
2025-03-10 13:16:54.581,744, 545, 232, -23, 37, -35, -2, -1, -1, 957, 855, 610,f
2025-03-10 13:16:54.881,694, 592, 455, -3, 0, 1, -1, -1, -4, 941, 814, 375,g
2025-03-10 13:16:54.934,696, 598, 452, -4, -1, 2, 1, -2, -2, 943, 814, 363,g
2025-03-10 13:16:54.991,691, 571, 433, 0, -2, 3, -1, -1, -4, 944, 816, 388,g
2025-03-10 13:16:55.044,688, 568, 418, 4, -3, 3, -3, 0, -4, 949, 834, 442,g
2025-03-10 13:16:55.101,699, 590, 447, -12, -1, -8, -1, 0, -2, 957, 864, 294,g
2025-03-10 13:16:55.153,658, 522, 360, 11, -3, -11, 0, 0, -3, 969, 872, 29,g
2025-03-10 13:16:55.211,641, 799, 235, -36, 32, 33, -2, -1, -3, 973, 881, 49,g
2025-03-10 13:16:55.266,561, 368, 554, -7, -12, -9, -1, 0, -3, 967, 881, 399,g
2025-03-10 13:16:55.321,703, 487, 507, 22, -9, -7, 0, -1, -4, 972, 882, 478,g
2025-03-10 13:16:55.376,872, 762, 347, -39, 41, 42, -1, -1, -2, 976, 878, 43,g
2025-03-10 13:16:55.432,699, 381, 352, -36, 17, -3, -2, 0, -5, 961, 770, 40,g
2025-03-10 13:16:55.483,877, 557, 233, -44, 48, -38, -1, 0, -5, 901, 727, 24,g
2025-03-10 13:16:55.731,722, 573, 451, 0, -4, 3, 0, -1, -9, 879, 690, 53,h
2025-03-10 13:16:55.781,717, 573, 441, -3, -2, 3, 1, 1, -7, 879, 677, 51,h
2025-03-10 13:16:55.836,685, 578, 514, -11, 3, 0, 0, 0, -8, 883, 664, 42,h
2025-03-10 13:16:55.893,660, 561, 525, 1, -2, -1, 0, 2, -7, 880, 662, 46,h
2025-03-10 13:16:55.945,683, 540, 491, 0, -3, -3, 1, 0, -7, 871, 664, 38,h
2025-03-10 13:16:55.995,652, 569, 502, -1, -7, -5, 1, 0, -8, 869, 699, 31,h
2025-03-10 13:16:56.048,622, 511, 552, 7, -25, -3, 0, 1, -8, 873, 749, 54,h
2025-03-10 13:16:56.102,807, 424, 434, -1, -31, 10, -1, 0, -6, 932, 831, 168,h
2025-03-10 13:16:56.161,828, 664, 417, 22, 38, 37, -1, 0, -4, 966, 853, 50,h
2025-03-10 13:16:56.212,755, 573, 258, -7, 9, 10, -3, 0, -4, 966, 851, 53,h
2025-03-10 13:16:56.261,811, 507, 74, 5, -36, -37, -1, -1, -5, 964, 868, 391,h
2025-03-10 13:16:56.326,595, 943, 174, 4, 20, 28, -2, -1, -5, 974, 882, 203,h
2025-03-10 13:16:56.377,941, 322, 335, -27, 20, -6, -3, 0, -4, 971, 836, 256,h
2025-03-10 13:16:56.431,638, 538, 646, -36, 48, -46, -1, 0, -8, 937, 788, 278,h
2025-03-10 13:16:56.737,699, 543, 460, 0, -1, 3, 0, 1, -7, 931, 756, 194,i
2025-03-10 13:16:56.782,687, 527, 468, 1, 0, 2, -1, 1, -5, 933, 761, 198,i
2025-03-10 13:16:56.843,694, 551, 482, 2, -2, 1, -2, 1, -6, 932, 769, 222,i
2025-03-10 13:16:56.895,707, 536, 467, -1, -3, 0, -1, 1, -6, 933, 780, 233,i
2025-03-10 13:16:56.951,645, 549, 505, -1, -11, -2, -1, -1, -7, 936, 805, 211,i
2025-03-10 13:16:57.009,779, 397, 474, 0, -6, -13, -2, -1, -5, 960, 850, 155,i
2025-03-10 13:16:57.061,821, 670, 316, -27, 29, 36, -4, 0, -6, 977, 867, 36,i
2025-03-10 13:16:57.113,768, 57, 643, -5, -18, -37, -3, 1, -7, 970, 831, 34,i
2025-03-10 13:16:57.178,348, 718, 1196, 17, -55, -4, -1, -1, -8, 964, 870, 502,i
2025-03-10 13:16:57.228,767, 698, 19, -3, 2, 9, 0, -1, -7, 970, 887, 490,i
2025-03-10 13:16:57.281,823, 250, 423, -12, 23, -9, -3, -1, -7, 959, 859, 515,i
2025-03-10 13:16:57.345,627, 491, 464, -12, 34, -18, 1, 0, -8, 957, 837, 305,i
2025-03-10 13:16:57.611,703, 542, 483, 2, 0, 5, -1, 1, -6, 951, 809, 207,j
2025-03-10 13:16:57.661,691, 538, 484, 1, 0, 6, -2, 0, -5, 949, 807, 212,j
2025-03-10 13:16:57.715,710, 531, 460, 2, -6, 2, -1, 0, -7, 950, 807, 220,j
2025-03-10 13:16:57.764,711, 533, 463, 1, -3, 0, -1, 1, -7, 949, 812, 276,j
2025-03-10 13:16:57.821,718, 500, 491, -9, 2, -4, -1, 1, -5, 961, 841, 185,j
2025-03-10 13:16:57.878,746, 862, 290, 11, 28, 44, -2, -1, -6, 975, 855, 30,j
2025-03-10 13:16:57.931,633, 479, 347, -49, 15, 13, -2, 1, -7, 969, 844, 57,j
2025-03-10 13:16:57.993,1037, 710, -16, -1, -28, -83, -1, 2, -8, 941, 823, 173,j
2025-03-10 13:16:58.055,1395, -1322, -1028, 63, -22, -36, -2, 1, -6, 972, 888, 383,j
2025-03-10 13:16:58.108,860, 598, 508, 7, 23, 38, -2, 2, -5, 964, 870, 471,j
2025-03-10 13:16:58.163,625, 561, 487, -26, 59, -18, 1, 4, -9, 952, 824, 276,j
2025-03-10 13:16:58.221,520, 606, 762, -2, 21, -14, -1, 2, -10, 943, 791, 208,j
2025-03-10 13:16:58.481,693, 567, 483, -4, 2, 1, -2, 2, -7, 910, 713, 27,k
2025-03-10 13:16:58.532,677, 526, 506, -4, 1, 1, -2, 0, -8, 909, 711, 54,k
2025-03-10 13:16:58.581,658, 511, 522, -3, -4, -3, 0, 0, -8, 907, 695, 51,k
2025-03-10 13:16:58.633,715, 554, 478, 2, -9, -3, -1, 0, -7, 910, 699, 20,k
2025-03-10 13:16:58.692,671, 550, 506, 0, -13, -6, -2, 0, -6, 911, 747, 52,k
2025-03-10 13:16:58.747,617, 548, 521, 13, -34, 9, 0, 1, -6, 928, 809, 282,k
2025-03-10 13:16:58.798,716, 586, 412, 20, 5, 1, -1, 0, -6, 957, 834, 223,k
2025-03-10 13:16:58.857,622, 610, 367, 15, 34, 28, -1, -1, -2, 965, 790, 34,k
2025-03-10 13:16:58.910,788, 637, 458, 29, 11, 4, -2, 0, -4, 964, 863, 50,k
2025-03-10 13:16:58.961,307, 609, 315, -1, -22, -3, -2, 1, -3, 970, 902, 473,k
2025-03-10 13:16:59.015,654, 664, 342, 0, 0, 0, -2, -2, -1, 957, 855, 567,k
2025-03-10 13:16:59.074,567, 610, 663, -17, -10, -9, -1, 0, -4, 962, 781, 244,k
2025-03-10 13:16:59.131,883, 664, 403, -16, 2, 50, -1, -2, -2, 976, 887, 181,k
2025-03-10 13:16:59.181,635, 622, 529, 5, 15, 24, -4, -1, -3, 971, 873, 319,k
2025-03-10 13:16:59.244,646, 511, 320, -37, 49, -56, -2, 1, -4, 950, 763, 350,k
2025-03-10 13:16:59.566,688, 561, 462, 1, -11, 1, -1, -1, -5, 932, 801, 348,l
2025-03-10 13:16:59.623,690, 563, 448, 1, -11, 1, -2, 0, -5, 933, 806, 372,l
2025-03-10 13:16:59.677,733, 549, 423, -9, 1, -3, -1, 0, -6, 935, 812, 375,l
2025-03-10 13:16:59.729,687, 576, 458, -4, -3, -4, -2, 1, -4, 937, 814, 339,l
2025-03-10 13:16:59.781,673, 550, 461, -5, -9, 1, 0, 1, -6, 933, 823, 367,l
2025-03-10 13:16:59.841,727, 502, 568, -5, -10, -7, -2, 0, -7, 966, 855, 185,l
2025-03-10 13:16:59.893,621, 463, 413, 40, 42, 32, -1, 0, -3, 969, 857, 57,l
2025-03-10 13:16:59.946,751, 586, 261, 19, 18, 9, -2, 0, -4, 965, 852, 56,l
2025-03-10 13:17:00.001,898, 487, 98, -36, 42, -38, -1, 0, -5, 945, 812, 324,l
2025-03-10 13:17:00.061,494, 554, 775, -17, 19, -24, 0, 1, -9, 923, 757, 187,l
2025-03-10 13:17:00.381,679, 554, 483, 2, -6, -1, -1, 0, -5, 905, 714, 37,m
2025-03-10 13:17:00.431,682, 553, 482, 5, -6, 0, -1, 0, -4, 905, 716, 37,m
2025-03-10 13:17:00.481,704, 560, 439, 5, -5, 2, -1, 0, -5, 907, 720, 36,m
2025-03-10 13:17:00.534,697, 549, 449, 2, -5, 0, -2, 1, -5, 907, 741, 104,m
2025-03-10 13:17:00.593,705, 577, 449, 1, -12, -1, -1, 0, -5, 919, 785, 261,m
2025-03-10 13:17:00.650,684, 524, 544, -3, -4, -6, -1, 0, -4, 958, 845, 149,m
2025-03-10 13:17:00.702,653, 603, 383, 4, 19, 26, -1, 0, -4, 962, 852, 51,m
2025-03-10 13:17:00.757,783, 476, 600, -10, 7, 7, 0, -1, -5, 962, 864, 145,m
2025-03-10 13:17:00.811,713, 550, 557, -9, -12, -8, -1, -1, -5, 963, 881, 480,m
2025-03-10 13:17:00.861,706, 642, 323, 4, 16, 18, -2, 1, -3, 969, 886, 319,m
2025-03-10 13:17:00.921,758, 509, 401, -13, 14, 8, -1, 0, -6, 965, 884, 254,m
2025-03-10 13:17:00.977,600, 373, 701, 8, -15, -8, -1, 0, -5, 970, 891, 554,m
2025-03-10 13:17:01.031,846, 659, 209, -4, 33, 34, -4, 2, -3, 975, 888, 441,m
2025-03-10 13:17:01.092,874, 352, 249, -39, 27, -42, -2, -1, -6, 961, 859, 454,m
2025-03-10 13:17:01.401,667, 514, 480, -3, 1, -6, 1, 0, -4, 935, 784, 374,n
2025-03-10 13:17:01.463,669, 529, 500, -1, 0, -6, -2, 1, -7, 934, 785, 376,n
2025-03-10 13:17:01.515,696, 585, 452, -2, -2, -5, -2, 0, -5, 931, 785, 369,n
2025-03-10 13:17:01.572,673, 541, 528, 1, -13, -2, -1, 1, -5, 933, 792, 415,n
2025-03-10 13:17:01.628,706, 635, 541, -5, -5, -4, -2, 0, -5, 957, 845, 275,n
2025-03-10 13:17:01.681,690, 669, 229, 18, 15, 13, -1, 2, -4, 966, 858, 49,n
2025-03-10 13:17:01.741,727, 540, 381, -13, 16, 11, -2, -1, -5, 969, 862, 30,n
2025-03-10 13:17:01.793,662, 647, 432, 5, -36, -22, -1, 0, -3, 965, 881, 447,n
2025-03-10 13:17:01.851,604, 633, 273, 18, 8, 20, -1, -1, -4, 970, 885, 375,n
2025-03-10 13:17:01.908,729, 330, 401, -10, 30, 22, -2, -2, -5, 969, 869, 358,n
2025-03-10 13:17:01.961,693, 538, 409, -31, 54, -43, -2, 0, -7, 955, 843, 476,n
2025-03-10 13:17:02.260,697, 534, 468, 2, -2, 1, -2, -1, -7, 955, 794, 366,o
2025-03-10 13:17:02.311,697, 542, 466, 2, -2, 1, -2, 1, -8, 957, 794, 365,o
2025-03-10 13:17:02.366,686, 537, 484, 9, -5, 1, 0, -2, -4, 957, 806, 443,o
2025-03-10 13:17:02.413,694, 524, 482, 13, -11, 4, -2, 0, -4, 952, 826, 521,o
2025-03-10 13:17:02.478,767, 562, 427, -3, -5, -13, -2, 0, -4, 958, 863, 472,o
2025-03-10 13:17:02.531,197, 432, 528, 24, -19, -25, -1, 0, -3, 963, 884, 385,o
2025-03-10 13:17:02.592,1020, 1145, 99, -29, 47, 53, -2, -1, -4, 970, 882, 245,o
2025-03-10 13:17:02.643,499, 402, 703, -21, -26, -7, -1, 0, -4, 968, 898, 437,o
2025-03-10 13:17:02.707,938, 564, 332, 15, -10, -14, -2, -3, -3, 944, 875, 596,o
2025-03-10 13:17:02.761,692, 599, 382, -42, 70, -21, 0, 0, -6, 933, 824, 495,o
2025-03-10 13:17:02.817,476, 625, 721, -10, 16, 2, 2, 0, -7, 926, 712, 322,o
2025-03-10 13:17:03.091,692, 553, 467, 0, -2, 2, 1, 0, -6, 908, 666, 292,p
2025-03-10 13:17:03.152,688, 563, 486, -1, -3, 2, 0, 1, -5, 909, 670, 273,p
2025-03-10 13:17:03.207,667, 568, 484, 6, -10, 3, 1, 1, -5, 910, 680, 302,p
2025-03-10 13:17:03.260,702, 551, 459, 3, -12, 1, 0, -1, -4, 905, 709, 419,p
2025-03-10 13:17:03.312,671, 521, 501, 10, -21, 3, -1, 1, -3, 918, 759, 457,p
2025-03-10 13:17:03.371,750, 460, 544, 43, 12, 13, -1, -1, -4, 956, 811, 301,p
2025-03-10 13:17:03.428,785, 516, 284, -18, 31, 30, -2, 0, -2, 962, 798, 55,p
2025-03-10 13:17:03.481,596, -48, 726, 34, -77, -81, -2, 0, -5, 952, 856, 308,p
2025-03-10 13:17:03.543,734, 650, 722, -12, -40, -4, -2, -2, -2, 964, 896, 584,p
2025-03-10 13:17:03.596,725, 836, 165, -14, 24, 23, -2, -2, -1, 975, 895, 440,p
2025-03-10 13:17:03.651,821, 385, 362, -15, 26, 9, -2, 1, -3, 964, 843, 210,p
2025-03-10 13:17:03.711,715, 543, 385, -34, 56, -38, -1, 0, -5, 955, 793, 323,p
2025-03-10 13:17:03.991,699, 559, 479, -2, -1, 2, -1, 1, -5, 949, 771, 329,q
2025-03-10 13:17:04.046,686, 564, 472, -2, -2, 2, -1, 0, -5, 948, 774, 337,q
2025-03-10 13:17:04.096,676, 541, 482, 4, -2, 3, 1, 2, -6, 950, 785, 349,q
2025-03-10 13:17:04.152,717, 557, 451, 2, -2, 1, -2, -3, -4, 944, 787, 412,q
2025-03-10 13:17:04.207,709, 570, 452, 3, -4, 3, -2, -1, -4, 948, 794, 421,q
2025-03-10 13:17:04.260,713, 578, 425, 1, -9, 4, -2, -1, -5, 949, 799, 482,q
2025-03-10 13:17:04.313,751, 542, 411, 1, -4, 0, -2, -1, -3, 955, 822, 494,q
2025-03-10 13:17:04.362,717, 563, 451, -1, 1, -1, -2, -1, -4, 953, 825, 503,q
2025-03-10 13:17:04.423,708, 558, 428, -1, -1, 0, -2, -1, -2, 956, 832, 511,q
2025-03-10 13:17:04.479,723, 565, 419, -1, -2, -2, -1, 1, -2, 949, 832, 523,q
2025-03-10 13:17:04.531,706, 567, 430, -2, 1, 0, -2, -2, -3, 953, 829, 519,q
2025-03-10 13:17:04.591,723, 568, 417, -1, -1, -1, -3, -1, -1, 951, 830, 520,q
2025-03-10 13:17:04.644,717, 572, 452, -2, -1, 0, -2, 0, -3, 952, 835, 525,q
2025-03-10 13:17:04.694,722, 576, 419, 0, -1, -3, -2, 1, -5, 955, 842, 509,q
2025-03-10 13:17:04.743,716, 559, 438, -1, 0, -2, -2, 0, -2, 952, 846, 516,q
2025-03-10 13:17:04.807,713, 572, 427, -1, 0, -1, -3, -2, -2, 957, 847, 504,q
2025-03-10 13:17:04.861,713, 572, 425, -1, -2, -2, -1, -2, -4, 952, 852, 497,q
2025-03-10 13:17:04.911,704, 564, 433, -3, 0, -1, -1, -1, -2, 956, 857, 452,q
2025-03-10 13:17:04.971,703, 564, 394, -1, -1, -5, 0, -1, -4, 960, 864, 418,q
2025-03-10 13:17:05.029,678, 545, 458, -4, -2, -5, -1, -1, -3, 957, 871, 389,q
2025-03-10 13:17:05.081,755, 518, 491, 25, -2, -13, -3, -2, -3, 965, 855, 177,q
2025-03-10 13:17:05.140,862, 859, 268, -11, 22, 21, -3, 0, -3, 971, 869, 157,q
2025-03-10 13:17:05.191,745, 512, 619, 0, -20, -14, -1, 0, -2, 972, 890, 436,q
2025-03-10 13:17:05.242,692, 650, 313, 44, -4, 0, -2, 0, -3, 968, 872, 539,q
2025-03-10 13:17:05.307,772, 572, 198, -4, 27, 29, -1, 0, -3, 972, 855, 161,q
2025-03-10 13:17:05.361,808, 488, 548, 37, -10, -3, -3, -1, -1, 964, 881, 563,q
2025-03-10 13:17:05.421,681, 461, 289, -52, 80, -54, -1, -3, -2, 940, 836, 646,q
2025-03-10 13:17:05.868,697, 560, 453, -1, 2, 0, 0, -1, -5, 915, 644, 327,r
2025-03-10 13:17:05.921,692, 558, 461, -1, 2, 0, -1, 1, -3, 917, 645, 330,r
2025-03-10 13:17:05.976,689, 569, 474, -3, -2, -2, -1, 0, -4, 915, 650, 310,r
2025-03-10 13:17:06.031,701, 568, 454, -2, -2, -2, 0, -2, -4, 917, 668, 309,r
2025-03-10 13:17:06.082,677, 565, 492, 0, -5, -1, 0, -1, -6, 915, 672, 312,r
2025-03-10 13:17:06.140,715, 566, 429, -2, -8, 0, 1, -1, -5, 913, 642, 309,r
2025-03-10 13:17:06.193,702, 566, 444, -4, -1, -2, -1, -1, -2, 919, 646, 276,r
2025-03-10 13:17:06.245,691, 574, 474, -1, -4, -2, 0, 0, -4, 919, 673, 310,r
2025-03-10 13:17:06.307,653, 576, 487, 2, -18, -4, -1, -2, -4, 924, 689, 434,r
2025-03-10 13:17:06.361,780, 526, 360, 3, -25, -2, -2, -1, -4, 932, 785, 469,r
2025-03-10 13:17:06.411,724, 559, 396, 15, 5, -1, -2, -1, -3, 958, 817, 457,r
2025-03-10 13:17:06.475,711, 660, 453, -9, 14, 13, -3, 0, -5, 965, 817, 195,r
2025-03-10 13:17:06.531,704, 265, 877, -6, -34, -18, -2, 0, -4, 958, 867, 209,r
2025-03-10 13:17:06.581,776, 551, 350, 23, -9, 6, -3, -1, -3, 962, 867, 584,r
2025-03-10 13:17:06.642,757, 549, 269, -30, 51, -17, -2, -2, -5, 954, 804, 416,r
2025-03-10 13:17:06.696,563, 610, 674, -3, 0, -10, -1, -1, -5, 948, 754, 348,r
2025-03-10 13:17:06.751,744, 544, 438, 8, -25, 2, 0, 1, -4, 936, 746, 357,r
2025-03-10 13:17:07.318,684, 557, 474, 3, -2, 4, -2, -1, -5, 931, 741, 329,s
2025-03-10 13:17:07.372,690, 555, 475, 5, -2, 5, -2, 2, -4, 931, 744, 336,s
2025-03-10 13:17:07.425,708, 543, 456, 8, -2, 4, -2, 1, -5, 935, 742, 424,s
2025-03-10 13:17:07.476,679, 548, 486, 8, -8, 0, -1, -2, -5, 941, 754, 504,s
2025-03-10 13:17:07.531,728, 566, 410, 11, -20, 7, -1, -1, -3, 939, 783, 550,s
2025-03-10 13:17:07.589,804, 540, 512, 1, 1, -7, -2, 0, -2, 948, 817, 445,s
2025-03-10 13:17:07.641,743, 516, 337, 25, 7, -5, -2, -1, -3, 959, 822, 344,s
2025-03-10 13:17:07.692,553, 744, 296, -1, 17, 17, -4, -1, -1, 962, 841, 311,s
2025-03-10 13:17:07.757,1082, 478, 430, -26, 17, 8, -2, -2, -2, 962, 748, 25,s
2025-03-10 13:17:07.811,1025, 411, 264, -28, 21, -39, -1, 1, -5, 918, 502, 51,s
2025-03-10 13:17:07.866,591, 579, 712, -26, 29, -34, 0, 0, -6, 910, 591, 58,s
2025-03-10 13:17:08.136,740, 566, 406, 9, -6, 8, -1, -2, -3, 935, 713, 429,t
2025-03-10 13:17:08.192,718, 558, 411, 7, -5, 7, -2, -1, -4, 935, 719, 448,t
2025-03-10 13:17:08.245,714, 555, 453, 2, -2, 0, -2, 0, -5, 933, 730, 499,t
2025-03-10 13:17:08.301,709, 568, 433, 0, -1, -1, -2, -1, -3, 932, 737, 503,t
2025-03-10 13:17:08.355,687, 564, 470, -3, -9, -2, 0, 0, -4, 934, 751, 528,t
2025-03-10 13:17:08.412,680, 562, 437, -7, -17, -4, -1, -1, -4, 932, 774, 547,t
2025-03-10 13:17:08.461,738, 488, 391, -2, -6, -16, -2, 0, -4, 944, 834, 553,t
2025-03-10 13:17:08.523,834, 786, 48, 84, 36, 26, -2, 0, -1, 963, 844, 479,t
2025-03-10 13:17:08.581,1017, 1164, 360, -38, 39, 45, -2, -1, -1, 972, 865, 382,t
2025-03-10 13:17:08.642,703, 409, 354, -16, -28, -69, -1, -1, -2, 957, 843, 575,t
2025-03-10 13:17:08.691,858, 865, 503, -25, -24, -7, -2, -1, -2, 965, 868, 275,t
2025-03-10 13:17:08.751,636, 589, 467, -8, 8, 31, -2, 0, -4, 964, 885, 531,t
2025-03-10 13:17:08.808,854, 424, 138, -9, 37, -30, -2, -1, -2, 936, 823, 580,t
2025-03-10 13:17:09.101,689, 578, 445, -3, 0, 0, -2, -1, -2, 947, 677, 286,u
2025-03-10 13:17:09.162,696, 575, 458, -3, -2, 1, -2, -2, -3, 947, 679, 280,u
2025-03-10 13:17:09.212,711, 561, 406, -4, -3, -2, -2, -1, -1, 947, 696, 279,u
2025-03-10 13:17:09.277,838, 495, 391, -28, -9, -14, -1, 0, -3, 957, 771, 35,u
2025-03-10 13:17:09.330,736, 608, 346, 9, -3, -1, -2, -2, -2, 965, 811, 43,u
2025-03-10 13:17:09.381,595, 893, 272, 28, 29, 51, -1, 0, -1, 968, 848, 59,u
2025-03-10 13:17:09.440,475, 268, 572, -13, -13, -8, -3, -1, -3, 966, 864, 237,u
2025-03-10 13:17:09.498,687, 400, 601, 8, -9, -6, -4, -3, -2, 962, 866, 401,u
2025-03-10 13:17:09.555,602, 742, 288, -10, 22, 32, -5, -1, -2, 971, 861, 138,u
2025-03-10 13:17:09.611,799, 316, 446, -5, -15, -27, -4, -1, -3, 965, 803, 386,u
2025-03-10 13:17:09.933,716, 570, 433, 1, 0, 1, -2, -1, -4, 939, 736, 163,v
2025-03-10 13:17:09.981,708, 557, 429, 1, 1, 1, -3, -1, -5, 941, 734, 147,v
2025-03-10 13:17:10.038,712, 562, 416, 0, -2, 0, -1, -1, -3, 940, 736, 64,v
2025-03-10 13:17:10.093,644, 500, 466, 7, -14, -6, -4, 1, -2, 945, 744, 149,v
2025-03-10 13:17:10.151,759, 640, 458, -18, -5, -11, -4, 0, -5, 955, 818, 125,v
2025-03-10 13:17:10.206,762, 614, 388, 23, -4, -2, -1, -1, -3, 968, 846, 56,v
2025-03-10 13:17:10.259,866, 525, 297, 17, 26, 39, -4, 1, -2, 975, 842, 41,v
2025-03-10 13:17:10.317,691, 33, 871, -18, -36, -12, -5, 0, -5, 970, 889, 61,v
2025-03-10 13:17:10.374,686, 547, 419, 29, -9, -9, -3, -2, -2, 969, 885, 365,v
2025-03-10 13:17:10.431,833, 438, 178, -40, 68, -30, -3, -1, -2, 956, 827, 259,v
2025-03-10 13:17:10.481,532, 612, 672, -12, 16, -8, -2, 0, -7, 944, 713, 32,v
2025-03-10 13:17:10.777,702, 532, 485, 5, -3, -1, -1, -1, -4, 921, 551, 35,w
2025-03-10 13:17:10.832,694, 548, 479, 5, -3, -2, -3, 2, -4, 920, 553, 42,w
2025-03-10 13:17:10.882,707, 548, 447, 5, -5, 2, -3, 0, -3, 918, 565, 58,w
2025-03-10 13:17:10.940,699, 550, 461, 9, -10, -1, -4, -1, -2, 924, 576, 31,w
2025-03-10 13:17:10.991,729, 499, 421, -1, -4, -14, -2, -1, -1, 938, 702, 41,w
2025-03-10 13:17:11.051,737, 542, 502, 11, -10, -5, -2, -2, -4, 958, 819, 45,w
2025-03-10 13:17:11.106,635, 623, 189, -32, 29, 44, -1, -1, -1, 971, 842, 36,w
2025-03-10 13:17:11.161,589, 451, 436, 2, -31, -11, -3, 1, -2, 964, 873, 45,w
2025-03-10 13:17:11.217,717, 373, 634, 39, -17, -12, -2, -1, -2, 964, 869, 180,w
2025-03-10 13:17:11.276,866, 778, 216, -27, 13, 30, -4, 0, -4, 964, 867, 59,w
2025-03-10 13:17:11.332,690, 464, 549, 53, -21, -20, -4, 1, -3, 966, 872, 36,w
2025-03-10 13:17:11.390,509, 490, 723, -31, 80, -37, -3, -1, -6, 949, 815, 62,w
2025-03-10 13:17:11.653,724, 519, 450, -5, 0, 0, -2, -2, -1, 944, 727, 153,x
2025-03-10 13:17:11.708,706, 526, 465, -3, -1, -1, -2, -2, -1, 941, 727, 163,x
2025-03-10 13:17:11.761,725, 541, 434, -4, -9, 2, -3, 0, -3, 941, 726, 175,x
2025-03-10 13:17:11.819,759, 520, 403, -5, -3, -1, -5, 0, -2, 944, 735, 162,x
2025-03-10 13:17:11.873,713, 543, 483, 10, -7, 6, -3, -1, -3, 944, 754, 190,x
2025-03-10 13:17:11.922,720, 498, 532, -17, -8, -7, -4, 0, -3, 960, 836, 30,x
2025-03-10 13:17:11.981,258, 644, 293, 6, 15, -7, -4, -1, -2, 966, 847, 38,x
2025-03-10 13:17:12.031,828, 437, 253, -32, 35, 9, -3, 0, -1, 956, 691, 42,x
2025-03-10 13:17:12.091,504, 667, 622, 39, -31, -36, -1, -2, -3, 948, 772, 259,x
2025-03-10 13:17:12.141,765, 937, 31, 4, 1, 28, -3, 0, -2, 972, 873, 262,x
2025-03-10 13:17:12.205,825, 517, 445, -26, 27, 33, -2, -2, -3, 965, 849, 145,x
2025-03-10 13:17:12.262,655, 497, 381, -27, 26, -47, -4, -1, -4, 947, 777, 367,x
2025-03-10 13:17:12.512,718, 552, 468, -5, -1, -3, -4, 0, -3, 942, 721, 267,y
2025-03-10 13:17:12.565,712, 557, 462, -4, -2, -2, -2, 1, -5, 944, 722, 267,y
2025-03-10 13:17:12.623,715, 548, 433, -5, -5, -4, -2, 0, -3, 944, 733, 253,y
2025-03-10 13:17:12.674,654, 549, 496, 0, -21, 1, -3, -1, -5, 944, 758, 213,y
2025-03-10 13:17:12.724,648, 419, 361, 35, 6, -11, -2, 1, -4, 963, 832, 32,y
2025-03-10 13:17:12.785,677, 583, 181, 18, 26, 37, -2, -1, -2, 968, 866, 60,y
2025-03-10 13:17:12.841,739, 234, 672, 0, -24, -26, -4, -2, -1, 966, 859, 428,y
2025-03-10 13:17:12.891,759, 643, 579, 12, -6, -1, -2, -1, -2, 967, 862, 407,y
2025-03-10 13:17:12.955,264, 794, -113, -34, 54, 47, -4, 0, -3, 971, 848, 64,y
2025-03-10 13:17:13.011,874, -73, 875, 32, -23, -42, -3, 0, -5, 951, 667, 47,y
2025-03-10 13:17:13.065,497, 527, 880, -14, 16, -31, 1, -2, -4, 928, 753, 145,y
2025-03-10 13:17:13.351,718, 538, 428, -4, 1, -2, -3, 2, -4, 925, 686, 174,z
2025-03-10 13:17:13.405,717, 541, 436, -3, 1, -3, -1, 0, -4, 927, 681, 155,z
2025-03-10 13:17:13.457,708, 523, 474, -3, 2, 1, -3, -1, -3, 919, 666, 59,z
2025-03-10 13:17:13.511,739, 553, 433, -1, -2, -2, -2, -1, -3, 923, 656, 125,z
2025-03-10 13:17:13.566,699, 551, 466, -2, -2, -1, -3, 0, -3, 916, 647, 47,z
2025-03-10 13:17:13.622,662, 524, 497, -3, -9, -1, -3, 0, -4, 920, 644, 31,z
2025-03-10 13:17:13.673,791, 638, 358, -11, -3, -13, -2, 1, -2, 939, 780, 58,z
2025-03-10 13:17:13.737,637, 540, 444, 23, -11, 24, -2, -1, -2, 964, 869, 385,z
2025-03-10 13:17:13.789,549, 767, 305, 2, 25, 18, -2, -1, -1, 966, 854, 308,z
2025-03-10 13:17:13.841,1055, 517, 473, -51, 10, -3, -3, 0, -1, 956, 790, 60,z
2025-03-10 13:17:13.891,594, 126, 313, 7, 2, 29, -4, 0, -2, 968, 883, 49,z
2025-03-10 13:17:13.941,668, 491, 472, -1, 2, 4, -5, -1, -3, 958, 861, 61,z
2025-03-10 13:17:14.006,469, 612, 572, -34, 5, -50, -4, -2, -2, 954, 690, 27,z
2025-03-10 13:17:14.061,743, 645, 398, -2, -18, 23, -3, -1, -1, 960, 873, 161,z
2025-03-10 13:17:14.122,759, 548, 366, 25, 11, 13, -5, -1, -2, 965, 878, 280,z
2025-03-10 13:17:14.173,876, 487, 94, -53, 68, -56, -5, -2, -2, 940, 696, 175,z
2025-03-10 13:17:14.470,642, 694, 507, 0, -15, -36, 2, -1, -6, 555, 147, 35,0
2025-03-10 13:17:14.523,639, 668, 530, -2, -17, -36, 1, -1, -5, 551, 145, 37,0
2025-03-10 13:17:14.581,592, 686, 428, 5, -16, -35, 3, -4, -5, 629, 310, 70,0
2025-03-10 13:17:14.638,542, 722, 433, 7, -21, -16, 3, -3, -4, 769, 474, 219,0
2025-03-10 13:17:14.691,597, 719, 395, 11, -21, -9, 4, -3, -3, 793, 533, 282,0
2025-03-10 13:17:14.741,537, 824, 349, -7, -6, 8, 2, -3, -1, 815, 588, 231,0
2025-03-10 13:17:14.806,561, 716, 329, -4, -8, 28, 3, -1, -2, 835, 624, 208,0
2025-03-10 13:17:14.856,574, 640, 344, -8, 7, 61, 1, -5, -1, 859, 645, 160,0
2025-03-10 13:17:14.911,712, 630, 356, -5, -3, 41, 1, -2, -2, 867, 677, 204,0
2025-03-10 13:17:14.964,852, 643, 453, 1, 10, 24, -1, -1, -2, 894, 711, 284,0
2025-03-10 13:17:15.023,603, 550, 428, -11, 12, 8, 0, -1, -2, 914, 753, 357,0
2025-03-10 13:17:15.073,716, 620, 405, -8, -3, -1, -2, -2, -1, 922, 785, 474,0
2025-03-10 13:17:15.131,764, 584, 344, -9, 0, -6, -1, -1, -3, 929, 805, 511,0
2025-03-10 13:17:15.187,684, 604, 434, 2, -3, 1, -1, -1, -3, 929, 811, 549,0
2025-03-10 13:17:15.240,708, 586, 400, 7, 5, 10, 0, -2, -2, 938, 826, 592,0
2025-03-10 13:17:15.291,501, 628, 662, 21, -50, 18, -3, -2, -2, 942, 845, 627,0
2025-03-10 13:17:15.355,1154, 419, 409, 38, 4, -31, -2, -3, 0, 953, 846, 298,0
2025-03-10 13:17:15.412,755, 762, -110, -37, 62, 63, -1, -2, 2, 963, 862, 147,0
2025-03-10 13:17:15.465,603, 416, 793, -10, -44, -25, -4, -2, -2, 959, 879, 386,0
2025-03-10 13:17:15.523,840, 697, 116, 20, 9, -2, -3, -1, -1, 929, 798, 559,0
2025-03-10 13:17:15.581,666, 560, 414, -40, 51, -22, -3, -3, -2, 919, 632, 281,0
2025-03-10 13:17:15.637,597, 632, 597, 2, -19, 4, -1, -1, -5, 918, 633, 209,0
2025-03-10 13:17:15.912,739, 559, 373, 1, -4, 2, -2, -1, -3, 934, 763, 400,1
2025-03-10 13:17:15.961,724, 570, 356, 0, -3, 1, 0, 0, -2, 935, 763, 401,1
2025-03-10 13:17:16.018,696, 571, 439, -6, 1, -2, -4, -2, -3, 941, 773, 388,1
2025-03-10 13:17:16.072,712, 573, 413, -4, 0, 1, -2, -1, -3, 951, 787, 307,1
2025-03-10 13:17:16.127,690, 581, 444, -1, -2, 3, -2, -1, -3, 950, 798, 288,1
2025-03-10 13:17:16.181,701, 563, 437, 6, -11, 6, -1, 0, -3, 950, 815, 304,1
2025-03-10 13:17:16.232,755, 559, 365, 0, -3, 3, -3, -1, -4, 952, 821, 306,1
2025-03-10 13:17:16.292,728, 558, 406, -8, 4, -4, -3, -1, -1, 954, 823, 282,1
2025-03-10 13:17:16.341,716, 565, 429, 0, -2, 1, -2, -2, -4, 955, 823, 217,1
2025-03-10 13:17:16.399,721, 554, 416, -8, 2, -4, -3, 0, -2, 954, 828, 217,1
2025-03-10 13:17:16.455,720, 569, 414, -2, -1, -1, -5, -1, -4, 959, 825, 199,1
2025-03-10 13:17:16.505,690, 572, 451, -3, -3, 1, -4, 0, -2, 957, 830, 200,1
2025-03-10 13:17:16.561,893, 39, -5, 16, -7, -18, -2, -1, -3, 962, 860, 197,1
2025-03-10 13:17:16.620,819, 529, 313, 15, -14, 13, -3, 0, -1, 967, 887, 541,1
2025-03-10 13:17:16.672,703, 500, 652, 38, -2, 3, -4, -1, -1, 969, 883, 554,1
2025-03-10 13:17:16.731,953, 682, 71, 11, 41, 21, -4, -2, 0, 975, 871, 224,1
2025-03-10 13:17:16.789,647, 433, 520, -22, 24, -40, -4, -2, -1, 964, 766, 241,1
2025-03-10 13:17:16.842,831, 461, 298, 37, -22, -2, -3, -1, -2, 970, 869, 238,1
2025-03-10 13:17:16.901,608, 466, 323, -9, 16, 31, -4, -1, -1, 972, 884, 273,1
2025-03-10 13:17:16.955,877, 464, 57, -45, 59, -48, -2, -1, -1, 947, 771, 311,1
2025-03-10 13:17:17.251,715, 539, 451, -4, -1, -1, -3, 0, -2, 918, 671, 70,2
2025-03-10 13:17:17.305,716, 560, 458, -5, -1, 0, -1, -1, -4, 920, 673, 55,2
2025-03-10 13:17:17.361,716, 554, 450, -6, -7, -2, -2, -1, -3, 921, 700, 187,2
2025-03-10 13:17:17.417,727, 594, 402, -6, -6, -3, -4, 0, -3, 928, 741, 207,2
2025-03-10 13:17:17.472,717, 551, 445, -2, -2, 1, -2, -2, -4, 938, 768, 215,2
2025-03-10 13:17:17.525,711, 568, 368, -2, 0, 1, -3, 0, -3, 940, 796, 325,2
2025-03-10 13:17:17.581,678, 546, 451, -9, -1, -8, -3, 0, -4, 950, 802, 319,2
2025-03-10 13:17:17.636,676, 572, 491, 11, -40, 5, -2, -1, -2, 948, 822, 404,2
2025-03-10 13:17:17.691,903, 493, 343, 40, -5, -4, -3, -1, -2, 963, 870, 393,2
2025-03-10 13:17:17.751,556, 617, 499, 34, 6, 23, -3, -1, -1, 970, 882, 554,2
2025-03-10 13:17:17.804,462, 494, 394, -16, 38, 0, -3, -2, -1, 966, 826, 46,2
2025-03-10 13:17:17.856,940, 544, 275, 23, 9, 7, -4, -1, -2, 971, 870, 47,2
2025-03-10 13:17:17.905,587, 498, 435, 20, 14, 26, -4, -1, -1, 969, 880, 93,2
2025-03-10 13:17:17.972,736, 478, 217, -28, 49, -45, -4, -1, -1, 953, 809, 251,2
2025-03-10 13:17:18.221,712, 582, 392, 1, -2, 2, -3, 0, -2, 945, 780, 451,3
2025-03-10 13:17:18.278,711, 571, 402, 0, -1, 1, -3, 0, -2, 945, 777, 455,3
2025-03-10 13:17:18.337,725, 575, 409, -5, -3, 0, -4, -1, -3, 941, 782, 472,3
2025-03-10 13:17:18.391,707, 582, 402, -3, -2, 0, -1, -1, -3, 942, 785, 476,3
2025-03-10 13:17:18.442,634, 571, 494, -2, -17, 4, -3, -3, -1, 947, 806, 482,3
2025-03-10 13:17:18.504,851, 611, 267, -20, -8, 1, -3, -1, -1, 956, 858, 378,3
2025-03-10 13:17:18.556,653, 377, 314, 4, -2, 17, -4, 0, -1, 964, 879, 499,3
2025-03-10 13:17:18.615,522, 461, 387, 15, 11, -1, -4, -2, -1, 970, 876, 467,3
2025-03-10 13:17:18.664,944, 537, 176, 5, 14, -1, -3, -1, -1, 970, 876, 226,3
2025-03-10 13:17:18.722,845, 741, 371, -7, 30, 26, -3, -2, -1, 972, 878, 44,3
2025-03-10 13:17:18.772,648, 449, 242, -6, 26, -6, -4, -2, -1, 964, 808, 37,3
2025-03-10 13:17:18.836,774, 509, 129, -48, 72, -47, -2, 0, -3, 912, 672, 219,3
2025-03-10 13:17:19.152,729, 721, 338, 12, 0, 33, -2, -2, -2, 934, 724, 46,4
2025-03-10 13:17:19.205,791, 694, 402, 8, -2, 36, -2, -1, 0, 934, 726, 46,4
2025-03-10 13:17:19.261,839, 495, 361, -9, 2, 5, -3, -1, -2, 937, 766, 215,4
2025-03-10 13:17:19.315,574, 609, 594, 6, -19, 12, -3, -1, -3, 950, 813, 221,4
2025-03-10 13:17:19.372,756, 468, 350, -13, -4, -9, -3, -2, -2, 958, 865, 91,4
2025-03-10 13:17:19.422,1013, 655, 563, 15, 13, -3, -4, -2, 0, 959, 850, 49,4
2025-03-10 13:17:19.472,818, 637, 130, -2, 14, 6, -3, 1, -2, 977, 868, 30,4
2025-03-10 13:17:19.531,605, 112, 349, 7, 1, 19, -5, 0, -2, 967, 891, 78,4
2025-03-10 13:17:19.586,710, 490, 349, 10, 10, 2, -5, -1, -1, 961, 874, 377,4
2025-03-10 13:17:19.641,665, 700, 518, -10, -13, -19, -2, -2, -1, 955, 845, 441,4
2025-03-10 13:17:19.693,691, 544, 341, 5, 2, 16, -2, 0, -1, 968, 871, 73,4
2025-03-10 13:17:19.753,382, 351, 295, -9, 38, 31, -4, 0, -1, 974, 852, 44,4
2025-03-10 13:17:19.811,866, 373, 702, 32, -14, -27, -4, -2, -1, 955, 744, 203,4
2025-03-10 13:17:20.127,732, 530, 438, -6, -1, -1, -3, -1, -4, 943, 737, 47,5
2025-03-10 13:17:20.181,720, 528, 435, -6, -1, -1, -2, 1, -5, 942, 740, 50,5
2025-03-10 13:17:20.237,721, 541, 429, -8, -2, -6, -4, 0, -5, 947, 748, 33,5
2025-03-10 13:17:20.292,707, 546, 466, -8, -5, -6, -5, -1, -5, 945, 756, 55,5
2025-03-10 13:17:20.343,641, 532, 498, -2, -13, -5, -2, -1, -5, 946, 751, 39,5
2025-03-10 13:17:20.401,868, 713, 472, 22, -13, -6, -3, 0, -3, 962, 838, 47,5
2025-03-10 13:17:20.459,626, 464, 423, -14, 4, 18, -4, 0, -4, 966, 874, 317,5
2025-03-10 13:17:20.511,556, 271, 559, 17, -11, -21, -2, 0, -2, 962, 856, 343,5
2025-03-10 13:17:20.569,1036, 716, 311, 44, 10, -1, -4, -1, 1, 962, 831, 365,5
2025-03-10 13:17:20.623,808, 716, 421, -28, 32, 25, -4, -2, -1, 973, 867, 53,5
2025-03-10 13:17:20.672,499, 465, 326, -23, 23, 6, -3, 0, -1, 966, 828, 50,5
2025-03-10 13:17:20.737,1135, 391, 373, 9, 8, -26, -2, 0, -2, 905, 574, 108,5
2025-03-10 13:17:21.055,722, 532, 443, -2, -2, 1, -2, -1, -3, 927, 759, 127,6
2025-03-10 13:17:21.109,723, 530, 439, -1, -2, 0, -3, -1, -7, 931, 762, 124,6
2025-03-10 13:17:21.163,720, 539, 438, -6, -3, -1, -3, 0, -3, 932, 770, 149,6
2025-03-10 13:17:21.221,743, 536, 465, 9, -8, 12, -2, -1, -4, 939, 784, 149,6
2025-03-10 13:17:21.276,845, 414, 354, 19, -36, -3, -4, -1, -2, 943, 809, 222,6
2025-03-10 13:17:21.336,861, 493, 500, -10, -11, -20, -3, -1, -3, 951, 862, 106,6
2025-03-10 13:17:21.392,1395, 832, 319, 41, 45, 36, -4, -1, -2, 970, 856, 52,6
2025-03-10 13:17:21.443,637, 510, 482, -31, 30, 19, -4, -1, -1, 971, 881, 54,6
2025-03-10 13:17:21.507,726, 595, 514, 55, -28, -40, -4, -3, -2, 953, 857, 117,6
2025-03-10 13:17:21.561,1049, 496, 35, -35, 66, -38, -2, -1, -4, 915, 733, 188,6
2025-03-10 13:17:21.622,515, 617, 708, -30, 28, -22, -1, 1, -7, 917, 645, 29,6
2025-03-10 13:17:21.883,718, 554, 432, -6, -6, 3, -3, 0, -4, 918, 707, 27,7
2025-03-10 13:17:21.937,718, 533, 422, -6, -5, 1, -3, 0, -4, 916, 709, 42,7
2025-03-10 13:17:21.991,712, 549, 445, -10, 0, -3, -3, 1, -6, 918, 690, 33,7
2025-03-10 13:17:22.041,702, 548, 490, -5, -4, -2, -3, -1, -5, 911, 679, 43,7
2025-03-10 13:17:22.100,699, 583, 445, -8, -6, -2, -3, 0, -6, 914, 696, 39,7
2025-03-10 13:17:22.154,581, 532, 650, 6, -46, 6, -2, -1, -4, 925, 761, 62,7
2025-03-10 13:17:22.206,963, 808, 429, 10, -8, 19, -4, -1, -4, 963, 872, 282,7
2025-03-10 13:17:22.261,559, 593, 585, 37, 8, 15, -4, -1, -3, 971, 875, 414,7
2025-03-10 13:17:22.314,911, 584, 273, 12, 33, 20, -4, -1, -2, 976, 870, 48,7
2025-03-10 13:17:22.372,664, 180, 823, -39, 2, -33, -5, 0, -1, 967, 804, 44,7
2025-03-10 13:17:22.431,355, 634, 1031, 25, -57, 21, -3, -1, -4, 966, 837, 67,7
2025-03-10 13:17:22.486,1115, 411, -27, -22, 1, 49, -4, 0, -2, 976, 893, 64,7
2025-03-10 13:17:22.540,791, 320, 438, 9, 10, 2, -4, -2, -2, 971, 864, 233,7
2025-03-10 13:17:22.591,602, 499, 538, -34, 56, -43, -4, -1, -5, 943, 720, 58,7
2025-03-10 13:17:22.891,743, 538, 434, -1, -1, 0, -4, -1, -2, 940, 703, 96,8
2025-03-10 13:17:22.941,729, 520, 427, -2, -2, 0, -4, 1, -3, 939, 707, 96,8
2025-03-10 13:17:23.002,749, 539, 422, -1, -1, 0, -5, -1, -3, 944, 711, 79,8
2025-03-10 13:17:23.055,650, 521, 501, 1, -12, 4, -4, -1, -3, 948, 744, 61,8
2025-03-10 13:17:23.112,634, 536, 465, -27, 2, -11, -6, -1, -3, 952, 828, 56,8
2025-03-10 13:17:23.163,1001, 454, 522, 14, -6, 0, -3, -4, 1, 970, 844, 35,8
2025-03-10 13:17:23.221,664, 432, 433, -14, 29, 33, -3, 0, -2, 966, 869, 71,8
2025-03-10 13:17:23.271,1132, 748, 551, 17, -51, -62, -3, -3, -1, 962, 883, 504,8
2025-03-10 13:17:23.341,753, 615, 485, -11, -37, -2, -4, -2, -3, 965, 893, 537,8
2025-03-10 13:17:23.391,559, 532, 281, 7, 19, 22, -4, 0, -1, 971, 890, 315,8
2025-03-10 13:17:23.441,832, 458, 208, 0, 20, 2, -4, -1, -1, 965, 856, 231,8
2025-03-10 13:17:23.771,749, 526, 404, -1, -1, 3, -3, -2, -2, 943, 762, 337,9
2025-03-10 13:17:23.831,758, 548, 410, -2, -1, 3, -3, -2, -2, 944, 762, 342,9
2025-03-10 13:17:23.887,728, 572, 441, -3, -4, 2, -5, -1, -3, 942, 774, 343,9
2025-03-10 13:17:23.937,756, 535, 396, -3, -6, 3, -3, -2, -1, 945, 788, 378,9
2025-03-10 13:17:23.991,649, 533, 479, -1, -17, 7, -4, 0, -2, 945, 812, 402,9
2025-03-10 13:17:24.054,694, 593, 456, -18, -9, -12, -3, 0, -3, 956, 861, 166,9
2025-03-10 13:17:24.104,938, 423, 529, 41, -4, -15, -3, -3, 0, 970, 867, 30,9
2025-03-10 13:17:24.165,676, 601, 208, -31, 42, 45, -4, -1, -4, 968, 876, 59,9
2025-03-10 13:17:24.221,505, 325, 776, 9, -28, -18, -4, 0, -3, 961, 878, 193,9
2025-03-10 13:17:24.271,767, 625, 473, 23, -7, 5, -3, -3, -3, 960, 866, 408,9
2025-03-10 13:17:24.332,1004, 699, 205, -33, 41, 39, -5, 0, -3, 966, 865, 54,9
2025-03-10 13:17:24.387,842, 186, 406, -3, 11, -30, -5, 0, -5, 945, 724, 71,9
2025-03-10 13:17:24.722,737, 563, 398, 1, -9, 2, -2, -2, -3, 894, 582, 121,+
2025-03-10 13:17:24.772,736, 563, 377, -1, -6, 1, -2, 0, -3, 893, 595, 114,+
2025-03-10 13:17:24.822,713, 578, 447, -5, -1, 0, -2, 0, -4, 907, 658, 183,+
2025-03-10 13:17:24.881,685, 552, 479, 2, -6, 1, -2, 0, -4, 917, 685, 189,+
2025-03-10 13:17:24.935,757, 567, 410, -3, -5, 1, -1, -1, -2, 920, 686, 208,+
2025-03-10 13:17:24.991,697, 561, 470, -5, -3, -6, -3, -1, -4, 926, 699, 162,+
2025-03-10 13:17:25.042,776, 560, 417, 9, -1, 13, -1, -1, -5, 937, 759, 194,+
2025-03-10 13:17:25.103,670, 535, 455, 1, 0, -2, -2, -2, -3, 936, 785, 301,+
2025-03-10 13:17:25.155,716, 549, 425, -10, -1, -11, -3, -2, -3, 935, 782, 273,+
2025-03-10 13:17:25.211,710, 585, 465, -3, -1, 3, -2, -2, -3, 939, 772, 178,+
2025-03-10 13:17:25.271,699, 554, 427, -3, 0, -2, -2, -1, -3, 939, 784, 199,+
2025-03-10 13:17:25.321,717, 577, 414, -10, -9, -3, -2, 0, -4, 936, 808, 228,+
2025-03-10 13:17:25.381,594, 572, 596, 2, -44, 8, -4, -2, -3, 947, 849, 349,+
2025-03-10 13:17:25.435,735, 433, 463, 11, -9, 1, -4, -1, -2, 964, 879, 299,+
2025-03-10 13:17:25.491,467, 481, 312, 19, 38, 25, -3, -3, -1, 969, 872, 65,+
2025-03-10 13:17:25.541,565, 384, 463, -36, 10, -14, -1, 1, -1, 959, 780, 44,+
2025-03-10 13:17:25.602,715, 499, 571, 6, -4, -13, -2, -1, -4, 957, 837, 64,+
2025-03-10 13:17:25.654,544, 313, 63, -23, 9, 40, -4, 1, -2, 973, 896, 380,+
2025-03-10 13:17:25.712,742, 507, 419, 12, 13, -5, -5, -2, -2, 954, 855, 492,+
2025-03-10 13:17:25.771,707, 538, 536, -56, 52, -53, -2, 0, -4, 925, 749, 345,+
2025-03-10 13:17:26.021,735, 556, 420, -2, -5, 0, -3, -1, -2, 927, 776, 331,-
2025-03-10 13:17:26.076,736, 543, 424, 0, -5, 1, -3, 0, -4, 929, 779, 327,-
2025-03-10 13:17:26.131,719, 549, 438, -4, 1, -1, -3, 0, -4, 928, 786, 336,-
2025-03-10 13:17:26.187,714, 573, 429, -1, -1, 1, -4, -2, -3, 934, 796, 330,-
2025-03-10 13:17:26.241,706, 566, 439, -2, 2, 0, -3, 0, -4, 934, 795, 292,-
2025-03-10 13:17:26.291,737, 552, 410, -10, -1, -3, -3, 1, -5, 938, 795, 200,-
2025-03-10 13:17:26.341,695, 546, 472, -6, 0, -3, -2, 0, -5, 945, 797, 26,-
2025-03-10 13:17:26.401,699, 539, 428, 8, -2, -3, -3, 0, -4, 937, 787, 63,-
2025-03-10 13:17:26.454,751, 143, 253, 9, 4, -26, -2, 0, -4, 947, 790, 52,-
2025-03-10 13:17:26.506,936, 527, 336, 63, -5, 1, -4, 1, -1, 960, 871, 58,-
2025-03-10 13:17:26.561,356, 432, 289, 17, 5, 31, -4, 1, -2, 966, 891, 354,-
2025-03-10 13:17:26.613,727, 545, 372, 14, 4, 0, -5, -2, -1, 972, 876, 434,-
2025-03-10 13:17:26.672,891, 420, 255, -51, 46, -42, -4, -1, -3, 941, 746, 234,-
2025-03-10 13:17:27.003,700, 555, 435, -5, -1, 1, -1, 0, -3, 912, 660, 48,÷
2025-03-10 13:17:27.052,693, 539, 443, -2, -1, 0, -4, -2, -4, 912, 664, 61,÷
2025-03-10 13:17:27.107,714, 555, 446, -1, -3, 1, -2, -1, -5, 920, 687, 64,÷
2025-03-10 13:17:27.163,718, 558, 436, -2, 0, 0, 0, -1, -5, 927, 706, 157,÷
2025-03-10 13:17:27.219,708, 552, 452, -4, -2, -1, -3, 0, -3, 926, 732, 148,÷
2025-03-10 13:17:27.271,711, 547, 440, -5, 0, -2, -3, -1, -3, 932, 753, 163,÷
2025-03-10 13:17:27.321,686, 563, 476, -2, -3, -1, -2, 0, -2, 930, 760, 60,÷
2025-03-10 13:17:27.376,774, 532, 362, -2, 1, 2, -4, 2, -6, 936, 770, 186,÷
2025-03-10 13:17:27.431,678, 563, 492, -2, 1, 1, -2, -1, -5, 939, 784, 192,÷
2025-03-10 13:17:27.491,720, 539, 414, -5, 0, -3, -1, 1, -4, 941, 797, 186,÷
2025-03-10 13:17:27.541,758, 558, 438, -1, -3, -2, -2, -1, -4, 942, 805, 169,÷
2025-03-10 13:17:27.591,675, 542, 503, 1, -3, 0, -3, -1, -5, 943, 811, 212,÷
2025-03-10 13:17:27.652,724, 568, 421, -1, 1, 2, -4, -1, -5, 946, 810, 208,÷
2025-03-10 13:17:27.703,750, 563, 463, -1, -3, 7, -3, 0, -6, 947, 819, 258,÷
2025-03-10 13:17:27.761,681, 544, 474, -5, -1, 1, -4, 1, -5, 953, 827, 248,÷
2025-03-10 13:17:27.818,664, 782, 683, -5, -11, -19, -4, -1, -3, 961, 869, 56,÷
2025-03-10 13:17:27.871,762, 327, 505, 16, -1, -8, -3, 0, -3, 964, 876, 47,÷
2025-03-10 13:17:27.921,811, 446, 394, 9, 28, 25, -4, 1, -4, 964, 843, 151,÷
2025-03-10 13:17:27.981,203, 666, 887, 24, 52, 25, -3, 0, -6, 959, 787, 41,÷
2025-03-10 13:17:28.035,601, 1145, 12, 27, -4, -7, -3, -1, -4, 967, 836, 28,÷
2025-03-10 13:17:28.086,850, 286, 805, 23, 1, -4, -4, 0, -2, 958, 845, 49,÷
2025-03-10 13:17:28.141,526, 518, 407, -25, 39, -45, -3, -1, -4, 951, 789, 33,÷
2025-03-10 13:17:28.204,727, -692, 150, -55, -17, -14, -2, -1, -3, 960, 854, 59,÷
2025-03-10 13:17:28.261,673, 189, 131, 11, 3, 36, -4, 0, -2, 972, 892, 152,÷
2025-03-10 13:17:28.311,720, 581, 476, 20, 10, 4, -5, -1, -2, 963, 861, 411,÷
2025-03-10 13:17:28.371,696, 507, 376, -39, 62, -61, -4, -2, -1, 933, 704, 304,÷
2025-03-10 13:17:28.681,694, 544, 480, -4, -3, -5, -2, 1, -5, 900, 607, 54,=
2025-03-10 13:17:28.741,697, 548, 481, -2, -3, -5, -2, -1, -4, 901, 608, 42,=
2025-03-10 13:17:28.797,732, 559, 451, 0, -8, -7, -1, -1, -5, 889, 596, 64,=
2025-03-10 13:17:28.851,724, 540, 508, 9, -17, -19, -1, 0, -5, 890, 504, 43,=
2025-03-10 13:17:28.905,707, 571, 466, 20, -48, -40, -3, -3, -2, 896, 514, 50,=
2025-03-10 13:17:28.964,708, 691, 313, 18, -25, -18, -2, -3, -1, 903, 454, 54,=
2025-03-10 13:17:29.018,614, 761, 201, -16, 11, 18, -1, -4, 0, 924, 564, 79,=
2025-03-10 13:17:29.071,698, 592, 381, -2, 8, 26, -3, -3, 0, 938, 666, 169,=
2025-03-10 13:17:29.121,851, 623, 354, 6, 2, 32, -4, -1, -1, 944, 731, 287,=
2025-03-10 13:17:29.187,742, 555, 335, -8, 13, -6, -5, -1, -3, 945, 747, 304,=
2025-03-10 13:17:29.237,699, 596, 433, -19, 4, -1, 0, -2, 0, 944, 753, 292,=
2025-03-10 13:17:29.291,627, 585, 466, -10, -6, 1, -2, -1, -2, 947, 749, 230,=
2025-03-10 13:17:29.351,905, 656, 482, -5, -16, 0, -3, -1, -2, 969, 860, 29,=
2025-03-10 13:17:29.404,585, 541, 217, -18, 11, 33, -4, 0, -2, 971, 886, 304,=
2025-03-10 13:17:29.461,648, 513, 376, 29, 21, -4, -6, -2, -2, 960, 836, 407,=
2025-03-10 13:17:29.518,1554, -119, 227, -29, 8, -18, -1, 0, 0, 959, 719, 201,=
2025-03-10 13:17:29.571,818, 720, 436, -10, 7, 57, -4, -1, -1, 974, 881, 63,=
2025-03-10 13:17:29.621,737, 459, 485, 17, 8, 8, -5, 0, -1, 960, 847, 285,=
2025-03-10 13:17:29.681,680, 517, 327, -79, 98, -73, -3, 1, -4, 929, 596, 45,=
2025-03-10 13:17:30.001,556, 583, 351, 9, -27, 53, 0, -2, -4, 861, 528, 88,≠
2025-03-10 13:17:30.053,616, 528, 353, 10, -24, 54, 0, 1, -5, 858, 528, 52,≠
2025-03-10 13:17:30.112,731, 544, 247, -2, 7, 12, -2, -2, -4, 854, 521, 42,≠
2025-03-10 13:17:30.161,963, 665, 579, 14, -7, -7, -2, -1, -4, 871, 579, 234,≠
2025-03-10 13:17:30.221,521, 561, 516, -14, 20, 4, -1, 1, -6, 890, 615, 151,≠
2025-03-10 13:17:30.272,743, 639, 420, -2, -9, 7, -1, -1, -4, 895, 667, 261,≠
2025-03-10 13:17:30.333,741, 559, 410, -7, -4, -3, -2, -3, -5, 902, 662, 181,≠
2025-03-10 13:17:30.386,682, 590, 449, -3, -5, 3, -2, -1, -4, 911, 697, 182,≠
2025-03-10 13:17:30.442,712, 567, 468, 6, -8, 4, -1, -1, -4, 916, 716, 181,≠
2025-03-10 13:17:30.491,747, 588, 385, -2, -5, 1, -3, 1, -4, 919, 717, 166,≠
2025-03-10 13:17:30.550,705, 547, 478, -1, 3, -2, -3, -2, -3, 913, 722, 153,≠
2025-03-10 13:17:30.605,706, 585, 432, -1, -3, -1, -2, 0, -4, 917, 721, 193,≠
2025-03-10 13:17:30.661,727, 565, 416, 0, 0, -5, -3, -1, -3, 921, 720, 198,≠
2025-03-10 13:17:30.714,702, 583, 437, -3, 0, 1, -2, 0, -3, 918, 719, 111,≠
2025-03-10 13:17:30.767,716, 577, 428, -1, 0, -2, -3, -1, -4, 917, 697, 117,≠
2025-03-10 13:17:30.821,700, 564, 425, -6, -7, -6, -1, 0, -2, 916, 721, 168,≠
2025-03-10 13:17:30.881,797, 372, 342, -22, -14, -18, -2, 1, -4, 927, 763, 39,≠
2025-03-10 13:17:30.936,776, 993, 430, 12, -29, 21, -2, -1, -4, 959, 876, 267,≠
2025-03-10 13:17:30.991,597, 361, 525, 27, 7, 4, -3, -1, -3, 957, 871, 488,≠
2025-03-10 13:17:31.050,683, 604, 423, -1, 40, -24, -4, -1, -2, 935, 728, 384,≠
2025-03-10 13:17:31.102,912, 929, 354, 28, -6, -3, 1, -2, -1, 959, 820, 185,≠
2025-03-10 13:17:31.161,561, 405, 337, -16, 14, 39, -3, -2, -2, 959, 869, 264,≠
2025-03-10 13:17:31.218,746, 476, 178, -40, 14, -71, -3, -1, -3, 943, 840, 417,≠
2025-03-10 13:17:31.271,586, 588, 635, -1, -55, 38, -3, -2, -3, 948, 862, 469,≠
2025-03-10 13:17:31.331,696, 510, 437, -20, 36, 17, -3, -1, -3, 959, 864, 64,≠
2025-03-10 13:17:31.385,1098, 392, 0, -13, 47, 20, -1, 0, -5, 959, 761, 41,≠
2025-03-10 13:17:31.441,1099, 242, -15, -35, 36, -48, -3, -2, -4, 924, 778, 329,≠
2025-03-10 13:17:31.503,352, 571, 770, -23, 12, -37, -1, -2, -8, 921, 783, 215,≠
2025-03-10 13:17:31.807,696, 577, 479, -3, -4, 1, -2, 1, -6, 910, 696, 34,≈
2025-03-10 13:17:31.860,688, 567, 500, -3, -5, 3, -1, 0, -7, 904, 707, 67,≈
2025-03-10 13:17:31.909,713, 553, 463, 1, -6, 2, -1, 0, -6, 915, 724, 36,≈
2025-03-10 13:17:31.967,713, 559, 464, -1, -6, 1, -3, -1, -6, 918, 744, 51,≈
2025-03-10 13:17:32.021,709, 556, 448, -6, 0, 0, -2, -1, -5, 922, 762, 55,≈
2025-03-10 13:17:32.071,710, 567, 455, -3, -2, 3, -1, 1, -5, 932, 778, 34,≈
2025-03-10 13:17:32.121,722, 541, 447, 2, -4, 0, -2, 0, -5, 925, 791, 67,≈
2025-03-10 13:17:32.171,702, 550, 462, 1, -3, 0, -2, 0, -4, 925, 793, 65,≈
2025-03-10 13:17:32.225,731, 550, 424, -2, -3, -1, -2, 2, -4, 935, 800, 26,≈
2025-03-10 13:17:32.276,709, 554, 449, 1, 1, 0, -2, 1, -4, 930, 797, 48,≈
2025-03-10 13:17:32.336,672, 537, 471, 2, -3, -2, -3, 0, -5, 929, 805, 113,≈
2025-03-10 13:17:32.386,736, 568, 447, -5, -1, -9, -3, 0, -4, 938, 812, 68,≈
2025-03-10 13:17:32.441,720, 559, 450, -9, 1, -1, -2, -1, -3, 941, 833, 58,≈
2025-03-10 13:17:32.500,796, 648, 264, 28, -26, -8, -2, 0, -5, 944, 873, 317,≈
2025-03-10 13:17:32.552,741, 418, 575, 13, -12, 8, -4, 1, -4, 969, 883, 503,≈
2025-03-10 13:17:32.605,721, 588, 309, 5, 12, 15, -4, -2, -2, 960, 875, 376,≈
2025-03-10 13:17:32.668,826, 370, 283, -7, 39, -16, -3, -2, -5, 951, 848, 201,≈
2025-03-10 13:17:32.721,554, 652, 738, 41, -18, 5, -1, -2, -3, 944, 749, 59,≈
2025-03-10 13:17:32.771,808, 393, 139, -13, 5, 2, -3, -1, -2, 954, 860, 188,≈
2025-03-10 13:17:32.831,492, 611, 520, 1, -5, 11, -4, 0, -4, 959, 874, 318,≈
2025-03-10 13:17:32.885,664, 854, 327, 0, 15, 25, -4, -1, -3, 971, 874, 224,≈
2025-03-10 13:17:32.941,918, 285, 340, -13, 15, -25, -3, 0, -3, 954, 845, 423,≈
2025-03-10 13:17:32.999,599, 540, 613, -40, 32, -41, -1, -1, -6, 939, 788, 224,≈
2025-03-10 13:17:33.241,658, 565, 523, 4, -5, -23, -2, -1, -7, 897, 560, 112,<
2025-03-10 13:17:33.299,659, 573, 524, 6, -7, -23, -1, 1, -8, 901, 542, 136,<
2025-03-10 13:17:33.353,667, 561, 479, 4, -14, -27, 0, -1, -7, 893, 536, 199,<
2025-03-10 13:17:33.412,624, 548, 453, 27, -36, -35, -1, -2, -5, 904, 562, 242,<
2025-03-10 13:17:33.466,577, 673, 380, 13, -3, -2, 1, -1, -5, 914, 552, 304,<
2025-03-10 13:17:33.519,600, 643, 424, 5, 4, 42, 2, -1, -5, 927, 647, 291,<
2025-03-10 13:17:33.571,703, 592, 362, -3, 7, 33, 0, -2, -4, 932, 742, 388,<
2025-03-10 13:17:33.624,734, 557, 435, 1, -7, 14, 0, -1, -3, 941, 783, 454,<
2025-03-10 13:17:33.684,775, 523, 374, -5, -3, 2, -2, -1, -3, 943, 805, 459,<
2025-03-10 13:17:33.741,713, 578, 410, -10, 1, -8, -1, -3, -2, 945, 811, 437,<
2025-03-10 13:17:33.791,831, 574, 423, 6, -6, 6, -2, -1, -3, 944, 824, 470,<
2025-03-10 13:17:33.841,627, 600, 474, -8, 5, -1, -1, -1, -4, 945, 823, 510,<
2025-03-10 13:17:33.902,706, 554, 436, 8, -20, 21, -3, 0, -3, 951, 837, 547,<
2025-03-10 13:17:33.952,791, 527, 333, -7, 3, -7, -3, 0, -2, 944, 837, 551,<
2025-03-10 13:17:34.016,673, 621, 477, -11, -12, -3, -2, 2, -4, 952, 847, 540,<
2025-03-10 13:17:34.072,744, 687, 413, -16, -14, -4, -3, 0, -5, 958, 875, 475,<
2025-03-10 13:17:34.126,446, 470, 476, 17, 9, -10, -2, -1, -2, 962, 875, 328,<
2025-03-10 13:17:34.183,1583, 677, 327, -7, 14, 8, -3, -1, -2, 964, 857, 50,<
2025-03-10 13:17:34.241,548, 506, 454, -28, 20, 65, -4, 1, -4, 975, 893, 39,<
2025-03-10 13:17:34.285,737, 528, 458, 15, 7, 0, -4, 0, -4, 961, 870, 71,<
2025-03-10 13:17:34.341,655, 571, 298, -56, 65, -71, -3, 1, -3, 940, 773, 145,<
2025-03-10 13:17:34.402,515, 670, 804, 12, -19, 1, 0, -2, -8, 925, 765, 207,<
2025-03-10 13:17:34.671,717, 534, 432, -2, -4, 2, -1, -1, -4, 934, 773, 284,≤
2025-03-10 13:17:34.721,719, 548, 446, 0, -4, 2, -1, -1, -4, 933, 773, 286,≤
2025-03-10 13:17:34.771,715, 581, 440, -3, 0, 2, -3, 0, -5, 934, 783, 304,≤
2025-03-10 13:17:34.828,720, 533, 458, -5, -2, 1, -4, 1, -3, 939, 792, 300,≤
2025-03-10 13:17:34.883,723, 557, 426, 0, -4, 0, -2, 1, -6, 947, 805, 349,≤
2025-03-10 13:17:34.935,716, 555, 484, 4, -11, 4, -2, 1, -4, 945, 825, 429,≤
2025-03-10 13:17:34.991,1112, 495, 292, -16, -9, -6, -2, 1, -4, 957, 864, 406,≤
2025-03-10 13:17:35.052,729, 579, 418, -5, -1, -3, -3, 0, -4, 961, 883, 358,≤
2025-03-10 13:17:35.102,549, 431, 445, 20, -2, -12, -2, 0, -4, 966, 884, 316,≤
2025-03-10 13:17:35.162,681, 677, 180, -5, 17, -4, -1, -1, -2, 966, 860, 74,≤
2025-03-10 13:17:35.216,1102, 664, 430, 18, 17, 39, -2, 0, -2, 973, 891, 58,≤
2025-03-10 13:17:35.271,671, 592, 547, 20, 4, 13, -5, 1, -3, 975, 895, 251,≤
2025-03-10 13:17:35.322,716, 510, 373, 25, 43, -9, -5, -2, -1, 966, 800, 293,≤
2025-03-10 13:17:35.383,849, 708, 395, 35, 2, -15, -3, -1, -3, 962, 742, 76,≤
2025-03-10 13:17:35.434,839, 651, 220, -20, 4, 51, -4, -1, -2, 974, 890, 63,≤
2025-03-10 13:17:35.486,672, 406, 399, 22, 13, 7, -3, -1, -4, 971, 856, 38,≤
2025-03-10 13:17:35.541,719, 505, 185, -68, 78, -62, -3, 0, -4, 923, 450, 59,≤
2025-03-10 13:17:35.821,707, 589, 438, -15, -3, 0, -2, 1, -6, 902, 627, 73,>
2025-03-10 13:17:35.883,705, 556, 425, -17, -2, -1, -1, -2, -4, 905, 624, 45,>
2025-03-10 13:17:35.934,705, 541, 452, -5, -4, -3, -2, 1, -5, 909, 676, 68,>
2025-03-10 13:17:35.986,697, 549, 467, -2, -6, -1, -1, 2, -7, 919, 689, 44,>
2025-03-10 13:17:36.041,710, 561, 452, -4, -6, -3, -2, -1, -5, 925, 735, 70,>
2025-03-10 13:17:36.100,711, 574, 438, -2, -8, 1, -2, 0, -3, 935, 760, 87,>
2025-03-10 13:17:36.152,709, 539, 439, -3, -4, -4, -1, 0, -5, 940, 780, 101,>
2025-03-10 13:17:36.211,698, 562, 448, -3, -4, -4, -4, 1, -6, 942, 799, 179,>
2025-03-10 13:17:36.261,718, 547, 432, 0, -2, -2, -2, 1, -6, 942, 807, 230,>
2025-03-10 13:17:36.317,660, 571, 487, -4, -9, -3, -4, 1, -5, 945, 815, 245,>
2025-03-10 13:17:36.371,978, 228, 157, -23, -10, -14, -3, -2, -2, 955, 840, 294,>
2025-03-10 13:17:36.432,832, 534, 216, 23, -6, 36, -3, 2, -5, 972, 887, 569,>
2025-03-10 13:17:36.485,602, 562, 545, 23, 3, 2, -5, 0, -2, 968, 882, 579,>
2025-03-10 13:17:36.541,692, 261, 388, -11, 33, 8, -4, -1, -3, 977, 878, 179,>
2025-03-10 13:17:36.591,843, 565, 473, -6, 25, 6, -3, -1, -2, 961, 804, 80,>
2025-03-10 13:17:36.651,654, 542, 399, -42, 45, -33, -4, -1, -4, 940, 781, 290,>
2025-03-10 13:17:36.943,716, 556, 436, -2, -2, 0, -3, 0, -6, 950, 785, 226,≥
2025-03-10 13:17:37.001,702, 547, 441, -2, -3, -1, -3, 3, -7, 955, 781, 198,≥
2025-03-10 13:17:37.051,703, 545, 461, 3, -5, 0, -1, 1, -5, 951, 792, 234,≥
2025-03-10 13:17:37.101,729, 567, 406, 2, -7, 2, -3, -1, -5, 956, 799, 203,≥
2025-03-10 13:17:37.161,743, 550, 411, -3, -3, 0, -3, 0, -5, 956, 804, 201,≥
2025-03-10 13:17:37.211,723, 561, 444, -3, -2, -2, -3, -1, -5, 960, 809, 39,≥
2025-03-10 13:17:37.271,732, 544, 427, -6, -3, -2, -3, 1, -4, 955, 814, 83,≥
2025-03-10 13:17:37.321,682, 561, 476, 1, -12, 2, -4, -1, -4, 961, 813, 49,≥
2025-03-10 13:17:37.376,738, 612, 414, -17, -4, -7, -3, 0, -3, 961, 833, 80,≥
2025-03-10 13:17:37.434,722, 799, 437, 49, -10, 18, -5, 0, -4, 968, 878, 387,≥
2025-03-10 13:17:37.485,639, 332, 461, 14, 1, 1, -4, -1, -2, 976, 883, 505,≥
2025-03-10 13:17:37.541,525, 857, 90, -6, 25, 6, -4, -1, -1, 975, 878, 117,≥
2025-03-10 13:17:37.599,914, 429, 410, -12, 35, 6, -5, 1, -3, 971, 799, 27,≥
2025-03-10 13:17:37.649,556, 454, 456, 1, 36, -9, -4, 1, -4, 960, 669, 60,≥
2025-03-10 13:17:37.702,748, 775, 206, 42, 0, -14, -2, 0, -2, 962, 715, 60,≥
2025-03-10 13:17:37.756,1003, 917, 443, 5, -6, 53, -3, -1, -3, 974, 881, 73,≥
2025-03-10 13:17:37.811,667, 388, 379, 2, 12, 16, -4, -2, 0, 976, 883, 60,≥
2025-03-10 13:17:37.868,959, 365, 33, -29, 58, -58, -5, 0, -1, 953, 780, 175,≥
2025-03-10 13:17:38.197,605, 614, 551, 11, -31, -59, 3, -2, -8, 760, 86, 52,±
2025-03-10 13:17:38.251,593, 655, 511, 11, -33, -61, 2, -1, -7, 762, 99, 67,±
2025-03-10 13:17:38.302,554, 714, 465, -4, -24, -41, 2, 0, -6, 778, 71, 47,±
2025-03-10 13:17:38.362,531, 798, 409, 2, -28, -24, 4, -3, -7, 817, 229, 79,±
2025-03-10 13:17:38.415,492, 802, 414, 12, -21, 20, 4, -2, -3, 868, 406, 63,±
2025-03-10 13:17:38.468,531, 723, 298, 8, -5, 58, 1, -1, -3, 886, 446, 45,±
2025-03-10 13:17:38.521,659, 543, 434, 15, -5, 54, -2, -1, -4, 875, 438, 88,±
2025-03-10 13:17:38.572,705, 617, 353, 4, 14, 42, 0, -1, -2, 885, 462, 49,±
2025-03-10 13:17:38.621,707, 604, 413, -8, 9, 15, -3, 1, -4, 891, 557, 85,±
2025-03-10 13:17:38.683,743, 622, 407, -3, 6, 15, -2, -2, -3, 906, 623, 167,±
2025-03-10 13:17:38.735,677, 583, 430, -8, 4, 10, -3, 2, -5, 916, 661, 81,±
2025-03-10 13:17:38.791,782, 569, 446, -1, 2, 2, -2, -1, -3, 919, 698, 132,±
2025-03-10 13:17:38.842,748, 586, 406, 2, -1, 3, -2, 0, -1, 922, 680, 69,±
2025-03-10 13:17:38.898,686, 586, 397, -9, 2, -6, -1, 0, -4, 926, 704, 65,±
2025-03-10 13:17:38.951,806, 522, 513, 5, -25, -1, -1, -2, -5, 941, 779, 63,±
2025-03-10 13:17:39.001,1041, 1042, 93, -2, -20, 35, -4, -1, -1, 972, 890, 339,±
2025-03-10 13:17:39.066,632, 575, 454, -2, 14, 16, -3, -1, -4, 970, 884, 482,±
2025-03-10 13:17:39.121,490, 688, 536, -23, -8, -29, -2, -1, -3, 957, 843, 438,±
2025-03-10 13:17:39.171,740, 565, 408, 12, -3, 4, -3, 0, -2, 975, 874, 404,±
2025-03-10 13:17:39.233,656, 622, 255, 8, 38, 39, -4, -1, -4, 970, 794, 144,±
2025-03-10 13:17:39.291,533, 547, 479, -7, 19, -34, -2, -2, -3, 952, 453, 142,±
2025-03-10 13:17:39.342,859, 546, 258, 9, -11, -2, -1, -1, -1, 970, 833, 71,±
2025-03-10 13:17:39.401,709, 520, 373, -29, 19, 46, -3, -1, -3, 977, 887, 245,±
2025-03-10 13:17:39.451,905, 401, 143, -16, 44, -37, -3, -1, -5, 955, 806, 404,±
2025-03-10 13:17:39.516,592, 515, 735, -30, 50, -42, 0, 1, -9, 916, 569, 61,±
2025-03-10 13:17:39.781,717, 537, 454, -3, -7, 2, -3, 1, -6, 893, 640, 35,∓
2025-03-10 13:17:39.832,712, 541, 443, -5, -6, 1, -1, 0, -7, 893, 654, 64,∓
2025-03-10 13:17:39.884,696, 557, 478, -3, -3, 1, -1, 1, -7, 898, 686, 74,∓
2025-03-10 13:17:39.943,689, 551, 479, -1, -9, 0, -3, 1, -9, 906, 715, 58,∓
2025-03-10 13:17:39.991,713, 553, 445, -6, -7, 0, -2, -1, -6, 912, 731, 86,∓
2025-03-10 13:17:40.049,726, 561, 448, -7, -4, -1, -2, 1, -8, 921, 738, 74,∓
2025-03-10 13:17:40.101,716, 552, 456, -7, -1, -1, -2, 1, -7, 925, 747, 80,∓
2025-03-10 13:17:40.151,713, 551, 488, -3, -3, 0, -2, 0, -5, 927, 750, 74,∓
2025-03-10 13:17:40.201,726, 536, 461, -4, -3, -2, -3, 1, -5, 927, 752, 69,∓
2025-03-10 13:17:40.261,710, 544, 466, 0, -2, 0, -4, 2, -7, 933, 764, 41,∓
2025-03-10 13:17:40.314,714, 547, 453, 1, -2, -1, -2, -2, -7, 935, 767, 63,∓
2025-03-10 13:17:40.368,712, 549, 459, 0, -3, -3, -2, 1, -7, 937, 770, 45,∓
2025-03-10 13:17:40.421,696, 552, 459, -4, -4, -9, -1, 2, -5, 932, 783, 92,∓
2025-03-10 13:17:40.471,564, 555, 582, 2, -14, -6, -2, 0, -7, 935, 758, 74,∓
2025-03-10 13:17:40.532,707, 477, 505, -32, -20, -16, 0, 1, -6, 949, 817, 89,∓
2025-03-10 13:17:40.591,1091, 974, 415, 34, -39, 30, -2, -1, -3, 978, 894, 190,∓
2025-03-10 13:17:40.647,637, 843, 367, -16, 0, 28, -5, 3, -6, 979, 892, 441,∓
2025-03-10 13:17:40.700,588, 539, 259, 39, 23, 0, -4, -1, -4, 959, 844, 510,∓
2025-03-10 13:17:40.761,583, 596, 491, -20, 31, -30, -2, -1, -4, 942, 629, 214,∓
2025-03-10 13:17:40.814,850, 921, 503, 4, -13, -1, -1, 0, -3, 963, 825, 71,∓
2025-03-10 13:17:40.871,827, 419, 451, 14, -3, 38, -3, -1, -2, 975, 888, 253,∓
2025-03-10 13:17:40.921,664, 562, 461, 13, 10, 6, -3, -1, -2, 964, 850, 437,∓
2025-03-10 13:17:40.982,495, 660, 574, -35, 10, -42, -7, 0, -3, 953, 770, 304,∓
2025-03-10 13:17:41.033,834, 955, 349, -41, 7, 28, -2, -1, -4, 976, 846, 43,∓
2025-03-10 13:17:41.092,697, 436, 331, -22, 35, 24, -3, -1, -3, 964, 776, 87,∓
2025-03-10 13:17:41.151,856, 532, 107, -24, 44, -55, -2, -1, -4, 925, 577, 135,∓
2025-03-10 13:17:41.211,544, 576, 805, -20, 22, -35, -3, 2, -11, 876, 639, 113,∓
2025-03-10 13:17:41.601,682, 561, 495, 2, -3, 1, -3, 2, -8, 854, 526, 50,∞
2025-03-10 13:17:41.651,678, 572, 499, 1, -4, 2, -4, -1, -3, 853, 521, 49,∞
2025-03-10 13:17:41.711,711, 556, 477, 3, -5, 1, -4, 1, -7, 852, 518, 47,∞
2025-03-10 13:17:41.765,708, 564, 455, -4, 1, -1, -2, 2, -8, 851, 533, 83,∞
2025-03-10 13:17:41.815,694, 544, 496, -2, -2, -3, -2, -1, -6, 851, 527, 71,∞
2025-03-10 13:17:41.871,704, 571, 463, 2, -4, -2, 0, -1, -4, 837, 560, 89,∞
2025-03-10 13:17:41.925,708, 558, 472, -2, -3, 0, -3, 1, -6, 853, 583, 77,∞
2025-03-10 13:17:41.975,705, 548, 467, -1, -1, 1, -2, -3, -4, 867, 620, 69,∞
2025-03-10 13:17:42.031,710, 560, 455, -1, -3, 3, -1, 0, -5, 886, 673, 96,∞
2025-03-10 13:17:42.082,695, 556, 450, -4, -4, -2, -5, -2, -7, 905, 708, 40,∞
2025-03-10 13:17:42.133,725, 555, 451, -4, -5, 1, -1, 2, -5, 909, 737, 92,∞
2025-03-10 13:17:42.183,684, 551, 471, 1, 1, 0, -4, 1, -5, 920, 736, 46,∞
2025-03-10 13:17:42.233,700, 556, 458, 3, -3, 2, 0, 1, -5, 921, 744, 81,∞
2025-03-10 13:17:42.292,725, 546, 434, 3, -3, 0, -4, 1, -7, 916, 741, 92,∞
2025-03-10 13:17:42.341,717, 556, 441, -5, -2, -3, -3, 2, -6, 920, 745, 74,∞
2025-03-10 13:17:42.400,708, 571, 385, 5, 0, 5, -3, 0, -6, 929, 774, 196,∞
2025-03-10 13:17:42.451,625, 549, 521, -1, 13, -8, -2, -2, -5, 933, 775, 75,∞
2025-03-10 13:17:42.501,796, 571, 424, 2, -6, 2, -2, 1, -6, 932, 723, 81,∞
2025-03-10 13:17:42.551,713, 566, 435, -7, 1, -4, -2, 0, -4, 928, 757, 100,∞
2025-03-10 13:17:42.616,739, 539, 459, 16, -14, 8, -2, 1, -4, 933, 797, 204,∞
2025-03-10 13:17:42.666,651, 475, 399, 2, -1, 9, -3, 0, -6, 939, 809, 227,∞
2025-03-10 13:17:42.721,674, 624, 624, 2, -3, -6, -2, -3, -2, 958, 840, 69,∞
2025-03-10 13:17:42.771,839, 514, 430, -21, 17, 2, -2, 0, -3, 957, 827, 95,∞
2025-03-10 13:17:42.832,695, 325, 467, 21, 15, -21, -2, 4, -10, 945, 821, 55,∞
2025-03-10 13:17:42.884,762, 814, 477, -4, -23, 28, -3, 0, -3, 964, 879, 80,∞
2025-03-10 13:17:42.941,544, 564, 207, -17, 1, 14, -3, 0, -6, 970, 877, 86,∞
2025-03-10 13:17:42.998,515, 275, 475, -7, -18, -33, -2, 0, -5, 961, 870, 53,∞
2025-03-10 13:17:43.051,684, 556, 463, 9, 3, -2, -4, 0, -5, 960, 859, 86,∞
2025-03-10 13:17:43.101,563, 555, 368, -29, 27, 30, -4, 1, -5, 971, 798, 53,∞
2025-03-10 13:17:43.155,845, 275, 701, 20, 7, -9, -5, 1, -5, 942, 586, 93,∞
2025-03-10 13:17:43.215,720, 542, 515, -37, 85, -42, -1, 1, -7, 879, 640, 59,∞
2025-03-10 13:17:43.498,687, 523, 487, 9, -3, 1, -4, 4, -10, 885, 606, 63,∑
2025-03-10 13:17:43.551,697, 552, 507, 7, -3, 2, -4, 4, -10, 885, 612, 71,∑
2025-03-10 13:17:43.602,699, 551, 478, 1, -5, 3, -4, 2, -10, 896, 644, 41,∑
2025-03-10 13:17:43.652,699, 551, 486, 0, -2, 1, -2, 1, -8, 898, 687, 92,∑
2025-03-10 13:17:43.702,706, 544, 470, 0, -4, -1, -3, 2, -8, 895, 708, 86,∑
2025-03-10 13:17:43.752,708, 558, 466, 1, -2, -3, 2, 2, -7, 896, 719, 63,∑
2025-03-10 13:17:43.811,696, 560, 481, 1, -2, -2, -2, 0, -8, 897, 738, 98,∑
2025-03-10 13:17:43.866,700, 555, 481, 2, -5, 2, -2, 0, -6, 901, 738, 85,∑
2025-03-10 13:17:43.919,708, 550, 463, -2, -5, 1, -3, 0, -6, 906, 741, 65,∑
2025-03-10 13:17:43.968,706, 539, 458, 0, 0, 0, -3, -1, -6, 910, 747, 70,∑
2025-03-10 13:17:44.021,736, 558, 448, -4, -2, -4, -3, 0, -5, 912, 756, 83,∑
2025-03-10 13:17:44.071,687, 550, 484, -4, 0, -4, 0, 0, -4, 915, 757, 84,∑
2025-03-10 13:17:44.121,795, 558, 478, 11, -6, 6, -2, 0, -6, 917, 771, 96,∑
2025-03-10 13:17:44.181,617, 539, 486, -5, 0, -5, -1, 0, -5, 932, 778, 52,∑
2025-03-10 13:17:44.232,681, 569, 569, 11, -32, 23, -1, 0, -7, 940, 818, 319,∑
2025-03-10 13:17:44.286,729, 502, 343, 10, 3, 3, 0, 1, -7, 949, 819, 286,∑
2025-03-10 13:17:44.341,607, 572, 500, 11, 12, -9, -3, -1, -6, 945, 796, 100,∑
2025-03-10 13:17:44.401,861, 544, 480, 17, -6, -11, -3, 1, -4, 960, 846, 74,∑
2025-03-10 13:17:44.461,331, 369, 205, -23, -10, 50, -3, -1, -4, 975, 898, 230,∑
2025-03-10 13:17:44.513,676, 517, 489, 23, 4, 1, -4, -1, -2, 962, 854, 423,∑
2025-03-10 13:17:44.568,582, 608, 500, -19, 15, -46, -3, 1, -4, 942, 769, 303,∑
2025-03-10 13:17:44.621,811, 578, 420, 29, -16, -3, -1, -2, -3, 966, 851, 231,∑
2025-03-10 13:17:44.681,743, 585, 336, 11, 9, 28, 0, -2, -1, 970, 879, 283,∑
2025-03-10 13:17:44.733,668, 510, 540, 9, 6, 6, -4, -1, -2, 965, 857, 285,∑
2025-03-10 13:17:44.791,773, 485, 520, -34, 14, -11, -4, -2, -2, 961, 713, 45,∑
2025-03-10 13:17:44.841,720, 788, 444, 9, -3, 38, -2, -1, -4, 970, 866, 64,∑
2025-03-10 13:17:44.898,571, 412, 457, -4, 7, 13, -2, -1, -2, 971, 877, 66,∑
2025-03-10 13:17:44.951,906, 397, 238, 5, 28, -39, -2, 0, -6, 937, 742, 68,∑
2025-03-10 13:17:45.231,678, 581, 501, -8, 0, -1, -1, 0, -6, 860, 510, 40,∏
2025-03-10 13:17:45.283,675, 575, 498, -8, -1, 0, -2, 1, -7, 861, 506, 31,∏
2025-03-10 13:17:45.334,700, 549, 480, 0, -6, 1, -3, 0, -6, 864, 568, 44,∏
2025-03-10 13:17:45.385,707, 540, 472, -4, -4, -1, -2, 1, -6, 863, 585, 48,∏
2025-03-10 13:17:45.446,698, 557, 479, 0, -2, -1, -2, -1, -5, 883, 618, 38,∏
2025-03-10 13:17:45.496,713, 556, 455, -3, -2, 0, -1, 0, -6, 878, 632, 60,∏
2025-03-10 13:17:45.549,702, 539, 470, -3, -1, 0, -2, 0, -6, 888, 642, 65,∏
2025-03-10 13:17:45.601,709, 541, 450, -3, -2, 1, -2, 0, -5, 905, 661, 44,∏
2025-03-10 13:17:45.657,705, 528, 470, -1, -3, -1, -2, -1, -6, 904, 678, 72,∏
2025-03-10 13:17:45.713,699, 541, 471, -3, -3, 0, -2, 1, -6, 910, 693, 51,∏
2025-03-10 13:17:45.765,699, 530, 474, 1, -7, -3, -2, 0, -8, 917, 730, 73,∏
2025-03-10 13:17:45.816,724, 560, 441, -2, -6, -5, -2, 3, -7, 921, 743, 30,∏
2025-03-10 13:17:45.871,644, 541, 476, -3, 6, -2, -4, -1, -6, 926, 752, 59,∏
2025-03-10 13:17:45.922,723, 568, 434, 2, -6, -5, -5, 4, -8, 928, 752, 41,∏
2025-03-10 13:17:45.980,639, 556, 469, -8, -5, -13, -1, 0, -5, 919, 740, 77,∏
2025-03-10 13:17:46.032,716, 534, 326, 9, -6, -16, -2, 1, -4, 932, 778, 55,∏
2025-03-10 13:17:46.083,1042, 312, 671, 66, -26, -8, -1, 1, -4, 959, 875, 80,∏
2025-03-10 13:17:46.147,844, 523, 207, -6, -6, 31, -3, 1, -2, 971, 878, 193,∏
2025-03-10 13:17:46.199,641, 528, 512, 19, 7, -2, -4, 1, -3, 963, 852, 292,∏
2025-03-10 13:17:46.258,558, 608, 451, -28, 23, -52, -4, -1, -3, 942, 771, 230,∏
2025-03-10 13:17:46.315,833, 635, 482, -21, -10, 10, -3, -1, -4, 961, 849, 187,∏
2025-03-10 13:17:46.365,578, 337, 167, 7, 20, 20, -4, 1, -2, 972, 849, 61,∏
2025-03-10 13:17:46.421,752, 269, 821, 25, -25, -25, -5, 0, -5, 950, 781, 87,∏
2025-03-10 13:17:46.482,507, 597, 831, -3, -28, 23, -4, 0, -5, 961, 860, 381,∏
2025-03-10 13:17:46.533,618, 567, 219, -2, 33, 34, -4, 1, -4, 974, 867, 71,∏
2025-03-10 13:17:46.583,821, 529, 303, 3, 25, 5, -3, 0, -3, 956, 740, 72,∏
2025-03-10 13:17:46.641,755, 520, 296, -59, 79, -62, -1, 2, -7, 920, 690, 46,∏
2025-03-10 13:17:46.921,671, 534, 526, -2, -11, 5, -2, 1, -8, 882, 633, 81,√
2025-03-10 13:17:46.971,674, 520, 510, 0, -12, 4, 1, -2, -6, 881, 633, 77,√
2025-03-10 13:17:47.025,737, 512, 433, -1, -9, 2, -4, 1, -7, 876, 640, 62,√
2025-03-10 13:17:47.081,701, 518, 493, -2, 1, -2, -2, 1, -8, 873, 648, 54,√
2025-03-10 13:17:47.132,686, 518, 512, 3, -1, -1, -4, 1, -9, 866, 646, 74,√
2025-03-10 13:17:47.182,720, 579, 477, 11, -4, 1, -1, 1, -8, 821, 544, 61,√
2025-03-10 13:17:47.231,702, 518, 485, -3, -4, 0, 0, -2, -8, 821, 515, 50,√
2025-03-10 13:17:47.291,700, 541, 471, -2, -6, 1, -3, 0, -6, 847, 542, 60,√
2025-03-10 13:17:47.341,715, 511, 460, 0, -4, 2, -2, -1, -6, 867, 621, 56,√
2025-03-10 13:17:47.396,719, 520, 462, 0, -3, 0, -3, 1, -7, 872, 639, 73,√
2025-03-10 13:17:47.450,708, 530, 479, 3, -3, 2, -3, 2, -7, 882, 659, 80,√
2025-03-10 13:17:47.501,729, 522, 449, 0, -4, 3, -2, 1, -6, 898, 687, 51,√
2025-03-10 13:17:47.551,705, 518, 469, -2, -2, -6, -3, 0, -6, 904, 709, 55,√
2025-03-10 13:17:47.604,738, 535, 480, -3, 0, 1, -3, 2, -8, 914, 729, 61,√
2025-03-10 13:17:47.658,689, 523, 468, 10, 2, -3, -3, 0, -6, 928, 743, 41,√
2025-03-10 13:17:47.712,698, 540, 463, 13, 5, 0, -1, 0, -4, 917, 732, 81,√
2025-03-10 13:17:47.764,787, 585, 389, 14, -5, -8, -2, 1, -5, 906, 723, 64,√
2025-03-10 13:17:47.816,663, 533, 433, 5, 1, -5, -2, 1, -5, 911, 720, 58,√
2025-03-10 13:17:47.871,798, 520, 195, 20, -11, -12, -1, -1, -4, 940, 801, 62,√
2025-03-10 13:17:47.929,454, 499, 258, 6, 5, 28, -2, 0, -3, 958, 861, 282,√
2025-03-10 13:17:47.982,666, 545, 382, 4, 24, 25, -4, 0, -3, 960, 846, 210,√
2025-03-10 13:17:48.035,783, 601, 310, -58, 22, 28, -3, 1, -4, 959, 834, 83,√
2025-03-10 13:17:48.091,1002, 221, 539, 17, -72, -66, -5, 0, -5, 960, 877, 44,√
2025-03-10 13:17:48.148,695, 629, 550, 25, -30, 1, -3, 0, -5, 965, 887, 286,√
2025-03-10 13:17:48.201,671, 352, 213, 12, 14, 21, -4, 1, -3, 969, 885, 353,√
2025-03-10 13:17:48.261,862, 431, 266, 4, 34, -39, -7, -1, -4, 953, 857, 451,√
2025-03-10 13:17:48.541,719, 545, 416, -3, 3, -1, -2, -1, -5, 904, 631, 79,∛
2025-03-10 13:17:48.598,715, 550, 451, -3, 4, -2, -1, 0, -3, 906, 631, 78,∛
2025-03-10 13:17:48.651,712, 581, 454, 3, -1, -2, -3, 0, -5, 900, 630, 63,∛
2025-03-10 13:17:48.706,710, 556, 431, -1, 4, -1, -4, -3, -2, 900, 618, 42,∛
2025-03-10 13:17:48.756,667, 590, 469, 1, -2, 0, 0, 0, -5, 891, 626, 59,∛
2025-03-10 13:17:48.813,680, 520, 467, 2, -13, 1, -3, -1, -4, 891, 604, 82,∛
2025-03-10 13:17:48.866,828, 443, 386, 2, 0, -8, -2, 0, -6, 931, 776, 86,∛
2025-03-10 13:17:48.915,492, 510, 494, 16, -2, 30, -2, 1, -2, 955, 852, 225,∛
2025-03-10 13:17:48.971,597, 771, 238, -2, 33, 32, -3, -1, -2, 967, 831, 52,∛
2025-03-10 13:17:49.031,781, 695, 390, -66, 26, 17, -2, 0, -3, 951, 838, 82,∛
2025-03-10 13:17:49.091,811, 559, 847, -10, -54, -31, -3, -1, -4, 948, 873, 203,∛
2025-03-10 13:17:49.146,865, 614, 145, 24, -24, 29, -4, -1, -2, 965, 879, 424,∛
2025-03-10 13:17:49.201,632, 480, 461, 13, 4, 2, -2, -1, -1, 959, 864, 524,∛
2025-03-10 13:17:49.256,503, 545, 306, -35, 52, -100, -2, 0, -4, 940, 814, 492,∛
2025-03-10 13:17:49.314,574, 694, 724, 19, -70, 37, -1, -2, -4, 934, 817, 501,∛
2025-03-10 13:17:49.371,840, 616, 361, 16, -6, -4, -1, -2, -3, 953, 878, 524,∛
2025-03-10 13:17:49.421,637, 637, 497, -1, 0, 12, -1, -1, -3, 959, 877, 568,∛
2025-03-10 13:17:49.481,703, 621, 169, 1, 2, 3, -2, -1, -3, 959, 877, 514,∛
2025-03-10 13:17:49.534,645, 697, 462, -8, 14, 7, -2, -1, -3, 959, 876, 469,∛
2025-03-10 13:17:49.591,882, 589, 256, -9, 25, 9, -1, 0, -3, 954, 815, 333,∛
2025-03-10 13:17:49.648,642, 517, 448, -49, 82, -42, -1, -1, -7, 905, 732, 123,∛
2025-03-10 13:17:49.701,494, 659, 672, 15, -13, 17, 0, 1, -10, 904, 734, 219,∛
2025-03-10 13:17:49.966,676, 570, 479, -6, 0, 2, -1, 0, -5, 867, 595, 45,∜
2025-03-10 13:17:50.021,675, 553, 481, -6, 0, 2, -1, 0, -4, 865, 592, 54,∜
2025-03-10 13:17:50.071,694, 566, 458, 4, -2, 2, -1, -1, -5, 863, 595, 69,∜
2025-03-10 13:17:50.129,626, 591, 513, 15, -2, 3, -2, 0, -5, 865, 614, 24,∜
2025-03-10 13:17:50.181,684, 522, 504, 13, -27, 12, -1, -1, -4, 861, 675, 65,∜
2025-03-10 13:17:50.232,738, 579, 309, 7, 8, 3, -1, 0, -5, 948, 814, 47,∜
2025-03-10 13:17:50.291,580, 424, 649, 23, 3, 11, -2, -2, -3, 954, 857, 263,∜
2025-03-10 13:17:50.345,750, 588, 271, -6, 33, 37, -4, 0, -2, 958, 831, 51,∜
2025-03-10 13:17:50.398,758, 641, 464, -72, 16, 18, -2, -1, -5, 947, 824, 69,∜
2025-03-10 13:17:50.456,804, 650, 473, 3, -53, -40, -4, 1, -6, 952, 870, 39,∜
2025-03-10 13:17:50.513,964, 698, 486, 22, -30, 31, -4, 0, -6, 961, 883, 261,∜
2025-03-10 13:17:50.566,600, 543, 509, 14, 7, 14, -5, 0, -4, 960, 869, 477,∜
2025-03-10 13:17:50.621,572, 510, 220, -31, 55, -102, -4, -1, -4, 945, 852, 486,∜
2025-03-10 13:17:50.681,651, 733, 612, 16, -42, 7, 2, -1, -4, 943, 831, 467,∜
2025-03-10 13:17:50.732,691, 1348, 700, 20, -18, -4, -2, -3, -3, 950, 878, 625,∜
2025-03-10 13:17:50.791,691, 733, 326, 4, -5, 0, -2, 0, -4, 961, 880, 550,∜
2025-03-10 13:17:50.845,752, 828, 124, 1, 17, 4, -2, 0, -3, 961, 862, 131,∜
2025-03-10 13:17:50.898,810, 678, 616, -17, 8, 17, -1, -2, -3, 963, 883, 292,∜
2025-03-10 13:17:50.956,692, 565, 337, -4, 11, 13, -4, 0, -4, 962, 885, 535,∜
2025-03-10 13:17:51.013,458, 611, 708, -11, 10, -31, -2, 0, -4, 950, 855, 543,∜
2025-03-10 13:17:51.066,771, 472, 341, 3, -3, 13, -1, 0, -3, 964, 881, 523,∜
2025-03-10 13:17:51.121,676, 450, 271, -33, 52, 39, -2, -1, -4, 971, 852, 235,∜
2025-03-10 13:17:51.181,752, 518, 159, -30, 74, -64, -2, -1, -7, 951, 795, 391,∜
2025-03-10 13:17:51.232,465, 654, 677, -24, 26, -18, 2, 1, -11, 926, 796, 428,∜
2025-03-10 13:17:51.296,575, 646, 578, 5, -19, 11, 2, 2, -10, 913, 718, 267,∜
2025-03-10 13:17:51.566,677, 542, 489, 7, -11, 2, -2, 0, -10, 881, 605, 43,∫
2025-03-10 13:17:51.623,687, 558, 494, 8, -10, 3, -2, 0, -10, 880, 601, 42,∫
2025-03-10 13:17:51.671,694, 554, 480, 2, -5, 1, -3, 0, -8, 875, 598, 52,∫
2025-03-10 13:17:51.730,678, 565, 502, 5, -3, 1, -2, 1, -7, 867, 614, 59,∫
2025-03-10 13:17:51.779,683, 544, 482, 3, -4, 2, 0, 1, -7, 874, 633, 55,∫
2025-03-10 13:17:51.833,695, 538, 484, 7, -8, 0, 0, 2, -8, 886, 642, 32,∫
2025-03-10 13:17:51.882,711, 561, 470, 8, -1, 6, -1, 0, -8, 906, 661, 49,∫
2025-03-10 13:17:51.933,702, 564, 429, 4, 1, 4, -2, 1, -6, 922, 689, 48,∫
2025-03-10 13:17:51.982,677, 559, 506, 5, 0, 2, 0, -1, -5, 923, 709, 56,∫
2025-03-10 13:17:52.033,714, 547, 476, 7, -5, 8, -2, -2, -6, 926, 724, 94,∫
2025-03-10 13:17:52.090,747, 547, 457, 4, -3, 6, -1, -1, -5, 934, 737, 192,∫
2025-03-10 13:17:52.141,669, 556, 413, 1, 1, 6, -4, 0, -6, 938, 761, 385,∫
2025-03-10 13:17:52.201,722, 560, 487, 8, -12, 18, -4, 1, -6, 945, 767, 396,∫
2025-03-10 13:17:52.251,680, 507, 445, -5, -22, 13, -3, -1, -4, 944, 800, 396,∫
2025-03-10 13:17:52.312,662, 465, 613, -13, -9, -17, -4, 1, -6, 950, 839, 172,∫
2025-03-10 13:17:52.367,838, 403, 555, 21, 13, -8, -3, 1, -2, 955, 846, 63,∫
2025-03-10 13:17:52.421,630, 833, 179, 5, 46, 29, -3, 0, -4, 963, 834, 53,∫
2025-03-10 13:17:52.471,888, 455, 495, -9, 18, 7, -2, -1, -3, 957, 761, 52,∫
2025-03-10 13:17:52.528,931, 520, 483, 15, 7, -7, -2, 1, -5, 896, 633, 56,∫
2025-03-10 13:17:52.867,660, 522, 515, -5, -6, 4, -2, 1, -8, 913, 709, 56,∮
2025-03-10 13:17:52.921,685, 508, 522, -2, -8, 3, -2, 0, -9, 914, 717, 70,∮
2025-03-10 13:17:52.971,715, 539, 466, -6, -5, -2, -2, 1, -9, 925, 753, 49,∮
2025-03-10 13:17:53.021,712, 540, 461, -8, 2, 2, -2, 1, -7, 930, 775, 47,∮
2025-03-10 13:17:53.078,700, 528, 515, 1, -2, 0, -2, 3, -8, 938, 786, 34,∮
2025-03-10 13:17:53.131,714, 542, 486, 2, -8, 4, -3, 1, -10, 934, 796, 70,∮
2025-03-10 13:17:53.185,727, 511, 465, -1, -1, 1, -4, 0, -7, 937, 802, 48,∮
2025-03-10 13:17:53.233,723, 537, 501, 1, -3, -2, -3, 0, -6, 935, 803, 71,∮
2025-03-10 13:17:53.291,724, 528, 481, -2, 0, 0, -2, 0, -7, 939, 808, 58,∮
2025-03-10 13:17:53.342,710, 539, 492, -3, -1, 0, -4, 1, -7, 941, 813, 51,∮
2025-03-10 13:17:53.397,730, 519, 469, -3, -4, -1, -2, 2, -7, 943, 809, 49,∮
2025-03-10 13:17:53.448,755, 535, 450, 2, -1, -1, -2, 0, -7, 947, 814, 36,∮
2025-03-10 13:17:53.501,715, 529, 520, 3, -2, 7, -4, 1, -7, 943, 811, 86,∮
2025-03-10 13:17:53.551,711, 506, 436, 4, -1, 6, -4, 1, -7, 944, 805, 187,∮
2025-03-10 13:17:53.608,728, 546, 472, -5, -1, 7, -4, 1, -6, 948, 808, 157,∮
2025-03-10 13:17:53.659,710, 499, 468, 0, -3, 4, -4, 1, -8, 948, 813, 213,∮
2025-03-10 13:17:53.715,721, 517, 433, 4, -12, 9, -5, 2, -7, 953, 821, 296,∮
2025-03-10 13:17:53.768,766, 416, 486, 1, -4, -7, -6, 1, -6, 948, 820, 310,∮
2025-03-10 13:17:53.821,644, 541, 496, -4, 0, -13, -5, 1, -7, 949, 824, 153,∮
2025-03-10 13:17:53.880,770, 506, 446, -11, -23, -5, -4, 2, -8, 952, 846, 52,∮
2025-03-10 13:17:53.931,361, 445, 500, 15, -5, -25, -3, 1, -5, 953, 866, 73,∮
2025-03-10 13:17:53.981,967, 868, 41, 66, 36, 28, -4, 0, -5, 970, 875, 28,∮
2025-03-10 13:17:54.044,714, 595, 460, -19, 38, 31, -3, -1, -4, 959, 872, 71,∮
2025-03-10 13:17:54.101,589, 606, 535, 1, -27, -40, -3, -3, -4, 956, 871, 576,∮
2025-03-10 13:17:54.157,873, 689, 386, -1, -22, 1, -3, -2, -5, 967, 885, 496,∮
2025-03-10 13:17:54.212,927, 455, 539, -28, 33, 45, -3, 0, -3, 964, 867, 62,∮
2025-03-10 13:17:54.268,904, 382, 346, -35, 26, -2, -5, 1, -4, 960, 811, 46,∮
2025-03-10 13:17:54.321,942, 550, 209, -16, -1, -51, -3, 0, -6, 929, 812, 71,∮
2025-03-10 13:17:54.380,469, 652, 719, 8, -53, 7, -2, 0, -7, 936, 856, 541,∮
2025-03-10 13:17:54.432,831, 586, 195, 7, 3, 30, -4, -1, -5, 971, 881, 315,∮
2025-03-10 13:17:54.484,1008, 716, 438, -29, 48, 48, -4, 0, -7, 964, 873, 61,∮
2025-03-10 13:17:54.533,859, 349, 582, 0, 31, -8, -4, 2, -7, 942, 728, 63,∮
2025-03-10 13:17:54.597,761, 545, 294, -28, 69, -57, -2, 2, -10, 824, 677, 53,∮
2025-03-10 13:17:54.651,458, 656, 785, -5, 24, -33, 1, 1, -14, 714, 589, 55,∮
2025-03-10 13:17:54.951,685, 560, 528, 1, -8, -14, -1, 0, -10, 557, 121, 32,∂
2025-03-10 13:17:55.005,682, 561, 503, 0, -7, -14, -1, 1, -10, 570, 150, 64,∂
2025-03-10 13:17:55.064,687, 547, 543, 2, -16, -26, 0, 0, -10, 606, 231, 59,∂
2025-03-10 13:17:55.113,662, 598, 533, 11, -22, -35, 1, 1, -9, 585, 217, 37,∂
2025-03-10 13:17:55.164,635, 590, 486, 24, -15, -39, 0, 0, -8, 621, 206, 36,∂
2025-03-10 13:17:55.228,491, 743, 461, 20, -18, 8, 0, -1, -6, 765, 294, 45,∂
2025-03-10 13:17:55.281,625, 584, 420, 4, -6, 37, 0, -2, -6, 808, 396, 57,∂
2025-03-10 13:17:55.331,708, 625, 361, 1, -4, 25, -2, -1, -4, 857, 542, 30,∂
2025-03-10 13:17:55.381,663, 535, 402, -16, 8, 23, -2, -1, -3, 881, 650, 62,∂
2025-03-10 13:17:55.444,650, 554, 419, -9, 13, 34, -2, -1, -4, 906, 689, 39,∂
2025-03-10 13:17:55.497,976, 630, 382, -12, 10, 5, -2, 2, -6, 917, 713, 65,∂
2025-03-10 13:17:55.551,617, 537, 583, -2, -2, 1, -2, -1, -5, 929, 736, 114,∂
2025-03-10 13:17:55.601,735, 500, 468, -5, -6, 5, -1, 2, -5, 937, 766, 224,∂
2025-03-10 13:17:55.661,764, 526, 387, -5, -1, -7, -4, 1, -5, 935, 776, 331,∂
2025-03-10 13:17:55.714,632, 542, 528, -4, -3, -13, -1, -2, -1, 939, 801, 307,∂
2025-03-10 13:17:55.771,726, 540, 560, 9, -49, 8, -3, 0, -6, 944, 832, 361,∂
2025-03-10 13:17:55.830,861, 657, 405, 39, -13, 11, -4, 0, -4, 956, 870, 551,∂
2025-03-10 13:17:55.881,557, 562, 448, 36, 20, 23, -2, 1, -4, 967, 850, 573,∂
2025-03-10 13:17:55.931,1187, 693, 265, -22, 36, 13, -4, -1, -3, 961, 841, 72,∂
2025-03-10 13:17:55.996,988, 385, 517, 1, -16, -18, -3, 0, -3, 958, 873, 72,∂
2025-03-10 13:17:56.051,605, 667, 300, -8, -25, 20, -4, 1, -3, 968, 891, 214,∂
2025-03-10 13:17:56.107,721, 484, 326, -4, 28, 16, -4, 0, -1, 967, 866, 341,∂
2025-03-10 13:17:56.437,667, 546, 375, 11, -12, 0, -1, -2, -6, 736, 371, 65,∇
2025-03-10 13:17:56.492,665, 533, 411, 11, -9, -1, -3, 1, -6, 752, 372, 70,∇
2025-03-10 13:17:56.547,701, 576, 399, 9, -6, -2, 1, 0, -7, 777, 350, 22,∇
2025-03-10 13:17:56.599,704, 561, 428, -7, 0, 10, -2, -1, -4, 806, 420, 57,∇
2025-03-10 13:17:56.651,727, 592, 449, -5, -6, 9, -1, -1, -5, 858, 566, 32,∇
2025-03-10 13:17:56.706,709, 581, 455, 3, -12, 14, -2, 0, -5, 898, 665, 99,∇
2025-03-10 13:17:56.763,741, 536, 365, -9, 1, 1, -2, -1, -4, 915, 710, 178,∇
2025-03-10 13:17:56.813,709, 555, 464, -3, 0, 1, -2, 1, -5, 922, 731, 255,∇
2025-03-10 13:17:56.863,743, 532, 429, -4, -3, 1, -4, -1, -4, 928, 748, 282,∇
2025-03-10 13:17:56.921,695, 565, 451, -3, 0, -3, -2, -1, -5, 932, 769, 302,∇
2025-03-10 13:17:56.981,773, 549, 454, 5, -6, 2, -4, -1, -5, 942, 786, 365,∇
2025-03-10 13:17:57.032,692, 529, 407, -15, 9, -13, -3, 0, -5, 942, 784, 291,∇
2025-03-10 13:17:57.091,566, 571, 538, -6, -2, -8, -3, 1, -8, 942, 792, 279,∇
2025-03-10 13:17:57.144,750, 492, 542, 11, -60, 2, -2, 1, -5, 954, 832, 41,∇
2025-03-10 13:17:57.201,937, 752, 156, 42, -26, 18, -2, -1, -4, 965, 881, 361,∇
2025-03-10 13:17:57.255,472, 394, 258, -20, 9, 32, -5, 1, -3, 967, 868, 543,∇
2025-03-10 13:17:57.312,416, 341, 401, 20, 11, -11, -5, 0, -3, 975, 862, 459,∇
2025-03-10 13:17:57.363,612, 572, 159, -10, 39, 3, -4, 0, -2, 966, 836, 74,∇
2025-03-10 13:17:57.421,922, 258, 672, -48, 9, -36, -5, 1, -4, 949, 792, 199,∇
2025-03-10 13:17:57.479,468, 653, 1063, 9, -57, -10, -1, 1, -7, 946, 816, 349,∇
2025-03-10 13:17:57.531,602, 602, 341, -16, 3, 51, -2, 0, -4, 972, 884, 264,∇
2025-03-10 13:17:57.591,755, 369, 366, -15, 39, 29, -3, 1, -5, 969, 858, 75,∇
2025-03-10 13:17:57.645,844, 430, 199, -38, 46, -55, -6, -1, -4, 945, 723, 48,∇
2025-03-10 13:17:57.705,581, 557, 717, -20, 30, -34, -1, 2, -8, 868, 574, 83,∇
2025-03-10 13:17:57.991,624, 680, 417, -2, 0, -6, -1, -1, -4, 910, 380, 27,∆
2025-03-10 13:17:58.048,605, 635, 475, 1, 1, -4, -3, -1, -5, 909, 433, 59,∆
2025-03-10 13:17:58.101,605, 688, 405, 10, 2, 33, 0, 1, -6, 925, 599, 137,∆
2025-03-10 13:17:58.156,734, 541, 355, 7, -4, 21, -3, 0, -3, 932, 723, 236,∆
2025-03-10 13:17:58.213,759, 541, 365, -11, 1, 13, -3, 1, -2, 938, 750, 302,∆
2025-03-10 13:17:58.264,730, 526, 456, -2, 2, -2, -3, 1, -5, 939, 770, 309,∆
2025-03-10 13:17:58.313,739, 567, 404, -7, 1, -1, -3, 1, -3, 943, 770, 222,∆
2025-03-10 13:17:58.378,711, 578, 436, -8, 0, -1, -4, -1, -6, 943, 782, 308,∆
2025-03-10 13:17:58.429,700, 540, 429, -5, 0, 1, -3, 0, -5, 943, 786, 311,∆
2025-03-10 13:17:58.481,721, 559, 403, -5, -3, 1, -3, 0, -5, 944, 787, 318,∆
2025-03-10 13:17:58.531,673, 538, 445, -2, 2, -4, -3, -2, -3, 947, 787, 306,∆
2025-03-10 13:17:58.584,753, 582, 403, -4, -3, 0, -4, 1, -4, 943, 790, 335,∆
2025-03-10 13:17:58.645,720, 550, 450, -8, -10, -2, -1, -1, -3, 946, 799, 338,∆
2025-03-10 13:17:58.705,704, 484, 417, -27, -25, 5, -2, 1, -7, 962, 846, 307,∆
2025-03-10 13:17:58.758,883, 549, 449, 16, 15, -4, -3, 1, -4, 963, 851, 60,∆
2025-03-10 13:17:58.815,752, 524, 49, -16, 37, 16, -2, 0, -2, 960, 816, 72,∆
2025-03-10 13:17:58.871,835, 223, 645, -20, -31, -18, -2, 2, -4, 934, 805, 220,∆
2025-03-10 13:17:58.931,580, 371, 832, 32, -15, -8, -2, -1, -4, 957, 865, 416,∆
2025-03-10 13:17:58.981,662, 1016, -32, -6, 28, 39, -2, 0, -3, 969, 861, 192,∆
2025-03-10 13:17:59.031,636, 325, 471, 1, 15, 9, -5, 1, -4, 967, 854, 75,∆
2025-03-10 13:17:59.094,1020, 504, 554, -2, 5, -43, -4, 1, -4, 954, 845, 65,∆
2025-03-10 13:17:59.146,1161, 673, 267, -2, 29, 19, -2, -2, -2, 939, 742, 225,∆
2025-03-10 13:17:59.205,346, 458, 742, -51, 75, -30, 1, 0, -10, 921, 654, 33,∆
2025-03-10 13:17:59.262,412, 595, 712, -4, -11, 13, 3, 1, -13, 909, 640, 82,∆
2025-03-10 13:17:59.545,675, 549, 509, -4, -6, 4, -2, 1, -8, 873, 623, 75,π
2025-03-10 13:17:59.602,675, 542, 499, -3, -7, 3, -1, 1, -3, 875, 630, 70,π
2025-03-10 13:17:59.655,703, 540, 477, -1, -8, 5, -2, 2, -7, 884, 661, 59,π
2025-03-10 13:17:59.710,727, 520, 466, 0, -6, 2, -1, 1, -7, 892, 689, 51,π
2025-03-10 13:17:59.762,715, 543, 452, -1, -3, -1, -1, 1, -6, 901, 706, 69,π
2025-03-10 13:17:59.811,704, 527, 458, 5, -4, -1, -2, 0, -7, 902, 709, 77,π
2025-03-10 13:17:59.864,708, 533, 472, 2, -4, -1, -4, 2, -8, 905, 704, 30,π
2025-03-10 13:17:59.921,727, 541, 441, -2, -2, 0, -3, 1, -5, 909, 721, 76,π
2025-03-10 13:17:59.971,725, 546, 451, -2, -3, -1, -4, 0, -6, 915, 731, 42,π
2025-03-10 13:18:00.031,731, 561, 443, -8, -3, -4, -3, 0, -6, 916, 748, 110,π
2025-03-10 13:18:00.081,730, 548, 456, -7, 2, 0, -2, 1, -4, 926, 755, 49,π
2025-03-10 13:18:00.131,710, 540, 469, -2, -3, -2, -2, -1, -4, 927, 767, 70,π
2025-03-10 13:18:00.193,686, 542, 457, -13, 1, -12, -3, 1, -4, 934, 770, 33,π
2025-03-10 13:18:00.246,644, 567, 508, 8, -12, -3, -2, 1, -5, 934, 771, 68,π
2025-03-10 13:18:00.301,873, 498, 417, -10, -12, -16, 1, 2, -7, 955, 837, 41,π
2025-03-10 13:18:00.351,798, 696, 471, 22, -11, 0, -1, 0, -4, 963, 875, 49,π
2025-03-10 13:18:00.415,655, 781, 310, -12, -25, 63, -5, -1, -3, 971, 885, 335,π
2025-03-10 13:18:00.471,655, 511, 551, 14, 2, 10, -7, 1, -4, 972, 873, 434,π
2025-03-10 13:18:00.521,520, 464, 331, -8, 19, -37, -4, 0, -3, 959, 847, 328,π
2025-03-10 13:18:00.582,1078, 459, 365, 0, 7, -19, -3, 1, -3, 952, 826, 320,π
2025-03-10 13:18:00.633,767, 510, 440, -5, 11, 24, -4, -1, -2, 972, 875, 46,π
2025-03-10 13:18:00.693,838, 500, 292, -46, 34, 27, -4, 0, -4, 971, 842, 53,π
2025-03-10 13:18:00.747,1004, 212, 676, 45, -12, -18, -2, 1, -5, 953, 805, 72,π
2025-03-10 13:18:00.806,527, 482, 598, -10, -20, -4, -4, 2, -5, 964, 861, 185,π
2025-03-10 13:18:00.859,649, 661, 225, 15, 2, 10, -4, 4, -7, 977, 862, 43,π
2025-03-10 13:18:00.911,776, 976, 12, -2, 28, 48, -4, 0, -4, 978, 863, 59,π
2025-03-10 13:18:00.963,792, 342, 401, -7, 1, 9, -4, -1, -5, 975, 880, 51,π
2025-03-10 13:18:01.019,969, 432, 170, 0, 32, -24, -5, 1, -4, 959, 837, 189,π
2025-03-10 13:18:01.076,618, 481, 644, -46, 70, -46, -3, 0, -8, 942, 731, 51,π
2025-03-10 13:18:01.354,647, 565, 492, 12, -32, 7, -3, -1, -7, 788, 273, 51,θ
2025-03-10 13:18:01.412,643, 588, 497, 9, -34, 6, -1, -1, -8, 788, 263, 49,θ
2025-03-10 13:18:01.463,722, 575, 313, 13, -18, 0, -2, -3, -5, 767, 213, 44,θ
2025-03-10 13:18:01.514,694, 531, 428, 0, 2, -2, -3, -1, -5, 779, 243, 53,θ
2025-03-10 13:18:01.571,748, 560, 458, -4, 1, 7, -2, 0, -7, 808, 274, 42,θ
2025-03-10 13:18:01.626,727, 594, 504, -10, -2, 8, -3, 1, -6, 872, 442, 74,θ
2025-03-10 13:18:01.679,702, 578, 478, 0, -6, 11, -3, 1, -6, 903, 578, 73,θ
2025-03-10 13:18:01.731,685, 548, 439, 1, -6, 3, -2, 0, -5, 919, 647, 173,θ
2025-03-10 13:18:01.784,753, 547, 400, -7, -1, 3, -3, 1, -6, 926, 705, 272,θ
2025-03-10 13:18:01.839,692, 537, 495, -3, 0, -2, -3, 1, -5, 934, 725, 294,θ
2025-03-10 13:18:01.895,740, 545, 396, -2, -5, -4, -3, 2, -6, 934, 757, 343,θ
2025-03-10 13:18:01.946,728, 548, 460, -5, 4, 0, -3, 0, -6, 938, 765, 326,θ
2025-03-10 13:18:02.001,701, 562, 435, -1, -1, 0, -3, 0, -4, 938, 772, 332,θ
2025-03-10 13:18:02.056,657, 560, 467, -4, -10, 0, -3, 1, -5, 942, 782, 328,θ
2025-03-10 13:18:02.112,709, 595, 433, 14, -7, -24, -3, 1, -5, 949, 839, 353,θ
2025-03-10 13:18:02.162,795, 956, -302, 36, 39, 36, -2, -1, -3, 968, 847, 70,θ
2025-03-10 13:18:02.221,695, 655, 637, -14, 10, 20, -4, 2, -4, 966, 844, 54,θ
2025-03-10 13:18:02.281,452, 656, 857, 3, -22, -41, -4, -1, -7, 955, 861, 460,θ
2025-03-10 13:18:02.331,715, 825, 225, -12, -5, 32, -4, -1, -3, 972, 878, 467,θ
2025-03-10 13:18:02.391,608, 537, 384, -40, 43, 40, -4, 0, -2, 976, 868, 57,θ
2025-03-10 13:18:02.446,545, 249, 430, -35, 14, -30, -5, 0, -6, 957, 787, 68,θ
2025-03-10 13:18:02.501,493, 620, 676, -1, 3, -22, -3, 0, -5, 958, 816, 37,θ
2025-03-10 13:18:02.559,984, 587, 248, 34, -27, 25, -4, 1, -6, 976, 889, 96,θ
2025-03-10 13:18:02.611,781, 539, 451, 13, 18, 24, -3, -1, -4, 972, 868, 366,θ
2025-03-10 13:18:02.671,829, 491, 230, -41, 91, -40, -2, -1, -6, 929, 698, 251,θ
2025-03-10 13:18:02.971,616, 583, 479, 6, -27, 3, -2, 0, -7, 750, 290, 55,λ
2025-03-10 13:18:03.027,622, 568, 440, 6, -27, 2, 1, 0, -5, 752, 303, 74,λ
2025-03-10 13:18:03.081,661, 565, 410, 6, -9, 1, -1, -1, -5, 755, 294, 58,λ
2025-03-10 13:18:03.131,720, 547, 387, -3, -3, 10, -2, -1, -6, 772, 296, 63,λ
2025-03-10 13:18:03.188,736, 625, 508, -5, 1, 7, -1, 0, -6, 824, 401, 71,λ
2025-03-10 13:18:03.244,654, 555, 441, -1, -10, 11, -3, 1, -8, 877, 513, 60,λ
2025-03-10 13:18:03.301,729, 561, 430, -4, -5, 6, -1, 0, -5, 905, 641, 181,λ
2025-03-10 13:18:03.352,731, 531, 457, -5, -5, 0, -3, 0, -5, 921, 702, 277,λ
2025-03-10 13:18:03.407,699, 554, 467, -3, -2, 0, -3, -2, -4, 933, 732, 312,λ
2025-03-10 13:18:03.461,699, 548, 431, -4, -3, -4, -1, -1, -5, 935, 753, 343,λ
2025-03-10 13:18:03.512,756, 557, 391, -9, 1, -3, -2, -1, -4, 936, 769, 345,λ
2025-03-10 13:18:03.576,625, 550, 520, -5, 5, -5, -4, -1, -6, 941, 757, 325,λ
2025-03-10 13:18:03.631,577, 543, 639, 25, -54, 17, -4, -1, -5, 944, 807, 376,λ
2025-03-10 13:18:03.681,803, 505, 363, 14, -9, -4, -2, 0, -4, 960, 871, 364,λ
2025-03-10 13:18:03.733,307, 536, 403, 9, 2, 20, -2, 1, -3, 969, 870, 515,λ
2025-03-10 13:18:03.795,741, 694, 293, 2, 41, 43, -4, -1, -3, 974, 855, 193,λ
2025-03-10 13:18:03.845,744, 508, 394, -23, 11, -6, -3, -2, -2, 962, 824, 78,λ
2025-03-10 13:18:03.905,487, 707, 912, -3, -32, -11, -5, 2, -5, 965, 856, 348,λ
2025-03-10 13:18:03.961,582, 495, 551, 0, -2, -1, -4, 0, -4, 974, 881, 115,λ
2025-03-10 13:18:04.012,710, 631, -47, -32, 44, 25, -2, 0, -3, 970, 822, 54,λ
2025-03-10 13:18:04.075,1203, 237, 17, -43, 58, -65, -5, 4, -7, 944, 773, 48,λ
2025-03-10 13:18:04.127,411, 551, 925, -25, 67, -42, 0, 2, -12, 909, 733, 59,λ
2025-03-10 13:18:04.421,604, 559, 462, -5, 6, 6, 0, 0, -5, 816, 311, 48,μ
2025-03-10 13:18:04.476,629, 559, 406, -2, 1, 10, -2, 1, -5, 818, 312, 29,μ
2025-03-10 13:18:04.527,867, 559, 451, -6, 0, 3, -3, -2, -4, 843, 410, 52,μ
2025-03-10 13:18:04.581,641, 583, 515, -10, 0, 7, -2, -2, -6, 872, 529, 70,μ
2025-03-10 13:18:04.640,725, 571, 415, -2, -13, 7, -4, -1, -6, 888, 605, 59,μ
2025-03-10 13:18:04.694,768, 548, 365, -14, 1, -3, -3, 1, -6, 902, 694, 81,μ
2025-03-10 13:18:04.745,693, 553, 480, -7, 1, -7, -4, 0, -5, 911, 717, 57,μ
2025-03-10 13:18:04.794,732, 570, 433, -6, -4, 0, -2, -1, -5, 918, 739, 53,μ
2025-03-10 13:18:04.851,698, 543, 459, -5, 0, 1, -3, -1, -6, 925, 745, 47,μ
2025-03-10 13:18:04.901,725, 539, 428, -7, -2, -7, -2, -2, -6, 927, 770, 75,μ
2025-03-10 13:18:04.961,685, 557, 474, -12, 6, -10, -1, 0, -7, 922, 755, 46,μ
2025-03-10 13:18:05.011,806, 544, 413, 0, 0, 0, -2, -1, -6, 922, 750, 56,μ
2025-03-10 13:18:05.061,638, 553, 508, 2, 6, -7, -3, 0, -6, 923, 760, 73,μ
2025-03-10 13:18:05.121,746, 567, 470, 13, 11, 11, -1, -2, -3, 923, 721, 54,μ
2025-03-10 13:18:05.171,726, 545, 451, 16, 3, 9, -2, 0, -5, 920, 714, 64,μ
2025-03-10 13:18:05.225,655, 589, 465, 9, 27, 24, -2, 1, -4, 926, 659, 31,μ
2025-03-10 13:18:05.281,750, 653, 374, 11, 7, -7, -1, -1, -5, 936, 739, 78,μ
2025-03-10 13:18:05.331,952, 452, 676, -8, -15, -14, -2, 1, -5, 954, 864, 58,μ
2025-03-10 13:18:05.394,469, 356, 396, -42, -32, -19, -3, 2, -7, 962, 894, 312,μ
2025-03-10 13:18:05.451,634, 371, 467, -26, -20, -11, -1, 2, -7, 962, 897, 340,μ
2025-03-10 13:18:05.508,736, 616, 418, 27, -5, -3, -1, 1, -7, 970, 895, 391,μ
2025-03-10 13:18:05.565,443, 714, 184, 22, 11, 11, -2, -1, -4, 974, 884, 209,μ
2025-03-10 13:18:05.619,902, 766, 468, -17, 5, 24, -3, 0, -4, 974, 886, 47,μ
2025-03-10 13:18:05.671,667, 529, 455, -4, 0, 1, -3, 0, -5, 970, 887, 174,μ
2025-03-10 13:18:05.727,799, 513, 498, -15, -21, -12, -2, 1, -6, 969, 892, 212,μ
2025-03-10 13:18:05.781,681, 492, 614, 18, -9, -7, -4, 2, -8, 968, 891, 225,μ
2025-03-10 13:18:05.832,588, 509, 325, 0, 22, 21, -3, -1, -5, 973, 883, 63,μ
2025-03-10 13:18:05.893,763, 553, 523, -11, -3, 0, -5, 1, -6, 973, 890, 127,μ
2025-03-10 13:18:05.945,914, 465, 163, -28, 47, -16, -4, -1, -7, 957, 874, 412,μ
2025-03-10 13:18:06.012,621, 542, 567, -31, 65, -24, -2, 1, -11, 944, 813, 196,μ
2025-03-10 13:18:06.731,702, 546, 451, -3, 2, -1, -2, 0, -5, 820, 304, 53,ω
2025-03-10 13:18:06.788,702, 547, 447, -3, 2, -3, -1, 4, -9, 821, 310, 77,ω
2025-03-10 13:18:06.842,694, 561, 466, -4, 0, -3, -2, -1, -7, 786, 298, 41,ω
2025-03-10 13:18:06.892,721, 582, 448, 0, -2, 1, 0, 0, -6, 795, 313, 51,ω
2025-03-10 13:18:06.942,695, 565, 456, -3, 1, 1, -3, 0, -6, 813, 391, 58,ω
2025-03-10 13:18:06.995,696, 552, 466, -3, 0, 1, -3, 0, -7, 827, 426, 40,ω
2025-03-10 13:18:07.042,703, 568, 449, -5, 0, 0, 0, 3, -8, 856, 495, 51,ω
2025-03-10 13:18:07.101,694, 544, 472, -4, -2, 0, -3, 1, -7, 872, 557, 56,ω
2025-03-10 13:18:07.151,711, 556, 479, -6, 0, 4, -2, 1, -7, 893, 601, 77,ω
2025-03-10 13:18:07.209,694, 537, 486, -5, -2, -3, -4, -1, -6, 910, 661, 35,ω
2025-03-10 13:18:07.261,711, 547, 447, -8, 0, -1, -2, -1, -7, 915, 707, 65,ω
2025-03-10 13:18:07.311,734, 545, 445, -4, 4, 4, -4, 2, -8, 925, 717, 54,ω
