Timestamp,Acc_X,Acc_Y,Acc_Z,Gyro_X,Gyro_Y,Gyro_Z,Mag_X,Mag_Y,Mag_Z,Force1,Force2,Force3,Letter
2025-03-10 11:40:16.943,294, 831, 411, -44, 10, 17, 5, -3, 7, 13, 594, 373,noise
2025-03-10 11:40:16.950,468, 725, 424, -49, 11, 20, 4, -2, 6, 13, 567, 475,noise
2025-03-10 11:40:16.951,294, 831, 411, -44, 10, 17, 5, -3, 7, 13, 594, 373,noise
2025-03-10 11:40:16.953,468, 725, 424, -49, 11, 20, 4, -2, 6, 13, 567, 475,noise
2025-03-10 11:40:23.854,581, 677, 502, 4, -2, 4, -1, -5, 5, 820, 757, 626,A
2025-03-10 11:40:23.903,588, 667, 489, 3, -2, 3, -1, -3, 6, 818, 757, 622,A
2025-03-10 11:40:23.954,574, 672, 504, 0, -1, -1, -1, -5, 5, 821, 762, 628,A
2025-03-10 11:40:24.014,562, 663, 528, 1, -3, 3, -1, -5, 6, 815, 759, 633,A
2025-03-10 11:40:24.068,581, 650, 516, 4, -8, 1, -1, -4, 7, 815, 761, 630,A
2025-03-10 11:40:24.120,604, 655, 468, 5, -9, 1, -1, -5, 6, 813, 756, 638,A
2025-03-10 11:40:24.173,604, 662, 427, -6, 1, -9, -2, -6, 7, 791, 756, 633,A
2025-03-10 11:40:24.223,589, 663, 482, -5, 3, -9, -2, -5, 7, 792, 757, 634,A
2025-03-10 11:40:24.283,552, 684, 508, -14, 7, -10, 1, -4, 6, 800, 759, 640,A
2025-03-10 11:40:24.338,566, 672, 486, -6, 2, -4, -1, -5, 5, 800, 761, 641,A
2025-03-10 11:40:24.389,556, 622, 566, -4, 1, -8, 1, -4, 5, 800, 762, 649,A
2025-03-10 11:40:24.443,521, 705, 519, 5, 1, -6, -1, -4, 3, 816, 767, 656,A
2025-03-10 11:40:24.493,489, 707, 493, 44, -33, 11, 1, -5, 5, 816, 772, 665,A
2025-03-10 11:40:24.554,491, 857, 609, -7, -12, -18, 1, -6, 8, 840, 787, 671,A
2025-03-10 11:40:24.605,655, 678, 589, 34, -34, 50, 0, -6, 9, 864, 799, 684,A
2025-03-10 11:40:24.664,804, 685, 46, -32, 15, -25, -2, -5, 8, 861, 804, 702,A
2025-03-10 11:40:24.721,409, 675, 604, -27, 24, -14, 0, -4, 7, 855, 788, 679,A
2025-03-10 11:40:24.773,574, 776, 426, -10, 17, -10, 0, -4, 5, 843, 789, 684,A
2025-03-10 11:40:24.834,562, 656, 495, -14, -2, -13, 1, -4, 6, 834, 789, 679,A
2025-03-10 11:40:24.887,461, 719, 629, 9, -5, 6, 1, -5, 4, 834, 785, 668,A
2025-03-10 11:40:24.939,543, 698, 536, 24, -21, 19, 1, -6, 6, 840, 791, 678,A
2025-03-10 11:40:24.993,643, 693, 357, 11, -16, 11, 0, -5, 7, 838, 780, 672,A
2025-03-10 11:40:25.048,599, 699, 388, -14, -3, -9, 0, -6, 7, 814, 771, 663,A
2025-03-10 11:40:25.104,542, 708, 439, -9, -2, 2, -1, -5, 7, 822, 783, 666,A
2025-03-10 11:40:25.155,608, 700, 383, 4, -2, 9, 0, -4, 6, 837, 794, 670,A
2025-03-10 11:40:25.205,630, 674, 417, -8, 6, -1, -1, -5, 7, 841, 803, 682,A
2025-03-10 11:40:25.268,579, 708, 470, -19, 10, 3, -2, -4, 6, 845, 806, 696,A
2025-03-10 11:40:25.321,664, 665, 455, -41, -2, -15, 0, -4, 9, 753, 805, 711,A
2025-03-10 11:40:25.379,551, 675, 490, -62, -6, -34, 1, -4, 6, 15, 783, 651,A
2025-03-10 11:40:25.427,486, 670, 618, -45, -24, -38, 2, -4, 3, 4, 782, 580,A
2025-03-10 11:40:25.489,554, 673, 713, -29, -51, -37, 1, -4, 3, 11, 766, 567,A
2025-03-10 11:40:25.544,458, 737, 650, 43, -107, 69, 0, -4, 3, 848, 780, 721,A
2025-03-10 11:40:25.603,595, 696, -35, -30, -48, 74, -7, -2, 4, 912, 791, 759,A
2025-03-10 11:40:25.656,593, 363, 676, 15, 22, 52, -7, -1, 3, 939, 841, 792,A
2025-03-10 11:40:25.706,949, 705, 364, 42, 4, -2, -8, 0, 5, 940, 853, 805,A
2025-03-10 11:40:25.764,706, 502, 341, -11, -20, -21, -8, -1, 6, 960, 892, 834,A
2025-03-10 11:40:25.823,541, 666, 380, 25, 12, 31, -7, -3, 4, 956, 922, 861,A
2025-03-10 11:40:25.874,704, 450, 631, 14, 19, 47, -8, -3, 6, 954, 939, 875,A
2025-03-10 11:40:25.936,734, 506, 238, -14, 10, 0, -10, 0, 7, 962, 948, 880,A
2025-03-10 11:40:25.987,736, 535, 508, -21, -11, -14, -10, -2, 5, 966, 947, 890,A
2025-03-10 11:40:26.044,759, 696, 387, 2, -10, -6, -9, -2, 5, 971, 964, 901,A
2025-03-10 11:40:26.104,677, 559, 605, 21, -27, -11, -8, -2, 4, 961, 956, 878,A
2025-03-10 11:40:26.156,1089, 156, -55, 31, 47, 21, -7, -1, 9, 966, 947, 823,A
2025-03-10 11:40:26.219,916, 2, 453, -57, -9, -41, -9, -1, 6, 970, 958, 881,A
2025-03-10 11:40:26.271,472, 635, 754, 29, -34, 42, -9, -2, 4, 964, 957, 890,A
2025-03-10 11:40:26.323,870, 1120, -153, 11, 37, 33, -9, -3, 5, 961, 954, 873,A
2025-03-10 11:40:26.387,735, 202, 448, -15, 14, -35, -11, -1, 4, 957, 947, 868,A
2025-03-10 11:40:26.444,795, 821, 252, 6, -9, -24, -9, -2, 4, 962, 944, 840,A
2025-03-10 11:40:26.494,833, 708, 291, -10, 8, 38, -8, -3, 6, 965, 961, 870,A
2025-03-10 11:40:26.554,767, 333, 394, -27, 21, 0, -10, -1, 5, 959, 944, 891,A
2025-03-10 11:40:26.605,599, 448, 519, -71, 97, -75, -7, -3, 0, 957, 934, 856,A
2025-03-10 11:40:26.669,397, 592, 802, -16, 33, -34, -1, -3, -3, 953, 903, 826,A
2025-03-10 11:40:26.725,517, 567, 672, 10, -21, 3, 0, -3, -3, 935, 876, 795,A
2025-03-10 11:40:26.774,657, 613, 504, 16, -24, 3, -2, -3, -1, 925, 870, 791,A
2025-03-10 11:40:26.836,654, 583, 492, -1, -1, -1, -2, -3, -1, 923, 864, 788,A
2025-03-10 11:40:26.894,630, 562, 523, -10, 10, -11, -2, -5, -2, 926, 854, 778,A
2025-03-10 11:40:26.944,562, 598, 632, 0, 4, -3, 0, -3, -3, 917, 843, 756,A
2025-03-10 11:40:26.994,583, 605, 582, 7, -4, 3, -1, -2, -1, 914, 833, 749,A
2025-03-10 11:40:27.055,613, 593, 542, 9, -9, 4, -1, -4, -1, 914, 836, 736,A
2025-03-10 11:40:27.105,643, 605, 514, 0, -4, 3, -2, -5, 0, 905, 826, 728,A
2025-03-10 11:40:27.164,625, 563, 553, -4, 1, -3, -2, -2, 0, 882, 817, 706,A
2025-03-10 11:40:27.214,614, 580, 558, -2, -4, -5, -2, -3, 0, 908, 820, 703,A
2025-03-10 11:40:27.280,615, 594, 534, 2, -3, -4, -1, -5, -1, 904, 815, 697,A
2025-03-10 11:40:27.323,606, 609, 531, 1, -1, -1, 0, -3, -1, 895, 812, 693,A
2025-03-10 11:40:27.373,626, 596, 515, 1, -2, -1, -3, -2, 0, 896, 814, 690,A
2025-03-10 11:40:27.435,626, 593, 530, -2, 1, 2, 0, -4, 0, 891, 810, 683,A
2025-03-10 11:40:27.487,618, 583, 547, 0, 1, -1, -1, -3, 1, 905, 823, 686,A
2025-03-10 11:40:27.537,607, 593, 544, 0, 0, 1, -2, -1, 0, 886, 808, 676,A
2025-03-10 11:40:27.590,635, 598, 520, -3, 2, -3, -2, -3, 0, 854, 781, 656,A
2025-03-10 11:40:28.648,629, 363, 611, 72, 6, -6, -4, 0, -5, 28, 14, 11,B
2025-03-10 11:40:28.704,605, 337, 571, 116, 2, -8, -5, -2, -6, 180, 135, 26,B
2025-03-10 11:40:28.759,659, 708, 390, 73, 7, -40, -4, -3, -1, 740, 276, 11,B
2025-03-10 11:40:28.814,626, 604, 506, 32, 20, -5, -1, -4, -2, 823, 21, 75,B
2025-03-10 11:40:28.869,633, 692, 555, -1, 23, -1, 0, -5, -2, 867, 13, 71,B
2025-03-10 11:40:28.919,625, 671, 472, 2, 3, 9, 1, -5, 0, 874, 16, 161,B
2025-03-10 11:40:28.971,588, 634, 559, 18, -10, 20, -1, -5, 0, 882, 26, 317,B
2025-03-10 11:40:29.025,651, 629, 456, 16, -26, 26, -1, -6, 0, 901, 576, 500,B
2025-03-10 11:40:29.087,676, 654, 376, 24, -15, 24, -3, -5, 3, 923, 724, 661,B
2025-03-10 11:40:29.139,689, 619, 375, -10, 1, 10, -4, -5, 4, 936, 834, 759,B
2025-03-10 11:40:29.194,689, 632, 435, -12, -9, 9, -4, -5, 4, 949, 906, 807,B
2025-03-10 11:40:29.244,715, 581, 408, -1, -2, 4, -5, -4, 2, 942, 922, 810,B
2025-03-10 11:40:29.303,706, 615, 392, -2, 5, -7, -5, -4, 3, 950, 941, 831,B
2025-03-10 11:40:29.360,655, 622, 481, 24, -1, 11, -4, -5, 2, 956, 950, 853,B
2025-03-10 11:40:29.408,704, 565, 392, 19, 1, 5, -5, -6, 3, 954, 950, 854,B
2025-03-10 11:40:29.464,713, 630, 333, 5, -5, -2, -6, -7, 6, 955, 946, 845,B
2025-03-10 11:40:29.524,670, 607, 393, -20, -15, -23, -4, -4, 6, 949, 934, 833,B
2025-03-10 11:40:29.575,867, 657, 386, -13, -20, -15, -3, -4, 4, 952, 939, 820,B
2025-03-10 11:40:29.634,853, 685, 462, 21, 4, 5, -4, -4, 5, 949, 941, 797,B
2025-03-10 11:40:29.688,653, 501, 135, 16, 49, 29, -4, -5, 6, 951, 927, 786,B
2025-03-10 11:40:29.744,802, 516, 251, -54, -32, -52, -4, -5, 4, 949, 929, 812,B
2025-03-10 11:40:29.802,790, 438, 729, -3, -24, -7, -3, -5, 4, 964, 956, 810,B
2025-03-10 11:40:29.855,506, 250, 706, -4, 9, 9, -4, -5, 4, 965, 961, 816,B
2025-03-10 11:40:29.912,707, 509, 521, 18, 14, 9, -7, -4, 4, 966, 959, 792,B
2025-03-10 11:40:29.964,785, 881, 389, -18, 20, 9, -5, -5, 7, 966, 956, 790,B
2025-03-10 11:40:30.019,632, 722, 439, 7, -1, 2, -3, -4, 5, 965, 949, 758,B
2025-03-10 11:40:30.074,841, 679, 163, -23, 33, 13, -5, -4, 5, 960, 917, 720,B
2025-03-10 11:40:30.134,819, 561, 296, -46, 66, -45, -6, -4, 1, 944, 876, 698,B
2025-03-10 11:40:30.187,476, 644, 770, -15, 6, -8, -2, -6, 0, 937, 904, 706,B
2025-03-10 11:40:30.244,576, 612, 549, 16, -36, 11, -2, -4, 0, 937, 915, 720,B
2025-03-10 11:40:30.518,587, 730, 410, 5, -30, -30, -1, -5, 5, 919, 825, 682,C
2025-03-10 11:40:30.573,579, 754, 391, 6, -32, -20, -3, -6, 3, 913, 823, 672,C
2025-03-10 11:40:30.623,493, 666, 333, 19, -42, 37, -5, -7, 4, 919, 828, 642,C
2025-03-10 11:40:30.685,682, 614, 148, -14, 31, 31, -5, -5, 5, 915, 836, 603,C
2025-03-10 11:40:30.737,898, 730, 272, -18, 20, -6, -5, -5, 4, 934, 860, 621,C
2025-03-10 11:40:30.794,606, 618, 615, -13, 10, 6, -4, -6, 2, 918, 859, 626,C
2025-03-10 11:40:30.852,609, 604, 447, 4, -6, 17, -4, -5, 2, 930, 877, 656,C
2025-03-10 11:40:30.904,730, 611, 393, 17, -24, 22, -4, -5, 4, 933, 896, 695,C
2025-03-10 11:40:30.962,660, 590, 423, -4, -6, -9, -6, -5, 5, 933, 921, 657,C
2025-03-10 11:40:31.019,633, 380, 587, 20, -11, -23, -5, -2, 5, 953, 937, 541,C
2025-03-10 11:40:31.074,838, 947, -312, 40, 72, 34, -4, -5, 7, 957, 929, 383,C
2025-03-10 11:40:31.134,750, 658, 571, -24, 21, 40, -4, -4, 4, 945, 940, 753,C
2025-03-10 11:40:31.186,553, 675, 527, -55, 59, -41, -4, -4, 2, 945, 942, 784,C
2025-03-10 11:40:31.243,496, 649, 625, -13, -11, -2, -2, -5, 1, 944, 933, 743,C
2025-03-10 11:40:31.302,686, 623, 401, 5, -26, 13, -4, -5, 1, 947, 935, 740,C
2025-03-10 11:40:31.727,681, 619, 388, -1, -1, -1, -4, -5, 4, 924, 893, 681,D
2025-03-10 11:40:31.784,684, 615, 381, -1, -1, -1, -5, -3, 4, 926, 894, 681,D
2025-03-10 11:40:31.837,678, 614, 411, -3, 1, -2, -4, -5, 3, 938, 898, 679,D
2025-03-10 11:40:31.887,652, 615, 405, -5, -1, -3, -4, -4, 3, 925, 871, 648,D
2025-03-10 11:40:31.944,580, 608, 479, -14, -23, -10, -4, -6, 2, 918, 851, 561,D
2025-03-10 11:40:32.004,790, 565, 310, 12, -14, -14, -5, -6, 3, 922, 869, 400,D
2025-03-10 11:40:32.063,905, 1103, 315, 59, 56, 37, -5, -4, 6, 931, 863, 135,D
2025-03-10 11:40:32.120,715, 710, 280, -43, 36, 24, -5, -6, 5, 935, 849, 520,D
2025-03-10 11:40:32.174,599, 628, 395, -19, -28, -38, -5, -4, 4, 918, 859, 570,D
2025-03-10 11:40:32.224,834, 726, 429, 3, -24, 8, -3, -6, 4, 939, 929, 669,D
2025-03-10 11:40:32.286,659, 738, 437, -1, 23, 23, -4, -4, 6, 955, 936, 659,D
2025-03-10 11:40:32.336,823, 364, 239, -3, 26, -3, -4, -3, 6, 940, 875, 423,D
2025-03-10 11:40:32.394,907, 549, 423, -10, 19, 13, -3, -4, 5, 929, 854, 627,D
2025-03-10 11:40:32.452,463, 557, 681, -23, 5, -13, -5, -5, 1, 925, 899, 675,D
2025-03-10 11:40:32.503,495, 551, 610, -7, -31, 5, -4, -5, 0, 929, 915, 701,D
2025-03-10 11:40:32.954,691, 595, 408, 0, -4, 0, -4, -4, 1, 925, 883, 627,E
2025-03-10 11:40:33.004,702, 603, 412, 0, -4, 0, -4, -5, 2, 929, 883, 626,E
2025-03-10 11:40:33.061,683, 600, 401, -3, -4, -4, -5, -4, 2, 942, 887, 622,E
2025-03-10 11:40:33.120,646, 572, 438, 10, -12, -10, -4, -5, 3, 925, 867, 603,E
2025-03-10 11:40:33.174,695, 550, 412, -2, -4, -15, -4, -5, 3, 926, 879, 572,E
2025-03-10 11:40:33.224,678, 549, 448, 58, 3, -5, -4, -5, 3, 942, 904, 529,E
2025-03-10 11:40:33.287,665, 558, 551, 23, 45, 30, -4, -4, 7, 947, 894, 456,E
2025-03-10 11:40:33.344,707, 573, 671, -53, -21, -3, -4, -4, 4, 938, 867, 658,E
2025-03-10 11:40:33.394,329, 624, 982, -9, -66, 1, -4, -5, 3, 939, 887, 661,E
2025-03-10 11:40:33.456,729, 762, 69, 58, -30, -7, -5, -5, 5, 948, 944, 654,E
2025-03-10 11:40:33.504,707, 536, 232, -2, 21, 22, -6, -6, 4, 940, 938, 762,E
2025-03-10 11:40:33.567,602, 373, 442, -3, 39, -24, -4, -5, 5, 952, 921, 754,E
2025-03-10 11:40:33.620,1058, 902, 342, 29, -9, -9, -5, -6, 4, 935, 897, 654,E
2025-03-10 11:40:33.674,762, 736, 300, -3, 11, 27, -5, -6, 4, 949, 945, 751,E
2025-03-10 11:40:33.724,652, 333, 410, -2, 50, 1, -4, -6, 5, 937, 909, 781,E
2025-03-10 11:40:33.787,556, 614, 624, 30, -37, 10, -4, -5, 7, 928, 815, 684,E
2025-03-10 11:40:33.837,769, 717, 221, -6, -3, 24, -5, -7, 6, 950, 940, 737,E
2025-03-10 11:40:33.894,726, 548, 444, -19, 9, 23, -6, -6, 6, 948, 944, 813,E
2025-03-10 11:40:33.953,378, 567, 779, -64, 24, -59, -2, -7, 2, 932, 912, 775,E
2025-03-10 11:40:34.377,688, 614, 391, -6, -2, 3, -2, -4, 3, 927, 872, 706,F
2025-03-10 11:40:34.435,680, 607, 420, -6, -3, 3, -1, -5, 5, 937, 881, 709,F
2025-03-10 11:40:34.485,678, 617, 422, -4, -4, 1, -4, -4, 2, 928, 865, 708,F
2025-03-10 11:40:34.535,688, 608, 414, -2, -5, -1, -4, -5, 2, 935, 862, 707,F
2025-03-10 11:40:34.596,659, 628, 382, -12, -12, -6, -4, -5, 3, 923, 854, 698,F
2025-03-10 11:40:34.653,636, 741, 551, -17, -6, -18, -4, -4, 4, 926, 878, 601,F
2025-03-10 11:40:34.711,677, 483, 544, 51, -8, -10, -3, -5, 3, 946, 906, 486,F
2025-03-10 11:40:34.763,917, 533, 232, 52, 71, 52, -5, -5, 6, 961, 898, 341,F
2025-03-10 11:40:34.823,814, 674, 554, -57, 10, 5, -4, -6, 6, 937, 866, 641,F
2025-03-10 11:40:34.874,319, 779, 977, -33, -48, -12, -3, -5, 3, 932, 879, 620,F
2025-03-10 11:40:34.935,764, 523, 434, 71, -29, -13, -5, -6, 4, 964, 944, 544,F
2025-03-10 11:40:34.986,644, 582, 392, -5, 18, 27, -4, -7, 4, 963, 955, 765,F
2025-03-10 11:40:35.044,692, 298, 325, 3, 55, -36, -5, -5, 6, 936, 886, 758,F
2025-03-10 11:40:35.104,733, 672, 550, 57, -67, -16, -6, -4, 5, 936, 843, 566,F
2025-03-10 11:40:35.153,603, 689, 233, -41, 3, 36, -4, -5, 5, 959, 946, 732,F
2025-03-10 11:40:35.217,706, 579, 399, -20, 25, 20, -5, -5, 6, 940, 927, 810,F
2025-03-10 11:40:35.274,481, 571, 699, -40, 37, -48, -4, -4, 0, 933, 885, 777,F
2025-03-10 11:40:35.323,510, 577, 631, -6, -12, -3, -1, -5, 1, 927, 860, 740,F
2025-03-10 11:40:35.384,681, 612, 402, 6, -19, 5, -1, -6, 3, 918, 827, 697,F
2025-03-10 11:40:35.436,686, 624, 403, 3, -5, -3, -4, -6, 2, 910, 823, 700,F
2025-03-10 11:40:35.808,666, 639, 456, -1, -4, 1, -3, -4, 2, 924, 851, 643,G
2025-03-10 11:40:35.854,665, 640, 444, -2, -5, 3, -3, -4, 2, 928, 855, 642,G
2025-03-10 11:40:35.914,687, 605, 439, 4, -7, 3, -5, -5, 3, 927, 856, 649,G
2025-03-10 11:40:35.968,701, 605, 416, 2, -4, 2, -4, -4, 2, 915, 852, 651,G
2025-03-10 11:40:36.020,681, 600, 438, -1, 0, 0, -3, -5, 2, 923, 862, 668,G
2025-03-10 11:40:36.073,666, 625, 442, -1, -6, 5, -5, -5, 3, 923, 869, 672,G
2025-03-10 11:40:36.124,587, 584, 541, 13, -36, 11, -4, -4, 4, 934, 896, 702,G
2025-03-10 11:40:36.188,873, 571, 523, 16, -19, -19, -4, -5, 4, 931, 904, 559,G
2025-03-10 11:40:36.239,784, 723, 246, 67, 13, 6, -4, -5, 7, 943, 888, 260,G
2025-03-10 11:40:36.294,867, 763, 183, -17, 39, 33, -4, -4, 6, 955, 910, 541,G
2025-03-10 11:40:36.356,615, 491, 536, -22, -20, -6, -6, -6, 3, 948, 922, 696,G
2025-03-10 11:40:36.406,691, 373, 587, 25, -19, -13, -4, -6, 4, 954, 930, 696,G
2025-03-10 11:40:36.466,562, 885, -58, -20, 34, 28, -6, -4, 6, 957, 927, 693,G
2025-03-10 11:40:36.525,666, 521, 301, -20, -11, -40, -5, -4, 6, 946, 904, 711,G
2025-03-10 11:40:36.574,927, 864, 698, -6, -17, -6, -5, -4, 4, 959, 923, 614,G
2025-03-10 11:40:36.634,534, 425, 50, 10, 2, 39, -6, -7, 5, 952, 945, 716,G
2025-03-10 11:40:36.686,739, 568, 344, -10, 22, 15, -7, -6, 3, 958, 951, 788,G
2025-03-10 11:40:36.744,557, 621, 574, -66, 63, -59, -5, -5, 1, 940, 923, 737,G
2025-03-10 11:40:36.801,479, 665, 748, 0, -10, 7, -2, -6, 1, 931, 912, 697,G
2025-03-10 11:40:37.133,680, 611, 456, 2, -6, -1, -4, -5, 2, 937, 895, 677,H
2025-03-10 11:40:37.185,683, 612, 441, 1, -6, -1, -3, -6, 3, 942, 901, 680,H
2025-03-10 11:40:37.239,675, 598, 421, -4, -5, -1, -4, -6, 1, 934, 897, 667,H
2025-03-10 11:40:37.294,633, 585, 446, -3, -11, -5, -4, -4, 2, 937, 890, 652,H
2025-03-10 11:40:37.354,724, 605, 450, -1, -14, -1, -4, -5, 2, 929, 884, 630,H
2025-03-10 11:40:37.404,727, 553, 431, 4, 0, -1, -5, -4, 3, 921, 877, 632,H
2025-03-10 11:40:37.455,583, 584, 588, 17, -34, 3, -6, -4, 2, 935, 895, 663,H
2025-03-10 11:40:37.519,689, 537, 411, 35, -15, -16, -4, -5, 2, 939, 911, 559,H
2025-03-10 11:40:37.571,622, 672, 52, 34, 57, 46, -4, -5, 7, 948, 900, 475,H
2025-03-10 11:40:37.624,706, 638, 193, -10, 20, 8, -3, -4, 6, 947, 871, 576,H
2025-03-10 11:40:37.684,469, 757, 708, -5, -12, -6, -4, -5, 4, 927, 873, 640,H
2025-03-10 11:40:37.739,776, 503, 327, 42, -17, -9, -4, -5, 6, 951, 930, 616,H
2025-03-10 11:40:37.793,632, 432, 416, -20, 10, 26, -5, -7, 4, 951, 945, 758,H
2025-03-10 11:40:37.854,436, 717, 696, -25, -12, -22, -5, -6, 3, 945, 937, 778,H
2025-03-10 11:40:37.905,734, 500, 451, 18, -19, -12, -6, -5, 4, 949, 937, 747,H
2025-03-10 11:40:37.963,857, 778, 286, 25, 51, 41, -4, -3, 5, 953, 927, 665,H
2025-03-10 11:40:38.021,748, 702, 387, -12, 14, 9, -5, -4, 5, 958, 922, 737,H
2025-03-10 11:40:38.073,560, 610, 682, -58, 33, -47, -4, -5, 3, 933, 900, 681,H
2025-03-10 11:40:38.524,690, 619, 417, -5, -3, -5, -6, -4, 3, 924, 890, 627,I
2025-03-10 11:40:38.584,675, 602, 413, -6, -3, -4, -3, -4, 1, 925, 888, 624,I
2025-03-10 11:40:38.637,672, 623, 425, -4, -6, -3, -4, -4, 3, 928, 885, 611,I
2025-03-10 11:40:38.694,652, 600, 421, -2, -7, -6, -4, -5, 1, 922, 870, 566,I
2025-03-10 11:40:38.744,820, 487, 398, 9, -6, -26, -4, -6, 3, 920, 875, 471,I
2025-03-10 11:40:38.805,780, 591, 355, 77, -13, -8, -3, -5, 5, 954, 927, 330,I
2025-03-10 11:40:38.853,926, 246, 335, -12, 9, 34, -6, -5, 4, 966, 956, 751,I
2025-03-10 11:40:38.911,583, 551, 364, 8, 14, 6, -8, -5, 5, 962, 945, 806,I
2025-03-10 11:40:38.968,434, 732, 530, -32, 9, -46, -5, -7, 5, 946, 903, 740,I
2025-03-10 11:40:39.024,920, 1015, 525, 37, -17, -12, -4, -4, 5, 956, 922, 708,I
2025-03-10 11:40:39.083,896, 792, 223, 12, 57, 38, -5, -4, 7, 959, 926, 663,I
2025-03-10 11:40:39.135,624, 664, 294, 0, 26, 5, -5, -6, 6, 954, 866, 706,I
2025-03-10 11:40:39.185,2393, 269, 202, 16, -5, -23, -5, -3, 5, 940, 835, 475,I
2025-03-10 11:40:39.243,489, 714, 266, -33, -16, 35, -6, -5, 5, 965, 944, 680,I
2025-03-10 11:40:39.304,706, 641, 328, -11, 24, 28, -5, -5, 6, 957, 934, 775,I
2025-03-10 11:40:39.362,514, 596, 527, -85, 66, -63, -2, -6, 3, 940, 860, 683,I
2025-03-10 11:40:39.826,654, 613, 432, -1, -2, -2, -4, -6, 2, 920, 830, 626,J
2025-03-10 11:40:39.885,666, 598, 439, -2, -3, -2, -3, -5, 3, 920, 827, 622,J
2025-03-10 11:40:39.935,671, 594, 444, -2, -5, -2, -3, -5, 1, 915, 822, 609,J
2025-03-10 11:40:39.994,626, 630, 444, 7, -12, 2, -5, -6, 2, 916, 829, 640,J
2025-03-10 11:40:40.050,640, 605, 448, 8, -16, -9, -3, -5, 2, 913, 822, 621,J
2025-03-10 11:40:40.108,834, 555, 456, 30, -13, -13, -3, -5, 4, 934, 874, 255,J
2025-03-10 11:40:40.164,457, 817, 138, -25, -6, 50, -2, -5, 6, 961, 938, 684,J
2025-03-10 11:40:40.218,619, 510, 497, -14, 14, 17, -7, -6, 3, 952, 940, 779,J
2025-03-10 11:40:40.274,548, 652, 341, -12, 24, -49, -5, -6, 5, 945, 892, 749,J
2025-03-10 11:40:40.332,816, 1088, 518, 20, -14, -5, -5, -5, 5, 953, 900, 676,J
2025-03-10 11:40:40.385,729, 462, 84, 30, 68, 70, -5, -4, 6, 963, 918, 651,J
2025-03-10 11:40:40.443,550, 692, 19, -24, 18, 7, -6, -5, 4, 958, 902, 607,J
2025-03-10 11:40:40.500,1041, 604, 381, 27, -11, -17, -5, -5, 5, 930, 799, 614,J
2025-03-10 11:40:40.554,448, 577, 757, -30, 54, -9, -3, -5, 3, 925, 753, 698,J
2025-03-10 11:40:40.611,418, 642, 711, -15, -16, 7, -2, -6, 2, 930, 726, 685,J
2025-03-10 11:40:40.667,709, 581, 441, -19, -35, 0, -4, -6, 0, 922, 728, 605,J
2025-03-10 11:40:40.983,660, 586, 459, -7, -5, -2, -4, -3, 1, 896, 754, 506,K
2025-03-10 11:40:41.035,653, 576, 463, -6, -6, -2, -4, -4, 2, 904, 760, 499,K
2025-03-10 11:40:41.090,684, 608, 454, 5, -7, 3, -4, -4, 1, 901, 764, 513,K
2025-03-10 11:40:41.143,665, 592, 438, 1, -5, -2, -4, -4, 2, 899, 770, 530,K
2025-03-10 11:40:41.194,667, 595, 420, 1, -9, -2, -5, -5, 1, 897, 783, 541,K
2025-03-10 11:40:41.254,653, 481, 225, 21, -6, -21, -5, -5, 2, 920, 830, 525,K
2025-03-10 11:40:41.304,707, 627, 437, 44, 20, 6, -3, -3, 4, 945, 837, 387,K
2025-03-10 11:40:41.365,799, 668, 404, 17, 30, 22, -3, -4, 4, 948, 807, 140,K
2025-03-10 11:40:41.417,941, 572, 523, -14, -37, 12, -5, -5, 5, 952, 938, 624,K
2025-03-10 11:40:41.474,585, 389, 720, -19, -22, -6, -7, -4, 4, 953, 951, 734,K
2025-03-10 11:40:41.532,633, 677, 186, -9, 35, 0, -6, -5, 4, 938, 877, 693,K
2025-03-10 11:40:41.584,641, 601, 523, 25, 2, 1, -5, -4, 3, 943, 810, 549,K
2025-03-10 11:40:41.634,732, 503, 379, 3, -7, 17, -4, -5, 5, 950, 913, 647,K
2025-03-10 11:40:41.684,719, 645, 182, 0, 24, 34, -7, -5, 4, 963, 942, 697,K
2025-03-10 11:40:41.749,856, 311, 329, -26, 12, -38, -7, -5, 5, 938, 897, 735,K
2025-03-10 11:40:41.804,572, 578, 674, -40, 20, -50, -2, -4, 2, 908, 719, 584,K
2025-03-10 11:40:41.860,543, 596, 616, 2, -22, 6, -2, -4, 1, 898, 690, 520,K
2025-03-10 11:40:42.274,695, 613, 423, 2, -12, 0, -4, -4, 2, 898, 754, 553,L
2025-03-10 11:40:42.334,681, 601, 409, 1, -11, 0, -5, -6, 2, 901, 761, 556,L
2025-03-10 11:40:42.387,697, 596, 415, -2, -5, -1, -4, -4, 3, 915, 796, 559,L
2025-03-10 11:40:42.444,715, 611, 385, -3, -3, -1, -4, -3, 3, 915, 836, 597,L
2025-03-10 11:40:42.500,641, 608, 471, -4, -11, -2, -4, -5, 2, 924, 866, 625,L
2025-03-10 11:40:42.555,701, 798, 485, 7, -6, -12, -4, -5, 3, 934, 901, 631,L
2025-03-10 11:40:42.605,669, 561, 410, 21, -4, -9, -4, -4, 4, 944, 910, 601,L
2025-03-10 11:40:42.667,780, 756, 304, 31, 32, 13, -4, -5, 4, 964, 912, 456,L
2025-03-10 11:40:42.718,774, 548, 271, 23, 10, 2, -4, -6, 5, 952, 902, 279,L
2025-03-10 11:40:42.774,646, 458, 388, 5, 0, 25, -6, -7, 6, 960, 950, 654,L
2025-03-10 11:40:42.824,690, 555, 314, 5, 10, 8, -5, -6, 5, 950, 941, 746,L
2025-03-10 11:40:42.884,739, 616, 229, -71, 85, -66, -5, -6, 4, 951, 896, 692,L
2025-03-10 11:40:42.937,512, 714, 775, -26, 5, -14, -3, -5, 1, 932, 815, 549,L
2025-03-10 11:40:43.443,682, 604, 443, -3, -1, 0, -3, -5, 2, 905, 805, 527,M
2025-03-10 11:40:43.499,673, 594, 461, -3, -1, -1, -4, -6, 3, 908, 809, 527,M
2025-03-10 11:40:43.549,667, 593, 439, 2, -7, 0, -3, -3, 1, 922, 817, 536,M
2025-03-10 11:40:43.604,675, 604, 450, 3, -6, 2, -4, -4, 1, 914, 826, 551,M
2025-03-10 11:40:43.659,662, 603, 435, 3, -6, 0, -3, -4, 0, 925, 837, 588,M
2025-03-10 11:40:43.716,686, 613, 415, -4, -18, -2, -5, -5, 2, 930, 865, 632,M
2025-03-10 11:40:43.773,677, 509, 507, -5, -7, -12, -5, -3, 3, 932, 900, 597,M
2025-03-10 11:40:43.823,708, 656, 480, 64, 25, 22, -2, -4, 3, 954, 905, 576,M
2025-03-10 11:40:43.873,778, 953, 97, -15, 29, 25, -4, -5, 5, 949, 890, 595,M
2025-03-10 11:40:43.935,699, 582, 304, -26, -9, -53, -5, -5, 3, 932, 887, 647,M
2025-03-10 11:40:43.994,957, 980, 537, 40, -14, -15, -6, -4, 4, 944, 923, 705,M
2025-03-10 11:40:44.052,859, 823, 95, 13, 17, 27, -3, -4, 4, 954, 927, 686,M
2025-03-10 11:40:44.104,621, 468, 364, -13, 6, 6, -5, -4, 4, 958, 940, 731,M
2025-03-10 11:40:44.155,675, 638, 583, -3, -11, -5, -7, -5, 4, 955, 939, 754,M
2025-03-10 11:40:44.216,430, 642, 168, 35, 33, 37, -5, -6, 4, 964, 936, 748,M
2025-03-10 11:40:44.268,763, 708, 325, -7, 22, 18, -5, -6, 6, 963, 924, 767,M
2025-03-10 11:40:44.324,653, 604, 590, -46, 35, -46, -4, -5, 4, 938, 911, 759,M
2025-03-10 11:40:44.383,517, 630, 603, -23, -6, -9, -2, -5, 2, 933, 906, 724,M
2025-03-10 11:40:44.794,672, 618, 429, 0, -4, -1, -3, -6, 3, 919, 851, 618,N
2025-03-10 11:40:44.854,666, 616, 449, 1, -5, 0, -3, -5, 2, 932, 854, 615,N
2025-03-10 11:40:44.909,663, 609, 443, 2, -7, -1, -4, -4, 2, 921, 851, 593,N
2025-03-10 11:40:44.965,694, 617, 393, 0, -3, -2, -4, -5, 3, 918, 828, 552,N
2025-03-10 11:40:45.021,716, 608, 371, -11, -8, -12, -4, -6, 3, 911, 817, 543,N
2025-03-10 11:40:45.074,620, 652, 516, 7, -30, 9, -4, -4, 2, 917, 862, 599,N
2025-03-10 11:40:45.126,727, 595, 434, 25, 0, -3, -4, -6, 5, 940, 898, 601,N
2025-03-10 11:40:45.184,426, 887, 224, 19, 48, 31, -4, -5, 6, 951, 899, 462,N
2025-03-10 11:40:45.233,686, 606, 517, -28, -4, 3, -5, -5, 3, 941, 892, 631,N
2025-03-10 11:40:45.294,387, 750, 945, -18, -28, -11, -4, -5, 3, 939, 916, 703,N
2025-03-10 11:40:45.354,691, 403, 441, 29, -10, 14, -5, -5, 4, 950, 923, 693,N
2025-03-10 11:40:45.408,881, 564, 374, -10, 21, 35, -6, -3, 3, 966, 922, 563,N
2025-03-10 11:40:45.464,659, 416, 646, 2, -43, -45, -8, -3, 3, 944, 931, 675,N
2025-03-10 11:40:45.518,819, 678, 275, 9, 7, 11, -6, -5, 3, 947, 908, 743,N
2025-03-10 11:40:45.574,542, 582, 498, -37, 72, -24, -4, -7, 0, 951, 863, 662,N
2025-03-10 11:40:45.628,442, 632, 754, 1, -8, 6, -3, -5, 1, 938, 856, 667,N
2025-03-10 11:40:46.024,697, 577, 415, -8, 3, -3, -5, -6, 3, 930, 782, 581,O
2025-03-10 11:40:46.073,669, 587, 440, -8, 3, -2, -5, -6, 3, 926, 783, 568,O
2025-03-10 11:40:46.132,686, 589, 442, 0, -1, -1, -4, -5, 2, 920, 786, 575,O
2025-03-10 11:40:46.186,691, 599, 423, 0, -4, 2, -4, -4, 3, 921, 797, 587,O
2025-03-10 11:40:46.238,679, 586, 447, 2, -5, 7, -4, -4, 2, 928, 825, 613,O
2025-03-10 11:40:46.287,657, 581, 448, 6, -17, 6, -5, -5, 2, 930, 853, 664,O
2025-03-10 11:40:46.350,802, 541, 353, -5, -3, -13, -6, -4, 4, 940, 902, 648,O
2025-03-10 11:40:46.403,544, 550, 590, 8, -4, -19, -4, -5, 3, 932, 902, 614,O
2025-03-10 11:40:46.454,635, 845, 151, 47, 24, 12, -4, -5, 5, 954, 902, 455,O
2025-03-10 11:40:46.517,706, 795, 360, -46, 34, 60, -8, -5, 3, 970, 942, 651,O
2025-03-10 11:40:46.574,541, 584, 353, -10, -49, -54, -5, -4, 2, 942, 939, 723,O
2025-03-10 11:40:46.624,990, 741, 233, -21, 2, -2, -5, -4, 4, 927, 896, 753,O
2025-03-10 11:40:46.684,615, 641, 536, -39, 69, -8, -3, -5, 2, 923, 772, 672,O
2025-03-10 11:40:46.735,527, 597, 641, 10, 1, 9, -1, -6, -1, 928, 714, 660,O
2025-03-10 11:40:46.794,656, 609, 497, 15, -34, 13, -3, -4, 0, 912, 703, 643,O
2025-03-10 11:40:47.244,669, 573, 445, -3, -2, -1, -4, -4, 1, 894, 728, 512,P
2025-03-10 11:40:47.299,666, 577, 464, 0, -2, -1, -3, -5, 0, 897, 728, 512,P
2025-03-10 11:40:47.350,684, 602, 444, -2, -3, 1, -5, -5, 1, 899, 736, 514,P
2025-03-10 11:40:47.404,652, 600, 458, -1, -6, 1, -4, -5, 0, 896, 734, 501,P
2025-03-10 11:40:47.463,643, 607, 452, 6, -17, -1, -4, -5, 2, 899, 754, 480,P
2025-03-10 11:40:47.516,725, 575, 455, 11, -44, -1, -5, -4, 3, 911, 853, 487,P
2025-03-10 11:40:47.577,721, 519, 492, 36, -11, -13, -5, -5, 3, 944, 895, 454,P
2025-03-10 11:40:47.631,880, 935, 192, 13, 56, 35, -5, -5, 6, 955, 895, 253,P
2025-03-10 11:40:47.684,683, 566, 666, -32, 8, -1, -5, -5, 4, 941, 894, 433,P
2025-03-10 11:40:47.744,794, 622, 406, -24, -29, -32, -5, -5, 3, 939, 916, 628,P
2025-03-10 11:40:47.799,486, 569, 449, 7, -19, 4, -4, -5, 5, 954, 940, 701,P
2025-03-10 11:40:47.851,639, 927, 290, -7, 28, 16, -5, -4, 5, 956, 944, 653,P
2025-03-10 11:40:47.908,802, 660, 312, -26, 37, 8, -6, -2, 4, 940, 888, 540,P
2025-03-10 11:40:47.966,687, 599, 412, -33, 66, -29, -4, -4, 2, 939, 887, 550,P
2025-03-10 11:40:48.016,391, 660, 717, -3, 3, 12, -1, -5, 0, 926, 861, 620,P
2025-03-10 11:40:48.595,728, 585, 395, 9, -9, 6, -6, -4, 3, 925, 859, 603,Q
2025-03-10 11:40:48.651,744, 588, 377, 9, -7, 6, -6, -5, 3, 930, 864, 607,Q
2025-03-10 11:40:48.703,719, 594, 420, 7, -3, 8, -5, -5, 3, 924, 876, 656,Q
2025-03-10 11:40:48.753,678, 594, 436, 3, -4, 5, -7, -4, 2, 937, 902, 687,Q
2025-03-10 11:40:48.804,709, 598, 420, -1, 2, -1, -6, -4, 3, 933, 906, 690,Q
2025-03-10 11:40:48.865,716, 540, 472, -6, -1, -6, -5, -4, 2, 938, 913, 670,Q
2025-03-10 11:40:48.917,627, 533, 407, -4, -8, -15, -6, -5, 4, 944, 930, 649,Q
2025-03-10 11:40:48.974,701, 480, 531, 27, -17, -25, -6, -4, 2, 940, 924, 558,Q
2025-03-10 11:40:49.032,1016, 769, -55, 13, 50, 51, -5, -5, 5, 956, 920, 468,Q
2025-03-10 11:40:49.087,590, 570, 640, -39, 16, 25, -3, -7, 4, 957, 943, 599,Q
2025-03-10 11:40:49.147,708, 522, 489, 2, -11, -14, -5, -3, 4, 937, 918, 685,Q
2025-03-10 11:40:49.201,526, 660, 738, 5, -3, -2, -5, -4, 2, 933, 878, 508,Q
2025-03-10 11:40:49.254,767, 544, 412, 0, -5, 19, -4, -5, 5, 954, 927, 627,Q
2025-03-10 11:40:49.304,780, 592, 266, -2, 16, 30, -7, -3, 4, 954, 935, 646,Q
2025-03-10 11:40:49.366,908, 443, 154, -23, 26, -46, -7, -5, 1, 943, 898, 663,Q
2025-03-10 11:40:49.424,570, 623, 697, -36, 21, -36, -5, -6, 0, 911, 823, 454,Q
2025-03-10 11:40:49.474,583, 566, 601, 6, -25, 8, -4, -5, -2, 897, 800, 394,Q
2025-03-10 11:40:49.835,676, 558, 461, -2, -1, -1, -4, -3, 2, 894, 756, 309,R
2025-03-10 11:40:49.896,667, 573, 470, -1, -2, -1, -4, -3, -1, 894, 758, 307,R
2025-03-10 11:40:49.949,680, 573, 457, -2, -3, 0, -4, -5, 0, 896, 760, 308,R
2025-03-10 11:40:49.999,673, 583, 468, -4, -6, -3, -3, -4, 0, 889, 763, 311,R
2025-03-10 11:40:50.058,627, 592, 487, -4, -20, -12, -4, -3, 0, 891, 789, 290,R
2025-03-10 11:40:50.117,1099, -394, -338, 0, -13, -28, -5, -4, 1, 909, 866, 298,R
2025-03-10 11:40:50.173,499, 1056, 96, 84, 33, 24, -5, -5, 5, 943, 892, 295,R
2025-03-10 11:40:50.232,722, 539, 203, -20, 33, 24, -5, -5, 5, 950, 885, 317,R
2025-03-10 11:40:50.284,651, 493, 315, 20, -63, -59, -5, -5, 4, 920, 868, 574,R
2025-03-10 11:40:50.343,799, 861, 432, -4, -33, 8, -5, -6, 3, 946, 933, 690,R
2025-03-10 11:40:50.400,688, 868, 280, -2, 22, 24, -6, -4, 5, 951, 934, 664,R
2025-03-10 11:40:50.454,606, 526, 340, -17, 14, -8, -7, -6, 3, 959, 908, 433,R
2025-03-10 11:40:50.511,652, 368, 497, -27, 32, 49, -6, -3, 5, 959, 932, 534,R
2025-03-10 11:40:50.567,754, 610, 395, -18, 23, 21, -7, -5, 3, 953, 922, 637,R
2025-03-10 11:40:50.624,520, 479, 528, -51, 58, -57, -6, -5, 0, 926, 860, 483,R
2025-03-10 11:40:50.682,519, 595, 711, -1, -22, -3, -2, -5, -2, 918, 838, 374,R
2025-03-10 11:40:50.734,765, 626, 354, 17, -40, 12, -4, -5, 0, 909, 814, 401,R
2025-03-10 11:40:51.076,668, 594, 469, 1, -4, 1, -4, -5, -1, 892, 794, 424,S
2025-03-10 11:40:51.129,675, 598, 453, -1, -3, 0, -3, -6, 1, 895, 793, 426,S
2025-03-10 11:40:51.181,684, 596, 448, -3, -1, 1, -5, -3, 1, 894, 793, 434,S
2025-03-10 11:40:51.234,665, 575, 469, -2, -5, 1, -4, -5, 0, 899, 794, 423,S
2025-03-10 11:40:51.294,713, 562, 442, 7, -11, 7, -4, -5, 3, 908, 822, 478,S
2025-03-10 11:40:51.346,672, 570, 467, 7, -19, 12, -5, -5, 1, 915, 839, 557,S
2025-03-10 11:40:51.408,1117, 106, 132, -33, -12, -13, -7, -4, 2, 925, 876, 566,S
2025-03-10 11:40:51.457,664, 582, 535, 0, -6, -15, -8, -6, 2, 942, 907, 498,S
2025-03-10 11:40:51.516,829, 541, 262, 49, -5, -13, -5, -5, 4, 945, 907, 473,S
2025-03-10 11:40:51.566,601, 887, 307, 0, 38, 44, -6, -4, 3, 964, 935, 604,S
2025-03-10 11:40:51.629,603, 585, 452, -30, 32, 15, -7, -5, 4, 958, 926, 444,S
2025-03-10 11:40:51.684,1163, 433, 383, -15, 30, -14, -6, -4, 3, 923, 815, 505,S
2025-03-10 11:40:51.744,481, 602, 859, -11, 26, -24, -3, -5, 0, 919, 802, 541,S
2025-03-10 11:40:51.798,517, 553, 580, 15, -34, 15, -3, -6, -1, 916, 812, 594,S
2025-03-10 11:40:52.274,709, 566, 425, -2, -4, -3, -6, -3, 1, 914, 835, 456,T
2025-03-10 11:40:52.329,710, 569, 434, -2, -3, -3, -4, -3, 2, 908, 834, 457,T
2025-03-10 11:40:52.382,674, 582, 452, -1, -3, -3, -6, -4, 2, 911, 841, 464,T
2025-03-10 11:40:52.433,668, 573, 433, -3, -4, -5, -5, -3, 2, 914, 845, 459,T
2025-03-10 11:40:52.494,640, 579, 456, 7, -5, -6, -5, -4, 2, 906, 822, 382,T
2025-03-10 11:40:52.549,695, 476, 515, 19, -5, -20, -5, -5, 2, 920, 837, 16,T
2025-03-10 11:40:52.604,635, 984, 178, -13, -11, 38, -4, -6, 5, 948, 924, 620,T
2025-03-10 11:40:52.658,643, 491, 455, 2, 14, 14, -6, -6, 4, 943, 906, 720,T
2025-03-10 11:40:52.716,460, 604, 494, -18, 21, -40, -4, -4, 3, 936, 851, 615,T
2025-03-10 11:40:52.766,786, 1079, 295, 19, -10, 6, -4, -4, 4, 952, 901, 546,T
2025-03-10 11:40:52.829,751, 438, 389, 3, 32, 28, -5, -3, 5, 958, 912, 523,T
2025-03-10 11:40:52.882,760, 575, 624, -7, 2, -2, -5, -3, 3, 943, 871, 626,T
2025-03-10 11:40:52.934,503, 579, 704, -44, 43, -41, -4, -4, 1, 914, 859, 552,T
2025-03-10 11:40:52.993,528, 585, 653, -14, -8, 4, -2, -3, 0, 909, 836, 490,T
2025-03-10 11:40:53.424,650, 582, 490, 0, -13, 2, -3, -4, 1, 907, 820, 381,U
2025-03-10 11:40:53.480,666, 574, 483, 3, -14, 2, -5, -5, 1, 903, 818, 386,U
2025-03-10 11:40:53.533,708, 597, 424, 3, -10, 0, -5, -4, 1, 908, 822, 376,U
2025-03-10 11:40:53.584,691, 572, 437, -3, -1, -4, -5, -5, 2, 905, 825, 368,U
2025-03-10 11:40:53.644,623, 558, 475, 3, -14, -5, -5, -4, 3, 916, 844, 383,U
2025-03-10 11:40:53.700,688, 441, 583, 21, -6, -14, -6, -5, 1, 929, 856, 253,U
2025-03-10 11:40:53.754,986, 731, 273, 13, 30, 42, -5, -5, 4, 951, 876, 385,U
2025-03-10 11:40:53.812,751, 618, 560, -49, 23, 28, -6, -6, 3, 952, 913, 477,U
2025-03-10 11:40:53.865,596, 535, 712, -29, -20, -16, -6, -4, 2, 927, 917, 595,U
2025-03-10 11:40:53.924,1106, 872, 239, 19, 17, 20, -6, -4, 4, 958, 912, 540,U
2025-03-10 11:40:53.983,769, 658, 379, -11, 23, 20, -4, -4, 3, 947, 895, 597,U
2025-03-10 11:40:54.034,560, 561, 601, -48, 49, -49, -6, -4, -1, 936, 883, 523,U
2025-03-10 11:40:54.099,503, 613, 705, -8, -12, 2, -2, -6, -3, 919, 877, 489,U
2025-03-10 11:40:54.156,684, 587, 447, 13, -31, 19, -2, -5, -1, 913, 860, 455,U
2025-03-10 11:40:54.663,681, 573, 460, -4, -2, -3, -5, -5, 1, 906, 794, 131,V
2025-03-10 11:40:54.714,683, 569, 458, -3, -2, -4, -5, -3, 0, 906, 794, 135,V
2025-03-10 11:40:54.765,648, 582, 479, 1, -2, -8, -4, -3, 0, 904, 779, 62,V
2025-03-10 11:40:54.823,658, 559, 444, 2, -2, -10, -5, -3, 1, 884, 768, 49,V
2025-03-10 11:40:54.881,608, 625, 509, 3, -21, -2, -5, -4, 0, 886, 777, 208,V
2025-03-10 11:40:54.934,743, 524, 579, 3, -10, -8, -4, -2, 3, 936, 851, 95,V
2025-03-10 11:40:54.984,394, 1067, 226, -1, 57, 60, -4, -4, 4, 957, 882, 425,V
2025-03-10 11:40:55.047,794, 823, 111, -37, 17, 19, -5, -4, 2, 956, 909, 177,V
2025-03-10 11:40:55.104,750, 345, 568, -22, -31, -26, -7, -3, 1, 950, 940, 584,V
2025-03-10 11:40:55.158,917, 468, 34, -50, 70, -27, -6, -2, 0, 934, 886, 639,V
2025-03-10 11:40:55.214,502, 565, 700, -17, 40, -20, -4, -4, -4, 921, 774, 442,V
2025-03-10 11:40:55.274,496, 553, 740, 24, -30, 9, -3, -2, -4, 910, 724, 375,V
2025-03-10 11:40:55.331,762, 587, 396, 17, -36, 12, -4, -3, -1, 912, 712, 337,V
2025-03-10 11:40:55.786,660, 584, 509, 7, -6, -5, -5, -2, 0, 879, 618, 93,W
2025-03-10 11:40:55.844,687, 605, 484, 6, -5, -3, -4, -3, 0, 875, 622, 86,W
2025-03-10 11:40:55.898,686, 574, 454, 0, -1, -3, -4, -4, -1, 875, 634, 15,W
2025-03-10 11:40:55.947,660, 558, 512, 5, -4, 1, -3, -3, 1, 867, 652, 21,W
2025-03-10 11:40:56.003,702, 572, 461, 5, -7, 1, -5, -4, 1, 870, 653, 16,W
2025-03-10 11:40:56.055,621, 586, 499, 6, -20, 0, -6, -3, 0, 873, 698, 33,W
2025-03-10 11:40:56.107,734, 515, 523, -5, -7, -12, -3, -2, 1, 916, 831, 22,W
2025-03-10 11:40:56.164,989, 954, 318, 25, 23, 39, -2, -5, 3, 949, 899, 354,W
2025-03-10 11:40:56.214,645, 541, 333, 4, 14, 13, -5, -3, 2, 956, 910, 361,W
2025-03-10 11:40:56.278,707, 481, 365, 19, -46, -37, -5, -4, 2, 950, 936, 574,W
2025-03-10 11:40:56.333,715, 1000, 218, 40, -1, 25, -5, -4, 4, 955, 928, 634,W
2025-03-10 11:40:56.383,647, 516, 12, 1, 10, 20, -6, -4, 3, 969, 939, 538,W
2025-03-10 11:40:56.437,890, 558, 377, 12, -31, -20, -9, -4, 2, 955, 945, 669,W
2025-03-10 11:40:56.498,929, 447, -28, -39, 62, -27, -6, -5, 2, 944, 911, 726,W
2025-03-10 11:40:56.557,483, 618, 712, -24, 40, -19, -5, -5, -1, 938, 829, 592,W
2025-03-10 11:40:56.613,583, 543, 633, 16, -29, 9, -2, -5, -1, 939, 803, 550,W
2025-03-10 11:40:57.004,681, 566, 467, 0, -2, 1, -4, -4, 1, 927, 838, 507,X
2025-03-10 11:40:57.060,679, 565, 479, 1, -2, 1, -4, -4, 1, 926, 842, 511,X
2025-03-10 11:40:57.114,681, 568, 459, 3, -6, 3, -4, -4, 0, 929, 849, 515,X
2025-03-10 11:40:57.163,704, 572, 436, 5, -8, 3, -6, -4, 0, 924, 844, 564,X
2025-03-10 11:40:57.215,699, 562, 440, 3, -5, 2, -5, -4, 2, 929, 849, 595,X
2025-03-10 11:40:57.273,682, 574, 461, -1, -8, 4, -5, -4, -1, 928, 864, 619,X
2025-03-10 11:40:57.330,688, 680, 432, 15, -9, -13, -6, -4, 1, 938, 903, 634,X
2025-03-10 11:40:57.383,587, 656, 343, 63, 13, -8, -5, -6, 2, 953, 904, 459,X
2025-03-10 11:40:57.433,809, 565, 186, -20, 27, 8, -4, -5, 4, 953, 864, 33,X
2025-03-10 11:40:57.494,802, 241, 861, -22, -40, -58, -5, -4, 4, 911, 843, 370,X
2025-03-10 11:40:57.554,1391, -1043, -73, -73, -21, -26, -4, -6, 3, 943, 903, 563,X
2025-03-10 11:40:57.613,854, 579, 157, -34, 32, 67, -4, -5, 3, 971, 941, 441,X
2025-03-10 11:40:57.664,685, 602, 420, 3, 14, 9, -6, -5, 1, 959, 916, 525,X
2025-03-10 11:40:57.724,699, 543, 327, -46, 51, -54, -7, -3, 2, 934, 857, 489,X
2025-03-10 11:40:58.164,677, 574, 448, 2, -1, -1, -4, -5, 1, 916, 844, 374,Y
2025-03-10 11:40:58.214,683, 591, 460, 1, -1, -1, -4, -5, 1, 916, 845, 378,Y
2025-03-10 11:40:58.264,667, 581, 468, 1, -4, -1, -3, -4, 1, 918, 850, 391,Y
2025-03-10 11:40:58.329,633, 581, 494, 6, -13, -4, -3, -3, 2, 919, 859, 389,Y
2025-03-10 11:40:58.383,630, 791, 489, 9, -14, -24, -5, -4, 3, 921, 878, 179,Y
2025-03-10 11:40:58.434,992, 741, 425, 47, -3, 6, -4, -5, 4, 951, 916, 347,Y
2025-03-10 11:40:58.493,475, 745, 291, -13, 23, 40, -4, -6, 4, 965, 931, 551,Y
2025-03-10 11:40:58.548,831, 268, 340, -30, -8, -33, -5, -4, 2, 950, 916, 682,Y
2025-03-10 11:40:58.607,521, 598, 784, 13, -37, 14, -5, -5, 1, 950, 925, 682,Y
2025-03-10 11:40:58.661,727, 573, 308, -2, -1, 7, -7, -5, 3, 967, 939, 578,Y
2025-03-10 11:40:58.714,463, 489, 189, 18, 32, 23, -5, -3, 6, 968, 925, 308,Y
2025-03-10 11:40:58.765,768, 595, 205, 16, 44, 7, -4, -4, 4, 941, 847, 452,Y
2025-03-10 11:40:58.829,561, 557, 287, -53, 54, -48, -5, -2, 0, 910, 840, 465,Y
2025-03-10 11:40:58.883,475, 749, 670, -11, -16, -2, -3, -4, -1, 908, 853, 465,Y
2025-03-10 11:40:59.314,701, 590, 467, 1, -2, -1, -7, -3, 0, 904, 817, 393,Z
2025-03-10 11:40:59.367,703, 595, 449, -1, -2, -1, -5, -4, -1, 905, 817, 393,Z
2025-03-10 11:40:59.428,675, 580, 462, -2, -3, -3, -4, -5, 0, 912, 826, 363,Z
2025-03-10 11:40:59.481,647, 584, 478, 1, -5, -4, -5, -3, 1, 902, 831, 358,Z
2025-03-10 11:40:59.534,536, 558, 570, 18, -31, 0, -5, -4, 4, 896, 841, 239,Z
2025-03-10 11:40:59.584,860, 402, 356, 96, -9, -16, -6, -4, 3, 942, 916, 441,Z
2025-03-10 11:40:59.645,458, 572, 482, 17, 2, 20, -7, -4, 2, 957, 919, 720,Z
2025-03-10 11:40:59.700,785, 474, 275, 29, 47, 12, -5, -6, 6, 962, 900, 659,Z
2025-03-10 11:40:59.755,1145, 361, 454, -31, 3, -7, -4, -2, 6, 954, 859, 36,Z
2025-03-10 11:40:59.813,555, 620, 258, -1, -4, 27, -5, -4, 6, 969, 944, 553,Z
2025-03-10 11:40:59.865,732, 574, 322, -2, 14, 13, -7, -4, 5, 970, 942, 686,Z
2025-03-10 11:40:59.924,474, 656, 301, -63, 46, -74, -5, -6, 4, 943, 868, 578,Z
2025-03-10 11:40:59.979,597, 698, 542, 15, -32, 12, -4, -5, 1, 939, 858, 501,Z
2025-03-10 11:41:00.034,926, 811, 388, -2, -17, -8, -5, -5, 4, 957, 915, 541,Z
2025-03-10 11:41:00.083,665, 590, 111, -15, -7, 34, -5, -6, 3, 966, 945, 695,Z
2025-03-10 11:41:00.144,658, 584, 318, -2, 10, 4, -6, -5, 3, 964, 931, 717,Z
2025-03-10 11:41:00.196,734, 566, 195, -58, 51, -50, -5, -6, 2, 950, 867, 650,Z
2025-03-10 11:41:00.256,621, 697, 642, -8, 10, -10, -3, -5, 3, 929, 815, 488,Z
2025-03-10 11:41:00.860,703, 600, 409, -3, -2, -2, -5, -7, 2, 893, 569, 659,a
2025-03-10 11:41:00.913,688, 597, 405, -3, -2, -1, -4, -5, 4, 890, 581, 658,a
2025-03-10 11:41:00.964,698, 592, 404, -3, -3, -1, -6, -7, 4, 893, 642, 666,a
2025-03-10 11:41:01.024,697, 606, 401, -4, -2, -1, -5, -5, 5, 901, 654, 673,a
2025-03-10 11:41:01.082,698, 599, 412, -2, -1, -1, -5, -6, 3, 907, 663, 675,a
2025-03-10 11:41:01.133,703, 582, 394, -5, 0, -1, -4, -5, 3, 905, 679, 677,a
2025-03-10 11:41:01.183,721, 575, 403, 2, 1, -2, -5, -5, 3, 910, 684, 675,a
2025-03-10 11:41:01.240,694, 616, 399, 3, 3, 1, -5, -5, 4, 910, 659, 671,a
2025-03-10 11:41:01.286,679, 597, 427, 7, 8, 7, -6, -6, 5, 916, 649, 653,a
2025-03-10 11:41:01.345,681, 576, 400, 5, -4, 12, -7, -4, 4, 927, 720, 657,a
2025-03-10 11:41:01.397,833, 612, 505, -1, -8, -16, -4, -4, 5, 934, 844, 614,a
2025-03-10 11:41:01.455,626, 607, 322, 8, -4, -19, -4, -4, 5, 950, 847, 416,a
2025-03-10 11:41:01.512,872, 853, 186, -48, 37, 44, -6, -5, 5, 967, 873, 440,a
2025-03-10 11:41:01.563,642, 506, 733, -6, -17, 6, -5, -5, 3, 960, 907, 646,a
2025-03-10 11:41:01.627,713, 554, 580, 15, -18, -15, -5, -6, 3, 957, 912, 672,a
2025-03-10 11:41:01.680,625, 657, -35, -1, 40, 43, -7, -3, 4, 964, 906, 628,a
2025-03-10 11:41:01.737,854, 432, 222, -22, 2, -48, -6, -6, 3, 952, 903, 705,a
2025-03-10 11:41:01.794,623, 622, 606, -30, 1, -33, -4, -5, 2, 943, 905, 690,a
2025-03-10 11:41:01.846,592, 627, 558, 3, -16, 7, -3, -7, 0, 933, 884, 690,a
2025-03-10 11:41:02.253,697, 590, 428, -5, -2, -1, -4, -7, 2, 932, 821, 600,b
2025-03-10 11:41:02.310,706, 587, 438, -4, -2, -1, -7, -6, 1, 931, 821, 595,b
2025-03-10 11:41:02.363,678, 590, 435, 1, -4, 0, -5, -4, 2, 939, 823, 592,b
2025-03-10 11:41:02.414,728, 584, 406, -3, -5, -2, -5, -4, 3, 926, 828, 595,b
2025-03-10 11:41:02.473,671, 592, 438, -6, -6, -6, -5, -4, 2, 934, 833, 559,b
2025-03-10 11:41:02.528,697, 558, 375, -4, -16, -3, -4, -5, 2, 926, 853, 557,b
2025-03-10 11:41:02.579,714, 561, 400, 48, 5, -3, -5, -4, 3, 953, 876, 494,b
2025-03-10 11:41:02.634,981, 732, 416, 16, 34, 24, -4, -3, 3, 966, 855, 387,b
2025-03-10 11:41:02.685,655, 466, 505, 0, -9, -13, -6, -6, 4, 939, 819, 547,b
2025-03-10 11:41:02.748,699, 596, 518, 4, -7, -3, -5, -4, 5, 941, 874, 677,b
2025-03-10 11:41:02.796,595, 783, 143, 3, 11, 21, -6, -5, 6, 960, 908, 663,b
2025-03-10 11:41:02.853,511, 727, 77, -23, 32, 10, -5, -3, 5, 957, 870, 540,b
2025-03-10 11:41:02.913,1091, 443, 138, -32, 33, -41, -6, -6, 5, 936, 773, 550,b
2025-03-10 11:41:02.964,499, 699, 657, -17, 7, -11, -4, -5, 2, 939, 803, 610,b
2025-03-10 11:41:03.028,555, 611, 554, 17, -33, 16, -4, -6, 1, 935, 803, 638,b
2025-03-10 11:41:03.352,674, 592, 436, -1, -1, 0, -4, -5, 3, 926, 769, 552,c
2025-03-10 11:41:03.403,691, 604, 427, 0, -2, 0, -6, -5, 2, 927, 769, 556,c
2025-03-10 11:41:03.456,692, 596, 420, -1, -1, 0, -5, -2, 3, 929, 774, 557,c
2025-03-10 11:41:03.511,675, 579, 421, 1, -2, 0, -4, -4, 2, 928, 784, 576,c
2025-03-10 11:41:03.563,706, 596, 408, -1, -1, 3, -5, -4, 3, 935, 810, 605,c
2025-03-10 11:41:03.613,680, 593, 460, 7, -12, 8, -6, -5, 4, 938, 824, 647,c
2025-03-10 11:41:03.674,696, 564, 335, -5, -2, -11, -5, -5, 5, 941, 874, 613,c
2025-03-10 11:41:03.730,697, 628, 436, 21, -9, -13, -8, -6, 4, 951, 890, 492,c
2025-03-10 11:41:03.784,845, 898, 113, -11, 28, 21, -5, -5, 5, 967, 893, 320,c
2025-03-10 11:41:03.843,773, 770, 500, 4, 14, 26, -6, -4, 4, 963, 930, 664,c
2025-03-10 11:41:03.899,924, 433, -96, -52, 64, -62, -5, -4, 4, 942, 884, 693,c
2025-03-10 11:41:03.956,465, 734, 676, -28, 21, -23, -2, -6, 1, 937, 833, 623,c
2025-03-10 11:41:04.011,584, 620, 568, 15, -29, 14, -2, -6, 1, 934, 800, 549,c
2025-03-10 11:41:04.069,738, 554, 360, 8, -28, 13, -5, -5, 2, 932, 753, 526,c
2025-03-10 11:41:04.453,681, 592, 441, 6, -10, 6, -6, -5, 1, 933, 781, 555,d
2025-03-10 11:41:04.513,706, 595, 416, 4, -9, 6, -6, -4, 2, 931, 783, 558,d
2025-03-10 11:41:04.564,722, 579, 396, 4, -6, 5, -5, -4, 4, 938, 804, 586,d
2025-03-10 11:41:04.614,680, 585, 438, 6, -9, 4, -5, -4, 4, 932, 813, 607,d
2025-03-10 11:41:04.673,679, 562, 375, -6, -1, -6, -6, -5, 3, 937, 846, 584,d
2025-03-10 11:41:04.729,616, 502, 583, 4, -12, -20, -7, -5, 5, 941, 881, 454,d
2025-03-10 11:41:04.783,724, 528, 250, 35, 8, -1, -6, -5, 5, 960, 857, 179,d
2025-03-10 11:41:04.834,749, 886, 89, -19, 20, 22, -4, -4, 5, 962, 899, 386,d
2025-03-10 11:41:04.895,956, 613, 591, -14, -38, -32, -5, -4, 3, 946, 912, 642,d
2025-03-10 11:41:04.945,673, 455, 675, 17, -26, -16, -5, -5, 3, 952, 913, 666,d
2025-03-10 11:41:05.010,525, 747, 122, 26, 34, 29, -6, -4, 4, 966, 904, 543,d
2025-03-10 11:41:05.061,776, 630, 412, 3, 5, 4, -6, -3, 3, 957, 882, 663,d
2025-03-10 11:41:05.113,641, 504, 616, -34, 32, -34, -5, -6, 3, 940, 869, 651,d
2025-03-10 11:41:05.174,601, 627, 561, -9, -4, -1, -5, -6, 2, 934, 855, 624,d
2025-03-10 11:41:05.624,695, 579, 431, -1, 0, -1, -4, -4, 3, 931, 789, 529,e
2025-03-10 11:41:05.678,690, 578, 438, 0, 0, -2, -4, -4, 3, 930, 787, 534,e
2025-03-10 11:41:05.728,711, 583, 416, -2, 0, 0, -5, -5, 3, 931, 785, 529,e
2025-03-10 11:41:05.784,703, 593, 445, 1, -1, -1, -5, -5, 2, 931, 787, 512,e
2025-03-10 11:41:05.835,695, 587, 437, 0, 0, -1, -5, -5, 2, 936, 792, 490,e
2025-03-10 11:41:05.884,649, 580, 465, 5, 2, 3, -5, -5, 2, 927, 785, 427,e
2025-03-10 11:41:05.946,909, 112, 166, 41, 0, -16, -7, -3, 4, 947, 857, 521,e
2025-03-10 11:41:05.995,701, 519, 366, -15, 1, 12, -5, -2, 3, 959, 923, 623,e
2025-03-10 11:41:06.055,637, 465, 535, -4, -15, -14, -6, -5, 4, 955, 927, 672,e
2025-03-10 11:41:06.114,607, 520, 398, 16, -4, -15, -5, -4, 4, 953, 908, 557,e
2025-03-10 11:41:06.163,832, 874, 66, -8, 42, 43, -4, -5, 4, 967, 922, 535,e
2025-03-10 11:41:06.217,691, 485, 415, -5, 13, 17, -4, -5, 3, 967, 934, 685,e
2025-03-10 11:41:06.278,743, 492, 176, -43, 48, -41, -6, -5, 3, 944, 897, 700,e
2025-03-10 11:41:06.334,548, 657, 581, -20, 10, -19, -3, -5, 1, 934, 835, 620,e
2025-03-10 11:41:06.395,614, 588, 567, 9, -20, 5, -3, -5, 0, 931, 794, 520,e
2025-03-10 11:41:06.944,710, 576, 419, 3, -1, 2, -5, -5, 3, 930, 786, 591,f
2025-03-10 11:41:06.997,709, 576, 417, 3, -2, 2, -5, -3, 3, 932, 789, 593,f
2025-03-10 11:41:07.047,704, 582, 435, 2, 2, 2, -5, -4, 1, 931, 805, 609,f
2025-03-10 11:41:07.099,709, 575, 416, 0, 1, 4, -6, -3, 4, 935, 820, 615,f
2025-03-10 11:41:07.149,705, 577, 431, 0, 3, 5, -6, -5, 1, 940, 830, 612,f
2025-03-10 11:41:07.205,719, 578, 424, -5, 7, 1, -6, -6, 4, 938, 841, 575,f
2025-03-10 11:41:07.259,670, 581, 359, -19, 9, -3, -5, -5, 4, 945, 892, 392,f
2025-03-10 11:41:07.315,466, 640, 445, 2, -57, -62, -6, -5, 3, 948, 930, 601,f
2025-03-10 11:41:07.366,656, 723, 348, 3, -20, 10, -4, -4, 3, 967, 945, 710,f
2025-03-10 11:41:07.424,762, 456, 345, 9, 27, 24, -5, -4, 3, 959, 919, 719,f
2025-03-10 11:41:07.481,502, 725, 515, -4, 28, -29, -3, -4, 3, 955, 880, 580,f
2025-03-10 11:41:07.533,744, 795, 466, 8, -19, -5, -4, -5, 3, 955, 906, 556,f
2025-03-10 11:41:07.583,782, 363, 273, 5, 5, 26, -5, -6, 4, 968, 937, 710,f
2025-03-10 11:41:07.645,849, 301, 175, -23, 33, -36, -7, -5, 4, 950, 903, 714,f
2025-03-10 11:41:07.699,580, 620, 589, -33, 34, -24, -3, -5, 1, 940, 831, 599,f
2025-03-10 11:41:08.093,693, 575, 430, -1, -1, 2, -6, -5, 3, 937, 758, 564,g
2025-03-10 11:41:08.148,699, 570, 427, -2, 0, 2, -6, -5, 3, 939, 759, 558,g
2025-03-10 11:41:08.196,688, 580, 446, 1, -2, 0, -5, -5, 1, 932, 755, 545,g
2025-03-10 11:41:08.259,650, 588, 492, 9, -15, 8, -7, -5, 3, 936, 784, 600,g
2025-03-10 11:41:08.311,816, 567, 364, -9, 1, -10, -6, -3, 4, 949, 871, 527,g
2025-03-10 11:41:08.364,580, 521, 549, 7, -11, -16, -5, -4, 4, 949, 897, 381,g
2025-03-10 11:41:08.413,623, 1045, 41, -16, 47, 55, -5, -6, 4, 967, 909, 396,g
2025-03-10 11:41:08.478,651, 580, 519, -18, 18, 17, -7, -5, 4, 961, 924, 576,g
2025-03-10 11:41:08.534,638, 541, 561, 7, -20, -21, -7, -4, 3, 948, 907, 686,g
2025-03-10 11:41:08.584,691, 212, 593, 0, 28, 28, -7, -4, 3, 967, 917, 565,g
2025-03-10 11:41:08.645,729, 515, 403, -44, 29, 19, -7, -4, 2, 970, 882, 199,g
2025-03-10 11:41:08.705,908, 427, 429, -13, -14, -51, -6, -2, 3, 911, 660, 185,g
2025-03-10 11:41:08.759,633, 562, 757, -8, 1, -42, -4, -5, 1, 840, 633, 105,g
2025-03-10 11:41:08.814,569, 634, 597, 6, -13, 2, -2, -6, 0, 866, 669, 353,g
2025-03-10 11:41:09.163,667, 583, 486, 0, -8, 1, -4, -4, 0, 874, 694, 312,h
2025-03-10 11:41:09.214,691, 582, 481, -3, -9, 0, -4, -4, 0, 877, 695, 310,h
2025-03-10 11:41:09.274,666, 573, 475, 0, -11, -2, -3, -4, 3, 885, 736, 319,h
2025-03-10 11:41:09.327,602, 573, 564, 7, -41, -1, -5, -3, 1, 880, 773, 381,h
2025-03-10 11:41:09.384,678, 555, 409, -2, -10, -17, -4, -2, 1, 926, 848, 246,h
2025-03-10 11:41:09.433,686, 739, 281, 23, 36, 47, -4, -4, 1, 960, 869, 339,h
2025-03-10 11:41:09.492,729, 633, 310, 20, 7, 7, -6, -4, 2, 963, 861, 168,h
2025-03-10 11:41:09.545,634, 291, 848, 4, -33, -19, -5, -2, 3, 948, 888, 496,h
2025-03-10 11:41:09.606,649, 543, 583, 5, -15, -4, -5, -4, 4, 967, 916, 579,h
2025-03-10 11:41:09.659,759, 767, 456, -30, 34, 30, -6, -4, 3, 963, 897, 498,h
2025-03-10 11:41:09.713,713, 521, 249, -32, 45, -47, -6, -4, 2, 945, 851, 558,h
2025-03-10 11:41:09.774,537, 634, 662, -27, 10, -25, -2, -4, -2, 934, 831, 502,h
2025-03-10 11:41:10.254,691, 568, 475, 0, -3, 1, -4, -4, 3, 924, 763, 472,i
2025-03-10 11:41:10.309,692, 570, 466, 1, -3, 1, -7, -5, 1, 920, 761, 473,i
2025-03-10 11:41:10.361,687, 571, 445, 7, -7, 5, -7, -3, 1, 925, 762, 485,i
2025-03-10 11:41:10.413,723, 570, 433, 6, -11, 2, -6, -4, 1, 925, 768, 506,i
2025-03-10 11:41:10.469,695, 568, 434, 2, -8, 0, -7, -6, 1, 922, 782, 533,i
2025-03-10 11:41:10.523,682, 577, 504, 8, -2, -11, -5, -5, 2, 935, 836, 548,i
2025-03-10 11:41:10.576,711, 540, 617, 7, 14, 10, -5, -4, 4, 956, 870, 369,i
2025-03-10 11:41:10.633,723, 826, 65, -3, 25, 23, -7, -4, 3, 963, 855, 315,i
2025-03-10 11:41:10.684,745, 566, 59, -38, -9, -84, -6, -4, 3, 931, 861, 506,i
2025-03-10 11:41:10.744,3646, -343, -674, -26, -33, -21, -6, -4, 1, 950, 915, 585,i
2025-03-10 11:41:10.804,917, 747, 436, -9, 19, 17, -5, -4, 2, 944, 895, 645,i
2025-03-10 11:41:10.861,645, 552, 438, -38, 72, -23, -5, -3, 2, 940, 870, 622,i
2025-03-10 11:41:10.919,529, 616, 687, -25, 36, -8, -2, -3, -3, 939, 822, 540,i
2025-03-10 11:41:11.333,694, 580, 456, 2, 0, 3, -5, -4, 0, 927, 769, 514,j
2025-03-10 11:41:11.391,685, 567, 474, 4, -1, 3, -6, -4, 1, 928, 768, 520,j
2025-03-10 11:41:11.444,705, 574, 443, 2, -1, 2, -5, -5, -2, 927, 773, 515,j
2025-03-10 11:41:11.494,702, 569, 458, 5, -2, 5, -4, -4, 1, 924, 766, 520,j
2025-03-10 11:41:11.544,694, 564, 435, 4, -3, 5, -6, -4, 1, 932, 770, 518,j
2025-03-10 11:41:11.604,698, 561, 468, 4, -8, 3, -6, -5, 1, 927, 775, 527,j
2025-03-10 11:41:11.662,690, 585, 432, 4, -1, -15, -7, -4, 3, 932, 828, 519,j
2025-03-10 11:41:11.713,881, 829, 280, 43, 0, 8, -6, -5, 1, 952, 887, 544,j
2025-03-10 11:41:11.764,417, 520, 370, -25, 26, 29, -6, -3, 3, 969, 904, 128,j
2025-03-10 11:41:11.819,763, 12, 912, 7, -56, -73, -6, -3, 2, 954, 880, 29,j
2025-03-10 11:41:11.883,300, 707, 1190, -5, -27, -23, -4, -4, 0, 954, 917, 466,j
2025-03-10 11:41:11.933,862, 676, 311, 20, -31, 2, -4, -4, 4, 969, 935, 618,j
2025-03-10 11:41:11.994,718, 561, 557, -12, 23, 37, -7, -5, 2, 952, 893, 642,j
2025-03-10 11:41:12.047,727, 584, 294, -12, 44, -22, -5, -4, 3, 953, 879, 608,j
2025-03-10 11:41:12.108,556, 634, 585, -12, 25, -4, -4, -3, -1, 944, 849, 540,j
2025-03-10 11:41:12.161,625, 593, 577, 16, -19, 14, -4, -4, 0, 944, 821, 476,j
2025-03-10 11:41:12.634,707, 571, 425, -2, 0, -1, -5, -5, 2, 926, 776, 351,k
2025-03-10 11:41:12.684,704, 570, 435, -1, 0, -1, -5, -3, 1, 922, 776, 361,k
2025-03-10 11:41:12.734,700, 576, 431, -2, -1, -2, -5, -3, 2, 925, 792, 428,k
2025-03-10 11:41:12.793,686, 596, 468, 2, -11, 0, -7, -4, 1, 923, 810, 455,k
2025-03-10 11:41:12.844,778, 730, 433, 1, -4, -10, -5, -4, 0, 936, 849, 405,k
2025-03-10 11:41:12.893,722, 573, 420, 27, 9, 3, -5, -5, 3, 952, 867, 389,k
2025-03-10 11:41:12.953,805, 920, 184, -1, 24, 20, -4, -4, 3, 954, 819, 40,k
2025-03-10 11:41:13.009,1122, 665, 622, 5, 4, 20, -6, -4, 2, 953, 926, 388,k
2025-03-10 11:41:13.063,598, 442, 742, -11, -19, -4, -6, -4, 4, 953, 932, 667,k
2025-03-10 11:41:13.124,733, 703, 229, -13, 4, 12, -7, -3, 3, 944, 808, 601,k
2025-03-10 11:41:13.176,583, 544, 637, -17, 1, -15, -5, -4, 1, 929, 619, 49,k
2025-03-10 11:41:13.226,923, 931, 447, 10, -9, 28, -5, -4, 3, 964, 918, 504,k
2025-03-10 11:41:13.283,538, 367, 441, -5, 21, 35, -7, -5, 3, 970, 937, 626,k
2025-03-10 11:41:13.343,682, 639, 115, -36, 53, -62, -7, -4, 1, 945, 884, 647,k
2025-03-10 11:41:13.394,552, 642, 672, -7, 22, -24, -2, -5, -2, 927, 850, 510,k
2025-03-10 11:41:14.303,695, 585, 426, -2, -2, -1, -6, -4, 3, 920, 756, 595,l
2025-03-10 11:41:14.360,699, 583, 429, -2, -1, -1, -6, -3, 1, 915, 758, 597,l
2025-03-10 11:41:14.414,690, 578, 448, -2, 0, -2, -5, -3, 1, 920, 759, 595,l
2025-03-10 11:41:14.464,698, 572, 440, 3, -3, 0, -5, -6, 2, 914, 756, 575,l
2025-03-10 11:41:14.519,689, 589, 409, -6, -3, -5, -5, -4, 1, 916, 728, 523,l
2025-03-10 11:41:14.576,720, 420, 111, -25, -16, -15, -5, -6, 2, 918, 770, 511,l
2025-03-10 11:41:14.633,709, 615, 392, 1, 2, -4, -6, -5, 2, 933, 841, 461,l
2025-03-10 11:41:14.684,702, 569, 470, 12, -9, -5, -5, -4, 3, 949, 863, 481,l
2025-03-10 11:41:14.742,849, 706, 341, 39, 6, 13, -5, -4, 3, 950, 845, 387,l
2025-03-10 11:41:14.794,897, 361, 370, -14, 12, 7, -4, -4, 5, 959, 792, 26,l
2025-03-10 11:41:14.844,746, 646, 412, -16, 13, 8, -6, -4, 4, 944, 788, 282,l
2025-03-10 11:41:14.909,834, 463, 124, -35, 36, -30, -7, -5, 6, 919, 723, 511,l
2025-03-10 11:41:14.963,555, 663, 596, -16, 12, -11, -4, -5, 1, 919, 674, 428,l
2025-03-10 11:41:15.018,628, 592, 489, 4, -20, 8, -4, -4, 1, 911, 682, 421,l
2025-03-10 11:41:15.483,690, 589, 434, -1, 0, 0, -6, -5, 2, 904, 723, 376,m
2025-03-10 11:41:15.534,691, 587, 440, 0, -1, -1, -4, -4, 3, 906, 721, 375,m
2025-03-10 11:41:15.590,682, 589, 433, 4, -2, 2, -7, -5, 2, 908, 736, 459,m
2025-03-10 11:41:15.647,667, 598, 436, 13, -20, 8, -6, -6, 4, 915, 745, 472,m
2025-03-10 11:41:15.695,743, 558, 355, -10, 3, -8, -6, -4, 6, 922, 799, 442,m
2025-03-10 11:41:15.758,688, 575, 581, 12, -3, -7, -4, -4, 4, 948, 870, 494,m
2025-03-10 11:41:15.812,878, 710, 337, -4, 36, 36, -5, -5, 4, 960, 888, 350,m
2025-03-10 11:41:15.868,786, 770, 253, -11, 23, 9, -7, -2, 3, 962, 896, 307,m
2025-03-10 11:41:15.917,627, 563, 462, 3, -36, -21, -6, -6, 4, 954, 912, 590,m
2025-03-10 11:41:15.974,660, 833, 89, 0, 9, 17, -5, -5, 4, 967, 922, 601,m
2025-03-10 11:41:16.024,694, 556, 372, -12, 14, 13, -5, -4, 4, 966, 919, 442,m
2025-03-10 11:41:16.090,698, 467, 552, 18, -38, -27, -6, -5, 5, 962, 928, 654,m
2025-03-10 11:41:16.142,862, 753, 448, 9, 7, 24, -6, -2, 6, 968, 934, 669,m
2025-03-10 11:41:16.193,759, 468, 500, -5, 27, 21, -9, -5, 5, 961, 914, 697,m
2025-03-10 11:41:16.253,656, 490, 502, -37, 46, -46, -6, -4, 3, 942, 877, 662,m
2025-03-10 11:41:16.309,556, 655, 644, -14, -7, -9, -4, -6, 0, 935, 852, 625,m
2025-03-10 11:41:16.782,693, 591, 458, 1, -2, 1, -4, -4, 3, 918, 753, 443,n
2025-03-10 11:41:16.826,697, 581, 451, 0, -2, 1, -5, -4, 3, 918, 752, 446,n
2025-03-10 11:41:16.884,680, 579, 478, 4, -6, 0, -5, -4, 2, 925, 749, 438,n
2025-03-10 11:41:16.933,682, 588, 434, 3, -9, 2, -6, -6, 3, 917, 731, 380,n
2025-03-10 11:41:16.994,684, 591, 411, -5, -15, -3, -5, -5, 3, 914, 731, 330,n
2025-03-10 11:41:17.043,748, 497, 489, -7, 2, -7, -4, -4, 3, 936, 806, 196,n
2025-03-10 11:41:17.103,601, 715, 325, 49, 33, 27, -4, -4, 3, 951, 842, 226,n
2025-03-10 11:41:17.158,720, 751, 76, -10, 16, 7, -6, -5, 4, 959, 851, 112,n
2025-03-10 11:41:17.214,703, 645, 431, 23, -36, -27, -6, -4, 4, 947, 898, 570,n
2025-03-10 11:41:17.268,662, 727, 576, 13, -17, 3, -6, -3, 5, 961, 912, 653,n
2025-03-10 11:41:17.318,790, 655, 1, 0, 18, 14, -6, -5, 5, 969, 907, 611,n
2025-03-10 11:41:17.376,892, 431, 141, -37, 37, -40, -6, -5, 4, 939, 862, 671,n
2025-03-10 11:41:17.434,541, 621, 650, -21, 12, -25, -4, -7, 0, 913, 758, 563,n
2025-03-10 11:41:17.493,581, 608, 544, 11, -27, 13, -4, -5, 1, 900, 706, 476,n
2025-03-10 11:41:17.887,696, 584, 460, -1, 0, 0, -7, -5, 3, 898, 680, 343,o
2025-03-10 11:41:17.944,696, 583, 446, -2, -1, 0, -4, -5, 0, 894, 682, 346,o
2025-03-10 11:41:17.996,697, 586, 427, -1, -3, 1, -6, -5, 2, 906, 708, 408,o
2025-03-10 11:41:18.048,704, 570, 430, 3, -3, 3, -6, -4, 2, 901, 730, 422,o
2025-03-10 11:41:18.109,728, 602, 445, 11, -11, 3, -7, -5, 4, 904, 752, 469,o
2025-03-10 11:41:18.163,723, 561, 393, -2, 0, 1, -7, -4, 3, 914, 765, 493,o
2025-03-10 11:41:18.214,663, 602, 465, 5, -7, 4, -8, -4, 5, 920, 773, 516,o
2025-03-10 11:41:18.264,741, 586, 464, -2, -4, -16, -7, -3, 3, 932, 841, 401,o
2025-03-10 11:41:18.319,727, 756, 216, 44, 13, 0, -5, -4, 5, 954, 860, 242,o
2025-03-10 11:41:18.379,751, 518, 253, -22, 27, 36, -7, -5, 6, 960, 915, 481,o
2025-03-10 11:41:18.433,639, 380, 391, -1, -42, -43, -7, -5, 3, 955, 930, 653,o
2025-03-10 11:41:18.495,1109, 538, -128, -31, 25, -15, -7, -5, 3, 940, 875, 668,o
2025-03-10 11:41:18.554,520, 646, 655, -33, 66, -22, -4, -4, 0, 938, 754, 527,o
2025-03-10 11:41:18.609,516, 553, 723, 3, -8, 10, -1, -5, -2, 933, 749, 517,o
2025-03-10 11:41:19.050,644, 573, 494, 6, -12, 5, -4, -5, 1, 895, 725, 356,p
2025-03-10 11:41:19.103,656, 580, 494, 8, -13, 6, -8, -4, 0, 901, 725, 354,p
2025-03-10 11:41:19.158,703, 581, 388, 8, -15, 7, -6, -4, 3, 903, 733, 412,p
2025-03-10 11:41:19.213,693, 574, 420, -6, -6, 0, -4, -4, 2, 920, 778, 495,p
2025-03-10 11:41:19.267,628, 573, 606, 18, -31, 15, -5, -4, 4, 929, 833, 580,p
2025-03-10 11:41:19.325,718, 393, 833, -6, 25, 21, -5, -4, 5, 960, 882, 454,p
2025-03-10 11:41:19.377,747, 535, 282, 1, 34, 29, -6, -5, 3, 962, 867, 76,p
2025-03-10 11:41:19.434,542, 146, 799, 37, -73, -56, -7, -5, 3, 952, 884, 560,p
2025-03-10 11:41:19.493,796, 593, 544, -13, -25, -13, -6, -5, 5, 962, 930, 703,p
2025-03-10 11:41:19.544,535, 904, -134, 1, 15, 23, -5, -4, 5, 969, 935, 653,p
2025-03-10 11:41:19.603,778, 517, 277, -12, 28, 7, -7, -5, 4, 961, 882, 528,p
2025-03-10 11:41:19.658,676, 551, 353, -57, 71, -48, -5, -5, 1, 941, 835, 504,p
2025-03-10 11:41:19.718,375, 716, 813, -10, -2, 6, -2, -4, -1, 940, 805, 474,p
2025-03-10 11:41:19.763,678, 595, 495, 27, -41, 22, -3, -4, 0, 927, 779, 516,p
2025-03-10 11:41:20.147,702, 571, 426, -2, -2, 1, -6, -5, 2, 931, 783, 487,q
2025-03-10 11:41:20.206,705, 566, 424, -2, -1, 0, -5, -5, 4, 931, 784, 488,q
2025-03-10 11:41:20.258,686, 558, 497, 4, -6, 3, -5, -6, 2, 932, 789, 499,q
2025-03-10 11:41:20.309,690, 592, 444, 5, -9, 6, -6, -5, 1, 933, 810, 556,q
2025-03-10 11:41:20.368,795, 531, 303, -11, -8, -5, -6, -3, 4, 940, 859, 533,q
2025-03-10 11:41:20.423,833, 635, 405, -7, -3, -9, -3, -4, 3, 946, 898, 443,q
2025-03-10 11:41:20.475,636, 481, 482, 14, -6, -11, -5, -4, 2, 955, 911, 224,q
2025-03-10 11:41:20.533,968, 555, 339, -13, 28, 27, -6, -4, 5, 963, 903, 130,q
2025-03-10 11:41:20.590,618, 451, 647, -9, -7, -2, -7, -4, 3, 956, 917, 459,q
2025-03-10 11:41:20.643,677, 371, 652, 9, -16, -10, -5, -5, 3, 960, 925, 585,q
2025-03-10 11:41:20.701,986, 923, 414, -31, 27, 25, -6, -5, 4, 964, 891, 330,q
2025-03-10 11:41:20.758,749, 666, 522, -24, 10, 13, -6, -4, 4, 967, 934, 351,q
2025-03-10 11:41:20.809,972, 618, 142, -9, 14, -1, -7, -5, 4, 950, 908, 713,q
2025-03-10 11:41:20.868,484, 610, 817, -45, 36, -28, -5, -5, 1, 947, 814, 556,q
2025-03-10 11:41:20.924,628, 497, 529, 0, -24, 5, -3, -4, 2, 944, 784, 507,q
2025-03-10 11:41:21.303,692, 541, 443, 5, -4, 2, -5, -4, 0, 929, 838, 559,r
2025-03-10 11:41:21.356,708, 555, 457, 4, -3, 1, -5, -4, 2, 927, 837, 563,r
2025-03-10 11:41:21.408,696, 551, 431, 10, -7, 1, -6, -4, 3, 933, 849, 577,r
2025-03-10 11:41:21.463,733, 561, 420, -3, 1, -2, -7, -2, 1, 934, 850, 545,r
2025-03-10 11:41:21.518,697, 562, 440, -1, -1, -3, -5, -4, 3, 932, 853, 542,r
2025-03-10 11:41:21.573,687, 555, 462, 6, -10, -4, -6, -4, 1, 935, 866, 557,r
2025-03-10 11:41:21.624,722, 552, 451, -1, -1, -13, -6, -4, 2, 931, 882, 568,r
2025-03-10 11:41:21.684,717, 583, 360, 32, 2, -5, -5, -4, 2, 953, 896, 575,r
2025-03-10 11:41:21.741,659, 514, 465, -9, 13, 10, -7, -4, 4, 963, 894, 417,r
2025-03-10 11:41:21.793,731, 284, 341, -10, -51, -33, -7, -4, 1, 955, 926, 527,r
2025-03-10 11:41:21.843,793, 662, 304, 5, -5, 16, -7, -4, 2, 954, 921, 719,r
2025-03-10 11:41:21.908,605, 576, 471, -30, 66, -23, -5, -5, 1, 953, 907, 642,r
2025-03-10 11:41:21.967,493, 625, 768, 12, -6, 13, -4, -4, -1, 952, 906, 648,r
2025-03-10 11:41:22.017,758, 559, 378, 17, -35, 13, -4, -5, 0, 953, 901, 677,r
2025-03-10 11:41:22.075,783, 542, 330, -9, 1, -8, -7, -4, 2, 951, 890, 662,r
2025-03-10 11:41:22.125,696, 567, 486, -4, 4, -7, -6, -3, 1, 939, 870, 602,r
2025-03-10 11:41:22.585,697, 576, 472, 6, -11, 5, -6, -2, 1, 943, 861, 601,s
2025-03-10 11:41:22.639,713, 579, 444, 6, -11, 5, -6, -5, 0, 941, 861, 607,s
2025-03-10 11:41:22.691,752, 558, 381, 4, -9, 5, -9, -5, 2, 949, 875, 657,s
2025-03-10 11:41:22.744,739, 522, 395, -1, -1, -1, -6, -5, 2, 945, 885, 672,s
2025-03-10 11:41:22.794,627, 612, 478, -13, -1, -10, -7, -5, 2, 955, 911, 593,s
2025-03-10 11:41:22.857,766, 432, 381, 16, -3, -16, -8, -4, 3, 961, 915, 464,s
2025-03-10 11:41:22.908,946, 678, 352, 28, 21, 24, -5, -4, 4, 962, 924, 588,s
2025-03-10 11:41:22.966,614, 611, 445, -14, 18, 21, -6, -4, 3, 971, 933, 507,s
2025-03-10 11:41:23.024,664, 576, 315, -2, 17, -7, -8, -4, 3, 954, 862, 285,s
2025-03-10 11:41:23.083,696, 521, 292, -39, 66, -41, -5, -4, 2, 940, 820, 304,s
2025-03-10 11:41:23.139,443, 749, 711, -3, -4, 0, -4, -6, -1, 938, 826, 502,s
2025-03-10 11:41:23.193,591, 584, 541, 14, -32, 13, -5, -6, 0, 944, 811, 577,s
2025-03-10 11:41:23.527,698, 578, 454, -2, 0, -1, -6, -5, 0, 928, 829, 618,t
2025-03-10 11:41:23.574,688, 588, 465, -2, 0, -1, -7, -3, 1, 934, 831, 612,t
2025-03-10 11:41:23.638,700, 581, 459, -2, -8, -1, -5, -7, 1, 929, 840, 633,t
2025-03-10 11:41:23.691,631, 585, 496, 0, -27, 0, -5, -5, 1, 936, 868, 657,t
2025-03-10 11:41:23.743,629, 665, 429, 8, -6, -17, -6, -4, 2, 938, 886, 632,t
2025-03-10 11:41:23.793,919, 643, 417, 82, 16, -1, -5, -5, 4, 964, 896, 581,t
2025-03-10 11:41:23.855,768, 298, 201, 30, 28, 24, -5, -4, 4, 965, 905, 611,t
2025-03-10 11:41:23.909,599, 364, 995, -3, -19, -8, -6, -5, 5, 951, 913, 734,t
2025-03-10 11:41:23.967,413, 620, 720, -10, -8, -39, -6, -4, 4, 947, 901, 700,t
2025-03-10 11:41:24.024,772, 580, 264, -2, -17, -8, -5, -5, 4, 967, 937, 676,t
2025-03-10 11:41:24.076,624, 710, 326, -18, 10, 31, -6, -6, 4, 964, 941, 744,t
2025-03-10 11:41:24.138,944, 317, 64, -27, 28, -31, -7, -5, 3, 949, 908, 759,t
2025-03-10 11:41:24.193,482, 644, 711, -33, 42, -31, -4, -5, 0, 943, 834, 643,t
2025-03-10 11:41:24.873,694, 590, 416, 1, -1, 1, -7, -4, 3, 935, 781, 564,u
2025-03-10 11:41:24.924,703, 606, 415, 1, -1, 2, -4, -5, 4, 932, 781, 567,u
2025-03-10 11:41:24.979,707, 607, 417, 2, -5, 1, -6, -5, 4, 931, 781, 560,u
2025-03-10 11:41:25.034,703, 589, 394, 3, -6, 3, -6, -5, 4, 937, 787, 565,u
2025-03-10 11:41:25.090,715, 579, 389, -5, 2, -3, -5, -5, 3, 933, 785, 557,u
2025-03-10 11:41:25.141,694, 600, 428, -2, -3, 0, -6, -4, 4, 935, 789, 538,u
2025-03-10 11:41:25.194,907, 351, 320, -15, -3, -12, -6, -4, 3, 938, 823, 412,u
2025-03-10 11:41:25.256,726, 529, 467, 22, -5, -8, -6, -4, 4, 951, 864, 288,u
2025-03-10 11:41:25.310,825, 559, 247, 29, 20, 23, -7, -4, 5, 960, 897, 510,u
2025-03-10 11:41:25.367,639, 245, 593, -9, -17, -6, -8, -2, 4, 960, 929, 649,u
2025-03-10 11:41:25.418,742, 453, 533, 5, -9, -9, -5, -4, 3, 951, 913, 700,u
2025-03-10 11:41:25.473,953, 747, 233, 7, 34, 24, -8, -6, 4, 965, 908, 668,u
2025-03-10 11:41:25.525,927, 266, 365, -31, 30, -18, -6, -4, 4, 956, 886, 719,u
2025-03-10 11:41:25.588,583, 581, 698, -39, 35, -45, -2, -4, 1, 936, 840, 668,u
2025-03-10 11:41:25.948,652, 561, 513, 1, -7, 0, -5, -5, 1, 919, 765, 449,v
2025-03-10 11:41:25.993,654, 573, 545, 3, -10, 1, -4, -5, 3, 918, 767, 455,v
2025-03-10 11:41:26.059,693, 582, 447, 10, -17, 6, -5, -5, 2, 914, 739, 384,v
2025-03-10 11:41:26.109,776, 588, 350, -2, -2, 1, -5, -3, 2, 915, 702, 330,v
2025-03-10 11:41:26.165,670, 580, 474, -5, 3, -5, -5, -4, 4, 919, 703, 320,v
2025-03-10 11:41:26.219,711, 571, 469, 2, -11, 1, -5, -5, 3, 923, 730, 307,v
2025-03-10 11:41:26.271,735, 558, 377, -5, 1, -5, -5, -5, 4, 922, 726, 339,v
2025-03-10 11:41:26.326,655, 598, 484, -1, -10, -6, -6, -3, 2, 925, 757, 384,v
2025-03-10 11:41:26.384,660, 566, 417, -9, -2, -13, -6, -3, 3, 942, 852, 279,v
2025-03-10 11:41:26.440,852, 863, 318, 35, 3, 17, -8, -4, 4, 958, 894, 539,v
2025-03-10 11:41:26.493,667, 859, 152, -5, 24, 28, -7, -5, 3, 970, 914, 445,v
2025-03-10 11:41:26.543,593, 208, 736, 11, -45, -28, -7, -4, 4, 965, 944, 609,v
2025-03-10 11:41:26.607,715, 606, 481, 5, -17, -1, -6, -3, 5, 958, 933, 740,v
2025-03-10 11:41:26.663,698, 534, 332, -42, 67, -27, -6, -4, 2, 957, 895, 677,v
2025-03-10 11:41:26.716,528, 608, 680, -4, 17, -4, -7, -5, 1, 949, 834, 593,v
2025-03-10 11:41:27.233,707, 585, 399, -1, 5, -4, -5, -4, 2, 895, 670, 346,w
2025-03-10 11:41:27.291,721, 590, 413, -2, 5, -4, -5, -4, 4, 892, 665, 349,w
2025-03-10 11:41:27.343,692, 614, 465, -6, 1, -6, -5, -5, 4, 899, 629, 197,w
2025-03-10 11:41:27.393,680, 582, 430, -13, 0, -5, -6, -6, 1, 904, 687, 128,w
2025-03-10 11:41:27.444,665, 600, 457, 0, -5, -7, -4, -4, 2, 911, 720, 123,w
2025-03-10 11:41:27.509,648, 719, 423, 4, -1, -14, -4, -4, 3, 919, 789, 18,w
2025-03-10 11:41:27.560,807, 556, 448, 22, 5, 3, -4, -3, 3, 952, 847, 114,w
2025-03-10 11:41:27.614,700, 803, 149, 4, 16, 19, -6, -4, 4, 954, 853, 199,w
2025-03-10 11:41:27.672,612, 494, 473, -3, -22, -16, -5, -3, 2, 956, 918, 497,w
2025-03-10 11:41:27.724,722, 533, 573, 24, -16, -4, -6, -6, 0, 956, 906, 605,w
2025-03-10 11:41:27.784,634, 784, 174, -2, 12, 23, -6, -5, 3, 962, 892, 493,w
2025-03-10 11:41:27.841,705, 309, 415, 3, -32, -18, -8, -4, 1, 966, 932, 642,w
2025-03-10 11:41:27.893,945, 443, -8, -26, 44, -14, -7, -4, 4, 945, 883, 723,w
2025-03-10 11:41:27.951,489, 607, 744, -18, 41, -20, -4, -3, 0, 940, 761, 570,w
2025-03-10 11:41:28.344,694, 575, 469, -1, 0, 2, -5, -4, -1, 930, 763, 451,x
2025-03-10 11:41:28.394,674, 560, 492, 2, -2, 3, -5, -4, 0, 934, 765, 445,x
2025-03-10 11:41:28.455,722, 564, 434, 0, -6, 3, -6, -4, 1, 935, 766, 457,x
2025-03-10 11:41:28.508,735, 566, 447, 5, -6, 4, -6, -4, 1, 933, 775, 510,x
2025-03-10 11:41:28.560,700, 552, 450, 1, -4, 1, -6, -5, 2, 944, 798, 530,x
2025-03-10 11:41:28.617,629, 197, 255, 27, -10, -21, -7, -4, 2, 947, 858, 541,x
2025-03-10 11:41:28.672,993, 431, 686, 34, 0, -14, -7, -3, 4, 956, 878, 153,x
2025-03-10 11:41:28.726,767, 649, 47, -17, 26, 8, -6, -5, 5, 955, 829, 24,x
2025-03-10 11:41:28.784,838, 202, 630, -2, -41, -60, -6, -4, 2, 920, 816, 144,x
2025-03-10 11:41:28.840,843, 312, 599, 70, -25, -25, -5, -5, 3, 956, 900, 446,x
2025-03-10 11:41:28.897,601, 241, 270, -42, 29, 35, -7, -2, 2, 968, 923, 368,x
2025-03-10 11:41:28.946,739, 458, 520, 6, 3, -4, -7, -4, 3, 951, 869, 563,x
2025-03-10 11:41:29.003,662, 491, 557, -47, 38, -47, -5, -4, 1, 922, 762, 390,x
2025-03-10 11:41:29.414,699, 581, 436, -1, -2, 1, -5, -5, 2, 905, 719, 240,y
2025-03-10 11:41:29.473,693, 578, 434, -1, -1, 0, -6, -3, -1, 906, 724, 227,y
2025-03-10 11:41:29.523,649, 583, 467, -1, -6, 1, -5, -4, 2, 907, 741, 145,y
2025-03-10 11:41:29.583,641, 572, 484, 10, -22, 3, -5, -4, 3, 902, 787, 180,y
2025-03-10 11:41:29.638,732, 444, 619, 20, -2, -15, -6, -5, 2, 945, 849, 14,y
2025-03-10 11:41:29.693,575, 909, 319, -14, 37, 48, -5, -3, 4, 958, 890, 184,y
2025-03-10 11:41:29.753,748, 586, 563, -17, 11, 22, -5, -3, 3, 949, 892, 583,y
2025-03-10 11:41:29.794,400, 571, 985, 7, 4, 1, -3, -5, 1, 938, 898, 653,y
2025-03-10 11:41:29.856,863, 771, 196, 0, 19, 27, -7, -5, 4, 957, 914, 570,y
2025-03-10 11:41:29.913,903, 534, 487, -51, 38, 31, -7, -4, 4, 967, 905, 109,y
2025-03-10 11:41:29.970,830, 274, 740, -44, -7, -36, -7, -2, 1, 935, 747, 38,y
2025-03-10 11:41:30.023,509, 514, 701, -16, 53, -51, -5, -4, -2, 888, 772, 107,y
2025-03-10 11:41:30.084,474, 672, 628, 15, -26, 18, -2, -4, -2, 897, 757, 448,y
2025-03-10 11:41:30.138,748, 584, 404, 8, -30, 15, -4, -5, 1, 900, 738, 472,y
2025-03-10 11:41:30.543,654, 558, 492, 2, -5, 0, -5, -2, 1, 898, 746, 307,z
2025-03-10 11:41:30.593,666, 565, 488, 2, -6, 1, -6, -5, 1, 895, 747, 298,z
2025-03-10 11:41:30.655,725, 548, 431, -1, -11, 0, -4, -4, 0, 898, 741, 209,z
2025-03-10 11:41:30.707,613, 568, 519, 21, -17, -1, -7, -3, 3, 894, 757, 211,z
2025-03-10 11:41:30.765,753, 531, 442, 30, -1, -19, -6, -4, 3, 928, 820, 23,z
2025-03-10 11:41:30.817,726, 597, 269, 9, -14, 26, -6, -4, 4, 952, 903, 592,z
2025-03-10 11:41:30.871,587, 680, 532, 26, 0, 8, -7, -3, 4, 956, 882, 637,z
2025-03-10 11:41:30.924,958, 420, 360, -5, 11, -1, -7, -5, 4, 956, 826, 258,z
2025-03-10 11:41:30.973,632, 527, 591, -27, -3, 24, -5, -4, 4, 965, 927, 372,z
2025-03-10 11:41:31.036,725, 622, 410, 7, 4, 12, -5, -5, 4, 962, 918, 587,z
2025-03-10 11:41:31.091,485, 585, 270, -22, 30, -51, -6, -5, 4, 945, 848, 594,z
2025-03-10 11:41:31.153,392, -689, 244, -60, -17, -21, -6, -2, 4, 955, 872, 489,z
2025-03-10 11:41:31.207,648, 815, 240, -16, -6, 32, -5, -3, 5, 969, 924, 507,z
2025-03-10 11:41:31.265,663, 575, 406, 19, 10, 14, -7, -4, 4, 960, 814, 671,z
2025-03-10 11:41:31.322,557, 547, 331, -62, 80, -75, -7, -5, 2, 913, 601, 496,z
2025-03-10 11:41:31.373,518, 732, 802, 2, -16, 0, -3, -8, 0, 873, 366, 51,z
2025-03-10 11:41:31.894,683, 611, 423, 14, -17, -3, -3, -7, 4, 845, 228, 396,0
2025-03-10 11:41:31.955,690, 622, 412, 11, -17, -3, -3, -4, 3, 846, 222, 397,0
2025-03-10 11:41:32.015,728, 635, 416, 12, -19, -13, -3, -5, 6, 856, 208, 418,0
2025-03-10 11:41:32.071,619, 649, 324, 6, -8, -13, -3, -5, 5, 886, 207, 439,0
2025-03-10 11:41:32.125,681, 693, 374, 13, -41, -14, -4, -7, 5, 895, 365, 488,0
2025-03-10 11:41:32.176,654, 687, 296, 0, -11, 0, -5, -9, 6, 916, 425, 498,0
2025-03-10 11:41:32.234,654, 708, 302, -5, -5, 19, -6, -7, 7, 928, 572, 462,0
2025-03-10 11:41:32.293,728, 612, 311, -3, -1, 31, -4, -5, 7, 932, 665, 480,0
2025-03-10 11:41:32.341,739, 585, 284, -9, 3, 1, -7, -5, 7, 940, 728, 485,0
2025-03-10 11:41:32.394,671, 640, 360, -7, 9, 11, -5, -2, 7, 939, 756, 504,0
2025-03-10 11:41:32.451,690, 649, 329, -1, -6, 17, -8, -4, 7, 943, 782, 525,0
2025-03-10 11:41:32.504,679, 528, 317, -19, 0, -2, -8, -3, 7, 950, 817, 496,0
2025-03-10 11:41:32.563,623, 524, 419, -16, -5, -14, -8, -5, 5, 953, 887, 521,0
2025-03-10 11:41:32.621,857, 623, 366, 27, -8, -20, -7, -5, 6, 958, 900, 524,0
2025-03-10 11:41:32.673,530, 926, -32, -30, 89, 80, -7, -4, 6, 968, 895, 378,0
2025-03-10 11:41:32.723,734, 257, 936, -47, 9, 18, -6, -4, 4, 963, 923, 494,0
2025-03-10 11:41:32.788,676, 437, 570, 39, -27, -24, -7, -5, 3, 950, 858, 712,0
2025-03-10 11:41:32.844,965, 444, 95, -43, 75, -33, -6, -5, 6, 941, 721, 630,0
2025-03-10 11:41:32.903,531, 713, 709, -18, 41, -9, -4, -5, 0, 945, 567, 514,0
2025-03-10 11:41:33.446,676, 676, 561, 26, 7, 6, -3, -6, 4, 871, 464, 50,1
2025-03-10 11:41:33.494,741, 666, 538, 40, 0, 7, -3, -6, 4, 871, 456, 54,1
2025-03-10 11:41:33.554,785, 545, 241, -6, 14, -22, -2, -4, 6, 876, 449, 183,1
2025-03-10 11:41:33.605,726, 657, 286, -17, 3, -24, -1, -4, 3, 896, 524, 284,1
2025-03-10 11:41:33.669,579, 719, 516, -12, -7, -54, -1, -6, 3, 902, 611, 299,1
2025-03-10 11:41:33.724,522, 672, 389, 5, -20, -48, 0, -8, 2, 907, 652, 472,1
2025-03-10 11:41:33.773,386, 768, 501, 5, -9, 14, 1, -7, 3, 908, 659, 463,1
2025-03-10 11:41:33.827,456, 706, 169, 11, -7, 70, -2, -6, 4, 915, 676, 435,1
2025-03-10 11:41:33.886,666, 413, 422, 2, -15, 89, -4, -5, 5, 922, 738, 378,1
2025-03-10 11:41:33.943,783, 703, 234, -4, 7, 46, -7, -6, 5, 937, 789, 379,1
2025-03-10 11:41:33.993,898, 683, 415, -4, 11, 7, -7, -5, 4, 941, 826, 474,1
2025-03-10 11:41:34.048,620, 579, 610, 11, 1, 18, -6, -3, 7, 947, 853, 508,1
2025-03-10 11:41:34.103,682, 569, 315, 11, 2, 9, -6, -3, 6, 949, 869, 513,1
2025-03-10 11:41:34.155,803, 561, 353, -1, -2, -14, -9, -5, 5, 956, 889, 348,1
2025-03-10 11:41:34.214,735, 527, 478, -7, -9, 7, -7, -3, 5, 966, 937, 506,1
2025-03-10 11:41:34.264,624, 863, 425, 34, 6, 19, -7, -4, 4, 963, 918, 612,1
2025-03-10 11:41:34.320,710, 491, 294, 2, 58, 40, -10, -4, 5, 965, 893, 404,1
2025-03-10 11:41:34.374,589, 568, 363, -28, 40, -50, -5, -4, 5, 955, 774, 413,1
2025-03-10 11:41:34.433,724, 1673, 610, -2, -36, 4, -7, -4, 5, 966, 905, 450,1
2025-03-10 11:41:34.488,809, 379, 285, -37, 17, 40, -6, -3, 5, 966, 935, 384,1
2025-03-10 11:41:34.544,887, 353, 263, 1, 15, -16, -10, -3, 4, 963, 869, 599,1
2025-03-10 11:41:34.602,605, 555, 774, -54, 54, -56, -5, -4, 1, 937, 733, 445,1
2025-03-10 11:41:34.963,730, 569, 399, -5, 1, -3, -8, -4, 2, 936, 811, 608,2
2025-03-10 11:41:35.023,708, 583, 398, -5, 2, -3, -6, -4, 4, 939, 811, 602,2
2025-03-10 11:41:35.074,691, 585, 421, 0, -1, 2, -7, -3, 2, 938, 816, 604,2
2025-03-10 11:41:35.124,703, 568, 423, -3, 3, -1, -7, -4, 3, 945, 814, 584,2
2025-03-10 11:41:35.189,699, 553, 442, -2, 1, -1, -8, -5, 3, 941, 802, 568,2
2025-03-10 11:41:35.240,673, 586, 451, -2, -4, 1, -5, -4, 2, 942, 794, 529,2
2025-03-10 11:41:35.294,624, 578, 468, 2, -12, 1, -7, -3, 6, 935, 783, 465,2
2025-03-10 11:41:35.344,835, 657, 247, -13, 1, -4, -7, -3, 4, 952, 881, 337,2
2025-03-10 11:41:35.406,597, 530, 369, 6, -7, 17, -6, -4, 4, 966, 926, 616,2
2025-03-10 11:41:35.454,739, 693, 302, 13, 27, 10, -7, -4, 6, 970, 912, 548,2
2025-03-10 11:41:35.504,916, 436, 405, 0, -2, -9, -6, -2, 6, 963, 872, 108,2
2025-03-10 11:41:35.569,589, 650, 400, -32, 5, 40, -8, -2, 6, 973, 941, 155,2
2025-03-10 11:41:35.621,760, 642, 396, 25, 4, 17, -8, -4, 4, 960, 879, 398,2
2025-03-10 11:41:35.673,589, 446, 205, -80, 112, -72, -7, -3, 4, 922, 637, 270,2
2025-03-10 11:41:35.737,439, 692, 847, -1, -13, -4, -4, -5, -1, 893, 609, 173,2
2025-03-10 11:41:36.384,715, 584, 425, -2, 0, -1, -7, -5, 3, 917, 748, 527,3
2025-03-10 11:41:36.438,701, 582, 422, -2, 0, -1, -6, -4, 2, 918, 751, 534,3
2025-03-10 11:41:36.488,707, 577, 437, -1, -1, -1, -5, -4, 3, 918, 755, 531,3
2025-03-10 11:41:36.543,699, 576, 433, -3, -2, -1, -5, -5, 4, 921, 766, 527,3
2025-03-10 11:41:36.602,694, 582, 422, -2, -2, -2, -6, -3, 4, 922, 768, 476,3
2025-03-10 11:41:36.654,547, 534, 630, 27, -52, 11, -7, -3, 4, 931, 760, 288,3
2025-03-10 11:41:36.704,979, 867, 188, 6, -2, 7, -6, -3, 6, 960, 881, 429,3
2025-03-10 11:41:36.763,616, 685, 452, 5, 7, 13, -8, -5, 4, 958, 892, 508,3
2025-03-10 11:41:36.818,664, 427, 302, -3, 8, -3, -8, -5, 5, 962, 864, 359,3
2025-03-10 11:41:36.873,761, 573, 478, -10, 21, 21, -6, -3, 6, 965, 885, 338,3
2025-03-10 11:41:36.929,681, 471, 502, -14, 17, 16, -7, -6, 4, 967, 850, 43,3
2025-03-10 11:41:36.987,1142, 249, 469, 7, 27, -25, -8, -3, 4, 936, 632, 352,3
2025-03-10 11:41:37.043,497, 566, 739, -25, 73, -49, -4, -6, 1, 889, 568, 224,3
2025-03-10 11:41:37.094,411, 651, 717, -3, -8, 10, -1, -4, -1, 908, 700, 393,3
2025-03-10 11:41:37.533,682, 590, 479, -5, -4, 1, -5, -5, 1, 894, 715, 194,4
2025-03-10 11:41:37.587,678, 574, 455, -5, -5, 0, -5, -4, 1, 894, 719, 174,4
2025-03-10 11:41:37.644,687, 571, 490, 3, -12, 4, -6, -4, 3, 899, 738, 286,4
2025-03-10 11:41:37.694,689, 562, 466, 6, -14, 6, -7, -2, 3, 906, 758, 374,4
2025-03-10 11:41:37.753,698, 559, 422, 13, -23, 7, -6, -4, 3, 920, 771, 458,4
2025-03-10 11:41:37.804,738, 504, 408, -3, 2, -11, -7, -4, 3, 943, 864, 429,4
2025-03-10 11:41:37.863,686, 623, 483, 11, -17, -9, -6, -3, 4, 952, 910, 455,4
2025-03-10 11:41:37.920,522, 707, 462, 33, 10, -2, -7, -5, 6, 961, 870, 207,4
2025-03-10 11:41:37.970,726, 547, 76, -4, 13, 0, -6, -4, 7, 963, 875, 53,4
2025-03-10 11:41:38.024,993, 426, 351, -4, 0, 30, -7, -4, 6, 969, 941, 418,4
2025-03-10 11:41:38.074,678, 464, 281, 1, 13, 10, -7, -3, 6, 954, 913, 573,4
2025-03-10 11:41:38.137,538, 616, 296, -27, 19, -45, -5, -5, 5, 940, 863, 605,4
2025-03-10 11:41:38.186,747, 1041, 478, 4, -21, -6, -5, -4, 4, 959, 899, 602,4
2025-03-10 11:41:38.244,1062, 654, 77, 6, 36, 46, -7, -4, 5, 966, 891, 437,4
2025-03-10 11:41:38.302,746, 687, 62, 16, 29, 7, -7, -4, 5, 958, 788, 507,4
2025-03-10 11:41:38.354,716, 548, 92, -52, 69, -47, -6, -5, 5, 933, 783, 601,4
2025-03-10 11:41:38.404,509, 623, 625, -26, 20, -20, -4, -5, 0, 926, 773, 572,4
2025-03-10 11:41:38.857,723, 582, 433, 1, -3, 2, -7, -4, 2, 921, 765, 436,5
2025-03-10 11:41:38.914,704, 570, 428, 1, -3, 2, -7, -4, 3, 921, 767, 435,5
2025-03-10 11:41:38.973,690, 566, 452, -1, -1, -2, -6, -4, 2, 921, 775, 467,5
2025-03-10 11:41:39.023,684, 560, 443, -1, -1, -2, -6, -5, 2, 919, 773, 433,5
2025-03-10 11:41:39.083,572, 595, 682, 35, -43, 27, -5, -3, 4, 929, 797, 465,5
2025-03-10 11:41:39.136,847, 836, 150, -2, 3, 17, -6, -3, 5, 954, 909, 595,5
2025-03-10 11:41:39.189,635, 482, 620, -3, -2, 1, -8, -4, 3, 955, 921, 681,5
2025-03-10 11:41:39.244,879, 622, 377, 25, -6, -16, -8, -5, 4, 950, 879, 661,5
2025-03-10 11:41:39.293,771, 974, 87, -17, 32, 29, -6, -5, 6, 965, 898, 589,5
2025-03-10 11:41:39.354,606, 758, 336, -14, 26, 22, -6, -4, 7, 975, 904, 507,5
2025-03-10 11:41:39.404,861, 558, 440, 7, 21, -5, -7, -5, 4, 946, 751, 477,5
2025-03-10 11:41:39.468,791, 471, 162, -38, 59, -32, -6, -4, 4, 858, 656, 501,5
2025-03-10 11:41:39.524,493, 636, 658, -18, 18, -18, -4, -4, 0, 870, 710, 537,5
2025-03-10 11:41:39.910,685, 573, 455, -6, -2, 1, -6, -4, 2, 889, 722, 423,6
2025-03-10 11:41:39.968,689, 564, 450, -6, -2, 1, -6, -5, 1, 888, 725, 433,6
2025-03-10 11:41:40.018,710, 566, 468, 1, -6, 1, -6, -3, 2, 888, 721, 425,6
2025-03-10 11:41:40.073,704, 578, 447, -2, -10, 0, -5, -4, 3, 891, 746, 460,6
2025-03-10 11:41:40.123,727, 546, 471, -2, -9, 0, -5, -5, 2, 902, 761, 474,6
2025-03-10 11:41:40.184,677, 606, 525, 8, -31, 15, -7, -6, 2, 919, 781, 569,6
2025-03-10 11:41:40.238,686, 498, 334, -7, 0, -15, -7, -5, 4, 944, 854, 479,6
2025-03-10 11:41:40.287,561, 561, 370, 38, 7, -7, -5, -4, 3, 952, 880, 399,6
2025-03-10 11:41:40.344,1484, 1020, 128, 5, 35, 46, -6, -4, 6, 970, 899, 381,6
2025-03-10 11:41:40.402,718, 505, 817, -22, 1, 15, -7, -4, 3, 962, 921, 543,6
2025-03-10 11:41:40.454,908, 627, 355, 30, -34, -35, -7, -3, 5, 949, 908, 625,6
2025-03-10 11:41:40.519,1000, 481, 141, -51, 60, -35, -5, -3, 4, 936, 797, 515,6
2025-03-10 11:41:40.574,506, 679, 674, -18, 36, -13, -3, -4, 0, 934, 691, 457,6
2025-03-10 11:41:40.623,573, 594, 604, 5, -16, 9, -3, -6, 1, 928, 690, 473,6
2025-03-10 11:41:40.685,715, 543, 444, 7, -35, 12, -6, -5, 0, 917, 653, 446,6
2025-03-10 11:41:41.124,667, 577, 480, -3, -4, -3, -7, -2, 2, 919, 775, 361,7
2025-03-10 11:41:41.186,632, 570, 480, -3, -8, -1, -7, -2, 2, 919, 777, 356,7
2025-03-10 11:41:41.239,679, 209, 40, 22, -9, -22, -6, -3, 5, 933, 808, 257,7
2025-03-10 11:41:41.296,763, 632, 473, -7, -6, 26, -7, -2, 4, 960, 897, 575,7
2025-03-10 11:41:41.352,645, 454, 755, 32, -16, -1, -7, -3, 4, 962, 898, 595,7
2025-03-10 11:41:41.403,1354, 827, 100, -6, 51, 46, -8, -4, 4, 967, 887, 200,7
2025-03-10 11:41:41.463,779, 636, 363, -14, 29, 10, -9, -3, 4, 958, 808, 281,7
2025-03-10 11:41:41.520,490, 630, 735, -18, -4, -28, -7, -3, 4, 945, 778, 135,7
2025-03-10 11:41:41.574,823, 383, 283, 29, -14, -6, -6, -4, 5, 963, 911, 348,7
2025-03-10 11:41:41.635,773, 753, 559, 13, -6, 29, -6, -4, 6, 962, 916, 465,7
2025-03-10 11:41:41.688,909, 311, 105, -18, 35, -35, -8, -4, 5, 955, 813, 604,7
2025-03-10 11:41:41.743,535, 618, 856, -24, 34, -31, -6, -5, 1, 937, 716, 397,7
2025-03-10 11:41:42.174,725, 564, 420, 4, -4, 8, -6, -4, 5, 941, 776, 552,8
2025-03-10 11:41:42.233,727, 556, 409, 4, -3, 8, -8, -4, 5, 941, 784, 565,8
2025-03-10 11:41:42.286,644, 536, 463, 6, -10, 11, -7, -4, 4, 949, 805, 570,8
2025-03-10 11:41:42.343,708, 576, 362, -12, 1, -5, -7, -4, 6, 954, 855, 467,8
2025-03-10 11:41:42.402,677, 427, 561, -3, -2, -12, -7, -4, 6, 953, 889, 343,8
2025-03-10 11:41:42.454,883, 572, 290, 22, 6, -1, -7, -4, 7, 963, 877, 204,8
2025-03-10 11:41:42.504,648, 405, 377, -5, 20, 30, -9, -4, 4, 967, 908, 283,8
2025-03-10 11:41:42.564,461, 308, 604, 8, -27, -39, -9, -4, 4, 958, 919, 476,8
2025-03-10 11:41:42.620,873, 353, 577, 1, -32, -25, -8, -4, 4, 965, 939, 627,8
2025-03-10 11:41:42.673,560, 979, 180, 7, 7, 21, -7, -5, 5, 965, 934, 590,8
2025-03-10 11:41:42.724,932, 577, 219, -6, 24, 15, -7, -6, 7, 966, 928, 462,8
2025-03-10 11:41:42.786,1136, 391, 248, -20, 35, -37, -9, -4, 7, 953, 870, 552,8
2025-03-10 11:41:42.843,567, 614, 701, -22, 29, -28, -6, -5, 3, 944, 811, 486,8
2025-03-10 11:41:43.232,710, 581, 419, 2, -5, 6, -4, -5, 4, 938, 791, 590,9
2025-03-10 11:41:43.285,713, 582, 421, 1, -5, 6, -7, -5, 3, 941, 793, 586,9
2025-03-10 11:41:43.335,716, 545, 412, 1, -5, 3, -6, -5, 3, 937, 794, 603,9
2025-03-10 11:41:43.386,698, 574, 442, 7, -5, 5, -7, -5, 4, 945, 790, 596,9
2025-03-10 11:41:43.436,725, 565, 395, 4, -7, 6, -8, -6, 2, 943, 786, 615,9
2025-03-10 11:41:43.493,723, 562, 383, 0, -2, 4, -8, -3, 6, 945, 796, 626,9
2025-03-10 11:41:43.552,737, 273, 325, 2, -9, -15, -8, -3, 6, 955, 839, 589,9
2025-03-10 11:41:43.603,620, 495, 471, 2, -11, -19, -7, -4, 4, 953, 885, 493,9
2025-03-10 11:41:43.653,785, 743, 231, 24, 8, 4, -8, -5, 6, 962, 884, 455,9
2025-03-10 11:41:43.716,729, 658, 187, -24, 29, 32, -6, -5, 5, 968, 913, 436,9
2025-03-10 11:41:43.773,524, 316, 715, 5, -14, -17, -8, -5, 6, 960, 896, 617,9
2025-03-10 11:41:43.823,791, 885, 323, 18, 0, 11, -8, -5, 4, 958, 867, 641,9
2025-03-10 11:41:43.883,446, 701, 151, -39, 50, 35, -9, -5, 4, 964, 880, 301,9
2025-03-10 11:41:43.936,822, 281, 717, 8, 12, -35, -9, -1, 4, 943, 770, 437,9
2025-03-10 11:41:43.993,582, 471, 625, -28, 78, -61, -4, -4, 3, 881, 601, 388,9
2025-03-10 11:41:44.051,412, 696, 661, -3, -1, -3, -2, -7, -1, 890, 627, 429,9
2025-03-10 11:41:44.594,675, 611, 425, 5, -14, -9, -4, -5, 4, 899, 580, 516,+
2025-03-10 11:41:44.654,680, 622, 402, 6, -13, -9, -4, -4, 2, 907, 573, 509,+
2025-03-10 11:41:44.711,686, 634, 362, 1, -9, -16, -4, -6, 4, 915, 586, 504,+
2025-03-10 11:41:44.769,699, 668, 331, 0, -16, -10, -5, -7, 4, 927, 572, 473,+
2025-03-10 11:41:44.819,738, 656, 514, 13, -40, 3, -3, -6, 5, 933, 588, 376,+
2025-03-10 11:41:44.874,762, 671, 105, -24, 0, -2, -5, -5, 5, 928, 586, 282,+
2025-03-10 11:41:44.933,493, 648, 241, -27, 33, 52, -6, -6, 4, 931, 604, 86,+
2025-03-10 11:41:44.987,605, 546, 285, -19, 35, 14, -6, -5, 2, 927, 664, 233,+
2025-03-10 11:41:45.044,1001, 707, 958, 36, -14, 23, -5, -5, 0, 934, 705, 453,+
2025-03-10 11:41:45.100,582, 426, 447, -6, 7, 9, -7, -5, 1, 940, 762, 407,+
2025-03-10 11:41:45.154,683, 613, 416, -4, -8, 17, -7, -4, 0, 945, 799, 506,+
2025-03-10 11:41:45.206,790, 587, 412, 5, -12, 9, -8, -7, 1, 949, 832, 537,+
2025-03-10 11:41:45.264,730, 524, 379, -5, 3, -4, -7, -4, 2, 954, 851, 548,+
2025-03-10 11:41:45.318,732, 544, 414, -9, -8, -7, -7, -5, 2, 952, 864, 579,+
2025-03-10 11:41:45.374,685, 614, 529, -22, -3, -14, -6, -5, 2, 958, 907, 519,+
2025-03-10 11:41:45.423,893, 894, 155, 49, 31, 28, -8, -4, 2, 970, 900, 472,+
2025-03-10 11:41:45.474,741, 409, 345, 0, 26, 6, -8, -5, 2, 959, 837, 394,+
2025-03-10 11:41:45.535,700, 779, 459, -15, -31, -31, -7, -5, 2, 958, 869, 481,+
2025-03-10 11:41:45.600,1145, 1019, 244, -4, -35, 31, -8, -4, 2, 966, 930, 461,+
2025-03-10 11:41:45.653,642, 541, 407, 10, 18, 19, -7, -5, 3, 960, 907, 619,+
2025-03-10 11:41:45.711,624, 545, 264, -35, 65, -61, -6, -7, 3, 938, 783, 605,+
2025-03-10 11:41:47.544,707, 597, 378, 0, 1, 1, -5, -5, 0, 943, 806, 436,-
2025-03-10 11:41:47.594,716, 584, 372, 0, 1, 0, -5, -5, 2, 937, 807, 443,-
2025-03-10 11:41:47.643,712, 600, 399, 0, 1, 1, -5, -4, 1, 938, 817, 458,-
2025-03-10 11:41:47.701,707, 599, 388, 1, 2, 1, -6, -5, 2, 938, 814, 386,-
2025-03-10 11:41:47.755,951, 529, 332, -19, 6, -9, -6, -5, 3, 946, 821, 142,-
2025-03-10 11:41:47.805,745, 611, 312, -30, -3, -1, -5, -3, 1, 956, 873, 27,-
2025-03-10 11:41:47.869,697, 686, 252, -20, -23, 45, -5, -4, 4, 970, 943, 452,-
2025-03-10 11:41:47.919,589, 480, 462, 1, 0, 5, -8, -4, 2, 969, 939, 472,-
2025-03-10 11:41:47.974,735, 517, 303, 16, 10, -2, -8, -4, 2, 960, 924, 596,-
2025-03-10 11:41:48.024,954, 530, 465, -5, 5, -28, -7, -5, 0, 948, 854, 653,-
2025-03-10 11:41:48.086,638, 581, 632, -16, 31, -31, -6, -4, 0, 941, 788, 484,-
2025-03-10 11:41:48.143,649, 579, 480, 12, -8, -7, -4, -5, 1, 938, 776, 515,-
2025-03-10 11:41:48.646,849, 708, 644, -3, 12, -11, -4, -4, 0, 917, 723, 476,÷
2025-03-10 11:41:48.703,858, 815, 506, -12, 7, -7, -6, -5, 1, 919, 732, 473,÷
2025-03-10 11:41:48.762,564, 523, 519, -3, -3, 10, -6, -4, -2, 932, 751, 462,÷
2025-03-10 11:41:48.815,674, 621, 393, 3, -11, 12, -6, -5, 1, 937, 794, 485,÷
2025-03-10 11:41:48.869,769, 577, 355, 3, -2, 11, -7, -5, 1, 944, 821, 507,÷
2025-03-10 11:41:48.918,747, 612, 360, 2, 6, 4, -6, -4, 0, 946, 838, 520,÷
2025-03-10 11:41:48.974,698, 589, 402, -2, 2, 9, -5, -4, 1, 950, 849, 528,÷
2025-03-10 11:41:49.032,600, 545, 408, -1, -11, 11, -7, -5, 0, 952, 884, 532,÷
2025-03-10 11:41:49.085,680, 479, 479, -8, -8, -16, -7, -5, 0, 958, 926, 442,÷
2025-03-10 11:41:49.143,765, 701, 181, 24, -10, -6, -8, -4, 1, 969, 929, 526,÷
2025-03-10 11:41:49.200,695, 554, 362, -15, 21, 13, -8, -4, 1, 965, 932, 540,÷
2025-03-10 11:41:49.254,914, 536, 148, -2, 29, -8, -6, -5, 1, 957, 894, 648,÷
2025-03-10 11:41:49.304,557, 618, 658, 27, -5, 25, -7, -4, -1, 959, 866, 529,÷
2025-03-10 11:41:49.363,789, 811, 251, -23, 5, -5, -7, -4, 0, 961, 899, 428,÷
2025-03-10 11:41:49.420,765, 671, 541, -1, -6, 5, -7, -4, -1, 962, 921, 385,÷
2025-03-10 11:41:49.473,731, 639, 344, -12, 11, 10, -8, -3, 0, 971, 928, 373,÷
2025-03-10 11:41:49.535,857, 540, 128, -15, 17, -27, -6, -5, -1, 954, 891, 521,÷
2025-03-10 11:41:49.585,520, 598, 582, -3, 2, -13, -7, -4, -3, 952, 888, 496,÷
2025-03-10 11:41:49.651,852, -197, -397, -50, -37, -14, -6, -6, 0, 959, 904, 513,÷
2025-03-10 11:41:49.703,807, 542, 457, 8, -2, -2, -6, -4, -1, 968, 934, 437,÷
2025-03-10 11:41:49.754,534, 533, 291, -4, -4, 16, -7, -4, -1, 973, 953, 531,÷
2025-03-10 11:41:49.814,737, 548, 352, 9, 13, 7, -9, -5, 0, 964, 932, 641,÷
2025-03-10 11:41:49.867,797, 616, 73, -71, 70, -60, -7, -5, 0, 951, 860, 544,÷
2025-03-10 11:41:49.927,510, 647, 675, -2, -15, 0, -5, -5, -3, 946, 790, 493,÷
2025-03-10 11:42:06.128,701, 609, 394, -2, 0, -1, -5, -5, 0, 916, 757, 600,<
2025-03-10 11:42:06.184,696, 604, 395, -1, 0, -1, -5, -5, 0, 914, 755, 597,<
2025-03-10 11:42:06.234,682, 601, 396, -2, 0, -1, -5, -6, -1, 917, 747, 592,<
2025-03-10 11:42:06.286,697, 607, 425, 1, -4, 0, -5, -5, -1, 910, 743, 591,<
2025-03-10 11:42:06.348,717, 610, 400, -1, -2, -1, -6, -5, 0, 911, 728, 580,<
2025-03-10 11:42:06.406,689, 604, 381, -1, -1, -3, -4, -6, -2, 912, 724, 572,<
2025-03-10 11:42:06.456,689, 613, 416, 0, -2, -2, -6, -7, 1, 911, 714, 574,<
2025-03-10 11:42:06.513,662, 617, 414, 2, -3, -2, -5, -7, 1, 916, 683, 552,<
2025-03-10 11:42:06.564,700, 600, 367, 3, -4, 0, -5, -4, 1, 913, 683, 551,<
2025-03-10 11:42:06.614,698, 613, 367, -2, 1, -1, -5, -4, 1, 914, 695, 552,<
2025-03-10 11:42:06.673,687, 635, 407, 0, 0, 0, -5, -6, 1, 910, 704, 567,<
2025-03-10 11:42:06.724,706, 607, 370, -2, 0, -1, -6, -5, 3, 914, 704, 556,<
2025-03-10 11:42:06.779,697, 624, 396, -2, 0, -1, -6, -5, 1, 913, 706, 562,<
2025-03-10 11:42:06.834,699, 625, 401, -2, -1, -2, -4, -4, 1, 912, 705, 550,<
2025-03-10 11:42:06.884,706, 605, 371, -2, 0, -1, -5, -4, 2, 912, 708, 542,<
2025-03-10 11:42:06.943,694, 612, 427, -1, -3, -8, -5, -5, 2, 917, 708, 523,<
2025-03-10 11:42:06.997,698, 639, 404, 7, -10, -4, -6, -5, 2, 910, 716, 535,<
2025-03-10 11:42:07.057,691, 630, 399, 12, -24, -16, -3, -6, 2, 911, 737, 537,<
2025-03-10 11:42:07.115,727, 629, 325, 12, -37, -16, -5, -5, 3, 913, 739, 528,<
2025-03-10 11:42:07.164,696, 701, 280, -4, -17, -27, -4, -5, 5, 920, 734, 529,<
2025-03-10 11:42:07.224,623, 689, 320, -4, -4, -11, -4, -6, 5, 918, 727, 474,<
2025-03-10 11:42:07.279,565, 695, 209, -8, 5, 34, -4, -5, 4, 926, 806, 529,<
2025-03-10 11:42:07.334,711, 649, 307, -8, 9, 42, -5, -5, 4, 939, 843, 571,<
2025-03-10 11:42:07.384,770, 644, 343, -16, 28, 20, -7, -5, 4, 942, 873, 631,<
2025-03-10 11:42:07.447,758, 571, 365, -18, 32, 6, -5, -5, 2, 946, 890, 651,<
2025-03-10 11:42:07.498,663, 623, 519, -6, 0, 16, -8, -5, -2, 952, 908, 701,<
2025-03-10 11:42:07.557,741, 578, 333, 2, -9, 14, -7, -5, -1, 955, 914, 723,<
2025-03-10 11:42:07.611,714, 558, 435, 1, -12, 15, -8, -5, 1, 961, 921, 732,<
2025-03-10 11:42:07.664,752, 505, 244, -7, 4, 3, -8, -4, 1, 955, 920, 719,<
2025-03-10 11:42:07.715,727, 566, 497, -6, -7, -1, -8, -2, 1, 969, 937, 651,<
2025-03-10 11:42:07.773,647, 786, 69, 26, 15, -2, -9, -4, 3, 962, 926, 501,<
2025-03-10 11:42:07.828,979, 639, 64, -21, 17, 18, -8, -3, 2, 964, 910, 55,<
2025-03-10 11:42:07.881,874, 262, 399, 3, 10, 46, -9, -3, 2, 972, 955, 156,<
2025-03-10 11:42:07.933,728, 440, 429, 22, 15, 6, -10, -3, 0, 964, 945, 477,<
2025-03-10 11:42:07.988,855, 501, 129, -59, 79, -70, -8, -4, 0, 945, 841, 455,<
2025-03-10 11:42:08.053,558, 645, 810, -10, 14, -21, -5, -4, -4, 928, 753, 334,<
2025-03-10 11:42:09.993,733, 552, 422, -1, 1, 0, -8, -4, 2, 950, 891, 469,≤
2025-03-10 11:42:10.047,734, 556, 430, 0, 0, 1, -8, -4, 2, 952, 892, 474,≤
2025-03-10 11:42:10.103,742, 546, 401, 0, -1, 2, -8, -5, 3, 947, 893, 495,≤
2025-03-10 11:42:10.156,741, 550, 384, -2, -1, 0, -8, -3, 2, 949, 898, 492,≤
2025-03-10 11:42:10.212,728, 559, 395, -1, -2, 1, -8, -2, 3, 948, 900, 499,≤
2025-03-10 11:42:10.264,732, 543, 409, 3, -6, 3, -9, -4, 3, 948, 905, 507,≤
2025-03-10 11:42:10.314,749, 523, 359, -3, 0, -1, -9, -5, 3, 953, 912, 490,≤
2025-03-10 11:42:10.373,741, 550, 420, -1, 0, -1, -8, -4, 3, 953, 918, 459,≤
2025-03-10 11:42:10.429,748, 544, 431, -1, -1, -1, -8, -4, 2, 954, 919, 433,≤
2025-03-10 11:42:10.482,742, 555, 383, -2, 1, 0, -8, -4, 3, 951, 921, 444,≤
2025-03-10 11:42:10.533,746, 543, 390, -2, 2, 0, -9, -5, 3, 956, 925, 422,≤
2025-03-10 11:42:10.583,745, 541, 436, 0, -2, -3, -8, -4, 3, 958, 933, 385,≤
2025-03-10 11:42:10.641,744, 559, 408, 0, -6, -3, -10, -4, 3, 957, 944, 376,≤
2025-03-10 11:42:10.698,660, 436, 481, 10, -15, -10, -8, -4, 2, 963, 948, 353,≤
2025-03-10 11:42:10.753,745, 624, 311, 0, 4, -2, -7, -5, 6, 968, 933, 123,≤
2025-03-10 11:42:10.810,667, 709, 234, -20, 40, 16, -9, -3, 5, 962, 874, 56,≤
2025-03-10 11:42:10.858,742, 406, 528, 7, 3, -3, -9, -4, 4, 967, 891, 34,≤
2025-03-10 11:42:10.914,736, 254, 485, 13, -3, 15, -8, -4, 2, 970, 949, 58,≤
2025-03-10 11:42:10.965,745, 495, 383, 10, 8, 1, -8, -3, 2, 972, 952, 258,≤
2025-03-10 11:42:11.027,864, 313, 135, -54, 75, -19, -8, -4, 4, 948, 777, 178,≤
2025-03-10 11:42:11.079,568, 605, 734, 24, -16, 10, -6, -5, 3, 946, 691, 55,≤
2025-03-10 11:42:11.133,832, 252, 227, 9, -10, 0, -9, -4, 3, 958, 901, 66,≤
2025-03-10 11:42:11.183,604, 494, 215, -5, -4, 38, -9, -5, 4, 970, 956, 176,≤
2025-03-10 11:42:11.243,755, 555, 443, 10, 13, 2, -11, -5, 3, 961, 947, 298,≤
2025-03-10 11:42:11.296,968, 601, -23, -42, 60, -60, -9, -5, 1, 936, 815, 432,≤
2025-03-10 11:42:11.356,595, 650, 793, -22, 9, -27, -6, -6, -1, 918, 684, 216,≤
2025-03-10 11:42:11.743,711, 556, 438, -2, -3, 0, -6, -3, 0, 929, 825, 347,>
2025-03-10 11:42:11.805,705, 544, 445, -3, -3, 0, -8, -4, 1, 930, 822, 335,>
2025-03-10 11:42:11.856,692, 560, 488, -2, -8, 0, -8, -4, -1, 930, 821, 281,>
2025-03-10 11:42:11.911,727, 535, 434, 0, -9, 2, -8, -4, 1, 932, 817, 252,>
2025-03-10 11:42:11.963,745, 535, 414, 0, -8, -1, -6, -4, 1, 934, 829, 301,>
2025-03-10 11:42:12.013,725, 558, 410, 2, -6, 0, -8, -4, 3, 941, 856, 319,>
2025-03-10 11:42:12.064,723, 550, 401, -2, -2, -2, -8, -4, 0, 939, 868, 323,>
2025-03-10 11:42:12.129,735, 557, 397, -2, -4, -3, -9, -4, 0, 943, 875, 350,>
2025-03-10 11:42:12.179,730, 554, 408, -5, -2, -4, -7, -3, 2, 941, 875, 396,>
2025-03-10 11:42:12.234,676, 560, 429, -9, -8, -4, -8, -5, 2, 939, 873, 354,>
2025-03-10 11:42:12.295,751, 757, 451, -1, -18, -20, -8, -4, 1, 958, 896, 20,>
2025-03-10 11:42:12.346,872, 901, 81, 8, -2, 45, -7, -4, 3, 962, 946, 529,>
2025-03-10 11:42:12.403,603, 402, 747, 19, -7, -1, -8, -4, 3, 970, 955, 560,>
2025-03-10 11:42:12.461,1161, 557, 258, -22, 34, 5, -10, -5, 5, 967, 937, 242,>
2025-03-10 11:42:12.513,888, 550, 289, 7, 40, 8, -9, -4, 3, 955, 901, 320,>
2025-03-10 11:42:12.563,669, 622, 95, -33, 65, -42, -9, -5, 1, 951, 892, 531,>
2025-03-10 11:42:12.623,540, 693, 664, -12, 1, 1, -5, -5, 0, 938, 877, 484,>
2025-03-10 11:42:13.024,744, 551, 368, -6, -10, -5, -7, -2, 0, 930, 810, 414,≥
2025-03-10 11:42:13.083,748, 544, 367, -7, -7, -7, -7, -4, 0, 931, 817, 441,≥
2025-03-10 11:42:13.133,707, 599, 459, -14, -4, -2, -5, -2, -2, 940, 859, 524,≥
2025-03-10 11:42:13.193,723, 527, 484, -2, -12, 4, -7, -5, -2, 947, 900, 629,≥
2025-03-10 11:42:13.245,738, 542, 419, 0, -5, -3, -9, -4, 1, 947, 909, 656,≥
2025-03-10 11:42:13.304,712, 541, 425, -6, -4, -7, -7, -2, 0, 949, 920, 663,≥
2025-03-10 11:42:13.356,710, 569, 441, -4, -6, -2, -8, -3, 0, 948, 921, 668,≥
2025-03-10 11:42:13.413,693, 555, 455, -7, -7, -2, -8, -2, 0, 949, 926, 659,≥
2025-03-10 11:42:13.463,729, 554, 462, 5, -30, 6, -9, -4, -1, 959, 934, 598,≥
2025-03-10 11:42:13.523,770, 422, 323, 18, 3, -10, -8, -4, 1, 955, 936, 621,≥
2025-03-10 11:42:13.579,658, 498, 240, 32, -10, 21, -9, -4, 2, 961, 952, 768,≥
2025-03-10 11:42:13.633,672, 508, 396, 15, -12, -2, -8, -4, 4, 969, 961, 745,≥
2025-03-10 11:42:13.693,1075, 387, 345, -10, 24, -1, -10, -4, 5, 966, 948, 621,≥
2025-03-10 11:42:13.745,929, 569, 536, -22, 46, 16, -10, -3, 2, 959, 920, 674,≥
2025-03-10 11:42:13.805,377, 627, 825, 15, -3, -1, -5, -4, -1, 959, 901, 593,≥
2025-03-10 11:42:13.864,962, 1163, 256, 21, -28, -1, -8, -5, 3, 961, 929, 563,≥
2025-03-10 11:42:13.913,761, 417, 21, -14, -10, 33, -10, -3, 3, 972, 962, 559,≥
2025-03-10 11:42:13.976,735, 545, 442, 7, 9, 1, -8, -5, 4, 968, 956, 660,≥
2025-03-10 11:42:14.033,1071, 301, -36, -51, 58, -41, -10, -5, 3, 950, 896, 648,≥
2025-03-10 11:42:14.083,550, 675, 808, -15, 13, -15, -6, -5, -1, 936, 769, 516,≥
2025-03-10 11:42:14.146,720, 528, 463, 22, -34, 8, -6, -4, -1, 931, 705, 487,≥
2025-03-10 11:42:31.693,664, 623, 478, 9, -14, -13, -2, -2, -1, 730, 464, 33,±
2025-03-10 11:42:31.744,677, 609, 474, 10, -15, -15, -4, -3, -1, 729, 470, 34,±
2025-03-10 11:42:31.810,640, 644, 462, 8, -13, -26, -3, -3, -2, 736, 495, 68,±
2025-03-10 11:42:31.863,661, 623, 442, 16, -23, -28, -1, -2, 2, 759, 505, 172,±
2025-03-10 11:42:31.914,625, 658, 426, 1, -13, -19, -3, -4, 0, 777, 531, 312,±
2025-03-10 11:42:31.978,583, 712, 393, 13, -21, -12, -3, -3, 1, 813, 553, 320,±
2025-03-10 11:42:32.033,605, 705, 349, 20, -28, 6, -2, -3, 3, 825, 571, 349,±
2025-03-10 11:42:32.089,665, 669, 277, -1, 4, 15, -3, -4, 3, 839, 582, 416,±
2025-03-10 11:42:32.142,593, 717, 403, 28, 31, 43, -2, -5, 4, 864, 606, 448,±
2025-03-10 11:42:32.196,717, 594, 106, 1, 71, 48, -4, -4, 2, 887, 679, 516,±
2025-03-10 11:42:32.246,572, 588, 563, 7, 45, 55, -5, -5, 3, 918, 788, 579,±
2025-03-10 11:42:32.309,558, 541, 396, -14, 42, 18, -4, -4, 1, 935, 889, 679,±
2025-03-10 11:42:32.362,788, 611, 640, 23, -8, 34, -6, -5, 1, 948, 920, 746,±
2025-03-10 11:42:32.413,717, 492, 399, 20, -15, 27, -6, -5, 3, 958, 936, 758,±
2025-03-10 11:42:32.473,721, 532, 383, 5, 14, 10, -8, -4, 3, 951, 932, 749,±
2025-03-10 11:42:32.525,727, 569, 423, 0, 1, 4, -8, -4, 4, 951, 929, 743,±
2025-03-10 11:42:32.577,745, 539, 452, -1, 5, 4, -9, -5, 3, 956, 930, 726,±
2025-03-10 11:42:32.633,730, 530, 385, -14, -2, 4, -8, -4, 1, 955, 918, 685,±
2025-03-10 11:42:32.690,612, 547, 573, -9, -28, -2, -8, -4, 3, 951, 919, 697,±
2025-03-10 11:42:32.743,797, 470, 501, -12, -8, -11, -8, -4, 2, 956, 940, 686,±
2025-03-10 11:42:32.793,828, 660, 204, 56, 25, 30, -9, -4, 4, 969, 940, 656,±
2025-03-10 11:42:32.854,738, 334, 474, -2, 28, 9, -8, -3, 3, 958, 918, 586,±
2025-03-10 11:42:32.908,451, 659, 631, -14, -18, -17, -7, -4, 2, 954, 904, 642,±
2025-03-10 11:42:32.967,894, 675, 499, 19, -26, -1, -7, -4, 5, 968, 953, 604,±
2025-03-10 11:42:33.024,536, 474, 423, 16, 8, 18, -11, -3, 4, 967, 954, 668,±
2025-03-10 11:42:33.076,759, 272, 359, 15, 53, -9, -9, -4, 4, 954, 909, 676,±
2025-03-10 11:42:33.136,851, 532, 808, -66, 6, -24, -8, -5, 4, 960, 823, 481,±
2025-03-10 11:42:33.193,807, 804, 386, -36, -20, 51, -8, -3, 4, 968, 957, 504,±
2025-03-10 11:42:33.243,700, 550, 308, 3, 12, 16, -8, -2, 4, 961, 945, 590,±
2025-03-10 11:42:33.305,960, 389, -342, -85, 102, -85, -9, -4, 3, 932, 720, 557,±
2025-03-10 11:42:33.366,465, 667, 1096, -57, 68, -68, -3, -4, -5, 888, 534, 393,±
2025-03-10 11:42:33.829,494, 481, 345, -1, -5, 14, -5, -5, -5, 926, 859, 538,∓
2025-03-10 11:42:33.876,504, 485, 400, 2, -5, 15, -4, -4, -5, 924, 865, 553,∓
2025-03-10 11:42:33.939,769, 684, 350, 13, -25, 21, -6, -4, -2, 935, 892, 647,∓
2025-03-10 11:42:33.993,775, 572, 361, -4, 3, -3, -7, -5, -3, 941, 908, 664,∓
2025-03-10 11:42:34.043,673, 570, 502, -1, -2, 2, -6, -5, -3, 942, 911, 688,∓
2025-03-10 11:42:34.103,733, 588, 409, 0, -7, 3, -6, -4, -3, 940, 912, 700,∓
2025-03-10 11:42:34.158,708, 589, 426, -8, -1, -3, -6, -4, -3, 943, 916, 694,∓
2025-03-10 11:42:34.216,605, 569, 444, -6, 0, -2, -7, -3, -3, 941, 903, 670,∓
2025-03-10 11:42:34.271,754, 664, 482, 0, -1, -21, -6, -4, -1, 949, 912, 510,∓
2025-03-10 11:42:34.325,586, 895, 226, 12, -43, 48, -6, -5, -2, 971, 963, 702,∓
2025-03-10 11:42:34.375,533, 375, 333, 7, 6, 3, -10, -5, 0, 964, 954, 757,∓
2025-03-10 11:42:34.439,574, 724, 285, 10, 35, 11, -8, -5, 0, 957, 915, 767,∓
2025-03-10 11:42:34.491,625, 661, 535, -6, 43, -21, -6, -4, 0, 941, 813, 618,∓
2025-03-10 11:42:34.553,722, 1108, 302, 29, -22, -18, -4, -5, 0, 954, 912, 660,∓
2025-03-10 11:42:34.606,607, 534, 255, -11, -11, 31, -7, -5, 0, 964, 950, 739,∓
2025-03-10 11:42:34.664,651, 662, 438, 8, 13, 4, -7, -5, -1, 956, 933, 777,∓
2025-03-10 11:42:34.721,615, 583, 627, -10, 14, -26, -8, -4, -2, 949, 908, 749,∓
2025-03-10 11:42:34.773,588, 489, 349, -4, -7, 14, -6, -3, -2, 962, 941, 743,∓
2025-03-10 11:42:34.824,686, 690, 105, 0, 38, 31, -6, -4, -2, 965, 934, 686,∓
2025-03-10 11:42:34.889,923, 408, 86, -34, 29, -52, -7, -3, -3, 948, 897, 721,∓
2025-03-10 11:42:34.944,521, 709, 742, -27, 16, -31, -4, -5, -8, 939, 856, 692,∓
2025-03-10 11:42:35.526,657, 601, 277, 23, 24, 32, -4, -8, 2, 832, 69, 336,∞
2025-03-10 11:42:35.586,621, 609, 297, 27, 24, 29, -3, -6, 2, 840, 106, 356,∞
2025-03-10 11:42:35.638,845, 880, 288, -30, 19, 27, -4, -8, 2, 894, 347, 470,∞
2025-03-10 11:42:35.694,588, 543, 410, -35, 10, 20, -4, -5, 1, 924, 730, 633,∞
2025-03-10 11:42:35.743,648, 585, 417, -4, -2, 20, -5, -6, 0, 937, 842, 716,∞
2025-03-10 11:42:35.803,753, 617, 320, -5, 2, 4, -4, -7, 0, 945, 876, 748,∞
2025-03-10 11:42:35.856,698, 592, 400, -3, 1, 3, -5, -5, 0, 946, 891, 762,∞
2025-03-10 11:42:35.913,701, 613, 394, -3, -1, 4, -6, -5, 1, 949, 899, 759,∞
2025-03-10 11:42:35.958,716, 604, 366, 0, -2, 1, -5, -6, 0, 948, 907, 761,∞
2025-03-10 11:42:36.019,710, 604, 374, -6, 3, 2, -6, -4, -1, 950, 908, 768,∞
2025-03-10 11:42:36.073,708, 605, 395, -3, -1, 3, -5, -6, -1, 955, 912, 769,∞
2025-03-10 11:42:36.125,714, 611, 395, 3, -4, 2, -5, -6, -1, 952, 914, 771,∞
2025-03-10 11:42:36.183,716, 606, 360, -2, -3, 2, -5, -6, 0, 953, 918, 772,∞
2025-03-10 11:42:36.233,741, 583, 374, 1, -6, 0, -6, -4, -2, 958, 920, 769,∞
2025-03-10 11:42:36.290,782, 593, 391, -7, -3, -1, -6, -5, 1, 955, 910, 769,∞
2025-03-10 11:42:36.343,805, 564, 416, -14, -6, -11, -6, -5, 0, 957, 900, 746,∞
2025-03-10 11:42:36.395,657, 628, 401, -8, -2, 2, -7, -5, 0, 953, 904, 698,∞
2025-03-10 11:42:36.454,624, 667, 378, 4, -1, 8, -6, -5, 0, 954, 913, 695,∞
2025-03-10 11:42:36.507,770, 604, 329, 10, -4, 18, -8, -5, 1, 960, 924, 700,∞
2025-03-10 11:42:36.563,759, 572, 320, 6, 10, 6, -8, -5, 2, 958, 929, 727,∞
2025-03-10 11:42:36.617,708, 591, 382, -1, 2, 1, -8, -5, 2, 962, 936, 735,∞
2025-03-10 11:42:36.671,753, 576, 350, -2, 0, -2, -6, -5, 0, 959, 932, 737,∞
2025-03-10 11:42:36.723,758, 579, 354, -4, 6, -6, -8, -6, 1, 955, 930, 723,∞
2025-03-10 11:42:36.773,737, 608, 372, -2, 1, -2, -7, -5, 1, 956, 925, 704,∞
2025-03-10 11:42:36.823,695, 582, 450, 2, -5, 8, -7, -5, 2, 959, 933, 734,∞
2025-03-10 11:42:36.887,626, 532, 440, 13, -4, -3, -6, -4, 2, 964, 947, 701,∞
2025-03-10 11:42:36.939,776, 564, 226, -18, 32, 15, -7, -5, 0, 968, 937, 479,∞
2025-03-10 11:42:36.993,833, 331, 512, -23, 17, -6, -8, -5, -1, 960, 927, 332,∞
2025-03-10 11:42:37.056,837, 600, 475, 19, -31, 18, -7, -4, -1, 965, 951, 648,∞
2025-03-10 11:42:37.107,638, 487, 63, -14, 6, 12, -8, -4, 1, 964, 956, 712,∞
2025-03-10 11:42:37.164,978, 530, 83, -22, -27, -31, -8, -5, 0, 959, 954, 733,∞
2025-03-10 11:42:37.220,639, 546, 426, 7, -2, -9, -8, -4, 0, 964, 953, 724,∞
2025-03-10 11:42:37.274,676, 670, -22, -21, 44, 19, -7, -5, -1, 973, 944, 492,∞
2025-03-10 11:42:37.333,811, 514, 519, -11, 46, 6, -6, -4, -1, 956, 852, 364,∞
2025-03-10 11:42:37.390,813, 480, 158, -23, 39, -51, -7, -4, -3, 937, 798, 531,∞
2025-03-10 11:42:37.454,458, 693, 713, -22, 16, -21, -2, -5, -5, 927, 808, 561,∞
2025-03-10 11:42:38.563,714, 593, 425, 10, -1, 7, -5, -4, -1, 948, 880, 578,∑
2025-03-10 11:42:38.623,717, 601, 420, 12, -2, 9, -5, -4, -1, 948, 885, 597,∑
2025-03-10 11:42:38.673,729, 584, 332, 9, -1, 10, -8, -6, -2, 942, 902, 677,∑
2025-03-10 11:42:38.733,707, 580, 371, -5, 3, -1, -7, -5, -1, 958, 921, 699,∑
2025-03-10 11:42:38.790,680, 590, 416, -2, -2, -1, -6, -5, 1, 950, 918, 705,∑
2025-03-10 11:42:38.843,673, 598, 402, -7, 0, -4, -5, -5, -2, 946, 911, 653,∑
2025-03-10 11:42:38.903,769, 855, 492, 1, -13, -14, -8, -5, -1, 958, 919, 470,∑
2025-03-10 11:42:38.956,741, 721, 113, 20, -11, 39, -7, -6, -1, 960, 949, 701,∑
2025-03-10 11:42:39.013,671, 590, 466, 22, 5, -1, -8, -5, 2, 956, 933, 755,∑
2025-03-10 11:42:39.071,514, 623, 488, -43, 38, -34, -6, -6, 0, 956, 885, 657,∑
2025-03-10 11:42:39.124,771, 438, 343, 18, -17, -7, -6, -6, 0, 957, 920, 636,∑
2025-03-10 11:42:39.174,606, 792, 314, 2, 10, 40, -6, -6, 1, 968, 947, 703,∑
2025-03-10 11:42:39.233,625, 699, 446, 5, 4, 4, -8, -6, 1, 969, 954, 720,∑
2025-03-10 11:42:39.291,451, 537, 291, -13, 34, -8, -7, -5, 3, 960, 908, 625,∑
2025-03-10 11:42:39.341,847, 612, 348, -13, 7, 0, -5, -4, 0, 961, 822, 30,∑
2025-03-10 11:42:39.393,695, 681, 354, 3, -17, 44, -7, -5, 1, 966, 949, 386,∑
2025-03-10 11:42:39.445,656, 483, 251, -2, 10, 13, -9, -5, 0, 971, 959, 473,∑
2025-03-10 11:42:39.507,927, 228, 347, -3, 16, -37, -9, -4, 2, 954, 891, 630,∑
2025-03-10 11:42:39.566,555, 621, 826, -26, 44, -33, -6, -4, -4, 933, 744, 453,∑
2025-03-10 11:42:41.329,720, 579, 386, -1, 0, -1, -7, -4, 0, 944, 889, 680,∏
2025-03-10 11:42:41.384,732, 585, 387, -2, 0, -1, -6, -5, 0, 938, 889, 680,∏
2025-03-10 11:42:41.438,731, 587, 367, -3, -1, -2, -6, -5, 0, 944, 889, 662,∏
2025-03-10 11:42:41.494,723, 581, 392, -3, -2, 0, -8, -6, 0, 936, 880, 662,∏
2025-03-10 11:42:41.544,729, 583, 372, 1, -2, 0, -8, -4, 0, 942, 890, 663,∏
2025-03-10 11:42:41.602,729, 583, 381, -3, 0, 0, -8, -6, 1, 939, 892, 666,∏
2025-03-10 11:42:41.655,734, 591, 388, -3, 2, 0, -8, -6, 1, 943, 895, 666,∏
2025-03-10 11:42:41.706,733, 577, 385, -8, 1, -5, -8, -4, 0, 941, 888, 636,∏
2025-03-10 11:42:41.756,723, 579, 387, -8, 0, -7, -7, -7, -1, 944, 872, 560,∏
2025-03-10 11:42:41.816,721, 587, 414, -3, 3, -3, -6, -4, 0, 936, 851, 494,∏
2025-03-10 11:42:41.872,646, 598, 471, -3, 5, -19, -6, -5, -1, 951, 864, 245,∏
2025-03-10 11:42:41.923,1113, 602, 394, 57, -16, 2, -6, -5, 1, 958, 935, 412,∏
2025-03-10 11:42:41.983,630, 581, 295, -2, 0, 34, -9, -5, 1, 965, 951, 697,∏
2025-03-10 11:42:42.036,670, 464, 339, 3, 4, -3, -10, -6, 3, 962, 942, 722,∏
2025-03-10 11:42:42.094,924, 525, 252, -13, 26, -25, -9, -5, -1, 949, 906, 702,∏
2025-03-10 11:42:42.143,637, 601, 475, -3, 16, -7, -6, -5, -1, 947, 904, 706,∏
2025-03-10 11:42:42.204,658, 598, 447, 7, -14, 6, -5, -6, 0, 949, 903, 701,∏
2025-03-10 11:42:42.255,731, 562, 447, 9, -23, 9, -8, -5, -1, 953, 909, 687,∏
2025-03-10 11:42:42.315,737, 526, 474, 1, -13, -10, -6, -5, 0, 960, 927, 578,∏
2025-03-10 11:42:42.372,594, 708, 234, 4, 35, 32, -8, -5, 1, 978, 928, 246,∏
2025-03-10 11:42:42.423,808, 620, 467, -2, 20, 10, -7, -4, 1, 956, 894, 576,∏
2025-03-10 11:42:42.483,440, 662, 973, -7, -10, 4, -6, -4, -1, 955, 928, 704,∏
2025-03-10 11:42:42.536,762, 378, 383, -6, -22, -1, -7, -6, 1, 974, 952, 651,∏
2025-03-10 11:42:42.593,604, 1098, 49, -11, 43, 59, -8, -4, 1, 968, 944, 349,∏
2025-03-10 11:42:42.643,798, 687, 458, -4, 33, 12, -7, -4, 0, 962, 920, 609,∏
2025-03-10 11:42:42.705,661, 423, 479, -51, 65, -55, -5, -5, -4, 950, 895, 616,∏
2025-03-10 11:42:42.765,487, 578, 662, -25, 11, -13, -5, -5, -6, 942, 871, 575,∏
2025-03-10 11:42:43.393,718, 562, 409, -1, 0, 0, -7, -6, -2, 943, 878, 581,√
2025-03-10 11:42:43.453,719, 561, 416, -2, 1, -1, -8, -4, -2, 943, 876, 575,√
2025-03-10 11:42:43.505,710, 575, 426, -1, -1, 0, -8, -5, -2, 946, 880, 565,√
2025-03-10 11:42:43.554,729, 568, 420, -3, 0, 0, -7, -6, -1, 946, 878, 520,√
2025-03-10 11:42:43.614,726, 561, 421, -2, -2, 0, -7, -5, -4, 949, 881, 515,√
2025-03-10 11:42:43.670,714, 573, 429, -4, 2, -1, -7, -4, -2, 944, 876, 521,√
2025-03-10 11:42:43.723,737, 571, 416, -1, -2, 0, -5, -5, 1, 942, 876, 521,√
2025-03-10 11:42:43.773,725, 557, 421, 0, -1, 0, -7, -5, -3, 944, 880, 514,√
2025-03-10 11:42:43.833,715, 571, 406, 0, -2, 1, -6, -4, -2, 946, 882, 517,√
2025-03-10 11:42:43.888,729, 560, 417, -3, 0, -1, -7, -4, -2, 950, 881, 501,√
2025-03-10 11:42:43.943,719, 556, 412, -3, 1, -1, -7, -5, -1, 945, 880, 505,√
2025-03-10 11:42:43.994,719, 572, 403, 0, -2, 1, -6, -5, -3, 952, 886, 494,√
2025-03-10 11:42:44.052,721, 569, 419, 1, -2, -2, -7, -4, -1, 945, 883, 499,√
2025-03-10 11:42:44.105,729, 549, 422, -2, 0, 0, -7, -3, -1, 948, 886, 513,√
2025-03-10 11:42:44.156,709, 553, 415, -3, 3, 2, -8, -5, 0, 952, 885, 506,√
2025-03-10 11:42:44.216,710, 558, 414, 4, 1, -1, -8, -4, -3, 946, 880, 504,√
2025-03-10 11:42:44.265,745, 572, 391, 1, 10, 1, -6, -3, 1, 946, 866, 465,√
2025-03-10 11:42:44.313,696, 573, 410, 5, 5, 1, -8, -5, 0, 957, 864, 437,√
2025-03-10 11:42:44.371,706, 557, 394, 10, 2, 0, -7, -4, -1, 945, 853, 440,√
2025-03-10 11:42:44.423,724, 598, 502, 4, 3, -17, -7, -6, 0, 958, 883, 243,√
2025-03-10 11:42:44.473,787, 631, 372, 11, -2, 1, -6, -5, 1, 959, 928, 424,√
2025-03-10 11:42:44.535,542, 804, 223, 20, 9, 19, -6, -2, 2, 973, 930, 498,√
2025-03-10 11:42:44.588,684, 594, 181, -28, 24, 27, -7, -5, 2, 964, 919, 255,√
2025-03-10 11:42:44.643,750, 233, 521, -2, -52, -62, -7, -4, -1, 952, 929, 465,√
2025-03-10 11:42:44.705,764, 541, 269, -12, -36, -17, -8, -4, 0, 966, 954, 657,√
2025-03-10 11:42:44.764,937, 666, 250, 31, -16, 26, -10, -3, 2, 971, 958, 729,√
2025-03-10 11:42:44.813,732, 548, 466, 14, 12, 3, -9, -5, 2, 968, 947, 774,√
2025-03-10 11:42:44.873,785, 338, 153, -42, 75, -49, -10, -5, 0, 953, 895, 705,√
2025-03-10 11:42:44.923,618, 776, 793, -5, 17, -8, -6, -4, -4, 938, 820, 611,√
2025-03-10 11:42:45.412,697, 572, 429, 0, 0, 3, -6, -6, 0, 933, 793, 414,∛
2025-03-10 11:42:45.465,708, 568, 420, 0, 0, 2, -7, -2, -1, 935, 797, 415,∛
2025-03-10 11:42:45.514,715, 585, 417, -4, 2, -2, -5, -5, 0, 934, 790, 417,∛
2025-03-10 11:42:45.571,722, 585, 427, -5, 2, 0, -7, -4, 0, 934, 789, 438,∛
2025-03-10 11:42:45.623,702, 572, 420, -3, 0, -2, -5, -4, 0, 931, 787, 432,∛
2025-03-10 11:42:45.674,633, 598, 418, -5, 5, -3, -6, -5, -1, 925, 765, 375,∛
2025-03-10 11:42:45.734,705, 597, 479, 2, 3, -16, -5, -5, -1, 937, 799, 36,∛
2025-03-10 11:42:45.788,831, 672, 267, -20, -10, 27, -4, -5, 0, 952, 915, 428,∛
2025-03-10 11:42:45.843,848, 715, 388, 35, 12, 19, -7, -5, 2, 956, 916, 568,∛
2025-03-10 11:42:45.904,656, 506, 333, -39, 21, 24, -8, -5, -2, 961, 894, 69,∛
2025-03-10 11:42:45.956,382, 152, 729, -12, -40, -40, -8, -4, -2, 951, 922, 59,∛
2025-03-10 11:42:46.013,748, 290, 737, -9, -49, -21, -7, -3, -2, 965, 954, 538,∛
2025-03-10 11:42:46.073,710, 709, 183, 26, -20, 28, -8, -5, 0, 970, 959, 708,∛
2025-03-10 11:42:46.123,718, 416, 439, 9, 11, 0, -9, -5, 1, 961, 948, 735,∛
2025-03-10 11:42:46.173,789, 285, 237, -2, 45, -15, -9, -4, 2, 958, 918, 708,∛
2025-03-10 11:42:46.243,567, 651, 478, -32, 34, -48, -6, -6, -1, 952, 865, 444,∛
2025-03-10 11:42:46.293,676, 527, 616, 30, -60, 14, -4, -5, -1, 943, 878, 450,∛
2025-03-10 11:42:46.354,789, 687, 410, 24, -31, 2, -5, -4, 0, 963, 939, 662,∛
2025-03-10 11:42:46.407,556, 579, 500, 2, 1, 5, -5, -5, 0, 964, 944, 722,∛
2025-03-10 11:42:46.457,753, 583, 344, -2, -2, -2, -4, -5, 1, 959, 934, 661,∛
2025-03-10 11:42:46.516,675, 695, 451, -17, 11, 11, -6, -5, 1, 975, 944, 626,∛
2025-03-10 11:42:46.571,687, 725, 50, -11, 27, 13, -6, -5, 1, 960, 918, 512,∛
2025-03-10 11:42:46.623,956, 426, 183, -35, 51, -34, -4, -4, 0, 943, 869, 603,∛
2025-03-10 11:42:46.686,522, 702, 811, -10, 10, -7, -4, -4, -5, 938, 867, 575,∛
2025-03-10 11:42:46.743,550, 611, 554, 17, -29, 17, -3, -6, -4, 945, 856, 602,∛
2025-03-10 11:42:47.205,714, 579, 428, 4, -1, 2, -6, -4, -1, 933, 784, 395,∜
2025-03-10 11:42:47.254,708, 577, 429, 5, 0, 2, -5, -3, -1, 931, 790, 413,∜
2025-03-10 11:42:47.304,699, 582, 433, 2, 0, 1, -5, -4, -3, 930, 799, 444,∜
2025-03-10 11:42:47.364,707, 559, 430, -1, 0, -1, -5, -4, -1, 936, 800, 431,∜
2025-03-10 11:42:47.418,661, 590, 438, 1, 2, -2, -7, -6, -1, 928, 778, 319,∜
2025-03-10 11:42:47.470,677, 493, 399, 3, -3, -8, -4, -4, 1, 928, 775, 27,∜
2025-03-10 11:42:47.523,855, 729, 585, 11, -18, 6, -4, -4, -2, 951, 902, 290,∜
2025-03-10 11:42:47.573,769, 558, 445, 23, 0, 13, -6, -5, 0, 961, 915, 554,∜
2025-03-10 11:42:47.637,927, 657, 221, -25, 41, 43, -7, -5, 0, 959, 890, 125,∜
2025-03-10 11:42:47.687,729, 326, 608, -40, 4, -1, -8, -5, -1, 954, 905, 33,∜
2025-03-10 11:42:47.743,864, 520, 844, -12, -73, -27, -6, -5, 0, 959, 935, 440,∜
2025-03-10 11:42:47.804,854, 744, 323, 31, -38, 23, -7, -4, -1, 961, 936, 585,∜
2025-03-10 11:42:47.863,545, 476, 373, 18, -5, 23, -10, -5, 2, 960, 934, 724,∜
2025-03-10 11:42:47.921,746, 222, 42, -40, 60, -50, -9, -6, 1, 950, 912, 701,∜
2025-03-10 11:42:47.974,798, 768, 750, -8, 23, -43, -5, -6, -2, 945, 867, 582,∜
2025-03-10 11:42:48.037,687, 554, 424, 25, -46, 11, -5, -5, -2, 948, 913, 711,∜
2025-03-10 11:42:48.093,724, 480, 568, 18, -17, -11, -5, -5, 0, 957, 939, 761,∜
2025-03-10 11:42:48.143,626, 640, 390, 8, -14, -4, -5, -4, 1, 962, 942, 754,∜
2025-03-10 11:42:48.204,770, 666, 148, -20, 26, 12, -5, -5, 0, 970, 930, 525,∜
2025-03-10 11:42:48.254,801, 701, 480, -28, 4, 25, -4, -5, 1, 971, 955, 616,∜
2025-03-10 11:42:48.304,706, 606, 375, 1, 6, 6, -5, -4, 0, 968, 951, 715,∜
2025-03-10 11:42:48.369,636, 500, 14, -47, 31, -46, -6, -5, 0, 965, 924, 718,∜
2025-03-10 11:42:48.424,809, 180, 213, 23, -19, -25, -5, -5, -1, 961, 928, 742,∜
2025-03-10 11:42:48.475,770, 350, 470, 1, 26, 21, -6, -5, 0, 972, 939, 541,∜
2025-03-10 11:42:48.537,1035, 211, 300, -12, 13, -52, -6, -6, 0, 956, 904, 676,∜
2025-03-10 11:42:48.594,522, 675, 797, -20, 15, -27, -3, -5, -4, 945, 882, 625,∜
2025-03-10 11:42:50.084,713, 586, 377, -3, 0, 3, -7, -3, -3, 928, 778, 390,∫
2025-03-10 11:42:50.139,703, 585, 380, -4, 1, 3, -7, -3, -2, 931, 783, 385,∫
2025-03-10 11:42:50.193,736, 574, 402, -9, 3, 4, -7, -4, -4, 939, 832, 387,∫
2025-03-10 11:42:50.249,717, 567, 419, -5, 0, 0, -7, -4, -4, 942, 860, 393,∫
2025-03-10 11:42:50.303,726, 579, 398, -3, -2, 4, -6, -3, -2, 947, 881, 517,∫
2025-03-10 11:42:50.363,1367, 334, 226, -17, -1, -8, -7, -3, -2, 949, 907, 541,∫
2025-03-10 11:42:50.420,606, 586, 469, -21, 1, -5, -6, -3, -3, 953, 924, 385,∫
2025-03-10 11:42:50.473,752, 555, 421, 33, 4, -8, -4, -3, -3, 962, 919, 164,∫
2025-03-10 11:42:50.523,626, 386, 633, -24, 40, 35, -5, -3, -2, 965, 921, 61,∫
2025-03-10 11:42:50.584,662, 862, 529, -22, 22, 24, -6, -4, -1, 967, 915, 45,∫
2025-03-10 11:42:50.637,855, 493, 402, 36, 32, 0, -5, -2, -2, 947, 764, 125,∫
2025-03-10 11:42:50.694,637, 439, 208, -65, 95, -38, -6, -4, -4, 894, 684, 194,∫
2025-03-10 11:42:50.753,460, 684, 817, -9, -6, -5, -1, -4, -10, 895, 713, 108,∫
2025-03-10 11:42:51.073,567, 540, 315, -3, -29, 14, -4, -5, -3, 842, 676, 43,∮
2025-03-10 11:42:51.133,584, 534, 305, -2, -31, 16, -5, -4, -5, 846, 682, 58,∮
2025-03-10 11:42:51.186,721, 605, 274, -16, 4, 28, -4, -4, -2, 870, 705, 25,∮
2025-03-10 11:42:51.243,829, 792, 550, -7, -1, 12, -5, -3, -4, 896, 753, 353,∮
2025-03-10 11:42:51.293,667, 507, 521, 5, -6, 21, -5, -4, -3, 922, 808, 399,∮
2025-03-10 11:42:51.353,725, 495, 308, -3, -8, 18, -6, -4, -3, 934, 852, 493,∮
2025-03-10 11:42:51.403,739, 570, 408, -7, 4, 1, -7, -3, -2, 943, 890, 522,∮
2025-03-10 11:42:51.453,703, 556, 475, 1, -3, 3, -8, -3, -4, 951, 905, 540,∮
2025-03-10 11:42:51.518,748, 554, 375, 3, -3, 5, -8, -5, -4, 946, 907, 584,∮
2025-03-10 11:42:51.570,717, 564, 436, -7, -2, 2, -8, -5, -3, 951, 918, 600,∮
2025-03-10 11:42:51.623,699, 573, 418, -16, 0, -5, -7, -3, -3, 955, 927, 499,∮
2025-03-10 11:42:51.675,771, 525, 583, -8, -3, -15, -8, 0, -3, 956, 935, 234,∮
2025-03-10 11:42:51.736,599, 1148, 76, 14, 54, 44, -7, -4, -3, 969, 935, 127,∮
2025-03-10 11:42:51.793,671, 423, 643, 1, 21, 23, -7, -2, -3, 966, 941, 356,∮
2025-03-10 11:42:51.853,562, 694, 661, 14, -28, -25, -6, -5, -4, 955, 934, 635,∮
2025-03-10 11:42:51.903,807, 708, 493, 7, -20, 6, -7, -3, -3, 960, 940, 611,∮
2025-03-10 11:42:51.963,266, 459, 346, -9, 40, 44, -7, -4, -2, 968, 937, 177,∮
2025-03-10 11:42:52.018,750, 524, 167, -26, 35, 9, -7, -3, -3, 954, 886, 55,∮
2025-03-10 11:42:52.073,646, 588, 274, -56, 27, -49, -6, -3, -5, 938, 895, 210,∮
2025-03-10 11:42:52.136,549, 663, 542, 18, -63, 25, -5, -4, -6, 948, 922, 582,∮
2025-03-10 11:42:52.186,819, 624, 366, 16, 14, 20, -7, -4, -5, 966, 931, 491,∮
2025-03-10 11:42:52.243,643, 525, 595, -49, 59, 61, -7, -2, -3, 971, 925, 44,∮
2025-03-10 11:42:52.300,802, 399, 308, 11, 33, 5, -7, -1, -6, 956, 869, 41,∮
2025-03-10 11:42:52.353,723, 488, 135, -51, 85, -53, -5, -2, -7, 911, 729, 42,∮
2025-03-10 11:42:52.413,471, 612, 789, -9, 5, -21, -2, -3, -11, 909, 753, 22,∮
2025-03-10 11:42:52.468,572, 515, 710, 17, -29, 0, -3, -3, -13, 877, 713, 80,∮
2025-03-10 11:42:52.523,768, 513, 418, 2, -16, -2, -3, -1, -9, 875, 647, 52,∮
2025-03-10 11:42:53.333,708, 568, 432, 2, -5, 2, -8, -4, -4, 931, 836, 228,∂
2025-03-10 11:42:53.393,725, 573, 434, -1, -5, 2, -8, -4, -2, 934, 835, 224,∂
2025-03-10 11:42:53.451,737, 549, 421, -1, -3, 0, -7, -3, -3, 934, 842, 205,∂
2025-03-10 11:42:53.503,708, 557, 424, -2, 0, 1, -7, -3, -3, 937, 843, 213,∂
2025-03-10 11:42:53.562,710, 569, 450, -6, 1, -3, -6, -3, -1, 936, 845, 206,∂
2025-03-10 11:42:53.613,700, 561, 443, 1, -2, -2, -9, -4, -3, 937, 843, 88,∂
2025-03-10 11:42:53.668,751, 616, 397, -11, 5, -9, -7, -5, -3, 946, 875, 50,∂
2025-03-10 11:42:53.723,836, 618, 461, 17, -25, 6, -5, -3, -2, 960, 930, 459,∂
2025-03-10 11:42:53.783,625, 662, 527, 28, 3, 14, -6, -4, -2, 965, 926, 613,∂
2025-03-10 11:42:53.836,747, 440, 213, 3, 39, 22, -7, -4, 0, 962, 924, 287,∂
2025-03-10 11:42:53.886,985, 677, 307, -39, 25, 0, -7, -2, -1, 957, 897, 23,∂
2025-03-10 11:42:53.943,824, 654, 565, 7, -46, 0, -7, -3, -2, 960, 940, 333,∂
2025-03-10 11:42:54.001,604, 553, 467, -10, -1, 3, -6, -4, -2, 969, 952, 463,∂
2025-03-10 11:42:54.058,923, 659, 253, 2, 11, 4, -8, -4, -2, 957, 910, 568,∂
2025-03-10 11:42:54.114,477, 422, 748, -54, 80, -48, -4, -4, -6, 944, 825, 214,∂
2025-03-10 11:42:54.643,725, 559, 425, -2, 0, -1, -7, -4, -4, 937, 807, 473,∇
2025-03-10 11:42:54.701,720, 561, 420, -3, 1, -1, -6, -3, -3, 932, 806, 471,∇
2025-03-10 11:42:54.753,704, 551, 458, -3, 1, -4, -7, -3, -3, 930, 801, 389,∇
2025-03-10 11:42:54.803,721, 573, 438, 0, 0, -3, -6, -3, -4, 940, 806, 296,∇
2025-03-10 11:42:54.863,667, 538, 437, 3, -1, 2, -7, -4, -4, 935, 810, 206,∇
2025-03-10 11:42:54.918,742, 553, 483, 21, -4, -6, -7, -3, -3, 956, 880, 193,∇
2025-03-10 11:42:54.973,738, 474, 353, -4, -13, 35, -7, -3, -2, 954, 905, 666,∇
2025-03-10 11:42:55.036,623, 636, 724, 37, -25, -5, -7, -4, 0, 959, 903, 656,∇
2025-03-10 11:42:55.086,640, 583, 39, -21, 37, 25, -9, -2, 0, 965, 897, 29,∇
2025-03-10 11:42:55.143,564, 140, 973, -21, -2, -31, -6, -4, -2, 948, 820, 31,∇
2025-03-10 11:42:55.201,454, 621, 864, -13, 3, -19, -5, -1, -4, 934, 833, 36,∇
2025-03-10 11:42:55.253,969, 392, 465, -9, -16, -7, -5, -3, -4, 953, 896, 55,∇
2025-03-10 11:42:55.313,934, 1015, 448, -82, 36, 71, -6, -2, -3, 979, 934, 85,∇
2025-03-10 11:42:55.373,689, 426, 581, 16, 10, 16, -7, -2, -5, 964, 874, 345,∇
2025-03-10 11:42:55.424,710, 391, 410, -54, 67, -52, -5, -2, -6, 913, 644, 90,∇
2025-03-10 11:42:55.483,541, 561, 704, -6, -18, -8, -4, 0, -10, 896, 576, 42,∇
2025-03-10 11:42:56.383,715, 516, 467, 0, -1, -1, -7, -3, -3, 916, 711, 198,∆
2025-03-10 11:42:56.436,718, 531, 481, 1, -2, -1, -7, -2, -5, 917, 711, 206,∆
2025-03-10 11:42:56.494,733, 516, 451, -2, -5, 1, -8, -2, -5, 928, 746, 276,∆
2025-03-10 11:42:56.552,747, 535, 416, -1, -5, -3, -7, -2, -6, 929, 766, 428,∆
2025-03-10 11:42:56.610,701, 562, 453, 12, -10, 1, -8, -2, -5, 943, 823, 511,∆
2025-03-10 11:42:56.662,739, 547, 440, 2, -9, 0, -7, -2, -5, 945, 865, 601,∆
2025-03-10 11:42:56.716,726, 470, 521, -6, -4, -9, -8, -1, -2, 952, 905, 574,∆
2025-03-10 11:42:56.773,664, 708, 530, 41, 5, -5, -7, -3, -2, 963, 905, 316,∆
2025-03-10 11:42:56.823,986, 679, -121, -14, 39, 18, -5, -3, -1, 954, 849, 42,∆
2025-03-10 11:42:56.884,881, 190, 744, -11, -53, -63, -7, -4, -3, 937, 844, 357,∆
2025-03-10 11:42:56.949,754, 316, 209, -48, -22, -24, -7, -4, -3, 952, 909, 537,∆
2025-03-10 11:42:57.003,750, 1050, -18, -29, 22, 47, -8, -5, 0, 966, 920, 335,∆
2025-03-10 11:42:57.053,678, 174, 590, 15, 16, 15, -9, -2, -3, 964, 920, 288,∆
2025-03-10 11:42:57.118,702, 568, 224, -12, 31, -46, -7, -3, -2, 946, 824, 385,∆
2025-03-10 11:42:57.174,703, 622, 848, 27, -41, 20, -6, -3, -3, 949, 751, 17,∆
2025-03-10 11:42:57.233,943, 777, 445, 13, -16, 8, -6, -5, -4, 958, 918, 45,∆
2025-03-10 11:42:57.285,783, 374, 522, -2, -9, 19, -8, -4, -2, 963, 944, 224,∆
2025-03-10 11:42:57.343,711, 623, 414, -1, 1, 20, -9, -2, -3, 964, 929, 405,∆
2025-03-10 11:42:57.400,918, 275, 163, -5, 41, -39, -9, -3, -2, 952, 887, 557,∆
2025-03-10 11:42:57.453,578, 591, 808, -23, 52, -44, -5, -3, -8, 932, 775, 392,∆
2025-03-10 11:42:57.513,615, 532, 578, 13, -18, -6, -3, -4, -8, 917, 758, 384,∆
2025-03-10 11:42:57.568,733, 546, 416, 0, -16, -1, -5, -4, -6, 900, 688, 326,∆
2025-03-10 11:42:58.493,628, 527, 437, -16, 15, 18, -9, -5, -2, 906, 788, 511,π
2025-03-10 11:42:58.543,677, 526, 480, -8, 9, 16, -8, -4, 0, 911, 801, 545,π
2025-03-10 11:42:58.601,664, 580, 451, 5, -5, 18, -8, -4, 0, 929, 853, 608,π
2025-03-10 11:42:58.654,817, 581, 285, -3, -2, 3, -8, -4, -1, 934, 873, 647,π
2025-03-10 11:42:58.705,723, 569, 429, 0, 2, -1, -9, -4, -2, 947, 894, 648,π
2025-03-10 11:42:58.763,747, 559, 380, 0, 2, -3, -7, -4, -2, 941, 888, 611,π
2025-03-10 11:42:58.820,737, 583, 432, -3, 4, -3, -8, -3, -1, 943, 867, 560,π
2025-03-10 11:42:58.873,695, 528, 375, -9, 8, -6, -6, -2, -1, 945, 842, 494,π
2025-03-10 11:42:58.933,720, 545, 408, -6, 6, -10, -6, -5, -2, 948, 842, 331,π
2025-03-10 11:42:58.985,725, 589, 380, 7, 0, -6, -8, -4, -3, 963, 906, 194,π
2025-03-10 11:42:59.036,731, 524, 79, -7, -18, 45, -7, -3, 0, 961, 946, 666,π
2025-03-10 11:42:59.093,428, 420, 307, 10, -4, 9, -8, -4, 0, 978, 953, 695,π
2025-03-10 11:42:59.150,663, 536, 208, 2, 18, -9, -10, -6, 0, 956, 913, 715,π
2025-03-10 11:42:59.203,734, 724, 745, 10, 25, -20, -7, -6, -4, 944, 873, 602,π
2025-03-10 11:42:59.264,712, 636, 497, -25, 7, 13, -7, -4, -2, 970, 923, 620,π
2025-03-10 11:42:59.319,637, 381, 518, -42, 29, 21, -6, -4, -2, 962, 908, 163,π
2025-03-10 11:42:59.374,952, 351, 477, 8, 0, -6, -5, -4, -2, 943, 834, 182,π
2025-03-10 11:42:59.432,410, 555, 598, -14, 9, -12, -6, -4, -3, 950, 903, 638,π
2025-03-10 11:42:59.485,604, 770, 324, 31, -16, -8, -7, -5, -3, 959, 933, 692,π
2025-03-10 11:42:59.534,773, 289, 810, 20, -1, 3, -9, -3, -1, 963, 926, 556,π
2025-03-10 11:42:59.599,531, 296, 520, -4, 19, 28, -7, -5, -1, 968, 934, 394,π
2025-03-10 11:42:59.653,473, 404, 488, -14, -5, 14, -10, -2, 0, 965, 952, 436,π
2025-03-10 11:42:59.711,781, 466, 389, 10, 5, -2, -8, -3, -2, 972, 956, 508,π
2025-03-10 11:42:59.767,840, 421, 364, 8, 7, -5, -10, -5, -3, 962, 940, 676,π
2025-03-10 11:42:59.823,674, 509, 497, -42, 71, -37, -7, -4, -6, 956, 910, 577,π
2025-03-10 11:42:59.882,572, 531, 712, -3, 4, -12, -7, -3, -7, 942, 776, 382,π
2025-03-10 11:42:59.933,696, 507, 490, 5, -15, -3, -7, -5, -6, 941, 738, 364,π
2025-03-10 11:42:59.984,706, 503, 465, -6, -4, -5, -6, -5, -5, 930, 743, 380,π
2025-03-10 11:43:01.310,744, 552, 379, -8, 2, -1, -8, -3, -3, 923, 696, 283,θ
2025-03-10 11:43:01.365,748, 548, 388, -8, 4, -2, -6, -4, -2, 917, 703, 311,θ
2025-03-10 11:43:01.419,699, 537, 497, -4, 1, 3, -8, -2, -4, 923, 741, 388,θ
2025-03-10 11:43:01.473,735, 539, 428, 4, -6, 2, -8, -3, -3, 934, 764, 487,θ
2025-03-10 11:43:01.523,735, 544, 401, -2, -1, 0, -9, -5, -3, 932, 780, 506,θ
2025-03-10 11:43:01.583,732, 549, 423, -4, -1, 2, -7, -3, -2, 938, 798, 502,θ
2025-03-10 11:43:01.634,706, 561, 416, -4, -3, 2, -8, -3, -4, 939, 831, 516,θ
2025-03-10 11:43:01.694,773, 504, 465, 7, -3, -17, -8, -2, -2, 944, 889, 509,θ
2025-03-10 11:43:01.750,883, 637, 287, 77, 40, 11, -6, -4, -1, 967, 876, 214,θ
2025-03-10 11:43:01.804,705, 801, 41, -35, 54, 53, -7, -4, -1, 957, 892, 175,θ
2025-03-10 11:43:01.866,609, 316, 457, -5, -37, -67, -7, -6, -3, 949, 887, 642,θ
2025-03-10 11:43:01.917,747, 441, 589, 29, -23, -17, -7, -4, -2, 949, 917, 696,θ
2025-03-10 11:43:01.980,607, 914, 168, -14, 18, 24, -8, -4, -2, 960, 920, 552,θ
2025-03-10 11:43:02.036,686, 718, 105, -26, 34, 20, -8, -2, 0, 956, 878, 176,θ
2025-03-10 11:43:02.093,934, 249, 421, -24, 7, -62, -7, -2, -4, 933, 739, 22,θ
2025-03-10 11:43:02.150,2212, -493, 92, -6, -32, -25, -6, -2, -3, 952, 890, 271,θ
2025-03-10 11:43:02.208,580, 357, 182, -22, -10, 19, -8, -3, -1, 962, 937, 574,θ
2025-03-10 11:43:02.259,766, 540, 545, 8, 8, 1, -7, -4, -3, 950, 888, 661,θ
2025-03-10 11:43:02.323,749, 413, 372, -69, 85, -50, -6, -4, -6, 916, 724, 382,θ
2025-03-10 11:43:02.716,700, 539, 463, 0, -3, 1, -5, -2, -3, 903, 759, 400,λ
2025-03-10 11:43:02.774,697, 537, 458, 0, -3, 1, -6, -6, -5, 913, 763, 399,λ
2025-03-10 11:43:02.831,710, 549, 453, -2, -3, 0, -6, -3, -5, 903, 768, 375,λ
2025-03-10 11:43:02.883,698, 552, 468, -2, 0, -1, -5, -4, -4, 906, 773, 283,λ
2025-03-10 11:43:02.933,684, 530, 484, -4, -8, 3, -7, -2, -5, 910, 757, 188,λ
