Timestamp,Acc_X,Acc_Y,Acc_Z,Gyro_X,Gyro_Y,Gyro_Z,Mag_X,Mag_Y,Mag_Z,Force1,Force2,Force3,Letter
2025-03-10 13:54:03.166,632, 605, 482, -1, 2, -3, 0, 4, 2, 879, 656, 548,noise
2025-03-10 13:54:03.221,659, 614, 459, -4, 4, -3, 1, 3, 1, 880, 655, 548,noise
2025-03-10 13:54:03.266,648, 610, 515, -3, 4, -6, 1, 3, 2, 880, 649, 532,noise
2025-03-10 13:54:03.322,637, 606, 536, 2, -2, -13, 2, 2, 4, 871, 657, 514,noise
2025-03-10 13:54:03.376,617, 644, 526, 1, 4, -15, 3, 2, 2, 859, 653, 460,noise
2025-03-10 13:54:03.427,640, 684, 460, -1, 0, -4, 3, 2, 1, 847, 645, 444,noise
2025-03-10 13:54:03.475,640, 663, 547, 1, -1, -6, 2, 3, 2, 837, 616, 421,noise
2025-03-10 13:54:03.536,644, 601, 453, -15, -5, -10, 0, 2, 2, 830, 637, 469,noise
2025-03-10 13:54:03.589,496, 595, 417, -22, 24, -21, 0, -1, 1, 844, 643, 501,noise
2025-03-10 13:54:03.646,344, 665, 681, -14, 16, 3, 1, 2, -1, 835, 644, 481,noise
2025-03-10 13:54:03.700,495, 661, 619, 11, -24, 28, 1, 0, 0, 840, 654, 495,noise
2025-03-10 13:54:03.752,634, 684, 473, 27, -40, 33, 1, 3, 4, 851, 662, 516,noise
2025-03-10 13:54:03.807,770, 634, 346, 15, -20, 19, -2, 2, 7, 872, 698, 557,noise
2025-03-10 13:54:03.862,690, 557, 394, -21, 14, 20, -2, 3, 7, 895, 714, 609,noise
2025-03-10 13:54:03.917,612, 510, 419, -17, 8, 17, 0, 6, 7, 905, 749, 633,noise
2025-03-10 13:54:03.970,924, 697, 698, 14, -9, 0, 0, 5, 5, 914, 799, 663,noise
2025-03-10 13:54:04.022,526, 511, 463, -13, 9, -7, -1, 5, 5, 912, 803, 680,noise
2025-03-10 13:54:04.076,686, 644, 495, -7, 5, -7, -1, 4, 6, 911, 800, 686,noise
2025-03-10 13:54:04.127,661, 584, 493, 4, -2, -5, 0, 4, 6, 912, 786, 683,noise
2025-03-10 13:54:04.178,672, 597, 466, 0, 3, -6, 0, 4, 6, 904, 770, 671,noise
2025-03-10 13:54:04.229,640, 615, 487, -5, 8, -8, 1, 5, 3, 903, 748, 663,noise
2025-03-10 13:54:04.281,638, 593, 517, -6, 5, -6, 0, 4, 4, 901, 736, 659,noise
2025-03-10 13:54:04.332,636, 617, 523, -4, -3, -3, -1, 5, 4, 896, 735, 656,noise
2025-03-10 13:54:04.388,624, 614, 513, -3, -7, 3, 0, 5, 5, 899, 739, 658,noise
2025-03-10 13:54:04.441,644, 603, 476, -1, -5, 5, 0, 6, 5, 914, 756, 665,noise
2025-03-10 13:54:04.494,664, 594, 477, -3, -1, 1, 0, 3, 4, 908, 756, 666,noise
2025-03-10 13:54:04.542,651, 594, 505, 0, 0, -2, 0, 4, 3, 901, 753, 663,noise
2025-03-10 13:54:04.596,651, 597, 489, -1, -2, 0, -1, 5, 5, 908, 756, 666,noise
2025-03-10 13:54:04.650,650, 591, 484, -2, -1, -2, 0, 6, 5, 906, 756, 666,noise
2025-03-10 13:54:04.696,661, 599, 504, -3, -1, -2, 0, 5, 6, 902, 755, 663,noise
2025-03-10 13:54:04.755,668, 581, 486, -4, -3, -8, 0, 5, 5, 912, 764, 667,noise
2025-03-10 13:54:04.809,643, 590, 502, -2, -3, -12, 1, 5, 7, 902, 765, 664,noise
2025-03-10 13:54:04.862,612, 613, 504, -7, -3, -8, 1, 4, 5, 912, 774, 664,noise
2025-03-10 13:54:04.916,603, 616, 490, -4, -2, -3, 0, 5, 6, 910, 778, 666,noise
2025-03-10 13:54:04.966,628, 618, 498, 1, 0, 0, 0, 3, 5, 910, 777, 667,noise
2025-03-10 13:54:05.015,642, 606, 498, 0, 2, 2, 0, 3, 5, 913, 773, 666,noise
2025-03-10 13:54:05.065,649, 614, 509, 0, 1, 2, -1, 3, 4, 917, 765, 664,noise
2025-03-10 13:54:05.116,644, 600, 490, -1, 2, 0, 1, 4, 6, 902, 759, 663,noise
2025-03-10 13:54:17.736,609, 408, 374, 3, 15, 16, -5, 9, 12, 935, 759, 806,A
2025-03-10 13:54:17.801,593, 426, 353, 1, 15, 16, -3, 9, 12, 935, 765, 809,A
2025-03-10 13:54:17.860,574, 397, 494, 5, -1, 23, -3, 10, 12, 946, 817, 818,A
2025-03-10 13:54:17.910,590, 815, -259, -27, 2, -13, -3, 9, 13, 940, 840, 818,A
2025-03-10 13:54:17.965,800, 593, 658, 4, -1, -19, -4, 8, 12, 941, 855, 826,A
2025-03-10 13:54:18.018,629, 618, 567, 8, -3, 5, -3, 9, 11, 945, 862, 821,A
2025-03-10 13:54:18.075,736, 575, 437, 14, -25, 13, -5, 7, 11, 950, 877, 825,A
2025-03-10 13:54:18.130,697, 536, 600, 1, -35, 18, -3, 8, 13, 947, 900, 835,A
2025-03-10 13:54:18.187,731, 702, 250, -2, -19, -4, -5, 11, 16, 959, 913, 799,A
2025-03-10 13:54:18.241,1010, 848, 15, 2, 41, 18, -4, 11, 17, 963, 873, 698,A
2025-03-10 13:54:18.301,905, 513, 808, -48, -5, -1, -4, 9, 14, 949, 851, 716,A
2025-03-10 13:54:18.356,714, 171, 617, 3, -12, -17, -5, 10, 15, 966, 916, 769,A
2025-03-10 13:54:18.411,654, 788, 10, 1, 36, 35, -5, 9, 15, 963, 916, 741,A
2025-03-10 13:54:18.465,702, 402, 535, -1, 15, -1, -5, 11, 13, 952, 858, 662,A
2025-03-10 13:54:18.520,3179, -46, 6, -15, -23, -29, -4, 10, 14, 965, 868, 646,A
2025-03-10 13:54:18.576,862, 708, 181, 20, 4, 22, -4, 9, 14, 968, 932, 773,A
2025-03-10 13:54:18.637,973, 217, 100, -12, 43, -22, -3, 10, 16, 954, 921, 759,A
2025-03-10 13:54:18.687,586, 593, 600, -47, 25, -40, -3, 9, 11, 942, 848, 728,A
2025-03-10 13:54:18.745,563, 532, 621, 2, -26, 4, -4, 8, 11, 939, 845, 742,A
2025-03-10 13:54:18.799,787, 570, 323, 13, -19, 7, -5, 8, 13, 932, 829, 750,A
2025-03-10 13:54:18.856,721, 535, 447, -13, 8, -3, -5, 10, 13, 931, 817, 739,A
2025-03-10 13:54:18.913,667, 560, 498, -9, -1, -3, -3, 11, 12, 936, 803, 718,A
2025-03-10 13:54:18.969,708, 562, 419, -1, -4, 2, -4, 9, 15, 937, 804, 724,A
2025-03-10 13:54:19.528,694, 546, 458, 1, -4, 1, -3, 9, 15, 941, 831, 750,B
2025-03-10 13:54:19.584,700, 559, 457, 1, -5, 2, -3, 10, 14, 937, 832, 750,B
2025-03-10 13:54:19.637,734, 546, 431, 1, -6, 3, -6, 8, 15, 940, 841, 756,B
2025-03-10 13:54:19.689,730, 529, 425, 1, 0, 2, -6, 8, 15, 937, 846, 746,B
2025-03-10 13:54:19.741,709, 566, 428, -4, -2, 1, -5, 9, 15, 939, 854, 753,B
2025-03-10 13:54:19.801,796, 355, 212, -19, -10, -11, -5, 10, 16, 944, 875, 764,B
2025-03-10 13:54:19.856,752, 415, 586, 9, -5, -8, -5, 9, 15, 957, 904, 767,B
2025-03-10 13:54:19.909,739, 829, 670, -23, 28, 22, -6, 9, 15, 964, 897, 621,B
2025-03-10 13:54:19.968,746, 501, 587, -11, -1, 2, -4, 9, 16, 954, 886, 664,B
2025-03-10 13:54:20.026,757, 398, 720, 0, -24, -21, -5, 10, 17, 969, 927, 789,B
2025-03-10 13:54:20.078,656, 498, 271, 28, -12, -6, -4, 8, 16, 975, 948, 816,B
2025-03-10 13:54:20.136,660, 458, 422, -3, 19, 17, -5, 9, 17, 963, 936, 778,B
2025-03-10 13:54:20.189,875, 442, 378, -13, 25, 22, -3, 8, 16, 967, 939, 715,B
2025-03-10 13:54:20.242,713, 564, 478, 2, 6, 3, -3, 9, 15, 967, 931, 641,B
2025-03-10 13:54:20.296,834, 531, 360, -2, 15, -6, -3, 9, 17, 950, 871, 636,B
2025-03-10 13:54:20.358,736, 490, 362, -40, 56, -37, -3, 8, 15, 950, 843, 673,B
2025-03-10 13:54:20.415,407, 588, 755, -11, -12, -16, -3, 8, 13, 944, 841, 666,B
2025-03-10 13:54:20.468,716, 542, 413, 30, -43, 23, -3, 7, 13, 935, 841, 716,B
2025-03-10 13:54:20.525,840, 538, 272, -2, -5, 2, -5, 9, 13, 930, 815, 696,B
2025-03-10 13:54:20.576,747, 534, 405, -16, 18, -7, -6, 8, 16, 939, 818, 677,B
2025-03-10 13:54:20.910,732, 554, 410, 3, -8, 5, -5, 9, 16, 937, 824, 693,C
2025-03-10 13:54:20.961,736, 549, 410, 3, -7, 5, -4, 7, 15, 933, 825, 693,C
2025-03-10 13:54:21.016,729, 554, 402, 0, -6, 3, -5, 8, 15, 932, 833, 695,C
2025-03-10 13:54:21.070,741, 562, 401, 0, -5, 3, -5, 9, 15, 938, 842, 694,C
2025-03-10 13:54:21.122,727, 553, 414, -3, -4, 3, -5, 7, 16, 942, 852, 694,C
2025-03-10 13:54:21.176,733, 650, 370, -4, -2, -3, -5, 9, 16, 944, 872, 687,C
2025-03-10 13:54:21.237,692, 519, 532, -14, -10, -11, -5, 9, 16, 950, 888, 578,C
2025-03-10 13:54:21.290,923, 718, 323, 58, 11, 4, -4, 8, 17, 958, 866, 273,C
2025-03-10 13:54:21.339,1056, 772, 224, 2, 50, 56, -4, 8, 16, 961, 918, 363,C
2025-03-10 13:54:21.402,921, 296, 21, -2, 45, -57, -4, 11, 16, 952, 923, 706,C
2025-03-10 13:54:21.455,530, 634, 622, -49, 21, -38, -5, 8, 12, 935, 884, 731,C
2025-03-10 13:54:21.516,567, 589, 592, -5, -30, 7, -3, 8, 11, 932, 843, 708,C
2025-03-10 13:54:21.878,690, 546, 453, 6, -10, 7, -4, 9, 14, 940, 840, 680,D
2025-03-10 13:54:21.935,695, 545, 448, 8, -12, 8, -4, 11, 15, 938, 836, 682,D
2025-03-10 13:54:21.988,755, 540, 355, -4, -8, -4, -5, 10, 15, 937, 849, 703,D
2025-03-10 13:54:22.048,738, 531, 449, -9, 0, -4, -4, 9, 15, 946, 872, 705,D
2025-03-10 13:54:22.100,704, 449, 526, 20, -6, -8, -5, 9, 16, 954, 886, 641,D
2025-03-10 13:54:22.156,547, 704, 51, 3, 41, 24, -4, 10, 16, 960, 867, 24,D
2025-03-10 13:54:22.209,606, 275, 874, -11, -17, -22, -5, 10, 14, 952, 856, 456,D
2025-03-10 13:54:22.274,804, 593, 693, 28, -27, -11, -6, 10, 15, 949, 911, 754,D
2025-03-10 13:54:22.327,653, 606, 500, 23, -10, -1, -3, 8, 15, 965, 924, 729,D
2025-03-10 13:54:22.385,745, 667, 256, -34, 37, 28, -4, 9, 16, 959, 855, 192,D
2025-03-10 13:54:22.439,1017, 355, 267, -15, 29, -26, -5, 10, 14, 941, 786, 464,D
2025-03-10 13:54:22.500,578, 633, 648, -34, 21, -34, -5, 9, 12, 941, 798, 578,D
2025-03-10 13:54:22.796,726, 544, 436, 0, -11, 4, -3, 8, 14, 933, 831, 684,E
2025-03-10 13:54:22.852,736, 537, 430, 0, -11, 3, -4, 9, 15, 935, 833, 685,E
2025-03-10 13:54:22.905,728, 543, 440, 0, -12, 1, -4, 9, 14, 931, 842, 702,E
2025-03-10 13:54:22.960,764, 492, 415, -1, -2, -8, -4, 10, 16, 944, 861, 669,E
2025-03-10 13:54:23.015,693, 664, 470, 42, 20, 22, -5, 8, 16, 953, 859, 430,E
2025-03-10 13:54:23.067,782, 481, 134, -1, 26, 25, -5, 9, 15, 953, 834, 44,E
2025-03-10 13:54:23.126,624, 36, 594, -3, -56, -62, -4, 11, 14, 943, 842, 481,E
2025-03-10 13:54:23.183,811, 507, 432, 51, -22, -15, -5, 9, 15, 949, 915, 651,E
2025-03-10 13:54:23.237,776, 712, 278, 14, 11, 16, -5, 8, 15, 956, 934, 777,E
2025-03-10 13:54:23.291,684, 364, 377, -6, 24, -11, -4, 9, 17, 949, 909, 746,E
2025-03-10 13:54:23.350,814, 831, 273, 12, -4, -6, -3, 9, 15, 951, 889, 646,E
2025-03-10 13:54:23.404,842, 610, 397, 4, 11, 29, -5, 8, 15, 952, 929, 714,E
2025-03-10 13:54:23.461,652, 458, 367, -24, 26, 10, -5, 8, 15, 950, 886, 575,E
2025-03-10 13:54:23.516,986, 130, 329, 33, -7, -21, -3, 10, 15, 951, 824, 261,E
2025-03-10 13:54:23.571,588, 438, 234, 13, 4, 23, -4, 9, 14, 962, 930, 496,E
2025-03-10 13:54:23.625,979, 253, 193, -20, 21, -23, -3, 10, 14, 958, 915, 569,E
2025-03-10 13:54:23.687,594, 580, 618, -76, 47, -55, -3, 10, 11, 924, 761, 350,E
2025-03-10 13:54:23.967,720, 551, 429, -6, -3, 1, -5, 9, 13, 933, 817, 655,F
2025-03-10 13:54:24.025,717, 551, 449, -4, -3, 2, -5, 11, 14, 935, 819, 654,F
2025-03-10 13:54:24.080,735, 539, 416, -5, -11, -1, -3, 8, 15, 934, 827, 666,F
2025-03-10 13:54:24.135,731, 522, 472, -7, -5, -9, -4, 9, 15, 940, 855, 638,F
2025-03-10 13:54:24.185,619, 484, 476, 42, 13, 11, -4, 9, 17, 951, 851, 462,F
2025-03-10 13:54:24.246,875, 610, 141, -24, 27, 27, -3, 9, 15, 959, 816, 29,F
2025-03-10 13:54:24.306,701, 44, 704, -4, -64, -58, -3, 12, 15, 947, 840, 443,F
2025-03-10 13:54:24.358,992, 261, 388, 75, -26, -30, -5, 10, 19, 954, 911, 607,F
2025-03-10 13:54:24.415,654, 436, 94, 12, 19, 15, -5, 8, 16, 953, 938, 775,F
2025-03-10 13:54:24.471,734, 309, 274, -23, 38, -11, -6, 9, 16, 946, 904, 725,F
2025-03-10 13:54:24.535,876, -884, -135, -91, -21, -27, -3, 9, 17, 955, 875, 521,F
2025-03-10 13:54:24.587,644, 466, 311, -2, 18, 33, -5, 8, 17, 959, 934, 652,F
2025-03-10 13:54:24.646,965, 332, 0, -12, 48, -39, -5, 10, 16, 944, 902, 686,F
2025-03-10 13:54:24.956,752, 576, 393, 0, -5, 6, -4, 9, 16, 937, 834, 662,G
2025-03-10 13:54:25.010,733, 578, 403, -2, -5, 6, -4, 9, 15, 930, 835, 666,G
2025-03-10 13:54:25.059,724, 541, 448, 2, -7, 5, -4, 9, 15, 932, 851, 678,G
2025-03-10 13:54:25.120,732, 581, 372, 0, -10, 4, -5, 10, 15, 934, 864, 690,G
2025-03-10 13:54:25.177,689, 523, 480, -8, -8, -12, -6, 11, 16, 941, 889, 613,G
2025-03-10 13:54:25.232,739, 654, 338, 33, 19, 2, -5, 9, 16, 948, 869, 423,G
2025-03-10 13:54:25.284,875, 914, 26, -12, 45, 51, -4, 9, 15, 949, 878, 39,G
2025-03-10 13:54:25.342,578, 420, 636, -3, -19, -5, -4, 10, 15, 949, 902, 369,G
2025-03-10 13:54:25.400,703, 469, 456, 19, -16, -14, -4, 9, 16, 948, 908, 528,G
2025-03-10 13:54:25.455,805, 523, 385, -21, 28, 29, -6, 10, 14, 950, 892, 277,G
2025-03-10 13:54:25.507,492, 427, 526, -4, -12, -43, -4, 10, 14, 944, 850, 365,G
2025-03-10 13:54:25.571,796, 448, 489, 65, -8, -10, -5, 10, 15, 950, 912, 457,G
2025-03-10 13:54:25.621,796, 757, 514, 3, 22, 34, -4, 9, 16, 953, 928, 601,G
2025-03-10 13:54:25.683,652, 485, 351, -49, 73, -61, -4, 10, 14, 933, 884, 617,G
2025-03-10 13:54:25.976,741, 548, 380, -7, -1, -3, -4, 9, 15, 940, 826, 613,H
2025-03-10 13:54:26.036,748, 548, 411, -8, -1, -4, -5, 10, 16, 941, 825, 614,H
2025-03-10 13:54:26.086,668, 578, 511, -3, -20, 0, -3, 8, 15, 934, 840, 654,H
2025-03-10 13:54:26.150,812, 500, 389, -2, -5, -9, -5, 9, 15, 942, 874, 635,H
2025-03-10 13:54:26.203,1140, 659, 396, 33, 34, 27, -5, 8, 17, 950, 857, 449,H
2025-03-10 13:54:26.259,764, 445, 282, -16, 21, 24, -5, 9, 15, 952, 831, 252,H
2025-03-10 13:54:26.317,626, 658, 494, 26, -26, -28, -2, 9, 15, 934, 866, 686,H
2025-03-10 13:54:26.369,825, 757, 99, 22, 7, 23, -5, 7, 15, 953, 929, 779,H
2025-03-10 13:54:26.426,741, 304, 463, -18, -6, -4, -5, 8, 16, 943, 924, 788,H
2025-03-10 13:54:26.476,512, 629, 749, 8, -46, 14, -4, 9, 16, 950, 919, 788,H
2025-03-10 13:54:26.535,641, 615, 191, 16, 25, 22, -5, 9, 16, 963, 918, 648,H
2025-03-10 13:54:26.587,707, 475, 402, -5, 27, 15, -4, 8, 16, 945, 880, 482,H
2025-03-10 13:54:26.649,690, 570, 274, -40, 33, -53, -4, 8, 13, 918, 854, 713,H
2025-03-10 13:54:26.918,729, 539, 417, -10, 3, -2, -3, 8, 16, 912, 810, 581,I
2025-03-10 13:54:26.972,720, 550, 430, -9, 3, -2, -5, 8, 13, 913, 811, 573,I
2025-03-10 13:54:27.026,679, 544, 451, -8, -6, -4, -4, 8, 15, 929, 819, 542,I
2025-03-10 13:54:27.080,621, 546, 526, 0, -22, 2, -5, 10, 16, 931, 812, 489,I
2025-03-10 13:54:27.137,884, 582, 360, 83, -6, -5, -4, 8, 15, 947, 892, 644,I
2025-03-10 13:54:27.187,617, 289, 305, 8, 9, 15, -5, 7, 15, 950, 932, 749,I
2025-03-10 13:54:27.242,672, 457, 436, -3, 6, 5, -4, 8, 16, 944, 908, 752,I
2025-03-10 13:54:27.299,2154, 171, 309, -9, -11, -19, -4, 9, 16, 951, 894, 674,I
2025-03-10 13:54:27.356,927, 646, 158, 18, 44, 38, -5, 10, 16, 958, 907, 462,I
2025-03-10 13:54:27.406,693, 411, 411, -14, 25, -4, -4, 11, 16, 950, 835, 419,I
2025-03-10 13:54:27.469,992, 170, 154, 31, -11, -24, -5, 10, 15, 955, 866, 496,I
2025-03-10 13:54:27.526,682, 776, 389, -9, 11, 32, -3, 9, 14, 964, 936, 628,I
2025-03-10 13:54:27.582,961, 418, -95, -30, 52, -63, -4, 9, 14, 936, 885, 652,I
2025-03-10 13:54:27.852,711, 575, 434, -4, -4, 2, -3, 8, 15, 926, 835, 675,J
2025-03-10 13:54:27.906,707, 584, 423, -5, -5, 2, -3, 7, 14, 934, 840, 674,J
2025-03-10 13:54:27.959,734, 541, 397, -2, -10, 1, -4, 8, 17, 932, 837, 679,J
2025-03-10 13:54:28.017,668, 546, 501, -10, -14, -4, -5, 9, 16, 934, 837, 612,J
2025-03-10 13:54:28.072,918, 619, 465, 51, -9, 6, -3, 8, 15, 949, 901, 635,J
2025-03-10 13:54:28.126,597, 446, 554, 8, 13, 22, -5, 11, 15, 953, 934, 735,J
2025-03-10 13:54:28.182,779, 276, 294, -1, 20, -43, -6, 8, 16, 947, 901, 765,J
2025-03-10 13:54:28.239,1602, 259, 738, -24, -16, -2, -4, 9, 17, 952, 891, 694,J
2025-03-10 13:54:28.298,722, 354, 298, -24, 34, 31, -5, 10, 16, 957, 903, 270,J
2025-03-10 13:54:28.355,874, 209, 817, -11, -3, -53, -5, 11, 13, 938, 808, 348,J
2025-03-10 13:54:28.411,657, 511, 544, -15, 20, -27, -4, 10, 14, 923, 742, 484,J
2025-03-10 13:54:28.472,594, 558, 445, 24, -25, 13, -3, 10, 14, 927, 814, 586,J
2025-03-10 13:54:28.754,744, 560, 414, -4, -9, -2, -4, 8, 15, 927, 748, 517,K
2025-03-10 13:54:28.807,746, 565, 400, -5, -8, -1, -5, 9, 17, 924, 754, 512,K
2025-03-10 13:54:28.865,716, 530, 426, -23, -4, 4, -5, 10, 16, 929, 794, 413,K
2025-03-10 13:54:28.919,732, 541, 481, -8, -6, -4, -5, 10, 15, 947, 828, 214,K
2025-03-10 13:54:28.975,800, 628, 404, 30, 21, 19, -5, 9, 15, 957, 810, 15,K
2025-03-10 13:54:29.029,874, 448, 281, -10, 11, 9, -5, 10, 14, 954, 812, 30,K
2025-03-10 13:54:29.085,846, 383, 678, 16, -48, 15, -5, 10, 15, 964, 944, 344,K
2025-03-10 13:54:29.135,701, 510, 575, 34, -9, -5, -4, 10, 15, 956, 930, 653,K
2025-03-10 13:54:29.198,661, 549, 547, -19, 9, -17, -5, 9, 15, 938, 847, 417,K
2025-03-10 13:54:29.251,998, 632, 175, 14, 10, 34, -4, 9, 15, 961, 921, 284,K
2025-03-10 13:54:29.309,677, 520, 541, -6, 20, 35, -5, 10, 14, 960, 917, 179,K
2025-03-10 13:54:29.368,563, 427, 564, -39, 47, -68, -4, 11, 12, 930, 806, 273,K
2025-03-10 13:54:29.653,688, 548, 493, -6, -7, 1, -3, 10, 14, 917, 736, 272,L
2025-03-10 13:54:29.706,687, 550, 498, -4, -9, 3, -4, 10, 14, 918, 734, 274,L
2025-03-10 13:54:29.766,746, 544, 387, -3, -12, 1, -4, 10, 16, 915, 771, 330,L
2025-03-10 13:54:29.817,687, 525, 476, -3, -15, 1, -4, 9, 16, 923, 806, 366,L
2025-03-10 13:54:29.876,747, 575, 485, -5, -5, -6, -5, 8, 15, 939, 831, 222,L
2025-03-10 13:54:29.925,801, 598, 489, 10, 20, 8, -5, 10, 16, 956, 825, 27,L
2025-03-10 13:54:29.986,911, 681, 132, -30, 17, 23, -5, 9, 16, 965, 774, 22,L
2025-03-10 13:54:30.039,799, 345, 475, 28, 3, 32, -5, 10, 15, 961, 926, 44,L
2025-03-10 13:54:30.090,812, 448, 454, 7, 2, -9, -4, 10, 14, 964, 912, 458,L
2025-03-10 13:54:30.150,617, 543, 614, -54, 38, -50, -4, 10, 13, 925, 805, 429,L
2025-03-10 13:54:30.468,776, 548, 389, 4, -8, 4, -6, 8, 17, 915, 778, 451,M
2025-03-10 13:54:30.522,768, 555, 375, 2, -5, 3, -4, 9, 15, 917, 779, 451,M
2025-03-10 13:54:30.576,737, 519, 429, -3, 2, -2, -5, 10, 15, 915, 780, 443,M
2025-03-10 13:54:30.634,729, 550, 409, -1, -3, -5, -6, 9, 17, 925, 786, 454,M
2025-03-10 13:54:30.688,707, 523, 460, -3, -10, -6, -5, 10, 16, 922, 807, 512,M
2025-03-10 13:54:30.748,746, 448, 621, 1, -10, -10, -5, 9, 18, 946, 837, 345,M
2025-03-10 13:54:30.802,611, 517, 263, 18, 27, 28, -5, 11, 16, 954, 821, 42,M
2025-03-10 13:54:30.857,744, 248, 740, 2, -17, -13, -4, 10, 14, 956, 847, 162,M
2025-03-10 13:54:30.916,811, 445, 524, 4, -17, -21, -4, 9, 16, 953, 911, 578,M
2025-03-10 13:54:30.970,799, 698, 116, -16, 20, 34, -4, 9, 17, 956, 923, 499,M
2025-03-10 13:54:31.026,675, 551, 541, -12, 6, 16, -5, 10, 16, 958, 925, 499,M
2025-03-10 13:54:31.085,708, 383, 755, 23, -17, -13, -5, 11, 15, 961, 933, 626,M
2025-03-10 13:54:31.136,846, 577, -32, 7, 31, 24, -5, 8, 16, 965, 925, 374,M
2025-03-10 13:54:31.199,866, 323, 374, -24, 11, -22, -4, 11, 15, 948, 896, 540,M
2025-03-10 13:54:31.516,722, 519, 450, -5, -6, -3, -5, 10, 16, 928, 809, 346,N
2025-03-10 13:54:31.566,735, 534, 446, -3, -5, -2, -5, 9, 16, 930, 810, 352,N
2025-03-10 13:54:31.626,719, 534, 431, -1, -9, -4, -4, 9, 15, 925, 815, 407,N
2025-03-10 13:54:31.685,1066, 499, 311, -19, -3, -10, -5, 10, 16, 939, 849, 474,N
2025-03-10 13:54:31.735,984, 532, 590, 29, 11, 15, -4, 9, 17, 953, 867, 174,N
2025-03-10 13:54:31.798,1000, 620, 45, -34, 35, 39, -4, 11, 14, 957, 836, 16,N
2025-03-10 13:54:31.854,719, 521, 433, 2, -44, -45, -4, 10, 15, 943, 877, 564,N
2025-03-10 13:54:31.910,855, 617, 397, 41, -20, 2, -4, 10, 15, 957, 921, 560,N
2025-03-10 13:54:31.969,767, 837, 106, -27, 27, 34, -3, 10, 16, 970, 922, 166,N
2025-03-10 13:54:32.026,776, 597, 300, 21, -32, -25, -5, 11, 16, 961, 938, 554,N
2025-03-10 13:54:32.082,857, 435, 142, 3, 68, -20, -5, 10, 16, 935, 898, 704,N
2025-03-10 13:54:32.386,733, 540, 427, -2, -9, 5, -4, 10, 15, 930, 856, 505,O
2025-03-10 13:54:32.440,734, 539, 408, -2, -8, 6, -5, 9, 14, 928, 856, 505,O
2025-03-10 13:54:32.498,724, 522, 456, -6, -10, 2, -4, 10, 15, 932, 867, 497,O
2025-03-10 13:54:32.554,818, 465, 341, -14, -2, -14, -5, 11, 15, 938, 892, 438,O
2025-03-10 13:54:32.612,578, 350, 650, -3, -19, -27, -4, 10, 16, 944, 888, 194,O
2025-03-10 13:54:32.665,851, 855, 106, 9, 41, 59, -5, 10, 16, 960, 900, 39,O
2025-03-10 13:54:32.719,495, 208, 922, -50, -24, 0, -5, 10, 14, 957, 930, 34,O
2025-03-10 13:54:32.781,708, 609, 260, 54, -34, -28, -6, 8, 17, 936, 901, 271,O
2025-03-10 13:54:32.837,680, 557, 489, -32, 85, -34, -5, 10, 13, 911, 847, 136,O
2025-03-10 13:54:32.889,509, 520, 715, -10, -5, 10, -4, 9, 12, 910, 769, 47,O
2025-03-10 13:54:33.206,703, 537, 454, -1, -9, 3, -3, 9, 15, 900, 806, 283,P
2025-03-10 13:54:33.260,708, 535, 461, 1, -11, 3, -5, 10, 16, 903, 808, 291,P
2025-03-10 13:54:33.317,741, 488, 442, 7, -16, 3, -5, 10, 15, 913, 835, 338,P
2025-03-10 13:54:33.370,774, 485, 477, -8, -3, -9, -5, 9, 14, 929, 872, 204,P
2025-03-10 13:54:33.427,833, 848, 349, -9, 48, 44, -5, 11, 16, 957, 876, 37,P
2025-03-10 13:54:33.479,756, 416, 254, -26, 30, 26, -5, 10, 14, 952, 867, 41,P
2025-03-10 13:54:33.541,971, 415, 658, 49, -61, -64, -4, 11, 15, 946, 908, 479,P
2025-03-10 13:54:33.596,696, 590, 394, 12, -19, 0, -3, 10, 16, 956, 939, 588,P
2025-03-10 13:54:33.650,358, 761, 239, -44, 42, 30, -3, 10, 17, 966, 931, 58,P
2025-03-10 13:54:33.710,1094, 333, 346, -32, 31, -3, -5, 11, 16, 961, 873, 24,P
2025-03-10 13:54:33.768,562, 556, 837, -7, 10, -18, -3, 11, 13, 953, 898, 34,P
2025-03-10 13:54:34.058,708, 524, 466, 2, -11, 5, -5, 10, 15, 945, 892, 179,Q
2025-03-10 13:54:34.116,718, 522, 449, 2, -12, 6, -4, 10, 15, 945, 895, 189,Q
2025-03-10 13:54:34.171,749, 479, 408, -12, 0, -12, -5, 10, 15, 953, 912, 159,Q
2025-03-10 13:54:34.231,479, 476, 466, -2, -11, -21, -5, 11, 16, 960, 920, 28,Q
2025-03-10 13:54:34.282,737, 565, -77, 68, 31, 20, -4, 10, 16, 962, 894, 43,Q
2025-03-10 13:54:34.335,774, 719, 438, -28, 27, 42, -5, 11, 14, 960, 920, 67,Q
2025-03-10 13:54:34.387,539, 394, 468, 4, -41, -49, -5, 9, 14, 963, 936, 29,Q
2025-03-10 13:54:34.447,879, 701, 235, 9, -3, 5, -4, 9, 16, 948, 902, 186,Q
2025-03-10 13:54:34.502,431, 560, 783, -5, 13, -6, -4, 11, 13, 959, 883, 28,Q
2025-03-10 13:54:34.560,867, 666, 407, -29, -8, -5, -4, 10, 16, 963, 924, 40,Q
2025-03-10 13:54:34.615,566, 592, 341, 11, 22, 58, -5, 12, 14, 970, 942, 63,Q
2025-03-10 13:54:34.668,963, 291, 229, -20, 32, -22, -6, 12, 13, 964, 922, 20,Q
2025-03-10 13:54:34.726,542, 442, 784, -12, 31, -62, -4, 11, 12, 929, 833, 184,Q
2025-03-10 13:54:35.026,715, 522, 478, -1, -10, 1, -4, 12, 14, 918, 782, 153,R
2025-03-10 13:54:35.089,729, 524, 476, -1, -11, 1, -3, 12, 13, 918, 781, 167,R
2025-03-10 13:54:35.147,718, 525, 447, -5, -11, -3, -3, 10, 14, 919, 801, 182,R
2025-03-10 13:54:35.200,714, 521, 492, -2, -24, 1, -4, 9, 15, 934, 851, 199,R
2025-03-10 13:54:35.256,454, 591, 428, 28, 24, 24, -4, 10, 14, 955, 876, 31,R
2025-03-10 13:54:35.315,928, 473, 431, -18, 25, 28, -4, 11, 15, 955, 859, 42,R
2025-03-10 13:54:35.366,1224, 187, 528, 32, -51, -76, -4, 11, 14, 946, 877, 279,R
2025-03-10 13:54:35.430,523, 637, 414, 26, -15, 2, -3, 9, 15, 960, 941, 565,R
2025-03-10 13:54:35.487,652, 604, 386, -20, 21, 18, -5, 11, 16, 966, 930, 185,R
2025-03-10 13:54:35.536,926, 730, 89, -14, 29, 41, -5, 10, 15, 974, 934, 50,R
2025-03-10 13:54:35.598,773, 350, 485, -13, 12, 27, -5, 11, 13, 964, 930, 42,R
2025-03-10 13:54:35.655,578, 393, 686, -16, 42, -65, -4, 12, 11, 953, 903, 33,R
2025-03-10 13:54:35.712,567, 542, 867, 12, -38, -13, -2, 11, 11, 938, 878, 130,R
2025-03-10 13:54:35.995,735, 494, 486, 0, -12, 3, -4, 12, 14, 944, 886, 206,S
2025-03-10 13:54:36.047,734, 499, 478, 1, -12, 4, -5, 10, 14, 946, 890, 203,S
2025-03-10 13:54:36.099,756, 485, 438, 1, -11, 3, -5, 11, 14, 946, 900, 280,S
2025-03-10 13:54:36.160,752, 498, 434, -6, -4, -2, -4, 11, 14, 957, 918, 327,S
2025-03-10 13:54:36.216,704, 516, 499, -10, -4, -13, -3, 11, 14, 952, 923, 295,S
2025-03-10 13:54:36.270,692, 515, 325, 18, 8, -1, -4, 11, 16, 964, 926, 150,S
2025-03-10 13:54:36.326,745, 686, 464, -4, 21, 26, -5, 10, 14, 965, 933, 40,S
2025-03-10 13:54:36.382,652, 343, 354, -26, 15, 12, -5, 12, 14, 965, 917, 25,S
2025-03-10 13:54:36.437,1132, 388, 172, -22, 38, -27, -4, 12, 13, 935, 836, 37,S
2025-03-10 13:54:36.502,556, 523, 1017, -21, 15, -18, -3, 11, 11, 932, 829, 155,S
2025-03-10 13:54:36.798,726, 487, 470, -8, -13, -6, -4, 11, 15, 935, 850, 220,T
2025-03-10 13:54:36.856,736, 485, 469, -7, -14, -6, -6, 10, 16, 937, 848, 228,T
2025-03-10 13:54:36.913,767, 530, 476, -14, 4, -9, -4, 9, 16, 954, 881, 90,T
2025-03-10 13:54:36.970,679, 796, 234, 11, -15, 31, -4, 10, 14, 963, 938, 476,T
2025-03-10 13:54:37.019,737, 330, 477, 24, 5, 19, -5, 11, 15, 963, 939, 583,T
2025-03-10 13:54:37.080,619, 470, 499, -12, -1, -31, -5, 9, 15, 955, 911, 520,T
2025-03-10 13:54:37.135,828, 535, 557, 10, 0, -6, -4, 9, 16, 961, 916, 363,T
2025-03-10 13:54:37.191,1371, 655, 394, 4, 23, 31, -4, 10, 15, 964, 904, 33,T
2025-03-10 13:54:37.243,902, 427, 494, -11, 16, -5, -4, 9, 14, 954, 864, 207,T
2025-03-10 13:54:37.301,625, 479, 742, -13, 14, -26, -4, 10, 13, 935, 861, 424,T
2025-03-10 13:54:37.359,652, 541, 452, 5, -26, 1, -3, 9, 14, 929, 862, 470,T
2025-03-10 13:54:37.636,729, 510, 449, -5, 0, -2, -4, 12, 14, 929, 812, 384,U
2025-03-10 13:54:37.688,734, 499, 471, -5, -1, -3, -4, 11, 14, 929, 814, 380,U
2025-03-10 13:54:37.746,726, 501, 486, -8, -5, -4, -4, 11, 14, 934, 819, 376,U
2025-03-10 13:54:37.807,696, 505, 531, -11, -16, -4, -4, 12, 14, 948, 845, 311,U
2025-03-10 13:54:37.860,767, 571, 577, 12, 11, 1, -4, 11, 16, 965, 884, 23,U
2025-03-10 13:54:37.916,558, 539, 435, -4, 23, 36, -4, 13, 15, 964, 906, 28,U
2025-03-10 13:54:37.970,668, 271, 465, -12, -21, -7, -5, 12, 14, 960, 929, 191,U
2025-03-10 13:54:38.030,746, 354, 642, 7, -15, -16, -3, 11, 15, 957, 933, 459,U
2025-03-10 13:54:38.085,1020, 831, 277, -8, 33, 41, -4, 11, 14, 962, 919, 48,U
2025-03-10 13:54:38.137,850, 365, 539, -13, 9, 2, -3, 14, 14, 957, 902, 225,U
2025-03-10 13:54:38.199,665, 482, 728, -24, 22, -32, -3, 11, 12, 938, 889, 419,U
2025-03-10 13:54:38.501,732, 497, 482, 0, -9, -7, -4, 11, 14, 935, 812, 217,V
2025-03-10 13:54:38.558,731, 505, 473, -3, -10, -7, -4, 10, 12, 934, 818, 225,V
2025-03-10 13:54:38.614,667, 491, 558, 5, -26, 2, -3, 9, 14, 941, 851, 256,V
2025-03-10 13:54:38.669,806, 436, 612, 11, 0, -9, -5, 11, 15, 953, 889, 88,V
2025-03-10 13:54:38.717,507, 547, 471, 4, 22, 36, -5, 10, 14, 966, 904, 14,V
2025-03-10 13:54:38.776,787, 579, 349, -26, 10, 19, -4, 12, 15, 968, 933, 25,V
2025-03-10 13:54:38.838,924, 248, 668, 29, -27, -20, -3, 11, 16, 963, 949, 397,V
2025-03-10 13:54:38.896,891, 483, 202, -11, 24, -2, -6, 11, 14, 956, 932, 462,V
2025-03-10 13:54:38.952,621, 570, 624, -21, 32, -5, -4, 11, 13, 953, 889, 178,V
2025-03-10 13:54:39.006,713, 498, 540, 6, -18, 2, -3, 11, 13, 942, 857, 160,V
2025-03-10 13:54:39.059,812, 494, 344, -6, 1, -7, -4, 9, 15, 934, 829, 173,V
2025-03-10 13:54:39.116,706, 459, 521, -4, 6, -11, -3, 12, 13, 927, 813, 169,V
2025-03-10 13:54:39.420,712, 507, 511, 0, -3, 1, -5, 11, 12, 918, 728, 33,W
2025-03-10 13:54:39.470,717, 497, 506, 0, -4, 0, -4, 11, 12, 924, 728, 25,W
2025-03-10 13:54:39.530,726, 486, 484, 0, -5, -2, -5, 11, 14, 916, 728, 34,W
2025-03-10 13:54:39.582,736, 503, 480, -2, -3, -4, -2, 11, 14, 913, 729, 43,W
2025-03-10 13:54:39.637,720, 499, 486, -3, -4, -2, -3, 11, 14, 917, 732, 23,W
2025-03-10 13:54:39.688,669, 506, 516, -1, -16, -1, -5, 11, 14, 931, 764, 17,W
2025-03-10 13:54:39.748,706, 575, 342, -6, 1, -14, -5, 12, 17, 939, 847, 42,W
2025-03-10 13:54:39.803,906, 497, 553, 36, 0, 5, -4, 11, 16, 961, 893, 28,W
2025-03-10 13:54:39.858,631, 491, 360, 23, 11, 32, -5, 12, 14, 963, 909, 47,W
2025-03-10 13:54:39.914,720, 331, 603, 5, -21, -13, -3, 12, 13, 964, 942, 29,W
2025-03-10 13:54:39.973,737, 350, 757, 53, -19, -22, -3, 10, 16, 962, 939, 202,W
2025-03-10 13:54:40.026,735, 818, 173, -15, 16, 30, -5, 12, 14, 965, 939, 58,W
2025-03-10 13:54:40.087,687, 270, 547, 14, -24, -11, -4, 12, 16, 954, 939, 53,W
2025-03-10 13:54:40.145,704, 449, 534, -24, 70, -38, -5, 13, 13, 932, 912, 42,W
2025-03-10 13:54:40.417,772, 514, 397, -2, -4, 0, -5, 11, 14, 932, 892, 45,X
2025-03-10 13:54:40.471,771, 499, 421, -3, -2, 0, -3, 11, 15, 932, 893, 43,X
2025-03-10 13:54:40.525,737, 485, 492, 1, -6, 2, -5, 11, 13, 939, 901, 30,X
2025-03-10 13:54:40.579,800, 442, 327, 0, -2, -5, -5, 12, 16, 944, 916, 29,X
2025-03-10 13:54:40.635,715, 500, 524, -15, -5, -4, -4, 11, 15, 955, 932, 20,X
2025-03-10 13:54:40.689,955, 756, 502, 11, 8, -1, -4, 10, 15, 956, 910, 45,X
2025-03-10 13:54:40.746,962, 526, 128, -41, 35, 15, -5, 11, 15, 954, 880, 29,X
2025-03-10 13:54:40.803,543, 482, 527, 19, -21, -39, -5, 13, 13, 936, 879, 23,X
2025-03-10 13:54:40.857,966, 755, 208, 46, 2, 21, -4, 10, 15, 964, 929, 41,X
2025-03-10 13:54:40.910,709, 636, 428, -27, 29, 43, -5, 12, 15, 968, 935, 48,X
2025-03-10 13:54:40.967,781, 435, 204, -4, 18, -63, -5, 11, 14, 948, 895, 29,X
2025-03-10 13:54:41.276,728, 524, 466, 1, -5, 4, -6, 10, 15, 938, 892, 41,Y
2025-03-10 13:54:41.329,739, 537, 413, 2, -6, 3, -5, 9, 16, 937, 894, 98,Y
2025-03-10 13:54:41.385,767, 518, 411, -4, -2, -5, -5, 10, 16, 935, 893, 172,Y
2025-03-10 13:54:41.439,650, 501, 549, -8, -17, -7, -6, 10, 16, 947, 900, 69,Y
2025-03-10 13:54:41.491,837, 431, 444, 6, -8, -9, -4, 9, 16, 954, 918, 26,Y
2025-03-10 13:54:41.549,642, 311, 406, 20, 22, 43, -6, 10, 15, 963, 939, 116,Y
2025-03-10 13:54:41.606,791, 143, 448, -8, -11, -42, -5, 11, 16, 960, 930, 17,Y
2025-03-10 13:54:41.659,583, 587, 659, 5, -28, 9, -5, 11, 15, 948, 927, 163,Y
2025-03-10 13:54:41.718,808, 326, 191, 40, 12, 5, -5, 11, 17, 963, 934, 113,Y
2025-03-10 13:54:41.765,827, 412, 198, -9, 34, 17, -5, 10, 15, 960, 909, 23,Y
2025-03-10 13:54:41.829,991, 376, 66, -35, 45, -48, -3, 10, 14, 933, 864, 31,Y
2025-03-10 13:54:41.885,464, 557, 880, -43, 21, -27, -5, 11, 12, 922, 866, 47,Y
2025-03-10 13:54:42.196,626, 606, 475, 13, -14, 24, -5, 8, 14, 939, 873, 44,Z
2025-03-10 13:54:42.252,680, 562, 435, 14, -14, 25, -5, 9, 16, 940, 873, 43,Z
2025-03-10 13:54:42.307,823, 524, 334, 0, -3, 11, -5, 9, 16, 943, 875, 37,Z
2025-03-10 13:54:42.355,694, 533, 481, 1, 3, 7, -4, 11, 15, 952, 887, 15,Z
2025-03-10 13:54:42.414,621, 550, 562, 7, -19, 10, -4, 11, 15, 950, 883, 37,Z
2025-03-10 13:54:42.467,884, 591, 441, -20, 3, -3, -6, 10, 17, 962, 908, 34,Z
2025-03-10 13:54:42.520,715, 550, 395, 36, -9, 31, -3, 11, 16, 958, 942, 169,Z
2025-03-10 13:54:42.580,560, 572, 395, -2, 21, 18, -5, 10, 17, 962, 935, 117,Z
2025-03-10 13:54:42.630,728, 455, 84, -79, 32, 10, -4, 12, 14, 969, 907, 26,Z
2025-03-10 13:54:42.685,765, 670, 347, 19, 1, 45, -4, 12, 15, 966, 939, 88,Z
2025-03-10 13:54:42.740,716, 501, 560, 1, 8, 13, -4, 13, 13, 962, 932, 35,Z
2025-03-10 13:54:42.798,455, 494, 630, -39, 9, -65, -4, 13, 11, 943, 844, 33,Z
2025-03-10 13:54:42.847,875, 464, 284, 6, -15, -8, -5, 12, 15, 955, 909, 41,Z
2025-03-10 13:54:42.909,1015, 275, 189, 4, 3, 32, -4, 11, 14, 963, 949, 175,Z
2025-03-10 13:54:42.962,902, 439, 479, 11, 7, -11, -5, 13, 14, 948, 905, 28,Z
2025-03-10 13:54:43.016,774, 442, 614, -63, 91, -51, -3, 12, 13, 913, 646, 41,Z
2025-03-10 13:54:43.455,415, 653, 632, 29, -48, 28, 0, 5, 7, 682, 539, 13,a
2025-03-10 13:54:43.507,415, 645, 607, 35, -53, 35, 0, 5, 7, 684, 547, 13,a
2025-03-10 13:54:43.561,551, 655, 355, 34, -40, 72, -3, 4, 11, 695, 575, 21,a
2025-03-10 13:54:43.616,662, 494, 512, 17, 2, 57, -4, 6, 11, 708, 602, 42,a
2025-03-10 13:54:43.665,616, 500, 417, 14, 1, 43, -5, 9, 11, 784, 633, 17,a
2025-03-10 13:54:43.721,666, 428, 484, -7, 5, 18, -4, 9, 10, 828, 664, 27,a
2025-03-10 13:54:43.776,769, 501, 796, 41, -27, 3, -4, 10, 11, 872, 704, 33,a
2025-03-10 13:54:43.831,499, 511, 159, -42, 5, 13, -5, 8, 14, 893, 730, 40,a
2025-03-10 13:54:43.886,818, 672, 484, 25, -25, -3, -3, 8, 15, 901, 756, 134,a
2025-03-10 13:54:43.935,750, 569, 430, 9, -2, -8, -5, 8, 15, 905, 776, 220,a
2025-03-10 13:54:43.993,729, 527, 435, 3, 6, -4, -4, 9, 14, 910, 785, 247,a
2025-03-10 13:54:44.047,707, 572, 469, 0, 13, -1, -4, 8, 14, 908, 764, 244,a
2025-03-10 13:54:44.105,704, 563, 452, 1, 11, -3, -4, 8, 14, 905, 747, 253,a
2025-03-10 13:54:44.156,664, 587, 478, 1, 6, 12, -2, 9, 13, 908, 748, 277,a
2025-03-10 13:54:44.216,675, 523, 500, 13, -16, 15, -4, 10, 13, 930, 798, 360,a
2025-03-10 13:54:44.266,631, 591, 448, -22, 3, -9, -3, 9, 14, 944, 883, 213,a
2025-03-10 13:54:44.326,1146, 487, 376, 25, -9, -18, -3, 9, 13, 943, 863, 46,a
2025-03-10 13:54:44.380,931, 1074, 184, -48, 30, 34, -4, 8, 14, 950, 849, 25,a
2025-03-10 13:54:44.436,587, 205, 809, 1, -33, -15, -3, 10, 13, 940, 862, 23,a
2025-03-10 13:54:44.496,668, 586, 352, 34, -11, -10, -5, 9, 13, 946, 875, 203,a
2025-03-10 13:54:44.551,874, 565, 441, -29, 20, 34, -3, 11, 14, 943, 844, 31,a
2025-03-10 13:54:44.606,547, 456, 610, -28, 40, -36, -3, 9, 12, 932, 842, 206,a
2025-03-10 13:54:44.901,675, 525, 539, -2, -5, -2, -3, 11, 13, 907, 763, 211,b
2025-03-10 13:54:44.958,678, 528, 517, -3, -7, -2, -3, 9, 13, 910, 769, 218,b
2025-03-10 13:54:45.012,694, 533, 481, -5, -7, -5, -5, 10, 13, 913, 778, 222,b
2025-03-10 13:54:45.068,703, 532, 479, -4, -6, -4, -3, 10, 13, 912, 782, 240,b
2025-03-10 13:54:45.129,686, 510, 488, -3, -18, -5, -3, 10, 13, 910, 803, 242,b
2025-03-10 13:54:45.183,741, 471, 599, 26, -4, -5, -4, 9, 14, 935, 856, 195,b
2025-03-10 13:54:45.237,615, 541, 536, -13, 38, 39, -2, 9, 14, 956, 840, 16,b
2025-03-10 13:54:45.286,633, 414, 503, -22, 16, 7, -3, 11, 13, 936, 786, 37,b
2025-03-10 13:54:45.351,735, 652, 570, -3, -24, -1, -3, 11, 13, 944, 883, 459,b
2025-03-10 13:54:45.408,596, 649, 371, -32, 21, 26, -4, 12, 12, 956, 892, 120,b
2025-03-10 13:54:45.461,685, 381, 497, -6, 18, 0, -3, 11, 13, 932, 712, 45,b
2025-03-10 13:54:45.518,745, 439, 385, -16, 45, -36, -3, 11, 13, 907, 705, 158,b
2025-03-10 13:54:45.770,716, 527, 473, -1, -5, 3, -1, 9, 13, 914, 762, 196,c
2025-03-10 13:54:45.826,707, 516, 482, 2, -4, 3, -4, 9, 11, 915, 770, 195,c
2025-03-10 13:54:45.879,710, 527, 477, -1, -1, 1, -3, 11, 14, 916, 785, 219,c
2025-03-10 13:54:45.936,711, 484, 497, -1, -2, -2, -5, 11, 13, 927, 791, 206,c
2025-03-10 13:54:45.986,720, 527, 478, -3, 0, 1, -3, 10, 14, 918, 788, 203,c
2025-03-10 13:54:46.046,707, 514, 501, -2, -1, 0, -4, 11, 13, 918, 792, 194,c
2025-03-10 13:54:46.101,722, 496, 496, -2, -2, 0, -3, 10, 13, 934, 807, 179,c
2025-03-10 13:54:46.156,646, 484, 542, -13, -2, -12, -3, 11, 14, 940, 848, 32,c
2025-03-10 13:54:46.211,580, 297, 570, 15, 0, -25, -3, 10, 14, 954, 871, 28,c
2025-03-10 13:54:46.268,970, 648, 279, 1, 31, 25, -3, 10, 13, 956, 861, 25,c
2025-03-10 13:54:46.318,719, 426, 698, 1, -12, 12, -1, 10, 13, 940, 862, 203,c
2025-03-10 13:54:46.383,577, 489, 694, -25, 31, -27, -2, 11, 10, 907, 828, 385,c
2025-03-10 13:54:46.688,715, 495, 502, 1, -5, 3, -4, 9, 13, 911, 744, 31,d
2025-03-10 13:54:46.746,720, 501, 500, 1, -5, 2, -5, 11, 11, 915, 744, 31,d
2025-03-10 13:54:46.801,720, 504, 497, 0, -3, -2, -3, 12, 12, 914, 747, 33,d
2025-03-10 13:54:46.855,718, 516, 474, -2, -3, 2, -4, 11, 14, 920, 766, 21,d
2025-03-10 13:54:46.905,710, 504, 502, 2, -3, 2, -3, 12, 13, 917, 772, 27,d
2025-03-10 13:54:46.960,651, 492, 541, 2, -13, 6, -2, 9, 14, 921, 809, 43,d
2025-03-10 13:54:47.016,835, 597, 611, -28, -4, -14, -2, 10, 14, 939, 866, 31,d
2025-03-10 13:54:47.066,763, 601, 541, 24, 5, -13, -3, 10, 13, 959, 866, 22,d
2025-03-10 13:54:47.127,885, 583, 292, -31, 27, 48, -3, 11, 14, 954, 883, 43,d
2025-03-10 13:54:47.185,655, 326, 583, 18, -38, -38, -4, 11, 13, 951, 904, 28,d
2025-03-10 13:54:47.243,703, 414, 652, 25, -28, -23, -4, 11, 13, 955, 904, 227,d
2025-03-10 13:54:47.300,752, 632, 362, -12, 33, 40, -3, 10, 14, 956, 877, 39,d
2025-03-10 13:54:47.356,718, 419, 299, -31, 40, -41, -3, 11, 15, 947, 859, 147,d
2025-03-10 13:54:47.637,673, 516, 507, 3, -1, 5, -4, 12, 12, 926, 806, 44,e
2025-03-10 13:54:47.696,683, 509, 511, 4, -2, 4, -4, 11, 14, 922, 802, 52,e
2025-03-10 13:54:47.747,685, 493, 534, 5, -13, 6, -2, 10, 12, 932, 808, 27,e
2025-03-10 13:54:47.801,831, 432, 448, 2, 10, 0, -4, 12, 13, 956, 866, 19,e
2025-03-10 13:54:47.855,853, 509, 436, 0, 3, 13, -3, 12, 13, 952, 900, 45,e
2025-03-10 13:54:47.916,580, 424, 622, -10, -15, -19, -3, 12, 13, 957, 905, 174,e
2025-03-10 13:54:47.971,472, 472, 467, 4, 6, -13, -4, 11, 12, 967, 891, 23,e
2025-03-10 13:54:48.025,937, 811, 295, 8, 24, 36, -4, 11, 13, 963, 888, 33,e
2025-03-10 13:54:48.082,845, 294, 507, 13, -9, -13, -4, 11, 13, 953, 870, 23,e
2025-03-10 13:54:48.135,515, 501, 898, -9, 17, -13, -2, 13, 10, 936, 846, 94,e
2025-03-10 13:54:48.446,737, 452, 541, -12, 3, 1, -2, 13, 12, 949, 848, 22,f
2025-03-10 13:54:48.499,728, 460, 527, -10, 2, 1, -2, 13, 13, 950, 851, 36,f
2025-03-10 13:54:48.561,712, 488, 493, -4, -2, -15, -3, 12, 13, 953, 880, 23,f
2025-03-10 13:54:48.615,715, 424, 811, 4, -50, -39, -3, 12, 13, 954, 924, 27,f
2025-03-10 13:54:48.677,776, 466, 444, 37, -17, -3, -5, 10, 14, 956, 937, 214,f
2025-03-10 13:54:48.730,621, 648, 371, 1, 16, 24, -3, 9, 15, 953, 914, 291,f
2025-03-10 13:54:48.785,520, 554, 542, -33, 30, -29, -4, 10, 13, 946, 861, 36,f
2025-03-10 13:54:48.844,781, 927, 531, 30, -10, -13, -3, 11, 12, 956, 891, 42,f
2025-03-10 13:54:48.898,706, 260, 256, 14, 2, 19, -3, 11, 13, 964, 929, 208,f
2025-03-10 13:54:48.955,858, 369, 168, -15, 36, -28, -2, 12, 12, 952, 895, 340,f
2025-03-10 13:54:49.010,545, 525, 793, -32, 17, -10, -3, 12, 10, 938, 769, 20,f
2025-03-10 13:54:49.286,722, 500, 507, 3, -5, 9, -4, 11, 12, 924, 725, 32,g
2025-03-10 13:54:49.339,713, 495, 494, 3, -5, 8, -4, 12, 11, 927, 728, 32,g
2025-03-10 13:54:49.393,689, 480, 513, 7, -14, 7, -3, 11, 13, 932, 758, 26,g
2025-03-10 13:54:49.446,727, 544, 333, 2, 1, -5, -4, 13, 13, 940, 820, 28,g
2025-03-10 13:54:49.502,724, 469, 554, -7, -1, -5, -3, 11, 13, 940, 851, 26,g
2025-03-10 13:54:49.557,742, 465, 539, -17, -3, -9, -3, 12, 13, 947, 876, 33,g
2025-03-10 13:54:49.614,1313, 437, 432, 23, 3, -4, -4, 11, 13, 956, 878, 46,g
2025-03-10 13:54:49.668,759, 595, 422, -27, 17, 43, -3, 13, 12, 964, 913, 30,g
2025-03-10 13:54:49.721,671, 304, 647, 25, -24, -27, -2, 13, 12, 951, 915, 45,g
2025-03-10 13:54:49.778,737, 747, 352, 4, 8, 8, -3, 12, 13, 957, 918, 41,g
2025-03-10 13:54:49.835,625, 486, 479, -74, 37, 43, -4, 12, 13, 961, 885, 29,g
2025-03-10 13:54:49.886,993, 54, 499, 0, 9, -55, -3, 15, 12, 942, 679, 36,g
2025-03-10 13:54:49.945,739, 440, 865, -21, 24, -42, -2, 12, 11, 890, 731, 25,g
2025-03-10 13:54:50.266,660, 458, 596, 7, -29, 0, -3, 10, 13, 899, 783, 193,h
2025-03-10 13:54:50.317,698, 470, 575, 5, -32, 1, -3, 11, 13, 907, 795, 105,h
2025-03-10 13:54:50.377,757, 561, 585, 5, -8, -11, -4, 12, 13, 942, 852, 44,h
2025-03-10 13:54:50.432,1022, 636, 580, 7, 26, 33, -5, 11, 14, 950, 835, 38,h
2025-03-10 13:54:50.489,735, 443, 363, -8, 18, 13, -4, 13, 12, 951, 835, 25,h
2025-03-10 13:54:50.544,901, 581, 429, 18, -38, -33, -2, 12, 13, 949, 886, 41,h
2025-03-10 13:54:50.598,544, 675, 274, -3, 16, 26, -3, 12, 13, 959, 896, 30,h
2025-03-10 13:54:50.656,991, 317, 384, -25, 27, -3, -3, 11, 13, 949, 803, 34,h
2025-03-10 13:54:50.713,658, 411, 757, -28, 50, -38, -2, 11, 9, 921, 732, 35,h
2025-03-10 13:54:51.026,723, 458, 528, 0, 3, 0, -4, 14, 11, 923, 775, 24,i
2025-03-10 13:54:51.079,719, 457, 552, 0, 2, -1, -3, 13, 11, 925, 777, 30,i
2025-03-10 13:54:51.129,721, 465, 540, 1, -9, 1, -3, 12, 13, 925, 781, 30,i
2025-03-10 13:54:51.187,744, 460, 489, -2, -7, 0, -2, 13, 12, 929, 795, 27,i
2025-03-10 13:54:51.236,684, 442, 580, 10, -20, 5, -5, 12, 12, 932, 827, 48,i
2025-03-10 13:54:51.294,729, 534, 539, -8, 3, 4, -2, 14, 13, 948, 867, 42,i
2025-03-10 13:54:51.347,841, 351, 419, 11, 15, 27, -2, 14, 13, 958, 858, 43,i
2025-03-10 13:54:51.399,812, 390, 216, -29, -1, -84, -5, 13, 12, 943, 860, 42,i
2025-03-10 13:54:51.462,516, 662, 634, -7, -11, -20, -4, 12, 12, 959, 926, 30,i
2025-03-10 13:54:51.516,938, 578, 684, 51, 8, 13, -3, 12, 13, 955, 909, 189,i
2025-03-10 13:54:51.577,753, 374, 290, -13, 78, -14, -4, 14, 13, 944, 876, 29,i
2025-03-10 13:54:51.629,450, 468, 739, -9, 4, 6, -1, 13, 11, 944, 874, 33,i
2025-03-10 13:54:51.679,704, 479, 525, 21, -36, 13, -3, 12, 10, 943, 869, 42,i
2025-03-10 13:54:51.736,827, 440, 382, -1, 3, -1, -2, 12, 11, 940, 848, 35,i
2025-03-10 13:54:51.794,705, 469, 575, -4, 3, -1, -3, 14, 11, 944, 842, 22,i
2025-03-10 13:54:52.336,737, 476, 489, 0, 1, 1, -3, 13, 13, 924, 783, 22,j
2025-03-10 13:54:52.395,734, 472, 509, 0, 1, 2, -3, 12, 11, 928, 780, 27,j
2025-03-10 13:54:52.449,744, 450, 530, 2, -2, 3, -3, 11, 12, 925, 785, 28,j
2025-03-10 13:54:52.501,736, 462, 508, 3, -5, 3, -3, 13, 12, 927, 795, 42,j
2025-03-10 13:54:52.555,675, 467, 557, 6, -16, 6, -3, 14, 11, 925, 820, 27,j
2025-03-10 13:54:52.607,794, 354, 400, -4, 7, -3, -3, 12, 12, 941, 868, 42,j
2025-03-10 13:54:52.665,663, 502, 494, -32, 26, 37, -5, 14, 11, 957, 890, 38,j
2025-03-10 13:54:52.715,654, 269, 327, -57, 7, 6, -2, 15, 12, 952, 843, 35,j
2025-03-10 13:54:52.777,737, 639, 449, -44, -10, -47, -5, 14, 14, 956, 882, 33,j
2025-03-10 13:54:52.830,797, 651, 532, 25, -23, -10, -5, 12, 14, 961, 925, 31,j
2025-03-10 13:54:52.885,888, 245, 439, 6, 14, 16, -4, 13, 13, 951, 890, 33,j
2025-03-10 13:54:52.944,672, 499, 693, -19, 53, -17, -4, 14, 9, 937, 836, 47,j
2025-03-10 13:54:53.276,742, 446, 524, -3, 1, 0, -3, 13, 13, 930, 753, 36,k
2025-03-10 13:54:53.328,737, 441, 520, -2, 0, -1, -3, 13, 13, 928, 753, 25,k
2025-03-10 13:54:53.379,735, 434, 529, -2, -1, -3, -5, 15, 12, 923, 754, 48,k
2025-03-10 13:54:53.435,729, 469, 513, -4, -6, -4, -3, 12, 11, 932, 759, 13,k
2025-03-10 13:54:53.493,663, 446, 596, 0, -20, -6, -3, 13, 12, 928, 774, 37,k
2025-03-10 13:54:53.545,775, 539, 423, -11, 0, -10, -4, 13, 12, 938, 860, 50,k
2025-03-10 13:54:53.595,802, 468, 526, 36, 10, 6, -4, 12, 13, 957, 864, 16,k
2025-03-10 13:54:53.656,692, 352, 372, 2, 21, 26, -4, 14, 13, 957, 825, 29,k
2025-03-10 13:54:53.712,693, 335, 721, 15, -27, 24, -2, 15, 12, 966, 934, 27,k
2025-03-10 13:54:53.770,604, 426, 606, 20, -21, 1, -4, 14, 13, 953, 937, 61,k
2025-03-10 13:54:53.828,784, 319, 191, -18, 28, -29, -3, 12, 13, 949, 870, 31,k
2025-03-10 13:54:53.878,739, 541, 747, 17, -7, -19, -4, 14, 13, 959, 866, 33,k
2025-03-10 13:54:53.936,422, 140, 292, 3, 11, 36, -5, 14, 13, 968, 930, 63,k
2025-03-10 13:54:53.992,904, 161, 373, 3, 10, -12, -5, 14, 12, 951, 898, 49,k
2025-03-10 13:54:54.046,626, 408, 640, -36, 63, -58, -2, 12, 8, 912, 727, 30,k
2025-03-10 13:54:54.347,715, 498, 536, 4, -9, -14, -4, 11, 13, 882, 737, 26,l
2025-03-10 13:54:54.405,686, 503, 557, 4, -11, -10, -3, 12, 13, 879, 750, 30,l
2025-03-10 13:54:54.460,725, 515, 447, -7, 1, -9, -3, 12, 14, 907, 822, 33,l
2025-03-10 13:54:54.515,725, 461, 532, -2, -7, -7, -4, 12, 13, 941, 871, 22,l
2025-03-10 13:54:54.570,697, 700, 307, 48, 23, 26, -4, 11, 14, 952, 868, 46,l
2025-03-10 13:54:54.623,797, 431, 442, 8, 20, 16, -4, 10, 13, 954, 832, 37,l
2025-03-10 13:54:54.677,791, 330, 654, 2, 4, 15, -3, 12, 13, 910, 688, 47,l
2025-03-10 13:54:54.732,680, 447, 488, -16, 31, -27, -3, 12, 11, 833, 642, 21,l
2025-03-10 13:54:54.789,608, 522, 593, -1, -6, -7, -2, 12, 10, 788, 654, 26,l
2025-03-10 13:54:54.843,710, 495, 530, 5, -14, 3, -3, 12, 12, 785, 642, 48,l
2025-03-10 13:54:55.217,729, 503, 502, -1, 2, -6, -3, 11, 12, 718, 514, 34,m
2025-03-10 13:54:55.274,719, 486, 501, 0, 1, -6, -3, 11, 12, 718, 512, 29,m
2025-03-10 13:54:55.328,725, 513, 504, 1, -2, -6, -3, 13, 12, 712, 525, 20,m
2025-03-10 13:54:55.380,695, 492, 496, -2, -7, -9, -2, 11, 12, 776, 598, 29,m
2025-03-10 13:54:55.436,737, 440, 601, -13, -2, -13, -3, 11, 11, 908, 772, 19,m
2025-03-10 13:54:55.495,669, 676, 375, 9, 12, 14, -1, 10, 11, 944, 816, 27,m
2025-03-10 13:54:55.543,747, 415, 489, 8, 6, 3, -5, 12, 13, 948, 816, 30,m
2025-03-10 13:54:55.595,773, 193, 622, 5, -31, -17, -5, 11, 11, 936, 848, 41,m
2025-03-10 13:54:55.656,673, 611, 536, 1, -14, 5, -5, 9, 14, 951, 874, 35,m
2025-03-10 13:54:55.709,741, 432, 503, -6, 21, 20, -4, 13, 13, 954, 868, 45,m
2025-03-10 13:54:55.766,688, 152, 799, 8, -20, -16, -5, 12, 13, 944, 866, 51,m
2025-03-10 13:54:55.819,742, 498, 575, 2, -14, 2, -4, 10, 12, 959, 894, 22,m
2025-03-10 13:54:55.875,804, 347, 459, -4, 23, 33, -3, 14, 12, 959, 864, 40,m
2025-03-10 13:54:55.931,763, 381, 368, -23, 47, -30, -5, 14, 13, 943, 828, 47,m
2025-03-10 13:54:55.986,570, 482, 685, -8, 7, -17, -2, 12, 11, 917, 768, 38,m
2025-03-10 13:54:56.043,665, 519, 553, 10, -16, -4, -3, 11, 11, 886, 727, 42,m
2025-03-10 13:54:56.395,714, 487, 520, 2, 5, -2, -4, 12, 13, 861, 553, 37,n
2025-03-10 13:54:56.446,706, 493, 538, 3, 4, -2, -3, 12, 13, 864, 558, 21,n
2025-03-10 13:54:56.502,724, 521, 485, 2, -4, 3, -3, 10, 11, 868, 580, 28,n
2025-03-10 13:54:56.555,722, 488, 491, 1, 0, -5, -2, 11, 11, 874, 616, 41,n
2025-03-10 13:54:56.612,693, 491, 516, -1, -9, -6, -3, 11, 12, 882, 680, 20,n
2025-03-10 13:54:56.665,731, 551, 491, -15, 0, -10, -3, 11, 13, 925, 790, 29,n
2025-03-10 13:54:56.719,734, 493, 512, 1, 3, 0, -4, 11, 14, 945, 826, 30,n
2025-03-10 13:54:56.776,669, 537, 401, -20, 16, 26, -5, 10, 12, 957, 825, 27,n
2025-03-10 13:54:56.827,787, 215, 773, 3, -9, -13, -3, 12, 12, 944, 854, 51,n
2025-03-10 13:54:56.888,523, 467, 656, 3, -17, -7, -5, 12, 14, 961, 894, 18,n
2025-03-10 13:54:56.942,653, 651, 334, -19, 27, 34, -5, 12, 14, 964, 891, 39,n
2025-03-10 13:54:56.995,840, 261, 636, 0, 4, -3, -3, 14, 13, 948, 826, 31,n
2025-03-10 13:54:57.048,678, 445, 729, -19, 44, -39, -3, 11, 11, 909, 756, 76,n
2025-03-10 13:54:57.335,761, 475, 456, -3, 2, 1, -3, 13, 12, 909, 750, 30,o
2025-03-10 13:54:57.385,752, 466, 481, -2, 3, 0, -4, 12, 12, 917, 756, 34,o
2025-03-10 13:54:57.436,727, 480, 511, -2, -3, 1, -4, 10, 13, 920, 766, 40,o
2025-03-10 13:54:57.492,735, 493, 488, 1, -1, 2, -4, 13, 13, 931, 784, 19,o
2025-03-10 13:54:57.545,720, 483, 480, -4, 1, -1, -3, 12, 12, 926, 815, 43,o
2025-03-10 13:54:57.605,701, 480, 544, -16, -2, -9, -2, 13, 13, 935, 860, 30,o
2025-03-10 13:54:57.659,828, 399, 440, -2, -5, -15, -2, 11, 12, 937, 853, 42,o
2025-03-10 13:54:57.715,649, 831, 355, -62, 27, 50, -4, 11, 12, 950, 887, 27,o
2025-03-10 13:54:57.768,620, 171, 792, -10, -27, -18, -5, 13, 12, 938, 900, 48,o
2025-03-10 13:54:57.830,964, 513, 360, 34, -5, -29, -5, 13, 14, 856, 812, 43,o
2025-03-10 13:54:57.885,666, 573, 512, -14, 41, -8, -3, 11, 13, 862, 742, 30,o
2025-03-10 13:54:58.138,708, 509, 503, 0, -10, -1, -2, 11, 13, 846, 713, 47,p
2025-03-10 13:54:58.194,710, 499, 502, 0, -10, -2, -4, 11, 13, 847, 716, 47,p
2025-03-10 13:54:58.248,724, 503, 492, -4, -12, -6, -3, 11, 12, 860, 757, 105,p
2025-03-10 13:54:58.310,704, 515, 497, -3, -21, -9, -3, 12, 12, 849, 802, 205,p
2025-03-10 13:54:58.360,764, 403, 550, -7, 2, -8, -4, 11, 13, 899, 855, 84,p
2025-03-10 13:54:58.418,755, 472, 665, 45, 44, 49, -2, 10, 13, 942, 857, 33,p
2025-03-10 13:54:58.467,756, 428, 458, -3, 17, 19, -3, 11, 11, 935, 814, 34,p
2025-03-10 13:54:58.529,898, 290, 582, 48, -31, -34, -2, 13, 12, 916, 858, 50,p
2025-03-10 13:54:58.582,483, 570, 483, 6, -6, 6, -5, 11, 13, 936, 900, 50,p
2025-03-10 13:54:58.641,401, 407, 534, -19, 26, 13, -4, 12, 12, 944, 882, 43,p
2025-03-10 13:54:58.696,1043, 291, 442, -7, 30, -31, -3, 11, 10, 906, 822, 33,p
2025-03-10 13:54:58.749,513, 527, 812, -33, 28, -30, -1, 11, 8, 889, 821, 34,p
2025-03-10 13:55:02.481,737, 568, 493, -2, -5, -6, -3, 9, 12, 875, 734, 19,q
2025-03-10 13:55:02.535,749, 569, 492, -4, -8, -7, -3, 9, 12, 875, 746, 29,q
2025-03-10 13:55:02.590,753, 581, 445, -27, -10, -8, -2, 9, 13, 891, 752, 33,q
2025-03-10 13:55:02.645,602, 571, 487, -43, 11, 1, -3, 10, 12, 912, 717, 31,q
2025-03-10 13:55:02.704,574, 529, 596, -4, -5, 12, -3, 10, 13, 923, 746, 44,q
2025-03-10 13:55:02.757,696, 505, 486, 9, -20, 22, -5, 10, 13, 933, 771, 33,q
2025-03-10 13:55:02.810,817, 498, 374, 5, -7, 9, -5, 11, 15, 933, 791, 35,q
2025-03-10 13:55:02.861,744, 499, 474, -2, 5, 4, -5, 12, 14, 939, 828, 35,q
2025-03-10 13:55:02.916,668, 491, 607, 3, -9, 15, -4, 11, 13, 940, 859, 50,q
2025-03-10 13:55:02.966,774, 455, 322, 2, -29, 8, -4, 13, 16, 949, 886, 39,q
2025-03-10 13:55:03.025,751, 475, 541, -30, 4, -2, -4, 13, 15, 951, 911, 44,q
2025-03-10 13:55:03.077,690, 431, 612, -9, -11, -18, -6, 11, 14, 955, 904, 52,q
2025-03-10 13:55:03.138,1066, 898, 213, -2, 33, 47, -4, 12, 14, 964, 902, 30,q
2025-03-10 13:55:03.195,527, 184, 584, -27, 2, 15, -3, 12, 13, 963, 925, 18,q
2025-03-10 13:55:03.245,698, 310, 755, 20, -16, -17, -4, 12, 15, 959, 920, 50,q
2025-03-10 13:55:03.308,165, 477, 465, -15, 33, 47, -5, 14, 13, 963, 903, 55,q
2025-03-10 13:55:03.363,771, 415, 650, -21, -8, 26, -3, 11, 14, 968, 940, 17,q
2025-03-10 13:55:03.425,1110, 492, -271, -19, 86, -37, -4, 14, 14, 929, 901, 55,q
2025-03-10 13:55:03.478,462, 578, 957, -78, 121, -52, 0, 12, 7, 900, 766, 41,q
2025-03-10 13:55:03.742,533, 490, 380, 4, 17, 59, -4, 10, 12, 838, 665, 23,r
2025-03-10 13:55:03.799,579, 420, 491, 11, 3, 55, -4, 10, 12, 836, 669, 14,r
2025-03-10 13:55:03.855,750, 444, 243, -12, 8, 4, -2, 10, 13, 852, 714, 27,r
2025-03-10 13:55:03.913,907, 903, 613, -33, -12, -12, -3, 10, 14, 881, 755, 30,r
2025-03-10 13:55:03.970,544, 387, 754, 30, -56, -9, -2, 11, 13, 913, 826, 42,r
2025-03-10 13:55:04.025,727, 344, 645, 14, -14, -19, -3, 11, 14, 950, 894, 26,r
2025-03-10 13:55:04.079,530, 576, 406, -51, 46, 63, -5, 11, 16, 961, 869, 28,r
2025-03-10 13:55:04.137,774, 54, 905, -12, -9, -26, -4, 12, 13, 955, 904, 32,r
2025-03-10 13:55:04.196,633, 397, 614, 10, -20, -8, -4, 12, 14, 965, 938, 32,r
2025-03-10 13:55:04.245,914, 355, 274, -20, 46, 3, -4, 12, 14, 953, 893, 45,r
2025-03-10 13:55:04.307,532, 471, 813, -24, 33, -15, -2, 13, 10, 953, 831, 20,r
2025-03-10 13:55:04.596,712, 480, 504, 3, -13, 7, -3, 11, 11, 944, 843, 34,s
2025-03-10 13:55:04.650,722, 463, 495, 2, -14, 7, -4, 12, 11, 943, 846, 37,s
2025-03-10 13:55:04.706,736, 507, 466, -13, 2, -2, -3, 11, 13, 950, 874, 34,s
2025-03-10 13:55:04.760,600, 479, 586, -6, 8, 0, -2, 12, 12, 950, 891, 31,s
2025-03-10 13:55:04.808,875, 447, 365, 32, 13, 15, -2, 12, 13, 964, 904, 37,s
2025-03-10 13:55:04.866,645, 676, 575, 2, 13, 18, -3, 13, 13, 963, 913, 49,s
2025-03-10 13:55:04.923,970, 314, 410, -28, 21, 1, -3, 14, 12, 950, 809, 51,s
2025-03-10 13:55:04.981,960, 462, 120, -29, 58, -34, -2, 13, 11, 935, 771, 24,s
2025-03-10 13:55:05.036,414, 504, 931, -4, -2, -18, -1, 12, 9, 930, 787, 37,s
2025-03-10 13:55:05.092,553, 461, 714, 26, -43, 4, -1, 13, 10, 921, 800, 29,s
2025-03-10 13:55:05.356,677, 496, 577, 0, -8, 3, -2, 12, 11, 894, 754, 49,t
2025-03-10 13:55:05.410,679, 478, 555, 0, -10, 3, -2, 13, 11, 894, 757, 45,t
2025-03-10 13:55:05.466,736, 453, 521, 1, -12, 1, -3, 11, 13, 907, 775, 31,t
2025-03-10 13:55:05.523,704, 481, 530, -3, -18, 0, -2, 11, 12, 919, 812, 36,t
2025-03-10 13:55:05.580,681, 485, 620, -24, -3, -15, -5, 13, 13, 943, 876, 25,t
2025-03-10 13:55:05.628,709, 841, 365, 45, 29, 25, -3, 12, 13, 958, 875, 46,t
2025-03-10 13:55:05.690,808, 496, 282, -16, 31, 33, -3, 14, 11, 958, 884, 50,t
2025-03-10 13:55:05.745,642, 231, 410, 12, -19, -75, -2, 12, 12, 944, 820, 35,t
2025-03-10 13:55:05.801,819, 787, 661, -14, -18, -11, -3, 12, 14, 957, 885, 20,t
2025-03-10 13:55:05.859,694, 517, 476, -30, 3, 48, -3, 11, 14, 968, 934, 35,t
2025-03-10 13:55:05.920,743, 499, 199, -14, 65, -37, -3, 12, 13, 951, 873, 36,t
2025-03-10 13:55:05.972,539, 466, 865, -27, 14, -10, -2, 12, 9, 918, 704, 30,t
2025-03-10 13:55:06.366,721, 470, 534, 0, 0, 0, -2, 11, 12, 899, 686, 46,u
2025-03-10 13:55:06.424,725, 486, 537, -2, 0, 0, -3, 12, 12, 901, 685, 27,u
2025-03-10 13:55:06.476,718, 474, 528, -3, -1, 0, -2, 13, 12, 905, 678, 31,u
2025-03-10 13:55:06.529,716, 467, 524, -3, 1, -1, -3, 11, 13, 903, 674, 47,u
2025-03-10 13:55:06.586,700, 468, 527, -3, 0, -1, -4, 12, 11, 906, 669, 24,u
2025-03-10 13:55:06.641,711, 490, 498, -1, -6, -1, -2, 11, 14, 908, 689, 44,u
2025-03-10 13:55:06.694,750, 473, 500, 1, -2, -1, -2, 12, 14, 910, 701, 38,u
2025-03-10 13:55:06.748,691, 489, 543, -3, -3, -1, -2, 11, 13, 911, 708, 51,u
2025-03-10 13:55:06.796,788, 580, 497, 3, 1, -12, -2, 10, 14, 936, 764, 34,u
2025-03-10 13:55:06.856,998, 857, 276, 32, 19, 31, -3, 12, 12, 953, 832, 37,u
2025-03-10 13:55:06.916,779, 716, 660, -27, 6, 29, -2, 13, 12, 958, 877, 28,u
2025-03-10 13:55:06.973,712, 326, 548, 7, -18, -28, -4, 13, 13, 947, 894, 30,u
2025-03-10 13:55:07.026,755, 723, 331, 24, 5, 13, -3, 12, 14, 961, 896, 30,u
2025-03-10 13:55:07.077,857, 322, 379, 1, 17, 20, -3, 14, 12, 960, 854, 33,u
2025-03-10 13:55:07.135,744, 383, 292, -5, 48, -47, -3, 15, 11, 938, 814, 34,u
2025-03-10 13:55:07.459,720, 483, 530, -4, 1, 1, -2, 13, 11, 872, 634, 33,v
2025-03-10 13:55:07.513,724, 473, 546, -4, 0, 1, -3, 11, 12, 873, 627, 33,v
2025-03-10 13:55:07.567,735, 464, 500, 0, 1, -4, -2, 13, 11, 863, 591, 44,v
2025-03-10 13:55:07.622,642, 450, 593, -3, -11, -9, -3, 12, 12, 858, 621, 30,v
2025-03-10 13:55:07.676,718, 503, 544, -20, 2, -9, -4, 11, 13, 914, 800, 49,v
2025-03-10 13:55:07.733,736, 502, 575, 0, 16, 45, -4, 12, 14, 960, 862, 14,v
2025-03-10 13:55:07.785,727, 530, 388, 9, 11, 15, -3, 13, 12, 957, 854, 29,v
2025-03-10 13:55:07.843,764, 335, 527, -22, -15, -3, -2, 14, 12, 960, 903, 32,v
2025-03-10 13:55:07.901,769, 450, 435, -23, -24, -25, -4, 14, 13, 960, 932, 31,v
2025-03-10 13:55:07.955,730, 465, 512, 5, -4, -6, -3, 14, 13, 965, 931, 19,v
2025-03-10 13:55:08.008,740, 477, 462, 7, 0, 1, -4, 13, 12, 956, 908, 28,v
2025-03-10 13:55:08.060,922, 406, 255, 6, 16, -6, -4, 13, 13, 935, 825, 31,v
2025-03-10 13:55:08.116,561, 461, 703, -28, 58, -12, -3, 12, 12, 908, 678, 26,v
2025-03-10 13:55:08.172,587, 438, 705, 15, -17, 3, -3, 14, 11, 888, 630, 20,v
2025-03-10 13:55:08.515,717, 466, 557, 0, -2, 1, -2, 13, 13, 865, 471, 18,w
2025-03-10 13:55:08.566,722, 452, 549, 1, -2, 2, -2, 13, 13, 864, 467, 18,w
2025-03-10 13:55:08.623,708, 461, 559, -2, 0, -1, -3, 12, 11, 866, 472, 29,w
2025-03-10 13:55:08.675,708, 449, 559, -2, -2, -1, -3, 13, 11, 870, 486, 34,w
2025-03-10 13:55:08.726,675, 469, 569, 4, -5, 1, -3, 13, 12, 874, 418, 25,w
2025-03-10 13:55:08.785,694, 430, 544, 9, -11, -4, -4, 13, 11, 865, 449, 29,w
2025-03-10 13:55:08.844,670, 462, 571, 3, -23, -11, -3, 12, 12, 892, 613, 31,w
2025-03-10 13:55:08.895,748, 363, 668, 30, -9, -14, -4, 12, 13, 952, 830, 17,w
2025-03-10 13:55:08.945,771, 561, 375, 9, 20, 37, -3, 12, 12, 961, 862, 48,w
2025-03-10 13:55:09.006,709, 447, 719, -19, 7, 13, -3, 14, 12, 961, 888, 32,w
2025-03-10 13:55:09.065,740, 366, 465, -21, -17, -22, -2, 13, 12, 960, 916, 34,w
2025-03-10 13:55:09.122,563, 324, 593, 12, -14, -14, -2, 13, 11, 964, 928, 31,w
2025-03-10 13:55:09.175,746, 688, 391, 4, 22, 41, -4, 13, 11, 969, 913, 33,w
2025-03-10 13:55:09.226,673, 499, 517, -21, 8, 26, -2, 14, 12, 971, 922, 22,w
2025-03-10 13:55:09.289,823, 292, 543, -1, -28, -13, -5, 15, 11, 966, 937, 48,w
2025-03-10 13:55:09.342,979, 440, 81, -10, 37, -14, -5, 13, 11, 945, 904, 45,w
2025-03-10 13:55:09.397,552, 395, 858, -28, 56, -24, -2, 14, 9, 940, 821, 33,w
2025-03-10 13:55:09.705,704, 453, 598, 2, -8, 2, -2, 13, 10, 908, 654, 33,x
2025-03-10 13:55:09.766,699, 451, 592, 2, -10, 2, -2, 13, 10, 910, 658, 38,x
2025-03-10 13:55:09.815,749, 445, 508, 9, -15, 2, -1, 12, 10, 918, 715, 20,x
2025-03-10 13:55:09.872,759, 469, 494, 13, -17, 8, -4, 13, 11, 927, 790, 29,x
2025-03-10 13:55:09.928,846, 378, 296, -14, -2, -11, -4, 12, 12, 950, 894, 45,x
2025-03-10 13:55:09.986,1012, 570, 500, 15, 18, -2, -4, 13, 13, 964, 904, 20,x
2025-03-10 13:55:10.044,482, 616, 169, -61, 39, 21, -2, 14, 13, 957, 841, 27,x
2025-03-10 13:55:10.095,866, 411, 511, 34, -20, -68, -3, 13, 11, 936, 820, 51,x
2025-03-10 13:55:10.155,742, 775, 117, -3, -17, 42, -3, 12, 14, 965, 917, 53,x
2025-03-10 13:55:10.212,733, 426, 480, -21, 28, 61, -4, 13, 12, 973, 910, 18,x
2025-03-10 13:55:10.266,714, 272, 283, -34, 86, -59, -2, 15, 11, 947, 803, 51,x
2025-03-10 13:55:10.326,453, 449, 1047, -16, 8, -28, -1, 12, 6, 889, 716, 52,x
2025-03-10 13:55:10.618,712, 439, 560, -2, -1, 1, -2, 13, 12, 881, 683, 16,y
2025-03-10 13:55:10.676,698, 440, 572, 0, -3, 1, -2, 13, 12, 881, 687, 19,y
2025-03-10 13:55:10.728,693, 455, 568, 3, -21, -1, -4, 13, 12, 889, 718, 28,y
2025-03-10 13:55:10.785,701, 471, 546, -11, 3, -17, -4, 13, 12, 927, 797, 35,y
2025-03-10 13:55:10.843,459, 1162, 284, 7, 26, 84, -3, 12, 12, 959, 881, 52,y
2025-03-10 13:55:10.896,708, 408, 786, 16, -7, 15, -2, 14, 12, 958, 889, 35,y
2025-03-10 13:55:10.952,544, 509, 812, 33, -15, -12, -4, 13, 11, 944, 896, 31,y
2025-03-10 13:55:11.009,823, 662, 449, -26, 29, 41, -3, 12, 12, 964, 914, 30,y
2025-03-10 13:55:11.066,800, 271, 441, -54, 26, 19, -2, 15, 10, 946, 781, 51,y
2025-03-10 13:55:11.126,1034, 502, 237, -9, 25, -74, -3, 14, 11, 880, 714, 26,y
2025-03-10 13:55:11.179,415, 503, 835, 10, -29, -4, -2, 13, 10, 895, 788, 35,y
2025-03-10 13:55:11.496,632, 438, 571, -3, -7, -3, -2, 13, 12, 902, 707, 31,z
2025-03-10 13:55:11.556,626, 441, 603, -1, -13, -2, -3, 13, 13, 906, 711, 51,z
2025-03-10 13:55:11.609,913, 284, 405, 2, 3, -9, -4, 13, 14, 945, 848, 18,z
2025-03-10 13:55:11.666,664, 274, 493, 15, -6, 20, -3, 13, 13, 961, 924, 47,z
2025-03-10 13:55:11.719,586, 458, 450, 4, 27, 23, -3, 13, 13, 962, 897, 30,z
2025-03-10 13:55:11.773,884, 455, 481, -35, 15, 9, -2, 14, 11, 958, 832, 53,z
2025-03-10 13:55:11.826,794, 421, 430, 19, -2, 36, -3, 14, 11, 970, 939, 48,z
2025-03-10 13:55:11.886,800, 119, 436, 24, -1, -52, -2, 15, 11, 954, 889, 33,z
2025-03-10 13:55:11.940,730, 666, 960, 31, -64, 7, -2, 11, 11, 950, 884, 42,z
2025-03-10 13:55:11.995,850, 534, 441, -21, -6, 33, -1, 13, 14, 971, 944, 36,z
2025-03-10 13:55:12.048,953, 255, 363, 13, 16, -24, -4, 14, 12, 949, 884, 46,z
2025-03-10 13:55:12.353,744, 480, 504, -4, -2, 1, -3, 11, 10, 865, 677, 43,0
2025-03-10 13:55:12.407,739, 485, 513, -5, -1, 0, -4, 12, 12, 865, 685, 36,0
2025-03-10 13:55:12.459,728, 479, 545, 7, -8, 6, -2, 12, 11, 871, 718, 24,0
2025-03-10 13:55:12.511,641, 487, 588, 6, -21, 8, -3, 12, 12, 893, 763, 33,0
2025-03-10 13:55:12.571,548, 628, 465, -35, -2, -17, -3, 12, 12, 921, 868, 52,0
2025-03-10 13:55:12.626,686, 277, 557, 41, 11, -21, -4, 10, 13, 944, 857, 52,0
2025-03-10 13:55:12.686,652, 311, 334, -44, 40, 89, -4, 13, 13, 959, 910, 43,0
2025-03-10 13:55:12.740,433, -74, 869, 9, -47, -54, -4, 15, 12, 963, 932, 22,0
2025-03-10 13:55:12.796,856, 571, 302, 60, -15, -36, -4, 12, 12, 870, 824, 53,0
2025-03-10 13:55:12.855,605, 485, 577, -48, 78, -17, -2, 11, 11, 886, 739, 53,0
2025-03-10 13:55:13.135,716, 484, 506, -6, -10, -1, -4, 14, 11, 869, 570, 34,1
2025-03-10 13:55:13.190,717, 476, 509, -4, -8, -1, -2, 12, 11, 868, 573, 32,1
2025-03-10 13:55:13.245,734, 459, 549, 5, -10, 1, -2, 11, 11, 870, 641, 26,1
2025-03-10 13:55:13.975,750, 492, 465, 11, -37, 6, 0, 12, 10, 792, 497, 40,2
2025-03-10 13:55:14.027,790, 466, 442, 10, -31, 7, -1, 12, 9, 801, 522, 26,2
2025-03-10 13:55:14.075,716, 481, 532, 0, 4, -2, -3, 13, 9, 833, 628, 40,2
2025-03-10 13:55:14.131,668, 459, 593, 1, -8, 2, -2, 13, 9, 839, 665, 49,2
2025-03-10 13:55:14.187,707, 497, 542, -7, -11, 2, -2, 12, 10, 844, 642, 31,2
2025-03-10 13:55:14.241,744, 460, 508, -5, 0, -1, -3, 12, 10, 852, 631, 32,2
2025-03-10 13:55:14.295,699, 452, 572, -3, -1, -2, -3, 12, 10, 856, 637, 19,2
2025-03-10 13:55:14.354,708, 448, 553, 0, -5, -3, -2, 13, 10, 849, 658, 44,2
2025-03-10 13:55:14.405,728, 462, 539, 0, -6, -2, -2, 11, 11, 848, 655, 28,2
2025-03-10 13:55:14.459,728, 450, 545, -4, 0, 0, -3, 13, 11, 858, 660, 35,2
2025-03-10 13:55:14.510,736, 465, 553, 0, -1, 1, -3, 12, 11, 858, 666, 51,2
2025-03-10 13:55:14.566,731, 459, 541, -2, -1, -1, -1, 13, 12, 861, 671, 41,2
2025-03-10 13:55:14.615,719, 463, 549, -3, 0, -1, -3, 14, 10, 860, 676, 51,2
2025-03-10 13:55:14.677,713, 466, 541, -1, -1, -2, -3, 14, 11, 861, 677, 54,2
2025-03-10 13:55:14.729,720, 465, 546, -1, 0, -2, -3, 12, 11, 859, 680, 53,2
2025-03-10 13:55:14.788,717, 469, 537, -1, -2, -1, -3, 12, 12, 862, 682, 35,2
2025-03-10 13:55:14.838,701, 462, 555, -1, -3, 0, -3, 13, 11, 865, 687, 30,2
2025-03-10 13:55:14.892,705, 442, 555, 8, -9, 0, -2, 12, 11, 869, 688, 20,2
2025-03-10 13:55:14.945,733, 460, 506, 2, -6, -3, -2, 13, 13, 859, 692, 52,2
2025-03-10 13:55:14.995,659, 464, 603, 0, -9, 0, -4, 13, 13, 870, 690, 36,2
2025-03-10 13:55:15.053,711, 380, 301, 3, 1, -24, -4, 11, 13, 910, 763, 31,2
2025-03-10 13:55:15.106,776, 680, 330, 6, -19, 19, -4, 12, 12, 950, 922, 27,2
2025-03-10 13:55:15.163,526, 716, 488, 0, 11, 14, -6, 11, 12, 955, 889, 35,2
2025-03-10 13:55:15.216,813, 349, 497, -18, 7, 5, -5, 14, 14, 965, 822, 24,2
2025-03-10 13:55:15.266,642, 132, 364, 4, 3, 50, -4, 13, 13, 965, 928, 46,2
2025-03-10 13:55:15.322,875, 291, 328, 0, 18, -17, -4, 15, 11, 956, 897, 44,2
2025-03-10 13:55:15.376,584, 383, 668, -34, 68, -61, -2, 14, 10, 905, 688, 39,2
2025-03-10 13:55:15.668,718, 482, 539, -1, -2, 2, -2, 12, 11, 874, 644, 28,3
2025-03-10 13:55:15.721,720, 469, 546, -1, -2, 2, -2, 12, 11, 873, 650, 19,3
2025-03-10 13:55:15.775,708, 462, 556, 0, -3, 0, -3, 13, 11, 876, 687, 29,3
2025-03-10 13:55:15.828,726, 479, 530, 1, -7, 0, -2, 11, 11, 871, 707, 50,3
2025-03-10 13:55:15.883,714, 471, 539, -5, -2, -1, -4, 13, 12, 883, 714, 34,3
2025-03-10 13:55:15.938,716, 464, 523, -6, -5, -2, -4, 12, 9, 884, 725, 52,3
2025-03-10 13:55:15.992,729, 476, 513, -1, -3, -1, -3, 12, 11, 891, 728, 45,3
2025-03-10 13:55:16.048,682, 478, 558, -2, -9, 0, -3, 11, 13, 892, 735, 53,3
2025-03-10 13:55:16.102,653, 449, 579, 3, -29, 1, -2, 12, 14, 903, 763, 54,3
2025-03-10 13:55:16.159,756, 469, 537, -1, -1, -13, -3, 12, 12, 923, 843, 56,3
2025-03-10 13:55:16.213,919, 445, 604, 48, -14, -5, -3, 11, 12, 943, 906, 37,3
2025-03-10 13:55:16.265,763, 343, 513, 16, -6, 3, -4, 12, 14, 947, 922, 35,3
2025-03-10 13:55:16.322,821, 449, 484, -23, 15, 9, -5, 12, 14, 946, 901, 50,3
2025-03-10 13:55:16.376,869, 350, 453, 4, 16, 26, -5, 12, 13, 960, 918, 37,3
2025-03-10 13:55:16.428,892, 568, 570, 0, 13, 20, -4, 14, 12, 967, 919, 26,3
2025-03-10 13:55:16.487,854, 278, 472, 12, 18, -3, -4, 13, 13, 924, 735, 42,3
2025-03-10 13:55:16.541,636, 338, 470, -44, 82, -40, -1, 14, 10, 893, 721, 21,3
2025-03-10 13:55:17.049,714, 489, 525, -2, -4, -2, -3, 12, 10, 848, 697, 31,4
2025-03-10 13:55:17.107,712, 487, 520, -3, -4, -2, -4, 13, 12, 848, 701, 29,4
2025-03-10 13:55:17.158,704, 470, 546, 2, -10, 1, -2, 12, 11, 854, 728, 53,4
2025-03-10 13:55:17.216,730, 476, 496, 1, -12, -4, -3, 12, 11, 863, 764, 32,4
2025-03-10 13:55:17.273,706, 466, 521, -1, -15, -4, -5, 11, 13, 880, 796, 48,4
2025-03-10 13:55:17.325,761, 475, 453, 3, -21, -1, -5, 11, 12, 906, 851, 49,4
2025-03-10 13:55:17.375,736, 503, 604, -15, -6, -7, -4, 12, 14, 940, 899, 38,4
2025-03-10 13:55:17.438,839, 398, 368, 37, 7, -11, -4, 11, 14, 951, 868, 41,4
2025-03-10 13:55:17.490,919, 523, 185, 21, 8, 0, -4, 11, 15, 953, 865, 53,4
2025-03-10 13:55:17.548,631, 384, 415, -19, 4, 36, -5, 11, 15, 966, 938, 48,4
2025-03-10 13:55:17.605,767, 119, 531, 19, -11, -23, -5, 12, 13, 943, 905, 49,4
2025-03-10 13:55:17.656,625, 702, 1014, 2, -35, 6, -4, 10, 11, 940, 883, 47,4
2025-03-10 13:55:17.710,644, 974, 61, 0, 20, 57, -5, 12, 14, 965, 907, 48,4
2025-03-10 13:55:17.765,677, 445, 561, -6, 20, 27, -5, 12, 13, 950, 757, 45,4
2025-03-10 13:55:18.091,725, 486, 498, 0, -3, 3, -3, 11, 13, 907, 743, 34,5
2025-03-10 13:55:18.146,731, 491, 491, 0, -2, 3, -3, 10, 12, 910, 744, 34,5
2025-03-10 13:55:18.195,746, 469, 491, -7, 3, -1, -4, 12, 12, 907, 746, 54,5
2025-03-10 13:55:18.245,709, 496, 521, -2, -5, 1, -4, 13, 12, 919, 747, 41,5
2025-03-10 13:55:18.305,732, 475, 489, -7, 0, -3, -4, 11, 13, 917, 754, 45,5
2025-03-10 13:55:18.358,732, 472, 505, -1, -3, 1, -4, 13, 12, 926, 758, 29,5
2025-03-10 13:55:18.415,706, 476, 520, -4, -1, -2, -4, 12, 14, 926, 761, 32,5
2025-03-10 13:55:18.474,656, 354, 530, -3, -45, -19, -4, 13, 13, 944, 825, 35,5
2025-03-10 13:55:18.525,721, 649, 190, -21, -11, 38, -5, 11, 12, 960, 927, 38,5
2025-03-10 13:55:18.577,578, 373, 737, 14, -11, -9, -3, 12, 14, 952, 912, 51,5
2025-03-10 13:55:18.637,1009, 442, 376, 44, 10, -12, -5, 10, 14, 955, 898, 38,5
2025-03-10 13:55:18.699,779, 476, 598, -20, 31, 39, -3, 12, 14, 964, 917, 49,5
2025-03-10 13:55:18.751,567, 159, 598, -6, 19, 0, -3, 12, 12, 945, 766, 36,5
2025-03-10 13:55:18.805,1019, 466, 139, -23, 56, -42, -2, 14, 13, 806, 579, 56,5
2025-03-10 13:55:19.085,709, 494, 510, 9, -16, 8, -2, 11, 12, 877, 710, 32,6
2025-03-10 13:55:19.138,716, 491, 498, 11, -15, 8, -2, 11, 12, 877, 713, 30,6
2025-03-10 13:55:19.196,740, 484, 489, -2, -2, 4, -2, 10, 12, 883, 733, 59,6
2025-03-10 13:55:19.246,721, 501, 520, 4, -6, 3, -4, 12, 13, 896, 755, 53,6
2025-03-10 13:55:19.299,739, 481, 510, 6, -8, 5, -4, 12, 12, 912, 776, 44,6
2025-03-10 13:55:19.357,719, 510, 481, 13, -12, 11, -4, 10, 13, 917, 828, 41,6
2025-03-10 13:55:19.416,856, 545, 247, -21, -2, -8, -5, 13, 14, 932, 886, 50,6
2025-03-10 13:55:19.470,525, 328, 631, 15, -4, -15, -4, 11, 13, 954, 908, 22,6
2025-03-10 13:55:19.525,899, 580, 367, -33, 41, 73, -4, 11, 10, 958, 919, 64,6
2025-03-10 13:55:19.581,440, 83, 964, -33, -16, -5, -2, 13, 12, 959, 931, 43,6
2025-03-10 13:55:19.638,942, 501, 319, 35, 0, -29, -4, 12, 14, 889, 839, 43,6
2025-03-10 13:55:19.690,651, 478, 564, -26, 57, -20, -3, 11, 12, 873, 768, 29,6
2025-03-10 13:55:19.993,732, 497, 471, -1, -4, -1, -5, 13, 12, 865, 675, 53,7
2025-03-10 13:55:20.047,740, 504, 480, -2, -3, -1, -3, 11, 11, 867, 674, 45,7
2025-03-10 13:55:20.104,659, 463, 548, -5, -9, -2, -3, 11, 13, 875, 695, 32,7
2025-03-10 13:55:20.160,1513, 317, 287, -58, -9, -17, -4, 10, 13, 899, 755, 44,7
2025-03-10 13:55:20.217,830, 744, 508, 27, -10, 17, -3, 10, 14, 932, 904, 60,7
2025-03-10 13:55:20.271,615, 590, 810, 19, -1, 16, -3, 12, 14, 957, 922, 27,7
2025-03-10 13:55:20.325,864, 522, 323, 7, 31, 26, -4, 11, 12, 953, 898, 57,7
2025-03-10 13:55:20.377,806, 216, 619, -40, 10, -19, -3, 12, 11, 939, 799, 36,7
2025-03-10 13:55:20.439,1084, 221, 198, -17, -11, -25, -3, 12, 13, 949, 873, 35,7
2025-03-10 13:55:20.496,498, 300, 248, -19, -4, 40, -3, 12, 13, 967, 936, 39,7
2025-03-10 13:55:20.553,857, 326, 137, -3, 46, -38, -4, 12, 14, 936, 852, 64,7
2025-03-10 13:55:20.608,632, 485, 904, -53, 55, -40, -2, 11, 11, 884, 580, 49,7
2025-03-10 13:55:20.872,732, 494, 468, 5, -7, 8, -4, 12, 12, 912, 759, 62,8
2025-03-10 13:55:20.925,740, 492, 469, 4, -6, 8, -3, 12, 11, 913, 766, 54,8
2025-03-10 13:55:20.975,722, 441, 522, 3, -9, 1, -4, 11, 12, 916, 794, 58,8
2025-03-10 13:55:21.036,838, 506, 126, -50, -7, -12, -5, 10, 12, 929, 849, 59,8
2025-03-10 13:55:21.090,706, 502, 602, -14, 0, -8, -5, 10, 12, 934, 871, 48,8
2025-03-10 13:55:21.147,936, 1004, 257, 24, 14, 45, -4, 12, 12, 948, 891, 65,8
2025-03-10 13:55:21.205,521, 484, 563, -27, 15, 24, -5, 14, 13, 965, 930, 27,8
2025-03-10 13:55:21.260,875, 366, 305, 20, -43, -78, -2, 15, 14, 939, 928, 43,8
2025-03-10 13:55:21.316,786, 583, 382, 9, -21, -8, -3, 11, 13, 952, 937, 55,8
2025-03-10 13:55:21.371,770, 445, 433, 5, 30, 35, -4, 10, 13, 961, 925, 50,8
2025-03-10 13:55:21.428,1077, 218, 207, -13, 48, -30, -4, 13, 14, 935, 823, 55,8
2025-03-10 13:55:21.670,793, 524, 380, -2, -2, 2, -3, 11, 14, 917, 826, 72,9
2025-03-10 13:55:21.720,788, 523, 388, -6, 1, 2, -4, 13, 12, 918, 826, 63,9
2025-03-10 13:55:21.772,718, 464, 508, 1, -4, 3, -5, 13, 12, 926, 838, 56,9
2025-03-10 13:55:21.825,784, 496, 410, -3, -1, 1, -4, 13, 13, 928, 846, 60,9
2025-03-10 13:55:21.886,736, 506, 476, -20, -1, -6, -5, 11, 14, 930, 883, 84,9
2025-03-10 13:55:21.941,758, 418, 610, -11, -2, -12, -5, 13, 14, 945, 913, 62,9
2025-03-10 13:55:21.996,877, 965, 162, -13, 44, 50, -3, 12, 14, 963, 924, 80,9
2025-03-10 13:55:22.057,686, 418, 561, -15, 14, 23, -4, 14, 13, 962, 931, 75,9
2025-03-10 13:55:22.114,729, 395, 545, 31, -14, -26, -4, 14, 14, 949, 923, 78,9
2025-03-10 13:55:22.165,349, 658, 426, -9, 44, 57, -5, 13, 14, 957, 923, 79,9
2025-03-10 13:55:22.221,618, 389, 480, -43, 31, 8, -4, 16, 13, 945, 860, 64,9
2025-03-10 13:55:22.275,1025, 469, 180, 9, 48, -59, -3, 14, 11, 870, 760, 69,9
2025-03-10 13:55:22.716,703, 491, 541, 5, -14, 2, -3, 12, 11, 851, 658, 64,+
2025-03-10 13:55:22.771,712, 478, 524, 7, -16, 3, -3, 14, 13, 853, 677, 90,+
2025-03-10 13:55:22.826,744, 492, 468, 0, -14, 0, -3, 12, 13, 873, 751, 75,+
2025-03-10 13:55:22.879,748, 480, 493, -6, -10, -4, -2, 12, 13, 875, 795, 96,+
2025-03-10 13:55:22.936,681, 458, 581, -7, -32, 4, -5, 12, 12, 904, 865, 46,+
2025-03-10 13:55:22.989,758, 583, 449, -2, -5, -5, -4, 13, 13, 932, 901, 79,+
2025-03-10 13:55:23.040,741, 449, 546, -4, 0, 1, -4, 12, 14, 942, 913, 54,+
2025-03-10 13:55:23.096,632, 719, 276, 58, 13, 23, -3, 12, 13, 948, 903, 76,+
2025-03-10 13:55:23.153,753, 495, 183, 0, 38, 33, -4, 13, 13, 948, 877, 73,+
2025-03-10 13:55:23.208,755, 49, 500, -39, 7, -61, -3, 13, 12, 927, 800, 74,+
2025-03-10 13:55:23.269,5910, 712, -510, -51, -24, -23, -5, 11, 12, 941, 874, 43,+
2025-03-10 13:55:23.323,706, 243, 136, -6, -3, 38, -3, 11, 13, 959, 935, 56,+
2025-03-10 13:55:23.375,761, 222, 383, 19, 2, -11, -5, 13, 13, 956, 899, 41,+
2025-03-10 13:55:23.437,651, 434, 614, -44, 72, -50, -2, 10, 11, 902, 776, 73,+
2025-03-10 13:55:23.716,745, 493, 478, -5, -1, -6, -2, 11, 13, 898, 795, 48,-
2025-03-10 13:55:23.775,720, 498, 465, -5, -1, -5, -5, 10, 12, 899, 795, 56,-
2025-03-10 13:55:23.828,708, 525, 496, 3, -8, -2, -3, 12, 14, 905, 809, 42,-
2025-03-10 13:55:23.880,707, 520, 494, 3, -6, 6, -4, 10, 14, 910, 820, 45,-
2025-03-10 13:55:23.938,750, 505, 439, 0, -6, 9, -5, 11, 13, 919, 831, 36,-
2025-03-10 13:55:23.991,754, 486, 431, -7, 4, 1, -3, 10, 13, 922, 846, 46,-
2025-03-10 13:55:24.038,751, 499, 486, 0, -12, 13, -2, 11, 13, 930, 871, 48,-
2025-03-10 13:55:24.095,730, 504, 465, -11, -1, -2, -4, 10, 15, 930, 881, 45,-
2025-03-10 13:55:24.155,749, 446, 477, -7, 2, -3, -4, 13, 15, 926, 880, 75,-
2025-03-10 13:55:24.205,749, 486, 464, -1, 0, 0, -5, 11, 14, 924, 878, 74,-
2025-03-10 13:55:24.256,744, 473, 476, 1, 2, 0, -5, 11, 14, 928, 874, 34,-
2025-03-10 13:55:24.309,723, 495, 484, 5, 3, 3, -4, 11, 13, 931, 865, 68,-
2025-03-10 13:55:24.362,741, 455, 465, 3, 6, 0, -5, 11, 13, 928, 857, 76,-
2025-03-10 13:55:24.415,708, 515, 490, 2, 2, 1, -5, 12, 14, 935, 831, 19,-
2025-03-10 13:55:24.470,946, 593, 412, -53, 8, -12, -4, 12, 14, 943, 860, 42,-
2025-03-10 13:55:24.525,657, 660, 676, 28, -24, 22, -5, 10, 15, 954, 933, 74,-
2025-03-10 13:55:24.579,737, 523, 467, -5, 4, 28, -3, 14, 14, 960, 942, 267,-
2025-03-10 13:55:24.638,726, 291, 430, 26, 4, -17, -4, 12, 14, 936, 889, 76,-
2025-03-10 13:55:24.695,772, 502, 494, -42, 73, -40, -3, 11, 13, 895, 681, 31,-
2025-03-10 13:55:25.035,720, 508, 508, -7, 9, 12, -5, 10, 14, 925, 798, 53,÷
2025-03-10 13:55:25.087,705, 523, 529, -7, 7, 12, -5, 12, 13, 921, 801, 62,÷
2025-03-10 13:55:25.145,725, 528, 461, -1, -6, 11, -3, 10, 13, 928, 813, 58,÷
2025-03-10 13:55:25.202,770, 484, 399, -2, 1, -1, -4, 12, 12, 930, 821, 42,÷
2025-03-10 13:55:25.255,654, 500, 557, -3, -12, 10, -4, 12, 14, 934, 846, 46,÷
2025-03-10 13:55:25.313,769, 458, 262, -24, 9, -5, -5, 12, 14, 934, 876, 80,÷
2025-03-10 13:55:25.365,740, 439, 486, 11, -1, -6, -4, 11, 13, 952, 897, 23,÷
2025-03-10 13:55:25.421,704, 511, 375, -24, 16, 25, -4, 12, 14, 951, 908, 63,÷
2025-03-10 13:55:25.478,655, 131, 590, 13, -24, -29, -3, 13, 14, 939, 906, 55,÷
2025-03-10 13:55:25.535,952, 665, 141, -7, 55, 29, -5, 11, 14, 932, 805, 53,÷
2025-03-10 13:55:25.590,455, 493, 800, 4, -12, 39, -5, 13, 11, 946, 737, 29,÷
2025-03-10 13:55:25.645,939, 240, 391, 0, 13, -1, -3, 13, 13, 943, 849, 67,÷
2025-03-10 13:55:25.703,724, 244, 640, 37, -28, -38, -3, 13, 11, 934, 775, 29,÷
2025-03-10 13:55:25.755,645, 527, 933, -3, -11, -15, -3, 12, 12, 924, 763, 37,÷
2025-03-10 13:55:25.817,1110, 471, 457, 54, -20, 7, -4, 12, 14, 953, 918, 69,÷
2025-03-10 13:55:25.870,710, 431, 413, 0, 4, 37, -5, 14, 14, 948, 922, 234,÷
2025-03-10 13:55:25.922,963, 318, 302, 25, 26, -25, -3, 11, 13, 929, 851, 36,÷
2025-03-10 13:55:25.975,638, 418, 651, -46, 95, -47, -3, 13, 11, 828, 440, 64,÷
2025-03-10 13:55:26.268,752, 492, 483, -6, -6, 2, -4, 11, 13, 894, 698, 26,=
2025-03-10 13:55:26.319,742, 486, 473, -6, -6, 1, -4, 11, 13, 897, 701, 20,=
2025-03-10 13:55:26.379,728, 482, 495, -10, 0, -3, -3, 12, 13, 899, 702, 51,=
2025-03-10 13:55:26.429,722, 480, 500, -8, -3, -2, -4, 11, 12, 900, 701, 56,=
2025-03-10 13:55:26.487,733, 489, 470, -4, -1, -5, -4, 11, 13, 910, 705, 55,=
2025-03-10 13:55:26.539,740, 491, 509, -1, -1, -1, -2, 9, 14, 928, 731, 26,=
2025-03-10 13:55:26.595,736, 478, 463, -3, 1, -2, -5, 12, 14, 919, 745, 47,=
2025-03-10 13:55:26.646,729, 501, 515, -5, -3, 0, -5, 11, 13, 928, 765, 28,=
2025-03-10 13:55:26.706,754, 483, 476, -6, 1, -1, -3, 11, 12, 921, 774, 55,=
2025-03-10 13:55:26.757,682, 499, 516, -3, -2, -2, -4, 11, 12, 923, 778, 42,=
2025-03-10 13:55:26.811,699, 594, 557, -8, 9, -19, -3, 12, 13, 932, 817, 41,=
2025-03-10 13:55:26.872,720, 1252, 574, -29, -27, 63, -1, 11, 13, 949, 921, 60,=
2025-03-10 13:55:26.925,604, 408, 642, 28, 2, 5, -4, 12, 14, 941, 897, 78,=
2025-03-10 13:55:26.986,501, 464, 477, -11, 47, -51, -3, 11, 14, 906, 554, 56,=
2025-03-10 13:55:27.039,934, 799, 314, 19, -10, 19, -3, 12, 14, 947, 900, 49,=
2025-03-10 13:55:27.089,873, 489, 589, 12, 0, 36, -3, 13, 14, 942, 914, 53,=
2025-03-10 13:55:27.146,802, 402, 27, -31, 75, -62, -3, 13, 13, 894, 745, 73,=
2025-03-10 13:55:27.206,449, 519, 1077, -16, 28, -23, -2, 11, 9, 831, 272, 61,=
2025-03-10 13:55:27.465,722, 496, 504, -13, 0, 0, -3, 12, 11, 824, 294, 35,≠
2025-03-10 13:55:27.521,721, 488, 498, -13, 0, 0, -2, 11, 12, 824, 292, 31,≠
2025-03-10 13:55:27.571,713, 479, 543, 3, -2, -1, -2, 12, 13, 816, 310, 35,≠
2025-03-10 13:55:27.626,720, 489, 501, 4, -4, 2, -4, 12, 12, 822, 393, 38,≠
2025-03-10 13:55:27.681,720, 484, 495, -3, 0, 0, -3, 11, 12, 809, 494, 69,≠
2025-03-10 13:55:27.734,714, 497, 500, 1, -4, 2, -3, 11, 13, 830, 536, 31,≠
2025-03-10 13:55:27.787,753, 482, 500, 0, -3, 0, -4, 12, 12, 833, 563, 47,≠
2025-03-10 13:55:27.841,736, 483, 494, -3, 2, 0, -5, 11, 13, 845, 542, 62,≠
2025-03-10 13:55:27.895,728, 479, 515, -4, -1, -4, -3, 13, 13, 849, 582, 38,≠
2025-03-10 13:55:27.951,716, 475, 519, -2, -1, 0, -5, 13, 11, 855, 623, 53,≠
2025-03-10 13:55:28.004,740, 463, 505, -1, -1, -1, -4, 10, 13, 857, 653, 42,≠
2025-03-10 13:55:28.058,731, 492, 487, 0, 0, -2, -4, 11, 13, 857, 656, 38,≠
2025-03-10 13:55:28.111,692, 486, 514, 0, -2, -6, -3, 12, 12, 856, 667, 38,≠
2025-03-10 13:55:28.168,590, 452, 603, -4, -18, -4, -3, 11, 13, 886, 715, 26,≠
2025-03-10 13:55:28.225,1264, 722, 606, 107, -24, 5, -4, 11, 13, 936, 904, 75,≠
2025-03-10 13:55:28.275,613, 326, 604, 6, -2, 29, -3, 12, 13, 945, 918, 75,≠
2025-03-10 13:55:28.335,650, 317, 291, -5, 50, -37, -4, 12, 13, 926, 826, 41,≠
2025-03-10 13:55:28.387,981, 376, 1020, -189, -4, -46, -3, 12, 14, 929, 746, 42,≠
2025-03-10 13:55:28.451,91, 577, 100, -52, 0, 61, -4, 11, 13, 946, 921, 72,≠
2025-03-10 13:55:28.504,630, 379, 566, 8, 3, 15, -4, 12, 12, 938, 885, 75,≠
2025-03-10 13:55:28.556,546, 529, 755, 4, 12, -54, -5, 12, 12, 914, 854, 52,≠
2025-03-10 13:55:28.615,151, -12, -503, -8, -27, -30, -4, 10, 15, 932, 898, 74,≠
2025-03-10 13:55:28.671,363, 612, 281, -23, 50, 24, -5, 10, 14, 950, 873, 50,≠
2025-03-10 13:55:28.726,933, 333, 231, -44, 39, 28, -3, 13, 13, 936, 635, 33,≠
2025-03-10 13:55:28.786,1116, 362, 264, 18, 32, -66, -2, 12, 11, 772, 589, 40,≠
2025-03-10 13:55:28.837,377, 502, 965, -33, 48, -24, 0, 12, 7, 708, 668, 41,≠
2025-03-10 13:55:28.888,531, 498, 690, 11, -32, 10, -2, 11, 8, 746, 656, 37,≠
2025-03-10 13:55:29.186,705, 486, 524, -1, -3, -1, -3, 12, 10, 751, 450, 37,≈
2025-03-10 13:55:29.241,703, 492, 517, -2, -2, -1, -5, 12, 11, 740, 456, 56,≈
2025-03-10 13:55:29.291,710, 476, 550, 7, -2, -3, -3, 12, 12, 596, 411, 29,≈
2025-03-10 13:55:29.345,705, 495, 549, 0, 0, 0, -2, 11, 11, 589, 429, 58,≈
2025-03-10 13:55:29.401,708, 470, 552, -3, 1, 0, -2, 12, 10, 613, 451, 32,≈
2025-03-10 13:55:29.451,688, 484, 538, 0, 1, 2, -3, 12, 10, 651, 517, 43,≈
2025-03-10 13:55:29.503,701, 484, 529, 3, -3, 1, -3, 12, 11, 698, 568, 60,≈
2025-03-10 13:55:29.555,707, 489, 541, 0, 1, -1, -4, 12, 11, 746, 627, 26,≈
2025-03-10 13:55:29.610,708, 480, 542, -2, -4, 2, -2, 12, 10, 793, 672, 66,≈
2025-03-10 13:55:29.656,687, 479, 542, 3, -2, 2, -3, 12, 11, 812, 693, 35,≈
2025-03-10 13:55:29.716,721, 479, 514, 0, -5, 2, -3, 12, 12, 820, 710, 45,≈
2025-03-10 13:55:29.770,736, 489, 512, -5, 1, 0, -3, 12, 10, 831, 727, 48,≈
2025-03-10 13:55:29.820,697, 484, 545, 0, 1, 0, -2, 12, 11, 839, 733, 48,≈
2025-03-10 13:55:29.875,720, 472, 521, 2, -3, 1, -4, 12, 11, 843, 734, 66,≈
2025-03-10 13:55:29.929,684, 485, 544, 0, -2, -1, -3, 11, 12, 855, 739, 25,≈
2025-03-10 13:55:29.987,660, 485, 600, 20, -29, 4, -4, 12, 12, 872, 763, 39,≈
2025-03-10 13:55:30.040,967, 417, 602, 39, -19, -13, -3, 13, 13, 919, 882, 34,≈
2025-03-10 13:55:30.098,599, 379, 568, 12, -10, 19, -4, 11, 13, 944, 914, 36,≈
2025-03-10 13:55:30.152,757, 586, 366, 5, -1, 8, -5, 11, 13, 943, 905, 40,≈
2025-03-10 13:55:30.205,794, 446, 229, -41, 80, -17, -3, 12, 13, 930, 794, 32,≈
2025-03-10 13:55:30.265,500, 459, 895, 13, -44, 15, -2, 12, 10, 918, 646, 41,≈
2025-03-10 13:55:30.319,867, 335, 297, 9, 8, -10, -4, 12, 12, 936, 889, 40,≈
2025-03-10 13:55:30.375,684, 260, 499, 30, -15, 10, -5, 12, 13, 961, 925, 27,≈
2025-03-10 13:55:30.426,649, 686, 333, -11, 14, 29, -3, 11, 12, 943, 906, 69,≈
2025-03-10 13:55:30.487,762, 309, 590, 7, -10, -5, -4, 13, 13, 932, 884, 50,≈
2025-03-10 13:55:30.544,841, 463, 371, -29, 43, -37, -4, 12, 13, 876, 806, 63,≈
2025-03-10 13:55:30.602,571, 486, 674, -38, 44, -21, -2, 12, 9, 858, 672, 39,≈
2025-03-10 13:55:30.985,685, 481, 552, -4, -1, -1, -3, 12, 9, 831, 556, 32,<
2025-03-10 13:55:31.039,691, 473, 554, -4, 0, -1, -2, 13, 10, 830, 558, 41,<
2025-03-10 13:55:31.091,686, 460, 581, 0, -1, -2, -2, 12, 9, 818, 554, 35,<
2025-03-10 13:55:31.146,688, 475, 562, -5, 1, -1, -2, 11, 10, 816, 555, 30,<
2025-03-10 13:55:31.199,679, 480, 575, -4, 1, -1, -3, 13, 8, 821, 541, 59,<
2025-03-10 13:55:31.250,690, 475, 568, -3, 0, 0, -2, 12, 10, 827, 496, 20,<
2025-03-10 13:55:31.305,690, 464, 572, 1, -1, 0, 0, 14, 10, 821, 544, 61,<
2025-03-10 13:55:31.355,686, 468, 576, 0, 0, -1, -1, 13, 10, 815, 557, 31,<
2025-03-10 13:55:31.411,678, 466, 585, 0, -3, -1, -3, 13, 10, 814, 549, 32,<
2025-03-10 13:55:31.465,652, 456, 588, 2, -8, -1, -1, 12, 10, 802, 532, 50,<
2025-03-10 13:55:31.517,703, 455, 569, 7, -12, -3, -2, 11, 10, 775, 537, 32,<
2025-03-10 13:55:31.576,666, 477, 564, 7, -17, -4, -2, 11, 11, 795, 637, 63,<
2025-03-10 13:55:31.626,731, 487, 490, -1, -15, -1, -2, 12, 11, 814, 696, 34,<
2025-03-10 13:55:31.686,746, 548, 501, 5, -20, 7, -3, 13, 11, 860, 787, 30,<
2025-03-10 13:55:31.740,555, 426, 716, 8, -61, 11, -5, 11, 13, 915, 870, 60,<
2025-03-10 13:55:31.795,676, 494, 510, -3, -10, -15, -5, 12, 14, 942, 910, 60,<
2025-03-10 13:55:31.852,399, 520, 313, 23, 27, -2, -4, 11, 16, 952, 887, 30,<
2025-03-10 13:55:31.906,1258, 834, 91, 31, 18, 26, -5, 12, 14, 959, 918, 38,<
2025-03-10 13:55:31.958,704, 556, 433, -34, 6, 53, -4, 13, 14, 961, 934, 71,<
2025-03-10 13:55:32.017,879, 273, 338, 51, -7, -66, -4, 13, 13, 926, 842, 39,<
2025-03-10 13:55:32.076,703, 522, 774, -29, 78, -54, -2, 12, 11, 814, 695, 41,<
2025-03-10 13:55:32.376,724, 518, 447, 18, -25, 12, -5, 11, 12, 898, 763, 56,≤
2025-03-10 13:55:32.431,740, 503, 436, 17, -22, 11, -6, 12, 14, 898, 770, 41,≤
2025-03-10 13:55:32.485,745, 504, 412, -2, -6, 4, -4, 12, 14, 911, 792, 38,≤
2025-03-10 13:55:32.541,695, 488, 514, -4, -18, 4, -4, 9, 16, 919, 830, 62,≤
2025-03-10 13:55:32.595,776, 434, 358, -18, -3, -7, -5, 10, 14, 938, 882, 29,≤
2025-03-10 13:55:32.660,647, 382, 481, 6, -5, -13, -5, 10, 15, 948, 906, 40,≤
2025-03-10 13:55:32.705,706, 773, 309, -16, 43, 9, -5, 11, 15, 946, 855, 60,≤
2025-03-10 13:55:32.761,811, 806, 774, -15, -7, 57, -5, 10, 16, 961, 922, 52,≤
2025-03-10 13:55:32.815,552, 487, 531, 2, 7, 29, -5, 12, 15, 960, 931, 207,≤
2025-03-10 13:55:32.874,634, 430, 249, 29, 42, -23, -3, 11, 13, 945, 831, 49,≤
2025-03-10 13:55:32.927,811, 577, 631, 6, -9, -4, -4, 12, 15, 954, 824, 26,≤
2025-03-10 13:55:32.984,831, 660, 359, -2, 2, 41, -6, 12, 14, 955, 928, 155,≤
2025-03-10 13:55:33.037,926, 309, 458, 29, 14, -12, -4, 15, 13, 944, 832, 26,≤
2025-03-10 13:55:33.095,660, 526, 434, -59, 115, -51, -1, 14, 10, 775, 61, 54,≤
2025-03-10 13:55:33.375,788, 469, 477, 7, -25, 2, -3, 11, 13, 822, 639, 55,>
2025-03-10 13:55:33.428,798, 469, 451, 6, -22, -1, -5, 11, 13, 831, 641, 46,>
2025-03-10 13:55:33.484,755, 510, 423, -5, 1, -12, -3, 10, 14, 836, 665, 33,>
2025-03-10 13:55:33.538,699, 509, 518, -8, -3, -11, -3, 10, 13, 837, 675, 26,>
2025-03-10 13:55:33.595,602, 439, 641, 4, -32, -2, -3, 11, 14, 852, 751, 23,>
2025-03-10 13:55:33.650,1184, 648, 624, 61, -28, 6, -5, 9, 15, 934, 898, 32,>
2025-03-10 13:55:33.705,668, 365, 790, 22, -4, 23, -4, 10, 14, 955, 923, 31,>
2025-03-10 13:55:33.759,-302, 477, 522, 30, 37, 25, -6, 11, 17, 943, 901, 73,>
2025-03-10 13:55:33.816,1002, 486, 459, -29, 40, 20, -4, 13, 16, 935, 801, 48,>
2025-03-10 13:55:33.874,847, 354, 152, -36, 54, -37, -3, 11, 13, 894, 719, 39,>
2025-03-10 13:55:33.929,473, 496, 875, -29, 25, -24, -3, 13, 9, 870, 699, 23,>
2025-03-10 13:55:33.985,599, 451, 712, 23, -33, 2, -2, 11, 9, 812, 605, 32,>
2025-03-10 13:55:34.275,708, 478, 543, 9, -14, -2, -3, 11, 11, 764, 545, 25,≥
2025-03-10 13:55:34.325,726, 476, 525, 4, -13, -2, -3, 12, 13, 774, 531, 11,≥
2025-03-10 13:55:34.385,735, 477, 491, 3, -9, -1, -5, 10, 12, 785, 596, 28,≥
2025-03-10 13:55:34.438,719, 494, 519, -5, -5, -5, -2, 10, 13, 804, 644, 20,≥
2025-03-10 13:55:34.489,610, 475, 613, 0, -23, -8, -3, 11, 12, 803, 685, 32,≥
2025-03-10 13:55:34.554,906, 263, 139, -25, -14, -24, -5, 11, 15, 867, 789, 50,≥
2025-03-10 13:55:34.610,698, 598, 292, -28, -24, 48, -5, 10, 17, 929, 901, 52,≥
2025-03-10 13:55:34.664,611, 433, 684, 18, -7, 6, -5, 11, 16, 942, 913, 31,≥
2025-03-10 13:55:34.716,220, 637, 392, 2, 54, 20, -4, 10, 15, 933, 870, 74,≥
2025-03-10 13:55:34.770,940, 513, 584, 14, 28, 24, -4, 12, 13, 914, 707, 29,≥
2025-03-10 13:55:34.826,243, 405, 861, 12, 23, -10, -3, 12, 12, 900, 583, 39,≥
2025-03-10 13:55:34.875,690, 837, 190, 9, 4, -8, -3, 13, 14, 923, 799, 58,≥
2025-03-10 13:55:34.935,675, 561, 153, -23, -24, 45, -4, 12, 13, 946, 921, 48,≥
2025-03-10 13:55:34.987,785, 342, 576, 26, -1, 8, -3, 14, 13, 934, 877, 37,≥
2025-03-10 13:55:35.050,580, 390, 419, -59, 112, -66, -3, 12, 11, 848, 581, 32,≥
2025-03-10 13:55:35.585,705, 513, 519, 1, -4, -5, -3, 11, 12, 703, 488, 30,±
2025-03-10 13:55:35.638,692, 515, 527, 0, -4, -5, -3, 13, 9, 708, 504, 14,±
2025-03-10 13:55:36.437,686, 517, 530, 9, -10, 1, -3, 12, 11, 700, 544, 54,±
2025-03-10 13:55:36.440,718, 474, 509, 5, -12, 2, -3, 13, 12, 744, 623, 55,±
2025-03-10 13:55:36.445,735, 493, 500, 1, -11, -1, -3, 11, 12, 778, 672, 59,±
2025-03-10 13:55:36.448,704, 494, 519, -3, -11, -2, -2, 11, 13, 824, 728, 18,±
2025-03-10 13:55:36.454,741, 515, 468, 4, -10, 3, -5, 10, 13, 847, 737, 56,±
2025-03-10 13:55:36.456,768, 510, 435, -2, 1, -1, -2, 11, 13, 858, 745, 44,±
2025-03-10 13:55:36.458,727, 510, 499, -3, 4, 0, -4, 9, 13, 861, 751, 51,±
2025-03-10 13:55:36.464,724, 486, 513, 0, 0, -1, -4, 11, 13, 858, 747, 27,±
2025-03-10 13:55:36.467,743, 483, 471, -6, 3, -3, -5, 10, 14, 859, 743, 31,±
2025-03-10 13:55:36.471,716, 481, 522, 1, -1, -7, -4, 11, 13, 856, 740, 15,±
2025-03-10 13:55:36.475,735, 520, 473, -4, -3, -3, -2, 11, 14, 861, 733, 32,±
2025-03-10 13:55:36.477,720, 514, 472, -6, 4, -1, -5, 11, 15, 871, 740, 23,±
2025-03-10 13:55:36.482,716, 513, 516, -1, 0, 1, -4, 11, 13, 867, 739, 43,±
2025-03-10 13:55:36.485,737, 493, 492, -4, 2, -3, -5, 11, 13, 864, 740, 19,±
2025-03-10 13:55:36.491,713, 496, 508, -3, 0, -4, -5, 10, 13, 856, 735, 61,±
2025-03-10 13:55:36.507,718, 524, 478, -6, -1, -4, -5, 10, 11, 853, 718, 36,±
2025-03-10 13:55:36.558,710, 497, 523, -4, 1, -2, -3, 10, 13, 835, 709, 30,±
2025-03-10 13:55:36.610,733, 519, 475, -1, 3, -1, -5, 10, 13, 832, 698, 25,±
2025-03-10 13:55:36.665,709, 508, 511, -4, 3, -1, -4, 11, 11, 828, 696, 39,±
2025-03-10 13:55:36.718,714, 502, 508, -3, 1, -2, -4, 12, 13, 829, 695, 51,±
2025-03-10 13:55:36.775,721, 516, 498, -4, 0, -3, -4, 12, 13, 803, 677, 58,±
2025-03-10 13:55:36.831,707, 485, 512, -4, 0, -3, -3, 9, 13, 752, 651, 42,±
2025-03-10 13:55:36.877,730, 526, 473, 0, 2, 1, -4, 10, 11, 780, 649, 32,±
2025-03-10 13:55:36.932,697, 518, 533, 0, 3, 3, -3, 11, 14, 808, 675, 31,±
2025-03-10 13:55:36.987,707, 498, 525, 5, -3, 6, -3, 11, 12, 824, 713, 59,±
2025-03-10 13:55:37.037,718, 499, 508, -1, -1, 4, -3, 10, 13, 841, 743, 45,±
2025-03-10 13:55:37.089,730, 491, 493, -1, 1, 1, -4, 10, 13, 860, 756, 27,±
2025-03-10 13:55:37.146,714, 502, 508, 0, 0, 1, -3, 12, 14, 860, 768, 56,±
2025-03-10 13:55:37.199,724, 498, 499, 1, -1, 3, -4, 10, 12, 877, 786, 16,±
2025-03-10 13:55:37.252,711, 500, 514, -2, 2, 3, -3, 11, 14, 879, 788, 58,±
2025-03-10 13:55:37.301,725, 473, 511, 1, -2, 2, -4, 11, 13, 890, 795, 32,±
2025-03-10 13:55:37.355,720, 503, 503, 2, -5, 0, -3, 11, 14, 901, 799, 33,±
2025-03-10 13:55:37.407,730, 503, 479, 0, -6, 1, -3, 11, 13, 903, 813, 48,±
2025-03-10 13:55:37.465,730, 484, 505, -3, -1, 0, -3, 12, 13, 915, 830, 23,±
2025-03-10 13:55:37.515,736, 491, 490, -2, -4, 0, -4, 9, 13, 907, 832, 37,±
2025-03-10 13:55:37.569,720, 492, 497, -8, 0, -7, -4, 11, 14, 910, 824, 41,±
2025-03-10 13:55:37.625,676, 468, 532, -7, -11, -6, -5, 11, 13, 913, 815, 50,±
2025-03-10 13:55:37.683,592, 401, 406, -14, -6, -27, -3, 11, 15, 937, 871, 18,±
2025-03-10 13:55:37.735,796, 865, 423, -8, -30, 34, -4, 11, 14, 959, 933, 25,±
2025-03-10 13:55:37.790,622, 362, 587, 23, -6, -4, -6, 12, 15, 935, 909, 60,±
2025-03-10 13:55:37.845,514, 644, 837, 3, -32, 1, -4, 9, 14, 931, 903, 37,±
2025-03-10 13:55:37.900,762, 801, 445, 28, 6, 9, -4, 10, 16, 948, 902, 53,±
2025-03-10 13:55:37.956,633, 138, 541, 22, 36, 42, -5, 10, 13, 951, 839, 14,±
2025-03-10 13:55:38.006,347, 436, 809, 21, 22, -29, -5, 12, 12, 924, 746, 42,±
2025-03-10 13:55:38.067,1196, 737, 255, 7, -26, 23, -4, 13, 11, 951, 919, 39,±
2025-03-10 13:55:38.119,726, 289, 752, 0, 3, 31, -5, 13, 14, 941, 909, 49,±
2025-03-10 13:55:38.176,699, 416, 89, -31, 103, -63, -4, 12, 12, 908, 727, 39,±
2025-03-10 13:55:38.467,726, 525, 477, -2, -10, -3, -5, 11, 14, 847, 698, 44,∓
2025-03-10 13:55:38.525,730, 535, 459, -6, -9, -3, -3, 10, 13, 851, 705, 38,∓
2025-03-10 13:55:38.583,725, 507, 524, -3, -11, -2, -5, 11, 14, 865, 739, 26,∓
2025-03-10 13:55:38.635,737, 489, 476, -2, -7, -2, -5, 10, 13, 867, 760, 29,∓
2025-03-10 13:55:38.687,737, 510, 464, -1, -1, -3, -3, 9, 14, 871, 768, 36,∓
2025-03-10 13:55:38.754,704, 521, 494, -10, 1, -6, -5, 12, 14, 878, 773, 32,∓
2025-03-10 13:55:38.799,633, 489, 569, -6, -13, -4, -4, 10, 14, 877, 761, 49,∓
2025-03-10 13:55:38.855,870, 486, 416, -29, -6, -18, -4, 9, 15, 935, 863, 20,∓
2025-03-10 13:55:38.915,888, 302, 247, -3, -27, 44, -5, 9, 17, 947, 930, 80,∓
2025-03-10 13:55:38.965,613, 486, 590, 68, 6, 6, -4, 11, 16, 943, 894, 32,∓
2025-03-10 13:55:39.017,554, 557, 334, 17, 73, -33, -5, 11, 15, 907, 769, 36,∓
2025-03-10 13:55:39.075,827, 709, 543, -4, -10, -9, -4, 10, 14, 937, 859, 34,∓
2025-03-10 13:55:39.135,808, 354, 257, -21, -3, 52, -4, 11, 14, 945, 920, 72,∓
2025-03-10 13:55:39.194,719, 202, 411, 16, -19, -39, -5, 10, 14, 943, 881, 31,∓
2025-03-10 13:55:39.246,750, 694, 682, -4, -5, -2, -4, 11, 14, 948, 896, 30,∓
2025-03-10 13:55:39.300,821, 686, 204, 16, 50, 57, -3, 10, 15, 946, 852, 62,∓
2025-03-10 13:55:39.361,1029, 219, 169, -12, 52, -58, -4, 11, 13, 915, 599, 18,∓
2025-03-10 13:55:39.665,707, 482, 521, -14, 4, -4, -4, 12, 12, 819, 449, 31,∞
2025-03-10 13:55:39.718,713, 485, 530, -10, 4, -2, -2, 11, 11, 818, 482, 57,∞
2025-03-10 13:55:39.767,679, 472, 579, -4, 3, 0, -3, 11, 13, 818, 620, 57,∞
2025-03-10 13:55:39.825,690, 500, 559, 0, -6, 0, -3, 10, 11, 815, 621, 28,∞
2025-03-10 13:55:39.876,699, 497, 531, -2, 0, 1, -4, 13, 10, 807, 627, 54,∞
2025-03-10 13:55:39.931,697, 482, 544, -3, -2, 1, -3, 11, 11, 795, 621, 31,∞
2025-03-10 13:55:39.985,708, 479, 533, -7, 1, -2, -5, 13, 11, 785, 625, 29,∞
2025-03-10 13:55:40.042,693, 478, 572, 0, -2, -1, -5, 11, 11, 804, 636, 23,∞
2025-03-10 13:55:40.095,693, 480, 550, 6, -7, 2, -3, 10, 11, 814, 681, 33,∞
2025-03-10 13:55:40.148,696, 490, 519, 3, -10, 1, -4, 10, 12, 838, 707, 29,∞
2025-03-10 13:55:40.200,678, 473, 533, 9, -6, -3, -3, 11, 13, 852, 739, 56,∞
2025-03-10 13:55:40.255,790, 484, 485, 3, -8, 2, -3, 12, 12, 863, 743, 26,∞
2025-03-10 13:55:40.306,677, 509, 540, 13, 4, -1, -3, 11, 12, 875, 758, 31,∞
2025-03-10 13:55:40.366,753, 495, 539, 48, -14, 27, -5, 13, 12, 896, 782, 19,∞
2025-03-10 13:55:40.418,742, 487, 378, -13, 3, -13, -5, 12, 13, 886, 807, 62,∞
2025-03-10 13:55:40.475,661, 457, 653, 8, -29, 12, -3, 11, 13, 910, 864, 39,∞
2025-03-10 13:55:40.525,677, 513, 340, 11, 5, 1, -5, 11, 14, 934, 885, 27,∞
2025-03-10 13:55:40.585,757, 505, 399, -33, 40, 21, -3, 12, 13, 938, 876, 31,∞
2025-03-10 13:55:40.636,1076, 239, 595, 6, 3, -23, -3, 11, 14, 924, 881, 31,∞
2025-03-10 13:55:40.697,820, 669, 471, -32, -40, 12, -6, 13, 13, 943, 917, 32,∞
2025-03-10 13:55:40.750,570, 818, 275, -21, 8, 16, -5, 12, 14, 946, 915, 34,∞
2025-03-10 13:55:40.808,283, 327, 486, 16, -21, -48, -3, 11, 13, 942, 905, 43,∞
2025-03-10 13:55:40.864,534, 666, 446, 30, 22, 6, -5, 11, 15, 956, 905, 18,∞
2025-03-10 13:55:40.917,811, 470, 290, -6, 35, 16, -4, 12, 14, 930, 778, 39,∞
2025-03-10 13:55:40.975,1042, 390, 286, 2, 37, -48, -4, 13, 12, 873, 657, 43,∞
2025-03-10 13:55:41.262,724, 510, 460, -6, -1, 0, -5, 12, 13, 790, 617, 29,∑
2025-03-10 13:55:41.317,725, 508, 488, -6, 0, 1, -5, 10, 14, 793, 619, 41,∑
2025-03-10 13:55:41.369,719, 453, 520, -2, 0, -1, -3, 12, 13, 803, 619, 55,∑
2025-03-10 13:55:41.425,727, 497, 494, -4, -3, 2, -3, 12, 13, 800, 622, 54,∑
2025-03-10 13:55:41.481,723, 486, 498, -3, 0, -2, -5, 12, 15, 798, 633, 32,∑
2025-03-10 13:55:41.531,701, 495, 514, 3, -3, 1, -5, 9, 12, 793, 640, 39,∑
2025-03-10 13:55:41.585,722, 475, 503, 3, -4, -1, -3, 11, 13, 795, 669, 58,∑
2025-03-10 13:55:41.638,739, 507, 497, -1, -2, -2, -5, 10, 14, 802, 682, 51,∑
2025-03-10 13:55:41.698,773, 496, 469, -1, -3, -2, -3, 12, 16, 806, 693, 43,∑
2025-03-10 13:55:41.748,715, 481, 517, -1, 0, -1, -5, 12, 13, 828, 703, 29,∑
2025-03-10 13:55:41.803,730, 499, 467, 0, -2, -4, -6, 11, 14, 833, 714, 13,∑
2025-03-10 13:55:41.860,789, 512, 478, 9, -10, -1, -4, 10, 15, 827, 747, 35,∑
2025-03-10 13:55:41.916,677, 520, 514, -12, -3, -5, -4, 11, 14, 840, 778, 16,∑
2025-03-10 13:55:41.965,726, 528, 550, 1, -9, 18, -4, 11, 14, 861, 804, 38,∑
2025-03-10 13:55:42.022,649, 440, 500, -2, 17, -8, -5, 11, 14, 878, 804, 60,∑
2025-03-10 13:55:42.082,910, 376, 353, -39, 6, -36, -4, 12, 15, 917, 811, 13,∑
2025-03-10 13:55:42.135,808, 1170, 735, 45, -40, 45, -3, 10, 14, 923, 899, 63,∑
2025-03-10 13:55:42.191,694, 581, 578, 19, 6, 27, -6, 11, 16, 922, 900, 87,∑
2025-03-10 13:55:42.245,626, 366, 219, 23, 18, -75, -5, 13, 15, 913, 859, 32,∑
2025-03-10 13:55:42.303,1038, 215, 505, 9, -9, -15, -4, 9, 14, 920, 856, 37,∑
2025-03-10 13:55:42.359,625, 577, 416, -19, 14, 52, -5, 10, 14, 923, 897, 56,∑
2025-03-10 13:55:42.414,614, 257, 666, 18, 1, 5, -4, 11, 14, 947, 907, 20,∑
2025-03-10 13:55:42.466,556, 447, 591, -53, 36, -6, -3, 12, 14, 899, 678, 62,∑
2025-03-10 13:55:42.521,970, 866, 677, -33, -5, 49, -3, 11, 11, 929, 889, 40,∑
2025-03-10 13:55:42.575,620, 355, 603, 13, 2, 20, -4, 13, 13, 929, 904, 24,∑
2025-03-10 13:55:42.632,929, 433, 80, 13, 44, -50, -5, 12, 13, 886, 744, 50,∑
2025-03-10 13:55:42.933,691, 477, 543, -14, 1, -3, -3, 11, 11, 803, 242, 28,∏
2025-03-10 13:55:42.985,688, 472, 552, -12, 0, -3, -5, 11, 12, 802, 229, 17,∏
2025-03-10 13:55:43.045,701, 478, 542, 0, -8, -2, -2, 11, 10, 764, 312, 54,∏
2025-03-10 13:55:43.097,705, 490, 529, 2, -9, -2, -3, 11, 12, 790, 441, 27,∏
2025-03-10 13:55:43.151,717, 503, 503, 0, -4, 1, -3, 11, 14, 796, 460, 51,∏
2025-03-10 13:55:43.202,724, 484, 517, 1, -2, 0, -4, 12, 13, 806, 478, 20,∏
2025-03-10 13:55:43.258,717, 482, 525, -3, 2, 0, -4, 11, 12, 782, 441, 54,∏
2025-03-10 13:55:43.309,699, 465, 560, 0, -4, -1, -3, 12, 13, 741, 376, 24,∏
2025-03-10 13:55:43.364,732, 483, 500, 4, -9, 1, -4, 12, 11, 740, 427, 33,∏
2025-03-10 13:55:43.419,720, 479, 509, -1, -7, -2, -3, 12, 13, 786, 538, 41,∏
2025-03-10 13:55:43.471,744, 476, 486, -1, -5, -4, -3, 10, 12, 806, 610, 28,∏
2025-03-10 13:55:43.531,647, 498, 518, -12, -2, -12, -4, 11, 14, 822, 617, 20,∏
2025-03-10 13:55:43.585,826, 237, 299, -26, 1, -28, -3, 12, 15, 903, 766, 23,∏
2025-03-10 13:55:43.647,496, 799, 319, -25, -49, 44, -5, 11, 16, 946, 928, 38,∏
2025-03-10 13:55:43.697,410, 383, 528, 10, 1, 17, -5, 13, 13, 945, 918, 60,∏
2025-03-10 13:55:43.756,733, 320, 192, 11, 30, -48, -6, 10, 15, 917, 858, 20,∏
2025-03-10 13:55:43.815,643, 694, 1045, 18, -32, 13, -6, 10, 14, 909, 825, 56,∏
2025-03-10 13:55:43.867,182, 796, 378, -9, 30, 30, -4, 12, 16, 946, 882, 52,∏
2025-03-10 13:55:43.925,727, 339, 413, -17, 37, 35, -6, 11, 14, 939, 832, 29,∏
2025-03-10 13:55:43.980,659, 487, 466, 17, -24, -45, -3, 11, 13, 905, 849, 31,∏
2025-03-10 13:55:44.036,739, 478, 851, -19, -27, -10, -4, 10, 13, 942, 912, 47,∏
2025-03-10 13:55:44.097,539, 138, 328, -12, 44, 44, -5, 11, 15, 944, 901, 78,∏
2025-03-10 13:55:44.149,989, 310, 396, 6, 19, -12, -3, 14, 12, 923, 808, 36,∏
2025-03-10 13:55:44.208,727, 491, 588, -61, 77, -50, -4, 13, 10, 855, 765, 32,∏
2025-03-10 13:55:44.516,729, 434, 579, 3, 1, -26, -3, 11, 10, 809, 542, 55,√
2025-03-10 13:55:44.576,744, 439, 567, 1, 0, -32, -2, 10, 8, 809, 538, 45,√
2025-03-10 13:55:44.629,731, 460, 510, 1, -8, -70, -3, 8, 8, 802, 509, 46,√
2025-03-10 13:55:44.680,490, 670, 570, -10, 12, -40, -3, 7, 9, 819, 552, 28,√
2025-03-10 13:55:44.735,434, 640, 623, 3, -9, 25, -4, 9, 10, 863, 637, 39,√
2025-03-10 13:55:44.790,640, 504, 627, 11, -17, 45, -3, 9, 9, 887, 719, 34,√
2025-03-10 13:55:44.847,707, 535, 496, 13, -13, 31, -4, 9, 11, 902, 756, 57,√
2025-03-10 13:55:44.900,736, 477, 503, 6, -15, 18, -3, 9, 13, 924, 783, 19,√
2025-03-10 13:55:44.953,721, 512, 514, 6, -12, 14, -3, 11, 12, 915, 796, 31,√
2025-03-10 13:55:45.009,734, 504, 479, 4, -11, 5, -5, 11, 15, 934, 812, 31,√
2025-03-10 13:55:45.064,752, 489, 489, -1, -5, 5, -4, 11, 14, 922, 818, 36,√
2025-03-10 13:55:45.115,724, 479, 478, 4, 14, 2, -4, 10, 13, 935, 808, 24,√
2025-03-10 13:55:45.167,624, 525, 570, 8, 8, 8, -3, 11, 12, 911, 755, 60,√
2025-03-10 13:55:45.219,724, 349, 185, -11, 16, -20, -5, 10, 12, 917, 781, 34,√
2025-03-10 13:55:45.280,939, 491, 538, 27, -10, 1, -3, 11, 13, 930, 897, 43,√
2025-03-10 13:55:45.334,533, 426, 651, 24, -8, 13, -4, 10, 12, 946, 914, 39,√
2025-03-10 13:55:45.385,712, 643, 476, -9, 39, 54, -2, 12, 14, 938, 885, 34,√
2025-03-10 13:55:45.445,931, 512, 521, -65, 8, 16, -3, 14, 12, 927, 894, 63,√
2025-03-10 13:55:45.503,790, 640, 791, -5, -50, -38, -3, 13, 13, 948, 928, 21,√
2025-03-10 13:55:45.556,811, 602, 241, 6, -21, 27, -4, 11, 14, 960, 933, 45,√
2025-03-10 13:55:45.613,720, 375, 635, 19, 2, 10, -5, 12, 14, 930, 903, 47,√
2025-03-10 13:55:45.666,611, 509, 383, -11, 91, -61, -3, 9, 14, 893, 793, 20,√
2025-03-10 13:55:45.946,708, 541, 488, -5, 1, 4, -3, 11, 14, 820, 306, 29,∛
2025-03-10 13:55:46.000,708, 522, 489, -4, 1, 4, -3, 11, 14, 826, 317, 32,∛
2025-03-10 13:55:46.054,711, 477, 508, 4, 0, 3, -5, 11, 13, 842, 425, 18,∛
2025-03-10 13:55:46.107,741, 512, 466, -2, -1, 1, -3, 12, 13, 857, 547, 31,∛
2025-03-10 13:55:46.159,718, 518, 514, -4, 0, 0, -5, 10, 14, 865, 610, 33,∛
2025-03-10 13:55:46.214,661, 508, 493, -3, 0, 0, -4, 11, 13, 878, 642, 52,∛
2025-03-10 13:55:46.268,896, 462, 485, -19, 10, -16, -4, 13, 13, 904, 751, 41,∛
2025-03-10 13:55:46.329,699, 689, 443, -9, -27, 28, -5, 10, 13, 937, 895, 47,∛
2025-03-10 13:55:46.381,676, 467, 525, 25, 16, 28, -3, 11, 13, 939, 893, 34,∛
2025-03-10 13:55:46.439,765, 751, 337, -26, 17, 24, -4, 12, 13, 940, 858, 35,∛
2025-03-10 13:55:46.497,561, 130, 780, -38, -23, -19, -3, 13, 12, 917, 877, 58,∛
2025-03-10 13:55:46.551,937, 319, 676, 2, -48, -30, -4, 10, 13, 930, 915, 31,∛
2025-03-10 13:55:46.609,837, 765, 353, -18, -33, 48, -4, 12, 17, 937, 917, 98,∛
2025-03-10 13:55:46.665,656, 406, 635, 17, -2, 0, -5, 10, 15, 936, 913, 29,∛
2025-03-10 13:55:46.718,421, 510, 372, 13, 70, -100, -5, 11, 15, 901, 860, 61,∛
2025-03-10 13:55:46.775,816, 504, 406, 20, -76, -43, -5, 8, 14, 912, 862, 59,∛
2025-03-10 13:55:46.833,743, 910, 526, -49, -24, 26, -3, 10, 15, 952, 929, 23,∛
2025-03-10 13:55:46.885,464, 605, 460, -26, 16, 16, -5, 10, 15, 947, 903, 20,∛
2025-03-10 13:55:46.937,878, 517, 467, -6, 1, 11, -4, 11, 15, 930, 892, 64,∛
2025-03-10 13:55:47.001,486, 321, 409, -20, -3, 18, -5, 10, 16, 935, 916, 60,∛
2025-03-10 13:55:47.052,751, 430, 513, 11, 0, -5, -4, 11, 14, 939, 900, 23,∛
2025-03-10 13:55:47.109,729, 466, 512, -13, 34, -16, -3, 10, 12, 930, 877, 42,∛
2025-03-10 13:55:47.169,591, 509, 586, -5, 15, -7, -4, 10, 11, 924, 858, 31,∛
2025-03-10 13:55:47.220,614, 493, 575, -2, -17, -1, -2, 11, 12, 922, 814, 32,∛
2025-03-10 13:55:47.280,784, 121, -214, 6, 3, -19, -3, 10, 15, 925, 863, 31,∛
2025-03-10 13:55:47.337,771, 728, 480, -16, -19, 21, -5, 11, 14, 935, 898, 48,∛
2025-03-10 13:55:47.391,627, 457, 534, 7, -4, 4, -3, 11, 14, 950, 916, 27,∛
2025-03-10 13:55:47.436,973, 352, 530, -25, 26, 1, -4, 11, 15, 938, 848, 37,∛
2025-03-10 13:55:47.499,1115, 382, 366, -30, 33, 7, -3, 11, 13, 935, 721, 17,∛
2025-03-10 13:55:47.549,531, 490, 775, -29, 58, -22, -2, 12, 9, 896, 661, 32,∛
2025-03-10 13:55:47.610,461, 455, 773, 18, -22, 5, -2, 11, 8, 890, 646, 50,∛
2025-03-10 13:55:47.663,774, 485, 453, 13, -31, 1, -3, 12, 11, 868, 597, 16,∛
2025-03-10 13:55:47.716,741, 512, 462, -3, 6, -7, -2, 13, 11, 839, 459, 65,∛
2025-03-10 13:55:48.320,678, 497, 533, 5, -4, 2, -3, 11, 11, 786, 408, 32,∜
2025-03-10 13:55:48.375,679, 495, 554, 9, -4, 3, -3, 11, 12, 789, 414, 51,∜
2025-03-10 13:55:48.429,704, 496, 525, 7, -9, 7, -2, 10, 11, 821, 376, 30,∜
2025-03-10 13:55:48.480,726, 497, 484, 4, -2, 2, -3, 10, 13, 829, 401, 26,∜
2025-03-10 13:55:48.535,704, 516, 514, 1, 1, 2, -4, 13, 11, 836, 438, 43,∜
2025-03-10 13:55:48.585,687, 490, 563, 4, -9, 2, -2, 12, 13, 849, 503, 54,∜
2025-03-10 13:55:48.635,727, 491, 410, -6, 9, -11, -3, 10, 13, 891, 706, 14,∜
2025-03-10 13:55:48.698,758, 594, 554, 29, -9, -6, -5, 12, 13, 900, 846, 51,∜
2025-03-10 13:55:48.752,608, 313, 664, 22, -11, 0, -4, 10, 14, 911, 864, 62,∜
2025-03-10 13:55:48.805,508, 602, 421, -7, 33, 65, -5, 12, 12, 943, 838, 20,∜
2025-03-10 13:55:48.865,728, 602, 364, -52, 22, 23, -3, 12, 13, 932, 853, 45,∜
2025-03-10 13:55:48.917,969, 283, 538, -11, -33, -55, -4, 13, 13, 922, 901, 39,∜
2025-03-10 13:55:48.979,731, 625, 732, 31, -48, 18, -4, 12, 13, 952, 938, 29,∜
2025-03-10 13:55:49.030,627, 208, 389, 14, -2, 8, -3, 12, 14, 948, 920, 19,∜
2025-03-10 13:55:49.085,672, 310, 169, -15, 51, -84, -5, 12, 14, 920, 881, 62,∜
2025-03-10 13:55:49.146,709, 651, 868, 18, -19, -54, -2, 9, 11, 892, 763, 53,∜
2025-03-10 13:55:49.205,770, 494, 356, 31, -90, 16, -4, 9, 14, 941, 894, 155,∜
2025-03-10 13:55:49.257,713, 582, 484, 4, -11, -9, -3, 9, 14, 949, 921, 31,∜
2025-03-10 13:55:49.305,473, 539, 640, -17, 31, 22, -3, 9, 16, 953, 897, 40,∜
2025-03-10 13:55:49.365,1020, 677, 259, 3, 18, 20, -5, 8, 15, 962, 919, 28,∜
2025-03-10 13:55:49.417,660, 331, 345, -1, 2, 19, -3, 10, 16, 958, 936, 29,∜
2025-03-10 13:55:49.475,655, 375, 319, 29, -4, -60, -3, 8, 15, 943, 904, 139,∜
2025-03-10 13:55:49.532,778, 843, 566, -18, -22, 5, -4, 9, 16, 950, 911, 62,∜
2025-03-10 13:55:49.585,720, 619, 184, -11, 41, 53, -5, 10, 15, 960, 894, 41,∜
2025-03-10 13:55:49.642,1009, 237, 309, 12, 22, -51, -5, 12, 15, 929, 741, 40,∜
2025-03-10 13:55:49.698,592, 562, 783, -53, 55, -41, -3, 11, 11, 852, 774, 65,∜
2025-03-10 13:55:49.990,705, 504, 490, 0, 3, 9, -4, 10, 12, 862, 659, 59,∫
2025-03-10 13:55:50.035,708, 491, 497, 0, 4, 9, -4, 10, 14, 866, 654, 59,∫
2025-03-10 13:55:50.087,661, 509, 536, 9, 4, 12, -4, 10, 12, 882, 653, 40,∫
2025-03-10 13:55:50.146,732, 501, 473, 9, -2, 10, -3, 11, 13, 898, 672, 38,∫
2025-03-10 13:55:50.200,737, 512, 482, -2, 3, 3, -4, 11, 13, 900, 692, 40,∫
2025-03-10 13:55:50.250,705, 512, 527, 2, 0, 3, -4, 10, 13, 903, 715, 51,∫
2025-03-10 13:55:50.305,712, 485, 495, 0, 0, -1, -4, 11, 12, 905, 729, 26,∫
2025-03-10 13:55:50.355,725, 485, 512, 2, -2, -1, -2, 11, 11, 906, 733, 38,∫
2025-03-10 13:55:50.413,720, 508, 498, -6, 5, 2, -4, 11, 12, 904, 684, 13,∫
2025-03-10 13:55:50.465,703, 469, 533, -9, 0, -1, -4, 12, 12, 897, 676, 54,∫
2025-03-10 13:55:50.518,717, 489, 505, -5, 0, 2, -5, 11, 12, 900, 694, 55,∫
2025-03-10 13:55:50.569,715, 463, 533, 3, 0, 5, -2, 12, 13, 908, 702, 39,∫
2025-03-10 13:55:50.625,756, 540, 457, 6, -7, 8, -3, 12, 12, 911, 763, 59,∫
2025-03-10 13:55:50.679,717, 472, 545, 1, -19, 7, -3, 12, 13, 934, 804, 18,∫
2025-03-10 13:55:50.735,803, 513, 520, -25, -16, 8, -4, 12, 14, 942, 880, 35,∫
2025-03-10 13:55:50.788,691, 473, 602, -15, -7, -5, -5, 13, 14, 943, 900, 55,∫
2025-03-10 13:55:50.846,752, 467, 288, 19, 10, -13, -4, 12, 16, 957, 909, 26,∫
2025-03-10 13:55:50.900,916, 760, 184, 41, 36, 25, -4, 11, 13, 959, 909, 41,∫
2025-03-10 13:55:50.956,498, 675, 359, -17, 30, 22, -4, 13, 12, 959, 879, 37,∫
2025-03-10 13:55:51.015,833, 269, 619, 43, 20, -21, -4, 12, 13, 868, 557, 32,∫
2025-03-10 13:55:51.070,729, 460, 427, -76, 100, -44, -1, 11, 10, 629, 606, 57,∫
2025-03-10 13:55:51.125,325, 545, 899, -5, -17, 0, 0, 12, 5, 684, 608, 55,∫
2025-03-10 13:55:51.395,604, 493, 609, 9, -19, 3, -3, 12, 9, 676, 502, 51,∮
2025-03-10 13:55:51.458,590, 485, 625, 14, -23, 4, -1, 12, 8, 690, 531, 46,∮
2025-03-10 13:55:51.515,666, 492, 588, 14, -34, 11, -2, 11, 10, 764, 680, 18,∮
2025-03-10 13:55:51.566,698, 503, 509, 13, -24, 8, -2, 12, 13, 823, 735, 61,∮
2025-03-10 13:55:51.622,742, 500, 475, 4, -9, 2, -4, 11, 11, 850, 766, 30,∮
2025-03-10 13:55:51.672,700, 501, 530, -1, -2, 1, -2, 9, 12, 859, 780, 63,∮
2025-03-10 13:55:51.726,711, 505, 510, 3, -5, 2, -4, 11, 13, 867, 790, 16,∮
2025-03-10 13:55:51.779,714, 501, 494, 0, 0, 0, -4, 12, 12, 861, 793, 62,∮
2025-03-10 13:55:51.832,703, 490, 505, -2, -2, 1, -5, 10, 11, 861, 790, 37,∮
2025-03-10 13:55:51.888,696, 505, 539, 5, -7, 1, -2, 11, 13, 852, 791, 35,∮
2025-03-10 13:55:51.940,765, 498, 506, 3, -9, 4, -2, 10, 12, 864, 798, 60,∮
2025-03-10 13:55:51.987,697, 496, 500, -4, 2, -2, -3, 10, 12, 884, 809, 25,∮
2025-03-10 13:55:52.051,749, 492, 523, -2, -23, 12, -3, 11, 13, 899, 816, 34,∮
2025-03-10 13:55:52.105,750, 475, 506, -4, -4, 4, -4, 11, 14, 910, 835, 65,∮
2025-03-10 13:55:52.163,788, 302, 262, -39, -10, -3, -4, 11, 13, 922, 875, 42,∮
2025-03-10 13:55:52.215,581, 455, 547, 5, -2, -21, -5, 10, 14, 933, 903, 61,∮
2025-03-10 13:55:52.273,941, 604, 284, 78, 18, -4, -4, 10, 13, 946, 899, 41,∮
2025-03-10 13:55:52.325,648, 444, 200, -32, 44, 67, -4, 10, 14, 966, 918, 24,∮
2025-03-10 13:55:52.383,768, 126, 516, 20, -31, -90, -3, 11, 11, 932, 890, 66,∮
2025-03-10 13:55:52.444,1081, 380, 591, -2, -76, -22, -5, 10, 14, 933, 914, 67,∮
2025-03-10 13:55:52.496,435, 560, 311, -32, 9, 38, -3, 12, 14, 957, 933, 33,∮
2025-03-10 13:55:52.555,730, 863, 586, -66, 47, 51, -5, 13, 14, 968, 918, 33,∮
2025-03-10 13:55:52.605,904, 90, 554, 16, 6, -49, -3, 12, 12, 923, 806, 42,∮
2025-03-10 13:55:52.666,263, 388, 897, -40, 15, -61, -2, 12, 11, 887, 872, 46,∮
2025-03-10 13:55:52.731,2501, -1737, -1252, -200, -34, -23, -3, 10, 15, 937, 918, 35,∮
2025-03-10 13:55:52.782,484, 446, 711, 0, 59, 116, -4, 13, 14, 955, 918, 39,∮
2025-03-10 13:55:52.835,730, 267, 177, -42, 42, 18, -3, 15, 11, 934, 773, 53,∮
2025-03-10 13:55:52.899,968, 481, -9, -59, 134, -72, -2, 15, 9, 846, 695, 17,∮
2025-03-10 13:55:52.951,191, 443, 1136, -12, 68, -58, 1, 13, 5, 703, 637, 69,∮
2025-03-10 13:55:53.005,348, 436, 926, 3, -26, 4, 3, 13, 1, 658, 424, 49,∮
2025-03-10 13:55:57.521,641, 482, 676, 2, -6, -25, 0, 9, 6, 119, 401, 56,∂
2025-03-10 13:55:57.577,650, 478, 670, 6, -9, -27, 0, 10, 7, 121, 411, 50,∂
2025-03-10 13:55:57.627,651, 506, 629, 11, -17, -49, 0, 8, 8, 111, 423, 58,∂
2025-03-10 13:55:57.687,640, 604, 568, 3, -12, -61, -1, 7, 6, 204, 385, 28,∂
2025-03-10 13:55:57.736,545, 622, 597, 6, -15, -66, 0, 5, 7, 413, 459, 44,∂
2025-03-10 13:55:57.795,490, 759, 584, -5, -12, -55, -1, 2, 9, 441, 449, 24,∂
2025-03-10 13:55:57.845,347, 811, 587, 12, -13, 1, -2, 2, 8, 575, 514, 34,∂
2025-03-10 13:55:57.900,349, 714, 531, 40, -24, 93, -2, 2, 9, 612, 496, 32,∂
2025-03-10 13:55:57.949,520, 536, 355, 22, -1, 144, -4, 6, 12, 663, 497, 70,∂
2025-03-10 13:55:58.011,759, 333, 434, 37, -5, 51, -5, 8, 12, 761, 601, 70,∂
2025-03-10 13:55:58.062,818, 497, 392, 8, 14, 24, -3, 8, 11, 802, 660, 276,∂
2025-03-10 13:55:58.118,1002, 775, 684, 1, 0, -24, -2, 7, 11, 835, 705, 278,∂
2025-03-10 13:55:58.168,525, 410, 616, -10, 7, 9, -2, 9, 11, 868, 745, 40,∂
2025-03-10 13:55:58.227,665, 562, 478, -4, -17, 18, -4, 11, 11, 879, 758, 56,∂
2025-03-10 13:55:58.285,812, 554, 371, -6, -11, 15, -4, 11, 11, 901, 772, 33,∂
2025-03-10 13:55:58.335,766, 503, 417, -10, 5, 0, -4, 10, 13, 909, 792, 40,∂
2025-03-10 13:55:58.389,661, 539, 466, -18, 3, 0, -2, 11, 13, 917, 814, 18,∂
2025-03-10 13:55:58.443,690, 496, 542, -8, -4, 0, -4, 10, 13, 914, 832, 60,∂
2025-03-10 13:55:58.497,684, 491, 530, 2, -20, 2, -4, 10, 12, 920, 840, 62,∂
2025-03-10 13:55:58.555,830, 302, 484, 6, 3, -16, -2, 11, 13, 928, 880, 77,∂
2025-03-10 13:55:58.608,739, 761, 383, -3, 5, 48, -4, 10, 13, 949, 908, 72,∂
2025-03-10 13:55:58.665,750, 592, 463, -45, 42, 39, -4, 12, 13, 949, 897, 74,∂
2025-03-10 13:55:58.717,874, 343, 360, -64, 31, 3, -3, 14, 8, 941, 844, 41,∂
2025-03-10 13:55:58.769,1002, 399, 571, 9, -40, -4, -1, 14, 11, 967, 946, 23,∂
2025-03-10 13:55:58.827,767, 457, 445, 8, -4, -1, -3, 14, 11, 954, 936, 84,∂
2025-03-10 13:55:58.882,912, 455, 74, -25, 75, -38, -2, 12, 11, 928, 859, 81,∂
2025-03-10 13:55:58.936,633, 479, 793, -45, 91, -35, -2, 13, 8, 864, 622, 39,∂
2025-03-10 13:55:59.225,657, 567, 249, 18, -40, 43, -4, 9, 10, 631, 482, 69,∇
2025-03-10 13:55:59.284,660, 551, 284, 10, -27, 44, -5, 9, 11, 633, 483, 50,∇
2025-03-10 13:55:59.336,734, 478, 387, 6, -6, 19, -4, 10, 10, 608, 489, 39,∇
2025-03-10 13:55:59.388,711, 507, 431, -10, 1, -8, -4, 9, 12, 671, 526, 48,∇
2025-03-10 13:55:59.448,855, 740, 598, -11, 8, -20, -3, 9, 11, 701, 551, 43,∇
2025-03-10 13:55:59.502,558, 418, 619, 5, -8, 6, -3, 10, 12, 785, 614, 51,∇
2025-03-10 13:55:59.556,707, 533, 475, 1, -26, 22, -3, 11, 11, 833, 650, 43,∇
2025-03-10 13:55:59.607,856, 577, 365, -3, 0, 2, -4, 9, 14, 862, 695, 43,∇
2025-03-10 13:55:59.661,686, 463, 478, -1, 4, 2, -5, 11, 13, 878, 738, 57,∇
2025-03-10 13:55:59.712,715, 510, 489, -11, 1, -6, -4, 11, 13, 871, 737, 52,∇
2025-03-10 13:55:59.770,720, 522, 485, -17, 9, -1, -5, 10, 12, 879, 711, 42,∇
2025-03-10 13:55:59.825,659, 545, 492, -12, 3, 0, -5, 12, 12, 891, 737, 70,∇
2025-03-10 13:55:59.881,569, 462, 633, -11, -30, 0, -2, 11, 11, 913, 778, 31,∇
2025-03-10 13:55:59.935,877, 229, 205, 21, -11, -14, -3, 11, 14, 944, 910, 49,∇
2025-03-10 13:55:59.993,648, 347, 277, 6, 5, 30, -4, 12, 13, 957, 934, 53,∇
2025-03-10 13:56:00.045,1099, 665, 612, 25, 16, 37, -5, 12, 14, 965, 927, 65,∇
2025-03-10 13:56:00.103,955, 463, 200, -44, 51, 31, -4, 14, 12, 954, 864, 50,∇
2025-03-10 13:56:00.160,639, 164, 653, -6, -2, -100, -3, 15, 11, 925, 818, 68,∇
2025-03-10 13:56:00.215,926, 245, 405, -11, -17, -19, -3, 12, 11, 947, 901, 80,∇
2025-03-10 13:56:00.276,912, 609, 304, -41, 27, 69, -4, 12, 12, 971, 933, 46,∇
2025-03-10 13:56:00.327,814, 341, 475, 1, 19, 4, -3, 15, 11, 950, 819, 62,∇
2025-03-10 13:56:00.380,883, 367, 426, -2, 91, -74, -2, 14, 11, 854, 634, 64,∇
2025-03-10 13:56:00.435,433, 412, 806, -11, 33, -37, 0, 14, 5, 681, 634, 18,∇
2025-03-10 13:56:00.695,712, 499, 525, -2, -17, 11, -3, 14, 10, 817, 481, 74,∆
2025-03-10 13:56:00.751,710, 492, 512, -1, -16, 10, -2, 12, 10, 818, 485, 71,∆
2025-03-10 13:56:00.806,718, 446, 553, 3, -5, 1, -1, 12, 11, 840, 578, 21,∆
2025-03-10 13:56:00.860,705, 471, 536, -1, -15, 3, -2, 13, 12, 857, 651, 74,∆
2025-03-10 13:56:00.915,753, 488, 487, 2, -8, -1, -2, 14, 13, 865, 676, 23,∆
2025-03-10 13:56:00.972,720, 485, 528, -3, 2, -1, -4, 12, 12, 865, 689, 65,∆
2025-03-10 13:56:01.025,719, 464, 522, -3, -1, -2, -3, 12, 12, 870, 698, 42,∆
2025-03-10 13:56:01.078,729, 472, 528, -3, -1, -2, -3, 11, 11, 873, 710, 44,∆
2025-03-10 13:56:01.135,725, 457, 565, -4, 0, -1, -6, 13, 13, 879, 718, 48,∆
2025-03-10 13:56:01.186,724, 466, 493, -5, -6, -1, -3, 13, 12, 890, 747, 46,∆
2025-03-10 13:56:01.243,699, 493, 532, -3, 3, 0, -3, 11, 11, 894, 763, 73,∆
2025-03-10 13:56:01.298,701, 468, 551, -2, -6, 1, -4, 12, 12, 901, 770, 43,∆
2025-03-10 13:56:01.345,744, 459, 547, -1, -15, 0, -3, 13, 13, 910, 792, 49,∆
2025-03-10 13:56:01.406,562, 436, 707, -6, -45, 0, -5, 12, 12, 932, 854, 38,∆
2025-03-10 13:56:01.463,479, 419, 735, 41, -8, -18, -5, 10, 14, 946, 887, 75,∆
2025-03-10 13:56:01.520,563, 991, -70, -43, 35, 27, -5, 12, 13, 948, 827, 51,∆
2025-03-10 13:56:01.577,852, 21, 669, -2, -29, -54, -4, 13, 12, 914, 807, 37,∆
2025-03-10 13:56:01.635,797, -207, 825, 99, -28, -26, -4, 12, 13, 947, 909, 70,∆
2025-03-10 13:56:01.689,793, 457, 370, 8, 34, 51, -5, 12, 15, 955, 918, 79,∆
2025-03-10 13:56:01.745,814, 559, 388, -22, 31, 20, -4, 12, 13, 952, 896, 69,∆
2025-03-10 13:56:01.795,1020, 396, 620, 44, 7, -35, -4, 12, 11, 880, 751, 43,∆
2025-03-10 13:56:01.856,727, 392, 214, -55, 98, -24, -3, 12, 9, 851, 636, 62,∆
2025-03-10 13:56:01.909,321, 598, 931, -24, 17, 10, 0, 12, 5, 839, 518, 81,∆
2025-03-10 13:56:02.195,683, 457, 563, -11, 2, -3, -2, 13, 9, 755, 417, 73,π
2025-03-10 13:56:02.246,681, 447, 588, -7, 2, -3, -2, 11, 9, 759, 432, 69,π
2025-03-10 13:56:02.298,690, 474, 573, 5, -6, 1, -1, 13, 11, 764, 497, 51,π
2025-03-10 13:56:02.360,712, 482, 533, 10, -7, -1, -3, 12, 10, 769, 517, 21,π
2025-03-10 13:56:02.413,701, 471, 547, -1, -3, 1, -2, 12, 10, 800, 555, 44,π
2025-03-10 13:56:02.466,700, 470, 541, -2, -3, 0, -3, 13, 12, 821, 569, 25,π
2025-03-10 13:56:02.519,709, 468, 545, -2, -6, 0, -4, 12, 11, 836, 659, 45,π
2025-03-10 13:56:02.567,726, 465, 533, 2, -7, -2, -4, 12, 10, 847, 670, 48,π
2025-03-10 13:56:02.629,725, 482, 521, -2, -8, 0, -3, 13, 11, 860, 693, 54,π
2025-03-10 13:56:02.681,719, 486, 519, -5, -1, -1, -2, 13, 11, 870, 724, 46,π
2025-03-10 13:56:02.737,716, 465, 523, -4, 1, -2, -3, 13, 11, 877, 739, 40,π
2025-03-10 13:56:02.793,699, 464, 548, -6, -3, -4, -4, 11, 12, 884, 735, 46,π
2025-03-10 13:56:02.848,677, 469, 534, -11, -9, -7, -4, 11, 11, 894, 734, 34,π
2025-03-10 13:56:02.905,1006, 580, 502, -6, -3, -21, -4, 12, 14, 926, 808, 57,π
2025-03-10 13:56:02.967,1173, 1107, 527, -12, -62, 58, -4, 12, 13, 952, 934, 53,π
2025-03-10 13:56:03.016,625, 482, 548, 14, 3, 19, -4, 14, 14, 954, 931, 81,π
2025-03-10 13:56:03.077,692, 324, 359, 17, 11, -12, -5, 14, 15, 937, 884, 41,π
2025-03-10 13:56:03.131,679, 557, 662, 21, 22, -30, -4, 12, 12, 907, 805, 45,π
2025-03-10 13:56:03.188,696, 830, 577, 22, -8, 0, -3, 11, 13, 939, 891, 82,π
2025-03-10 13:56:03.235,652, 491, 407, -38, 29, 41, -5, 13, 12, 958, 912, 40,π
2025-03-10 13:56:03.297,690, 533, 387, -48, 35, 27, -2, 14, 12, 947, 816, 60,π
2025-03-10 13:56:03.355,917, 481, 423, 1, -19, -38, -4, 13, 12, 929, 856, 53,π
2025-03-10 13:56:03.409,384, 439, 796, 30, -75, 8, -5, 14, 14, 949, 911, 77,π
2025-03-10 13:56:03.460,861, 624, 386, 16, 6, 8, -5, 14, 13, 955, 910, 81,π
2025-03-10 13:56:03.519,772, 291, 347, -1, 16, 35, -4, 15, 13, 960, 918, 73,π
2025-03-10 13:56:03.571,810, 208, 558, 30, -9, -5, -4, 14, 12, 947, 912, 63,π
2025-03-10 13:56:03.629,688, 388, 442, -44, 126, -51, -3, 13, 9, 896, 848, 73,π
2025-03-10 13:56:03.687,463, 465, 865, -27, 47, -18, -1, 12, 4, 840, 700, 68,π
2025-03-10 13:56:03.970,327, 615, 786, 11, -44, 5, 1, 9, 1, 550, 505, 78,θ
2025-03-10 13:56:04.022,329, 591, 736, 14, -47, 12, -1, 7, 0, 555, 508, 77,θ
2025-03-10 13:56:04.080,406, 625, 541, 44, -63, 64, -2, 7, 4, 622, 504, 45,θ
2025-03-10 13:56:04.132,654, 498, 463, 46, -51, 87, -3, 7, 9, 637, 433, 42,θ
2025-03-10 13:56:04.187,787, 506, 269, 28, -3, 15, -5, 7, 10, 640, 490, 50,θ
2025-03-10 13:56:04.236,622, 571, 564, -8, 33, 4, -3, 9, 10, 654, 544, 65,θ
2025-03-10 13:56:04.292,590, 517, 503, -3, 15, 15, -2, 9, 9, 677, 532, 65,θ
2025-03-10 13:56:04.348,922, 545, 932, 45, -34, 5, -2, 9, 10, 711, 569, 26,θ
2025-03-10 13:56:04.399,537, 448, 223, -38, -15, 14, -2, 10, 11, 791, 676, 57,θ
2025-03-10 13:56:04.458,790, 675, 520, -1, -20, 9, -2, 9, 11, 826, 720, 54,θ
2025-03-10 13:56:04.511,702, 531, 512, 2, -4, 2, -3, 10, 12, 848, 737, 49,θ
2025-03-10 13:56:04.568,734, 486, 426, -3, -15, 8, -3, 10, 11, 879, 776, 65,θ
2025-03-10 13:56:04.619,691, 503, 476, -25, -15, -5, -4, 9, 13, 893, 824, 48,θ
2025-03-10 13:56:04.681,524, 396, 665, -23, -16, -27, -4, 11, 13, 922, 882, 64,θ
2025-03-10 13:56:04.735,1204, 920, 151, 54, 15, 19, -3, 9, 14, 942, 866, 80,θ
2025-03-10 13:56:04.793,746, 328, 652, -21, 12, 36, -4, 13, 11, 939, 863, 49,θ
2025-03-10 13:56:04.845,351, 514, 830, -5, 4, -49, -5, 9, 11, 916, 884, 63,θ
2025-03-10 13:56:04.906,2858, -367, -330, -16, -20, -24, -4, 10, 14, 936, 911, 196,θ
2025-03-10 13:56:04.965,631, 100, 611, -19, 17, 36, -5, 11, 13, 959, 924, 38,θ
2025-03-10 13:56:05.016,882, 482, 447, -36, 33, 40, -4, 13, 14, 949, 876, 73,θ
2025-03-10 13:56:05.075,1241, 196, 449, 10, 5, -77, -4, 13, 13, 910, 801, 47,θ
2025-03-10 13:56:05.128,253, 497, 1358, 22, -100, 32, -3, 13, 11, 944, 879, 28,θ
2025-03-10 13:56:05.188,958, 644, 195, -13, 5, 42, -4, 12, 11, 969, 934, 33,θ
2025-03-10 13:56:05.242,769, 391, 421, 29, 17, -5, -3, 13, 13, 939, 904, 82,θ
2025-03-10 13:56:05.297,646, 477, 616, -55, 102, -45, -3, 13, 7, 840, 735, 69,θ
2025-03-10 13:56:05.585,695, 487, 536, 9, -22, 8, 0, 11, 9, 789, 628, 53,λ
2025-03-10 13:56:05.642,701, 486, 531, 8, -20, 7, -2, 13, 10, 791, 629, 40,λ
2025-03-10 13:56:05.696,729, 481, 523, 2, -14, -1, -3, 12, 10, 803, 666, 73,λ
2025-03-10 13:56:05.748,684, 497, 628, 1, -11, -1, -2, 12, 11, 816, 684, 48,λ
2025-03-10 13:56:05.805,699, 481, 529, 7, -13, 0, -3, 12, 11, 827, 714, 18,λ
2025-03-10 13:56:05.859,729, 496, 500, -1, -5, 1, -3, 11, 10, 838, 736, 38,λ
2025-03-10 13:56:05.915,714, 493, 544, -1, -2, 2, -2, 12, 11, 855, 753, 16,λ
2025-03-10 13:56:05.965,705, 489, 532, 4, -4, 0, -3, 11, 12, 858, 763, 44,λ
2025-03-10 13:56:06.018,707, 479, 525, 2, -6, 0, -3, 10, 13, 864, 780, 41,λ
2025-03-10 13:56:06.075,735, 498, 477, -4, -3, 0, -3, 11, 11, 867, 788, 39,λ
2025-03-10 13:56:06.128,718, 500, 517, -3, -1, -2, -3, 10, 12, 872, 793, 23,λ
2025-03-10 13:56:06.185,729, 493, 516, -4, -1, -1, -5, 13, 12, 873, 791, 50,λ
2025-03-10 13:56:06.235,698, 495, 499, -3, 2, -3, -3, 12, 11, 877, 791, 39,λ
2025-03-10 13:56:06.291,697, 493, 533, 2, -1, 0, -3, 11, 13, 878, 777, 73,λ
2025-03-10 13:56:06.346,685, 510, 503, -3, -1, 0, -4, 11, 13, 890, 779, 27,λ
2025-03-10 13:56:06.400,789, 435, 286, -10, 3, -14, -3, 10, 13, 920, 823, 41,λ
2025-03-10 13:56:06.455,845, 459, 497, 15, -24, 0, -3, 10, 12, 940, 919, 75,λ
2025-03-10 13:56:06.512,451, 426, 692, 36, -6, 10, -4, 12, 13, 963, 931, 33,λ
2025-03-10 13:56:06.566,480, 649, 135, -9, 33, 37, -4, 12, 13, 957, 918, 44,λ
2025-03-10 13:56:06.624,713, 211, 493, -23, 21, -61, -5, 14, 12, 940, 869, 49,λ
2025-03-10 13:56:06.679,4520, -435, 7, -41, -27, -20, -5, 12, 12, 954, 914, 37,λ
2025-03-10 13:56:06.734,433, 719, 184, 8, 32, 32, -5, 13, 13, 959, 901, 50,λ
2025-03-10 13:56:06.785,808, 503, 455, 4, 32, 22, -4, 12, 12, 924, 682, 75,λ
2025-03-10 13:56:06.850,732, 359, 359, -58, 84, -47, -3, 14, 10, 866, 710, 47,λ
2025-03-10 13:56:07.155,565, 546, 557, -8, 15, -46, -4, 9, 8, 830, 564, 46,μ
2025-03-10 13:56:07.213,529, 614, 616, -13, 19, -34, -4, 10, 9, 837, 607, 69,μ
2025-03-10 13:56:07.265,470, 582, 650, 13, -14, 15, -3, 11, 8, 863, 673, 44,μ
2025-03-10 13:56:07.321,642, 511, 658, 25, -20, 41, -3, 11, 9, 880, 751, 50,μ
2025-03-10 13:56:07.377,783, 457, 430, 9, -15, 26, -4, 11, 12, 899, 775, 36,μ
2025-03-10 13:56:07.426,729, 477, 542, 1, 2, 9, -3, 11, 12, 908, 784, 37,μ
2025-03-10 13:56:07.479,677, 498, 541, -2, 1, 7, -3, 12, 11, 910, 788, 54,μ
2025-03-10 13:56:07.535,726, 494, 503, -3, -3, 8, -4, 11, 12, 911, 794, 40,μ
2025-03-10 13:56:07.589,733, 472, 538, -2, -2, 4, -4, 13, 13, 918, 801, 28,μ
2025-03-10 13:56:07.644,715, 469, 557, -1, -1, -1, -3, 12, 12, 914, 804, 41,μ
2025-03-10 13:56:07.695,708, 476, 539, 0, -3, 1, -4, 12, 11, 915, 806, 57,μ
2025-03-10 13:56:07.753,735, 467, 520, -4, -2, -3, -2, 13, 12, 913, 811, 49,μ
2025-03-10 13:56:07.808,674, 502, 552, -1, 0, 0, -4, 13, 12, 918, 815, 40,μ
2025-03-10 13:56:07.860,718, 463, 564, 2, -2, 0, -5, 11, 13, 917, 816, 73,μ
2025-03-10 13:56:07.914,777, 449, 494, -5, 4, -1, -3, 12, 13, 922, 815, 36,μ
2025-03-10 13:56:07.967,653, 432, 614, 11, 8, 10, -3, 14, 12, 919, 796, 56,μ
2025-03-10 13:56:08.017,701, 465, 573, 22, 13, 9, -3, 11, 10, 915, 764, 24,μ
2025-03-10 13:56:08.077,729, 493, 497, -3, 19, 13, -2, 12, 11, 919, 737, 45,μ
2025-03-10 13:56:08.128,756, 496, 530, -16, 8, 3, -3, 13, 11, 933, 806, 61,μ
2025-03-10 13:56:08.185,839, 647, 408, -35, -7, 18, -2, 13, 11, 942, 921, 58,μ
2025-03-10 13:56:08.245,919, 324, 688, -55, -43, -51, -4, 14, 11, 948, 939, 40,μ
2025-03-10 13:56:08.302,693, 367, 668, 14, -26, -21, -3, 13, 12, 957, 939, 60,μ
2025-03-10 13:56:08.355,830, 186, 570, 28, 8, 11, -5, 12, 13, 961, 935, 45,μ
2025-03-10 13:56:08.410,787, 811, 422, -32, 12, 29, -4, 13, 14, 963, 935, 45,μ
2025-03-10 13:56:08.465,708, 304, 694, 3, -5, -9, -2, 14, 11, 953, 932, 68,μ
2025-03-10 13:56:08.518,780, 590, 443, 17, 3, 13, -5, 15, 12, 960, 932, 39,μ
2025-03-10 13:56:08.571,753, 612, 360, -9, 7, 32, -4, 13, 11, 957, 925, 78,μ
2025-03-10 13:56:08.629,821, 146, 850, 1, -27, -19, -4, 14, 11, 961, 938, 44,μ
2025-03-10 13:56:08.685,1009, 454, -23, -37, 96, -14, -4, 15, 11, 945, 917, 43,μ
2025-03-10 13:56:08.745,450, 433, 872, -51, 112, -33, 0, 14, 5, 920, 836, 84,μ
2025-03-10 13:56:09.085,483, 527, 508, 78, -114, 26, -2, 6, 4, 679, 574, 36,ω
2025-03-10 13:56:09.145,515, 531, 458, 78, -112, 24, -2, 6, 4, 672, 557, 41,ω
2025-03-10 13:56:09.195,783, 617, 146, 60, -75, 8, -5, 6, 11, 661, 485, 39,ω
2025-03-10 13:56:09.258,697, 571, 349, -18, 21, -20, -5, 5, 11, 637, 382, 21,ω
2025-03-10 13:56:09.309,600, 741, 730, 17, 15, 8, -4, 4, 10, 480, 120, 59,ω
2025-03-10 13:56:09.358,557, 472, 722, -6, 23, 45, -5, 4, 8, 567, 100, 21,ω
2025-03-10 13:56:09.412,642, 535, 482, 8, 3, 57, -4, 6, 11, 622, 190, 41,ω
2025-03-10 13:56:09.465,695, 474, 454, 0, -1, 37, -4, 8, 11, 702, 392, 37,ω
2025-03-10 13:56:09.524,685, 545, 459, -16, -2, 19, -5, 9, 10, 763, 551, 46,ω
2025-03-10 13:56:09.575,706, 533, 410, -16, -2, 2, -5, 10, 11, 804, 615, 37,ω
2025-03-10 13:56:09.629,556, 502, 460, -17, -2, 7, -3, 11, 12, 850, 707, 53,ω
2025-03-10 13:56:09.691,1170, 800, 320, 17, -59, -12, -4, 10, 14, 874, 732, 34,ω
2025-03-10 13:56:09.746,771, 550, 588, -7, -2, -14, -4, 11, 13, 907, 768, 21,ω
2025-03-10 13:56:09.803,596, 488, 531, -16, 0, 9, -3, 11, 13, 923, 794, 68,ω
2025-03-10 13:56:09.855,529, 498, 592, 3, -50, 22, -5, 11, 13, 935, 844, 56,ω
2025-03-10 13:56:09.912,980, 418, 301, -42, -11, -25, -5, 12, 17, 945, 907, 71,ω
2025-03-10 13:56:09.965,689, 546, 501, 41, 9, -5, -4, 12, 14, 959, 910, 41,ω
2025-03-10 13:56:10.025,724, 375, 254, -16, 37, 38, -5, 12, 14, 960, 908, 49,ω
2025-03-10 13:56:10.075,655, 305, 620, -14, 0, 1, -4, 12, 14, 956, 905, 48,ω
2025-03-10 13:56:10.129,849, 751, 261, 18, 9, 12, -4, 13, 14, 955, 903, 65,ω
2025-03-10 13:56:10.188,845, 683, 236, -52, 15, 34, -5, 13, 13, 966, 926, 41,ω
2025-03-10 13:56:10.245,611, 271, 704, 22, -19, -14, -4, 13, 14, 950, 917, 40,ω
2025-03-10 13:56:10.298,979, 449, 132, 2, 43, -23, -5, 12, 13, 922, 828, 50,ω
2025-03-10 13:56:10.359,667, 403, 757, -39, 83, -25, -2, 13, 10, 904, 733, 58,ω
2025-03-10 13:56:10.685,653, 480, 276, 7, 15, 25, -4, 9, 10, 715, 408, 33,!
2025-03-10 13:56:10.741,625, 464, 330, 4, 17, 25, -4, 10, 11, 715, 421, 29,!
2025-03-10 13:56:10.792,637, 426, 388, -8, 4, 22, -3, 10, 10, 709, 396, 18,!
2025-03-10 13:56:10.847,1128, 854, 818, -5, -6, -23, -4, 9, 11, 683, 389, 35,!
2025-03-10 13:56:10.905,541, 312, 647, 16, -8, 4, -3, 10, 10, 789, 541, 71,!
2025-03-10 13:56:10.962,690, 531, 413, -7, -22, 16, -2, 10, 11, 781, 561, 37,!
2025-03-10 13:56:11.015,762, 568, 412, 0, -10, -8, -5, 11, 13, 786, 627, 50,!
2025-03-10 13:56:11.065,718, 519, 469, -19, 8, -5, -2, 10, 12, 821, 671, 66,!
2025-03-10 13:56:11.123,693, 516, 534, -6, -8, 2, -4, 12, 11, 849, 695, 29,!
2025-03-10 13:56:11.178,739, 494, 467, -1, -7, 3, -5, 12, 12, 869, 740, 71,!
2025-03-10 13:56:11.232,716, 526, 466, -5, 0, 0, -3, 10, 13, 875, 751, 40,!
2025-03-10 13:56:11.285,747, 487, 510, -4, -5, -2, -4, 11, 13, 884, 773, 57,!
2025-03-10 13:56:11.343,666, 474, 463, -13, 1, 0, -3, 11, 14, 903, 795, 40,!
2025-03-10 13:56:11.395,718, 521, 482, -19, -11, -5, -4, 11, 13, 902, 806, 70,!
2025-03-10 13:56:11.457,740, 416, 124, -61, -22, -8, -4, 11, 14, 925, 882, 63,!
2025-03-10 13:56:11.510,757, 395, 546, -35, -3, -4, -3, 11, 14, 945, 916, 34,!
2025-03-10 13:56:11.568,581, 873, 336, 29, 24, 28, -5, 12, 14, 959, 916, 38,!
2025-03-10 13:56:11.620,930, 620, 350, -16, 22, 19, -3, 12, 15, 956, 910, 51,!
2025-03-10 13:56:11.675,695, 555, 486, 8, 26, 20, -3, 12, 13, 950, 868, 46,!
2025-03-10 13:56:11.730,898, 319, 491, 13, 0, -15, -3, 13, 13, 921, 837, 47,!
2025-03-10 13:56:11.785,639, 495, 488, -27, 38, -10, -3, 12, 10, 927, 842, 35,!
2025-03-10 13:56:11.840,586, 452, 672, 5, -7, 7, -5, 12, 10, 935, 830, 34,!
2025-03-10 13:56:11.895,784, 470, 485, 7, -12, 6, -3, 13, 11, 925, 828, 74,!
2025-03-10 13:56:11.946,753, 470, 481, -3, 9, -1, -3, 14, 12, 928, 817, 34,!
