Timestamp,Acc_X,Acc_Y,Acc_Z,Gyro_X,Gyro_Y,Gyro_Z,Mag_X,Mag_Y,Mag_Z,Force1,Force2,Force3,Letter
2025-03-10 14:30:47.745,583, 694, 447, -7, -3, -6, -1, 1, -1, 855, 15, 553,noise
2025-03-10 14:30:47.802,574, 684, 455, -10, -4, -8, 0, 1, -1, 855, 5, 551,noise
2025-03-10 14:30:47.850,599, 706, 486, 0, 0, 4, 1, 1, 0, 870, 9, 561,noise
2025-03-10 14:30:47.900,579, 593, 453, 15, 7, -4, 1, 1, 0, 881, 11, 583,noise
2025-03-10 14:30:47.953,594, 725, 467, 1, -7, 8, -1, 1, 0, 897, 572, 685,noise
2025-03-10 14:30:48.006,616, 713, 436, -1, 0, 2, -2, 3, -1, 904, 656, 718,noise
2025-03-10 14:30:48.058,568, 680, 468, -12, 2, 2, -1, 1, 1, 911, 671, 715,noise
2025-03-10 14:30:48.108,591, 654, 489, -6, 0, 2, -2, 1, 1, 920, 685, 707,noise
2025-03-10 14:30:48.163,575, 660, 484, -2, 1, 0, -1, 2, 0, 926, 691, 718,noise
2025-03-10 14:30:48.215,586, 674, 458, 6, 1, -2, -2, 2, 2, 929, 662, 733,noise
2025-03-10 14:30:48.264,593, 660, 507, 5, 5, -4, 0, 0, 0, 923, 476, 693,noise
2025-03-10 14:30:48.316,584, 685, 483, 2, 0, -5, 0, 2, -2, 893, 17, 634,noise
2025-03-10 14:30:48.370,582, 661, 485, -3, 1, -11, -1, 1, 0, 883, 19, 593,noise
2025-03-10 14:30:48.420,588, 672, 457, 17, 1, -9, -2, 0, -1, 877, 5, 582,noise
2025-03-10 14:30:48.475,511, 740, 481, 19, -8, -16, -2, 0, 1, 870, 16, 591,noise
2025-03-10 14:30:48.531,551, 743, 528, 14, -20, -3, -1, -2, 1, 882, 463, 631,noise
2025-03-10 14:30:48.580,528, 749, 418, 14, -9, 12, -3, -3, 3, 902, 651, 690,noise
2025-03-10 14:30:48.640,550, 707, 279, 13, -10, 36, -4, -1, 5, 914, 699, 717,noise
2025-03-10 14:30:48.692,627, 608, 269, 6, -1, 23, -4, 0, 6, 921, 736, 732,noise
2025-03-10 14:30:48.748,592, 581, 255, -32, 10, 5, -3, 2, 4, 925, 745, 719,noise
2025-03-10 14:30:48.805,1125, 1050, 765, -18, 18, -27, -3, 1, 5, 924, 694, 729,noise
2025-03-10 14:30:48.863,438, 592, 519, -10, 7, -8, -4, 2, 2, 918, 652, 681,noise
2025-03-10 14:30:48.916,531, 626, 377, -2, -2, 1, -1, 1, 3, 914, 618, 665,noise
2025-03-10 14:30:48.967,633, 744, 391, -7, 1, -3, -1, 0, 3, 913, 609, 662,noise
2025-03-10 14:30:49.022,583, 691, 407, -8, 7, -3, -3, 1, 2, 910, 606, 658,noise
2025-03-10 14:30:49.566,580, 686, 539, 15, -11, -10, -2, 1, 3, 911, 619, 690,A
2025-03-10 14:30:49.620,590, 692, 514, 17, -14, -11, -1, 0, 2, 911, 627, 688,A
2025-03-10 14:30:49.677,614, 741, 357, 5, -11, -15, -2, -2, 3, 914, 655, 688,A
2025-03-10 14:30:49.730,527, 765, 475, 0, -9, -11, -3, -1, 2, 926, 694, 693,A
2025-03-10 14:30:49.789,567, 716, 387, 14, -19, 23, -5, -2, 4, 935, 752, 712,A
2025-03-10 14:30:49.840,545, 647, 299, 8, 7, 43, -4, -1, 4, 938, 811, 746,A
2025-03-10 14:30:49.893,589, 585, 293, -8, 20, 26, -4, 0, 4, 931, 830, 766,A
2025-03-10 14:30:49.952,496, 567, 430, -22, 45, 33, -3, 1, 4, 936, 846, 782,A
2025-03-10 14:30:50.004,1243, 1092, 773, 10, -16, 1, -3, 3, 1, 940, 857, 811,A
2025-03-10 14:30:50.062,508, 482, 408, -29, 17, 15, -3, 3, 3, 945, 875, 794,A
2025-03-10 14:30:50.111,510, 558, 469, -23, 8, 20, -2, 3, 0, 955, 882, 776,A
2025-03-10 14:30:50.163,628, 604, 519, -5, 1, 15, -3, 5, 1, 960, 861, 726,A
2025-03-10 14:30:50.221,629, 576, 446, -2, 1, 11, -2, 4, 1, 960, 834, 606,A
2025-03-10 14:30:50.274,698, 580, 403, 11, -12, 5, -2, 6, 3, 959, 817, 558,A
2025-03-10 14:30:50.329,644, 538, 404, 5, 2, 9, -5, 6, 2, 960, 812, 319,A
2025-03-10 14:30:50.374,684, 637, 428, 4, 15, 18, -4, 5, 3, 960, 794, 202,A
2025-03-10 14:30:50.432,806, 579, 372, 2, -14, 12, -2, 7, 3, 961, 815, 192,A
2025-03-10 14:30:50.484,666, 495, 459, -19, 5, 1, -5, 8, 4, 964, 856, 17,A
2025-03-10 14:30:50.538,694, 562, 476, -8, -8, 8, -3, 6, 4, 966, 885, 12,A
2025-03-10 14:30:50.591,700, 501, 447, -2, -11, -12, -3, 8, 3, 966, 897, 22,A
2025-03-10 14:30:50.649,739, 585, 421, -17, -14, -32, -5, 7, 5, 964, 903, 292,A
2025-03-10 14:30:50.706,694, 547, 464, -22, -23, -37, -3, 6, 4, 965, 908, 436,A
2025-03-10 14:30:50.763,636, 571, 585, -18, -17, -31, -5, 5, 4, 965, 903, 606,A
2025-03-10 14:30:50.820,663, 598, 456, -9, -29, -13, -5, 3, 5, 966, 904, 675,A
2025-03-10 14:30:50.874,624, 666, 366, -11, -5, 8, -6, 3, 7, 966, 906, 615,A
2025-03-10 14:30:50.927,634, 592, 462, 17, -7, 27, -5, 4, 7, 967, 912, 491,A
2025-03-10 14:30:50.983,802, 579, 305, 5, -12, 28, -6, 7, 7, 968, 917, 527,A
2025-03-10 14:30:51.037,799, 568, 378, -19, -7, 0, -6, 6, 7, 970, 926, 511,A
2025-03-10 14:30:51.090,681, 511, 576, -20, -9, -9, -5, 6, 7, 974, 942, 430,A
2025-03-10 14:30:51.142,963, 635, 462, 47, 7, -8, -6, 6, 10, 979, 936, 147,A
2025-03-10 14:30:51.200,1143, 766, 169, -4, 42, 27, -6, 6, 9, 978, 914, 17,A
2025-03-10 14:30:51.258,769, 112, 783, -37, -35, -24, -5, 8, 7, 966, 912, 334,A
2025-03-10 14:30:51.312,651, 342, 872, 1, -23, -15, -6, 8, 7, 977, 943, 319,A
2025-03-10 14:30:51.364,480, 730, 184, -8, 36, 40, -5, 6, 7, 979, 935, 20,A
2025-03-10 14:30:51.413,674, 465, 372, -19, 28, -9, -5, 8, 7, 970, 904, 6,A
2025-03-10 14:30:51.471,703, 510, 562, -1, -12, -16, -3, 8, 8, 973, 933, 20,A
2025-03-10 14:30:51.523,766, 714, 133, -1, -6, 21, -5, 7, 9, 981, 964, 5,A
2025-03-10 14:30:51.581,988, 242, 186, -3, 36, -27, -5, 8, 6, 968, 926, 243,A
2025-03-10 14:30:51.630,578, 554, 623, -65, 71, -45, -4, 7, 3, 937, 792, 60,A
2025-03-10 14:30:51.921,642, 646, 422, 9, -9, 20, -4, 3, 8, 957, 854, 316,B
2025-03-10 14:30:51.972,650, 646, 382, 9, -7, 23, -5, 3, 7, 959, 860, 310,B
2025-03-10 14:30:52.028,758, 609, 367, 6, 2, 23, -5, 4, 9, 960, 891, 441,B
2025-03-10 14:30:52.074,716, 542, 375, -7, 4, 8, -7, 4, 7, 960, 902, 471,B
2025-03-10 14:30:52.131,712, 539, 437, -19, -13, 1, -5, 6, 7, 963, 915, 494,B
2025-03-10 14:30:52.189,729, 546, 465, -25, 0, -6, -5, 8, 9, 967, 935, 357,B
2025-03-10 14:30:52.240,800, 546, 495, 32, -5, 1, -6, 6, 8, 976, 934, 233,B
2025-03-10 14:30:52.294,556, 675, 83, -7, 36, 36, -4, 7, 7, 977, 927, 11,B
2025-03-10 14:30:52.347,674, 158, 641, -1, -42, -59, -5, 8, 6, 969, 936, 356,B
2025-03-10 14:30:52.405,627, 526, 716, 1, -31, -16, -3, 6, 8, 980, 965, 460,B
2025-03-10 14:30:52.454,552, 756, 477, 3, 2, 18, -4, 7, 7, 982, 965, 406,B
2025-03-10 14:30:52.505,885, 385, 144, 3, 17, 11, -7, 6, 7, 981, 959, 147,B
2025-03-10 14:30:52.564,589, 560, 815, -11, 13, 12, -4, 9, 7, 983, 962, 15,B
2025-03-10 14:30:52.614,1005, 459, 296, 8, 18, 0, -5, 8, 7, 980, 950, 9,B
2025-03-10 14:30:52.672,1014, 285, 489, 12, 21, -33, -5, 8, 5, 959, 868, 23,B
2025-03-10 14:30:52.724,631, 525, 667, -31, 11, -27, -5, 7, 5, 952, 871, 81,B
2025-03-10 14:30:53.020,745, 547, 406, -2, -4, 4, -6, 6, 7, 952, 868, 181,C
2025-03-10 14:30:53.068,744, 526, 411, -1, -4, 4, -6, 6, 7, 952, 871, 185,C
2025-03-10 14:30:53.120,715, 546, 420, 1, -2, 0, -5, 7, 8, 954, 883, 182,C
2025-03-10 14:30:53.170,728, 568, 388, -4, -5, 0, -5, 7, 8, 957, 892, 164,C
2025-03-10 14:30:53.228,643, 503, 504, -17, -5, -9, -4, 5, 9, 961, 914, 10,C
2025-03-10 14:30:53.285,884, 441, 582, -1, -11, -14, -6, 6, 7, 970, 928, 12,C
2025-03-10 14:30:53.336,1175, 615, 253, 11, 35, 29, -4, 6, 9, 980, 926, 10,C
2025-03-10 14:30:53.391,637, 629, 504, -23, 34, 41, -6, 8, 7, 980, 954, 12,C
2025-03-10 14:30:53.450,932, 367, 179, 15, 15, -62, -5, 7, 7, 954, 931, 179,C
2025-03-10 14:30:53.502,592, 579, 770, -44, 37, -38, -4, 5, 2, 934, 865, 21,C
2025-03-10 14:30:53.556,560, 566, 582, 3, -22, 4, -3, 6, 3, 930, 827, 10,C
2025-03-10 14:30:53.827,687, 553, 476, 1, -9, 1, -5, 7, 6, 928, 804, 6,D
2025-03-10 14:30:53.876,711, 554, 465, 2, -10, 2, -3, 6, 6, 930, 804, 12,D
2025-03-10 14:30:53.928,731, 546, 430, -1, -6, 0, -5, 8, 7, 931, 807, 9,D
2025-03-10 14:30:53.980,710, 552, 436, -1, -6, -2, -5, 7, 7, 927, 818, 124,D
2025-03-10 14:30:54.040,842, 456, 432, -12, -4, -15, -5, 7, 6, 942, 867, 14,D
2025-03-10 14:30:54.090,937, 953, 458, 38, 23, 34, -6, 5, 7, 972, 900, 9,D
2025-03-10 14:30:54.140,853, 706, 146, -18, 30, 30, -5, 9, 6, 973, 895, 12,D
2025-03-10 14:30:54.200,733, -65, 724, 42, -41, -69, -4, 7, 6, 957, 914, 230,D
2025-03-10 14:30:54.256,755, 392, 679, -5, -47, -11, -6, 7, 6, 974, 964, 373,D
2025-03-10 14:30:54.310,258, 657, 289, -3, 11, 32, -5, 6, 9, 985, 960, 14,D
2025-03-10 14:30:54.360,654, 590, -93, -14, 46, 24, -6, 9, 7, 976, 926, 10,D
2025-03-10 14:30:54.411,904, 285, 322, -13, 49, -61, -4, 8, 6, 945, 854, 10,D
2025-03-10 14:30:54.470,493, 539, 787, -18, 10, -38, -4, 8, 2, 932, 858, 17,D
2025-03-10 14:30:54.735,729, 560, 431, -4, -11, 3, -5, 6, 7, 930, 856, 142,E
2025-03-10 14:30:54.788,731, 547, 420, -4, -10, 1, -6, 7, 6, 932, 856, 145,E
2025-03-10 14:30:54.840,707, 543, 451, -11, -14, -2, -5, 5, 6, 932, 870, 169,E
2025-03-10 14:30:54.899,722, 534, 408, -2, -3, -4, -4, 7, 7, 935, 877, 153,E
2025-03-10 14:30:54.951,718, 455, 632, -15, -8, -8, -5, 7, 7, 956, 906, 20,E
2025-03-10 14:30:55.001,644, 986, 427, 8, 39, 59, -6, 6, 7, 976, 908, 9,E
2025-03-10 14:30:55.056,712, 636, 88, -26, 41, 33, -5, 8, 7, 972, 900, 19,E
2025-03-10 14:30:55.110,975, 603, 513, -3, -45, -64, -5, 9, 6, 964, 921, 24,E
2025-03-10 14:30:55.164,885, 594, 475, 29, -46, 1, -5, 5, 7, 978, 968, 16,E
2025-03-10 14:30:55.218,658, 628, 412, 27, 6, 17, -6, 7, 7, 975, 954, 146,E
2025-03-10 14:30:55.268,485, 563, 626, 10, 41, 0, -6, 8, 7, 967, 918, 27,E
2025-03-10 14:30:55.321,851, 649, 135, 4, -3, 1, -5, 6, 8, 980, 959, 20,E
2025-03-10 14:30:55.374,355, 466, 428, -9, 12, 22, -5, 8, 6, 981, 963, 19,E
2025-03-10 14:30:55.424,577, 449, 279, 21, 53, -1, -5, 7, 7, 970, 882, 6,E
2025-03-10 14:30:55.476,881, 585, 339, 9, -10, -4, -5, 6, 7, 978, 928, 18,E
2025-03-10 14:30:55.531,774, 452, 377, -3, 2, 27, -6, 7, 6, 982, 959, 13,E
2025-03-10 14:30:55.583,969, 359, -82, 8, 34, -67, -4, 7, 6, 952, 885, 126,E
2025-03-10 14:30:55.870,723, 552, 375, -8, -3, -3, -5, 7, 8, 934, 812, 255,F
2025-03-10 14:30:55.923,740, 559, 381, -9, -2, -3, -5, 7, 6, 935, 815, 253,F
2025-03-10 14:30:55.982,717, 554, 411, -10, -5, -4, -3, 5, 6, 935, 825, 247,F
2025-03-10 14:30:56.034,722, 541, 399, -15, -11, -3, -5, 7, 8, 941, 867, 169,F
2025-03-10 14:30:56.091,716, 435, 672, -9, -12, -11, -4, 5, 8, 963, 909, 14,F
2025-03-10 14:30:56.143,622, 845, -11, -18, 30, 37, -6, 5, 7, 979, 905, 13,F
2025-03-10 14:30:56.199,743, 674, 137, -22, 40, 22, -6, 8, 8, 972, 909, 10,F
2025-03-10 14:30:56.255,886, 655, 355, -11, -45, -57, -5, 7, 8, 964, 933, 12,F
2025-03-10 14:30:56.308,557, 653, 47, 10, -40, 7, -5, 6, 7, 982, 965, 29,F
2025-03-10 14:30:56.361,623, 510, 508, 22, 18, 23, -6, 6, 9, 974, 936, 13,F
2025-03-10 14:30:56.414,292, 746, 702, -25, 43, -7, -6, 6, 8, 968, 873, 19,F
2025-03-10 14:30:56.464,856, 782, 21, 16, 1, 9, -6, 7, 8, 982, 959, 21,F
2025-03-10 14:30:56.512,718, 686, 451, 10, 8, 23, -6, 6, 7, 978, 956, 13,F
2025-03-10 14:30:56.570,798, 568, -15, -24, 71, -58, -5, 8, 6, 947, 864, 234,F
2025-03-10 14:30:56.860,724, 583, 415, -6, -5, 2, -5, 7, 6, 943, 829, 121,G
2025-03-10 14:30:56.915,737, 566, 404, -6, -5, 2, -5, 6, 7, 942, 832, 121,G
2025-03-10 14:30:56.967,709, 568, 424, -3, -1, 2, -5, 8, 6, 944, 844, 136,G
2025-03-10 14:30:57.020,726, 535, 437, 0, -11, 7, -6, 6, 7, 950, 867, 135,G
2025-03-10 14:30:57.073,693, 628, 430, -22, 0, -7, -5, 6, 8, 959, 905, 11,G
2025-03-10 14:30:57.127,626, 415, 559, -3, -4, -11, -6, 6, 7, 970, 934, 10,G
2025-03-10 14:30:57.173,579, 960, 81, 17, 20, 15, -6, 6, 7, 982, 920, 6,G
2025-03-10 14:30:57.230,909, 601, 140, -16, 37, 46, -4, 7, 8, 982, 945, 12,G
2025-03-10 14:30:57.282,619, 209, 811, 5, -26, -21, -4, 8, 7, 975, 950, 10,G
2025-03-10 14:30:57.340,758, 732, 331, 18, -10, 1, -5, 7, 7, 980, 946, 18,G
2025-03-10 14:30:57.390,874, 543, 312, -15, 29, 22, -5, 8, 6, 980, 926, 17,G
2025-03-10 14:30:57.447,624, 442, 529, -5, -18, -35, -5, 9, 6, 973, 883, 18,G
2025-03-10 14:30:57.500,985, 919, 623, 34, -35, 11, -5, 6, 7, 981, 956, 21,G
2025-03-10 14:30:57.553,757, 381, 434, 3, 2, -3, -5, 8, 7, 975, 935, 22,G
2025-03-10 14:30:57.606,529, 573, 509, -36, 62, -53, -4, 6, 3, 946, 833, 16,G
2025-03-10 14:30:57.861,717, 548, 408, -4, -1, -2, -4, 6, 7, 945, 827, 107,H
2025-03-10 14:30:57.910,713, 558, 409, -4, 0, -2, -5, 8, 7, 947, 823, 105,H
2025-03-10 14:30:57.967,723, 553, 431, -4, -2, 1, -5, 6, 7, 946, 825, 71,H
2025-03-10 14:30:58.020,694, 549, 398, -8, -8, -8, -5, 7, 7, 949, 842, 150,H
2025-03-10 14:30:58.073,597, 609, 502, -24, 0, -12, -5, 4, 9, 954, 892, 11,H
2025-03-10 14:30:58.127,758, 335, 595, 49, -25, -19, -5, 5, 7, 975, 923, 13,H
2025-03-10 14:30:58.180,736, 926, 155, -1, 43, 49, -5, 6, 7, 980, 890, 17,H
2025-03-10 14:30:58.230,673, 487, 470, -49, 26, 7, -5, 8, 8, 969, 843, 9,H
2025-03-10 14:30:58.290,869, 538, 629, 45, -33, -16, -5, 7, 5, 980, 945, 10,H
2025-03-10 14:30:58.340,732, 752, 359, 3, 4, 29, -5, 6, 7, 981, 960, 18,H
2025-03-10 14:30:58.393,633, 645, 293, -19, 4, -53, -4, 8, 7, 972, 940, 307,H
2025-03-10 14:30:58.451,578, 1152, 797, 16, -31, -7, -5, 5, 8, 981, 945, 61,H
2025-03-10 14:30:58.504,748, 1018, -90, -7, 60, 62, -4, 7, 9, 984, 932, 13,H
2025-03-10 14:30:58.553,778, 589, 404, 5, 27, 3, -6, 6, 6, 967, 864, 10,H
2025-03-10 14:30:58.844,708, 563, 451, -6, -2, -1, -4, 6, 7, 936, 764, 15,I
2025-03-10 14:30:58.897,716, 570, 430, -7, -2, -1, -3, 7, 6, 936, 760, 17,I
2025-03-10 14:30:58.945,684, 549, 460, -8, 0, -3, -4, 7, 6, 938, 766, 10,I
2025-03-10 14:30:59.000,621, 528, 540, -7, -7, -2, -5, 6, 6, 938, 765, 12,I
2025-03-10 14:30:59.057,828, 544, 395, -17, -8, -20, -5, 7, 7, 957, 831, 15,I
2025-03-10 14:30:59.110,420, 683, 111, -15, -44, 48, -6, 5, 7, 980, 961, 23,I
2025-03-10 14:30:59.162,698, 582, 444, 38, 6, 13, -6, 7, 8, 977, 943, 121,I
2025-03-10 14:30:59.220,419, 607, 586, -13, 23, -18, -7, 7, 7, 968, 905, 235,I
2025-03-10 14:30:59.274,645, 784, 107, 4, 11, 26, -5, 5, 8, 982, 935, 17,I
2025-03-10 14:30:59.321,786, 381, 471, 12, 35, 26, -4, 7, 6, 976, 883, 7,I
2025-03-10 14:30:59.380,565, 495, 589, -14, 13, -31, -5, 7, 6, 960, 801, 8,I
2025-03-10 14:30:59.430,605, 867, 588, -6, -32, 15, -5, 6, 6, 979, 953, 11,I
2025-03-10 14:30:59.482,763, 338, 420, 19, 4, 21, -5, 8, 6, 976, 945, 11,I
2025-03-10 14:30:59.800,705, 554, 438, -10, -4, -5, -5, 5, 4, 932, 817, 185,J
2025-03-10 14:30:59.854,701, 571, 433, -11, -4, -6, -5, 8, 6, 932, 813, 126,J
2025-03-10 14:30:59.910,663, 547, 494, -9, -5, 0, -6, 7, 8, 934, 812, 122,J
2025-03-10 14:30:59.963,890, 213, 80, -53, -3, -21, -4, 6, 7, 948, 840, 11,J
2025-03-10 14:31:00.018,738, 836, 439, 16, -35, 20, -4, 5, 8, 976, 954, 252,J
2025-03-10 14:31:00.072,629, 563, 521, 28, 3, 12, -5, 7, 7, 978, 949, 353,J
2025-03-10 14:31:00.126,717, 484, 365, 10, 14, -24, -6, 7, 8, 962, 893, 582,J
2025-03-10 14:31:00.180,884, 878, 372, 22, 5, 35, -5, 6, 9, 979, 937, 229,J
2025-03-10 14:31:00.233,385, 1013, 168, -58, 36, 53, -6, 6, 6, 985, 941, 11,J
2025-03-10 14:31:00.290,1167, 158, 739, -11, 28, -32, -4, 9, 6, 964, 870, 19,J
2025-03-10 14:31:00.342,816, 692, 187, -18, 42, -25, -3, 7, 3, 938, 833, 138,J
2025-03-10 14:31:00.400,480, 608, 683, -8, -16, -14, -3, 7, 4, 945, 856, 133,J
2025-03-10 14:31:00.690,691, 553, 446, -7, -11, -1, -5, 8, 6, 945, 863, 252,K
2025-03-10 14:31:00.747,691, 557, 450, -6, -11, -1, -5, 7, 6, 945, 867, 258,K
2025-03-10 14:31:00.805,1057, 449, 311, -19, -2, -10, -6, 6, 7, 954, 893, 233,K
2025-03-10 14:31:00.859,727, 499, 536, -2, -3, -4, -5, 8, 6, 965, 913, 60,K
2025-03-10 14:31:00.909,762, 753, 472, 19, 25, 24, -4, 8, 8, 976, 884, 8,K
2025-03-10 14:31:00.964,916, 560, 235, -18, 27, 27, -4, 8, 6, 978, 892, 20,K
2025-03-10 14:31:01.032,308, 224, 249, 17, -27, -7, -4, 9, 7, 980, 964, 11,K
2025-03-10 14:31:01.072,648, 430, 578, 22, -16, -7, -5, 6, 7, 975, 959, 110,K
2025-03-10 14:31:01.129,560, 591, 270, -41, 55, -25, -6, 8, 6, 965, 882, 15,K
2025-03-10 14:31:01.180,872, 645, 325, 6, -11, 21, -6, 7, 6, 982, 932, 23,K
2025-03-10 14:31:01.230,397, 539, 243, -23, 29, 51, -4, 7, 6, 982, 946, 18,K
2025-03-10 14:31:01.287,693, 491, 125, -1, 55, -97, -4, 9, 6, 956, 862, 11,K
2025-03-10 14:31:01.341,473, 626, 965, -25, 2, -29, -3, 7, 2, 914, 800, 7,K
2025-03-10 14:31:01.613,678, 553, 467, -5, -6, 2, -5, 7, 4, 929, 825, 80,L
2025-03-10 14:31:01.665,697, 560, 472, -5, -7, 2, -5, 5, 6, 930, 827, 98,L
2025-03-10 14:31:01.718,718, 535, 459, -1, -6, 2, -4, 7, 5, 933, 834, 101,L
2025-03-10 14:31:01.772,702, 562, 418, -3, -3, -3, -3, 6, 6, 936, 836, 129,L
2025-03-10 14:31:01.824,685, 566, 446, -1, -13, -3, -5, 6, 8, 938, 858, 162,L
2025-03-10 14:31:01.875,779, 618, 453, -26, -4, -9, -4, 7, 7, 957, 904, 17,L
2025-03-10 14:31:01.930,722, 675, 527, 39, 26, 19, -5, 7, 7, 975, 895, 14,L
2025-03-10 14:31:01.980,799, 498, 375, -2, 19, 21, -4, 7, 7, 979, 858, 17,L
2025-03-10 14:31:02.037,1047, 791, 669, 2, -5, 48, -5, 8, 6, 984, 958, 10,L
2025-03-10 14:31:02.087,623, 465, 540, 29, 3, 8, -5, 9, 5, 980, 953, 8,L
2025-03-10 14:31:02.145,734, 643, 126, -46, 84, -75, -4, 9, 4, 958, 896, 19,L
2025-03-10 14:31:02.203,464, 562, 941, -19, -14, -22, -2, 7, 1, 947, 829, 13,L
2025-03-10 14:31:02.476,692, 558, 460, -2, -5, -2, -3, 7, 6, 927, 805, 78,M
2025-03-10 14:31:02.530,709, 559, 466, -1, -6, -3, -3, 7, 7, 927, 806, 88,M
2025-03-10 14:31:02.584,698, 552, 451, -1, -6, -3, -5, 7, 6, 926, 803, 107,M
2025-03-10 14:31:02.634,701, 519, 429, -4, -18, -1, -5, 6, 7, 939, 842, 8,M
2025-03-10 14:31:02.690,755, 530, 546, 25, -5, -8, -4, 5, 7, 975, 896, 18,M
2025-03-10 14:31:02.743,719, 972, 32, -16, 41, 55, -3, 7, 7, 980, 879, 17,M
2025-03-10 14:31:02.792,652, 63, 826, 25, -41, -50, -3, 6, 6, 963, 908, 36,M
2025-03-10 14:31:02.853,737, 470, 718, -41, -14, -7, -6, 7, 6, 973, 949, 163,M
2025-03-10 14:31:02.904,803, 708, 126, -4, 14, 39, -5, 7, 7, 981, 957, 19,M
2025-03-10 14:31:02.956,642, 444, 605, -1, -5, 8, -5, 8, 7, 978, 960, 120,M
2025-03-10 14:31:03.012,667, 254, 897, 13, -14, -12, -4, 6, 6, 981, 960, 224,M
2025-03-10 14:31:03.066,867, 126, 260, 24, 29, 34, -5, 10, 8, 983, 950, 11,M
2025-03-10 14:31:03.120,738, 386, 794, -5, 12, -4, -5, 10, 6, 972, 930, 33,M
2025-03-10 14:31:03.177,597, 524, 639, -36, 28, -30, -6, 7, 5, 958, 924, 37,M
2025-03-10 14:31:03.431,696, 542, 453, -1, -2, -4, -5, 6, 7, 942, 838, 140,N
2025-03-10 14:31:03.483,711, 542, 461, 0, -3, -4, -5, 6, 7, 941, 840, 146,N
2025-03-10 14:31:03.545,671, 564, 470, -3, -7, -3, -4, 6, 7, 940, 845, 234,N
2025-03-10 14:31:03.598,746, 516, 348, -7, -3, -9, -5, 6, 7, 955, 900, 142,N
2025-03-10 14:31:03.645,573, 664, 526, 23, 23, 35, -4, 5, 7, 976, 902, 8,N
2025-03-10 14:31:03.705,840, 629, 191, -19, 34, 39, -6, 9, 6, 977, 871, 13,N
2025-03-10 14:31:03.755,653, 200, 526, 35, -42, -74, -6, 7, 5, 957, 904, 331,N
2025-03-10 14:31:03.813,750, 334, 693, -40, -18, -9, -3, 7, 6, 975, 951, 20,N
2025-03-10 14:31:03.861,661, 644, 253, 7, 38, 82, -5, 7, 7, 982, 941, 13,N
2025-03-10 14:31:03.917,690, 494, 494, -36, 8, 3, -6, 9, 6, 980, 955, 8,N
2025-03-10 14:31:03.975,791, 469, 533, 28, -25, -13, -4, 7, 7, 966, 948, 388,N
2025-03-10 14:31:04.026,689, 583, 216, -9, 74, -13, -5, 6, 7, 958, 888, 345,N
2025-03-10 14:31:04.303,702, 546, 505, 1, -7, 3, -5, 7, 6, 948, 852, 39,O
2025-03-10 14:31:04.352,702, 536, 493, 3, -8, 3, -5, 7, 6, 947, 855, 40,O
2025-03-10 14:31:04.406,703, 542, 460, 6, -12, 11, -6, 7, 6, 953, 873, 111,O
2025-03-10 14:31:04.459,780, 607, 326, 3, -3, -7, -5, 7, 7, 956, 895, 156,O
2025-03-10 14:31:04.517,721, 498, 590, -17, -5, -15, -6, 8, 8, 961, 933, 12,O
2025-03-10 14:31:04.570,958, 583, 580, 56, 6, -12, -5, 6, 7, 978, 917, 12,O
2025-03-10 14:31:04.623,965, 152, 194, -24, 35, 68, -5, 8, 6, 984, 953, 11,O
2025-03-10 14:31:04.675,1013, 56, 851, 10, -46, -55, -6, 9, 6, 977, 965, 8,O
2025-03-10 14:31:04.734,882, 732, 366, 36, -16, -26, -5, 7, 7, 920, 912, 415,O
2025-03-10 14:31:04.786,656, 567, 395, -51, 81, -25, -5, 6, 5, 923, 832, 17,O
2025-03-10 14:31:04.841,491, 635, 725, -5, -4, 12, -4, 6, 3, 920, 761, 10,O
2025-03-10 14:31:05.110,726, 551, 431, -2, -5, 3, -4, 6, 4, 917, 796, 12,P
2025-03-10 14:31:05.169,720, 550, 446, -2, -3, 3, -4, 6, 4, 919, 798, 13,P
2025-03-10 14:31:05.222,634, 532, 583, 15, -27, 6, -4, 6, 6, 930, 836, 12,P
2025-03-10 14:31:05.274,842, 421, 418, -20, 5, -11, -5, 5, 6, 955, 897, 21,P
2025-03-10 14:31:05.326,318, 393, 447, -16, 37, 61, -4, 8, 7, 978, 916, 20,P
2025-03-10 14:31:05.380,730, 708, 85, -9, 32, 22, -3, 8, 7, 977, 922, 22,P
2025-03-10 14:31:05.437,1297, 681, 470, 45, -54, -72, -5, 8, 6, 969, 950, 204,P
2025-03-10 14:31:05.490,677, 619, 681, -6, -25, 6, -6, 5, 6, 982, 968, 15,P
2025-03-10 14:31:05.540,411, 509, -48, -6, 39, 35, -5, 8, 8, 983, 956, 19,P
2025-03-10 14:31:05.594,1025, 333, 326, -2, 39, -6, -5, 6, 7, 963, 874, 12,P
2025-03-10 14:31:05.654,591, 505, 763, -25, 29, -28, -4, 8, 4, 957, 869, 15,P
2025-03-10 14:31:05.935,721, 537, 470, 7, -13, 9, -5, 7, 5, 951, 868, 50,Q
2025-03-10 14:31:05.983,714, 538, 452, 5, -15, 8, -5, 6, 6, 953, 868, 63,Q
2025-03-10 14:31:06.044,699, 556, 406, -23, 1, -13, -5, 7, 6, 958, 910, 19,Q
2025-03-10 14:31:06.097,475, 553, 527, -6, -4, -22, -4, 8, 6, 967, 938, 9,Q
2025-03-10 14:31:06.143,994, 742, 146, 32, 31, 31, -6, 7, 9, 980, 926, 13,Q
2025-03-10 14:31:06.203,635, 123, 263, -22, 37, 41, -5, 7, 6, 983, 959, 15,Q
2025-03-10 14:31:06.252,693, 357, 679, 30, -37, -60, -5, 9, 5, 972, 965, 17,Q
2025-03-10 14:31:06.310,900, 592, 127, 1, 18, -13, -4, 7, 6, 961, 920, 12,Q
2025-03-10 14:31:06.363,468, 604, 948, 6, -35, 37, -5, 8, 5, 970, 908, 14,Q
2025-03-10 14:31:06.413,330, 516, 386, -18, 2, 36, -5, 8, 6, 984, 951, 11,Q
2025-03-10 14:31:06.469,723, 444, 576, 23, 4, 20, -5, 9, 6, 976, 924, 19,Q
2025-03-10 14:31:06.520,620, 535, 355, -34, 73, -70, -4, 7, 3, 932, 778, 19,Q
2025-03-10 14:31:06.814,706, 541, 492, -8, -5, -6, -2, 7, 6, 916, 770, 11,R
2025-03-10 14:31:06.867,681, 541, 480, -9, -6, -8, -3, 8, 5, 916, 770, 12,R
2025-03-10 14:31:06.925,625, 511, 551, -9, -18, -17, -3, 8, 4, 911, 799, 21,R
2025-03-10 14:31:06.977,642, 674, 616, -1, -6, -15, -5, 7, 7, 950, 882, 15,R
2025-03-10 14:31:07.032,627, 818, 343, 30, 40, 47, -6, 8, 6, 976, 900, 20,R
2025-03-10 14:31:07.083,743, 588, 278, -12, 27, 26, -4, 9, 6, 975, 900, 10,R
2025-03-10 14:31:07.142,902, 149, 728, 73, -54, -81, -2, 8, 5, 952, 920, 24,R
2025-03-10 14:31:07.196,578, 716, 604, -9, -39, 3, -4, 5, 6, 978, 959, 12,R
2025-03-10 14:31:07.249,550, 760, 209, -19, 13, 23, -5, 7, 8, 981, 947, 11,R
2025-03-10 14:31:07.302,815, 578, 475, -45, 34, 63, -5, 8, 5, 984, 944, 9,R
2025-03-10 14:31:07.353,933, 81, 260, -6, 28, -47, -4, 9, 4, 978, 930, 21,R
2025-03-10 14:31:07.401,556, 517, 653, -5, 31, -60, -4, 9, 4, 950, 874, 16,R
2025-03-10 14:31:07.674,699, 513, 516, 0, -8, 4, -5, 7, 5, 946, 865, 12,S
2025-03-10 14:31:07.731,696, 514, 541, 4, -10, 5, -5, 8, 4, 945, 866, 17,S
2025-03-10 14:31:07.781,721, 533, 458, 5, -22, 13, -5, 7, 6, 951, 880, 11,S
2025-03-10 14:31:07.839,709, 539, 427, -20, 6, -8, -4, 8, 5, 959, 913, 12,S
2025-03-10 14:31:07.892,525, 222, 659, 26, -10, -25, -6, 8, 7, 966, 929, 12,S
2025-03-10 14:31:07.942,937, 562, 122, 18, 31, 22, -4, 8, 6, 982, 937, 10,S
2025-03-10 14:31:08.001,511, 552, 615, -12, 15, 24, -5, 10, 4, 984, 948, 13,S
2025-03-10 14:31:08.054,612, 363, 427, 28, 24, -3, -6, 10, 4, 967, 863, 5,S
2025-03-10 14:31:08.109,833, 507, 338, -29, 65, -50, -3, 8, 3, 930, 774, 24,S
2025-03-10 14:31:08.162,469, 597, 844, -2, -10, -18, -4, 8, 2, 930, 809, 7,S
2025-03-10 14:31:08.443,710, 547, 495, 1, -7, 3, -4, 8, 5, 918, 794, 18,T
2025-03-10 14:31:08.497,716, 532, 487, 1, -7, 3, -3, 8, 5, 918, 795, 7,T
2025-03-10 14:31:08.550,708, 527, 472, 6, -7, -2, -4, 6, 5, 920, 802, 18,T
2025-03-10 14:31:08.600,658, 541, 500, -6, -5, -5, -3, 6, 5, 924, 815, 8,T
2025-03-10 14:31:08.651,928, 423, 401, -28, 2, -21, -6, 7, 6, 946, 847, 17,T
2025-03-10 14:31:08.710,910, 905, 505, -10, -37, 41, -5, 5, 6, 979, 952, 11,T
2025-03-10 14:31:08.764,507, 405, 571, 33, -1, 13, -5, 8, 7, 979, 955, 21,T
2025-03-10 14:31:08.821,686, 473, 207, -10, 31, -39, -5, 8, 7, 965, 915, 126,T
2025-03-10 14:31:08.873,758, 322, 699, 36, -10, -12, -5, 6, 7, 977, 931, 19,T
2025-03-10 14:31:08.923,965, 241, 294, -14, 29, 36, -5, 8, 6, 985, 936, 13,T
2025-03-10 14:31:08.981,750, 521, 514, 20, 23, -3, -4, 9, 7, 965, 858, 10,T
2025-03-10 14:31:09.039,703, 540, 492, -35, 39, -47, -3, 8, 2, 904, 821, 13,T
2025-03-10 14:31:09.090,502, 583, 725, -12, -16, -14, -2, 8, 2, 864, 803, 18,T
2025-03-10 14:31:09.366,716, 521, 471, -3, 0, -5, -5, 7, 7, 903, 777, 19,U
2025-03-10 14:31:09.419,718, 530, 485, -2, -1, -4, -6, 6, 6, 904, 780, 16,U
2025-03-10 14:31:09.472,712, 534, 454, -5, -4, -5, -6, 6, 5, 908, 799, 19,U
2025-03-10 14:31:09.525,661, 557, 500, -11, -15, -3, -5, 7, 6, 918, 834, 9,U
2025-03-10 14:31:09.572,726, 427, 562, -8, -3, -9, -5, 7, 8, 954, 886, 12,U
2025-03-10 14:31:09.630,711, 767, 615, 21, 14, 47, -5, 7, 7, 977, 926, 11,U
2025-03-10 14:31:09.685,536, 604, 313, -18, 10, 26, -5, 9, 5, 977, 947, 12,U
2025-03-10 14:31:09.741,454, 474, 717, 13, -27, -33, -5, 8, 3, 964, 946, 43,U
2025-03-10 14:31:09.796,666, 366, 460, 25, -16, -14, -6, 7, 7, 976, 945, 19,U
2025-03-10 14:31:09.850,530, 345, 278, -1, 29, 34, -3, 8, 6, 981, 938, 10,U
2025-03-10 14:31:09.901,904, 138, 430, 2, 12, -29, -5, 8, 6, 966, 894, 17,U
2025-03-10 14:31:09.955,702, 497, 615, -34, 39, -46, -4, 9, 3, 921, 842, 8,U
2025-03-10 14:31:10.008,513, 552, 678, -6, -8, -12, -3, 7, 1, 898, 808, 20,U
2025-03-10 14:31:10.295,672, 517, 494, 19, -14, 4, -2, 8, 4, 889, 725, 10,V
2025-03-10 14:31:10.350,667, 535, 499, 21, -14, 3, -5, 7, 4, 885, 728, 9,V
2025-03-10 14:31:10.400,795, 525, 414, 10, -11, 1, -5, 7, 5, 880, 733, 11,V
2025-03-10 14:31:10.454,712, 554, 424, -7, 7, -14, -3, 7, 4, 878, 721, 12,V
2025-03-10 14:31:10.502,605, 559, 599, 4, -28, -3, -5, 8, 4, 889, 758, 9,V
2025-03-10 14:31:10.561,833, 520, 359, -19, 0, -11, -5, 6, 6, 935, 864, 14,V
2025-03-10 14:31:10.614,854, 459, 584, 28, -7, 13, -5, 7, 7, 970, 906, 14,V
2025-03-10 14:31:10.664,831, 549, 312, -4, 15, 41, -5, 7, 7, 979, 921, 14,V
2025-03-10 14:31:10.722,386, -18, 956, -28, -36, -12, -4, 9, 6, 979, 958, 14,V
2025-03-10 14:31:10.779,772, 581, 398, 40, -18, -8, -6, 9, 5, 957, 944, 162,V
2025-03-10 14:31:10.830,743, 478, 131, -39, 88, -29, -5, 8, 5, 941, 892, 17,V
2025-03-10 14:31:10.885,463, 609, 870, -24, 45, -1, -4, 6, 1, 931, 779, 10,V
2025-03-10 14:31:11.161,694, 531, 453, 5, -1, 1, -5, 8, 7, 903, 714, 19,W
2025-03-10 14:31:11.210,695, 525, 458, 6, 0, 0, -6, 7, 6, 904, 715, 16,W
2025-03-10 14:31:11.263,702, 531, 452, 10, 1, -4, -4, 6, 6, 904, 717, 16,W
2025-03-10 14:31:11.315,692, 566, 424, 3, -8, -12, -5, 7, 7, 911, 745, 15,W
2025-03-10 14:31:11.370,779, 477, 623, -21, -9, -13, -3, 6, 5, 955, 891, 9,W
2025-03-10 14:31:11.427,823, 680, 177, -23, 28, 45, -5, 7, 7, 980, 929, 12,W
2025-03-10 14:31:11.480,806, 623, 342, -16, 12, 27, -3, 9, 6, 978, 949, 10,W
2025-03-10 14:31:11.530,698, 761, 640, -7, -30, -27, -5, 8, 5, 972, 956, 7,W
2025-03-10 14:31:11.586,939, 853, 186, 1, 15, 53, -4, 8, 7, 977, 946, 12,W
2025-03-10 14:31:11.636,788, 659, 432, -42, 6, 25, -5, 9, 5, 977, 954, 10,W
2025-03-10 14:31:11.693,847, 374, 517, 37, -27, -19, -6, 9, 7, 963, 933, 14,W
2025-03-10 14:31:11.746,713, 509, 378, -26, 73, -38, -5, 8, 5, 939, 851, 15,W
2025-03-10 14:31:12.043,733, 530, 491, 6, -16, 5, -6, 7, 7, 928, 799, 10,X
2025-03-10 14:31:12.093,747, 513, 445, 6, -16, 5, -5, 7, 7, 928, 799, 5,X
2025-03-10 14:31:12.155,760, 527, 409, -2, -3, -2, -6, 8, 8, 931, 815, 18,X
2025-03-10 14:31:12.200,741, 534, 462, 0, -8, -2, -3, 7, 5, 934, 837, 11,X
2025-03-10 14:31:12.253,685, 530, 433, -11, -13, 2, -5, 8, 6, 946, 876, 39,X
2025-03-10 14:31:12.306,720, 480, 645, -17, -11, -9, -6, 9, 7, 965, 937, 4,X
2025-03-10 14:31:12.360,-2, 654, 298, 54, 31, 10, -5, 7, 7, 978, 928, 10,X
2025-03-10 14:31:12.413,885, 503, 313, -18, 42, 34, -5, 8, 8, 973, 899, 14,X
2025-03-10 14:31:12.470,724, -43, 844, 28, -36, -72, -4, 8, 6, 937, 871, 16,X
2025-03-10 14:31:12.523,788, 400, 815, -27, -16, -9, -5, 4, 7, 966, 937, 12,X
2025-03-10 14:31:12.573,636, 468, 228, -37, 26, 65, -6, 8, 7, 984, 957, 19,X
2025-03-10 14:31:12.630,676, 427, 460, 23, 13, 9, -6, 9, 6, 974, 930, 15,X
2025-03-10 14:31:12.687,648, 524, 329, -24, 51, -62, -5, 7, 6, 918, 846, 132,X
2025-03-10 14:31:12.975,700, 561, 486, -4, -1, 0, -5, 6, 6, 904, 810, 10,Y
2025-03-10 14:31:13.032,702, 542, 486, -2, -2, 0, -4, 8, 7, 905, 807, 14,Y
2025-03-10 14:31:13.080,717, 538, 441, 1, -4, -4, -5, 7, 6, 905, 821, 19,Y
2025-03-10 14:31:13.135,694, 555, 471, -5, -2, -8, -5, 6, 5, 902, 828, 10,Y
2025-03-10 14:31:13.188,607, 590, 558, 2, -26, 2, -4, 6, 5, 909, 851, 12,Y
2025-03-10 14:31:13.240,854, 452, 560, 9, -9, -4, -5, 6, 7, 967, 917, 11,Y
2025-03-10 14:31:13.290,610, 457, 212, 32, 8, 39, -5, 7, 8, 980, 951, 10,Y
2025-03-10 14:31:13.342,708, 513, 599, 20, -5, 1, -5, 8, 7, 969, 933, 216,Y
2025-03-10 14:31:13.400,528, 636, 895, -10, -27, 7, -6, 8, 8, 960, 928, 406,Y
2025-03-10 14:31:13.450,682, 512, 259, 42, 10, 8, -6, 7, 8, 982, 938, 6,Y
2025-03-10 14:31:13.502,892, 710, 113, 3, 33, 28, -6, 8, 6, 979, 909, 3,Y
2025-03-10 14:31:13.551,781, 553, 672, 40, 19, 6, -6, 8, 6, 939, 836, 9,Y
2025-03-10 14:31:13.603,653, 588, 409, -50, 31, -46, -5, 8, 5, 897, 829, 10,Y
2025-03-10 14:31:13.663,537, 596, 774, -15, -21, -8, -2, 5, 4, 900, 829, 10,Y
2025-03-10 14:31:13.973,704, 527, 494, 3, -6, -1, -5, 7, 5, 900, 787, 18,Z
2025-03-10 14:31:14.027,702, 542, 487, 3, -7, -1, -4, 7, 6, 902, 787, 11,Z
2025-03-10 14:31:14.076,639, 542, 480, 7, -5, 1, -3, 7, 8, 905, 793, 13,Z
2025-03-10 14:31:14.130,614, 719, 337, 0, 0, -21, -4, 7, 7, 939, 861, 6,Z
2025-03-10 14:31:14.182,654, 776, 505, 1, -25, 17, -6, 7, 7, 972, 954, 10,Z
2025-03-10 14:31:14.232,581, 738, 486, 28, 6, 13, -6, 8, 8, 980, 952, 21,Z
2025-03-10 14:31:14.284,590, 697, 450, 15, 40, 25, -5, 7, 7, 981, 941, 4,Z
2025-03-10 14:31:14.338,765, 432, 500, 10, 5, -3, -5, 6, 5, 982, 939, 14,Z
2025-03-10 14:31:14.390,509, 672, 426, -24, -19, 21, -5, 8, 6, 984, 963, 18,Z
2025-03-10 14:31:14.444,737, 542, 450, 13, 2, 1, -4, 9, 6, 974, 951, 22,Z
2025-03-10 14:31:14.498,714, 582, 65, -31, 35, -64, -3, 6, 7, 955, 866, 19,Z
2025-03-10 14:31:14.551,877, 628, 1083, 31, -57, 26, -5, 7, 6, 956, 835, 14,Z
2025-03-10 14:31:14.602,523, 837, 73, -42, -15, 38, -4, 6, 7, 982, 962, 19,Z
2025-03-10 14:31:14.659,722, 201, 354, 19, -2, 15, -4, 6, 7, 979, 949, 14,Z
2025-03-10 14:31:14.714,878, 420, 80, -13, 53, -41, -6, 8, 6, 943, 821, 18,Z
2025-03-10 14:31:14.767,598, 540, 916, -24, 41, -23, -3, 8, 4, 903, 543, 10,Z
2025-03-10 14:31:15.035,710, 565, 452, -3, -2, 2, -5, 6, 4, 917, 692, 10,a
2025-03-10 14:31:15.085,715, 557, 444, -3, -2, 3, -5, 6, 6, 919, 694, 12,a
2025-03-10 14:31:15.140,740, 558, 468, -1, 1, 5, -6, 7, 7, 936, 718, 18,a
2025-03-10 14:31:15.190,698, 558, 438, -2, 2, 4, -5, 7, 6, 947, 741, 18,a
2025-03-10 14:31:15.243,708, 556, 459, -3, 1, 10, -3, 7, 6, 953, 762, 16,a
2025-03-10 14:31:15.292,723, 515, 466, 1, -2, 6, -5, 8, 7, 956, 775, 15,a
2025-03-10 14:31:15.345,639, 533, 536, 0, -13, 15, -4, 7, 7, 961, 797, 19,a
2025-03-10 14:31:15.400,856, 489, 400, -22, 0, -13, -5, 7, 7, 969, 894, 13,a
2025-03-10 14:31:15.450,877, 562, 512, 0, -11, -21, -5, 7, 8, 974, 912, 7,a
2025-03-10 14:31:15.505,880, 996, 249, -36, 33, 67, -6, 7, 8, 982, 922, 19,a
2025-03-10 14:31:15.561,652, 135, 774, -2, -7, -10, -4, 9, 5, 980, 944, 14,a
2025-03-10 14:31:15.615,908, 463, 656, 13, -18, -20, -5, 8, 7, 977, 946, 19,a
2025-03-10 14:31:15.670,646, 551, 108, -16, 35, 44, -4, 8, 7, 981, 943, 17,a
2025-03-10 14:31:15.722,820, 287, 309, -9, 12, -32, -4, 8, 6, 975, 931, 21,a
2025-03-10 14:31:15.780,656, 557, 639, -1, -8, -32, -4, 7, 6, 955, 919, 25,a
2025-03-10 14:31:16.059,741, 513, 231, -11, 3, -10, -5, 6, 7, 950, 897, 5,b
2025-03-10 14:31:16.110,772, 639, 450, -29, 2, -6, -6, 8, 7, 952, 904, 10,b
2025-03-10 14:31:16.164,778, 543, 499, 21, 3, 5, -5, 6, 7, 969, 916, 16,b
2025-03-10 14:31:16.214,485, 319, 574, 39, 50, 62, -5, 7, 6, 980, 903, 9,b
2025-03-10 14:31:16.266,777, 657, -8, -2, 25, 15, -5, 9, 5, 971, 909, 20,b
2025-03-10 14:31:16.320,838, 632, 624, 15, -53, -41, -4, 7, 6, 968, 947, 17,b
2025-03-10 14:31:16.378,699, 602, 479, -18, -13, 14, -5, 8, 7, 983, 961, 9,b
2025-03-10 14:31:16.432,570, 456, 249, -26, 29, 18, -5, 8, 7, 983, 946, 10,b
2025-03-10 14:31:16.480,1183, 235, 445, 16, 32, -39, -3, 9, 6, 960, 879, 12,b
2025-03-10 14:31:16.540,570, 522, 766, -19, 10, -27, -4, 7, 4, 958, 892, 12,b
2025-03-10 14:31:16.844,722, 531, 460, -4, 1, 1, -6, 8, 5, 949, 850, 14,c
2025-03-10 14:31:16.897,726, 518, 463, -5, 1, 0, -4, 9, 5, 947, 851, 10,c
2025-03-10 14:31:16.949,723, 497, 475, -2, 1, 0, -4, 8, 6, 949, 847, 5,c
2025-03-10 14:31:16.996,714, 535, 473, 0, -2, 5, -5, 9, 6, 952, 851, 14,c
2025-03-10 14:31:17.050,688, 533, 491, -1, -9, 9, -4, 7, 6, 957, 866, 17,c
2025-03-10 14:31:17.105,674, 743, 329, -18, -4, -13, -4, 9, 7, 965, 903, 20,c
2025-03-10 14:31:17.160,387, 435, 756, 13, -6, -21, -5, 8, 7, 978, 930, 11,c
2025-03-10 14:31:17.212,809, 750, 378, -10, 20, 35, -5, 8, 9, 986, 945, 13,c
2025-03-10 14:31:17.265,693, 195, 656, 7, -6, 15, -4, 9, 6, 981, 952, 13,c
2025-03-10 14:31:17.320,635, 556, 340, -26, 61, -56, -5, 9, 5, 958, 922, 10,c
2025-03-10 14:31:17.372,518, 567, 769, -17, 0, -17, -3, 7, 1, 926, 848, 16,c
2025-03-10 14:31:17.695,708, 521, 472, 2, -10, 3, -2, 7, 4, 926, 790, 16,d
2025-03-10 14:31:17.750,716, 520, 473, 2, -8, 4, -2, 8, 4, 930, 788, 18,d
2025-03-10 14:31:17.802,720, 522, 483, 0, -2, 2, -5, 10, 3, 934, 798, 11,d
2025-03-10 14:31:17.852,684, 531, 524, 4, -5, 5, -6, 8, 4, 939, 809, 21,d
2025-03-10 14:31:17.905,668, 511, 524, 7, -12, 11, -3, 7, 5, 947, 828, 18,d
2025-03-10 14:31:17.958,625, 505, 526, 9, -36, 11, -5, 8, 6, 956, 870, 15,d
2025-03-10 14:31:18.012,363, 450, 614, -10, -4, -29, -5, 9, 6, 968, 931, 11,d
2025-03-10 14:31:18.064,949, 834, 229, 16, 17, 15, -5, 7, 6, 982, 918, 13,d
2025-03-10 14:31:18.112,893, 752, 459, -42, 29, 56, -5, 8, 7, 983, 953, 19,d
2025-03-10 14:31:18.170,822, 394, 762, 16, -43, -58, -4, 8, 5, 972, 957, 19,d
2025-03-10 14:31:18.229,718, 331, 686, 30, -31, -27, -5, 9, 7, 980, 953, 14,d
2025-03-10 14:31:18.280,520, 487, 226, -4, 40, 58, -5, 9, 7, 984, 935, 7,d
2025-03-10 14:31:18.335,881, 155, 424, 3, 12, -26, -4, 9, 6, 970, 895, 21,d
2025-03-10 14:31:18.385,652, 514, 695, -18, 17, -30, -4, 9, 4, 945, 880, 9,d
2025-03-10 14:31:18.657,712, 541, 494, -2, -1, 0, -4, 8, 4, 944, 834, 18,e
2025-03-10 14:31:18.710,717, 521, 489, -1, 0, 0, -4, 8, 4, 945, 833, 13,e
2025-03-10 14:31:18.760,710, 497, 507, 0, 0, -1, -5, 10, 5, 946, 833, 8,e
2025-03-10 14:31:18.810,696, 521, 492, 3, -3, 4, -4, 6, 7, 946, 831, 18,e
2025-03-10 14:31:18.864,692, 520, 480, 5, 3, 2, -5, 7, 6, 945, 823, 18,e
2025-03-10 14:31:18.917,651, 520, 554, 15, -14, 8, -4, 9, 5, 947, 824, 10,e
2025-03-10 14:31:18.965,826, 376, 406, 2, -1, -3, -5, 9, 5, 972, 910, 15,e
2025-03-10 14:31:19.020,623, 568, 414, -10, -5, 23, -4, 8, 6, 981, 952, 14,e
2025-03-10 14:31:19.077,609, 272, 613, 4, -20, -36, -5, 9, 6, 975, 956, 13,e
2025-03-10 14:31:19.131,539, 342, 466, 18, 10, -21, -5, 8, 5, 980, 941, 20,e
2025-03-10 14:31:19.183,567, 399, 273, -17, 31, 47, -5, 8, 5, 984, 952, 19,e
2025-03-10 14:31:19.237,792, 240, 682, 30, -12, -9, -4, 7, 4, 976, 940, 22,e
2025-03-10 14:31:19.294,619, 506, 591, -36, 65, -51, -3, 8, 3, 941, 843, 19,e
2025-03-10 14:31:19.344,521, 532, 761, -8, -17, -9, -3, 9, 1, 922, 719, 11,e
2025-03-10 14:31:19.400,725, 535, 508, 4, -24, 5, -4, 8, 3, 921, 688, 12,e
2025-03-10 14:31:19.450,755, 529, 460, 1, -3, 1, -4, 8, 4, 922, 693, 8,e
2025-03-10 14:31:19.766,709, 526, 488, 4, -3, 5, -3, 8, 4, 918, 689, 10,f
2025-03-10 14:31:19.814,707, 520, 486, 4, -2, 5, -4, 8, 4, 919, 689, 2,f
2025-03-10 14:31:19.862,692, 510, 519, 2, 0, 7, -4, 8, 4, 924, 695, 17,f
2025-03-10 14:31:19.916,711, 528, 500, 9, -6, 8, -5, 9, 4, 932, 725, 14,f
2025-03-10 14:31:19.965,727, 520, 477, 6, -2, 8, -5, 8, 3, 937, 741, 8,f
2025-03-10 14:31:20.012,714, 521, 484, 6, -2, 8, -5, 7, 5, 940, 757, 10,f
2025-03-10 14:31:20.066,709, 511, 478, -1, -4, 8, -3, 8, 4, 945, 774, 19,f
2025-03-10 14:31:20.121,723, 539, 329, -3, 0, -6, -5, 9, 4, 951, 821, 10,f
2025-03-10 14:31:20.174,733, 419, 559, 4, -25, -62, -5, 8, 4, 961, 938, 13,f
2025-03-10 14:31:20.224,833, 394, 806, 11, -41, -7, -5, 7, 6, 977, 964, 151,f
2025-03-10 14:31:20.282,610, 739, 465, -11, 9, 29, -6, 6, 7, 982, 964, 80,f
2025-03-10 14:31:20.333,726, 416, 299, 3, 40, -16, -4, 8, 7, 975, 939, 14,f
2025-03-10 14:31:20.392,1066, 654, 518, -13, -5, -8, -5, 8, 7, 977, 936, 20,f
2025-03-10 14:31:20.440,941, 457, 174, 1, 1, 29, -5, 9, 6, 985, 962, 20,f
2025-03-10 14:31:20.494,741, 438, 500, 21, -5, -8, -5, 9, 7, 977, 944, 104,f
2025-03-10 14:31:20.551,625, 546, 467, -42, 68, -42, -5, 7, 4, 954, 820, 13,f
2025-03-10 14:31:20.903,669, 533, 484, 5, -5, 3, -4, 6, 5, 923, 733, 18,g
2025-03-10 14:31:20.955,701, 535, 483, 3, -5, 3, -5, 7, 5, 923, 737, 18,g
2025-03-10 14:31:21.002,699, 547, 486, 0, -4, 4, -4, 7, 5, 925, 744, 17,g
2025-03-10 14:31:21.060,712, 534, 478, 2, -4, 4, -5, 7, 5, 929, 752, 17,g
2025-03-10 14:31:21.104,718, 533, 468, 0, -3, 5, -5, 8, 6, 933, 763, 14,g
2025-03-10 14:31:21.156,718, 529, 464, 0, -3, 2, -3, 7, 5, 936, 770, 10,g
2025-03-10 14:31:21.211,692, 543, 497, 1, -6, 2, -4, 8, 4, 943, 799, 7,g
2025-03-10 14:31:21.265,609, 549, 564, 10, -29, 11, -6, 7, 6, 950, 834, 15,g
2025-03-10 14:31:21.316,915, 529, 563, -7, 0, -18, -5, 8, 7, 966, 897, 22,g
2025-03-10 14:31:21.370,936, 1203, 53, -29, 26, 40, -4, 7, 7, 981, 929, 5,g
2025-03-10 14:31:21.420,662, 391, 516, -2, 18, 23, -4, 9, 5, 980, 949, 21,g
2025-03-10 14:31:21.478,749, 372, 448, 31, -19, -35, -6, 8, 6, 965, 934, 16,g
2025-03-10 14:31:21.530,791, 1084, 177, -18, 29, 49, -5, 8, 6, 979, 940, 21,g
2025-03-10 14:31:21.583,783, 501, 324, -24, 24, 11, -4, 9, 4, 968, 855, 6,g
2025-03-10 14:31:21.642,921, 374, 377, 26, 26, -62, -4, 10, 4, 894, 680, 22,g
2025-03-10 14:31:22.162,669, 548, 515, -3, -1, -2, -3, 8, 4, 869, 725, 18,h
2025-03-10 14:31:22.214,659, 539, 513, -1, -2, -1, -4, 6, 4, 868, 729, 9,h
2025-03-10 14:31:22.266,686, 550, 514, -2, -1, 1, -4, 6, 3, 868, 742, 10,h
2025-03-10 14:31:22.317,686, 535, 520, -1, -2, 0, -3, 7, 2, 868, 750, 11,h
2025-03-10 14:31:22.370,692, 533, 515, -1, -2, 0, -3, 7, 3, 872, 756, 17,h
2025-03-10 14:31:22.423,680, 533, 524, -3, -3, 0, -4, 6, 3, 880, 764, 12,h
2025-03-10 14:31:22.470,685, 540, 493, -1, -4, 1, -2, 7, 4, 882, 774, 7,h
2025-03-10 14:31:22.525,590, 527, 607, 5, -29, -1, -4, 7, 4, 883, 806, 7,h
2025-03-10 14:31:22.580,807, 519, 48, -12, -63, 2, -5, 7, 7, 911, 867, 18,h
2025-03-10 14:31:22.622,791, 389, 583, 20, 2, -2, -4, 8, 6, 968, 908, 9,h
2025-03-10 14:31:22.680,666, 336, 445, -40, 30, 47, -5, 8, 6, 980, 909, 14,h
2025-03-10 14:31:22.734,886, 269, 825, 8, 10, 4, -4, 9, 6, 972, 921, 17,h
2025-03-10 14:31:22.788,665, 355, 552, 30, -23, -6, -5, 9, 4, 978, 940, 19,h
2025-03-10 14:31:22.840,706, 565, 483, 7, 25, 36, -5, 9, 5, 974, 886, 17,h
2025-03-10 14:31:22.894,611, 450, 478, -33, 57, -40, -4, 9, 2, 955, 824, 20,h
2025-03-10 14:31:22.948,546, 490, 725, -13, 0, -34, -2, 8, 2, 905, 788, 9,h
2025-03-10 14:31:23.610,674, 540, 527, 1, -4, 0, -5, 7, 4, 891, 752, 16,i
2025-03-10 14:31:23.661,683, 539, 528, 2, -4, 2, -3, 6, 3, 893, 752, 15,i
2025-03-10 14:31:23.710,676, 525, 538, 7, -9, 4, -3, 8, 4, 896, 756, 12,i
2025-03-10 14:31:23.764,719, 520, 482, 6, -11, 5, -4, 7, 5, 908, 780, 10,i
2025-03-10 14:31:23.819,706, 532, 477, 0, -4, 3, -4, 7, 4, 918, 799, 18,i
2025-03-10 14:31:23.865,713, 522, 487, 5, -5, 5, -5, 6, 4, 928, 811, 9,i
2025-03-10 14:31:23.915,707, 525, 481, 3, -5, 5, -4, 8, 5, 936, 823, 4,i
2025-03-10 14:31:23.967,689, 524, 480, 5, -10, 2, -6, 8, 4, 940, 841, 15,i
2025-03-10 14:31:24.020,738, 594, 535, 10, -2, -10, -5, 8, 6, 951, 880, 22,i
2025-03-10 14:31:24.074,395, 563, 451, -17, 12, 37, -5, 7, 6, 977, 919, 9,i
2025-03-10 14:31:24.124,761, 519, 304, -24, 23, 33, -5, 8, 5, 979, 911, 12,i
2025-03-10 14:31:24.184,1042, -3, 636, 37, -34, -107, -4, 9, 6, 950, 894, 8,i
2025-03-10 14:31:24.236,719, 520, 639, -39, 3, -28, -5, 7, 5, 951, 929, 20,i
2025-03-10 14:31:24.291,390, 633, 653, -13, 22, 12, -5, 7, 3, 954, 909, 7,i
2025-03-10 14:31:24.344,657, 424, 516, 20, -23, 19, -4, 8, 3, 954, 894, 12,i
2025-03-10 14:31:24.393,772, 466, 449, 8, -7, 2, -3, 7, 5, 949, 880, 6,i
2025-03-10 14:31:24.446,725, 535, 486, -1, -4, -1, -4, 7, 4, 952, 882, 14,i
2025-03-10 14:31:24.500,704, 525, 486, -1, -3, 0, -2, 9, 6, 952, 894, 9,i
2025-03-10 14:31:24.549,709, 514, 496, 4, -6, 0, -4, 8, 6, 945, 880, 11,i
2025-03-10 14:31:24.600,725, 516, 456, -5, 2, -3, -5, 8, 4, 943, 877, 12,i
2025-03-10 14:31:24.650,713, 527, 500, -4, -2, 1, -5, 7, 4, 949, 886, 12,i
2025-03-10 14:31:24.700,721, 514, 474, -3, 1, -1, -5, 7, 6, 951, 891, 15,i
2025-03-10 14:31:24.757,718, 522, 504, -2, -2, 0, -5, 8, 6, 951, 896, 21,i
2025-03-10 14:31:24.807,715, 528, 485, -1, -2, 1, -5, 7, 4, 951, 899, 8,i
2025-03-10 14:31:24.860,709, 514, 500, -2, -1, 0, -4, 9, 5, 953, 903, 19,i
2025-03-10 14:31:24.910,723, 513, 468, -3, 0, 0, -5, 7, 4, 953, 903, 11,i
2025-03-10 14:31:24.963,713, 524, 483, -1, -1, -1, -5, 7, 4, 956, 909, 19,i
2025-03-10 14:31:25.014,711, 512, 505, -2, -1, 0, -6, 9, 6, 956, 912, 18,i
2025-03-10 14:31:25.062,727, 502, 474, -2, 0, 0, -4, 9, 6, 956, 914, 19,i
2025-03-10 14:31:25.114,715, 516, 481, -2, 0, -2, -5, 9, 6, 955, 911, 21,i
2025-03-10 14:31:25.170,725, 507, 483, -5, 1, -7, -5, 8, 5, 956, 912, 12,i
2025-03-10 14:31:25.225,53, 566, 1156, 2, -89, 29, -4, 8, 7, 963, 934, 12,i
2025-03-10 14:31:25.273,792, 632, -170, 3, -5, 1, -5, 7, 8, 980, 952, 19,i
2025-03-10 14:31:25.327,799, 440, 857, 29, 0, 21, -5, 9, 6, 964, 922, 13,i
2025-03-10 14:31:25.380,655, 525, 358, -31, 73, -24, -5, 7, 6, 957, 900, 11,i
2025-03-10 14:31:25.434,456, 540, 803, -5, 10, 3, -5, 8, 3, 955, 883, 14,i
2025-03-10 14:31:25.488,644, 562, 619, 33, -45, 17, -3, 8, 3, 951, 869, 20,i
2025-03-10 14:31:25.955,710, 537, 492, -3, -1, -1, -5, 8, 4, 939, 843, 11,j
2025-03-10 14:31:26.012,701, 527, 491, -2, -1, 0, -4, 8, 5, 940, 843, 16,j
2025-03-10 14:31:26.060,699, 514, 500, -4, 1, 0, -3, 8, 5, 940, 845, 10,j
2025-03-10 14:31:26.110,710, 523, 489, 0, -1, 0, -5, 9, 4, 938, 839, 17,j
2025-03-10 14:31:26.164,704, 519, 503, 0, 0, 2, -3, 8, 4, 939, 838, 20,j
2025-03-10 14:31:26.211,708, 518, 499, 1, 0, 4, -6, 8, 6, 943, 837, 11,j
2025-03-10 14:31:26.262,715, 519, 499, 2, 0, 3, -5, 8, 5, 946, 843, 19,j
2025-03-10 14:31:26.313,712, 522, 479, 2, -1, 3, -4, 9, 6, 946, 846, 10,j
2025-03-10 14:31:26.363,712, 510, 482, 1, 1, 2, -4, 9, 6, 948, 848, 4,j
2025-03-10 14:31:26.411,715, 521, 494, 5, 3, 7, -6, 8, 5, 951, 843, 10,j
2025-03-10 14:31:26.462,708, 513, 474, 5, -5, 4, -5, 9, 5, 951, 841, 7,j
2025-03-10 14:31:26.513,609, 494, 759, 30, -45, 17, -5, 8, 7, 954, 865, 10,j
2025-03-10 14:31:26.566,782, 696, 250, 10, 5, 9, -6, 8, 7, 969, 916, 12,j
2025-03-10 14:31:26.616,540, 615, 330, -7, 33, 52, -5, 7, 7, 979, 923, 10,j
2025-03-10 14:31:26.671,781, 479, 64, -56, 40, 15, -5, 9, 6, 972, 919, 17,j
2025-03-10 14:31:26.724,742, 651, 391, -18, 5, -94, -5, 10, 5, 957, 920, 19,j
2025-03-10 14:31:26.781,872, 701, 713, 39, -19, -40, -5, 8, 6, 977, 950, 16,j
2025-03-10 14:31:26.830,976, 887, 393, 22, 20, 48, -5, 8, 8, 979, 942, 6,j
2025-03-10 14:31:26.888,773, 519, 16, -28, 85, -40, -5, 8, 7, 962, 904, 15,j
2025-03-10 14:31:26.946,416, 567, 915, -33, 45, -20, -4, 7, 4, 946, 862, 12,j
2025-03-10 14:31:27.260,681, 527, 532, -4, 2, 0, -5, 8, 4, 877, 756, 11,k
2025-03-10 14:31:27.312,678, 521, 538, -2, 0, 0, -4, 8, 5, 877, 754, 10,k
2025-03-10 14:31:27.362,695, 534, 500, 0, -3, 2, -4, 8, 4, 883, 756, 8,k
2025-03-10 14:31:27.413,686, 539, 513, -2, 0, 4, -4, 8, 4, 897, 770, 13,k
2025-03-10 14:31:27.465,710, 537, 472, -2, -2, 6, -4, 7, 3, 906, 782, 19,k
2025-03-10 14:31:27.517,704, 512, 515, -1, 1, 2, -6, 7, 4, 913, 796, 19,k
2025-03-10 14:31:27.568,708, 516, 510, -1, -2, 2, -5, 6, 3, 921, 806, 19,k
2025-03-10 14:31:27.620,696, 530, 477, -1, 0, 2, -5, 8, 5, 928, 816, 13,k
2025-03-10 14:31:27.670,700, 513, 512, 0, -5, 2, -4, 8, 5, 936, 824, 21,k
2025-03-10 14:31:27.722,709, 521, 483, 0, -3, 3, -5, 6, 5, 938, 831, 16,k
2025-03-10 14:31:27.777,580, 526, 577, 0, -29, -7, -4, 10, 6, 941, 863, 18,k
2025-03-10 14:31:27.831,827, 408, 470, -32, -6, -16, -6, 8, 8, 959, 913, 19,k
2025-03-10 14:31:27.886,1030, 1116, 336, 37, 52, 55, -5, 6, 8, 975, 885, 11,k
2025-03-10 14:31:27.940,829, 558, 131, 12, 24, 25, -5, 9, 6, 979, 930, 14,k
2025-03-10 14:31:27.993,565, 374, 674, 4, -34, -12, -3, 8, 6, 977, 965, 11,k
2025-03-10 14:31:28.046,693, 537, 488, 35, -18, -11, -5, 8, 7, 964, 922, 19,k
2025-03-10 14:31:28.102,1537, 191, 727, -24, -11, -14, -4, 7, 6, 969, 903, 12,k
2025-03-10 14:31:28.159,900, 130, 315, -5, 14, 51, -3, 9, 8, 983, 954, 15,k
2025-03-10 14:31:28.212,1027, 175, 83, -2, 30, -69, -4, 9, 5, 970, 900, 19,k
2025-03-10 14:31:28.484,719, 550, 461, 0, -6, 3, -6, 8, 4, 906, 760, 13,l
2025-03-10 14:31:28.542,722, 543, 439, -2, -4, 2, -6, 7, 4, 906, 760, 20,l
2025-03-10 14:31:28.595,701, 518, 494, -4, 1, 0, -3, 6, 4, 908, 762, 11,l
2025-03-10 14:31:28.640,703, 522, 496, -3, -2, 1, -5, 7, 4, 910, 765, 14,l
2025-03-10 14:31:28.698,703, 546, 488, -4, -2, 2, -5, 6, 5, 915, 782, 7,l
2025-03-10 14:31:28.748,697, 511, 546, 4, -9, 5, -5, 8, 5, 921, 794, 14,l
2025-03-10 14:31:28.800,729, 529, 441, 3, -10, 5, -5, 6, 6, 928, 803, 9,l
2025-03-10 14:31:28.850,672, 523, 475, -4, -9, -3, -5, 6, 5, 933, 824, 16,l
2025-03-10 14:31:28.905,708, 554, 415, -10, -5, -21, -5, 7, 7, 951, 891, 12,l
2025-03-10 14:31:28.960,750, 343, 600, 36, -12, -11, -5, 8, 7, 974, 912, 20,l
2025-03-10 14:31:29.011,768, 446, 267, 3, 30, 30, -5, 8, 8, 981, 896, 8,l
2025-03-10 14:31:29.062,785, 77, 572, 11, -5, 29, -5, 7, 6, 985, 961, 10,l
2025-03-10 14:31:29.120,694, 464, 577, 44, -12, -6, -5, 8, 6, 975, 944, 11,l
2025-03-10 14:31:29.170,666, 612, 322, -66, 75, -50, -5, 8, 6, 954, 860, 10,l
2025-03-10 14:31:29.225,490, 559, 871, -16, -11, 0, -3, 7, 3, 946, 779, 11,l
2025-03-10 14:31:29.567,719, 516, 489, -4, 1, -2, -5, 8, 4, 926, 775, 21,m
2025-03-10 14:31:29.614,701, 525, 497, -2, 0, -1, -5, 6, 3, 925, 776, 16,m
2025-03-10 14:31:29.670,713, 537, 480, -2, -1, -1, -5, 8, 6, 926, 777, 7,m
2025-03-10 14:31:29.721,708, 530, 505, -2, -1, 0, -6, 8, 6, 926, 785, 19,m
2025-03-10 14:31:29.771,709, 520, 485, 0, -4, 0, -4, 9, 4, 926, 785, 18,m
2025-03-10 14:31:29.820,684, 527, 541, 1, -7, 4, -4, 8, 4, 931, 792, 11,m
2025-03-10 14:31:29.874,748, 529, 415, 4, -10, 4, -5, 8, 5, 933, 793, 9,m
2025-03-10 14:31:29.924,719, 533, 465, -3, 1, -1, -4, 6, 6, 935, 804, 18,m
2025-03-10 14:31:29.973,682, 527, 485, 2, -8, -1, -5, 7, 4, 936, 822, 19,m
2025-03-10 14:31:30.030,731, 506, 537, 6, -25, 2, -5, 8, 6, 940, 845, 7,m
2025-03-10 14:31:30.080,739, 550, 502, -11, 1, -4, -5, 5, 5, 955, 864, 12,m
2025-03-10 14:31:30.130,577, 617, 641, 0, 15, 19, -4, 8, 6, 974, 889, 14,m
2025-03-10 14:31:30.186,695, 446, 359, -11, 18, 13, -5, 9, 6, 976, 896, 17,m
2025-03-10 14:31:30.242,876, 244, 740, 22, -39, -41, -6, 8, 5, 970, 939, 21,m
2025-03-10 14:31:30.296,681, 484, 602, 9, -21, -4, -5, 7, 6, 980, 952, 13,m
2025-03-10 14:31:30.350,577, 843, 332, -25, 31, 39, -5, 9, 7, 984, 945, 13,m
2025-03-10 14:31:30.402,755, 89, 765, 10, -9, -15, -5, 8, 6, 980, 951, 10,m
2025-03-10 14:31:30.452,780, 717, 486, 19, -10, 14, -6, 8, 8, 983, 959, 11,m
2025-03-10 14:31:30.502,909, 318, 443, 4, 28, 10, -6, 9, 6, 978, 934, 19,m
2025-03-10 14:31:30.560,604, 439, 657, -16, 47, -54, -4, 9, 3, 961, 893, 5,m
2025-03-10 14:31:30.815,718, 526, 450, -5, 0, 1, -5, 9, 5, 936, 795, 7,n
2025-03-10 14:31:30.864,717, 517, 455, -4, 0, 2, -5, 7, 6, 936, 794, 15,n
2025-03-10 14:31:30.914,717, 510, 446, 0, -8, 2, -4, 9, 7, 934, 794, 16,n
2025-03-10 14:31:30.966,741, 525, 437, -6, 1, -6, -5, 8, 5, 934, 803, 16,n
2025-03-10 14:31:31.020,644, 546, 555, 0, -19, -1, -4, 8, 4, 937, 828, 10,n
2025-03-10 14:31:31.073,775, 554, 403, -27, 3, -3, -6, 8, 6, 959, 893, 10,n
2025-03-10 14:31:31.123,761, 445, 640, -5, 5, 9, -6, 8, 6, 974, 920, 14,n
2025-03-10 14:31:31.181,621, 520, 542, -26, 21, 37, -5, 8, 4, 981, 926, 11,n
2025-03-10 14:31:31.235,722, -115, 952, 12, -31, -45, -7, 10, 4, 977, 953, 20,n
2025-03-10 14:31:31.290,655, 497, 744, 23, -22, -18, -5, 9, 8, 984, 961, 19,n
2025-03-10 14:31:31.344,897, 490, 269, -8, 37, 34, -5, 10, 6, 985, 954, 11,n
2025-03-10 14:31:31.397,818, 397, 250, -4, 33, -58, -5, 9, 6, 969, 925, 19,n
2025-03-10 14:31:31.897,698, 520, 492, 0, -4, 2, -3, 6, 6, 924, 790, 10,o
2025-03-10 14:31:31.946,699, 520, 488, 1, -5, 3, -6, 8, 7, 928, 793, 8,o
2025-03-10 14:31:32.000,734, 509, 482, 5, -9, 5, -4, 7, 7, 931, 810, 10,o
2025-03-10 14:31:32.046,712, 519, 483, 6, -9, 8, -5, 9, 5, 942, 838, 21,o
2025-03-10 14:31:32.105,768, 499, 130, -21, -18, -8, -4, 8, 7, 949, 877, 19,o
2025-03-10 14:31:32.160,739, 530, 605, -19, -4, -19, -5, 8, 7, 958, 928, 14,o
2025-03-10 14:31:32.212,769, 667, 217, 73, 10, -10, -5, 6, 9, 977, 915, 14,o
2025-03-10 14:31:32.265,995, 633, 499, -36, 41, 58, -5, 9, 6, 982, 953, 12,o
2025-03-10 14:31:32.320,418, 459, 613, 29, -44, -60, -5, 9, 7, 972, 955, 21,o
2025-03-10 14:31:32.376,1001, 563, 167, 11, 9, -37, -6, 6, 9, 904, 889, 230,o
2025-03-10 14:31:32.433,624, 688, 561, -33, 50, -14, -5, 6, 4, 889, 761, 12,o
2025-03-10 14:31:32.487,630, 451, 529, -13, 4, 10, -5, 6, 4, 871, 624, 22,o
2025-03-10 14:31:32.928,696, 557, 473, -3, -1, 0, -3, 6, 5, 862, 725, 2,p
2025-03-10 14:31:32.978,688, 556, 473, -4, 0, 1, -5, 7, 5, 863, 729, 8,p
2025-03-10 14:31:33.027,683, 545, 497, -4, 0, 1, -5, 7, 4, 867, 732, 19,p
2025-03-10 14:31:33.080,693, 540, 488, 0, -2, 0, -4, 6, 5, 870, 738, 20,p
2025-03-10 14:31:33.130,690, 550, 497, -3, 0, 0, -4, 7, 5, 870, 744, 17,p
2025-03-10 14:31:33.184,589, 535, 557, 6, -13, 5, -3, 8, 4, 885, 772, 9,p
2025-03-10 14:31:33.232,684, 545, 465, 10, -31, 10, -4, 6, 6, 893, 800, 12,p
2025-03-10 14:31:33.290,786, 348, 173, -11, -2, -12, -5, 7, 9, 929, 845, 11,p
2025-03-10 14:31:33.345,602, 434, 530, -31, 39, 41, -6, 6, 8, 971, 884, 19,p
2025-03-10 14:31:33.400,778, 524, 254, -8, 19, 18, -5, 8, 8, 975, 887, 18,p
2025-03-10 14:31:33.453,1125, -33, 783, 56, -61, -100, -3, 7, 4, 960, 936, 6,p
2025-03-10 14:31:33.506,628, 420, 490, -7, -25, -4, -5, 7, 8, 978, 960, 19,p
2025-03-10 14:31:33.563,469, 834, 328, -15, 39, 41, -6, 8, 8, 977, 932, 18,p
2025-03-10 14:31:33.617,1001, 202, 310, -7, 37, -24, -5, 9, 7, 953, 788, 16,p
2025-03-10 14:31:33.674,695, 530, 626, -31, 39, -38, -4, 7, 4, 903, 711, 20,p
2025-03-10 14:31:33.913,705, 562, 451, 1, -8, 2, -4, 7, 7, 897, 747, 14,q
2025-03-10 14:31:33.970,706, 561, 470, 1, -6, 3, -5, 7, 6, 900, 750, 14,q
2025-03-10 14:31:34.022,700, 520, 501, 6, -10, 7, -5, 7, 6, 914, 776, 19,q
2025-03-10 14:31:34.072,711, 551, 438, 0, -1, 6, -5, 7, 6, 924, 800, 19,q
2025-03-10 14:31:34.136,691, 527, 495, 9, -17, 12, -3, 9, 5, 942, 825, 13,q
2025-03-10 14:31:34.178,706, 536, 452, 0, -19, 12, -5, 7, 8, 952, 863, 12,q
2025-03-10 14:31:34.230,718, 492, 493, -26, 2, -12, -5, 8, 6, 965, 913, 22,q
2025-03-10 14:31:34.284,724, 514, 550, 10, -16, -14, -5, 9, 9, 971, 933, 17,q
2025-03-10 14:31:34.342,780, 664, 101, -23, 26, 44, -6, 7, 8, 984, 941, 13,q
2025-03-10 14:31:34.393,611, 187, 727, -15, -1, 0, -4, 9, 7, 981, 958, 11,q
2025-03-10 14:31:34.448,788, 619, 395, 5, -18, -20, -6, 9, 7, 976, 957, 15,q
2025-03-10 14:31:34.502,998, 988, 386, 7, 44, 56, -6, 8, 7, 983, 945, 12,q
2025-03-10 14:31:34.556,748, 552, 216, -7, 22, 20, -5, 11, 7, 984, 959, 22,q
2025-03-10 14:31:34.605,696, 365, 629, 44, -31, -18, -5, 9, 6, 976, 961, 14,q
2025-03-10 14:31:34.667,586, 525, 663, -46, 101, -41, -5, 8, 4, 961, 929, 17,q
2025-03-10 14:31:34.920,722, 512, 470, -1, -9, 0, -4, 7, 4, 941, 827, 14,r
2025-03-10 14:31:34.970,710, 516, 481, -1, -8, 0, -4, 7, 4, 939, 827, 14,r
2025-03-10 14:31:35.025,706, 509, 508, -2, -10, 1, -5, 9, 4, 942, 835, 12,r
2025-03-10 14:31:35.070,730, 525, 437, -2, -9, 0, -5, 7, 6, 944, 839, 17,r
2025-03-10 14:31:35.127,715, 505, 505, -2, -6, 0, -4, 8, 7, 948, 855, 9,r
2025-03-10 14:31:35.182,738, 527, 440, 3, -5, -4, -6, 7, 6, 948, 868, 12,r
2025-03-10 14:31:35.231,662, 505, 576, 9, -19, -3, -5, 9, 7, 953, 887, 7,r
2025-03-10 14:31:35.283,778, 464, 561, -13, 1, -10, -5, 9, 7, 970, 932, 17,r
2025-03-10 14:31:35.337,351, 533, 396, -1, 36, 49, -4, 9, 7, 981, 937, 13,r
2025-03-10 14:31:35.390,786, 697, 184, -38, 26, 19, -5, 9, 4, 979, 951, 16,r
2025-03-10 14:31:35.447,760, 529, 657, 11, -26, -3, -5, 9, 7, 980, 968, 14,r
2025-03-10 14:31:35.500,970, 400, -65, -21, 74, -25, -4, 8, 7, 973, 940, 19,r
2025-03-10 14:31:35.551,437, 559, 886, -30, 41, -14, -4, 9, 3, 964, 877, 8,r
2025-03-10 14:31:35.820,696, 534, 528, 4, -12, 3, -5, 9, 3, 954, 859, 11,s
2025-03-10 14:31:35.870,695, 523, 523, 4, -12, 4, -3, 7, 5, 954, 859, 19,s
2025-03-10 14:31:35.924,748, 515, 467, 5, -11, 6, -4, 8, 5, 955, 853, 16,s
2025-03-10 14:31:35.972,747, 510, 476, -2, 0, 0, -5, 8, 6, 956, 854, 18,s
2025-03-10 14:31:36.025,736, 517, 486, 3, -5, 5, -4, 8, 6, 958, 864, 15,s
2025-03-10 14:31:36.075,714, 498, 502, -1, -2, 0, -5, 8, 7, 959, 870, 15,s
2025-03-10 14:31:36.128,726, 509, 470, 1, -4, 0, -6, 9, 6, 960, 876, 20,s
2025-03-10 14:31:36.181,676, 517, 551, 6, -20, 9, -6, 8, 7, 961, 884, 19,s
2025-03-10 14:31:36.231,658, 533, 347, -19, 2, -11, -5, 7, 7, 967, 912, 7,s
2025-03-10 14:31:36.280,824, 309, 556, 2, -2, -9, -5, 9, 7, 972, 933, 17,s
2025-03-10 14:31:36.335,916, 810, 329, -5, 19, 38, -4, 9, 6, 983, 951, 18,s
2025-03-10 14:31:36.390,615, 729, 358, -6, 9, 15, -5, 9, 5, 983, 947, 9,s
2025-03-10 14:31:36.443,765, 463, 361, 21, 19, -9, -3, 8, 7, 956, 829, 14,s
2025-03-10 14:31:36.490,572, 409, 550, -43, 76, -44, -5, 9, 6, 932, 759, 21,s
2025-03-10 14:31:36.786,672, 521, 541, -1, -5, -1, -3, 8, 3, 916, 764, 19,t
2025-03-10 14:31:36.836,666, 524, 550, 2, -7, 0, -4, 7, 4, 916, 764, 19,t
2025-03-10 14:31:36.885,712, 516, 496, 1, -8, 1, -4, 7, 6, 914, 761, 9,t
2025-03-10 14:31:36.940,709, 539, 487, -6, -4, -1, -6, 8, 5, 915, 764, 17,t
2025-03-10 14:31:36.990,669, 506, 557, 5, -10, 5, -4, 8, 4, 923, 775, 12,t
2025-03-10 14:31:37.041,729, 505, 442, 2, -13, 1, -6, 8, 4, 926, 797, 9,t
2025-03-10 14:31:37.096,733, 513, 496, -2, -8, -2, -6, 8, 5, 930, 822, 22,t
2025-03-10 14:31:37.151,699, 532, 465, -5, -12, -6, -6, 8, 5, 931, 839, 13,t
2025-03-10 14:31:37.205,653, 502, 571, -7, -41, -7, -4, 7, 6, 942, 887, 8,t
2025-03-10 14:31:37.258,753, 212, 730, 40, -11, -19, -5, 6, 8, 969, 936, 18,t
2025-03-10 14:31:37.313,712, 737, 274, 19, 37, 54, -6, 7, 7, 983, 953, 10,t
2025-03-10 14:31:37.363,702, 497, 717, 7, 24, 35, -5, 8, 5, 975, 943, 18,t
2025-03-10 14:31:37.418,357, 644, 671, -6, -19, -29, -4, 8, 4, 960, 908, 13,t
2025-03-10 14:31:37.474,952, 837, 464, -33, -18, 18, -4, 6, 7, 982, 963, 12,t
2025-03-10 14:31:37.523,600, 475, 701, 30, -14, 18, -6, 9, 7, 978, 952, 9,t
2025-03-10 14:31:37.582,668, 582, 333, -31, 74, -51, -6, 8, 6, 949, 834, 22,t
2025-03-10 14:31:38.168,705, 547, 480, -3, -1, -1, -5, 8, 4, 902, 731, 12,u
2025-03-10 14:31:38.220,696, 540, 476, -3, 0, 0, -3, 7, 4, 904, 731, 13,u
2025-03-10 14:31:38.271,688, 535, 515, -2, 0, -1, -3, 6, 3, 903, 736, 19,u
2025-03-10 14:31:38.324,694, 548, 495, -2, -1, -1, -5, 8, 6, 903, 738, 10,u
2025-03-10 14:31:38.376,690, 546, 505, -1, -1, -1, -3, 7, 4, 900, 736, 14,u
2025-03-10 14:31:38.430,695, 533, 499, -2, 0, -1, -4, 8, 5, 895, 735, 10,u
2025-03-10 14:31:38.484,686, 538, 517, -1, -3, -1, -5, 5, 5, 899, 742, 16,u
2025-03-10 14:31:38.532,683, 548, 481, -3, -3, 1, -5, 8, 5, 906, 754, 7,u
2025-03-10 14:31:38.582,684, 530, 516, -1, -6, 5, -3, 7, 4, 918, 782, 20,u
2025-03-10 14:31:38.632,671, 541, 500, 3, -14, 10, -5, 6, 6, 935, 806, 8,u
2025-03-10 14:31:38.682,733, 531, 434, 7, -19, 6, -5, 8, 7, 941, 833, 7,u
2025-03-10 14:31:38.740,683, 539, 463, -4, -15, 1, -6, 8, 7, 948, 860, 7,u
2025-03-10 14:31:38.794,723, 439, 564, 2, -2, -13, -5, 7, 7, 969, 906, 12,u
2025-03-10 14:31:38.847,1026, 741, 344, -2, 20, 58, -6, 8, 9, 984, 947, 15,u
2025-03-10 14:31:38.896,793, 424, 704, -11, -6, 3, -5, 7, 6, 979, 957, 8,u
2025-03-10 14:31:38.954,716, 461, 646, 4, -12, -14, -5, 8, 6, 977, 954, 11,u
2025-03-10 14:31:39.003,909, 851, 24, 5, 44, 49, -6, 8, 6, 982, 949, 5,u
2025-03-10 14:31:39.057,933, 229, 366, -11, 27, -31, -6, 8, 7, 973, 919, 21,u
2025-03-10 14:31:39.113,658, 558, 644, -25, 27, -43, -4, 8, 4, 944, 861, 11,u
2025-03-10 14:31:40.175,687, 526, 531, 2, -3, 0, -5, 6, 4, 893, 721, 13,v
2025-03-10 14:31:40.226,692, 530, 523, 1, -4, -1, -4, 8, 6, 892, 727, 18,v
2025-03-10 14:31:40.278,689, 513, 549, 6, -8, 0, -4, 8, 4, 894, 733, 12,v
2025-03-10 14:31:42.640,755, 626, 332, 11, -17, 3, -5, 6, 5, 759, 578, 17,w
2025-03-10 14:31:42.694,755, 623, 370, 7, -12, 0, -5, 6, 6, 758, 581, 9,w
2025-03-10 14:31:42.746,689, 585, 410, -7, -7, -23, -5, 5, 4, 789, 596, 9,w
2025-03-10 14:31:42.800,645, 611, 473, -7, 6, -12, -4, 5, 6, 842, 635, 19,w
2025-03-10 14:31:42.854,619, 743, 390, -23, -4, 1, -4, 5, 5, 879, 696, 12,w
2025-03-10 14:31:42.904,759, 531, 583, 13, -23, 12, -3, 6, 6, 915, 742, 3,w
2025-03-10 14:31:42.956,708, 554, 351, -7, -3, 8, -2, 5, 6, 931, 770, 20,w
2025-03-10 14:31:43.010,679, 566, 524, -1, -2, 2, -4, 6, 6, 937, 791, 20,w
2025-03-10 14:31:43.060,723, 567, 389, 3, -4, -2, -4, 3, 7, 941, 794, 9,w
2025-03-10 14:31:43.110,681, 565, 455, -1, 3, -2, -3, 6, 7, 939, 800, 9,w
2025-03-10 14:31:43.164,600, 594, 418, 4, -3, -10, -5, 4, 7, 939, 806, 18,w
2025-03-10 14:31:43.221,971, 567, 108, -68, -15, -28, -4, 5, 7, 953, 889, 10,w
2025-03-10 14:31:43.276,937, 890, 450, -14, -2, 16, -3, 5, 8, 979, 930, 10,w
2025-03-10 14:31:43.327,727, 461, 198, -25, 27, 39, -4, 6, 6, 978, 930, 7,w
2025-03-10 14:31:43.383,636, 220, 605, 11, -42, -39, -5, 8, 7, 969, 943, 21,w
2025-03-10 14:31:43.432,803, 960, 151, 10, 7, 38, -5, 6, 8, 977, 935, 20,w
2025-03-10 14:31:43.482,887, 534, 395, -39, 22, 35, -5, 7, 7, 977, 951, 10,w
2025-03-10 14:31:43.541,924, 528, -151, -19, 71, -49, -5, 8, 7, 958, 917, 3,w
2025-03-10 14:31:43.597,505, 526, 891, -19, 56, -31, -2, 6, 3, 940, 822, 13,w
2025-03-10 14:31:45.004,665, 582, 456, 11, -13, 20, -5, 6, 7, 958, 843, 14,x
2025-03-10 14:31:45.054,680, 608, 445, 13, -14, 23, -4, 5, 8, 961, 843, 9,x
2025-03-10 14:31:45.110,796, 525, 365, 4, -6, 18, -7, 8, 8, 960, 859, 22,x
2025-03-10 14:31:45.160,776, 521, 440, -5, 2, 5, -5, 6, 7, 961, 872, 14,x
2025-03-10 14:31:45.212,735, 535, 470, -8, -2, 7, -4, 7, 9, 963, 884, 15,x
2025-03-10 14:31:45.262,772, 530, 465, 0, -13, 13, -7, 7, 8, 965, 895, 5,x
2025-03-10 14:31:45.320,697, 520, 461, -13, -22, 14, -6, 7, 8, 966, 908, 17,x
2025-03-10 14:31:45.376,663, 422, 431, -23, -10, -13, -7, 8, 9, 975, 942, 13,x
2025-03-10 14:31:45.430,414, 672, 338, 55, 16, -9, -5, 9, 11, 980, 933, 12,x
2025-03-10 14:31:45.484,850, 567, 230, -23, 60, 39, -6, 9, 8, 975, 906, 12,x
2025-03-10 14:31:45.540,561, 470, 996, 10, -44, -35, -4, 9, 6, 971, 922, 11,x
2025-03-10 14:31:45.594,780, 767, -214, -21, -4, 65, -6, 9, 8, 985, 955, 16,x
2025-03-10 14:31:45.646,714, 213, 756, 15, 12, -2, -5, 10, 5, 977, 926, 11,x
2025-03-10 14:31:45.705,744, 458, 337, -51, 69, -88, -5, 10, 5, 942, 822, 22,x
2025-03-10 14:31:45.755,453, 491, 980, -11, 8, -31, -3, 7, 1, 890, 774, 11,x
2025-03-10 14:31:46.783,715, 513, 481, 1, -3, 0, -4, 7, 6, 934, 820, 19,y
2025-03-10 14:31:46.833,716, 518, 484, 1, -3, 0, -3, 8, 7, 935, 820, 19,y
2025-03-10 14:31:46.883,725, 525, 480, 3, -7, 1, -5, 8, 8, 935, 822, 7,y
2025-03-10 14:31:46.941,735, 534, 443, -1, -2, 0, -4, 7, 7, 939, 829, 5,y
2025-03-10 14:31:46.990,724, 523, 471, -2, -1, -1, -5, 7, 6, 942, 835, 9,y
2025-03-10 14:31:47.042,729, 515, 479, -1, -3, -3, -5, 8, 7, 944, 847, 14,y
2025-03-10 14:31:47.096,725, 513, 472, -4, -1, -2, -5, 8, 8, 945, 851, 8,y
2025-03-10 14:31:47.149,719, 516, 474, -3, -5, -2, -6, 8, 7, 948, 862, 13,y
2025-03-10 14:31:47.200,617, 482, 580, 0, -20, -2, -5, 8, 7, 951, 880, 20,y
2025-03-10 14:31:47.256,730, 530, 346, -14, -4, -14, -5, 7, 8, 968, 908, 12,y
2025-03-10 14:31:47.312,860, 452, 217, -11, 27, 56, -6, 8, 9, 982, 952, 21,y
2025-03-10 14:31:47.362,662, 437, 773, 14, 9, 4, -5, 8, 5, 974, 953, 21,y
2025-03-10 14:31:47.415,808, 671, 436, 6, -14, -25, -5, 7, 7, 969, 944, 17,y
2025-03-10 14:31:47.466,819, 955, 342, -22, 31, 45, -6, 8, 9, 982, 948, 8,y
2025-03-10 14:31:47.522,596, 473, 168, -18, 36, 37, -5, 9, 8, 977, 921, 11,y
2025-03-10 14:31:47.576,1057, 213, 368, 32, 34, -77, -4, 9, 6, 922, 766, 6,y
2025-03-10 14:31:48.394,695, 583, 486, -3, 0, 9, -5, 5, 8, 925, 763, 13,z
2025-03-10 14:31:48.444,699, 581, 479, -2, -1, 9, -6, 5, 7, 928, 762, 14,z
2025-03-10 14:31:48.497,716, 563, 437, -2, -3, 7, -6, 5, 6, 932, 773, 17,z
2025-03-10 14:31:48.550,710, 570, 429, -3, -2, 7, -5, 5, 9, 939, 790, 17,z
2025-03-10 14:31:48.598,688, 563, 441, -1, -4, 9, -5, 6, 8, 942, 808, 13,z
2025-03-10 14:31:48.653,736, 568, 429, -1, -4, 10, -4, 6, 9, 944, 823, 11,z
2025-03-10 14:31:48.706,742, 540, 429, 0, -3, 5, -6, 6, 9, 951, 838, 12,z
2025-03-10 14:31:48.753,725, 540, 437, -3, -1, 1, -6, 6, 8, 953, 855, 18,z
2025-03-10 14:31:48.810,740, 542, 425, -2, -1, 1, -6, 8, 10, 954, 863, 7,z
2025-03-10 14:31:48.859,728, 535, 437, -3, 0, -1, -6, 6, 9, 956, 866, 9,z
2025-03-10 14:31:48.911,729, 546, 420, -4, 1, -1, -5, 6, 9, 956, 863, 13,z
2025-03-10 14:31:48.964,725, 534, 433, -2, 0, 0, -5, 6, 9, 956, 858, 19,z
2025-03-10 14:31:49.018,712, 553, 434, -2, 0, -1, -5, 6, 10, 957, 861, 16,z
2025-03-10 14:31:49.067,726, 556, 444, 1, -4, -1, -4, 6, 9, 958, 861, 11,z
2025-03-10 14:31:49.120,842, 512, 387, -16, 1, -15, -4, 6, 9, 966, 889, 12,z
2025-03-10 14:31:49.171,880, 562, 550, 32, -5, -1, -2, 7, 8, 976, 946, 5,z
2025-03-10 14:31:49.223,610, 413, 485, 11, -9, 17, -5, 6, 9, 979, 954, 19,z
2025-03-10 14:31:49.280,549, 567, 262, 30, 29, 12, -6, 7, 9, 979, 937, 11,z
2025-03-10 14:31:49.334,1129, 453, 164, -49, 33, -3, -5, 7, 7, 973, 866, 11,z
2025-03-10 14:31:49.383,977, 830, 654, 1, -9, 49, -5, 8, 9, 981, 955, 19,z
2025-03-10 14:31:49.439,645, 515, 310, -13, -8, 29, -6, 8, 7, 982, 961, 8,z
2025-03-10 14:31:49.493,753, 207, 413, -2, 4, -38, -5, 8, 7, 969, 915, 18,z
2025-03-10 14:31:49.547,800, 628, 1000, 23, -24, 8, -5, 6, 8, 966, 868, 7,z
2025-03-10 14:31:49.599,366, 718, 145, -39, -32, 27, -6, 7, 9, 984, 959, 21,z
2025-03-10 14:31:49.650,833, 226, 481, 24, 3, 8, -6, 8, 9, 980, 948, 10,z
2025-03-10 14:31:49.700,784, 571, 58, -18, 66, -56, -6, 8, 7, 947, 797, 6,z
2025-03-10 14:31:49.760,600, 549, 858, -44, 64, -19, -5, 8, 4, 878, 302, 18,z
2025-03-10 14:31:50.953,689, 489, 472, 17, -13, -25, -4, 7, 6, 832, 527, 20,0
2025-03-10 14:31:51.007,705, 515, 517, 16, -15, -27, -3, 6, 6, 828, 540, 11,0
2025-03-10 14:31:51.061,740, 537, 510, 28, -29, -46, -5, 5, 7, 794, 593, 8,0
2025-03-10 14:31:51.119,759, 543, 480, 50, -46, -103, -4, 1, 10, 698, 591, 3,0
2025-03-10 14:31:51.177,541, 834, 332, 4, -54, -82, -5, -2, 13, 759, 634, 15,0
2025-03-10 14:31:51.229,500, 897, 255, 49, -63, 4, -6, -3, 15, 853, 690, 16,0
2025-03-10 14:31:51.284,529, 878, -73, -16, 11, 100, -7, -1, 16, 876, 703, 20,0
2025-03-10 14:31:51.342,648, 217, 291, -31, 75, 89, -8, 3, 13, 866, 731, 10,0
2025-03-10 14:31:51.397,729, 706, 267, -30, 63, 12, -5, 2, 12, 883, 757, 20,0
2025-03-10 14:31:51.451,907, 714, 663, -22, -10, 2, -6, 3, 10, 914, 790, 11,0
2025-03-10 14:31:51.508,434, 445, 770, 13, -40, 23, -6, 6, 10, 936, 857, 14,0
2025-03-10 14:31:51.565,598, 371, 465, -23, -14, -28, -6, 5, 12, 956, 922, 21,0
2025-03-10 14:31:51.620,955, 1389, -60, 34, 77, 57, -6, 4, 12, 976, 913, 17,0
2025-03-10 14:31:51.672,663, 616, 330, -70, 34, 53, -5, 9, 9, 981, 958, 8,0
2025-03-10 14:31:51.730,788, 529, 726, 73, -58, -77, -5, 6, 8, 966, 956, 18,0
2025-03-10 14:31:51.780,1011, 667, -44, -8, 43, -20, -6, 3, 9, 942, 908, 325,0
2025-03-10 14:31:51.833,582, 677, 518, -51, 51, 2, -4, 6, 7, 931, 742, 15,0
2025-03-10 14:31:52.340,688, 602, 391, -7, 7, -12, -6, 4, 10, 830, 679, 6,1
2025-03-10 14:31:52.390,683, 589, 411, -6, 7, -13, -6, 3, 10, 836, 689, 9,1
2025-03-10 14:31:52.443,636, 667, 459, 0, 6, -4, -6, 3, 10, 871, 747, 9,1
2025-03-10 14:31:52.494,729, 595, 412, 5, -15, 9, -7, 4, 10, 900, 791, 6,1
2025-03-10 14:31:52.548,720, 589, 404, -9, 3, 5, -6, 4, 10, 918, 840, 17,1
2025-03-10 14:31:52.601,574, 612, 501, -3, -3, 16, -5, 5, 9, 931, 854, 18,1
2025-03-10 14:31:52.655,739, 660, 137, -39, -2, -11, -6, 5, 10, 956, 914, 8,1
2025-03-10 14:31:52.712,737, 523, 208, -29, -17, 15, -6, 3, 10, 973, 959, 18,1
2025-03-10 14:31:52.764,549, 697, 391, 57, 16, 11, -7, 5, 10, 981, 945, 13,1
2025-03-10 14:31:52.818,782, 783, -117, -24, 41, 35, -6, 5, 8, 982, 916, 9,1
2025-03-10 14:31:52.871,469, 260, 643, 3, 31, -46, -5, 6, 7, 962, 836, 11,1
2025-03-10 14:31:52.924,845, 861, 389, -6, -22, -7, -5, 5, 7, 969, 904, 11,1
2025-03-10 14:31:52.982,530, 473, 287, -14, -15, 38, -5, 8, 7, 978, 950, 22,1
2025-03-10 14:31:53.032,840, 479, 72, -13, 56, -62, -5, 6, 7, 957, 875, 12,1
2025-03-10 14:31:53.090,495, 580, 724, -59, 52, -37, -3, 5, 4, 907, 659, 21,1
2025-03-10 14:31:53.450,706, 565, 458, -1, -2, -3, -5, 6, 8, 887, 759, 19,2
2025-03-10 14:31:53.504,703, 578, 469, -2, -2, -2, -5, 6, 8, 888, 760, 19,2
2025-03-10 14:31:53.557,664, 590, 450, 4, -5, -3, -5, 5, 9, 889, 771, 13,2
2025-03-10 14:31:53.610,574, 561, 521, 9, -20, -1, -5, 6, 7, 896, 795, 15,2
2025-03-10 14:31:53.660,876, 587, 372, -12, -11, -9, -5, 6, 9, 950, 902, 6,2
2025-03-10 14:31:53.715,711, 553, 225, 17, -9, 25, -6, 5, 10, 974, 943, 16,2
2025-03-10 14:31:53.768,527, 827, 286, 38, 38, 20, -5, 3, 9, 975, 913, 12,2
2025-03-10 14:31:53.823,963, 790, 263, -35, 29, 4, -5, 6, 10, 973, 893, 12,2
2025-03-10 14:31:53.880,552, 302, 222, -13, -5, 35, -5, 7, 10, 982, 959, 9,2
2025-03-10 14:31:53.933,868, 300, 419, 20, 8, -14, -5, 6, 8, 965, 927, 14,2
2025-03-10 14:31:53.981,523, 563, 473, -37, 60, -43, -4, 7, 7, 922, 764, 13,2
2025-03-10 14:31:54.553,689, 591, 443, -3, -1, -1, -3, 5, 7, 816, 608, 16,3
2025-03-10 14:31:54.608,685, 584, 443, -3, -1, 0, -5, 5, 7, 816, 615, 9,3
2025-03-10 14:31:54.654,684, 581, 449, -1, -1, -1, -5, 5, 7, 834, 657, 5,3
2025-03-10 14:31:54.710,674, 613, 448, -1, -2, -1, -5, 6, 7, 843, 685, 21,3
2025-03-10 14:31:54.763,471, 584, 568, 6, -27, 5, -5, 4, 7, 866, 729, 9,3
2025-03-10 14:31:54.813,784, 907, 400, 11, -17, -17, -4, 5, 9, 941, 858, 5,3
2025-03-10 14:31:54.870,797, 730, 479, -7, -8, 25, -6, 4, 9, 966, 926, 9,3
2025-03-10 14:31:54.920,631, 567, 412, 24, 3, 2, -6, 6, 10, 970, 894, 11,3
2025-03-10 14:31:54.974,829, 345, 352, 16, 7, -8, -5, 5, 10, 970, 880, 9,3
2025-03-10 14:31:55.027,514, 523, 581, -7, 16, 16, -5, 6, 10, 974, 912, 23,3
2025-03-10 14:31:55.080,787, 543, 408, -12, 16, 9, -5, 7, 8, 968, 863, 16,3
2025-03-10 14:31:55.137,1002, 350, 331, -33, 51, -20, -5, 6, 6, 900, 622, 9,3
2025-03-10 14:31:55.190,507, 531, 721, -31, 54, -30, -2, 5, 4, 831, 568, 20,3
2025-03-10 14:31:55.242,502, 555, 611, 16, -27, 2, -1, 6, 3, 821, 588, 20,3
2025-03-10 14:31:55.796,669, 567, 479, 1, -15, 1, -5, 6, 7, 807, 703, 10,4
2025-03-10 14:31:55.845,673, 574, 482, 2, -17, 2, -5, 6, 6, 817, 715, 9,4
2025-03-10 14:31:55.894,649, 596, 472, 6, -30, 8, -5, 5, 8, 874, 785, 15,4
2025-03-10 14:31:55.950,719, 737, 492, 7, -7, -11, -5, 6, 8, 942, 882, 20,4
2025-03-10 14:31:56.004,692, 464, 540, 11, -11, -13, -6, 6, 9, 968, 914, 14,4
2025-03-10 14:31:56.062,522, 703, 454, -6, 21, -4, -7, 5, 10, 972, 860, 18,4
2025-03-10 14:31:56.115,1103, 705, 488, 12, 14, 22, -5, 6, 11, 981, 947, 19,4
2025-03-10 14:31:56.168,840, 647, 661, 15, 0, 19, -5, 8, 8, 980, 961, 14,4
2025-03-10 14:31:56.221,743, 295, 319, 26, -21, -55, -5, 6, 8, 956, 927, 338,4
2025-03-10 14:31:56.280,912, 275, 389, -2, -15, -24, -5, 4, 9, 970, 931, 373,4
2025-03-10 14:31:56.333,739, 974, 31, -29, 27, 33, -6, 6, 10, 984, 925, 12,4
2025-03-10 14:31:56.381,636, 619, 311, 17, 35, 26, -6, 6, 9, 972, 818, 11,4
2025-03-10 14:31:56.440,724, 561, 374, 12, 40, -59, -4, 6, 9, 890, 746, 21,4
2025-03-10 14:31:56.861,696, 582, 448, -4, -3, 2, -5, 6, 7, 897, 759, 10,5
2025-03-10 14:31:56.915,699, 567, 447, -4, -2, 0, -6, 5, 9, 898, 760, 19,5
2025-03-10 14:31:56.964,699, 570, 450, -6, 0, 0, -5, 7, 7, 902, 769, 15,5
2025-03-10 14:31:57.017,693, 552, 482, -4, -1, -1, -6, 5, 7, 906, 778, 13,5
2025-03-10 14:31:57.078,667, 577, 470, -5, -5, -2, -5, 6, 8, 912, 789, 6,5
2025-03-10 14:31:57.122,587, 524, 571, 15, -25, 3, -4, 6, 8, 919, 810, 14,5
2025-03-10 14:31:57.173,1041, 784, 335, -6, -12, 19, -5, 6, 9, 967, 927, 19,5
2025-03-10 14:31:57.230,627, 451, 529, 2, 4, 17, -5, 6, 8, 970, 949, 11,5
2025-03-10 14:31:57.287,1132, 550, 512, 47, -7, -32, -4, 5, 10, 962, 926, 163,5
2025-03-10 14:31:57.340,920, 984, -106, -15, 32, 43, -5, 5, 10, 979, 937, 10,5
2025-03-10 14:31:57.393,450, 537, 665, -5, 21, 23, -5, 5, 7, 982, 934, 10,5
2025-03-10 14:31:57.446,843, 386, 456, 54, 25, -18, -4, 6, 6, 939, 774, 13,5
2025-03-10 14:31:57.503,766, 580, 371, -21, 49, -43, -4, 5, 6, 663, 648, 5,5
2025-03-10 14:31:57.850,666, 587, 489, 2, -8, 1, -4, 5, 6, 838, 683, 19,6
2025-03-10 14:31:57.898,672, 591, 479, 1, -7, 2, -5, 6, 4, 840, 688, 12,6
2025-03-10 14:31:57.944,675, 564, 480, 0, -7, 3, -4, 4, 6, 855, 716, 6,6
2025-03-10 14:31:58.000,707, 601, 465, -2, -10, 4, -5, 5, 6, 876, 751, 10,6
2025-03-10 14:31:58.053,666, 579, 491, 2, -19, 10, -3, 5, 7, 910, 810, 17,6
2025-03-10 14:31:58.107,637, 559, 506, 15, -47, 14, -3, 6, 7, 926, 853, 8,6
2025-03-10 14:31:58.164,697, 511, 486, -11, -6, -20, -6, 6, 8, 950, 917, 21,6
2025-03-10 14:31:58.216,-25, 447, 436, 58, 9, -26, -5, 5, 9, 968, 914, 13,6
2025-03-10 14:31:58.270,883, 973, -244, -44, 49, 60, -4, 6, 8, 981, 936, 17,6
2025-03-10 14:31:58.327,354, 386, 1116, -16, 12, 14, -5, 6, 6, 974, 952, 14,6
2025-03-10 14:31:58.380,633, 755, 281, 53, -18, -46, -5, 6, 7, 916, 896, 11,6
2025-03-10 14:31:58.435,776, 578, 310, -67, 73, -34, -2, 5, 6, 894, 819, 10,6
2025-03-10 14:31:58.487,497, 696, 708, -41, 20, 8, -2, 5, 4, 878, 578, 21,6
2025-03-10 14:31:58.741,690, 566, 463, -3, -2, -1, -4, 6, 5, 815, 623, 21,7
2025-03-10 14:31:58.794,673, 571, 470, -3, 0, -2, -4, 6, 5, 817, 626, 17,7
2025-03-10 14:31:58.844,658, 561, 503, -2, 0, 0, -4, 5, 6, 822, 641, 16,7
2025-03-10 14:31:58.895,668, 574, 511, 0, -4, 0, -2, 5, 5, 829, 666, 15,7
2025-03-10 14:31:58.940,663, 579, 506, 0, -6, 0, -4, 7, 5, 830, 676, 11,7
2025-03-10 14:31:59.000,686, 562, 488, 0, -8, 1, -4, 5, 6, 829, 681, 7,7
2025-03-10 14:31:59.047,683, 584, 473, 2, -7, 3, -5, 6, 7, 854, 707, 15,7
2025-03-10 14:31:59.101,687, 574, 514, 7, -13, 7, -4, 6, 6, 879, 746, 19,7
2025-03-10 14:31:59.150,674, 580, 483, 4, -14, 9, -4, 6, 5, 903, 791, 13,7
2025-03-10 14:31:59.202,679, 575, 448, 2, -10, 3, -6, 6, 7, 915, 821, 7,7
2025-03-10 14:31:59.253,681, 543, 532, 14, -33, 9, -5, 5, 6, 926, 841, 5,7
2025-03-10 14:31:59.307,794, 509, 348, 2, 1, -8, -5, 6, 10, 929, 828, 17,7
2025-03-10 14:31:59.360,677, 576, 411, -5, 2, 0, -6, 5, 8, 931, 820, 19,7
2025-03-10 14:31:59.413,707, 537, 436, -3, -2, -6, -4, 5, 9, 941, 847, 11,7
2025-03-10 14:31:59.462,720, 550, 461, 4, 1, -1, -5, 6, 7, 943, 857, 11,7
2025-03-10 14:31:59.512,711, 612, 404, 12, -4, -1, -6, 6, 8, 934, 839, 14,7
2025-03-10 14:31:59.564,663, 578, 451, 3, 5, -6, -6, 4, 9, 931, 827, 14,7
2025-03-10 14:31:59.619,770, 555, 481, -5, -5, -12, -5, 6, 10, 950, 865, 8,7
2025-03-10 14:31:59.670,744, 650, 445, -4, 0, 3, -5, 5, 9, 963, 912, 15,7
2025-03-10 14:31:59.724,697, 530, 443, 1, -1, 1, -6, 5, 10, 967, 932, 13,7
2025-03-10 14:31:59.775,757, 651, 326, -5, -14, 11, -7, 5, 8, 972, 947, 11,7
2025-03-10 14:31:59.830,802, 613, 628, -2, -2, 15, -5, 5, 10, 975, 948, 17,7
2025-03-10 14:31:59.885,551, 1024, 311, -4, 46, 43, -6, 6, 9, 982, 933, 10,7
2025-03-10 14:31:59.937,697, 613, 348, -21, 36, 19, -6, 6, 7, 974, 885, 10,7
2025-03-10 14:31:59.993,756, 523, 559, -17, -18, -45, -5, 7, 8, 966, 847, 20,7
2025-03-10 14:32:00.051,1028, 803, 449, -2, -31, 15, -4, 6, 8, 983, 954, 14,7
2025-03-10 14:32:00.100,651, 418, 461, 43, 0, 28, -5, 8, 8, 974, 933, 13,7
2025-03-10 14:32:00.158,561, 592, 406, -34, 75, -45, -4, 6, 7, 950, 827, 18,7
2025-03-10 14:32:00.482,712, 532, 466, -1, -2, 1, -5, 5, 7, 925, 773, 18,8
2025-03-10 14:32:00.534,697, 549, 467, 0, -2, 1, -4, 5, 7, 925, 772, 11,8
2025-03-10 14:32:00.590,714, 573, 448, -2, -1, 2, -5, 5, 7, 928, 770, 17,8
2025-03-10 14:32:00.639,701, 564, 480, 3, -8, 9, -5, 6, 6, 937, 801, 19,8
2025-03-10 14:32:00.694,577, 532, 567, 13, -24, 18, -4, 6, 7, 949, 831, 18,8
2025-03-10 14:32:00.747,604, 522, 374, -9, 2, -14, -6, 6, 8, 963, 902, 22,8
2025-03-10 14:32:00.801,576, 458, 508, 18, -8, -23, -6, 7, 7, 971, 909, 12,8
2025-03-10 14:32:00.850,1157, 1310, 59, -56, 38, 66, -6, 5, 9, 982, 928, 6,8
2025-03-10 14:32:00.903,524, 486, 611, 5, 6, 13, -5, 8, 6, 979, 957, 10,8
2025-03-10 14:32:00.961,1124, 689, 243, 20, -50, -64, -5, 6, 8, 964, 956, 155,8
2025-03-10 14:32:01.019,699, 628, 433, -14, -14, 11, -5, 5, 10, 979, 962, 8,8
2025-03-10 14:32:01.072,659, 612, 313, -8, 31, 23, -6, 6, 9, 979, 941, 10,8
2025-03-10 14:32:01.120,946, 291, 265, 0, 41, -36, -5, 7, 8, 951, 841, 23,8
2025-03-10 14:32:01.390,695, 588, 457, -3, -6, 2, -5, 7, 7, 908, 701, 10,9
2025-03-10 14:32:01.440,689, 570, 445, -2, -5, 2, -5, 6, 5, 907, 708, 10,9
2025-03-10 14:32:01.494,723, 558, 448, -1, 2, -3, -5, 6, 6, 906, 726, 16,9
2025-03-10 14:32:01.544,688, 551, 494, -1, -1, 0, -5, 5, 7, 904, 723, 3,9
2025-03-10 14:32:01.595,709, 578, 442, 2, -4, 2, -4, 6, 7, 906, 742, 4,9
2025-03-10 14:32:01.645,710, 548, 437, -3, 2, 0, -5, 7, 7, 908, 741, 16,9
2025-03-10 14:32:01.695,686, 561, 484, 0, 0, -2, -6, 6, 6, 905, 729, 16,9
2025-03-10 14:32:01.747,697, 567, 456, -1, -1, 0, -5, 6, 8, 907, 730, 19,9
2025-03-10 14:32:01.796,703, 541, 464, 2, 0, 0, -4, 5, 7, 899, 727, 13,9
2025-03-10 14:32:03.664,715, 602, 399, 33, -66, 22, -4, 3, 5, 640, 425, 10,+
2025-03-10 14:32:03.718,724, 657, 303, 28, -55, 15, -3, 3, 6, 638, 434, 10,+
2025-03-10 14:32:03.772,618, 639, 405, -15, 15, 0, -4, 5, 5, 664, 421, 3,+
2025-03-10 14:32:03.823,655, 712, 515, 1, 12, -14, -3, 4, 5, 665, 412, 13,+
2025-03-10 14:32:03.872,541, 685, 551, 3, 8, 0, -3, 3, 6, 643, 414, 8,+
2025-03-10 14:32:03.926,708, 604, 439, 13, -15, 9, -4, 4, 5, 629, 448, 10,+
2025-03-10 14:32:03.976,721, 603, 378, -14, 6, 2, -4, 4, 5, 669, 501, 8,+
2025-03-10 14:32:04.032,625, 611, 507, -3, 2, -3, -5, 3, 7, 729, 563, 17,+
2025-03-10 14:32:04.077,628, 647, 458, -8, -8, 7, -4, 4, 4, 799, 647, 19,+
2025-03-10 14:32:04.130,688, 598, 426, -1, -15, 1, -2, 5, 7, 842, 688, 10,+
2025-03-10 14:32:04.180,684, 617, 420, -4, -3, 0, -5, 5, 7, 861, 713, 20,+
2025-03-10 14:32:04.238,695, 623, 400, -6, -7, 5, -4, 3, 6, 881, 761, 11,+
2025-03-10 14:32:04.292,530, 614, 534, -21, -31, -7, -3, 5, 7, 902, 832, 236,+
2025-03-10 14:32:04.348,777, 702, 722, -22, -5, -1, -3, 4, 8, 951, 913, 142,+
2025-03-10 14:32:04.402,482, 636, 168, 26, 62, 73, -5, 5, 10, 979, 929, 12,+
2025-03-10 14:32:04.452,668, 612, 208, 4, 28, 22, -5, 7, 7, 973, 901, 12,+
2025-03-10 14:32:04.502,537, 574, 737, 23, -46, -57, -4, 6, 7, 951, 889, 277,+
2025-03-10 14:32:04.563,960, 1121, 205, -43, -37, 29, -4, 4, 7, 981, 961, 20,+
2025-03-10 14:32:04.620,746, 312, 455, 17, 13, 15, -4, 5, 7, 968, 925, 309,+
2025-03-10 14:32:04.671,444, 594, 681, -43, 79, -54, -1, 4, 3, 929, 817, 259,+
2025-03-10 14:32:04.971,686, 577, 436, 2, -4, 5, -6, 6, 6, 919, 779, 113,-
2025-03-10 14:32:05.024,687, 578, 458, 3, -4, 5, -4, 5, 7, 921, 779, 107,-
2025-03-10 14:32:05.073,710, 579, 423, 4, -2, 5, -4, 6, 6, 924, 794, 120,-
2025-03-10 14:32:05.126,689, 587, 437, -3, 2, 1, -4, 6, 6, 929, 800, 104,-
2025-03-10 14:32:05.180,675, 587, 441, -1, 1, 2, -5, 6, 7, 933, 810, 78,-
2025-03-10 14:32:05.230,661, 580, 453, 3, 4, -3, -3, 6, 6, 933, 793, 14,-
2025-03-10 14:32:05.282,639, 520, 586, 3, -15, -1, -4, 6, 6, 936, 822, 17,-
2025-03-10 14:32:05.334,842, 519, 334, -14, -11, -8, -3, 6, 7, 970, 920, 10,-
2025-03-10 14:32:05.392,609, 489, 299, -30, -16, 46, -4, 7, 8, 986, 967, 15,-
2025-03-10 14:32:05.442,624, 486, 489, 63, 1, -10, -7, 6, 7, 970, 945, 18,-
2025-03-10 14:32:05.500,692, 601, 303, -80, 98, -62, -5, 6, 6, 934, 846, 8,-
2025-03-10 14:32:05.820,497, 627, 555, -9, -4, 2, -6, 4, 6, 916, 688, 158,÷
2025-03-10 14:32:05.873,500, 621, 550, -4, -8, 7, -6, 4, 6, 920, 701, 188,÷
2025-03-10 14:32:05.930,618, 715, 423, 10, -3, 33, -5, 4, 5, 929, 758, 244,÷
2025-03-10 14:32:05.980,728, 594, 311, 6, -9, 19, -5, 3, 6, 936, 797, 257,÷
2025-03-10 14:32:06.030,706, 573, 432, -7, 9, 3, -5, 5, 7, 940, 818, 230,÷
2025-03-10 14:32:06.085,668, 601, 463, -3, 0, 6, -4, 6, 7, 941, 829, 170,÷
2025-03-10 14:32:06.134,696, 584, 435, -1, -2, 3, -5, 5, 7, 940, 833, 165,÷
2025-03-10 14:32:06.192,697, 592, 433, 1, -2, 3, -5, 5, 6, 943, 839, 170,÷
2025-03-10 14:32:06.240,709, 588, 434, -3, -2, 3, -5, 5, 8, 945, 841, 177,÷
2025-03-10 14:32:06.292,681, 595, 438, -1, -1, 1, -4, 5, 7, 946, 847, 177,÷
2025-03-10 14:32:06.350,722, 589, 388, -2, -3, -2, -4, 6, 6, 946, 849, 174,÷
2025-03-10 14:32:06.404,693, 596, 401, -15, 13, -6, -5, 5, 8, 946, 845, 144,÷
2025-03-10 14:32:06.454,611, 565, 554, 13, -4, 4, -4, 7, 6, 948, 837, 20,÷
2025-03-10 14:32:06.510,825, 595, 276, -5, -3, -5, -4, 5, 8, 943, 845, 153,÷
2025-03-10 14:32:06.564,622, 569, 417, -29, 22, -8, -6, 6, 6, 951, 855, 15,÷
2025-03-10 14:32:06.610,587, 587, 578, 9, -26, 9, -5, 5, 7, 953, 862, 18,÷
2025-03-10 14:32:06.671,800, 656, 440, -16, -16, -16, -4, 5, 8, 967, 917, 11,÷
2025-03-10 14:32:06.724,762, 644, 362, -37, -13, 10, -3, 6, 7, 978, 954, 22,÷
2025-03-10 14:32:06.775,665, 508, 448, 0, -4, 1, -4, 5, 9, 975, 948, 17,÷
2025-03-10 14:32:06.835,1006, 612, 184, 42, 26, 3, -4, 5, 10, 955, 887, 398,÷
2025-03-10 14:32:06.887,425, 502, 992, 24, -28, 51, -4, 6, 7, 967, 878, 9,÷
2025-03-10 14:32:06.942,711, 708, 105, -27, 18, 15, -4, 6, 7, 974, 918, 19,÷
2025-03-10 14:32:06.995,769, 225, 255, 17, -8, -51, -4, 8, 6, 952, 870, 128,÷
2025-03-10 14:32:07.050,469, 648, 1016, 35, -42, 8, -2, 4, 6, 946, 854, 184,÷
2025-03-10 14:32:07.103,768, 664, 206, -48, -22, 18, -4, 5, 8, 982, 952, 11,÷
2025-03-10 14:32:07.155,547, 423, 479, 25, 0, 21, -5, 7, 7, 977, 943, 141,÷
2025-03-10 14:32:07.215,649, 690, 286, -25, 88, -62, -3, 5, 6, 942, 859, 395,÷
2025-03-10 14:32:07.505,671, 609, 457, -8, -1, -1, -3, 5, 6, 898, 762, 148,=
2025-03-10 14:32:07.560,671, 592, 453, -8, 0, -1, -3, 5, 6, 896, 759, 143,=
2025-03-10 14:32:07.611,668, 570, 495, -3, -1, 2, -4, 5, 6, 897, 767, 63,=
2025-03-10 14:32:07.660,684, 574, 456, 0, -3, 0, -4, 6, 6, 901, 782, 140,=
2025-03-10 14:32:07.716,678, 583, 468, -3, -3, 2, -3, 6, 7, 913, 800, 128,=
2025-03-10 14:32:07.768,686, 612, 453, -2, -1, 1, -5, 5, 6, 918, 806, 149,=
2025-03-10 14:32:07.821,670, 574, 501, -3, -4, 5, -4, 7, 5, 922, 815, 106,=
2025-03-10 14:32:07.875,702, 558, 435, 0, -6, -1, -3, 7, 7, 924, 821, 117,=
2025-03-10 14:32:07.928,699, 571, 461, -1, 0, -1, -4, 6, 7, 926, 824, 67,=
2025-03-10 14:32:07.978,673, 580, 447, -3, 2, -1, -3, 6, 7, 926, 827, 68,=
2025-03-10 14:32:08.030,712, 581, 461, -2, -4, 1, -4, 6, 8, 926, 825, 58,=
2025-03-10 14:32:08.084,652, 554, 489, 3, 7, -1, -3, 5, 6, 927, 820, 11,=
2025-03-10 14:32:08.135,673, 569, 447, 3, -5, -5, -4, 5, 6, 928, 822, 135,=
2025-03-10 14:32:08.184,482, 541, 636, 3, -25, -1, -3, 6, 8, 930, 844, 29,=
2025-03-10 14:32:08.240,789, 434, 279, 10, -27, -13, -5, 5, 9, 975, 941, 17,=
2025-03-10 14:32:08.297,650, 540, 413, 13, 6, 25, -5, 6, 9, 979, 955, 10,=
2025-03-10 14:32:08.350,694, 385, 252, 24, 59, -39, -5, 5, 6, 959, 878, 311,=
2025-03-10 14:32:08.404,995, 274, 552, 57, -18, -38, -4, 4, 8, 967, 883, 9,=
2025-03-10 14:32:08.455,742, 263, 112, -27, 6, 46, -5, 6, 8, 982, 957, 10,=
2025-03-10 14:32:08.513,788, 255, 307, 24, 14, -11, -4, 5, 7, 966, 907, 248,=
2025-03-10 14:32:08.566,508, 591, 507, -94, 102, -65, -4, 5, 3, 914, 704, 12,=
2025-03-10 14:32:08.840,696, 588, 459, -3, -5, 2, -3, 6, 5, 906, 790, 167,≠
2025-03-10 14:32:08.891,699, 583, 451, -4, -4, 1, -4, 6, 6, 906, 789, 161,≠
2025-03-10 14:32:08.948,688, 572, 481, -3, -2, 0, -3, 5, 6, 904, 788, 140,≠
2025-03-10 14:32:09.000,668, 583, 480, -6, -3, 1, -3, 6, 6, 909, 793, 13,≠
2025-03-10 14:32:09.050,687, 572, 465, -4, -5, 3, -4, 6, 7, 919, 810, 14,≠
2025-03-10 14:32:09.102,686, 563, 465, 1, -4, 2, -5, 8, 7, 923, 818, 13,≠
2025-03-10 14:32:09.156,690, 574, 450, -1, 1, -1, -4, 7, 6, 923, 825, 11,≠
2025-03-10 14:32:09.205,697, 584, 456, -4, -2, -4, -3, 6, 6, 923, 816, 3,≠
2025-03-10 14:32:09.256,689, 583, 489, 0, -2, -1, -5, 6, 7, 925, 824, 22,≠
2025-03-10 14:32:09.313,717, 582, 446, 5, -3, -2, -4, 5, 7, 922, 826, 29,≠
2025-03-10 14:32:09.360,682, 574, 484, 2, 4, -1, -4, 4, 7, 922, 825, 21,≠
2025-03-10 14:32:09.414,683, 587, 441, 5, -2, 0, -4, 6, 5, 922, 818, 31,≠
2025-03-10 14:32:09.464,669, 577, 486, 6, -1, 1, -5, 6, 7, 924, 830, 75,≠
2025-03-10 14:32:09.517,733, 582, 381, -1, -3, -2, -4, 6, 7, 922, 832, 69,≠
2025-03-10 14:32:09.566,555, 581, 541, 2, -8, 5, -4, 6, 9, 929, 840, 9,≠
2025-03-10 14:32:09.621,776, 585, 361, -7, -10, -12, -5, 5, 7, 957, 880, 13,≠
2025-03-10 14:32:09.673,573, 480, -6, -5, -36, 40, -4, 4, 8, 979, 954, 10,≠
2025-03-10 14:32:09.726,619, 638, 589, 24, 0, 6, -6, 6, 8, 977, 948, 124,≠
2025-03-10 14:32:09.784,617, 540, 296, 22, 68, -25, -5, 6, 9, 961, 871, 248,≠
2025-03-10 14:32:09.834,871, 597, 544, 39, -13, -21, -4, 5, 7, 970, 893, 8,≠
2025-03-10 14:32:09.890,442, 390, 166, -39, -22, 42, -5, 6, 7, 985, 964, 10,≠
2025-03-10 14:32:09.942,642, 409, 525, 25, 1, 12, -5, 8, 9, 973, 930, 9,≠
2025-03-10 14:32:09.995,388, 661, 847, -12, -6, -39, -5, 6, 5, 961, 901, 383,≠
2025-03-10 14:32:10.058,427, 1377, 585, -10, -33, -11, -5, 6, 10, 980, 938, 13,≠
2025-03-10 14:32:10.107,928, 774, 137, 4, 60, 21, -5, 6, 10, 982, 904, 8,≠
2025-03-10 14:32:10.160,780, 565, 221, 61, 57, 14, -4, 7, 7, 947, 774, 15,≠
2025-03-10 14:32:10.218,546, 584, 551, -80, 45, -61, -3, 5, 3, 885, 805, 199,≠
2025-03-10 14:32:10.270,329, 528, 906, -26, -15, -5, -2, 7, 1, 897, 833, 20,≠
2025-03-10 14:32:10.558,695, 562, 479, 6, -8, 4, -4, 6, 6, 911, 777, 11,≈
2025-03-10 14:32:10.611,703, 557, 476, 7, -8, 4, -4, 8, 7, 911, 780, 20,≈
2025-03-10 14:32:10.660,724, 559, 437, 5, -4, 2, -5, 6, 8, 918, 794, 21,≈
2025-03-10 14:32:10.710,696, 564, 453, 0, 2, -1, -3, 7, 7, 918, 803, 18,≈
2025-03-10 14:32:10.760,684, 588, 452, -2, 0, 1, -5, 6, 7, 923, 810, 15,≈
2025-03-10 14:32:10.811,686, 555, 472, -3, 1, 1, -3, 6, 7, 927, 815, 11,≈
2025-03-10 14:32:10.860,702, 569, 440, 1, -1, 0, -3, 6, 6, 927, 815, 8,≈
2025-03-10 14:32:10.914,693, 565, 465, -2, 1, -1, -6, 5, 4, 928, 812, 21,≈
2025-03-10 14:32:10.968,709, 562, 466, -1, -2, 1, -3, 6, 8, 928, 816, 41,≈
2025-03-10 14:32:11.016,681, 571, 450, 0, 1, 1, -4, 7, 6, 929, 820, 55,≈
2025-03-10 14:32:11.070,713, 558, 460, -1, -2, 0, -4, 7, 6, 930, 822, 90,≈
2025-03-10 14:32:11.120,713, 566, 458, -5, 1, -3, -4, 5, 7, 930, 825, 67,≈
2025-03-10 14:32:11.172,674, 561, 470, -1, 2, -2, -4, 7, 6, 930, 827, 16,≈
2025-03-10 14:32:11.224,682, 558, 464, 0, -1, -2, -4, 7, 6, 931, 820, 15,≈
2025-03-10 14:32:11.276,726, 571, 438, -3, 1, -6, -4, 5, 6, 927, 812, 17,≈
2025-03-10 14:32:11.323,687, 584, 485, -2, 0, -2, -3, 5, 8, 926, 796, 11,≈
2025-03-10 14:32:11.382,703, 571, 444, -1, -2, -1, -4, 7, 8, 930, 804, 14,≈
2025-03-10 14:32:11.432,693, 577, 464, -4, 0, -3, -5, 5, 7, 930, 810, 11,≈
2025-03-10 14:32:11.483,689, 558, 467, 3, -3, -1, -3, 6, 8, 928, 810, 10,≈
2025-03-10 14:32:11.532,703, 578, 457, -2, 0, -1, -3, 5, 7, 930, 819, 15,≈
2025-03-10 14:32:11.590,683, 573, 474, -1, -1, 0, -4, 6, 7, 931, 823, 11,≈
2025-03-10 14:32:11.640,700, 565, 443, -3, 1, -3, -4, 5, 8, 928, 826, 19,≈
2025-03-10 14:32:11.690,690, 576, 447, -3, 0, -2, -5, 6, 7, 928, 824, 11,≈
2025-03-10 14:32:11.746,689, 562, 459, 0, -1, -1, -4, 7, 6, 927, 823, 11,≈
2025-03-10 14:32:11.798,687, 579, 452, -3, 1, -2, -5, 6, 5, 928, 826, 20,≈
2025-03-10 14:32:11.844,682, 562, 472, 0, -1, 0, -4, 6, 7, 927, 822, 20,≈
2025-03-10 14:32:11.900,691, 583, 455, -2, 0, -1, -4, 6, 7, 924, 821, 20,≈
2025-03-10 14:32:11.951,696, 579, 464, 0, -2, 0, -4, 6, 5, 924, 824, 4,≈
2025-03-10 14:32:12.000,642, 597, 483, 4, -2, 4, -3, 6, 5, 927, 831, 14,≈
2025-03-10 14:32:12.053,713, 615, 478, 9, -8, -23, -5, 6, 8, 946, 877, 15,≈
2025-03-10 14:32:12.107,866, 690, 724, 0, -31, 9, -4, 5, 7, 970, 950, 177,≈
2025-03-10 14:32:12.160,375, 370, 523, 4, 4, 27, -5, 7, 7, 982, 952, 145,≈
2025-03-10 14:32:12.213,657, 657, 430, 35, 23, 20, -5, 6, 9, 973, 924, 237,≈
2025-03-10 14:32:12.262,367, 607, 644, 16, 38, -7, -5, 6, 6, 961, 833, 133,≈
2025-03-10 14:32:12.320,840, 486, 30, -21, -2, -4, -5, 6, 7, 971, 927, 20,≈
2025-03-10 14:32:12.370,662, 821, 153, -54, -17, 26, -6, 5, 7, 983, 953, 6,≈
2025-03-10 14:32:12.420,746, 582, 237, -10, 7, 20, -6, 6, 7, 986, 952, 8,≈
2025-03-10 14:32:12.476,749, 500, 437, 11, 16, 15, -5, 6, 6, 977, 930, 15,≈
2025-03-10 14:32:12.531,664, 574, 446, -39, 72, -43, -4, 6, 4, 958, 865, 15,≈
2025-03-10 14:32:12.800,686, 548, 474, 5, -7, 0, -4, 7, 5, 930, 781, 10,<
2025-03-10 14:32:12.851,694, 562, 474, 3, -6, 0, -4, 6, 4, 930, 782, 13,<
2025-03-10 14:32:12.900,684, 572, 479, 1, -5, 1, -3, 6, 5, 930, 783, 6,<
2025-03-10 14:32:12.951,696, 580, 451, 1, -3, 1, -6, 6, 6, 931, 792, 19,<
2025-03-10 14:32:13.003,685, 583, 469, -2, -1, 1, -5, 7, 5, 931, 801, 15,<
2025-03-10 14:32:13.052,682, 560, 478, 0, -2, 1, -4, 6, 4, 934, 806, 18,<
2025-03-10 14:32:13.101,688, 561, 462, -3, -1, 0, -5, 7, 6, 934, 812, 10,<
2025-03-10 14:32:13.154,678, 568, 483, 1, -1, 0, -5, 6, 5, 934, 814, 17,<
2025-03-10 14:32:13.208,681, 554, 488, 3, -6, 0, -5, 6, 6, 933, 812, 17,<
2025-03-10 14:32:13.260,689, 565, 441, 8, -5, -2, -5, 6, 7, 930, 809, 121,<
2025-03-10 14:32:13.308,730, 562, 436, 0, -2, 1, -4, 7, 7, 929, 810, 48,<
2025-03-10 14:32:13.362,742, 583, 331, -9, -1, -2, -4, 5, 6, 934, 832, 224,<
2025-03-10 14:32:13.420,580, 609, 579, -17, -5, -3, -5, 6, 6, 939, 841, 143,<
2025-03-10 14:32:13.474,636, 519, 473, 9, -54, 26, -5, 6, 9, 955, 875, 145,<
2025-03-10 14:32:13.528,754, 580, 467, -25, 0, -4, -4, 7, 9, 969, 932, 11,<
2025-03-10 14:32:13.580,296, 429, 461, 29, 2, -33, -5, 7, 9, 975, 917, 18,<
2025-03-10 14:32:13.632,836, 585, 237, -12, 2, 7, -5, 5, 8, 983, 923, 16,<
2025-03-10 14:32:13.687,935, 790, 470, -20, 15, 49, -5, 7, 8, 987, 958, 10,<
2025-03-10 14:32:13.737,688, 412, 506, 28, 15, 5, -6, 8, 7, 973, 921, 22,<
2025-03-10 14:32:13.789,631, 557, 387, -22, 69, -58, -5, 7, 6, 932, 809, 20,<
2025-03-10 14:32:14.068,692, 561, 446, 6, -11, 5, -5, 6, 6, 925, 805, 15,≤
2025-03-10 14:32:14.116,711, 566, 452, 6, -10, 6, -5, 7, 7, 925, 807, 10,≤
2025-03-10 14:32:14.170,699, 525, 473, 1, -9, -1, -5, 7, 7, 930, 817, 10,≤
2025-03-10 14:32:14.220,690, 558, 478, 1, -15, 4, -4, 6, 6, 938, 837, 8,≤
2025-03-10 14:32:14.270,722, 739, 447, -16, -5, -7, -5, 7, 8, 956, 885, 8,≤
2025-03-10 14:32:14.323,696, 544, 494, -4, -6, -4, -4, 6, 8, 969, 925, 19,≤
2025-03-10 14:32:14.380,770, 747, 282, 28, 26, -6, -5, 5, 10, 976, 898, 8,≤
2025-03-10 14:32:14.430,838, 618, -87, -18, 18, 10, -6, 6, 8, 980, 914, 22,≤
2025-03-10 14:32:14.490,576, 416, 630, -19, -2, 29, -5, 6, 7, 985, 962, 18,≤
2025-03-10 14:32:14.543,658, 690, 303, 51, 22, 22, -5, 8, 7, 970, 906, 19,≤
2025-03-10 14:32:14.590,443, 574, 882, -2, 10, 14, -3, 7, 5, 963, 803, 12,≤
2025-03-10 14:32:14.650,958, 878, 448, -20, -18, 36, -4, 8, 7, 984, 959, 12,≤
2025-03-10 14:32:14.700,719, 404, 430, 29, 7, 18, -5, 7, 6, 976, 940, 14,≤
2025-03-10 14:32:14.755,715, 671, 125, -53, 99, -73, -4, 8, 6, 917, 720, 14,≤
2025-03-10 14:32:15.072,678, 562, 485, 1, -14, 2, -3, 6, 5, 887, 732, 12,>
2025-03-10 14:32:15.124,671, 561, 479, 0, -14, 2, -4, 6, 5, 888, 741, 16,>
2025-03-10 14:32:15.177,716, 554, 464, 4, -17, -2, -5, 5, 7, 896, 777, 18,>
2025-03-10 14:32:15.231,746, 573, 443, -3, -7, -4, -4, 7, 7, 902, 796, 11,>
2025-03-10 14:32:15.282,703, 553, 447, -3, -1, -6, -4, 6, 6, 904, 800, 11,>
2025-03-10 14:32:15.331,597, 556, 553, 4, -12, -1, -5, 5, 6, 908, 814, 11,>
2025-03-10 14:32:15.390,698, 670, 412, -14, -10, -13, -5, 5, 7, 938, 857, 15,>
2025-03-10 14:32:15.440,531, 596, 337, 2, -29, 38, -4, 6, 8, 974, 941, 17,>
2025-03-10 14:32:15.493,574, 488, 704, 21, -3, 1, -5, 6, 7, 982, 941, 4,>
2025-03-10 14:32:15.542,838, 384, 357, 12, 27, 9, -5, 6, 8, 985, 926, 12,>
2025-03-10 14:32:15.600,756, 577, 375, 2, 44, 15, -5, 8, 5, 967, 861, 13,>
2025-03-10 14:32:15.652,780, 453, 236, -30, 38, -52, -5, 7, 5, 922, 811, 20,>
2025-03-10 14:32:15.710,516, 535, 816, -41, 26, -28, -3, 5, 1, 913, 806, 20,>
2025-03-10 14:32:15.968,672, 561, 504, -7, -6, -2, -5, 7, 6, 899, 781, 9,≥
2025-03-10 14:32:16.021,662, 546, 513, -3, -8, -1, -5, 7, 6, 901, 785, 10,≥
2025-03-10 14:32:16.071,712, 559, 462, 5, -12, 0, -3, 7, 5, 908, 801, 9,≥
2025-03-10 14:32:16.125,712, 562, 446, -2, -2, -2, -4, 8, 6, 910, 808, 12,≥
2025-03-10 14:32:16.178,652, 566, 510, 4, -11, -1, -5, 6, 6, 916, 830, 11,≥
2025-03-10 14:32:16.230,737, 512, 318, 3, -8, -19, -5, 7, 9, 934, 853, 12,≥
2025-03-10 14:32:16.284,721, 557, 462, -14, 2, -2, -5, 5, 8, 945, 871, 12,≥
2025-03-10 14:32:16.336,708, 578, 436, -2, -3, -4, -4, 7, 9, 954, 875, 21,≥
2025-03-10 14:32:16.390,867, 477, 634, 21, -6, -2, -4, 5, 10, 966, 923, 7,≥
2025-03-10 14:32:16.443,693, 390, 317, -3, -6, 11, -5, 6, 8, 976, 946, 18,≥
2025-03-10 14:32:16.497,506, 646, 466, 17, 11, 6, -4, 6, 9, 982, 948, 13,≥
2025-03-10 14:32:16.550,507, 857, -93, -2, 42, 21, -3, 6, 8, 980, 919, 22,≥
2025-03-10 14:32:16.603,889, 375, 434, -21, 64, -6, -4, 6, 7, 955, 806, 13,≥
2025-03-10 14:32:16.656,380, 671, 966, 43, -36, 34, -3, 6, 5, 957, 784, 11,≥
2025-03-10 14:32:16.710,972, 911, 140, -18, -8, 24, -3, 6, 6, 982, 949, 10,≥
2025-03-10 14:32:16.764,684, 666, 807, -4, -10, 31, -5, 6, 6, 980, 951, 9,≥
2025-03-10 14:32:16.820,904, 509, -10, -12, 71, -63, -6, 7, 6, 955, 862, 23,≥
2025-03-10 14:32:17.119,688, 568, 461, -4, -4, 0, -5, 5, 6, 904, 756, 13,±
2025-03-10 14:32:17.167,691, 565, 457, -3, -4, 0, -3, 6, 7, 903, 756, 22,±
2025-03-10 14:32:17.221,692, 560, 472, -2, -1, 1, -4, 5, 6, 902, 768, 9,±
2025-03-10 14:32:17.272,691, 570, 477, -1, -5, 0, -6, 7, 7, 904, 784, 19,±
2025-03-10 14:32:17.321,718, 560, 433, -4, -2, -1, -4, 5, 7, 907, 788, 18,±
2025-03-10 14:32:17.376,695, 558, 460, -6, 1, -2, -3, 6, 6, 910, 794, 9,±
2025-03-10 14:32:17.428,687, 555, 468, -3, -1, -2, -4, 7, 6, 912, 798, 6,±
2025-03-10 14:32:17.480,694, 573, 477, -3, -2, -1, -4, 6, 8, 914, 801, 12,±
2025-03-10 14:32:17.531,702, 564, 474, -3, -2, -1, -6, 6, 7, 917, 803, 7,±
2025-03-10 14:32:17.585,708, 564, 457, -2, -5, -2, -3, 4, 6, 918, 809, 14,±
2025-03-10 14:32:17.640,697, 551, 476, -1, -1, -1, -6, 6, 7, 919, 819, 19,±
2025-03-10 14:32:17.685,709, 565, 424, -1, 0, -2, -3, 6, 7, 922, 822, 9,±
2025-03-10 14:32:17.740,662, 566, 510, 2, -3, -6, -4, 6, 7, 923, 827, 8,±
2025-03-10 14:32:17.794,715, 558, 441, 6, -3, -6, -7, 6, 7, 917, 823, 12,±
2025-03-10 14:32:17.844,707, 569, 410, -3, 1, -7, -5, 7, 7, 917, 806, 16,±
2025-03-10 14:32:17.895,545, 593, 543, 17, -5, 1, -3, 4, 7, 924, 816, 10,±
2025-03-10 14:32:17.950,761, 632, 302, -5, -9, -11, -4, 5, 8, 937, 832, 21,±
2025-03-10 14:32:18.001,684, 586, 481, -15, 1, -3, -4, 5, 9, 951, 853, 17,±
2025-03-10 14:32:18.058,713, 627, 360, -3, -5, -2, -5, 4, 9, 968, 889, 18,±
2025-03-10 14:32:18.110,270, 506, 400, -27, -40, 40, -5, 7, 8, 982, 961, 12,±
2025-03-10 14:32:18.164,726, 650, 372, 33, 7, 9, -6, 5, 10, 978, 949, 102,±
2025-03-10 14:32:18.220,416, 655, 314, -17, 36, -54, -5, 6, 8, 963, 925, 462,±
2025-03-10 14:32:18.276,652, 345, 750, 28, -24, -23, -4, 5, 8, 977, 941, 490,±
2025-03-10 14:32:18.331,1075, 1013, 174, 1, 53, 51, -5, 6, 10, 985, 940, 10,±
2025-03-10 14:32:18.383,676, 272, 291, 28, 56, -15, -5, 6, 8, 966, 856, 193,±
2025-03-10 14:32:18.441,966, 239, 350, 34, -12, -27, -4, 5, 7, 970, 897, 98,±
2025-03-10 14:32:18.494,770, 514, 206, -62, -9, 56, -5, 6, 7, 986, 960, 12,±
2025-03-10 14:32:18.552,840, 225, 330, 18, 20, -8, -5, 8, 7, 973, 920, 107,±
2025-03-10 14:32:18.607,515, 550, 592, -63, 91, -54, -1, 5, 1, 923, 643, 12,±
2025-03-10 14:32:18.876,688, 571, 433, -7, -7, 1, -4, 7, 6, 917, 742, 4,∓
2025-03-10 14:32:18.930,694, 572, 446, -7, -5, 1, -3, 7, 7, 918, 743, 6,∓
2025-03-10 14:32:18.980,710, 565, 479, -3, -2, 1, -3, 5, 6, 919, 754, 10,∓
2025-03-10 14:32:19.033,705, 576, 448, -5, -4, -1, -4, 6, 6, 920, 777, 10,∓
2025-03-10 14:32:19.081,700, 554, 453, -7, -5, -2, -4, 5, 6, 926, 804, 11,∓
2025-03-10 14:32:19.142,703, 568, 462, -7, -3, -3, -6, 5, 6, 932, 817, 16,∓
2025-03-10 14:32:19.190,693, 552, 456, -6, 0, -4, -4, 6, 6, 934, 831, 15,∓
2025-03-10 14:32:19.245,684, 553, 467, 1, -1, -2, -5, 5, 6, 933, 829, 12,∓
2025-03-10 14:32:19.295,680, 578, 460, 0, -2, -4, -5, 5, 7, 934, 831, 21,∓
2025-03-10 14:32:19.345,521, 558, 618, 7, -28, 6, -5, 6, 8, 939, 841, 10,∓
2025-03-10 14:32:19.400,1106, 688, 704, 20, -35, 3, -5, 5, 7, 975, 943, 9,∓
2025-03-10 14:32:19.453,672, 371, 242, 12, 0, 17, -5, 5, 9, 979, 946, 19,∓
2025-03-10 14:32:19.507,613, 558, 286, 47, 48, -2, -6, 5, 9, 965, 872, 234,∓
2025-03-10 14:32:19.560,1050, 442, 387, 6, 3, -30, -5, 4, 7, 965, 853, 20,∓
2025-03-10 14:32:19.613,919, 1046, 100, -72, -20, 45, -5, 6, 9, 985, 958, 11,∓
2025-03-10 14:32:19.667,558, 539, 458, 24, 8, 19, -5, 8, 10, 977, 933, 13,∓
2025-03-10 14:32:19.724,311, 687, 726, 8, 16, -27, -4, 5, 6, 963, 889, 287,∓
2025-03-10 14:32:19.777,548, 577, -167, -33, 2, 19, -5, 6, 9, 983, 937, 16,∓
2025-03-10 14:32:19.832,627, 512, 495, -14, 44, 43, -5, 8, 7, 979, 858, 19,∓
2025-03-10 14:32:19.880,729, 463, 240, -12, 80, -77, -4, 8, 5, 935, 752, 17,∓
2025-03-10 14:32:20.152,667, 546, 494, 0, -6, 2, -4, 5, 5, 912, 716, 5,∞
2025-03-10 14:32:20.200,675, 564, 491, 1, -6, 2, -2, 6, 7, 912, 722, 11,∞
2025-03-10 14:32:20.261,691, 561, 466, -3, -4, 1, -5, 6, 5, 914, 745, 21,∞
2025-03-10 14:32:20.310,673, 556, 490, -1, -5, -1, -4, 6, 4, 918, 769, 14,∞
2025-03-10 14:32:20.363,682, 560, 469, -2, -8, 1, -5, 7, 6, 919, 788, 8,∞
2025-03-10 14:32:20.417,695, 562, 461, 0, -4, 0, -4, 7, 7, 920, 792, 20,∞
2025-03-10 14:32:20.466,695, 564, 487, 1, 0, 1, -4, 4, 7, 922, 795, 19,∞
2025-03-10 14:32:20.515,713, 552, 471, 0, -3, 2, -5, 7, 6, 924, 794, 9,∞
2025-03-10 14:32:20.568,727, 566, 424, 1, -2, -1, -3, 7, 7, 929, 800, 17,∞
2025-03-10 14:32:20.616,690, 574, 460, -1, -1, 2, -4, 6, 8, 933, 809, 14,∞
2025-03-10 14:32:20.670,680, 534, 470, 1, 0, 1, -4, 6, 6, 935, 812, 14,∞
2025-03-10 14:32:20.720,691, 564, 454, 1, -1, -6, -3, 5, 5, 934, 815, 18,∞
2025-03-10 14:32:20.773,708, 552, 465, -2, 4, -2, -3, 5, 7, 936, 812, 17,∞
2025-03-10 14:32:20.820,671, 579, 493, 17, 4, 10, -4, 6, 6, 937, 806, 5,∞
2025-03-10 14:32:20.874,786, 601, 343, 4, -5, -1, -5, 7, 5, 933, 818, 60,∞
2025-03-10 14:32:20.923,659, 566, 526, -13, -6, 5, -5, 7, 6, 943, 847, 72,∞
2025-03-10 14:32:20.986,743, 110, -28, -65, -11, -11, -4, 6, 8, 954, 874, 19,∞
2025-03-10 14:32:21.040,642, 646, 532, -13, 18, 16, -5, 6, 8, 975, 913, 12,∞
2025-03-10 14:32:21.092,635, 611, 226, -20, 28, 16, -5, 8, 7, 977, 891, 5,∞
2025-03-10 14:32:21.141,591, 390, 651, 26, 1, -37, -5, 7, 5, 960, 896, 19,∞
2025-03-10 14:32:21.199,710, 746, 398, -54, -54, 19, -5, 7, 7, 981, 949, 14,∞
2025-03-10 14:32:21.250,390, 549, 553, -25, 0, 14, -6, 8, 6, 985, 954, 18,∞
2025-03-10 14:32:21.304,887, 482, 572, 6, -24, -50, -5, 7, 8, 975, 944, 4,∞
2025-03-10 14:32:21.359,645, 496, 392, 4, 28, 16, -5, 7, 9, 981, 929, 19,∞
2025-03-10 14:32:21.410,802, 612, 239, -15, 34, 18, -4, 6, 8, 975, 864, 13,∞
2025-03-10 14:32:21.465,1008, 265, 496, 26, 27, -45, -5, 7, 6, 923, 734, 8,∞
2025-03-10 14:32:21.780,705, 539, 471, 10, -10, 2, -3, 5, 8, 906, 776, 14,∑
2025-03-10 14:32:21.834,709, 549, 449, 12, -9, 1, -4, 6, 7, 908, 777, 17,∑
2025-03-10 14:32:21.884,701, 548, 476, 2, -1, 1, -5, 7, 5, 910, 782, 10,∑
2025-03-10 14:32:21.936,708, 561, 459, 8, -5, 1, -5, 5, 7, 915, 797, 19,∑
2025-03-10 14:32:21.990,720, 575, 447, -2, -2, -3, -5, 6, 7, 915, 800, 21,∑
2025-03-10 14:32:22.035,700, 564, 459, -6, 2, -1, -3, 7, 6, 919, 800, 6,∑
2025-03-10 14:32:22.092,692, 554, 466, -2, 0, -3, -5, 6, 7, 921, 800, 6,∑
2025-03-10 14:32:22.145,696, 566, 460, -2, -1, -3, -5, 6, 6, 922, 800, 11,∑
2025-03-10 14:32:22.194,705, 573, 471, 2, -1, -4, -3, 5, 7, 923, 804, 17,∑
2025-03-10 14:32:22.247,706, 562, 465, 2, 0, -3, -3, 6, 5, 917, 801, 10,∑
2025-03-10 14:32:22.294,723, 587, 495, 11, -6, 5, -5, 5, 7, 922, 826, 18,∑
2025-03-10 14:32:22.350,670, 587, 417, -3, 1, -3, -4, 6, 8, 924, 841, 151,∑
2025-03-10 14:32:22.404,681, 553, 501, -12, -4, -3, -4, 6, 8, 927, 845, 25,∑
2025-03-10 14:32:22.454,567, 614, 505, -2, 16, -8, -4, 6, 7, 931, 815, 16,∑
2025-03-10 14:32:22.510,699, 420, 456, 13, -28, 2, -4, 4, 8, 939, 824, 5,∑
2025-03-10 14:32:22.562,1124, 853, 898, -21, -51, 7, -4, 5, 8, 977, 951, 14,∑
2025-03-10 14:32:22.620,516, 585, 391, -3, -3, 21, -6, 6, 9, 981, 958, 16,∑
2025-03-10 14:32:22.670,524, 542, 279, 46, 15, -18, -5, 6, 10, 959, 902, 265,∑
2025-03-10 14:32:22.727,926, 317, 459, 11, 5, -22, -5, 4, 8, 961, 886, 226,∑
2025-03-10 14:32:22.780,848, 551, 168, -34, 7, 47, -4, 4, 9, 981, 948, 18,∑
2025-03-10 14:32:22.834,449, 493, 577, -12, 7, 13, -4, 6, 7, 980, 941, 6,∑
2025-03-10 14:32:22.883,549, 571, 544, 26, 26, -31, -5, 6, 8, 962, 810, 15,∑
2025-03-10 14:32:22.940,933, 735, 235, -6, -1, 11, -4, 5, 9, 976, 904, 17,∑
2025-03-10 14:32:22.991,686, 653, 479, -54, 4, 39, -4, 7, 7, 985, 955, 7,∑
2025-03-10 14:32:23.043,803, 377, 388, 29, 14, -14, -5, 8, 7, 962, 893, 18,∑
2025-03-10 14:32:23.100,617, 597, 676, -36, 69, -38, -4, 6, 3, 914, 699, 6,∑
2025-03-10 14:32:23.350,688, 558, 453, -3, -4, 2, -5, 6, 6, 910, 735, 8,∏
2025-03-10 14:32:23.401,693, 552, 448, -3, -2, 0, -4, 5, 7, 912, 738, 18,∏
2025-03-10 14:32:23.460,692, 549, 479, -4, -1, -1, -3, 5, 5, 909, 736, 11,∏
2025-03-10 14:32:23.507,686, 583, 470, -12, -3, -1, -4, 5, 6, 907, 725, 8,∏
2025-03-10 14:32:23.562,701, 553, 469, -3, -3, 2, -4, 6, 6, 914, 742, 15,∏
2025-03-10 14:32:23.614,694, 571, 469, -3, 0, 0, -3, 6, 7, 912, 744, 20,∏
2025-03-10 14:32:23.664,693, 562, 483, -3, -4, 1, -5, 6, 6, 918, 758, 18,∏
2025-03-10 14:32:23.718,696, 561, 466, -3, -5, -1, -4, 6, 5, 921, 774, 15,∏
2025-03-10 14:32:23.771,703, 564, 452, -2, 1, 1, -3, 6, 7, 921, 778, 13,∏
2025-03-10 14:32:23.820,718, 552, 471, 0, -1, 0, -4, 6, 6, 922, 780, 10,∏
2025-03-10 14:32:23.870,720, 551, 474, 0, -1, 1, -5, 6, 6, 924, 789, 8,∏
2025-03-10 14:32:23.923,673, 563, 474, -3, 0, -7, -5, 7, 7, 930, 798, 14,∏
2025-03-10 14:32:23.972,521, 537, 568, 18, -25, 1, -4, 6, 6, 936, 836, 11,∏
2025-03-10 14:32:24.030,920, 476, 594, -1, -13, -5, -5, 6, 8, 973, 939, 20,∏
2025-03-10 14:32:24.087,255, 106, 500, -9, 2, 41, -6, 7, 8, 984, 959, 19,∏
2025-03-10 14:32:24.134,495, 338, 572, 61, -5, -32, -5, 8, 9, 970, 934, 17,∏
2025-03-10 14:32:24.188,622, 692, 581, 0, 35, -36, -5, 5, 7, 949, 894, 244,∏
2025-03-10 14:32:24.240,678, 927, 196, 0, 7, 30, -3, 6, 8, 981, 940, 20,∏
2025-03-10 14:32:24.295,588, 417, 173, 10, 32, 40, -5, 7, 8, 981, 925, 19,∏
2025-03-10 14:32:24.348,808, 81, 584, 32, -15, -56, -3, 8, 4, 946, 872, 257,∏
2025-03-10 14:32:24.401,494, -687, -46, -63, -15, -10, -4, 5, 7, 964, 942, 277,∏
2025-03-10 14:32:24.460,372, 916, -79, 17, 24, 33, -5, 7, 10, 985, 942, 16,∏
2025-03-10 14:32:24.511,717, 350, 397, 45, 24, 7, -5, 8, 6, 973, 876, 20,∏
2025-03-10 14:32:24.570,672, 662, 365, -38, 58, -56, -5, 7, 6, 933, 846, 132,∏
2025-03-10 14:32:24.884,695, 552, 479, -7, 1, -1, -4, 8, 5, 907, 749, 11,√
2025-03-10 14:32:24.934,696, 535, 479, -7, 1, -2, -4, 7, 5, 906, 749, 8,√
2025-03-10 14:32:24.988,700, 530, 496, -2, -2, 0, -4, 8, 6, 909, 754, 12,√
2025-03-10 14:32:25.041,685, 546, 494, -1, -1, -1, -4, 8, 6, 911, 757, 7,√
2025-03-10 14:32:25.090,685, 537, 481, -3, -1, -1, -5, 9, 6, 915, 781, 18,√
2025-03-10 14:32:25.143,697, 539, 490, -3, 0, -1, -5, 8, 6, 916, 787, 8,√
2025-03-10 14:32:25.196,693, 552, 498, -6, -1, -1, -4, 6, 7, 912, 775, 4,√
2025-03-10 14:32:25.246,690, 542, 501, -7, -6, -2, -4, 8, 5, 916, 775, 9,√
2025-03-10 14:32:25.299,719, 523, 497, 0, -3, -1, -4, 6, 5, 917, 785, 20,√
2025-03-10 14:32:25.352,706, 523, 462, 5, -6, -2, -5, 6, 6, 923, 790, 10,√
2025-03-10 14:32:25.400,705, 521, 517, 16, -1, -3, -3, 7, 7, 925, 799, 9,√
2025-03-10 14:32:25.450,763, 538, 373, -2, 2, 0, -5, 7, 5, 923, 823, 8,√
2025-03-10 14:32:25.503,595, 570, 594, 8, 22, -1, -4, 8, 5, 925, 804, 20,√
2025-03-10 14:32:25.557,646, 551, 467, 17, -6, 1, -2, 7, 6, 931, 787, 7,√
2025-03-10 14:32:25.610,796, 536, 449, 14, -20, -5, -5, 6, 6, 941, 834, 13,√
2025-03-10 14:32:25.660,748, 570, 463, -9, 2, 0, -4, 6, 7, 967, 921, 21,√
2025-03-10 14:32:25.713,611, 481, 376, 0, -7, 19, -3, 6, 7, 976, 939, 19,√
2025-03-10 14:32:25.763,663, 451, 364, -15, 16, 33, -5, 6, 7, 982, 929, 5,√
2025-03-10 14:32:25.817,754, 799, 340, -41, 27, 19, -5, 7, 6, 976, 940, 19,√
2025-03-10 14:32:25.874,543, 1061, 191, -24, -74, -79, -5, 6, 8, 965, 955, 222,√
2025-03-10 14:32:25.930,876, 755, 6, -31, -32, 23, -5, 5, 10, 982, 961, 14,√
2025-03-10 14:32:25.984,580, 384, 459, 30, 14, 2, -6, 8, 10, 977, 954, 20,√
2025-03-10 14:32:26.040,595, 683, 240, 5, 70, -57, -6, 6, 9, 950, 915, 287,√
2025-03-10 14:32:26.310,695, 589, 414, -4, 10, -2, -5, 4, 8, 900, 696, 13,∛
2025-03-10 14:32:26.365,678, 582, 441, -2, 10, -1, -4, 5, 8, 898, 691, 14,∛
2025-03-10 14:32:26.414,680, 613, 437, 4, -1, 2, -5, 5, 7, 890, 687, 17,∛
2025-03-10 14:32:26.465,694, 593, 437, -6, -5, 4, -2, 5, 7, 893, 702, 19,∛
2025-03-10 14:32:26.520,781, 622, 359, -1, 3, -7, -5, 6, 7, 927, 828, 14,∛
2025-03-10 14:32:26.573,681, 662, 385, -22, -15, 6, -3, 5, 8, 950, 910, 11,∛
2025-03-10 14:32:26.626,541, 447, 725, -14, -20, 16, -4, 5, 7, 971, 934, 12,∛
2025-03-10 14:32:26.680,550, 745, 92, -22, 28, 61, -4, 6, 7, 982, 931, 13,∛
2025-03-10 14:32:26.732,701, 587, 409, -39, 29, 24, -4, 9, 6, 974, 946, 18,∛
2025-03-10 14:32:26.790,1194, 988, 284, -1, -67, -48, -5, 7, 7, 972, 963, 21,∛
2025-03-10 14:32:26.840,489, 719, 345, -4, -32, 13, -5, 6, 8, 984, 966, 8,∛
2025-03-10 14:32:26.892,713, 609, 511, 23, 1, 4, -6, 7, 8, 977, 947, 15,∛
2025-03-10 14:32:26.950,553, 620, 185, 0, 65, -75, -5, 7, 8, 955, 922, 291,∛
2025-03-10 14:32:27.000,581, 811, 844, 22, -17, -9, -5, 4, 6, 934, 862, 485,∛
2025-03-10 14:32:27.060,804, 693, -175, -33, -21, -8, -4, 3, 9, 973, 928, 364,∛
2025-03-10 14:32:27.113,690, 624, 447, -23, 3, 23, -5, 3, 9, 978, 948, 312,∛
2025-03-10 14:32:27.165,607, 581, 445, 7, 7, 6, -5, 4, 9, 978, 948, 298,∛
2025-03-10 14:32:27.220,710, 637, 282, -4, 15, 1, -5, 5, 9, 978, 941, 192,∛
2025-03-10 14:32:27.272,659, 629, 366, 14, 28, 6, -4, 5, 8, 969, 899, 226,∛
2025-03-10 14:32:27.327,839, 567, 305, -29, 59, -37, -4, 5, 7, 899, 850, 458,∛
2025-03-10 14:32:27.380,409, 622, 848, -12, 1, 3, -2, 4, 4, 882, 822, 259,∛
2025-03-10 14:32:27.665,667, 576, 476, 2, 5, 5, -3, 5, 6, 884, 656, 8,∜
2025-03-10 14:32:27.715,668, 568, 475, 4, 3, 5, -5, 5, 6, 882, 668, 8,∜
2025-03-10 14:32:27.766,679, 607, 429, 0, 0, 2, -3, 6, 6, 888, 683, 17,∜
2025-03-10 14:32:27.813,674, 563, 480, -4, -2, 2, -5, 4, 6, 899, 701, 11,∜
2025-03-10 14:32:27.871,846, 486, 352, -20, -2, -14, -3, 4, 6, 928, 817, 9,∜
2025-03-10 14:32:27.928,824, 810, 676, -31, -22, 23, -5, 5, 7, 964, 926, 163,∜
2025-03-10 14:32:27.981,693, 646, 583, 14, 13, 33, -6, 7, 6, 977, 941, 12,∜
2025-03-10 14:32:28.035,846, 686, 104, -34, 24, 34, -3, 7, 5, 980, 937, 17,∜
2025-03-10 14:32:28.084,573, 162, 723, -27, -6, -6, -4, 8, 4, 971, 946, 18,∜
2025-03-10 14:32:28.143,859, 787, 829, -15, -67, -14, -5, 8, 7, 975, 961, 19,∜
2025-03-10 14:32:28.194,646, 584, 234, 6, -13, 3, -5, 7, 8, 980, 957, 8,∜
2025-03-10 14:32:28.245,789, 281, 391, 19, 8, -31, -6, 8, 8, 966, 934, 11,∜
2025-03-10 14:32:28.304,499, 650, 778, 24, 27, -72, -5, 5, 8, 949, 910, 476,∜
2025-03-10 14:32:28.367,5016, -392, -753, -127, -31, -37, -3, 5, 10, 970, 934, 572,∜
2025-03-10 14:32:28.420,713, 767, 304, -2, -1, 2, -6, 3, 12, 982, 940, 254,∜
2025-03-10 14:32:28.472,762, 701, 219, -9, 14, 9, -5, 6, 7, 982, 911, 16,∜
2025-03-10 14:32:28.526,983, 1026, 562, -23, 3, 45, -5, 5, 10, 985, 956, 19,∜
2025-03-10 14:32:28.580,643, 490, 424, 19, 0, 4, -6, 4, 10, 978, 954, 162,∜
2025-03-10 14:32:28.633,458, 837, 519, 6, 3, -20, -6, 3, 9, 966, 920, 615,∜
2025-03-10 14:32:28.686,706, 701, 259, -5, -3, 3, -5, 4, 11, 984, 939, 167,∜
2025-03-10 14:32:28.740,645, 423, 407, 6, 27, 22, -5, 5, 8, 976, 881, 12,∜
2025-03-10 14:32:29.017,713, 597, 392, -6, 5, 0, -5, 6, 9, 910, 681, 12,∫
2025-03-10 14:32:29.070,705, 592, 393, -6, 6, -1, -5, 4, 8, 909, 681, 9,∫
2025-03-10 14:32:29.120,666, 579, 470, -5, 6, 0, -4, 5, 6, 911, 695, 7,∫
2025-03-10 14:32:29.168,689, 576, 442, 3, -2, 3, -6, 4, 8, 901, 702, 12,∫
2025-03-10 14:32:29.222,699, 591, 421, -3, 0, 1, -4, 5, 8, 897, 689, 10,∫
2025-03-10 14:32:29.271,686, 594, 436, -3, 1, 3, -4, 5, 8, 903, 704, 16,∫
2025-03-10 14:32:29.324,705, 599, 413, -2, 0, 3, -4, 5, 8, 910, 711, 15,∫
2025-03-10 14:32:29.374,688, 580, 451, -3, 1, 2, -5, 5, 7, 913, 722, 11,∫
2025-03-10 14:32:29.422,714, 573, 429, 6, -5, 0, -5, 6, 8, 919, 727, 7,∫
2025-03-10 14:32:29.476,697, 591, 424, -1, 2, 0, -2, 5, 8, 923, 737, 13,∫
2025-03-10 14:32:29.525,697, 565, 444, 2, 1, 2, -3, 3, 7, 924, 742, 20,∫
2025-03-10 14:32:29.575,709, 599, 415, 2, 8, 6, -4, 5, 9, 928, 747, 10,∫
2025-03-10 14:32:29.622,685, 582, 465, 3, 4, 1, -4, 6, 8, 927, 740, 20,∫
2025-03-10 14:32:29.681,746, 647, 380, -11, -7, 13, -4, 4, 6, 938, 780, 12,∫
2025-03-10 14:32:29.730,568, 567, 517, -8, -24, 13, -4, 7, 7, 946, 794, 5,∫
2025-03-10 14:32:29.783,714, 512, 532, -50, -9, 4, -5, 8, 8, 962, 865, 19,∫
2025-03-10 14:32:29.840,558, 575, 534, -12, -2, -3, -6, 8, 9, 968, 907, 12,∫
2025-03-10 14:32:29.893,817, 366, 339, 21, 4, -16, -5, 7, 7, 975, 916, 15,∫
2025-03-10 14:32:29.946,621, 793, 590, -38, 42, 35, -4, 5, 7, 985, 927, 19,∫
2025-03-10 14:32:29.992,593, 596, 206, 3, 31, 14, -4, 8, 5, 976, 885, 19,∫
2025-03-10 14:32:30.054,979, 292, 380, 25, 36, -22, -4, 9, 6, 908, 671, 12,∫
2025-03-10 14:32:30.107,607, 523, 489, -61, 66, -44, -1, 6, 2, 796, 684, 9,∫
2025-03-10 14:32:30.410,682, 549, 504, 1, -4, -1, -3, 6, 5, 856, 710, 19,∮
2025-03-10 14:32:30.468,672, 552, 507, 2, -5, -1, -5, 6, 4, 854, 717, 18,∮
2025-03-10 14:32:30.516,684, 556, 473, 3, -6, 0, -3, 6, 5, 840, 717, 13,∮
2025-03-10 14:32:30.569,701, 560, 464, -2, -6, 0, -3, 5, 5, 832, 714, 12,∮
2025-03-10 14:32:30.623,699, 569, 472, -3, -1, 0, -5, 6, 6, 838, 715, 12,∮
2025-03-10 14:32:30.677,699, 556, 476, -6, -1, -2, -4, 6, 5, 839, 717, 18,∮
2025-03-10 14:32:30.726,693, 573, 489, -7, -1, -1, -3, 7, 5, 839, 714, 17,∮
2025-03-10 14:32:30.780,706, 538, 490, -2, -3, -1, -3, 6, 7, 840, 691, 7,∮
2025-03-10 14:32:30.833,693, 558, 457, -8, 4, -2, -4, 5, 5, 833, 646, 10,∮
2025-03-10 14:32:30.880,658, 547, 530, 2, -4, 2, -3, 7, 5, 845, 654, 15,∮
2025-03-10 14:32:30.934,704, 562, 407, 2, -8, 0, -5, 6, 6, 863, 681, 16,∮
2025-03-10 14:32:30.983,689, 535, 492, -5, 1, -2, -3, 6, 6, 876, 706, 4,∮
2025-03-10 14:32:31.036,750, 578, 478, 1, -12, 10, -5, 7, 5, 908, 789, 12,∮
2025-03-10 14:32:31.094,659, 542, 468, -12, -12, -6, -4, 6, 6, 923, 806, 21,∮
2025-03-10 14:32:31.145,674, 551, 499, -4, -13, 16, -5, 6, 7, 941, 812, 16,∮
2025-03-10 14:32:31.196,726, 501, 404, -9, 0, 0, -5, 7, 7, 947, 827, 12,∮
2025-03-10 14:32:31.251,665, 541, 579, -7, -15, 9, -5, 8, 7, 952, 842, 11,∮
2025-03-10 14:32:31.303,675, 628, 359, -16, 2, -10, -5, 8, 8, 960, 892, 15,∮
2025-03-10 14:32:31.357,830, 283, 670, 7, 2, -18, -6, 8, 8, 965, 921, 4,∮
2025-03-10 14:32:31.410,1042, 836, 288, 44, 40, 25, -5, 6, 7, 979, 923, 9,∮
2025-03-10 14:32:31.463,715, 277, 229, -8, 43, 37, -4, 8, 6, 979, 943, 19,∮
2025-03-10 14:32:31.517,635, 644, 329, 24, -23, -74, -6, 8, 6, 967, 937, 252,∮
2025-03-10 14:32:31.573,960, 642, 548, -45, -27, -3, -5, 5, 7, 977, 955, 12,∮
2025-03-10 14:32:31.627,717, 827, 523, -33, 21, 40, -5, 6, 8, 985, 958, 16,∮
2025-03-10 14:32:31.680,927, 323, 324, 15, 30, 7, -5, 9, 6, 977, 928, 13,∮
2025-03-10 14:32:31.731,1084, 395, 409, 3, 9, -75, -5, 8, 6, 946, 896, 7,∮
2025-03-10 14:32:31.788,359, 576, 956, 26, -61, -13, -5, 6, 5, 945, 928, 388,∮
2025-03-10 14:32:31.840,690, 704, 184, -35, -3, 26, -5, 6, 8, 979, 953, 6,∮
2025-03-10 14:32:31.894,554, 170, 466, -21, 53, 63, -4, 8, 8, 984, 942, 16,∮
2025-03-10 14:32:31.946,841, 355, 335, 24, 46, 1, -3, 12, 4, 954, 817, 12,∮
2025-03-10 14:32:32.000,782, 542, 372, -41, 67, -62, -2, 9, 4, 856, 744, 14,∮
2025-03-10 14:32:32.058,421, 576, 979, -15, -1, -21, -3, 7, 0, 812, 693, 12,∮
2025-03-10 14:32:32.331,679, 549, 513, 1, -6, -1, -5, 7, 4, 836, 654, 11,∂
2025-03-10 14:32:32.388,686, 544, 520, 0, -6, -1, -4, 8, 4, 836, 657, 9,∂
2025-03-10 14:32:32.438,676, 528, 507, -2, -7, 0, -4, 7, 6, 840, 675, 17,∂
2025-03-10 14:32:32.490,688, 540, 504, 3, -9, 0, -4, 7, 5, 850, 695, 19,∂
2025-03-10 14:32:32.541,695, 523, 483, -1, -3, 0, -4, 7, 3, 860, 704, 18,∂
2025-03-10 14:32:32.590,689, 542, 498, -3, -2, 0, -4, 7, 4, 867, 705, 9,∂
2025-03-10 14:32:32.643,691, 539, 497, -2, -4, 0, -5, 6, 4, 877, 710, 20,∂
2025-03-10 14:32:32.696,694, 524, 495, -4, -2, 1, -5, 6, 5, 884, 720, 10,∂
2025-03-10 14:32:32.745,692, 547, 498, 1, -2, 2, -4, 7, 4, 886, 727, 7,∂
2025-03-10 14:32:32.790,714, 528, 502, 0, -3, 2, -3, 9, 6, 888, 734, 8,∂
2025-03-10 14:32:32.848,686, 512, 492, 5, -4, 1, -2, 8, 7, 901, 764, 5,∂
2025-03-10 14:32:32.896,692, 522, 469, 1, 0, -8, -5, 7, 5, 908, 796, 18,∂
2025-03-10 14:32:32.950,698, 560, 492, -4, 3, -3, -5, 6, 6, 909, 801, 18,∂
2025-03-10 14:32:33.004,586, 531, 521, 15, -10, -6, -5, 7, 6, 916, 823, 11,∂
2025-03-10 14:32:33.056,775, 770, 465, 15, -13, -18, -5, 6, 5, 944, 874, 15,∂
2025-03-10 14:32:33.110,896, 648, 600, 7, -26, 43, -5, 5, 7, 974, 941, 7,∂
2025-03-10 14:32:33.164,620, 714, 564, 12, 36, 37, -5, 9, 6, 980, 933, 14,∂
2025-03-10 14:32:33.216,1060, 421, 345, -20, 27, 5, -6, 7, 6, 971, 886, 11,∂
2025-03-10 14:32:33.270,978, 340, 916, 13, -17, -16, -5, 7, 6, 976, 942, 6,∂
2025-03-10 14:32:33.326,802, 318, 281, -12, -21, 10, -6, 8, 6, 985, 966, 18,∂
2025-03-10 14:32:33.380,725, 461, 496, 27, 4, -9, -5, 8, 7, 978, 939, 12,∂
2025-03-10 14:32:33.430,649, 556, 524, -53, 89, -51, -3, 7, 6, 950, 823, 18,∂
2025-03-10 14:32:33.707,700, 562, 456, 4, -6, 3, -5, 5, 6, 886, 730, 5,∇
2025-03-10 14:32:33.757,700, 559, 446, 3, -4, 2, -5, 5, 6, 886, 732, 5,∇
2025-03-10 14:32:33.810,700, 552, 478, 0, -1, 0, -6, 8, 6, 886, 744, 13,∇
2025-03-10 14:32:33.853,698, 568, 462, 1, -4, -2, -3, 5, 4, 876, 737, 15,∇
2025-03-10 14:32:33.912,698, 567, 468, -3, -2, 0, -4, 5, 5, 877, 743, 16,∇
2025-03-10 14:32:33.965,683, 558, 461, 1, -1, 1, -4, 6, 7, 875, 738, 14,∇
2025-03-10 14:32:34.013,697, 547, 468, 0, -4, 2, -4, 6, 6, 882, 752, 21,∇
2025-03-10 14:32:34.060,714, 568, 442, 0, -3, 0, -4, 7, 6, 891, 769, 18,∇
2025-03-10 14:32:34.115,697, 566, 446, -4, -3, 2, -4, 5, 6, 900, 786, 18,∇
2025-03-10 14:32:34.165,674, 554, 477, 2, 2, 0, -5, 6, 6, 910, 801, 9,∇
2025-03-10 14:32:34.215,695, 546, 427, -6, 2, -7, -4, 6, 6, 913, 808, 8,∇
2025-03-10 14:32:34.268,596, 556, 502, 5, 2, -12, -4, 6, 5, 920, 806, 16,∇
2025-03-10 14:32:34.321,1731, 269, 183, -12, -14, -34, -4, 5, 8, 936, 833, 8,∇
2025-03-10 14:32:34.379,857, 455, 510, 11, -4, -2, -5, 6, 8, 968, 922, 20,∇
2025-03-10 14:32:34.430,546, 594, 494, -37, -11, 38, -5, 3, 7, 980, 951, 11,∇
2025-03-10 14:32:34.486,645, 521, 596, 27, -16, -4, -7, 8, 8, 984, 943, 22,∇
2025-03-10 14:32:34.544,890, 937, 214, -19, 41, 32, -4, 5, 7, 983, 920, 18,∇
2025-03-10 14:32:34.593,701, 666, 430, 2, 50, 16, -5, 8, 6, 965, 880, 15,∇
2025-03-10 14:32:34.650,505, 824, 699, 10, -19, -47, -3, 5, 6, 932, 871, 168,∇
2025-03-10 14:32:34.700,852, 525, 411, -59, -39, 10, -5, 5, 7, 981, 946, 14,∇
2025-03-10 14:32:34.759,884, 912, 309, -13, 36, 76, -5, 9, 6, 986, 946, 12,∇
2025-03-10 14:32:34.813,816, 145, 391, 23, 20, -51, -4, 9, 5, 964, 874, 21,∇
2025-03-10 14:32:34.866,625, 557, 713, -5, 34, -42, -4, 8, 4, 858, 786, 12,∇
2025-03-10 14:32:35.138,678, 551, 508, 3, -4, -2, -4, 5, 5, 834, 650, 17,∆
2025-03-10 14:32:35.191,685, 561, 497, 4, -4, -2, -3, 5, 6, 835, 652, 19,∆
2025-03-10 14:32:35.240,682, 560, 477, 3, -3, 1, -5, 6, 5, 851, 676, 15,∆
2025-03-10 14:32:35.293,689, 565, 458, 1, -2, 0, -4, 6, 6, 855, 702, 16,∆
2025-03-10 14:32:35.342,686, 572, 475, -3, 2, -1, -4, 6, 8, 857, 704, 13,∆
2025-03-10 14:32:35.391,685, 559, 490, 0, -3, 3, -4, 6, 7, 861, 706, 13,∆
2025-03-10 14:32:35.447,690, 567, 455, -1, -2, 1, -3, 6, 6, 864, 724, 15,∆
2025-03-10 14:32:35.490,697, 556, 489, 0, -3, 4, -5, 6, 6, 873, 745, 17,∆
2025-03-10 14:32:35.547,710, 541, 424, 0, 1, 3, -3, 6, 6, 886, 749, 15,∆
2025-03-10 14:32:35.600,694, 566, 502, 4, -5, -4, -6, 7, 6, 885, 748, 11,∆
2025-03-10 14:32:35.653,709, 563, 439, -5, -1, -3, -4, 7, 8, 886, 755, 15,∆
2025-03-10 14:32:35.703,695, 545, 512, 2, -3, 0, -3, 6, 7, 887, 756, 15,∆
2025-03-10 14:32:35.752,658, 589, 436, -7, -18, -2, -5, 7, 7, 897, 779, 22,∆
2025-03-10 14:32:35.813,691, 602, 676, -31, -12, -3, -5, 6, 6, 950, 889, 16,∆
2025-03-10 14:32:35.866,530, 404, 526, 26, -15, -14, -5, 8, 7, 977, 924, 4,∆
2025-03-10 14:32:35.920,537, 524, 261, 18, 23, 9, -6, 6, 8, 978, 887, 13,∆
2025-03-10 14:32:35.970,805, 601, 830, -17, 15, 25, -4, 6, 8, 932, 868, 9,∆
2025-03-10 14:32:36.022,568, 453, 547, -12, -12, -8, -5, 5, 7, 958, 929, 282,∆
2025-03-10 14:32:36.078,843, 1036, 271, -40, 6, 36, -4, 5, 8, 983, 944, 9,∆
2025-03-10 14:32:36.131,562, 566, 519, 11, 30, 28, -6, 7, 7, 983, 946, 9,∆
2025-03-10 14:32:36.182,-332, 481, 464, 55, 18, -38, -5, 7, 8, 966, 919, 9,∆
2025-03-10 14:32:36.240,1017, 714, 380, 4, 14, 14, -4, 4, 6, 947, 890, 170,∆
2025-03-10 14:32:36.293,620, 581, 346, -70, 63, -24, -3, 5, 4, 937, 829, 11,∆
2025-03-10 14:32:36.350,385, 562, 818, -12, -8, 1, -2, 7, 2, 930, 749, 14,∆
2025-03-10 14:32:36.613,687, 586, 491, -7, 0, -1, -5, 6, 4, 847, 618, 12,π
2025-03-10 14:32:36.663,691, 568, 479, -7, 0, 0, -4, 6, 6, 845, 611, 7,π
2025-03-10 14:32:36.718,702, 547, 478, -2, 1, -3, -4, 6, 5, 817, 587, 8,π
2025-03-10 14:32:36.768,682, 541, 480, -3, -1, -1, -4, 6, 6, 817, 620, 13,π
2025-03-10 14:32:36.820,682, 565, 493, -2, -1, -2, -3, 7, 5, 835, 641, 19,π
2025-03-10 14:32:36.875,686, 565, 479, -2, -1, -3, -5, 7, 6, 831, 649, 4,π
2025-03-10 14:32:36.926,680, 563, 488, 1, -3, -2, -5, 6, 4, 817, 656, 15,π
2025-03-10 14:32:36.976,695, 555, 491, 0, -4, -1, -5, 7, 5, 813, 678, 20,π
2025-03-10 14:32:37.030,691, 563, 456, 1, -4, -1, -3, 6, 6, 831, 688, 10,π
2025-03-10 14:32:37.081,694, 552, 474, -2, -2, 0, -4, 7, 7, 845, 719, 10,π
2025-03-10 14:32:37.132,681, 577, 484, 4, 0, -1, -5, 5, 6, 863, 728, 9,π
2025-03-10 14:32:37.185,692, 551, 460, 1, -1, -4, -4, 4, 7, 873, 743, 17,π
2025-03-10 14:32:37.231,630, 589, 470, 14, 1, -9, -4, 4, 7, 878, 732, 10,π
2025-03-10 14:32:37.290,798, 449, 549, 13, -27, -2, -4, 5, 6, 916, 815, 12,π
2025-03-10 14:32:37.344,1205, 814, 595, -9, -33, 3, -4, 4, 8, 975, 949, 10,π
2025-03-10 14:32:37.396,-53, 661, 211, -32, 7, 54, -5, 8, 8, 985, 964, 12,π
2025-03-10 14:32:37.450,619, 614, 511, 43, -9, -7, -6, 8, 8, 976, 940, 17,π
2025-03-10 14:32:37.503,586, 564, 205, 3, 53, -74, -5, 4, 8, 946, 885, 259,π
2025-03-10 14:32:37.562,790, 302, 424, 10, -18, -20, -4, 4, 7, 968, 921, 255,π
2025-03-10 14:32:37.614,728, 623, 464, -34, 28, 48, -6, 6, 7, 984, 934, 21,π
2025-03-10 14:32:37.663,651, 439, 215, 0, 32, 13, -4, 8, 7, 966, 871, 15,π
2025-03-10 14:32:37.721,798, 702, 442, -26, -22, -37, -3, 7, 6, 944, 898, 232,π
2025-03-10 14:32:37.775,568, 717, 625, 6, -21, -17, -4, 7, 9, 977, 946, 4,π
2025-03-10 14:32:37.828,899, 444, 548, 1, 41, 53, -5, 6, 9, 986, 943, 19,π
2025-03-10 14:32:37.880,752, 506, 291, 26, 28, 21, -6, 8, 6, 976, 905, 18,π
2025-03-10 14:32:37.938,832, 582, 118, -30, 73, -68, -5, 8, 4, 931, 853, 118,π
2025-03-10 14:32:37.991,378, 614, 956, -34, 26, -20, -3, 7, 3, 898, 792, 10,π
2025-03-10 14:32:38.250,672, 538, 515, -9, -1, -4, -4, 5, 5, 820, 569, 11,θ
2025-03-10 14:32:38.300,678, 557, 519, -7, -1, -3, -4, 5, 5, 820, 575, 6,θ
2025-03-10 14:32:38.352,657, 542, 531, -6, -2, 2, -4, 6, 3, 832, 574, 8,θ
2025-03-10 14:32:38.402,689, 566, 491, 2, -5, 1, -4, 6, 4, 835, 587, 6,θ
2025-03-10 14:32:38.450,684, 552, 495, -3, 1, 1, -4, 7, 4, 836, 595, 16,θ
2025-03-10 14:32:38.504,673, 533, 511, -3, 2, 1, -4, 7, 4, 842, 620, 16,θ
2025-03-10 14:32:38.553,672, 536, 516, -2, 0, -1, -3, 6, 4, 831, 622, 19,θ
2025-03-10 14:32:38.606,668, 543, 509, 1, -5, -5, -3, 6, 4, 822, 650, 9,θ
2025-03-10 14:32:38.654,656, 547, 521, 6, -8, -2, -4, 7, 4, 829, 672, 10,θ
2025-03-10 14:32:38.712,679, 549, 495, 14, -13, -3, -4, 7, 5, 837, 693, 10,θ
2025-03-10 14:32:38.760,740, 575, 436, 5, -6, 7, -5, 6, 5, 866, 728, 7,θ
2025-03-10 14:32:38.811,702, 563, 484, 1, -2, 8, -5, 5, 6, 897, 779, 14,θ
2025-03-10 14:32:38.863,639, 539, 492, -3, -18, 2, -4, 7, 7, 906, 819, 11,θ
2025-03-10 14:32:38.913,699, 549, 418, -1, -7, -5, -5, 6, 6, 909, 832, 15,θ
2025-03-10 14:32:38.971,703, 520, 438, -29, -3, -17, -4, 5, 7, 929, 857, 13,θ
2025-03-10 14:32:39.027,850, 228, 671, 62, -8, -28, -5, 6, 8, 969, 897, 18,θ
2025-03-10 14:32:39.081,519, 549, -38, -43, 50, 61, -4, 5, 7, 982, 926, 10,θ
2025-03-10 14:32:39.135,486, 95, 951, 29, -20, -15, -5, 7, 4, 970, 922, 19,θ
2025-03-10 14:32:39.192,594, 599, 680, 10, -57, -16, -3, 6, 5, 952, 934, 527,θ
2025-03-10 14:32:39.245,620, 573, 263, -31, -9, 17, -6, 6, 8, 981, 953, 6,θ
2025-03-10 14:32:39.296,511, 327, 314, -27, 40, 47, -5, 7, 8, 984, 935, 18,θ
2025-03-10 14:32:39.351,596, 422, 402, 30, 41, -20, -4, 9, 6, 956, 850, 21,θ
2025-03-10 14:32:39.410,337, 703, 1087, 8, -26, -11, -4, 6, 4, 945, 881, 19,θ
2025-03-10 14:32:39.460,912, 811, -109, -26, -11, 33, -4, 7, 7, 983, 955, 9,θ
2025-03-10 14:32:39.515,568, 440, 585, 29, -10, 26, -5, 8, 8, 972, 929, 14,θ
2025-03-10 14:32:39.890,676, 551, 507, -3, -2, -4, -3, 5, 6, 807, 505, 8,λ
2025-03-10 14:32:39.941,666, 564, 517, 0, -2, -3, -3, 7, 5, 813, 540, 19,λ
2025-03-10 14:32:39.995,666, 570, 509, 0, -3, 0, -4, 6, 3, 814, 597, 20,λ
2025-03-10 14:32:40.047,669, 560, 501, -1, -6, -2, -4, 8, 5, 832, 646, 20,λ
2025-03-10 14:32:40.098,670, 573, 509, -4, -5, 3, -3, 6, 5, 857, 674, 9,λ
2025-03-10 14:32:40.150,679, 538, 500, 0, -5, 2, -5, 7, 5, 864, 689, 11,λ
2025-03-10 14:32:40.200,694, 555, 483, 1, -5, 1, -4, 5, 6, 868, 698, 18,λ
2025-03-10 14:32:40.251,686, 561, 495, -1, -3, 0, -5, 5, 6, 871, 710, 20,λ
2025-03-10 14:32:40.302,688, 560, 497, 0, -4, 1, -5, 7, 7, 880, 746, 3,λ
2025-03-10 14:32:40.353,698, 551, 489, -1, -6, 0, -5, 6, 6, 883, 757, 14,λ
2025-03-10 14:32:40.405,683, 564, 464, -5, -4, -1, -4, 7, 5, 884, 757, 21,λ
2025-03-10 14:32:40.452,712, 541, 509, 0, -4, 0, -4, 6, 5, 882, 760, 8,λ
2025-03-10 14:32:40.507,679, 549, 452, 5, -4, -1, -3, 6, 5, 889, 768, 7,λ
2025-03-10 14:32:40.560,639, 570, 488, 1, 0, -6, -3, 8, 7, 901, 782, 16,λ
2025-03-10 14:32:40.609,610, 580, 567, 28, -24, 5, -4, 5, 9, 917, 820, 19,λ
2025-03-10 14:32:40.663,838, 492, 375, -1, 2, -2, -6, 6, 7, 959, 918, 11,λ
2025-03-10 14:32:40.720,770, 424, 381, -15, -12, 18, -4, 6, 7, 978, 952, 11,λ
2025-03-10 14:32:40.768,426, 509, 405, 41, 5, 25, -5, 7, 8, 985, 949, 22,λ
2025-03-10 14:32:40.820,594, 605, 325, 1, 27, 35, -5, 7, 7, 979, 925, 8,λ
2025-03-10 14:32:40.875,482, 687, 500, 2, 4, -69, -5, 4, 6, 963, 904, 285,λ
2025-03-10 14:32:40.928,352, 1205, 811, 3, -22, -21, -5, 6, 7, 978, 938, 207,λ
2025-03-10 14:32:40.986,480, 865, -84, -50, 50, 30, -4, 7, 8, 982, 916, 10,λ
2025-03-10 14:32:41.031,834, 560, 426, 35, 36, 12, -5, 8, 6, 946, 765, 7,λ
2025-03-10 14:32:41.091,523, 528, 583, -53, 56, -32, -4, 7, 4, 902, 781, 11,λ
2025-03-10 14:32:41.400,665, 537, 545, -3, 2, -2, -5, 7, 6, 873, 708, 12,μ
2025-03-10 14:32:41.449,659, 552, 551, -1, 0, 0, -3, 7, 8, 875, 710, 7,μ
2025-03-10 14:32:41.500,704, 559, 479, -2, -5, 1, -5, 5, 5, 882, 706, 13,μ
2025-03-10 14:32:41.555,699, 533, 497, -5, -1, -1, -4, 7, 5, 893, 736, 16,μ
2025-03-10 14:32:41.604,688, 559, 475, -4, 1, 1, -4, 5, 4, 898, 741, 8,μ
2025-03-10 14:32:41.654,694, 552, 522, -7, -1, 0, -5, 7, 4, 896, 747, 12,μ
2025-03-10 14:32:41.702,678, 551, 495, -2, 0, 0, -5, 7, 6, 898, 750, 21,μ
2025-03-10 14:32:41.752,702, 552, 476, 1, -5, 3, -4, 6, 6, 897, 759, 18,μ
2025-03-10 14:32:41.809,709, 543, 476, -3, -2, 3, -6, 6, 6, 898, 766, 17,μ
2025-03-10 14:32:41.855,712, 538, 494, 1, -3, 1, -3, 8, 5, 903, 769, 12,μ
2025-03-10 14:32:41.912,686, 529, 486, 2, -3, -2, -4, 7, 5, 902, 778, 18,μ
2025-03-10 14:32:41.962,713, 550, 504, -1, -6, -2, -5, 7, 6, 902, 791, 13,μ
2025-03-10 14:32:42.013,708, 504, 455, 0, 9, -6, -4, 6, 5, 901, 772, 11,μ
2025-03-10 14:32:42.070,671, 565, 501, 12, -1, -10, -3, 6, 5, 898, 747, 17,μ
2025-03-10 14:32:42.120,716, 549, 485, 3, -3, -11, -4, 5, 5, 888, 748, 10,μ
2025-03-10 14:32:42.173,720, 548, 523, 1, -1, 8, -4, 6, 4, 906, 771, 11,μ
2025-03-10 14:32:42.227,736, 523, 499, 17, 10, 18, -3, 6, 6, 914, 777, 20,μ
2025-03-10 14:32:42.280,635, 602, 536, 14, 13, 34, -3, 6, 5, 932, 772, 16,μ
2025-03-10 14:32:42.330,718, 523, 345, -10, 7, 4, -4, 6, 3, 952, 794, 4,μ
2025-03-10 14:32:42.380,732, 524, 419, -20, 7, -6, -3, 9, 5, 964, 902, 21,μ
2025-03-10 14:32:42.440,921, 590, 1024, -9, -59, -52, -4, 7, 6, 970, 955, 13,μ
2025-03-10 14:32:42.495,645, 294, 799, 11, -23, -15, -6, 6, 7, 977, 953, 152,μ
